acc_sum,block,block_c,condition,correct,correct_response,datetime,endtime,flanker,jitter,project,response,response_test_buffer_response,response_test_target_response,response_time,response_time_test_buffer_response,response_time_test_target_response,row_sel,session_number,start_end,starttime,subject_id,target,task,task_vers,time_test_buffer,time_test_buffer_response,time_test_constants,time_test_flanker,time_test_jitter,time_test_logger,time_test_target,time_test_target_response,time_test_variables,trial
0,prac,1,inc,0,z,Thu Mar 13 2025 10:19:28 GMT-0500 (Central Daylight Time),149101.2000000002,lead,1100,I,None,,,1799,,,8,1,5160.600000000559,143940.59999999963,7077,plum,NF,C,,,,,,,,,,1
1,prac,1,con,1,z,Thu Mar 13 2025 10:19:28 GMT-0500 (Central Daylight Time),152133.5,lime,800,I,z,,,918,,,5,1,3027.0,149106.5,7077,lime,NF,C,,,,,,,,,,2
2,prac,1,inc,1,z,Thu Mar 13 2025 10:19:28 GMT-0500 (Central Daylight Time),155332.40000000037,cobalt,1100,I,z,,,785,,,4,1,3194.300000000745,152138.09999999963,7077,raisin,NF,C,,,,,,,,,,3
3,prac,1,con,1,m,Thu Mar 13 2025 10:19:28 GMT-0500 (Central Daylight Time),158248.2999999998,zinc,1000,I,m,,,606,,,15,1,2911.5999999996275,155336.7000000002,7077,zinc,NF,C,,,,,,,,,,4
4,prac,1,con,1,z,Thu Mar 13 2025 10:19:28 GMT-0500 (Central Daylight Time),161257.7999999998,kiwi,1000,I,z,,,668,,,7,1,3004.7999999998137,158253.0,7077,kiwi,NF,C,,,,,,,,,,5
5,prac,1,inc,1,m,Thu Mar 13 2025 10:19:28 GMT-0500 (Central Daylight Time),164013.09999999963,pear,900,I,m,,,552,,,14,1,2750.7999999998137,161262.2999999998,7077,iron,NF,C,,,,,,,,,,6
6,prac,1,con,1,m,Thu Mar 13 2025 10:19:28 GMT-0500 (Central Daylight Time),166962.2999999998,gold,800,I,m,,,838,,,13,1,2945.0,164017.2999999998,7077,gold,NF,C,,,,,,,,,,7
7,prac,1,inc,1,m,Thu Mar 13 2025 10:19:28 GMT-0500 (Central Daylight Time),170111.2000000002,raisin,1100,I,m,,,742,,,12,1,3144.7999999998137,166966.40000000037,7077,cobalt,NF,C,,,,,,,,,,8
8,prac,1,con,1,z,Thu Mar 13 2025 10:19:28 GMT-0500 (Central Daylight Time),173160.5,orange,1000,I,z,,,748,,,3,1,3044.7999999998137,170115.7000000002,7077,orange,NF,C,,,,,,,,,,9
9,prac,1,inc,1,z,Thu Mar 13 2025 10:19:28 GMT-0500 (Central Daylight Time),176092.5,iron,900,I,z,,,728,,,6,1,2927.7999999998137,173164.7000000002,7077,pear,NF,C,,,,,,,,,,10
10,prac,1,inc,1,m,Thu Mar 13 2025 10:19:28 GMT-0500 (Central Daylight Time),178992.0,cherry,900,I,m,,,682,,,10,1,2894.7999999998137,176097.2000000002,7077,copper,NF,C,,,,,,,,,,11
11,prac,1,con,1,m,Thu Mar 13 2025 10:19:28 GMT-0500 (Central Daylight Time),181990.90000000037,silver,1000,I,m,,,691,,,11,1,2994.0,178996.90000000037,7077,silver,NF,C,,,,,,,,,,12
12,prac,1,con,1,z,Thu Mar 13 2025 10:19:28 GMT-0500 (Central Daylight Time),184800.5,banana,800,I,z,,,676,,,1,1,2805.0999999996275,181995.40000000037,7077,banana,NF,C,,,,,,,,,,13
13,prac,1,inc,1,m,Thu Mar 13 2025 10:19:28 GMT-0500 (Central Daylight Time),187889.09999999963,plum,1100,I,m,,,699,,,16,1,3084.2999999998137,184804.7999999998,7077,lead,NF,C,,,,,,,,,,14
14,prac,1,inc,1,z,Thu Mar 13 2025 10:19:28 GMT-0500 (Central Daylight Time),190954.90000000037,copper,900,I,z,,,855,,,2,1,3061.300000000745,187893.59999999963,7077,cherry,NF,C,,,,,,,,,,15
15,prac,1,con,1,m,Thu Mar 13 2025 10:19:28 GMT-0500 (Central Daylight Time),193720.40000000037,bronze,800,I,m,,,666,,,9,1,2761.4000000003725,190959.0,7077,bronze,NF,C,,,,,,,,,,16
1,test,1,inc,1,z,Thu Mar 13 2025 10:19:28 GMT-0500 (Central Daylight Time),210165.59999999963,iron,900,I,z,z,None,986,787.0,199.0,38,1,2429.699999999255,207735.90000000037,7077,lime,NF,C,208403,208403,206773,207686,206773,209203,208203,208203,209202,1
2,test,1,inc,1,m,Thu Mar 13 2025 10:19:28 GMT-0500 (Central Daylight Time),212397.90000000037,pear,900,I,m,m,None,793,594.0,199.0,110,1,2227.4000000003725,210170.5,7077,iron,NF,C,210835,210836,209207,210119,209208,211435,210636,210636,211435,2
3,test,1,con,1,z,Thu Mar 13 2025 10:19:28 GMT-0500 (Central Daylight Time),214797.2999999998,banana,900,I,z,z,None,954,754.0,200.0,2,1,2395.2000000001863,212402.09999999963,7077,banana,NF,C,213068,213068,211439,212353,211440,213834,212868,212868,213834,3
4,test,1,inc,1,m,Thu Mar 13 2025 10:19:28 GMT-0500 (Central Daylight Time),217129.7000000002,plum,1100,I,m,m,None,691,492.0,199.0,128,1,2328.2999999998137,214801.40000000037,7077,lead,NF,C,215667,215667,213838,214951,213839,216167,215468,215468,216167,4
5,test,1,con,1,m,Thu Mar 13 2025 10:19:28 GMT-0500 (Central Daylight Time),219329.09999999963,zinc,900,I,m,m,None,750,550.0,200.0,114,1,2195.399999999441,217133.7000000002,7077,zinc,NF,C,217800,217800,216171,217085,216171,218366,217600,217600,218366,5
6,test,1,con,1,z,Thu Mar 13 2025 10:19:28 GMT-0500 (Central Daylight Time),221461.5,raisin,1000,I,z,z,None,587,387.0,200.0,27,1,2128.2000000001863,219333.2999999998,7077,raisin,NF,C,220099,220099,218370,219383,218371,220499,219899,219899,220499,6
7,test,1,inc,1,m,Thu Mar 13 2025 10:19:28 GMT-0500 (Central Daylight Time),223494.09999999963,lime,800,I,m,m,None,686,486.0,200.0,109,1,2028.5999999996275,221465.5,7077,iron,NF,C,222032,222032,220503,221316,220503,222531,221832,221832,222531,7
8,test,1,con,1,z,Thu Mar 13 2025 10:19:28 GMT-0500 (Central Daylight Time),225693.59999999963,banana,1000,I,z,z,None,661,461.0,200.0,3,1,2195.5,223498.09999999963,7077,banana,NF,C,224266,224266,222535,223548,222535,224731,224065,224065,224731,8
9,test,1,con,1,z,Thu Mar 13 2025 10:19:28 GMT-0500 (Central Daylight Time),228126.40000000037,pear,1100,I,z,z,None,785,586.0,199.0,44,1,2428.800000000745,225697.59999999963,7077,pear,NF,C,226564,226564,224735,225847,224735,227164,226364,226364,227163,9
10,test,1,inc,1,z,Thu Mar 13 2025 10:19:28 GMT-0500 (Central Daylight Time),230225.5,gold,800,I,z,z,None,757,558.0,199.0,53,1,2095.2000000001863,228130.2999999998,7077,kiwi,NF,C,228697,228697,227167,227980,227168,229263,228496,228497,229262,10
11,test,1,con,1,z,Thu Mar 13 2025 10:19:28 GMT-0500 (Central Daylight Time),232725.0,orange,1000,I,z,z,None,865,663.0,202.0,19,1,2495.0999999996275,230229.90000000037,7077,orange,NF,C,231095,231096,229267,230279,229267,231762,230893,230893,231762,11
12,test,1,inc,1,z,Thu Mar 13 2025 10:19:28 GMT-0500 (Central Daylight Time),235157.5,silver,1000,I,z,z,None,887,687.0,200.0,7,1,2428.5,232729.0,7077,banana,NF,C,233495,233495,231766,232779,231766,234195,233295,233295,234195,12
13,test,1,con,1,m,Thu Mar 13 2025 10:19:28 GMT-0500 (Central Daylight Time),237523.2999999998,zinc,1100,I,m,m,None,721,522.0,199.0,116,1,2362.0,235161.2999999998,7077,zinc,NF,C,236027,236028,234198,235311,234199,236560,235828,235828,236560,13
14,test,1,con,1,m,Thu Mar 13 2025 10:19:28 GMT-0500 (Central Daylight Time),239822.5,zinc,1000,I,m,m,None,761,562.0,199.0,115,1,2295.0999999996275,237527.40000000037,7077,zinc,NF,C,238293,238293,236564,237577,236565,238860,238094,238094,238860,14
15,test,1,con,1,m,Thu Mar 13 2025 10:19:28 GMT-0500 (Central Daylight Time),242088.59999999963,lead,1000,I,m,m,None,725,525.0,200.0,123,1,2261.899999999441,239826.7000000002,7077,lead,NF,C,240593,240593,238864,239876,238864,241126,240393,240393,241126,15
16,test,1,con,1,m,Thu Mar 13 2025 10:19:28 GMT-0500 (Central Daylight Time),244537.7000000002,copper,1100,I,m,m,None,807,608.0,199.0,76,1,2445.5,242092.2000000002,7077,copper,NF,C,242959,242959,241129,242242,241130,243575,242759,242759,243575,16
17,test,1,inc,1,m,Thu Mar 13 2025 10:19:28 GMT-0500 (Central Daylight Time),246670.2999999998,lime,800,I,m,m,None,786,586.0,200.0,117,1,2128.399999999441,244541.90000000037,7077,zinc,NF,C,245108,245108,243579,244392,243579,245707,244908,244908,245707,17
18,test,1,con,1,z,Thu Mar 13 2025 10:19:28 GMT-0500 (Central Daylight Time),248770.0,plum,800,I,z,z,None,749,550.0,199.0,57,1,2095.5999999996275,246674.40000000037,7077,plum,NF,C,247241,247241,245711,246524,245712,247807,247041,247041,247807,18
19,test,1,inc,1,z,Thu Mar 13 2025 10:19:28 GMT-0500 (Central Daylight Time),250819.2000000002,gold,800,I,z,z,None,706,506.0,200.0,61,1,2045.5,248773.7000000002,7077,plum,NF,C,249340,249340,247811,248623,247811,249856,249140,249140,249856,19
20,test,1,inc,1,z,Thu Mar 13 2025 10:19:28 GMT-0500 (Central Daylight Time),253101.90000000037,zinc,1000,I,z,z,None,736,537.0,199.0,47,1,2278.9000000003725,250823.0,7077,pear,NF,C,251589,251589,249860,250873,249860,252139,251389,251390,252139,20
21,test,1,con,1,z,Thu Mar 13 2025 10:19:28 GMT-0500 (Central Daylight Time),255432.2000000002,pear,1000,I,z,z,None,796,597.0,199.0,43,1,2325.9000000003725,253106.2999999998,7077,pear,NF,C,253872,253872,252143,253156,252144,254469,253672,253672,254469,21
22,test,1,inc,1,z,Thu Mar 13 2025 10:19:28 GMT-0500 (Central Daylight Time),257367.09999999963,bronze,800,I,z,z,None,584,385.0,199.0,13,1,1929.5,255437.59999999963,7077,cherry,NF,C,256004,256005,254475,255289,254475,256404,255805,255805,256404,22
23,test,1,con,1,z,Thu Mar 13 2025 10:19:28 GMT-0500 (Central Daylight Time),259533.0,cherry,1100,I,z,z,None,521,321.0,200.0,12,1,2162.2999999998137,257370.7000000002,7077,cherry,NF,C,258237,258237,256408,257521,256408,258570,258037,258037,258570,23
24,test,1,con,1,z,Thu Mar 13 2025 10:19:28 GMT-0500 (Central Daylight Time),261465.7000000002,raisin,900,I,z,z,None,484,284.0,200.0,26,1,1928.7000000001863,259537.0,7077,raisin,NF,C,260203,260203,258574,259487,258574,260503,260003,260003,260503,24
25,test,1,inc,1,m,Thu Mar 13 2025 10:19:28 GMT-0500 (Central Daylight Time),263781.5999999996,plum,1100,I,m,m,None,670,471.0,199.0,120,1,2311.899999999441,261469.7000000002,7077,zinc,NF,C,262336,262336,260507,261620,260507,262819,262136,262136,262819,25
26,test,1,inc,1,m,Thu Mar 13 2025 10:19:28 GMT-0500 (Central Daylight Time),265997.9000000004,kiwi,1000,I,m,m,None,678,478.0,200.0,119,1,2212.7000000001863,263785.2000000002,7077,zinc,NF,C,264552,264552,262822,263835,262823,265035,264352,264352,265035,26
27,test,1,con,1,m,Thu Mar 13 2025 10:19:28 GMT-0500 (Central Daylight Time),268213.7000000002,copper,900,I,m,m,None,778,577.0,201.0,74,1,2211.7999999998137,266001.9000000004,7077,copper,NF,C,266669,266669,265039,265952,265039,267251,266468,266468,267251,27
28,test,1,con,1,m,Thu Mar 13 2025 10:19:28 GMT-0500 (Central Daylight Time),270346.0999999996,silver,900,I,m,m,None,698,498.0,200.0,82,1,2128.5,268217.5999999996,7077,silver,NF,C,268884,268884,267255,268168,267255,269383,268684,268684,269383,28
29,test,1,inc,1,m,Thu Mar 13 2025 10:19:28 GMT-0500 (Central Daylight Time),272462.4000000004,pear,900,I,m,m,None,685,486.0,199.0,126,1,2112.600000000559,270349.7999999998,7077,lead,NF,C,271000,271000,269387,270300,269387,271499,270801,270801,271499,29
30,test,1,inc,1,m,Thu Mar 13 2025 10:19:28 GMT-0500 (Central Daylight Time),274611.5999999996,orange,1000,I,m,m,None,613,413.0,200.0,71,1,2145.199999999255,272466.4000000004,7077,bronze,NF,C,273233,273233,271503,272516,271504,273649,273032,273032,273649,30
31,test,1,con,1,z,Thu Mar 13 2025 10:19:28 GMT-0500 (Central Daylight Time),276861.0999999996,kiwi,1000,I,z,z,None,711,512.0,199.0,51,1,2245.699999999255,274615.4000000004,7077,kiwi,NF,C,275382,275382,273652,274665,273653,275898,275182,275182,275898,31
32,test,1,con,1,z,Thu Mar 13 2025 10:19:28 GMT-0500 (Central Daylight Time),278972.5999999996,cherry,1000,I,z,z,None,577,378.0,199.0,11,1,2107.5,276865.0999999996,7077,cherry,NF,C,277631,277631,275902,276915,275902,278010,277432,277432,278010,32
33,test,1,inc,1,z,Thu Mar 13 2025 10:19:28 GMT-0500 (Central Daylight Time),280893.0999999996,gold,800,I,z,z,None,579,379.0,200.0,37,1,1916.0999999996275,278977.0,7077,lime,NF,C,279547,279547,278014,278831,278014,279930,279347,279347,279930,33
34,test,1,con,1,z,Thu Mar 13 2025 10:19:28 GMT-0500 (Central Daylight Time),282942.4000000004,banana,800,I,z,z,None,703,503.0,200.0,1,1,2045.7000000001863,280896.7000000002,7077,banana,NF,C,281463,281463,279934,280747,279934,281980,281263,281263,281979,34
35,test,1,con,1,z,Thu Mar 13 2025 10:19:28 GMT-0500 (Central Daylight Time),284925.0999999996,pear,900,I,z,z,None,554,354.0,200.0,42,1,1978.8999999994412,282946.2000000002,7077,pear,NF,C,283597,283597,281983,282896,281984,283962,283397,283397,283962,35
36,test,1,con,1,z,Thu Mar 13 2025 10:19:28 GMT-0500 (Central Daylight Time),287041.2999999998,raisin,1100,I,z,z,None,475,276.0,199.0,28,1,2112.2000000001863,284929.0999999996,7077,raisin,NF,C,285795,285795,283966,285079,283966,286078,285595,285596,286078,36
37,test,1,inc,1,m,Thu Mar 13 2025 10:19:28 GMT-0500 (Central Daylight Time),289307.2000000002,plum,1100,I,m,m,None,631,431.0,200.0,112,1,2262.0,287045.2000000002,7077,iron,NF,C,287911,287911,286082,287195,286083,288344,287711,287711,288344,37
37,test,1,inc,0,z,Thu Mar 13 2025 10:19:28 GMT-0500 (Central Daylight Time),291506.2000000002,zinc,1000,I,m,m,None,665,465.0,200.0,39,1,2195.4000000003725,289310.7999999998,7077,lime,NF,C,290077,290077,288348,289361,288348,290543,289877,289877,290543,38
38,test,1,con,1,m,Thu Mar 13 2025 10:19:28 GMT-0500 (Central Daylight Time),293689.0,iron,1000,I,m,m,None,640,441.0,199.0,107,1,2179.0,291510.0,7077,iron,NF,C,292277,292277,290547,291560,290547,292726,292077,292077,292726,39
39,test,1,con,1,z,Thu Mar 13 2025 10:19:28 GMT-0500 (Central Daylight Time),295988.5,kiwi,1100,I,z,z,None,663,463.0,200.0,52,1,2295.5,293693.0,7077,kiwi,NF,C,294559,294559,292730,293843,292730,295026,294359,294359,295025,40
40,test,1,inc,1,z,Thu Mar 13 2025 10:19:28 GMT-0500 (Central Daylight Time),298304.2999999998,iron,900,I,z,z,None,866,667.0,199.0,54,1,2312.2000000001863,295992.0999999996,7077,kiwi,NF,C,296659,296659,295029,295942,295029,297341,296459,296459,297341,41
41,test,1,inc,1,z,Thu Mar 13 2025 10:19:28 GMT-0500 (Central Daylight Time),300820.4000000004,lead,1100,I,z,z,None,870,671.0,199.0,40,1,2512.5,298307.9000000004,7077,lime,NF,C,299175,299175,297345,298458,297345,299857,298975,298975,299857,42
42,test,1,inc,1,z,Thu Mar 13 2025 10:19:28 GMT-0500 (Central Daylight Time),303019.5999999996,zinc,1000,I,z,z,None,664,339.0,325.0,63,1,2195.399999999441,300824.2000000002,7077,plum,NF,C,301716,301716,299861,300874,299862,302057,301391,301391,302057,43
43,test,1,inc,1,m,Thu Mar 13 2025 10:19:28 GMT-0500 (Central Daylight Time),305235.4000000004,cherry,900,I,m,m,None,779,580.0,199.0,78,1,2211.9000000003725,303023.5,7077,copper,NF,C,303690,303690,302061,302973,302061,304273,303490,303490,304272,44
44,test,1,con,1,m,Thu Mar 13 2025 10:19:28 GMT-0500 (Central Daylight Time),307551.2999999998,cobalt,900,I,m,m,None,876,677.0,199.0,90,1,2312.0,305239.2999999998,7077,cobalt,NF,C,305906,305906,304276,305189,304277,306588,305706,305706,306588,45
45,test,1,inc,1,z,Thu Mar 13 2025 10:19:28 GMT-0500 (Central Daylight Time),310050.5,lead,1100,I,z,z,None,863,663.0,200.0,64,1,2495.2999999998137,307555.2000000002,7077,plum,NF,C,308423,308423,306592,307705,306593,309088,308222,308222,309087,46
46,test,1,inc,1,z,Thu Mar 13 2025 10:19:28 GMT-0500 (Central Daylight Time),312283.0999999996,zinc,1000,I,z,z,None,696,497.0,199.0,55,1,2228.699999999255,310054.4000000004,7077,kiwi,NF,C,310821,310821,309091,310104,309092,311320,310621,310621,311320,47
47,test,1,inc,1,m,Thu Mar 13 2025 10:19:28 GMT-0500 (Central Daylight Time),314667.0,raisin,1100,I,m,m,None,741,541.0,200.0,72,1,2380.5999999996275,312286.4000000004,7077,bronze,NF,C,313153,313153,311323,312437,311324,313704,312953,312953,313704,48
48,test,1,inc,1,m,Thu Mar 13 2025 10:19:28 GMT-0500 (Central Daylight Time),316998.4000000004,kiwi,1000,I,m,m,None,786,586.0,200.0,111,1,2327.7000000011176,314670.69999999925,7077,iron,NF,C,315436,315436,313708,314719,313708,316035,315236,315236,316035,49
49,test,1,con,1,m,Thu Mar 13 2025 10:19:28 GMT-0500 (Central Daylight Time),319297.5999999996,bronze,1000,I,m,m,None,757,558.0,199.0,67,1,2295.4000000003725,317002.19999999925,7077,bronze,NF,C,317768,317768,316039,317052,316039,318335,317569,317569,318335,50
50,test,1,inc,1,m,Thu Mar 13 2025 10:19:28 GMT-0500 (Central Daylight Time),321696.80000000075,orange,1000,I,m,m,None,858,658.0,200.0,87,1,2395.4000000003725,319301.4000000004,7077,silver,NF,C,320068,320068,318338,319351,318339,320734,319868,319868,320734,51
51,test,1,inc,1,z,Thu Mar 13 2025 10:19:28 GMT-0500 (Central Daylight Time),323996.4000000004,silver,1000,I,z,z,None,764,564.0,200.0,15,1,2295.9000000003725,321700.5,7077,cherry,NF,C,322467,322467,320738,321751,320738,323033,322267,322267,323033,52
52,test,1,con,1,z,Thu Mar 13 2025 10:19:28 GMT-0500 (Central Daylight Time),326345.4000000004,plum,1000,I,z,z,None,816,616.0,200.0,59,1,2345.5,323999.9000000004,7077,plum,NF,C,324766,324766,323037,324050,323037,325382,324566,324566,325382,53
53,test,1,con,1,m,Thu Mar 13 2025 10:19:28 GMT-0500 (Central Daylight Time),328628.19999999925,bronze,900,I,m,m,None,837,638.0,199.0,66,1,2279.0999999996275,326349.0999999996,7077,bronze,NF,C,327016,327016,325386,326299,325387,327665,326816,326816,327665,54
54,test,1,inc,1,m,Thu Mar 13 2025 10:19:28 GMT-0500 (Central Daylight Time),330910.69999999925,orange,1000,I,m,m,None,744,544.0,200.0,95,1,2278.699999999255,328632.0,7077,cobalt,NF,C,329398,329398,327669,328682,327669,329948,329198,329198,329948,55
55,test,1,con,1,m,Thu Mar 13 2025 10:19:28 GMT-0500 (Central Daylight Time),333010.19999999925,gold,800,I,m,m,None,756,557.0,199.0,97,1,2095.89999999851,330914.30000000075,7077,gold,NF,C,331481,331481,329951,330765,329952,332047,331281,331281,332047,56
56,test,1,inc,1,m,Thu Mar 13 2025 10:19:28 GMT-0500 (Central Daylight Time),335276.19999999925,pear,900,I,m,m,None,821,622.0,199.0,102,1,2262.0999999996275,333014.0999999996,7077,gold,NF,C,333680,333680,332051,332964,332051,334313,333481,333481,334313,57
57,test,1,inc,1,z,Thu Mar 13 2025 10:19:28 GMT-0500 (Central Daylight Time),337658.4000000004,cobalt,1100,I,z,z,None,740,540.0,200.0,24,1,2378.7000000011176,335279.69999999925,7077,orange,NF,C,336146,336146,334317,335430,334317,336695,335946,335946,336695,58
58,test,1,con,1,z,Thu Mar 13 2025 10:19:28 GMT-0500 (Central Daylight Time),340091.19999999925,plum,1100,I,z,z,None,796,597.0,199.0,60,1,2428.89999999851,337662.30000000075,7077,plum,NF,C,338529,338529,336699,337814,336700,339128,338329,338329,339128,59
59,test,1,inc,1,m,Thu Mar 13 2025 10:19:28 GMT-0500 (Central Daylight Time),342407.19999999925,raisin,1100,I,m,m,None,678,478.0,200.0,96,1,2312.0999999996275,340095.0999999996,7077,cobalt,NF,C,340961,340961,339132,340245,339132,341444,340761,340761,341444,60
60,test,1,inc,1,z,Thu Mar 13 2025 10:19:28 GMT-0500 (Central Daylight Time),344556.0999999996,bronze,800,I,z,z,None,812,613.0,199.0,5,1,2145.0999999996275,342411.0,7077,banana,NF,C,342977,342977,341448,342261,341448,343593,342777,342777,343593,61
61,test,1,con,1,z,Thu Mar 13 2025 10:19:28 GMT-0500 (Central Daylight Time),346989.0999999996,lime,1100,I,z,z,None,786,587.0,199.0,36,1,2428.9000000003725,344560.19999999925,7077,lime,NF,C,345427,345427,343597,344710,343598,346026,345227,345227,346026,62
62,test,1,inc,1,z,Thu Mar 13 2025 10:19:28 GMT-0500 (Central Daylight Time),349221.5999999996,silver,1000,I,z,z,None,695,495.0,200.0,31,1,2228.9000000003725,346992.69999999925,7077,raisin,NF,C,347759,347759,346030,347043,346030,348259,347559,347559,348259,63
63,test,1,con,1,m,Thu Mar 13 2025 10:19:28 GMT-0500 (Central Daylight Time),351287.5,bronze,800,I,m,m,None,726,526.0,200.0,65,1,2062.199999999255,349225.30000000075,7077,bronze,NF,C,349792,349792,348262,349075,348263,350325,349592,349592,350325,64
64,test,1,con,1,m,Thu Mar 13 2025 10:19:28 GMT-0500 (Central Daylight Time),353470.30000000075,silver,1000,I,m,m,None,645,445.0,200.0,83,1,2178.7000000011176,351291.5999999996,7077,silver,NF,C,352058,352058,350329,351341,350329,352507,351858,351858,352507,65
65,test,1,inc,1,m,Thu Mar 13 2025 10:19:28 GMT-0500 (Central Daylight Time),355852.9000000004,raisin,1100,I,m,m,None,744,545.0,199.0,88,1,2379.0999999996275,353473.80000000075,7077,silver,NF,C,354341,354341,352511,353624,352511,354890,354141,354141,354890,66
66,test,1,inc,1,m,Thu Mar 13 2025 10:19:28 GMT-0500 (Central Daylight Time),358168.80000000075,kiwi,1000,I,m,m,None,775,575.0,200.0,127,1,2311.800000000745,355857.0,7077,lead,NF,C,356623,356623,354894,355907,354894,357206,356423,356423,357206,67
67,test,1,con,1,m,Thu Mar 13 2025 10:19:28 GMT-0500 (Central Daylight Time),360334.80000000075,copper,1000,I,m,m,None,627,427.0,200.0,75,1,2162.2000000011176,358172.5999999996,7077,copper,NF,C,358939,358939,357210,358222,357210,359372,358739,358739,359372,68
68,test,1,inc,1,m,Thu Mar 13 2025 10:19:28 GMT-0500 (Central Daylight Time),362184.5,lime,800,I,m,m,None,509,309.0,200.0,125,1,1845.9000000003725,360338.5999999996,7077,lead,NF,C,360905,360905,359376,360189,359376,361222,360705,360705,361222,69
69,test,1,inc,1,z,Thu Mar 13 2025 10:19:28 GMT-0500 (Central Daylight Time),364483.5999999996,cobalt,1100,I,z,z,None,655,456.0,199.0,16,1,2295.699999999255,362187.9000000004,7077,cherry,NF,C,363054,363054,361225,362338,361225,363521,362855,362855,363521,70
70,test,1,con,1,z,Thu Mar 13 2025 10:19:28 GMT-0500 (Central Daylight Time),366833.0,orange,1100,I,z,z,None,699,500.0,199.0,20,1,2345.4000000003725,364487.5999999996,7077,orange,NF,C,365354,365354,363525,364637,363525,365870,365154,365154,365870,71
71,test,1,con,1,m,Thu Mar 13 2025 10:19:28 GMT-0500 (Central Daylight Time),369165.30000000075,lead,1100,I,m,m,None,687,487.0,200.0,124,1,2328.5,366836.80000000075,7077,lead,NF,C,367703,367703,365874,366986,365874,368202,367503,367503,368202,72
72,test,1,con,1,m,Thu Mar 13 2025 10:19:28 GMT-0500 (Central Daylight Time),371598.19999999925,cobalt,1000,I,m,m,None,886,670.0,216.0,91,1,2429.199999999255,369169.0,7077,cobalt,NF,C,369953,369953,368206,369219,368206,370635,369737,369737,370635,73
73,test,1,inc,1,z,Thu Mar 13 2025 10:19:28 GMT-0500 (Central Daylight Time),374014.0999999996,copper,900,I,z,z,None,864,662.0,202.0,30,1,2412.0,371602.0999999996,7077,raisin,NF,C,372384,372384,370639,371552,370639,373051,372182,372182,373051,74
74,test,1,con,1,m,Thu Mar 13 2025 10:19:28 GMT-0500 (Central Daylight Time),376179.80000000075,zinc,800,I,m,m,None,830,630.0,200.0,113,1,2162.0,374017.80000000075,7077,zinc,NF,C,374584,374584,373055,373869,373055,375217,374384,374384,375217,75
75,test,1,con,1,m,Thu Mar 13 2025 10:19:28 GMT-0500 (Central Daylight Time),378579.19999999925,bronze,1100,I,m,m,None,757,557.0,200.0,68,1,2395.5999999996275,376183.5999999996,7077,bronze,NF,C,377050,377050,375221,376334,375221,377616,376850,376850,377616,76
76,test,1,inc,1,z,Thu Mar 13 2025 10:19:28 GMT-0500 (Central Daylight Time),380895.0999999996,lead,1100,I,z,z,None,677,477.0,200.0,56,1,2311.9000000003725,378583.19999999925,7077,kiwi,NF,C,379449,379449,377620,378733,377621,379932,379249,379249,379932,77
77,test,1,inc,1,z,Thu Mar 13 2025 10:19:28 GMT-0500 (Central Daylight Time),383094.5,copper,900,I,z,z,None,761,561.0,200.0,22,1,2195.699999999255,380898.80000000075,7077,orange,NF,C,381565,381565,379936,380849,379936,382132,381365,381365,382131,78
78,test,1,con,1,m,Thu Mar 13 2025 10:19:28 GMT-0500 (Central Daylight Time),385460.19999999925,cobalt,1100,I,m,m,None,729,530.0,199.0,92,1,2362.0,383098.19999999925,7077,cobalt,NF,C,383964,383964,382135,383248,382136,384497,383765,383765,384497,79
79,test,1,con,1,m,Thu Mar 13 2025 10:19:28 GMT-0500 (Central Daylight Time),387676.4000000004,iron,800,I,m,m,None,878,679.0,199.0,105,1,2212.300000000745,385464.0999999996,7077,iron,NF,C,386031,386031,384501,385314,384501,386714,385831,385831,386713,80
80,test,1,inc,1,m,Thu Mar 13 2025 10:19:28 GMT-0500 (Central Daylight Time),389775.5999999996,banana,800,I,m,m,None,752,552.0,200.0,93,1,2095.5999999996275,387680.0,7077,cobalt,NF,C,388246,388246,386717,387530,386717,388813,388046,388046,388813,81
81,test,1,inc,1,m,Thu Mar 13 2025 10:19:28 GMT-0500 (Central Daylight Time),391958.30000000075,cherry,900,I,m,m,None,744,545.0,199.0,86,1,2179.10000000149,389779.19999999925,7077,silver,NF,C,390446,390446,388816,389729,388817,390995,390246,390246,390995,82
82,test,1,inc,1,z,Thu Mar 13 2025 10:19:28 GMT-0500 (Central Daylight Time),394107.9000000004,gold,800,I,z,z,None,804,589.0,215.0,45,1,2145.800000000745,391962.0999999996,7077,pear,NF,C,392545,392545,390999,391812,390999,393145,392330,392330,393145,83
83,test,1,con,1,z,Thu Mar 13 2025 10:19:28 GMT-0500 (Central Daylight Time),396240.30000000075,lime,900,I,z,z,None,692,492.0,200.0,34,1,2128.4000000003725,394111.9000000004,7077,lime,NF,C,394778,394778,393149,394061,393149,395277,394578,394578,395277,84
84,test,1,con,1,m,Thu Mar 13 2025 10:19:28 GMT-0500 (Central Daylight Time),398706.0999999996,silver,1100,I,m,m,None,831,632.0,199.0,84,1,2461.7999999988824,396244.30000000075,7077,silver,NF,C,397111,397111,395281,396394,395282,397743,396911,396911,397743,85
85,test,1,inc,1,z,Thu Mar 13 2025 10:19:28 GMT-0500 (Central Daylight Time),400755.30000000075,copper,900,I,z,z,None,613,414.0,199.0,6,1,2045.7000000011176,398709.5999999996,7077,banana,NF,C,399376,399376,397747,398660,397747,399792,399177,399177,399792,86
86,test,1,con,1,z,Thu Mar 13 2025 10:19:28 GMT-0500 (Central Daylight Time),403004.69999999925,kiwi,800,I,z,z,None,903,704.0,199.0,49,1,2245.699999999255,400759.0,7077,kiwi,NF,C,401326,401326,399796,400609,399796,402042,401126,401126,402042,87
87,test,1,con,1,z,Thu Mar 13 2025 10:19:28 GMT-0500 (Central Daylight Time),405304.0999999996,lime,800,I,z,z,None,951,751.0,200.0,33,1,2295.7999999988824,403008.30000000075,7077,lime,NF,C,403575,403575,402045,402859,402046,404341,403375,403375,404341,88
88,test,1,inc,1,z,Thu Mar 13 2025 10:19:28 GMT-0500 (Central Daylight Time),407703.5999999996,cobalt,1100,I,z,z,None,760,560.0,200.0,8,1,2395.199999999255,405308.4000000004,7077,banana,NF,C,406174,406174,404345,405458,404346,406741,405974,405974,406740,89
89,test,1,inc,1,z,Thu Mar 13 2025 10:19:28 GMT-0500 (Central Daylight Time),410069.0,lead,1100,I,z,z,None,728,529.0,199.0,48,1,2361.9000000003725,407707.0999999996,7077,pear,NF,C,408574,408574,406744,407857,406744,409106,408374,408374,409106,90
90,test,1,inc,1,m,Thu Mar 13 2025 10:19:28 GMT-0500 (Central Daylight Time),412135.5,banana,800,I,m,m,None,726,527.0,199.0,85,1,2063.0,410072.5,7077,silver,NF,C,410639,410639,409110,409923,409110,411173,410440,410440,411172,91
91,test,1,inc,1,m,Thu Mar 13 2025 10:19:28 GMT-0500 (Central Daylight Time),414284.69999999925,pear,900,I,m,m,None,711,512.0,199.0,118,1,2145.5,412139.19999999925,7077,zinc,NF,C,412805,412806,411176,412089,411177,413322,412606,412606,413322,92
92,test,1,con,1,m,Thu Mar 13 2025 10:19:28 GMT-0500 (Central Daylight Time),416567.4000000004,gold,1100,I,m,m,None,634,435.0,199.0,100,1,2278.9000000003725,414288.5,7077,gold,NF,C,415155,415155,413326,414438,413326,415604,414955,414955,415604,93
93,test,1,inc,1,m,Thu Mar 13 2025 10:19:28 GMT-0500 (Central Daylight Time),418799.80000000075,orange,1000,I,m,m,None,685,485.0,200.0,79,1,2228.800000000745,416571.0,7077,copper,NF,C,417337,417337,415608,416621,415608,417837,417137,417137,417837,94
94,test,1,inc,1,z,Thu Mar 13 2025 10:19:28 GMT-0500 (Central Daylight Time),420749.4000000004,bronze,800,I,z,z,None,613,286.0,327.0,21,1,1945.9000000003725,418803.5,7077,orange,NF,C,419497,419497,417841,418654,417841,419787,419170,419170,419786,95
95,test,1,inc,1,m,Thu Mar 13 2025 10:19:28 GMT-0500 (Central Daylight Time),423015.4000000004,kiwi,1000,I,m,m,None,727,527.0,200.0,103,1,2262.4000000003725,420753.0,7077,gold,NF,C,421519,421519,419790,420804,419790,422053,421319,421319,422052,96
96,test,1,inc,1,z,Thu Mar 13 2025 10:19:28 GMT-0500 (Central Daylight Time),425281.0999999996,cobalt,1100,I,z,z,None,624,425.0,199.0,32,1,2261.9000000003725,423019.19999999925,7077,raisin,NF,C,423885,423885,422056,423169,422056,424318,423686,423686,424318,97
97,test,1,con,1,z,Thu Mar 13 2025 10:19:28 GMT-0500 (Central Daylight Time),427263.80000000075,cherry,800,I,z,z,None,643,443.0,200.0,9,1,1978.7000000011176,425285.0999999996,7077,cherry,NF,C,425851,425851,424322,425135,424322,426301,425651,425651,426301,98
98,test,1,con,1,z,Thu Mar 13 2025 10:19:28 GMT-0500 (Central Daylight Time),429447.69999999925,kiwi,900,I,z,z,None,744,544.0,200.0,50,1,2180.2999999988824,427267.4000000004,7077,kiwi,NF,C,427934,427934,426304,427218,426305,428485,427734,427734,428485,99
99,test,1,con,1,z,Thu Mar 13 2025 10:19:28 GMT-0500 (Central Daylight Time),431545.80000000075,cherry,900,I,z,z,None,656,457.0,199.0,10,1,2094.2000000011176,429451.5999999996,7077,cherry,NF,C,430117,430117,428489,429400,428489,430583,429917,429917,430583,100
100,test,1,con,1,z,Thu Mar 13 2025 10:19:28 GMT-0500 (Central Daylight Time),433611.80000000075,plum,900,I,z,z,None,622,422.0,200.0,58,1,2062.4000000003725,431549.4000000004,7077,plum,NF,C,432216,432216,430586,431500,430587,432649,432016,432016,432649,101
101,test,1,inc,1,m,Thu Mar 13 2025 10:19:28 GMT-0500 (Central Daylight Time),435677.9000000004,lime,800,I,m,m,None,720,520.0,200.0,101,1,2062.300000000745,433615.5999999996,7077,gold,NF,C,434182,434182,432653,433466,432653,434715,433982,433982,434715,102
102,test,1,con,1,m,Thu Mar 13 2025 10:19:28 GMT-0500 (Central Daylight Time),437777.30000000075,lead,900,I,m,m,None,658,458.0,200.0,122,1,2095.800000000745,435681.5,7077,lead,NF,C,436348,436348,434719,435632,434719,436814,436148,436148,436814,103
103,test,1,inc,1,z,Thu Mar 13 2025 10:19:28 GMT-0500 (Central Daylight Time),439976.4000000004,silver,1000,I,z,z,None,651,451.0,200.0,23,1,2195.5,437780.9000000004,7077,orange,NF,C,438547,438547,436818,437831,436818,439014,438347,438347,439013,104
104,test,1,con,1,z,Thu Mar 13 2025 10:19:28 GMT-0500 (Central Daylight Time),442225.5999999996,lime,1000,I,z,z,None,714,515.0,199.0,35,1,2245.5,439980.0999999996,7077,lime,NF,C,440747,440747,439017,440030,439017,441263,440547,440547,441263,105
105,test,1,inc,1,m,Thu Mar 13 2025 10:19:28 GMT-0500 (Central Daylight Time),444358.4000000004,cherry,900,I,m,m,None,694,369.0,325.0,70,1,2129.4000000003725,442229.0,7077,bronze,NF,C,443021,443021,441266,442180,441266,443396,442696,442696,443395,106
106,test,1,inc,1,m,Thu Mar 13 2025 10:19:28 GMT-0500 (Central Daylight Time),446674.4000000004,raisin,1100,I,m,m,None,672,473.0,199.0,80,1,2312.4000000003725,444362.0,7077,copper,NF,C,445229,445229,443399,444512,443399,445712,445029,445029,445711,107
107,test,1,con,1,z,Thu Mar 13 2025 10:19:28 GMT-0500 (Central Daylight Time),448707.19999999925,orange,800,I,z,z,None,689,490.0,199.0,17,1,2028.8999999985099,446678.30000000075,7077,orange,NF,C,447245,447245,445715,446528,445716,447744,447045,447045,447744,108
108,test,1,con,1,m,Thu Mar 13 2025 10:19:28 GMT-0500 (Central Daylight Time),450706.5999999996,iron,900,I,m,m,None,564,365.0,199.0,106,1,1995.5999999996275,448711.0,7077,iron,NF,C,449377,449377,447748,448661,447748,449744,449178,449178,449744,109
109,test,1,inc,1,m,Thu Mar 13 2025 10:19:28 GMT-0500 (Central Daylight Time),452805.9000000004,banana,800,I,m,m,None,752,553.0,199.0,77,1,2095.5999999996275,450710.30000000075,7077,copper,NF,C,451277,451277,449747,450561,449748,451843,451077,451077,451843,110
110,test,1,inc,1,z,Thu Mar 13 2025 10:19:28 GMT-0500 (Central Daylight Time),454905.19999999925,copper,900,I,z,z,None,658,458.0,200.0,14,1,2095.199999999255,452810.0,7077,cherry,NF,C,453476,453476,451847,452760,451847,453942,453276,453276,453942,111
111,test,1,inc,1,z,Thu Mar 13 2025 10:19:28 GMT-0500 (Central Daylight Time),456921.19999999925,iron,900,I,z,z,None,574,375.0,199.0,46,1,2012.199999999255,454909.0,7077,pear,NF,C,455575,455575,453946,454859,453946,455958,455376,455376,455958,112
112,test,1,inc,1,m,Thu Mar 13 2025 10:19:28 GMT-0500 (Central Daylight Time),459187.9000000004,plum,1100,I,m,m,None,630,431.0,199.0,104,1,2262.9000000003725,456925.0,7077,gold,NF,C,457791,457791,455962,457075,455962,458225,457592,457592,458225,113
113,test,1,con,1,m,Thu Mar 13 2025 10:19:28 GMT-0500 (Central Daylight Time),461220.0,copper,800,I,m,m,None,689,489.0,200.0,73,1,2028.199999999255,459191.80000000075,7077,copper,NF,C,459757,459757,458229,459041,458229,460257,459557,459557,460257,114
114,test,1,inc,1,z,Thu Mar 13 2025 10:19:28 GMT-0500 (Central Daylight Time),463302.5,iron,900,I,z,z,None,636,436.0,200.0,62,1,2078.9000000003725,461223.5999999996,7077,plum,NF,C,461890,461890,460261,461174,460261,462340,461690,461690,462340,115
115,test,1,con,1,m,Thu Mar 13 2025 10:19:28 GMT-0500 (Central Daylight Time),465535.19999999925,gold,900,I,m,m,None,784,585.0,199.0,98,1,2228.89999999851,463306.30000000075,7077,gold,NF,C,463973,463973,462343,463256,462344,464572,463773,463773,464572,116
116,test,1,con,1,z,Thu Mar 13 2025 10:19:28 GMT-0500 (Central Daylight Time),467401.19999999925,pear,800,I,z,z,None,532,333.0,199.0,41,1,1862.0,465539.19999999925,7077,pear,NF,C,466105,466105,464576,465389,464576,466438,465906,465906,466438,117
117,test,1,con,1,m,Thu Mar 13 2025 10:19:28 GMT-0500 (Central Daylight Time),469400.69999999925,silver,800,I,m,m,None,658,459.0,199.0,81,1,1995.7999999988824,467404.9000000004,7077,silver,NF,C,467971,467971,466442,467255,466442,468438,467772,467772,468438,118
118,test,1,con,1,z,Thu Mar 13 2025 10:19:28 GMT-0500 (Central Daylight Time),471383.5,raisin,800,I,z,z,None,643,444.0,199.0,25,1,1979.0999999996275,469404.4000000004,7077,raisin,NF,C,469971,469971,468441,469254,468442,470421,469771,469771,470420,119
119,test,1,con,1,m,Thu Mar 13 2025 10:19:28 GMT-0500 (Central Daylight Time),473449.30000000075,lead,800,I,m,m,None,716,517.0,199.0,121,1,2062.300000000745,471387.0,7077,lead,NF,C,471954,471954,470424,471237,470424,472486,471754,471754,472486,120
120,test,1,con,1,m,Thu Mar 13 2025 10:19:28 GMT-0500 (Central Daylight Time),475398.69999999925,cobalt,800,I,m,m,None,601,402.0,199.0,89,1,1945.699999999255,473453.0,7077,cobalt,NF,C,474020,474020,472490,473303,472490,474436,473820,473820,474436,121
121,test,1,inc,1,m,Thu Mar 13 2025 10:19:28 GMT-0500 (Central Daylight Time),477481.30000000075,banana,800,I,m,m,None,734,534.0,200.0,69,1,2078.9000000003725,475402.4000000004,7077,bronze,NF,C,475969,475969,474439,475252,474440,476518,475769,475769,476518,122
122,test,1,con,1,z,Thu Mar 13 2025 10:19:28 GMT-0500 (Central Daylight Time),479864.0999999996,banana,1100,I,z,z,None,734,535.0,199.0,4,1,2379.0999999996275,477485.0,7077,banana,NF,C,478351,478351,476522,477635,476522,478901,478152,478152,478901,123
123,test,1,con,1,z,Thu Mar 13 2025 10:19:28 GMT-0500 (Central Daylight Time),482313.30000000075,orange,900,I,z,z,None,1008,808.0,200.0,18,1,2445.7000000011176,479867.5999999996,7077,orange,NF,C,480534,480534,478905,479818,478905,481350,480334,480334,481350,124
124,test,1,con,1,m,Thu Mar 13 2025 10:19:28 GMT-0500 (Central Daylight Time),484695.80000000075,iron,1100,I,m,m,None,733,518.0,215.0,108,1,2379.10000000149,482316.69999999925,7077,iron,NF,C,483200,483200,481354,482467,481354,483733,482985,482985,483733,125
125,test,1,inc,1,m,Thu Mar 13 2025 10:19:28 GMT-0500 (Central Daylight Time),486745.19999999925,cherry,900,I,m,m,None,600,400.0,200.0,94,1,2045.5999999996275,484699.5999999996,7077,cobalt,NF,C,485366,485366,483737,484650,483737,485782,485166,485166,485782,126
126,test,1,inc,1,z,Thu Mar 13 2025 10:19:28 GMT-0500 (Central Daylight Time),488794.4000000004,bronze,800,I,z,z,None,705,506.0,199.0,29,1,2045.5,486748.9000000004,7077,raisin,NF,C,487316,487316,485786,486599,485786,487831,487116,487116,487831,127
127,test,1,con,1,m,Thu Mar 13 2025 10:19:28 GMT-0500 (Central Daylight Time),491103.30000000075,gold,1000,I,m,m,None,758,559.0,199.0,99,1,2305.10000000149,488798.19999999925,7077,gold,NF,C,489564,489564,487835,488848,487836,490140,489365,489365,490140,128
