Number,acc_sum,block,block_c,block_cond,con_img,correct,correct_response,datetime,endtime,jitter,project,response,response_time,row_sel,session_number,start_end,starttime,subject_id,task,task_vers,trial
3,1,prac,1,A,circle.png,1,z,Thu Apr 03 2025 15:17:39 GMT-0500 (Central Daylight Time),69705.29999999702,1200,O,z,476,3,1,2455.39999999851,67249.89999999851,7110,NTS,C,1
2,2,prac,1,A,circle.png,1,z,Thu Apr 03 2025 15:17:39 GMT-0500 (Central Daylight Time),73172.29999999702,2000,O,z,671,2,1,3462.39999999851,69709.89999999851,7110,NTS,C,2
6,3,prac,1,A,circle.png,1,m,Thu Apr 03 2025 15:17:39 GMT-0500 (Central Daylight Time),76338.89999999851,1900,O,m,495,5,1,3160.3000000044703,73178.59999999404,7110,NTS,C,3
7,4,prac,1,A,circle.png,1,m,Thu Apr 03 2025 15:17:39 GMT-0500 (Central Daylight Time),79337.09999999404,1700,O,m,507,6,1,2992.5999999940395,76344.5,7110,NTS,C,4
4,5,prac,1,A,circle.png,1,z,Thu Apr 03 2025 15:17:39 GMT-0500 (Central Daylight Time),82087.79999999702,1400,O,z,551,4,1,2745.2999999970198,79342.5,7110,NTS,C,5
8,6,prac,1,A,circle.png,1,m,Thu Apr 03 2025 15:17:39 GMT-0500 (Central Daylight Time),84950.59999999404,1600,O,m,467,7,1,2854.89999999851,82095.69999999553,7110,NTS,C,6
4,7,prac,1,A,circle.png,1,z,Thu Apr 03 2025 15:17:39 GMT-0500 (Central Daylight Time),87569.5,1400,O,z,417,4,1,2614.5,84955.0,7110,NTS,C,7
9,8,prac,1,A,circle.png,1,m,Thu Apr 03 2025 15:17:39 GMT-0500 (Central Daylight Time),90252.79999999702,1500,O,m,398,8,1,2677.2999999970198,87575.5,7110,NTS,C,8
1,9,prac,1,A,circle.png,1,z,Thu Apr 03 2025 15:17:39 GMT-0500 (Central Daylight Time),92451.69999999553,1000,O,z,405,1,1,2190.6999999955297,90261.0,7110,NTS,C,9
1,10,prac,1,A,circle.png,1,z,Thu Apr 03 2025 15:17:39 GMT-0500 (Central Daylight Time),94715.69999999553,1000,O,z,469,1,1,2257.7999999970198,92457.89999999851,7110,NTS,C,10
2,11,prac,1,A,circle.png,1,z,Thu Apr 03 2025 15:17:39 GMT-0500 (Central Daylight Time),98066.89999999851,2000,O,z,567,2,1,3340.8000000044703,94726.09999999404,7110,NTS,C,11
7,12,prac,1,A,circle.png,1,m,Thu Apr 03 2025 15:17:39 GMT-0500 (Central Daylight Time),100965.59999999404,1700,O,m,428,6,1,2890.7999999970198,98074.79999999702,7110,NTS,C,12
3,1,prac,1,B,triangle.png,1,z,Thu Apr 03 2025 15:17:39 GMT-0500 (Central Daylight Time),138204.0,1600,O,z,553,3,1,2925.8000000044703,135278.19999999553,7110,NTS,C,1
1,2,prac,1,B,triangle.png,1,z,Thu Apr 03 2025 15:17:39 GMT-0500 (Central Daylight Time),141452.5,1900,O,z,571,1,1,3242.8000000044703,138209.69999999553,7110,NTS,C,2
6,3,prac,1,B,triangle.png,1,m,Thu Apr 03 2025 15:17:39 GMT-0500 (Central Daylight Time),143802.5,1000,O,m,550,5,1,2342.4000000059605,141460.09999999404,7110,NTS,C,3
2,4,prac,1,B,triangle.png,1,m,Thu Apr 03 2025 15:17:39 GMT-0500 (Central Daylight Time),147034.8999999985,1700,O,m,733,2,1,3226.0,143808.8999999985,7110,NTS,C,4
6,5,prac,1,B,triangle.png,1,m,Thu Apr 03 2025 15:17:39 GMT-0500 (Central Daylight Time),149650.09999999404,1000,O,m,824,5,1,2609.39999999851,147040.69999999553,7110,NTS,C,5
7,5,prac,1,B,triangle.png,0,z,Thu Apr 03 2025 15:17:39 GMT-0500 (Central Daylight Time),153731.8999999985,2000,O,m,1297,6,1,4075.2000000029802,149656.69999999553,7110,NTS,C,6
3,6,prac,1,B,triangle.png,1,z,Thu Apr 03 2025 15:17:39 GMT-0500 (Central Daylight Time),156796.09999999404,1600,O,z,670,3,1,3056.0999999940395,153740.0,7110,NTS,C,7
8,7,prac,1,B,triangle.png,1,m,Thu Apr 03 2025 15:17:39 GMT-0500 (Central Daylight Time),159646.79999999702,1200,O,m,853,7,1,2841.60000000149,156805.19999999553,7110,NTS,C,8
4,8,prac,1,B,triangle.png,1,m,Thu Apr 03 2025 15:17:39 GMT-0500 (Central Daylight Time),163280.0,1500,O,m,1359,4,1,3626.2000000029802,159653.79999999702,7110,NTS,C,9
9,9,prac,1,B,triangle.png,1,z,Thu Apr 03 2025 15:17:39 GMT-0500 (Central Daylight Time),166193.59999999404,1400,O,z,724,8,1,2909.0999999940395,163284.5,7110,NTS,C,10
7,10,prac,1,B,triangle.png,1,z,Thu Apr 03 2025 15:17:39 GMT-0500 (Central Daylight Time),170108.29999999702,2000,O,z,1121,6,1,3907.7000000029802,166200.59999999404,7110,NTS,C,11
4,11,prac,1,B,triangle.png,1,m,Thu Apr 03 2025 15:17:39 GMT-0500 (Central Daylight Time),173408.8999999985,1500,O,m,1000,4,1,3290.89999999851,170118.0,7110,NTS,C,12
8,1,test,1,A,circle.png,1,m,Thu Apr 03 2025 15:17:39 GMT-0500 (Central Daylight Time),191218.5,1600,O,m,822,7,1,2440.60000000149,188777.8999999985,7110,NTS,C,1
2,2,test,1,A,circle.png,1,z,Thu Apr 03 2025 15:17:39 GMT-0500 (Central Daylight Time),194068.79999999702,2000,O,z,821,2,1,2844.89999999851,191223.8999999985,7110,NTS,C,2
7,3,test,1,A,circle.png,1,m,Thu Apr 03 2025 15:17:39 GMT-0500 (Central Daylight Time),196285.19999999553,1700,O,m,488,6,1,2208.60000000149,194076.59999999404,7110,NTS,C,3
8,4,test,1,A,circle.png,1,m,Thu Apr 03 2025 15:17:39 GMT-0500 (Central Daylight Time),198467.8999999985,1600,O,m,557,7,1,2173.8000000044703,196294.09999999404,7110,NTS,C,4
6,5,test,1,A,circle.png,1,m,Thu Apr 03 2025 15:17:39 GMT-0500 (Central Daylight Time),200965.19999999553,1900,O,m,578,5,1,2490.2999999970198,198474.8999999985,7110,NTS,C,5
8,6,test,1,A,circle.png,1,m,Thu Apr 03 2025 15:17:39 GMT-0500 (Central Daylight Time),203132.29999999702,1600,O,m,538,7,1,2159.7999999970198,200972.5,7110,NTS,C,6
9,7,test,1,A,circle.png,1,m,Thu Apr 03 2025 15:17:39 GMT-0500 (Central Daylight Time),205581.69999999553,1500,O,m,930,8,1,2443.89999999851,203137.79999999702,7110,NTS,C,7
2,8,test,1,A,circle.png,1,z,Thu Apr 03 2025 15:17:39 GMT-0500 (Central Daylight Time),208131.5,2000,O,z,522,2,1,2542.4000000059605,205589.09999999404,7110,NTS,C,8
9,9,test,1,A,circle.png,1,m,Thu Apr 03 2025 15:17:39 GMT-0500 (Central Daylight Time),210445.19999999553,1500,O,m,793,8,1,2304.0,208141.19999999553,7110,NTS,C,9
1,10,test,1,A,circle.png,1,z,Thu Apr 03 2025 15:17:39 GMT-0500 (Central Daylight Time),211980.29999999702,1000,O,z,507,1,1,1532.0,210448.29999999702,7110,NTS,C,10
6,11,test,1,A,circle.png,1,m,Thu Apr 03 2025 15:17:39 GMT-0500 (Central Daylight Time),214530.29999999702,1900,O,m,625,5,1,2540.89999999851,211989.3999999985,7110,NTS,C,11
2,12,test,1,A,circle.png,1,z,Thu Apr 03 2025 15:17:39 GMT-0500 (Central Daylight Time),217179.29999999702,2000,O,z,617,2,1,2642.2999999970198,214537.0,7110,NTS,C,12
9,13,test,1,A,circle.png,1,m,Thu Apr 03 2025 15:17:39 GMT-0500 (Central Daylight Time),219260.29999999702,1500,O,m,555,8,1,2074.2000000029802,217186.09999999404,7110,NTS,C,13
3,14,test,1,A,circle.png,1,z,Thu Apr 03 2025 15:17:39 GMT-0500 (Central Daylight Time),220926.5,1200,O,z,436,3,1,1661.1000000014901,219265.3999999985,7110,NTS,C,14
1,15,test,1,A,circle.png,1,z,Thu Apr 03 2025 15:17:39 GMT-0500 (Central Daylight Time),222542.5,1000,O,z,585,1,1,1611.6000000014901,220930.8999999985,7110,NTS,C,15
3,16,test,1,A,circle.png,1,z,Thu Apr 03 2025 15:17:39 GMT-0500 (Central Daylight Time),224393.0,1200,O,z,624,3,1,1845.6000000014901,222547.3999999985,7110,NTS,C,16
4,17,test,1,A,circle.png,1,z,Thu Apr 03 2025 15:17:39 GMT-0500 (Central Daylight Time),226425.5,1400,O,z,602,4,1,2027.6000000014901,224397.8999999985,7110,NTS,C,17
9,18,test,1,A,circle.png,1,m,Thu Apr 03 2025 15:17:39 GMT-0500 (Central Daylight Time),228441.19999999553,1500,O,m,494,8,1,2010.7999999970198,226430.3999999985,7110,NTS,C,18
1,19,test,1,A,circle.png,1,z,Thu Apr 03 2025 15:17:39 GMT-0500 (Central Daylight Time),230022.8999999985,1000,O,z,558,1,1,1575.1000000014901,228447.79999999702,7110,NTS,C,19
6,20,test,1,A,circle.png,1,m,Thu Apr 03 2025 15:17:39 GMT-0500 (Central Daylight Time),232590.0,1900,O,m,647,5,1,2561.60000000149,230028.3999999985,7110,NTS,C,20
4,21,test,1,A,circle.png,1,z,Thu Apr 03 2025 15:17:39 GMT-0500 (Central Daylight Time),235273.29999999702,1400,O,z,1254,4,1,2677.2999999970198,232596.0,7110,NTS,C,21
3,22,test,1,A,circle.png,1,z,Thu Apr 03 2025 15:17:39 GMT-0500 (Central Daylight Time),237421.3999999985,1200,O,z,922,3,1,2141.0,235280.3999999985,7110,NTS,C,22
2,23,test,1,A,circle.png,1,z,Thu Apr 03 2025 15:17:39 GMT-0500 (Central Daylight Time),240020.5,2000,O,z,573,2,1,2593.9000000059605,237426.59999999404,7110,NTS,C,23
7,24,test,1,A,circle.png,1,m,Thu Apr 03 2025 15:17:39 GMT-0500 (Central Daylight Time),242236.09999999404,1700,O,m,487,6,1,2210.1999999955297,240025.8999999985,7110,NTS,C,24
3,1,test,1,B,triangle.png,1,z,Thu Apr 03 2025 15:17:39 GMT-0500 (Central Daylight Time),251749.79999999702,1600,O,z,899,3,1,2507.2000000029802,249242.59999999404,7110,NTS,C,1
1,2,test,1,B,triangle.png,1,z,Thu Apr 03 2025 15:17:39 GMT-0500 (Central Daylight Time),253732.79999999702,1400,O,z,558,9,1,1978.6000000014901,251754.19999999553,7110,NTS,C,2
9,3,test,1,B,triangle.png,1,z,Thu Apr 03 2025 15:17:39 GMT-0500 (Central Daylight Time),255881.0,1400,O,z,716,8,1,2142.9000000059605,253738.09999999404,7110,NTS,C,3
1,4,test,1,B,triangle.png,1,z,Thu Apr 03 2025 15:17:39 GMT-0500 (Central Daylight Time),258196.09999999404,1400,O,z,886,9,1,2309.5999999940395,255886.5,7110,NTS,C,4
7,5,test,1,B,triangle.png,1,z,Thu Apr 03 2025 15:17:39 GMT-0500 (Central Daylight Time),260447.69999999553,1600,O,z,629,14,1,2247.39999999851,258200.29999999702,7110,NTS,C,5
9,6,test,1,B,triangle.png,1,z,Thu Apr 03 2025 15:17:39 GMT-0500 (Central Daylight Time),262647.59999999404,1400,O,z,783,8,1,2195.5,260452.09999999404,7110,NTS,C,6
2,6,test,1,B,triangle.png,0,m,Thu Apr 03 2025 15:17:39 GMT-0500 (Central Daylight Time),264895.299999997,1700,O,z,528,2,1,2242.89999999851,262652.3999999985,7110,NTS,C,7
7,7,test,1,B,triangle.png,1,z,Thu Apr 03 2025 15:17:39 GMT-0500 (Central Daylight Time),267129.19999999553,1600,O,z,601,14,1,2230.10000000149,264899.09999999404,7110,NTS,C,8
1,8,test,1,B,triangle.png,1,z,Thu Apr 03 2025 15:17:39 GMT-0500 (Central Daylight Time),269678.69999999553,1900,O,z,632,1,1,2545.1999999955297,267133.5,7110,NTS,C,9
6,9,test,1,B,triangle.png,1,m,Thu Apr 03 2025 15:17:39 GMT-0500 (Central Daylight Time),271892.799999997,1500,O,m,688,13,1,2208.5,269684.299999997,7110,NTS,C,10
4,10,test,1,B,triangle.png,1,m,Thu Apr 03 2025 15:17:39 GMT-0500 (Central Daylight Time),273725.5,1000,O,m,805,12,1,1828.9000000059605,271896.59999999404,7110,NTS,C,11
8,11,test,1,B,triangle.png,1,m,Thu Apr 03 2025 15:17:39 GMT-0500 (Central Daylight Time),275541.09999999404,1200,O,m,595,7,1,1811.2999999970198,273729.799999997,7110,NTS,C,12
7,12,test,1,B,triangle.png,1,z,Thu Apr 03 2025 15:17:39 GMT-0500 (Central Daylight Time),278574.8999999985,2000,O,z,1004,6,1,3029.0,275545.8999999985,7110,NTS,C,13
4,13,test,1,B,triangle.png,1,m,Thu Apr 03 2025 15:17:39 GMT-0500 (Central Daylight Time),280939.59999999404,1500,O,m,837,4,1,2360.0999999940395,278579.5,7110,NTS,C,14
6,14,test,1,B,triangle.png,1,m,Thu Apr 03 2025 15:17:39 GMT-0500 (Central Daylight Time),282707.69999999553,1000,O,m,734,5,1,1765.1000000014901,280942.59999999404,7110,NTS,C,15
8,15,test,1,B,triangle.png,1,m,Thu Apr 03 2025 15:17:39 GMT-0500 (Central Daylight Time),285005.8999999985,1700,O,m,571,15,1,2293.3000000044703,282712.59999999404,7110,NTS,C,16
1,16,test,1,B,triangle.png,1,z,Thu Apr 03 2025 15:17:39 GMT-0500 (Central Daylight Time),287472.59999999404,1900,O,z,535,1,1,2461.39999999851,285011.19999999553,7110,NTS,C,17
2,17,test,1,B,triangle.png,1,m,Thu Apr 03 2025 15:17:39 GMT-0500 (Central Daylight Time),289787.59999999404,1200,O,m,1089,10,1,2308.89999999851,287478.69999999553,7110,NTS,C,18
3,18,test,1,B,triangle.png,1,z,Thu Apr 03 2025 15:17:39 GMT-0500 (Central Daylight Time),292359.09999999404,2000,O,z,533,11,1,2567.5,289791.59999999404,7110,NTS,C,19
8,19,test,1,B,triangle.png,1,m,Thu Apr 03 2025 15:17:39 GMT-0500 (Central Daylight Time),294685.69999999553,1700,O,m,614,15,1,2323.89999999851,292361.799999997,7110,NTS,C,20
3,20,test,1,B,triangle.png,1,z,Thu Apr 03 2025 15:17:39 GMT-0500 (Central Daylight Time),297133.69999999553,1600,O,z,826,3,1,2444.2999999970198,294689.3999999985,7110,NTS,C,21
4,21,test,1,B,triangle.png,1,m,Thu Apr 03 2025 15:17:39 GMT-0500 (Central Daylight Time),299617.799999997,1500,O,m,958,4,1,2479.7999999970198,297138.0,7110,NTS,C,22
9,22,test,1,B,triangle.png,1,z,Thu Apr 03 2025 15:17:39 GMT-0500 (Central Daylight Time),302633.8999999985,1900,O,z,1092,16,1,3011.8000000044703,299622.09999999404,7110,NTS,C,23
6,23,test,1,B,triangle.png,1,m,Thu Apr 03 2025 15:17:39 GMT-0500 (Central Daylight Time),304915.69999999553,1500,O,m,759,13,1,2277.89999999851,302637.799999997,7110,NTS,C,24
8,1,prac,1,C,triangle.png,1,m,Thu Apr 03 2025 15:17:39 GMT-0500 (Central Daylight Time),341972.19999999553,1400,O,m,770,7,1,2957.60000000149,339014.59999999404,7110,NTS,C,1
3,2,prac,1,C,triangle.png,1,z,Thu Apr 03 2025 15:17:39 GMT-0500 (Central Daylight Time),345253.299999997,1500,O,z,987,3,1,3274.7000000029802,341978.59999999404,7110,NTS,C,2
4,3,prac,1,C,circle.png,1,z,Thu Apr 03 2025 15:17:39 GMT-0500 (Central Daylight Time),347769.5,1000,O,z,735,4,1,2511.0,345258.5,7110,NTS,C,3
6,3,prac,1,C,circle.png,0,m,Thu Apr 03 2025 15:17:39 GMT-0500 (Central Daylight Time),352068.799999997,2000,O,None,1517,5,1,4293.79999999702,347775.0,7110,NTS,C,4
3,3,prac,1,C,triangle.png,0,z,Thu Apr 03 2025 15:17:39 GMT-0500 (Central Daylight Time),354866.69999999553,1500,O,m,513,3,1,2791.39999999851,352075.299999997,7110,NTS,C,5
1,4,prac,1,C,circle.png,1,z,Thu Apr 03 2025 15:17:39 GMT-0500 (Central Daylight Time),358033.19999999553,1700,O,z,675,1,1,3159.7999999970198,354873.3999999985,7110,NTS,C,6
2,4,prac,1,C,triangle.png,0,m,Thu Apr 03 2025 15:17:39 GMT-0500 (Central Daylight Time),361049.799999997,1600,O,z,625,2,1,3011.7000000029802,358038.09999999404,7110,NTS,C,7
9,5,prac,1,C,circle.png,1,m,Thu Apr 03 2025 15:17:39 GMT-0500 (Central Daylight Time),364416.19999999553,1900,O,m,670,8,1,3359.89999999851,361056.299999997,7110,NTS,C,8
1,6,prac,1,C,circle.png,1,z,Thu Apr 03 2025 15:17:39 GMT-0500 (Central Daylight Time),367713.8999999985,1700,O,z,809,1,1,3291.8000000044703,364422.09999999404,7110,NTS,C,9
7,7,prac,1,C,triangle.png,1,z,Thu Apr 03 2025 15:17:39 GMT-0500 (Central Daylight Time),370727.799999997,1200,O,z,1024,6,1,3007.89999999851,367719.8999999985,7110,NTS,C,10
8,8,prac,1,C,triangle.png,1,m,Thu Apr 03 2025 15:17:39 GMT-0500 (Central Daylight Time),373710.799999997,1400,O,m,786,7,1,2978.2999999970198,370732.5,7110,NTS,C,11
7,8,prac,1,C,triangle.png,0,z,Thu Apr 03 2025 15:17:39 GMT-0500 (Central Daylight Time),376677.09999999404,1200,O,m,981,6,1,2961.0999999940395,373716.0,7110,NTS,C,12
8,1,test,1,C,circle.png,1,m,Thu Apr 03 2025 15:17:39 GMT-0500 (Central Daylight Time),386174.0,1200,O,m,616,15,1,1844.8000000044703,384329.19999999553,7110,NTS,C,1
4,2,test,1,C,circle.png,1,z,Thu Apr 03 2025 15:17:39 GMT-0500 (Central Daylight Time),388406.3999999985,1400,O,z,799,4,1,2226.5,386179.8999999985,7110,NTS,C,2
6,3,test,1,C,triangle.png,1,m,Thu Apr 03 2025 15:17:39 GMT-0500 (Central Daylight Time),390622.5,1000,O,m,1187,13,1,2209.7000000029802,388412.799999997,7110,NTS,C,3
1,4,test,1,C,triangle.png,1,z,Thu Apr 03 2025 15:17:39 GMT-0500 (Central Daylight Time),393603.69999999553,1900,O,z,1065,17,1,2976.6999999955297,390627.0,7110,NTS,C,4
2,5,test,1,C,circle.png,1,z,Thu Apr 03 2025 15:17:39 GMT-0500 (Central Daylight Time),396738.0,1700,O,z,1399,18,1,3127.8000000044703,393610.19999999553,7110,NTS,C,5
2,6,test,1,C,circle.png,1,z,Thu Apr 03 2025 15:17:39 GMT-0500 (Central Daylight Time),399703.19999999553,1700,O,z,1233,10,1,2960.39999999851,396742.799999997,7110,NTS,C,6
9,6,test,1,C,triangle.png,0,z,Thu Apr 03 2025 15:17:39 GMT-0500 (Central Daylight Time),402636.299999997,1400,O,None,1516,16,1,2926.39999999851,399709.8999999985,7110,NTS,C,7
6,7,test,1,C,circle.png,1,m,Thu Apr 03 2025 15:17:39 GMT-0500 (Central Daylight Time),405618.3999999985,1900,O,m,1057,21,1,2975.2000000029802,402643.19999999553,7110,NTS,C,8
7,7,test,1,C,circle.png,0,m,Thu Apr 03 2025 15:17:39 GMT-0500 (Central Daylight Time),408517.0,2000,O,z,872,14,1,2893.5,405623.5,7110,NTS,C,9
4,8,test,1,C,triangle.png,1,m,Thu Apr 03 2025 15:17:39 GMT-0500 (Central Daylight Time),411331.5,1500,O,m,1297,20,1,2809.60000000149,408521.8999999985,7110,NTS,C,10
7,9,test,1,C,triangle.png,1,z,Thu Apr 03 2025 15:17:39 GMT-0500 (Central Daylight Time),414150.0,1700,O,z,1098,6,1,2811.4000000059605,411338.59999999404,7110,NTS,C,11
2,9,test,1,C,triangle.png,0,m,Thu Apr 03 2025 15:17:39 GMT-0500 (Central Daylight Time),417680.09999999404,2000,O,None,1515,2,1,3522.6999999955297,414157.3999999985,7110,NTS,C,12
3,10,test,1,C,circle.png,1,z,Thu Apr 03 2025 15:17:39 GMT-0500 (Central Daylight Time),420379.3999999985,1600,O,z,1073,11,1,2691.89999999851,417687.5,7110,NTS,C,13
1,11,test,1,C,triangle.png,1,z,Thu Apr 03 2025 15:17:39 GMT-0500 (Central Daylight Time),423229.19999999553,1900,O,z,928,9,1,2845.60000000149,420383.59999999404,7110,NTS,C,14
3,12,test,1,C,triangle.png,1,z,Thu Apr 03 2025 15:17:39 GMT-0500 (Central Daylight Time),425428.299999997,1200,O,z,967,3,1,2193.60000000149,423234.69999999553,7110,NTS,C,15
8,13,test,1,C,triangle.png,1,m,Thu Apr 03 2025 15:17:39 GMT-0500 (Central Daylight Time),428427.8999999985,1600,O,m,1374,7,1,2992.7000000029802,425435.19999999553,7110,NTS,C,16
1,14,test,1,C,circle.png,1,z,Thu Apr 03 2025 15:17:39 GMT-0500 (Central Daylight Time),430342.19999999553,1000,O,z,895,1,1,1909.6000000014901,428432.59999999404,7110,NTS,C,17
7,14,test,1,C,triangle.png,0,z,Thu Apr 03 2025 15:17:39 GMT-0500 (Central Daylight Time),433056.5,1700,O,m,983,22,1,2708.3000000044703,430348.19999999553,7110,NTS,C,18
6,14,test,1,C,circle.png,0,m,Thu Apr 03 2025 15:17:39 GMT-0500 (Central Daylight Time),436175.19999999553,1900,O,z,1187,5,1,3115.7999999970198,433059.3999999985,7110,NTS,C,19
9,15,test,1,C,circle.png,1,m,Thu Apr 03 2025 15:17:39 GMT-0500 (Central Daylight Time),438907.19999999553,1500,O,m,1213,24,1,2725.6999999955297,436181.5,7110,NTS,C,20
9,16,test,1,C,circle.png,1,m,Thu Apr 03 2025 15:17:39 GMT-0500 (Central Daylight Time),441058.8999999985,1500,O,m,618,8,1,2149.0,438909.8999999985,7110,NTS,C,21
3,17,test,1,C,circle.png,1,z,Thu Apr 03 2025 15:17:39 GMT-0500 (Central Daylight Time),443889.5,1600,O,z,1200,19,1,2827.10000000149,441062.3999999985,7110,NTS,C,22
8,18,test,1,C,triangle.png,1,m,Thu Apr 03 2025 15:17:39 GMT-0500 (Central Daylight Time),446720.299999997,1600,O,m,1199,23,1,2826.39999999851,443893.8999999985,7110,NTS,C,23
4,19,test,1,C,triangle.png,1,m,Thu Apr 03 2025 15:17:39 GMT-0500 (Central Daylight Time),449138.69999999553,1500,O,m,884,12,1,2414.0,446724.69999999553,7110,NTS,C,24
1,1,test,2,C,circle.png,1,z,Thu Apr 03 2025 15:17:39 GMT-0500 (Central Daylight Time),453453.5,1000,O,z,756,1,1,1775.6000000014901,451677.8999999985,7110,NTS,C,1
3,2,test,2,C,circle.png,1,z,Thu Apr 03 2025 15:17:39 GMT-0500 (Central Daylight Time),455768.299999997,1600,O,z,692,11,1,2310.0,453458.299999997,7110,NTS,C,2
8,3,test,2,C,circle.png,1,m,Thu Apr 03 2025 15:17:39 GMT-0500 (Central Daylight Time),457884.19999999553,1200,O,m,887,15,1,2110.60000000149,455773.59999999404,7110,NTS,C,3
8,4,test,2,C,triangle.png,1,m,Thu Apr 03 2025 15:17:39 GMT-0500 (Central Daylight Time),460084.59999999404,1600,O,m,583,7,1,2195.89999999851,457888.69999999553,7110,NTS,C,4
9,4,test,2,C,circle.png,0,m,Thu Apr 03 2025 15:17:39 GMT-0500 (Central Daylight Time),462683.799999997,1500,O,z,1063,8,1,2593.0,460090.799999997,7110,NTS,C,5
6,5,test,2,C,triangle.png,1,m,Thu Apr 03 2025 15:17:39 GMT-0500 (Central Daylight Time),465032.3999999985,1000,O,m,1326,13,1,2342.60000000149,462689.799999997,7110,NTS,C,6
9,6,test,2,C,triangle.png,1,z,Thu Apr 03 2025 15:17:39 GMT-0500 (Central Daylight Time),467349.19999999553,1400,O,z,899,24,1,2311.6999999955297,465037.5,7110,NTS,C,7
6,7,test,2,C,circle.png,1,m,Thu Apr 03 2025 15:17:39 GMT-0500 (Central Daylight Time),470612.5,1900,O,m,1337,5,1,3258.4000000059605,467354.09999999404,7110,NTS,C,8
8,8,test,2,C,circle.png,1,m,Thu Apr 03 2025 15:17:39 GMT-0500 (Central Daylight Time),472530.5,1200,O,m,682,23,1,1912.6000000014901,470617.8999999985,7110,NTS,C,9
7,9,test,2,C,circle.png,1,m,Thu Apr 03 2025 15:17:39 GMT-0500 (Central Daylight Time),475178.299999997,2000,O,m,624,22,1,2643.5,472534.799999997,7110,NTS,C,10
6,9,test,2,C,triangle.png,0,m,Thu Apr 03 2025 15:17:39 GMT-0500 (Central Daylight Time),476914.09999999404,1000,O,z,701,21,1,1731.0999999940395,475183.0,7110,NTS,C,11
4,10,test,2,C,triangle.png,1,m,Thu Apr 03 2025 15:17:39 GMT-0500 (Central Daylight Time),479394.59999999404,1500,O,m,965,20,1,2475.5999999940395,476919.0,7110,NTS,C,12
7,11,test,2,C,circle.png,1,m,Thu Apr 03 2025 15:17:39 GMT-0500 (Central Daylight Time),482076.59999999404,2000,O,m,664,14,1,2676.7999999970198,479399.799999997,7110,NTS,C,13
1,12,test,2,C,triangle.png,1,z,Thu Apr 03 2025 15:17:39 GMT-0500 (Central Daylight Time),485142.5,1900,O,z,1144,17,1,3059.7000000029802,482082.799999997,7110,NTS,C,14
2,12,test,2,C,circle.png,0,z,Thu Apr 03 2025 15:17:39 GMT-0500 (Central Daylight Time),488091.0,1700,O,m,1231,18,1,2944.8000000044703,485146.19999999553,7110,NTS,C,15
7,13,test,2,C,triangle.png,1,z,Thu Apr 03 2025 15:17:39 GMT-0500 (Central Daylight Time),491074.19999999553,1700,O,z,1250,6,1,2978.39999999851,488095.799999997,7110,NTS,C,16
3,14,test,2,C,circle.png,1,z,Thu Apr 03 2025 15:17:39 GMT-0500 (Central Daylight Time),493855.5,1600,O,z,1160,19,1,2776.60000000149,491078.8999999985,7110,NTS,C,17
4,15,test,2,C,circle.png,1,z,Thu Apr 03 2025 15:17:39 GMT-0500 (Central Daylight Time),496221.299999997,1400,O,z,936,4,1,2361.7999999970198,493859.5,7110,NTS,C,18
4,16,test,2,C,triangle.png,1,m,Thu Apr 03 2025 15:17:39 GMT-0500 (Central Daylight Time),498704.299999997,1500,O,m,959,12,1,2478.89999999851,496225.3999999985,7110,NTS,C,19
2,16,test,2,C,circle.png,0,z,Thu Apr 03 2025 15:17:39 GMT-0500 (Central Daylight Time),501404.09999999404,1700,O,m,983,10,1,2695.7999999970198,498708.299999997,7110,NTS,C,20
9,17,test,2,C,triangle.png,1,z,Thu Apr 03 2025 15:17:39 GMT-0500 (Central Daylight Time),503837.69999999553,1400,O,z,1014,16,1,2428.60000000149,501409.09999999404,7110,NTS,C,21
2,17,test,2,C,triangle.png,0,m,Thu Apr 03 2025 15:17:39 GMT-0500 (Central Daylight Time),507370.19999999553,2000,O,None,1517,2,1,3528.1999999955297,503842.0,7110,NTS,C,22
1,18,test,2,C,triangle.png,1,z,Thu Apr 03 2025 15:17:39 GMT-0500 (Central Daylight Time),510052.19999999553,1900,O,z,768,9,1,2677.60000000149,507374.59999999404,7110,NTS,C,23
3,19,test,2,C,triangle.png,1,z,Thu Apr 03 2025 15:17:39 GMT-0500 (Central Daylight Time),512166.59999999404,1200,O,z,888,3,1,2110.5999999940395,510056.0,7110,NTS,C,24
3,1,test,3,C,triangle.png,1,z,Thu Apr 03 2025 15:17:39 GMT-0500 (Central Daylight Time),516047.59999999404,1200,O,z,959,19,1,2174.5999999940395,513873.0,7110,NTS,C,1
3,2,test,3,C,circle.png,1,z,Thu Apr 03 2025 15:17:39 GMT-0500 (Central Daylight Time),518349.19999999553,1600,O,z,683,11,1,2297.2999999970198,516051.8999999985,7110,NTS,C,2
8,2,test,3,C,triangle.png,0,m,Thu Apr 03 2025 15:17:39 GMT-0500 (Central Daylight Time),520714.3999999985,1600,O,z,746,7,1,2359.60000000149,518354.799999997,7110,NTS,C,3
9,3,test,3,C,circle.png,1,m,Thu Apr 03 2025 15:17:39 GMT-0500 (Central Daylight Time),523397.69999999553,1500,O,m,1165,8,1,2679.1999999955297,520718.5,7110,NTS,C,4
4,4,test,3,C,circle.png,1,z,Thu Apr 03 2025 15:17:39 GMT-0500 (Central Daylight Time),525461.3999999985,1400,O,z,636,20,1,2058.60000000149,523402.799999997,7110,NTS,C,5
8,5,test,3,C,circle.png,1,m,Thu Apr 03 2025 15:17:39 GMT-0500 (Central Daylight Time),527594.599999994,1200,O,m,907,15,1,2128.6999999955297,525465.8999999985,7110,NTS,C,6
6,6,test,3,C,triangle.png,1,m,Thu Apr 03 2025 15:17:39 GMT-0500 (Central Daylight Time),529846.099999994,1000,O,m,1234,13,1,2246.1999999955297,527599.8999999985,7110,NTS,C,7
1,7,test,3,C,circle.png,1,z,Thu Apr 03 2025 15:17:39 GMT-0500 (Central Daylight Time),531960.1999999955,1000,O,z,1085,17,1,2108.89999999851,529851.299999997,7110,NTS,C,8
1,8,test,3,C,circle.png,1,z,Thu Apr 03 2025 15:17:39 GMT-0500 (Central Daylight Time),533609.299999997,1000,O,z,625,1,1,1643.6000000014901,531965.6999999955,7110,NTS,C,9
3,8,test,3,C,triangle.png,0,z,Thu Apr 03 2025 15:17:39 GMT-0500 (Central Daylight Time),535877.8999999985,1200,O,m,1051,3,1,2264.8000000044703,533613.099999994,7110,NTS,C,10
2,9,test,3,C,triangle.png,1,m,Thu Apr 03 2025 15:17:39 GMT-0500 (Central Daylight Time),539076.5,2000,O,m,1182,18,1,3194.0,535882.5,7110,NTS,C,11
8,10,test,3,C,triangle.png,1,m,Thu Apr 03 2025 15:17:39 GMT-0500 (Central Daylight Time),541574.6999999955,1600,O,m,871,23,1,2491.6999999955297,539083.0,7110,NTS,C,12
6,11,test,3,C,circle.png,1,m,Thu Apr 03 2025 15:17:39 GMT-0500 (Central Daylight Time),544523.1999999955,1900,O,m,1023,21,1,2944.2999999970198,541578.8999999985,7110,NTS,C,13
1,12,test,3,C,triangle.png,1,z,Thu Apr 03 2025 15:17:39 GMT-0500 (Central Daylight Time),547172.099999994,1900,O,z,730,9,1,2640.0999999940395,544532.0,7110,NTS,C,14
9,13,test,3,C,circle.png,1,m,Thu Apr 03 2025 15:17:39 GMT-0500 (Central Daylight Time),549689.099999994,1500,O,m,994,24,1,2511.0,547178.099999994,7110,NTS,C,15
4,14,test,3,C,circle.png,1,z,Thu Apr 03 2025 15:17:39 GMT-0500 (Central Daylight Time),551989.3999999985,1400,O,z,872,4,1,2291.39999999851,549698.0,7110,NTS,C,16
2,14,test,3,C,circle.png,0,z,Thu Apr 03 2025 15:17:39 GMT-0500 (Central Daylight Time),554804.299999997,1700,O,m,1090,10,1,2807.0,551997.299999997,7110,NTS,C,17
7,15,test,3,C,circle.png,1,m,Thu Apr 03 2025 15:17:39 GMT-0500 (Central Daylight Time),557570.799999997,2000,O,m,750,14,1,2760.89999999851,554809.8999999985,7110,NTS,C,18
7,15,test,3,C,triangle.png,0,z,Thu Apr 03 2025 15:17:39 GMT-0500 (Central Daylight Time),560269.099999994,1700,O,m,973,6,1,2691.0,557578.099999994,7110,NTS,C,19
9,16,test,3,C,triangle.png,1,z,Thu Apr 03 2025 15:17:39 GMT-0500 (Central Daylight Time),563069.5,1400,O,z,1372,16,1,2794.0,560275.5,7110,NTS,C,20
2,17,test,3,C,triangle.png,1,m,Thu Apr 03 2025 15:17:39 GMT-0500 (Central Daylight Time),566349.1999999955,2000,O,m,1265,2,1,3270.0,563079.1999999955,7110,NTS,C,21
6,18,test,3,C,circle.png,1,m,Thu Apr 03 2025 15:17:39 GMT-0500 (Central Daylight Time),569133.3999999985,1900,O,m,865,5,1,2780.2000000029802,566353.1999999955,7110,NTS,C,22
4,19,test,3,C,triangle.png,1,m,Thu Apr 03 2025 15:17:39 GMT-0500 (Central Daylight Time),571532.099999994,1500,O,m,873,12,1,2393.1999999955297,569138.8999999985,7110,NTS,C,23
7,20,test,3,C,triangle.png,1,z,Thu Apr 03 2025 15:17:39 GMT-0500 (Central Daylight Time),574081.299999997,1700,O,z,825,22,1,2542.39999999851,571538.8999999985,7110,NTS,C,24
1,1,test,4,C,triangle.png,1,z,Thu Apr 03 2025 15:17:39 GMT-0500 (Central Daylight Time),578295.0,1900,O,z,926,9,1,2843.7000000029802,575451.299999997,7110,NTS,C,1
2,2,test,4,C,triangle.png,1,m,Thu Apr 03 2025 15:17:39 GMT-0500 (Central Daylight Time),581228.3999999985,2000,O,m,906,2,1,2928.5,578299.8999999985,7110,NTS,C,2
9,3,test,4,C,circle.png,1,m,Thu Apr 03 2025 15:17:39 GMT-0500 (Central Daylight Time),583778.0,1500,O,m,1023,24,1,2544.60000000149,581233.3999999985,7110,NTS,C,3
2,3,test,4,C,circle.png,0,z,Thu Apr 03 2025 15:17:39 GMT-0500 (Central Daylight Time),586194.599999994,1700,O,m,688,10,1,2411.1999999955297,583783.3999999985,7110,NTS,C,4
6,4,test,4,C,triangle.png,1,m,Thu Apr 03 2025 15:17:39 GMT-0500 (Central Daylight Time),588325.799999997,1000,O,m,1112,13,1,2128.60000000149,586197.1999999955,7110,NTS,C,5
3,5,test,4,C,triangle.png,1,z,Thu Apr 03 2025 15:17:39 GMT-0500 (Central Daylight Time),590407.799999997,1200,O,z,858,19,1,2076.7999999970198,588331.0,7110,NTS,C,6
4,6,test,4,C,triangle.png,1,m,Thu Apr 03 2025 15:17:39 GMT-0500 (Central Daylight Time),592808.299999997,1500,O,m,878,12,1,2396.5,590411.799999997,7110,NTS,C,7
8,7,test,4,C,circle.png,1,m,Thu Apr 03 2025 15:17:39 GMT-0500 (Central Daylight Time),595059.3999999985,1200,O,m,1032,15,1,2246.5,592812.8999999985,7110,NTS,C,8
6,8,test,4,C,circle.png,1,m,Thu Apr 03 2025 15:17:39 GMT-0500 (Central Daylight Time),597605.0,1900,O,m,631,21,1,2540.9000000059605,595064.099999994,7110,NTS,C,9
9,9,test,4,C,circle.png,1,m,Thu Apr 03 2025 15:17:39 GMT-0500 (Central Daylight Time),599822.3999999985,1500,O,m,686,8,1,2214.7000000029802,597607.6999999955,7110,NTS,C,10
8,10,test,4,C,triangle.png,1,m,Thu Apr 03 2025 15:17:39 GMT-0500 (Central Daylight Time),602772.1999999955,1600,O,m,1333,7,1,2944.7999999970198,599827.3999999985,7110,NTS,C,11
8,11,test,4,C,triangle.png,1,m,Thu Apr 03 2025 15:17:39 GMT-0500 (Central Daylight Time),605038.299999997,1600,O,m,632,23,1,2262.0,602776.299999997,7110,NTS,C,12
1,12,test,4,C,circle.png,1,z,Thu Apr 03 2025 15:17:39 GMT-0500 (Central Daylight Time),606937.3999999985,1000,O,z,876,1,1,1892.3000000044703,605045.099999994,7110,NTS,C,13
3,13,test,4,C,circle.png,1,z,Thu Apr 03 2025 15:17:39 GMT-0500 (Central Daylight Time),609119.3999999985,1600,O,z,561,11,1,2177.89999999851,606941.5,7110,NTS,C,14
4,13,test,4,C,circle.png,0,z,Thu Apr 03 2025 15:17:39 GMT-0500 (Central Daylight Time),611518.799999997,1400,O,m,979,4,1,2395.2000000029802,609123.599999994,7110,NTS,C,15
3,14,test,4,C,triangle.png,1,z,Thu Apr 03 2025 15:17:39 GMT-0500 (Central Daylight Time),613852.299999997,1200,O,z,1107,3,1,2329.39999999851,611522.8999999985,7110,NTS,C,16
4,15,test,4,C,circle.png,1,z,Thu Apr 03 2025 15:17:39 GMT-0500 (Central Daylight Time),616318.099999994,1400,O,z,1049,20,1,2462.0999999940395,613856.0,7110,NTS,C,17
1,16,test,4,C,circle.png,1,z,Thu Apr 03 2025 15:17:39 GMT-0500 (Central Daylight Time),618032.5,1000,O,z,693,17,1,1706.7000000029802,616325.799999997,7110,NTS,C,18
7,16,test,4,C,triangle.png,0,z,Thu Apr 03 2025 15:17:39 GMT-0500 (Central Daylight Time),620581.599999994,1700,O,m,829,6,1,2544.0,618037.599999994,7110,NTS,C,19
2,17,test,4,C,triangle.png,1,m,Thu Apr 03 2025 15:17:39 GMT-0500 (Central Daylight Time),623899.799999997,2000,O,m,1300,18,1,3314.0,620585.799999997,7110,NTS,C,20
9,18,test,4,C,triangle.png,1,z,Thu Apr 03 2025 15:17:39 GMT-0500 (Central Daylight Time),626230.3999999985,1400,O,z,912,16,1,2325.10000000149,623905.299999997,7110,NTS,C,21
7,18,test,4,C,circle.png,0,m,Thu Apr 03 2025 15:17:39 GMT-0500 (Central Daylight Time),629296.6999999955,2000,O,z,1034,14,1,3061.39999999851,626235.299999997,7110,NTS,C,22
6,19,test,4,C,circle.png,1,m,Thu Apr 03 2025 15:17:39 GMT-0500 (Central Daylight Time),631744.6999999955,1900,O,m,518,5,1,2443.10000000149,629301.599999994,7110,NTS,C,23
7,20,test,4,C,triangle.png,1,z,Thu Apr 03 2025 15:17:39 GMT-0500 (Central Daylight Time),634695.299999997,1700,O,z,1218,22,1,2945.39999999851,631749.8999999985,7110,NTS,C,24
