acc_sum,block,block_c,change,condition,correct,correct_response,datetime,endtime,face,project,response,response_time,row_sel,session_number,start_end,starttime,subject_id,task,task_vers,trial
0,prac,1,,1-Back,,,Tue Jan 28 2025 18:25:11 GMT-0600 (Central Standard Time),,012_o_f_d_a.png,I,space,8448,1,1,,,8021,VNB,C,0
1,prac,1,0.0,1-Back,1,m,Tue Jan 28 2025 18:25:11 GMT-0600 (Central Standard Time),194916.7000000002,022_y_f_n_a.png,I,m,1238,2,1,2139.100000000559,192777.59999999963,8021,VNB,C,1
2,prac,1,0.0,1-Back,1,m,Tue Jan 28 2025 18:25:11 GMT-0600 (Central Standard Time),197365.89999999944,014_m_m_h_a.png,I,m,1564,3,1,2442.5999999996275,194923.2999999998,8021,VNB,C,2
3,prac,1,0.0,1-Back,1,m,Tue Jan 28 2025 18:25:11 GMT-0600 (Central Standard Time),199465.59999999963,025_y_m_d_a.png,I,m,1226,4,1,2092.899999999441,197372.7000000002,8021,VNB,C,3
4,prac,1,0.0,1-Back,1,m,Tue Jan 28 2025 18:25:11 GMT-0600 (Central Standard Time),202075.7999999998,012_o_f_n_a.png,I,m,1682,5,1,2604.5,199471.2999999998,8021,VNB,C,4
5,prac,1,1.0,1-Back,1,z,Tue Jan 28 2025 18:25:11 GMT-0600 (Central Standard Time),204280.5,025_y_m_n_a.png,I,z,1329,6,1,2198.100000000559,202082.39999999944,8021,VNB,C,5
6,prac,1,0.0,1-Back,1,m,Tue Jan 28 2025 18:25:11 GMT-0600 (Central Standard Time),206846.59999999963,015_o_m_h_a.png,I,m,1662,7,1,2559.399999999441,204287.2000000002,8021,VNB,C,6
7,prac,1,0.0,1-Back,1,m,Tue Jan 28 2025 18:25:11 GMT-0600 (Central Standard Time),209445.5,019_m_f_d_a.png,I,m,1693,8,1,2593.2999999998137,206852.2000000002,8021,VNB,C,7
8,prac,1,1.0,1-Back,1,z,Tue Jan 28 2025 18:25:11 GMT-0600 (Central Standard Time),211561.59999999963,022_y_f_d_a.png,I,z,1223,9,1,2110.7000000001863,209450.89999999944,8021,VNB,C,8
9,prac,1,0.0,1-Back,1,m,Tue Jan 28 2025 18:25:11 GMT-0600 (Central Standard Time),213577.5,014_m_m_n_a.png,I,m,1146,10,1,2010.0,211567.5,8021,VNB,C,9
10,prac,1,0.0,1-Back,1,m,Tue Jan 28 2025 18:25:11 GMT-0600 (Central Standard Time),215627.2000000002,012_o_f_h_a.png,I,m,1153,11,1,2044.1000000005588,213583.09999999963,8021,VNB,C,10
11,prac,1,0.0,1-Back,1,m,Tue Jan 28 2025 18:25:11 GMT-0600 (Central Standard Time),218059.5,025_y_m_d_a.png,I,m,1562,12,1,2426.9000000003725,215632.59999999963,8021,VNB,C,11
0,test,1,0.0,1-Back,,,Tue Jan 28 2025 18:25:11 GMT-0600 (Central Standard Time),218059.5,022_y_f_d_a.png,I,space,12591,1,1,2426.9000000003725,215632.59999999963,8021,VNB,C,0
1,test,1,0.0,1-Back,1,m,Tue Jan 28 2025 18:25:11 GMT-0600 (Central Standard Time),243751.39999999944,019_m_f_n_a.png,I,m,1374,2,1,2395.0999999996275,241356.2999999998,8021,VNB,C,1
2,test,1,0.0,1-Back,1,m,Tue Jan 28 2025 18:25:11 GMT-0600 (Central Standard Time),245967.39999999944,015_o_m_h_a.png,I,m,1150,3,1,2211.899999999441,243755.5,8021,VNB,C,2
3,test,1,1.0,1-Back,1,z,Tue Jan 28 2025 18:25:11 GMT-0600 (Central Standard Time),248466.5,014_m_m_h_a.png,I,z,1421,4,1,2495.100000000559,245971.39999999944,8021,VNB,C,3
4,test,1,0.0,1-Back,1,m,Tue Jan 28 2025 18:25:11 GMT-0600 (Central Standard Time),250666.0,012_o_f_n_a.png,I,m,1131,5,1,2195.2000000001863,248470.7999999998,8021,VNB,C,4
5,test,1,0.0,1-Back,1,m,Tue Jan 28 2025 18:25:11 GMT-0600 (Central Standard Time),253648.5,025_y_m_d_a.png,I,m,1923,6,1,2978.5,250670.0,8021,VNB,C,5
6,test,1,1.0,1-Back,1,z,Tue Jan 28 2025 18:25:11 GMT-0600 (Central Standard Time),256030.89999999944,019_m_f_d_a.png,I,z,1326,7,1,2378.0,253652.89999999944,8021,VNB,C,6
7,test,1,0.0,1-Back,1,m,Tue Jan 28 2025 18:25:11 GMT-0600 (Central Standard Time),258446.7999999998,022_y_f_h_a.png,I,m,1350,8,1,2412.2000000001863,256034.59999999963,8021,VNB,C,7
8,test,1,0.0,1-Back,1,m,Tue Jan 28 2025 18:25:11 GMT-0600 (Central Standard Time),260746.09999999963,015_o_m_n_a.png,I,m,1247,9,1,2295.2000000001863,258450.89999999944,8021,VNB,C,8
8,test,1,0.0,1-Back,0,m,Tue Jan 28 2025 18:25:11 GMT-0600 (Central Standard Time),263812.0999999996,025_y_m_h_a.png,I,None,2014,10,1,3062.899999999441,260749.2000000002,8021,VNB,C,9
8,test,1,0.0,1-Back,0,m,Tue Jan 28 2025 18:25:11 GMT-0600 (Central Standard Time),266777.7000000002,015_o_m_d_a.png,I,z,1915,11,1,2961.800000000745,263815.89999999944,8021,VNB,C,10
9,test,1,1.0,1-Back,1,z,Tue Jan 28 2025 18:25:11 GMT-0600 (Central Standard Time),269343.2999999998,012_o_f_d_a.png,I,z,1483,12,1,2561.7000000001863,266781.5999999996,8021,VNB,C,11
10,test,1,0.0,1-Back,1,m,Tue Jan 28 2025 18:25:11 GMT-0600 (Central Standard Time),271975.7999999998,014_m_m_n_a.png,I,m,1542,13,1,2628.0,269347.7999999998,8021,VNB,C,12
11,test,1,1.0,1-Back,1,z,Tue Jan 28 2025 18:25:11 GMT-0600 (Central Standard Time),274341.7999999998,022_y_f_n_a.png,I,z,1302,14,1,2362.0,271979.7999999998,8021,VNB,C,13
12,test,1,0.0,1-Back,1,m,Tue Jan 28 2025 18:25:11 GMT-0600 (Central Standard Time),276657.7000000002,019_m_f_h_a.png,I,m,1249,15,1,2311.800000000745,274345.89999999944,8021,VNB,C,14
13,test,1,0.0,1-Back,1,m,Tue Jan 28 2025 18:25:11 GMT-0600 (Central Standard Time),279473.5,014_m_m_d_a.png,I,m,1740,16,1,2811.7999999998137,276661.7000000002,8021,VNB,C,15
13,test,1,0.0,1-Back,0,m,Tue Jan 28 2025 18:25:11 GMT-0600 (Central Standard Time),282422.7000000002,025_y_m_n_a.png,I,z,1885,17,1,2945.2000000001863,279477.5,8021,VNB,C,16
14,test,1,0.0,1-Back,1,m,Tue Jan 28 2025 18:25:11 GMT-0600 (Central Standard Time),284521.89999999944,012_o_f_h_a.png,I,m,1048,18,1,2095.399999999441,282426.5,8021,VNB,C,17
0,test,2,0.0,1-Back,,,Tue Jan 28 2025 18:25:11 GMT-0600 (Central Standard Time),284521.89999999944,025_y_m_n_a.png,I,space,8271,1,1,2095.399999999441,282426.5,8021,VNB,C,0
1,test,2,0.0,1-Back,1,m,Tue Jan 28 2025 18:25:11 GMT-0600 (Central Standard Time),296968.2000000002,022_y_f_h_a.png,I,m,1007,2,1,2061.600000000559,294906.5999999996,8021,VNB,C,1
2,test,2,1.0,1-Back,1,m,Tue Jan 28 2025 18:25:11 GMT-0600 (Central Standard Time),299317.39999999944,015_o_m_n_a.png,I,m,1278,3,1,2345.0999999996275,296972.2999999998,8021,VNB,C,2
3,test,2,0.0,1-Back,1,m,Tue Jan 28 2025 18:25:11 GMT-0600 (Central Standard Time),301783.2999999998,019_m_f_d_a.png,I,m,1401,4,1,2461.7000000001863,299321.5999999996,8021,VNB,C,3
3,test,2,0.0,1-Back,0,z,Tue Jan 28 2025 18:25:11 GMT-0600 (Central Standard Time),303782.7000000002,014_m_m_d_a.png,I,m,934,5,1,1995.300000000745,301787.39999999944,8021,VNB,C,4
4,test,2,0.0,1-Back,1,m,Tue Jan 28 2025 18:25:11 GMT-0600 (Central Standard Time),306481.7999999998,025_y_m_h_a.png,I,m,1640,6,1,2695.4000000003725,303786.39999999944,8021,VNB,C,5
5,test,2,1.0,1-Back,1,z,Tue Jan 28 2025 18:25:11 GMT-0600 (Central Standard Time),308697.7000000002,012_o_f_h_a.png,I,z,1156,7,1,2211.800000000745,306485.89999999944,8021,VNB,C,6
6,test,2,0.0,1-Back,1,m,Tue Jan 28 2025 18:25:11 GMT-0600 (Central Standard Time),310713.89999999944,019_m_f_n_a.png,I,m,948,8,1,2012.199999999255,308701.7000000002,8021,VNB,C,7
7,test,2,0.0,1-Back,1,m,Tue Jan 28 2025 18:25:11 GMT-0600 (Central Standard Time),313163.0999999996,022_y_f_d_a.png,I,m,1389,9,1,2445.0999999996275,310718.0,8021,VNB,C,8
8,test,2,0.0,1-Back,1,m,Tue Jan 28 2025 18:25:11 GMT-0600 (Central Standard Time),315695.5,014_m_m_n_a.png,I,m,1459,10,1,2528.2000000001863,313167.2999999998,8021,VNB,C,9
8,test,2,1.0,1-Back,0,m,Tue Jan 28 2025 18:25:11 GMT-0600 (Central Standard Time),317761.7999999998,019_m_f_h_a.png,I,z,998,11,1,2062.0,315699.7999999998,8021,VNB,C,10
9,test,2,0.0,1-Back,1,z,Tue Jan 28 2025 18:25:11 GMT-0600 (Central Standard Time),319871.39999999944,015_o_m_h_a.png,I,z,1058,12,1,2105.899999999441,317765.5,8021,VNB,C,11
10,test,2,0.0,1-Back,1,m,Tue Jan 28 2025 18:25:11 GMT-0600 (Central Standard Time),321893.5999999996,025_y_m_d_a.png,I,m,936,13,1,2018.0,319875.5999999996,8021,VNB,C,12
10,test,2,0.0,1-Back,0,m,Tue Jan 28 2025 18:25:11 GMT-0600 (Central Standard Time),324959.5,012_o_f_n_a.png,I,None,2014,14,1,3061.5,321898.0,8021,VNB,C,13
11,test,2,0.0,1-Back,1,z,Tue Jan 28 2025 18:25:11 GMT-0600 (Central Standard Time),327175.2999999998,022_y_f_n_a.png,I,z,1159,15,1,2211.9000000003725,324963.39999999944,8021,VNB,C,14
12,test,2,1.0,1-Back,1,m,Tue Jan 28 2025 18:25:11 GMT-0600 (Central Standard Time),329208.0999999996,014_m_m_h_a.png,I,m,974,16,1,2029.3999999994412,327178.7000000002,8021,VNB,C,15
13,test,2,0.0,1-Back,1,m,Tue Jan 28 2025 18:25:11 GMT-0600 (Central Standard Time),332040.7000000002,012_o_f_d_a.png,I,m,1774,17,1,2828.4000000003725,329212.2999999998,8021,VNB,C,16
14,test,2,1.0,1-Back,1,z,Tue Jan 28 2025 18:25:11 GMT-0600 (Central Standard Time),334256.5,015_o_m_d_a.png,I,z,1157,18,1,2211.9000000003725,332044.5999999996,8021,VNB,C,17
0,test,3,1.0,1-Back,,,Tue Jan 28 2025 18:25:11 GMT-0600 (Central Standard Time),334256.5,012_o_f_h_a.png,I,space,1584,1,1,2211.9000000003725,332044.5999999996,8021,VNB,C,0
1,test,3,0.0,1-Back,1,m,Tue Jan 28 2025 18:25:11 GMT-0600 (Central Standard Time),340204.5999999996,019_m_f_d_a.png,I,m,1162,2,1,2211.5,337993.0999999996,8021,VNB,C,1
2,test,3,1.0,1-Back,1,m,Tue Jan 28 2025 18:25:11 GMT-0600 (Central Standard Time),342787.0999999996,014_m_m_n_a.png,I,m,1504,3,1,2578.2999999998137,340208.7999999998,8021,VNB,C,2
3,test,3,0.0,1-Back,1,z,Tue Jan 28 2025 18:25:11 GMT-0600 (Central Standard Time),345152.89999999944,012_o_f_n_a.png,I,z,1307,4,1,2361.899999999441,342791.0,8021,VNB,C,3
4,test,3,1.0,1-Back,1,m,Tue Jan 28 2025 18:25:11 GMT-0600 (Central Standard Time),347635.5,015_o_m_d_a.png,I,m,1428,5,1,2478.7000000001863,345156.7999999998,8021,VNB,C,4
5,test,3,0.0,1-Back,1,m,Tue Jan 28 2025 18:25:11 GMT-0600 (Central Standard Time),349818.0999999996,022_y_f_h_a.png,I,m,1122,6,1,2178.899999999441,347639.2000000002,8021,VNB,C,5
6,test,3,0.0,1-Back,1,z,Tue Jan 28 2025 18:25:11 GMT-0600 (Central Standard Time),352134.0999999996,025_y_m_h_a.png,I,z,1260,7,1,2312.2999999998137,349821.7999999998,8021,VNB,C,6
7,test,3,0.0,1-Back,1,m,Tue Jan 28 2025 18:25:11 GMT-0600 (Central Standard Time),354200.39999999944,019_m_f_n_a.png,I,m,1008,8,1,2061.7999999998137,352138.5999999996,8021,VNB,C,7
8,test,3,0.0,1-Back,1,m,Tue Jan 28 2025 18:25:11 GMT-0600 (Central Standard Time),356482.5999999996,022_y_f_d_a.png,I,m,1230,9,1,2278.0999999996275,354204.5,8021,VNB,C,8
9,test,3,1.0,1-Back,1,m,Tue Jan 28 2025 18:25:11 GMT-0600 (Central Standard Time),359198.5999999996,015_o_m_n_a.png,I,m,1659,10,1,2712.399999999441,356486.2000000002,8021,VNB,C,9
10,test,3,0.0,1-Back,1,m,Tue Jan 28 2025 18:25:11 GMT-0600 (Central Standard Time),361781.2999999998,014_m_m_h_a.png,I,m,1485,11,1,2578.7999999998137,359202.5,8021,VNB,C,10
11,test,3,0.0,1-Back,1,z,Tue Jan 28 2025 18:25:11 GMT-0600 (Central Standard Time),363630.7000000002,019_m_f_h_a.png,I,z,785,12,1,1845.7000000001863,361785.0,8021,VNB,C,11
12,test,3,1.0,1-Back,1,m,Tue Jan 28 2025 18:25:11 GMT-0600 (Central Standard Time),365830.0,012_o_f_d_a.png,I,m,1118,13,1,2195.100000000559,363634.89999999944,8021,VNB,C,12
12,test,3,0.0,1-Back,0,z,Tue Jan 28 2025 18:25:11 GMT-0600 (Central Standard Time),368329.0999999996,014_m_m_d_a.png,I,m,1371,14,1,2494.7000000001863,365834.39999999944,8021,VNB,C,13
12,test,3,0.0,1-Back,0,m,Tue Jan 28 2025 18:25:11 GMT-0600 (Central Standard Time),370795.0,025_y_m_n_a.png,I,z,1404,15,1,2461.7000000001863,368333.2999999998,8021,VNB,C,14
13,test,3,1.0,1-Back,1,m,Tue Jan 28 2025 18:25:11 GMT-0600 (Central Standard Time),372861.0,015_o_m_h_a.png,I,m,1003,16,1,2062.2000000001863,370798.7999999998,8021,VNB,C,15
13,test,3,0.0,1-Back,0,m,Tue Jan 28 2025 18:25:11 GMT-0600 (Central Standard Time),375943.5999999996,025_y_m_d_a.png,I,None,2014,17,1,3078.5999999996275,372865.0,8021,VNB,C,16
14,test,3,1.0,1-Back,1,m,Tue Jan 28 2025 18:25:11 GMT-0600 (Central Standard Time),378143.0,022_y_f_n_a.png,I,m,1143,18,1,2195.600000000559,375947.39999999944,8021,VNB,C,17
0,test,4,1.0,1-Back,,,Tue Jan 28 2025 18:25:11 GMT-0600 (Central Standard Time),378143.0,014_m_m_d_a.png,I,space,1554,1,1,2195.600000000559,375947.39999999944,8021,VNB,C,0
1,test,4,0.0,1-Back,1,z,Tue Jan 28 2025 18:25:11 GMT-0600 (Central Standard Time),384124.0999999996,015_o_m_d_a.png,I,z,1253,2,1,2311.5999999996275,381812.5,8021,VNB,C,1
2,test,4,0.0,1-Back,1,m,Tue Jan 28 2025 18:25:11 GMT-0600 (Central Standard Time),386090.2000000002,025_y_m_h_a.png,I,m,914,3,1,1962.1000000005588,384128.0999999996,8021,VNB,C,2
3,test,4,0.0,1-Back,1,m,Tue Jan 28 2025 18:25:11 GMT-0600 (Central Standard Time),388323.7999999998,019_m_f_n_a.png,I,m,1155,4,1,2229.5,386094.2999999998,8021,VNB,C,3
4,test,4,1.0,1-Back,1,m,Tue Jan 28 2025 18:25:11 GMT-0600 (Central Standard Time),390588.5,012_o_f_h_a.png,I,m,1194,5,1,2260.7000000001863,388327.7999999998,8021,VNB,C,4
4,test,4,0.0,1-Back,0,m,Tue Jan 28 2025 18:25:11 GMT-0600 (Central Standard Time),393354.5999999996,014_m_m_n_a.png,I,z,1672,6,1,2762.0999999996275,390592.5,8021,VNB,C,5
5,test,4,0.0,1-Back,1,m,Tue Jan 28 2025 18:25:11 GMT-0600 (Central Standard Time),395487.2999999998,025_y_m_d_a.png,I,m,1050,7,1,2128.2000000001863,393359.0999999996,8021,VNB,C,6
6,test,4,1.0,1-Back,1,z,Tue Jan 28 2025 18:25:11 GMT-0600 (Central Standard Time),397686.5,022_y_f_d_a.png,I,z,1142,8,1,2194.2999999998137,395492.2000000002,8021,VNB,C,7
7,test,4,0.0,1-Back,1,m,Tue Jan 28 2025 18:25:11 GMT-0600 (Central Standard Time),399735.89999999944,019_m_f_h_a.png,I,m,975,9,1,2044.2999999998137,397691.5999999996,8021,VNB,C,8
8,test,4,0.0,1-Back,1,z,Tue Jan 28 2025 18:25:11 GMT-0600 (Central Standard Time),401851.89999999944,015_o_m_h_a.png,I,z,1061,10,1,2112.5,399739.39999999944,8021,VNB,C,9
9,test,4,1.0,1-Back,1,m,Tue Jan 28 2025 18:25:11 GMT-0600 (Central Standard Time),404351.2000000002,012_o_f_n_a.png,I,m,1434,11,1,2496.2000000001863,401855.0,8021,VNB,C,10
10,test,4,0.0,1-Back,1,m,Tue Jan 28 2025 18:25:11 GMT-0600 (Central Standard Time),406883.5999999996,019_m_f_d_a.png,I,m,1478,12,1,2529.2000000001863,404354.39999999944,8021,VNB,C,11
11,test,4,0.0,1-Back,1,m,Tue Jan 28 2025 18:25:11 GMT-0600 (Central Standard Time),409816.2000000002,022_y_f_n_a.png,I,m,1850,13,1,2929.2000000001863,406887.0,8021,VNB,C,12
12,test,4,0.0,1-Back,1,m,Tue Jan 28 2025 18:25:11 GMT-0600 (Central Standard Time),412398.5999999996,012_o_f_d_a.png,I,m,1550,14,1,2578.2000000001863,409820.39999999944,8021,VNB,C,13
13,test,4,0.0,1-Back,1,m,Tue Jan 28 2025 18:25:11 GMT-0600 (Central Standard Time),414531.2999999998,022_y_f_h_a.png,I,m,1071,15,1,2128.5999999996275,412402.7000000002,8021,VNB,C,14
14,test,4,1.0,1-Back,1,z,Tue Jan 28 2025 18:25:11 GMT-0600 (Central Standard Time),416680.5999999996,014_m_m_h_a.png,I,z,1065,16,1,2145.2000000001863,414535.39999999944,8021,VNB,C,15
15,test,4,0.0,1-Back,1,m,Tue Jan 28 2025 18:25:11 GMT-0600 (Central Standard Time),418663.5,015_o_m_n_a.png,I,m,900,17,1,1979.0,416684.5,8021,VNB,C,16
16,test,4,1.0,1-Back,1,z,Tue Jan 28 2025 18:25:11 GMT-0600 (Central Standard Time),420912.7000000002,025_y_m_n_a.png,I,z,1157,18,1,2245.2000000001863,418667.5,8021,VNB,C,17
0,test,5,1.0,1-Back,,,Tue Jan 28 2025 18:25:11 GMT-0600 (Central Standard Time),420912.7000000002,015_o_m_n_a.png,I,space,2192,1,1,2245.2000000001863,418667.5,8021,VNB,C,0
1,test,5,1.0,1-Back,1,m,Tue Jan 28 2025 18:25:11 GMT-0600 (Central Standard Time),427062.0,012_o_f_h_a.png,I,m,903,2,1,1929.7999999998137,425132.2000000002,8021,VNB,C,1
2,test,5,0.0,1-Back,1,m,Tue Jan 28 2025 18:25:11 GMT-0600 (Central Standard Time),429126.89999999944,025_y_m_d_a.png,I,m,1043,3,1,2060.5999999996275,427066.2999999998,8021,VNB,C,2
3,test,5,0.0,1-Back,1,z,Tue Jan 28 2025 18:25:11 GMT-0600 (Central Standard Time),431159.5999999996,015_o_m_d_a.png,I,z,1008,4,1,2029.0,429130.5999999996,8021,VNB,C,3
4,test,5,0.0,1-Back,1,m,Tue Jan 28 2025 18:25:11 GMT-0600 (Central Standard Time),433058.7999999998,019_m_f_h_a.png,I,m,879,5,1,1895.4000000003725,431163.39999999944,8021,VNB,C,4
5,test,5,0.0,1-Back,1,m,Tue Jan 28 2025 18:25:11 GMT-0600 (Central Standard Time),435158.2999999998,022_y_f_n_a.png,I,m,1077,6,1,2096.0,433062.2999999998,8021,VNB,C,5
6,test,5,1.0,1-Back,1,z,Tue Jan 28 2025 18:25:11 GMT-0600 (Central Standard Time),437174.2999999998,012_o_f_n_a.png,I,z,993,7,1,2012.2000000001863,435162.0999999996,8021,VNB,C,6
7,test,5,0.0,1-Back,1,m,Tue Jan 28 2025 18:25:11 GMT-0600 (Central Standard Time),439057.0,019_m_f_d_a.png,I,m,856,8,1,1879.1000000005588,437177.89999999944,8021,VNB,C,7
8,test,5,0.0,1-Back,1,m,Tue Jan 28 2025 18:25:11 GMT-0600 (Central Standard Time),441122.89999999944,025_y_m_h_a.png,I,m,1046,9,1,2062.5,439060.39999999944,8021,VNB,C,8
9,test,5,0.0,1-Back,1,m,Tue Jan 28 2025 18:25:11 GMT-0600 (Central Standard Time),443372.39999999944,022_y_f_d_a.png,I,m,1221,10,1,2245.5999999996275,441126.7999999998,8021,VNB,C,9
10,test,5,0.0,1-Back,1,m,Tue Jan 28 2025 18:25:11 GMT-0600 (Central Standard Time),445421.7000000002,014_m_m_n_a.png,I,m,1025,11,1,2045.5,443376.2000000002,8021,VNB,C,10
11,test,5,1.0,1-Back,1,z,Tue Jan 28 2025 18:25:11 GMT-0600 (Central Standard Time),447588.5999999996,019_m_f_n_a.png,I,z,1138,12,1,2162.5,445426.0999999996,8021,VNB,C,11
12,test,5,0.0,1-Back,1,m,Tue Jan 28 2025 18:25:11 GMT-0600 (Central Standard Time),450020.39999999944,015_o_m_h_a.png,I,m,1411,13,1,2428.2999999998137,447592.0999999996,8021,VNB,C,12
13,test,5,0.0,1-Back,1,z,Tue Jan 28 2025 18:25:11 GMT-0600 (Central Standard Time),452636.0999999996,014_m_m_h_a.png,I,z,1587,14,1,2612.0,450024.0999999996,8021,VNB,C,13
14,test,5,1.0,1-Back,1,m,Tue Jan 28 2025 18:25:11 GMT-0600 (Central Standard Time),454535.39999999944,012_o_f_d_a.png,I,m,875,15,1,1895.699999999255,452639.7000000002,8021,VNB,C,14
15,test,5,0.0,1-Back,1,m,Tue Jan 28 2025 18:25:11 GMT-0600 (Central Standard Time),456734.7000000002,025_y_m_n_a.png,I,m,1168,16,1,2195.5,454539.2000000002,8021,VNB,C,15
15,test,5,0.0,1-Back,0,m,Tue Jan 28 2025 18:25:11 GMT-0600 (Central Standard Time),459167.39999999944,022_y_f_h_a.png,I,z,1399,17,1,2428.899999999441,456738.5,8021,VNB,C,16
16,test,5,0.0,1-Back,1,m,Tue Jan 28 2025 18:25:11 GMT-0600 (Central Standard Time),461199.7000000002,014_m_m_d_a.png,I,m,999,18,1,2029.1000000005588,459170.5999999996,8021,VNB,C,17
0,prac,1,0.0,2-Back,,,Tue Jan 28 2025 18:25:11 GMT-0600 (Central Standard Time),461199.7000000002,019_m_f_n_a.png,I,space,5922,1,1,2029.1000000005588,459170.5999999996,8021,VNB,C,0
0,prac,1,0.0,2-Back,,,Tue Jan 28 2025 18:25:11 GMT-0600 (Central Standard Time),461199.7000000002,012_o_f_h_a.png,I,space,5922,2,1,2029.1000000005588,459170.5999999996,8021,VNB,C,0
1,prac,1,0.0,2-Back,1,m,Tue Jan 28 2025 18:25:11 GMT-0600 (Central Standard Time),566950.5,015_o_m_d_a.png,I,m,1835,3,1,2726.600000000559,564223.8999999994,8021,VNB,C,1
2,prac,1,1.0,2-Back,1,z,Tue Jan 28 2025 18:25:11 GMT-0600 (Central Standard Time),569549.7000000002,014_m_m_h_a.png,I,z,1724,4,1,2593.300000000745,566956.3999999994,8021,VNB,C,2
3,prac,1,0.0,2-Back,1,m,Tue Jan 28 2025 18:25:11 GMT-0600 (Central Standard Time),571966.5999999996,022_y_f_n_a.png,I,m,1509,5,1,2411.0999999996275,569555.5,8021,VNB,C,3
3,prac,1,1.0,2-Back,0,z,Tue Jan 28 2025 18:25:11 GMT-0600 (Central Standard Time),574798.2000000002,015_o_m_h_a.png,I,m,1935,6,1,2825.2000000001863,571973.0,8021,VNB,C,4
4,prac,1,1.0,2-Back,1,z,Tue Jan 28 2025 18:25:11 GMT-0600 (Central Standard Time),577430.3999999994,025_y_m_n_a.png,I,z,1753,7,1,2626.5999999996275,574803.7999999998,8021,VNB,C,5
5,prac,1,0.0,2-Back,1,m,Tue Jan 28 2025 18:25:11 GMT-0600 (Central Standard Time),579896.2999999998,019_m_f_d_a.png,I,m,1558,8,1,2460.4000000003725,577435.8999999994,8021,VNB,C,6
5,prac,1,0.0,2-Back,0,m,Tue Jan 28 2025 18:25:11 GMT-0600 (Central Standard Time),582695.5,012_o_f_d_a.png,I,z,1883,9,1,2793.7000000001863,579901.7999999998,8021,VNB,C,7
5,prac,1,0.0,2-Back,0,m,Tue Jan 28 2025 18:25:11 GMT-0600 (Central Standard Time),584694.8999999994,014_m_m_h_a.png,I,z,1211,10,1,1994.199999999255,582700.7000000002,8021,VNB,C,8
5,prac,1,1.0,2-Back,0,z,Tue Jan 28 2025 18:25:11 GMT-0600 (Central Standard Time),586944.2000000002,022_y_f_d_a.png,I,m,1344,11,1,2244.5,584699.7000000002,8021,VNB,C,9
5,prac,1,0.0,2-Back,0,m,Tue Jan 28 2025 18:25:11 GMT-0600 (Central Standard Time),589843.2000000002,015_o_m_n_a.png,I,None,2004,12,1,2893.4000000003725,586949.7999999998,8021,VNB,C,10
0,prac,2,0.0,2-Back,,,Tue Jan 28 2025 18:25:11 GMT-0600 (Central Standard Time),589843.2000000002,019_m_f_n_a.png,I,a,7744,1,1,2893.4000000003725,586949.7999999998,8021,VNB,C,0
0,prac,2,0.0,2-Back,,,Tue Jan 28 2025 18:25:11 GMT-0600 (Central Standard Time),589843.2000000002,012_o_f_h_a.png,I,a,7744,2,1,2893.4000000003725,586949.7999999998,8021,VNB,C,0
1,prac,2,0.0,2-Back,1,m,Tue Jan 28 2025 18:25:11 GMT-0600 (Central Standard Time),605255.0,015_o_m_d_a.png,I,m,1485,3,1,2377.5,602877.5,8021,VNB,C,1
2,prac,2,1.0,2-Back,1,z,Tue Jan 28 2025 18:25:11 GMT-0600 (Central Standard Time),607737.7000000002,014_m_m_h_a.png,I,z,1708,4,1,2477.4000000003725,605260.2999999998,8021,VNB,C,2
3,prac,2,0.0,2-Back,1,m,Tue Jan 28 2025 18:25:11 GMT-0600 (Central Standard Time),610303.7000000002,022_y_f_n_a.png,I,m,1668,5,1,2560.600000000559,607743.0999999996,8021,VNB,C,3
4,prac,2,1.0,2-Back,1,z,Tue Jan 28 2025 18:25:11 GMT-0600 (Central Standard Time),612636.0999999996,015_o_m_h_a.png,I,z,1437,6,1,2327.0999999996275,610309.0,8021,VNB,C,4
4,prac,2,1.0,2-Back,0,z,Tue Jan 28 2025 18:25:11 GMT-0600 (Central Standard Time),615169.7999999998,025_y_m_n_a.png,I,m,1676,7,1,2527.9000000003725,612641.8999999994,8021,VNB,C,5
4,prac,2,0.0,2-Back,0,m,Tue Jan 28 2025 18:25:11 GMT-0600 (Central Standard Time),617717.7000000002,019_m_f_d_a.png,I,z,1643,8,1,2542.800000000745,615174.8999999994,8021,VNB,C,6
4,prac,2,0.0,2-Back,0,m,Tue Jan 28 2025 18:25:11 GMT-0600 (Central Standard Time),620483.7999999998,012_o_f_d_a.png,I,z,1869,9,1,2761.0,617722.7999999998,8021,VNB,C,7
5,prac,2,0.0,2-Back,1,m,Tue Jan 28 2025 18:25:11 GMT-0600 (Central Standard Time),622516.2999999998,014_m_m_h_a.png,I,m,1255,10,1,2027.0,620489.2999999998,8021,VNB,C,8
5,prac,2,1.0,2-Back,0,z,Tue Jan 28 2025 18:25:11 GMT-0600 (Central Standard Time),624698.8999999994,022_y_f_d_a.png,I,m,1290,11,1,2177.0,622521.8999999994,8021,VNB,C,9
5,prac,2,0.0,2-Back,0,m,Tue Jan 28 2025 18:25:11 GMT-0600 (Central Standard Time),627181.5,015_o_m_n_a.png,I,z,1577,12,1,2477.2999999998137,624704.2000000002,8021,VNB,C,10
0,test,1,0.0,2-Back,,,Tue Jan 28 2025 18:25:11 GMT-0600 (Central Standard Time),627181.5,025_y_m_h_a.png,I,space,12302,1,1,2477.2999999998137,624704.2000000002,8021,VNB,C,0
0,test,1,0.0,2-Back,,,Tue Jan 28 2025 18:25:11 GMT-0600 (Central Standard Time),627181.5,012_o_f_n_a.png,I,space,12302,2,1,2477.2999999998137,624704.2000000002,8021,VNB,C,0
1,test,1,0.0,2-Back,1,z,Tue Jan 28 2025 18:25:11 GMT-0600 (Central Standard Time),662553.7000000002,015_o_m_h_a.png,I,z,1582,3,1,2611.9000000003725,659941.7999999998,8021,VNB,C,1
2,test,1,0.0,2-Back,1,m,Tue Jan 28 2025 18:25:11 GMT-0600 (Central Standard Time),664802.7999999998,019_m_f_d_a.png,I,m,1197,4,1,2245.2999999998137,662557.5,8021,VNB,C,2
3,test,1,1.0,2-Back,1,m,Tue Jan 28 2025 18:25:11 GMT-0600 (Central Standard Time),667718.8999999994,025_y_m_n_a.png,I,m,1858,5,1,2912.5,664806.3999999994,8021,VNB,C,3
3,test,1,0.0,2-Back,0,z,Tue Jan 28 2025 18:25:11 GMT-0600 (Central Standard Time),670784.5,022_y_f_d_a.png,I,None,2013,6,1,3061.9000000003725,667722.5999999996,8021,VNB,C,4
4,test,1,0.0,2-Back,1,m,Tue Jan 28 2025 18:25:11 GMT-0600 (Central Standard Time),673800.2000000002,014_m_m_h_a.png,I,m,1950,7,1,3011.7000000001863,670788.5,8021,VNB,C,5
5,test,1,1.0,2-Back,1,m,Tue Jan 28 2025 18:25:11 GMT-0600 (Central Standard Time),676799.5999999996,022_y_f_n_a.png,I,m,1934,8,1,2995.2999999998137,673804.2999999998,8021,VNB,C,6
6,test,1,0.0,2-Back,1,z,Tue Jan 28 2025 18:25:11 GMT-0600 (Central Standard Time),679565.0,012_o_f_h_a.png,I,z,1703,9,1,2761.7999999998137,676803.2000000002,8021,VNB,C,7
6,test,1,0.0,2-Back,0,m,Tue Jan 28 2025 18:25:11 GMT-0600 (Central Standard Time),682097.5999999996,015_o_m_d_a.png,I,z,1464,10,1,2528.7999999998137,679568.7999999998,8021,VNB,C,8
6,test,1,1.0,2-Back,0,m,Tue Jan 28 2025 18:25:11 GMT-0600 (Central Standard Time),685163.3999999994,014_m_m_d_a.png,I,None,2014,11,1,3062.0999999996275,682101.2999999998,8021,VNB,C,9
6,test,1,0.0,2-Back,0,m,Tue Jan 28 2025 18:25:11 GMT-0600 (Central Standard Time),687662.7000000002,019_m_f_n_a.png,I,z,1435,12,1,2495.4000000003725,685167.2999999998,8021,VNB,C,10
6,test,1,0.0,2-Back,0,m,Tue Jan 28 2025 18:25:11 GMT-0600 (Central Standard Time),690311.5,022_y_f_h_a.png,I,z,1591,13,1,2645.100000000559,687666.3999999994,8021,VNB,C,11
6,test,1,0.0,2-Back,0,z,Tue Jan 28 2025 18:25:11 GMT-0600 (Central Standard Time),692477.7000000002,014_m_m_n_a.png,I,m,1110,14,1,2162.0,690315.7000000002,8021,VNB,C,12
7,test,1,0.0,2-Back,1,m,Tue Jan 28 2025 18:25:11 GMT-0600 (Central Standard Time),695276.7000000002,025_y_m_d_a.png,I,m,1743,15,1,2795.300000000745,692481.3999999994,8021,VNB,C,13
7,test,1,1.0,2-Back,0,m,Tue Jan 28 2025 18:25:11 GMT-0600 (Central Standard Time),697676.0,019_m_f_h_a.png,I,z,1344,16,1,2395.4000000003725,695280.5999999996,8021,VNB,C,14
7,test,1,0.0,2-Back,0,z,Tue Jan 28 2025 18:25:11 GMT-0600 (Central Standard Time),699908.7000000002,012_o_f_d_a.png,I,m,1170,17,1,2229.0,697679.7000000002,8021,VNB,C,15
7,test,1,0.0,2-Back,0,m,Tue Jan 28 2025 18:25:11 GMT-0600 (Central Standard Time),702257.8999999994,015_o_m_n_a.png,I,z,1282,18,1,2345.2999999998137,699912.5999999996,8021,VNB,C,16
0,test,2,0.0,2-Back,,,Tue Jan 28 2025 18:25:11 GMT-0600 (Central Standard Time),702257.8999999994,014_m_m_h_a.png,I,space,4727,1,1,2345.2999999998137,699912.5999999996,8021,VNB,C,0
0,test,2,0.0,2-Back,,,Tue Jan 28 2025 18:25:11 GMT-0600 (Central Standard Time),702257.8999999994,022_y_f_n_a.png,I,space,4727,2,1,2345.2999999998137,699912.5999999996,8021,VNB,C,0
1,test,2,1.0,2-Back,1,z,Tue Jan 28 2025 18:25:11 GMT-0600 (Central Standard Time),714720.7000000002,012_o_f_h_a.png,I,z,1432,3,1,2460.9000000003725,712259.7999999998,8021,VNB,C,1
2,test,2,0.0,2-Back,1,m,Tue Jan 28 2025 18:25:11 GMT-0600 (Central Standard Time),717303.2999999998,015_o_m_d_a.png,I,m,1559,4,1,2578.7000000001863,714724.5999999996,8021,VNB,C,2
2,test,2,0.0,2-Back,0,m,Tue Jan 28 2025 18:25:11 GMT-0600 (Central Standard Time),720202.0999999996,019_m_f_d_a.png,I,z,1880,5,1,2895.0999999996275,717307.0,8021,VNB,C,3
2,test,2,0.0,2-Back,0,m,Tue Jan 28 2025 18:25:11 GMT-0600 (Central Standard Time),723101.5999999996,025_y_m_h_a.png,I,z,1870,6,1,2895.7999999998137,720205.7999999998,8021,VNB,C,4
2,test,2,0.0,2-Back,0,m,Tue Jan 28 2025 18:25:11 GMT-0600 (Central Standard Time),726133.8999999994,012_o_f_n_a.png,I,None,2014,7,1,3028.5999999996275,723105.2999999998,8021,VNB,C,5
3,test,2,1.0,2-Back,1,z,Tue Jan 28 2025 18:25:11 GMT-0600 (Central Standard Time),728549.7999999998,015_o_m_h_a.png,I,z,1394,8,1,2411.9000000003725,726137.8999999994,8021,VNB,C,6
4,test,2,0.0,2-Back,1,m,Tue Jan 28 2025 18:25:11 GMT-0600 (Central Standard Time),731132.2999999998,022_y_f_d_a.png,I,m,1521,9,1,2578.7999999998137,728553.5,8021,VNB,C,7
4,test,2,0.0,2-Back,0,m,Tue Jan 28 2025 18:25:11 GMT-0600 (Central Standard Time),733998.0,025_y_m_d_a.png,I,z,1802,10,1,2862.100000000559,731135.8999999994,8021,VNB,C,8
5,test,2,0.0,2-Back,1,m,Tue Jan 28 2025 18:25:11 GMT-0600 (Central Standard Time),736980.5,014_m_m_n_a.png,I,m,1919,11,1,2978.7000000001863,734001.7999999998,8021,VNB,C,9
5,test,2,0.0,2-Back,0,m,Tue Jan 28 2025 18:25:11 GMT-0600 (Central Standard Time),739529.7000000002,019_m_f_h_a.png,I,z,1515,12,1,2546.100000000559,736983.5999999996,8021,VNB,C,10
5,test,2,1.0,2-Back,0,z,Tue Jan 28 2025 18:25:11 GMT-0600 (Central Standard Time),741662.2000000002,015_o_m_n_a.png,I,m,1076,13,1,2128.7000000001863,739533.5,8021,VNB,C,11
5,test,2,0.0,2-Back,0,m,Tue Jan 28 2025 18:25:11 GMT-0600 (Central Standard Time),743994.7999999998,012_o_f_d_a.png,I,z,1272,14,1,2328.9000000003725,741665.8999999994,8021,VNB,C,12
5,test,2,0.0,2-Back,0,m,Tue Jan 28 2025 18:25:11 GMT-0600 (Central Standard Time),746627.3999999994,022_y_f_h_a.png,I,z,1579,15,1,2629.0999999996275,743998.2999999998,8021,VNB,C,13
5,test,2,0.0,2-Back,0,z,Tue Jan 28 2025 18:25:11 GMT-0600 (Central Standard Time),748759.7999999998,014_m_m_d_a.png,I,m,1074,16,1,2128.5,746631.2999999998,8021,VNB,C,14
5,test,2,0.0,2-Back,0,m,Tue Jan 28 2025 18:25:11 GMT-0600 (Central Standard Time),750959.5,025_y_m_n_a.png,I,z,1142,17,1,2195.5,748764.0,8021,VNB,C,15
5,test,2,1.0,2-Back,0,m,Tue Jan 28 2025 18:25:11 GMT-0600 (Central Standard Time),753508.7000000002,019_m_f_n_a.png,I,z,1486,18,1,2545.2000000001863,750963.5,8021,VNB,C,16
0,test,3,1.0,2-Back,,,Tue Jan 28 2025 18:25:11 GMT-0600 (Central Standard Time),753508.7000000002,015_o_m_n_a.png,I,space,3100,1,1,2545.2000000001863,750963.5,8021,VNB,C,0
0,test,3,1.0,2-Back,,,Tue Jan 28 2025 18:25:11 GMT-0600 (Central Standard Time),753508.7000000002,012_o_f_d_a.png,I,space,3100,2,1,2545.2000000001863,750963.5,8021,VNB,C,0
1,test,3,0.0,2-Back,1,m,Tue Jan 28 2025 18:25:11 GMT-0600 (Central Standard Time),763738.7999999998,022_y_f_h_a.png,I,m,1039,3,1,2063.0,761675.7999999998,8021,VNB,C,1
1,test,3,0.0,2-Back,0,z,Tue Jan 28 2025 18:25:11 GMT-0600 (Central Standard Time),766154.3999999994,019_m_f_d_a.png,I,m,1396,4,1,2411.7999999998137,763742.5999999996,8021,VNB,C,2
1,test,3,1.0,2-Back,0,m,Tue Jan 28 2025 18:25:11 GMT-0600 (Central Standard Time),768354.0999999996,025_y_m_n_a.png,I,z,1181,5,1,2195.7999999998137,766158.2999999998,8021,VNB,C,3
2,test,3,0.0,2-Back,1,m,Tue Jan 28 2025 18:25:11 GMT-0600 (Central Standard Time),770770.0,015_o_m_h_a.png,I,m,1382,6,1,2412.4000000003725,768357.5999999996,8021,VNB,C,4
3,test,3,0.0,2-Back,1,z,Tue Jan 28 2025 18:25:11 GMT-0600 (Central Standard Time),773069.2999999998,022_y_f_n_a.png,I,z,1278,7,1,2295.5999999996275,770773.7000000002,8021,VNB,C,5
4,test,3,1.0,2-Back,1,m,Tue Jan 28 2025 18:25:11 GMT-0600 (Central Standard Time),775518.2999999998,014_m_m_d_a.png,I,m,1419,8,1,2445.4000000003725,773072.8999999994,8021,VNB,C,6
5,test,3,0.0,2-Back,1,m,Tue Jan 28 2025 18:25:11 GMT-0600 (Central Standard Time),777817.7999999998,025_y_m_d_a.png,I,m,1248,9,1,2295.5999999996275,775522.2000000002,8021,VNB,C,7
5,test,3,0.0,2-Back,0,m,Tue Jan 28 2025 18:25:11 GMT-0600 (Central Standard Time),780000.5999999996,012_o_f_h_a.png,I,z,1150,10,1,2179.2000000001863,777821.3999999994,8021,VNB,C,8
6,test,3,1.0,2-Back,1,m,Tue Jan 28 2025 18:25:11 GMT-0600 (Central Standard Time),782433.0,019_m_f_n_a.png,I,m,1398,11,1,2429.2000000001863,780003.7999999998,8021,VNB,C,9
7,test,3,1.0,2-Back,1,z,Tue Jan 28 2025 18:25:11 GMT-0600 (Central Standard Time),784632.0999999996,014_m_m_h_a.png,I,z,1174,12,1,2195.0999999996275,782437.0,8021,VNB,C,10
7,test,3,0.0,2-Back,0,m,Tue Jan 28 2025 18:25:11 GMT-0600 (Central Standard Time),787364.7999999998,022_y_f_d_a.png,I,z,1704,13,1,2729.0,784635.7999999998,8021,VNB,C,11
7,test,3,0.0,2-Back,0,m,Tue Jan 28 2025 18:25:11 GMT-0600 (Central Standard Time),790459.2999999998,012_o_f_n_a.png,I,None,2076,14,1,3090.7000000001863,787368.5999999996,8021,VNB,C,12
7,test,3,0.0,2-Back,0,z,Tue Jan 28 2025 18:25:11 GMT-0600 (Central Standard Time),792979.7000000002,015_o_m_d_a.png,I,m,1496,15,1,2516.4000000003725,790463.2999999998,8021,VNB,C,13
7,test,3,1.0,2-Back,0,m,Tue Jan 28 2025 18:25:11 GMT-0600 (Central Standard Time),795162.2000000002,019_m_f_h_a.png,I,z,1156,16,1,2177.800000000745,792984.3999999994,8021,VNB,C,14
8,test,3,0.0,2-Back,1,m,Tue Jan 28 2025 18:25:11 GMT-0600 (Central Standard Time),797128.3999999994,014_m_m_n_a.png,I,m,933,17,1,1962.0999999996275,795166.2999999998,8021,VNB,C,15
9,test,3,0.0,2-Back,1,z,Tue Jan 28 2025 18:25:11 GMT-0600 (Central Standard Time),799094.5,025_y_m_h_a.png,I,z,902,18,1,1962.1000000005588,797132.3999999994,8021,VNB,C,16
0,test,4,0.0,2-Back,,,Tue Jan 28 2025 18:25:11 GMT-0600 (Central Standard Time),799094.5,019_m_f_n_a.png,I,space,1546,1,1,1962.1000000005588,797132.3999999994,8021,VNB,C,0
0,test,4,0.0,2-Back,,,Tue Jan 28 2025 18:25:11 GMT-0600 (Central Standard Time),799094.5,015_o_m_n_a.png,I,space,1546,2,1,1962.1000000005588,797132.3999999994,8021,VNB,C,0
1,test,4,1.0,2-Back,1,m,Tue Jan 28 2025 18:25:11 GMT-0600 (Central Standard Time),808358.0999999996,025_y_m_h_a.png,I,m,1402,3,1,2428.7000000001863,805929.3999999994,8021,VNB,C,1
1,test,4,1.0,2-Back,0,m,Tue Jan 28 2025 18:25:11 GMT-0600 (Central Standard Time),811140.5,012_o_f_d_a.png,I,z,1754,4,1,2779.0,808361.5,8021,VNB,C,2
1,test,4,0.0,2-Back,0,z,Tue Jan 28 2025 18:25:11 GMT-0600 (Central Standard Time),813689.7000000002,015_o_m_h_a.png,I,m,1523,5,1,2545.300000000745,811144.3999999994,8021,VNB,C,3
2,test,4,0.0,2-Back,1,m,Tue Jan 28 2025 18:25:11 GMT-0600 (Central Standard Time),816523.2999999998,014_m_m_n_a.png,I,m,1814,6,1,2830.5999999996275,813692.7000000002,8021,VNB,C,4
2,test,4,0.0,2-Back,0,m,Tue Jan 28 2025 18:25:11 GMT-0600 (Central Standard Time),818954.5,019_m_f_d_a.png,I,z,1413,7,1,2427.9000000003725,816526.5999999996,8021,VNB,C,5
3,test,4,0.0,2-Back,1,z,Tue Jan 28 2025 18:25:11 GMT-0600 (Central Standard Time),821420.7999999998,022_y_f_n_a.png,I,z,1437,8,1,2462.7000000001863,818958.0999999996,8021,VNB,C,6
4,test,4,1.0,2-Back,1,m,Tue Jan 28 2025 18:25:11 GMT-0600 (Central Standard Time),823520.0,012_o_f_h_a.png,I,m,1066,9,1,2095.600000000559,821424.3999999994,8021,VNB,C,7
5,test,4,0.0,2-Back,1,m,Tue Jan 28 2025 18:25:11 GMT-0600 (Central Standard Time),825736.0,014_m_m_h_a.png,I,m,1184,10,1,2212.2999999998137,823523.7000000002,8021,VNB,C,8
6,test,4,0.0,2-Back,1,m,Tue Jan 28 2025 18:25:11 GMT-0600 (Central Standard Time),828485.0999999996,022_y_f_d_a.png,I,m,1728,11,1,2745.2999999998137,825739.7999999998,8021,VNB,C,9
6,test,4,0.0,2-Back,0,m,Tue Jan 28 2025 18:25:11 GMT-0600 (Central Standard Time),830718.0,025_y_m_n_a.png,I,z,1202,12,1,2229.2999999998137,828488.7000000002,8021,VNB,C,10
6,test,4,0.0,2-Back,0,z,Tue Jan 28 2025 18:25:11 GMT-0600 (Central Standard Time),833134.0,015_o_m_d_a.png,I,m,1386,13,1,2412.2999999998137,830721.7000000002,8021,VNB,C,11
6,test,4,1.0,2-Back,0,m,Tue Jan 28 2025 18:25:11 GMT-0600 (Central Standard Time),835083.0999999996,019_m_f_h_a.png,I,z,922,14,1,1945.3999999994412,833137.7000000002,8021,VNB,C,12
6,test,4,1.0,2-Back,0,m,Tue Jan 28 2025 18:25:11 GMT-0600 (Central Standard Time),837115.7999999998,022_y_f_h_a.png,I,z,1005,15,1,2028.4000000003725,835087.3999999994,8021,VNB,C,13
6,test,4,0.0,2-Back,0,m,Tue Jan 28 2025 18:25:11 GMT-0600 (Central Standard Time),839748.2000000002,012_o_f_n_a.png,I,z,1612,16,1,2629.2000000001863,837119.0,8021,VNB,C,14
6,test,4,0.0,2-Back,0,m,Tue Jan 28 2025 18:25:11 GMT-0600 (Central Standard Time),842364.0999999996,025_y_m_d_a.png,I,z,1595,17,1,2611.7999999998137,839752.2999999998,8021,VNB,C,15
6,test,4,1.0,2-Back,0,m,Tue Jan 28 2025 18:25:11 GMT-0600 (Central Standard Time),845129.8999999994,014_m_m_d_a.png,I,z,1739,18,1,2762.0999999996275,842367.7999999998,8021,VNB,C,16
0,test,5,1.0,2-Back,,,Tue Jan 28 2025 18:25:11 GMT-0600 (Central Standard Time),845129.8999999994,022_y_f_d_a.png,I,space,1703,1,1,2762.0999999996275,842367.7999999998,8021,VNB,C,0
0,test,5,1.0,2-Back,,,Tue Jan 28 2025 18:25:11 GMT-0600 (Central Standard Time),845129.8999999994,012_o_f_h_a.png,I,space,1703,2,1,2762.0999999996275,842367.7999999998,8021,VNB,C,0
1,test,5,1.0,2-Back,1,z,Tue Jan 28 2025 18:25:11 GMT-0600 (Central Standard Time),854727.0,015_o_m_d_a.png,I,z,1551,3,1,2612.2999999998137,852114.7000000002,8021,VNB,C,1
2,test,5,1.0,2-Back,1,m,Tue Jan 28 2025 18:25:11 GMT-0600 (Central Standard Time),857059.5,019_m_f_n_a.png,I,m,1272,4,1,2328.9000000003725,854730.5999999996,8021,VNB,C,2
3,test,5,0.0,2-Back,1,m,Tue Jan 28 2025 18:25:11 GMT-0600 (Central Standard Time),859525.2999999998,014_m_m_h_a.png,I,m,1403,5,1,2462.0,857063.2999999998,8021,VNB,C,3
3,test,5,0.0,2-Back,0,z,Tue Jan 28 2025 18:25:11 GMT-0600 (Central Standard Time),862591.0999999996,022_y_f_n_a.png,I,None,2014,6,1,3062.2999999998137,859528.7999999998,8021,VNB,C,4
3,test,5,0.0,2-Back,0,m,Tue Jan 28 2025 18:25:11 GMT-0600 (Central Standard Time),864840.5,012_o_f_d_a.png,I,z,1217,7,1,2246.2999999998137,862594.2000000002,8021,VNB,C,5
3,test,5,0.0,2-Back,0,m,Tue Jan 28 2025 18:25:11 GMT-0600 (Central Standard Time),867322.7999999998,015_o_m_h_a.png,I,z,1464,8,1,2478.5999999996275,864844.2000000002,8021,VNB,C,6
3,test,5,1.0,2-Back,0,z,Tue Jan 28 2025 18:25:11 GMT-0600 (Central Standard Time),869322.0999999996,019_m_f_d_a.png,I,m,981,9,1,1995.3999999994412,867326.7000000002,8021,VNB,C,7
4,test,5,0.0,2-Back,1,m,Tue Jan 28 2025 18:25:11 GMT-0600 (Central Standard Time),871788.3999999994,025_y_m_n_a.png,I,m,1438,10,1,2462.899999999441,869325.5,8021,VNB,C,8
5,test,5,0.0,2-Back,1,m,Tue Jan 28 2025 18:25:11 GMT-0600 (Central Standard Time),874104.2000000002,014_m_m_n_a.png,I,m,1282,11,1,2312.2000000001863,871792.0,8021,VNB,C,9
5,test,5,0.0,2-Back,0,m,Tue Jan 28 2025 18:25:11 GMT-0600 (Central Standard Time),876220.0999999996,022_y_f_h_a.png,I,z,1088,12,1,2112.0,874108.0999999996,8021,VNB,C,10
6,test,5,0.0,2-Back,1,m,Tue Jan 28 2025 18:25:11 GMT-0600 (Central Standard Time),878252.7999999998,025_y_m_d_a.png,I,m,1004,13,1,2028.7999999998137,876224.0,8021,VNB,C,11
7,test,5,1.0,2-Back,1,z,Tue Jan 28 2025 18:25:11 GMT-0600 (Central Standard Time),880418.7999999998,019_m_f_h_a.png,I,z,1147,14,1,2162.2999999998137,878256.5,8021,VNB,C,12
8,test,5,0.0,2-Back,1,m,Tue Jan 28 2025 18:25:11 GMT-0600 (Central Standard Time),882401.7000000002,015_o_m_n_a.png,I,m,949,15,1,1979.7000000001863,880422.0,8021,VNB,C,13
8,test,5,0.0,2-Back,0,m,Tue Jan 28 2025 18:25:11 GMT-0600 (Central Standard Time),884663.0,014_m_m_d_a.png,I,z,1226,16,1,2257.2999999998137,882405.7000000002,8021,VNB,C,14
8,test,5,0.0,2-Back,0,z,Tue Jan 28 2025 18:25:11 GMT-0600 (Central Standard Time),886950.0999999996,012_o_f_n_a.png,I,m,1260,17,1,2283.0999999996275,884667.0,8021,VNB,C,15
8,test,5,1.0,2-Back,0,m,Tue Jan 28 2025 18:25:11 GMT-0600 (Central Standard Time),888984.0999999996,025_y_m_h_a.png,I,z,1010,18,1,2030.2000000001863,886953.8999999994,8021,VNB,C,16
