acc_sum,block,block_c,block_cond,con_img,correct,correct_response,datetime,endtime,face,jitter,line,project,response,response_time,row_sel,session_number,start_end,starttime,subject_id,task,task_vers,trial
1,prac,1,A,haborder.png,1,z,Wed Mar 12 2025 18:05:05 GMT-0500 (Central Daylight Time),77941.5,CFD-WF-019-015-A.jpg,1000,solid,O,z,1403,12,1,3198.5,74743.0,7082,ATS,A,1
2,prac,1,A,haborder.png,1,z,Wed Mar 12 2025 18:05:05 GMT-0500 (Central Daylight Time),80873.90000000037,CFD-BF-039-039-A.jpg,1200,solid,O,z,952,6,1,6130.9000000003725,74743.0,7082,ATS,A,2
3,prac,1,A,haborder.png,1,m,Wed Mar 12 2025 18:05:05 GMT-0500 (Central Daylight Time),84471.70000000019,CFD-WM-006-013-HC.jpg,1700,solid,O,m,1090,9,1,9728.700000000186,74743.0,7082,ATS,A,3
4,prac,1,A,haborder.png,1,m,Wed Mar 12 2025 18:05:05 GMT-0500 (Central Daylight Time),87606.0,CFD-WF-017-016-HC.jpg,1500,solid,O,m,837,11,1,12863.0,74743.0,7082,ATS,A,4
5,prac,1,A,haborder.png,1,z,Wed Mar 12 2025 18:05:05 GMT-0500 (Central Daylight Time),90172.09999999963,CFD-BF-023-013-A.jpg,1000,solid,O,z,797,4,1,15429.099999999627,74743.0,7082,ATS,A,5
6,prac,1,A,haborder.png,1,m,Wed Mar 12 2025 18:05:05 GMT-0500 (Central Daylight Time),93919.79999999981,CFD-BF-028-020-HC.jpg,2000,solid,O,m,958,5,1,19176.799999999814,74743.0,7082,ATS,A,6
6,prac,1,A,haborder.png,0,m,Wed Mar 12 2025 18:05:05 GMT-0500 (Central Daylight Time),97918.79999999981,CFD-BM-017-052-HC.jpg,1700,solid,O,None,1514,1,1,23175.799999999814,74743.0,7082,ATS,A,7
7,prac,1,A,haborder.png,1,z,Wed Mar 12 2025 18:05:05 GMT-0500 (Central Daylight Time),101149.09999999963,CFD-WF-003-014-A.jpg,1600,solid,O,z,835,10,1,26406.099999999627,74743.0,7082,ATS,A,8
7,prac,1,A,haborder.png,0,m,Wed Mar 12 2025 18:05:05 GMT-0500 (Central Daylight Time),104249.29999999981,CFD-WM-004-005-HC.jpg,1400,solid,O,z,905,7,1,29506.299999999814,74743.0,7082,ATS,A,9
8,prac,1,A,haborder.png,1,z,Wed Mar 12 2025 18:05:05 GMT-0500 (Central Daylight Time),107665.40000000037,CFD-BM-005-010-A.jpg,1600,solid,O,z,1023,2,1,32922.40000000037,74743.0,7082,ATS,A,10
8,prac,1,A,haborder.png,0,m,Wed Mar 12 2025 18:05:05 GMT-0500 (Central Daylight Time),111463.79999999981,CFD-BM-029-026-HC.jpg,1500,solid,O,None,1515,3,1,36720.799999999814,74743.0,7082,ATS,A,11
9,prac,1,A,haborder.png,1,z,Wed Mar 12 2025 18:05:05 GMT-0500 (Central Daylight Time),114909.0,CFD-WM-013-015-A.jpg,1900,solid,O,z,755,8,1,40166.0,74743.0,7082,ATS,A,12
0,prac,1,B,mfborder.png,0,m,Wed Mar 12 2025 18:05:05 GMT-0500 (Central Daylight Time),146435.09999999963,CFD-WM-006-013-HC.jpg,1600,dash,O,None,1514,10,1,3898.0,142537.09999999963,7082,ATS,A,1
1,prac,1,B,mfborder.png,1,z,Wed Mar 12 2025 18:05:05 GMT-0500 (Central Daylight Time),150069.0,CFD-BF-010-005-HC.jpg,1500,dash,O,z,1362,3,1,7531.9000000003725,142537.09999999963,7082,ATS,A,2
2,prac,1,B,mfborder.png,1,m,Wed Mar 12 2025 18:05:05 GMT-0500 (Central Daylight Time),153450.90000000037,CFD-WM-013-015-A.jpg,1700,dash,O,m,898,9,1,10913.800000000745,142537.09999999963,7082,ATS,A,3
3,prac,1,B,mfborder.png,1,z,Wed Mar 12 2025 18:05:05 GMT-0500 (Central Daylight Time),156181.7999999998,CFD-BF-023-013-A.jpg,1000,dash,O,z,942,4,1,13644.700000000186,142537.09999999963,7082,ATS,A,4
4,prac,1,B,mfborder.png,1,z,Wed Mar 12 2025 18:05:05 GMT-0500 (Central Daylight Time),159831.59999999963,CFD-WF-002-008-HC.jpg,1900,dash,O,z,956,8,1,17294.5,142537.09999999963,7082,ATS,A,5
5,prac,1,B,mfborder.png,1,m,Wed Mar 12 2025 18:05:05 GMT-0500 (Central Daylight Time),162931.7000000002,CFD-BM-010-019-A.jpg,1600,dash,O,m,706,2,1,20394.60000000056,142537.09999999963,7082,ATS,A,6
6,prac,1,B,mfborder.png,1,z,Wed Mar 12 2025 18:05:05 GMT-0500 (Central Daylight Time),166380.7000000002,CFD-BF-028-020-HC.jpg,1400,dash,O,z,1264,7,1,23843.60000000056,142537.09999999963,7082,ATS,A,7
6,prac,1,B,mfborder.png,0,m,Wed Mar 12 2025 18:05:05 GMT-0500 (Central Daylight Time),170611.59999999963,CFD-BM-005-010-A.jpg,2000,dash,O,z,1420,5,1,28074.5,142537.09999999963,7082,ATS,A,8
6,prac,1,B,mfborder.png,0,z,Wed Mar 12 2025 18:05:05 GMT-0500 (Central Daylight Time),174410.59999999963,CFD-WF-003-014-A.jpg,1500,dash,O,None,1501,11,1,31873.5,142537.09999999963,7082,ATS,A,9
7,prac,1,B,mfborder.png,1,m,Wed Mar 12 2025 18:05:05 GMT-0500 (Central Daylight Time),177095.09999999963,CFD-WM-019-013-A.jpg,1200,dash,O,m,709,6,1,34558.0,142537.09999999963,7082,ATS,A,10
7,prac,1,B,mfborder.png,0,m,Wed Mar 12 2025 18:05:05 GMT-0500 (Central Daylight Time),181090.7999999998,CFD-BM-029-026-HC.jpg,1700,dash,O,None,1513,1,1,38553.700000000186,142537.09999999963,7082,ATS,A,11
8,prac,1,B,mfborder.png,1,z,Wed Mar 12 2025 18:05:05 GMT-0500 (Central Daylight Time),183625.2000000002,CFD-WF-017-016-HC.jpg,1000,dash,O,z,725,12,1,41088.10000000056,142537.09999999963,7082,ATS,A,12
1,test,1,A,haborder.png,1,z,Wed Mar 12 2025 18:05:05 GMT-0500 (Central Daylight Time),218063.90000000037,CFD-BF-023-013-A.jpg,1000,solid,O,z,1019,4,1,2050.600000000559,216013.2999999998,7082,ATS,A,1
2,test,1,A,haborder.png,1,m,Wed Mar 12 2025 18:05:05 GMT-0500 (Central Daylight Time),220962.5,CFD-BF-028-020-HC.jpg,2000,solid,O,m,867,5,1,4949.200000000186,216013.2999999998,7082,ATS,A,2
3,test,1,A,haborder.png,1,z,Wed Mar 12 2025 18:05:05 GMT-0500 (Central Daylight Time),223494.0,CFD-BM-005-010-A.jpg,1600,solid,O,z,911,2,1,7480.700000000186,216013.2999999998,7082,ATS,A,3
4,test,1,A,haborder.png,1,m,Wed Mar 12 2025 18:05:05 GMT-0500 (Central Daylight Time),226277.59999999963,CFD-BF-028-020-HC.jpg,2000,solid,O,m,749,5,1,10264.299999999814,216013.2999999998,7082,ATS,A,4
5,test,1,A,haborder.png,1,z,Wed Mar 12 2025 18:05:05 GMT-0500 (Central Daylight Time),228842.2000000002,CFD-WF-003-014-A.jpg,1600,solid,O,z,949,10,1,12828.900000000373,216013.2999999998,7082,ATS,A,5
6,test,1,A,haborder.png,1,m,Wed Mar 12 2025 18:05:05 GMT-0500 (Central Daylight Time),231026.5,CFD-WF-017-016-HC.jpg,1500,solid,O,m,657,11,1,15013.200000000186,216013.2999999998,7082,ATS,A,6
7,test,1,A,haborder.png,1,z,Wed Mar 12 2025 18:05:05 GMT-0500 (Central Daylight Time),233458.59999999963,CFD-BM-005-010-A.jpg,1600,solid,O,z,816,2,1,17445.299999999814,216013.2999999998,7082,ATS,A,7
8,test,1,A,haborder.png,1,z,Wed Mar 12 2025 18:05:05 GMT-0500 (Central Daylight Time),235807.40000000037,CFD-BF-023-013-A.jpg,1000,solid,O,z,1325,4,1,19794.10000000056,216013.2999999998,7082,ATS,A,8
9,test,1,A,haborder.png,1,m,Wed Mar 12 2025 18:05:05 GMT-0500 (Central Daylight Time),237945.59999999963,CFD-WM-004-005-HC.jpg,1400,solid,O,m,707,7,1,21932.299999999814,216013.2999999998,7082,ATS,A,9
10,test,1,A,haborder.png,1,m,Wed Mar 12 2025 18:05:05 GMT-0500 (Central Daylight Time),240606.5,CFD-WM-006-013-HC.jpg,1700,solid,O,m,944,9,1,24593.200000000186,216013.2999999998,7082,ATS,A,10
11,test,1,A,haborder.png,1,z,Wed Mar 12 2025 18:05:05 GMT-0500 (Central Daylight Time),243305.09999999963,CFD-WM-013-015-A.jpg,1900,solid,O,z,774,8,1,27291.799999999814,216013.2999999998,7082,ATS,A,11
12,test,1,A,haborder.png,1,z,Wed Mar 12 2025 18:05:05 GMT-0500 (Central Daylight Time),246138.59999999963,CFD-WM-013-015-A.jpg,1900,solid,O,z,916,8,1,30125.299999999814,216013.2999999998,7082,ATS,A,12
13,test,1,A,haborder.png,1,m,Wed Mar 12 2025 18:05:05 GMT-0500 (Central Daylight Time),248453.90000000037,CFD-WM-004-005-HC.jpg,1400,solid,O,m,894,7,1,32440.60000000056,216013.2999999998,7082,ATS,A,13
13,test,1,A,haborder.png,0,m,Wed Mar 12 2025 18:05:05 GMT-0500 (Central Daylight Time),251368.90000000037,CFD-BM-017-052-HC.jpg,1700,solid,O,z,1190,1,1,35355.60000000056,216013.2999999998,7082,ATS,A,14
14,test,1,A,haborder.png,1,m,Wed Mar 12 2025 18:05:05 GMT-0500 (Central Daylight Time),253802.09999999963,CFD-WM-006-013-HC.jpg,1700,solid,O,m,707,9,1,37788.799999999814,216013.2999999998,7082,ATS,A,15
14,test,1,A,haborder.png,0,m,Wed Mar 12 2025 18:05:05 GMT-0500 (Central Daylight Time),256767.2000000002,CFD-BM-017-052-HC.jpg,1700,solid,O,z,1237,1,1,40753.90000000037,216013.2999999998,7082,ATS,A,16
15,test,1,A,haborder.png,1,z,Wed Mar 12 2025 18:05:05 GMT-0500 (Central Daylight Time),258817.0,CFD-BF-039-039-A.jpg,1200,solid,O,z,824,6,1,42803.700000000186,216013.2999999998,7082,ATS,A,17
15,test,1,A,haborder.png,0,m,Wed Mar 12 2025 18:05:05 GMT-0500 (Central Daylight Time),261349.7000000002,CFD-BM-029-026-HC.jpg,1500,solid,O,z,1014,3,1,45336.40000000037,216013.2999999998,7082,ATS,A,18
16,test,1,A,haborder.png,1,z,Wed Mar 12 2025 18:05:05 GMT-0500 (Central Daylight Time),263131.2999999998,CFD-WF-019-015-A.jpg,1000,solid,O,z,754,12,1,47118.0,216013.2999999998,7082,ATS,A,19
17,test,1,A,haborder.png,1,z,Wed Mar 12 2025 18:05:05 GMT-0500 (Central Daylight Time),265180.5,CFD-BF-039-039-A.jpg,1200,solid,O,z,831,6,1,49167.200000000186,216013.2999999998,7082,ATS,A,20
18,test,1,A,haborder.png,1,m,Wed Mar 12 2025 18:05:05 GMT-0500 (Central Daylight Time),267448.0999999996,CFD-WF-017-016-HC.jpg,1500,solid,O,m,734,11,1,51434.799999999814,216013.2999999998,7082,ATS,A,21
19,test,1,A,haborder.png,1,z,Wed Mar 12 2025 18:05:05 GMT-0500 (Central Daylight Time),269914.4000000004,CFD-WF-003-014-A.jpg,1600,solid,O,z,834,10,1,53901.10000000056,216013.2999999998,7082,ATS,A,22
20,test,1,A,haborder.png,1,z,Wed Mar 12 2025 18:05:05 GMT-0500 (Central Daylight Time),271852.0999999996,CFD-WF-019-015-A.jpg,1000,solid,O,z,911,12,1,55838.799999999814,216013.2999999998,7082,ATS,A,23
20,test,1,A,haborder.png,0,m,Wed Mar 12 2025 18:05:05 GMT-0500 (Central Daylight Time),274245.4000000004,CFD-BM-029-026-HC.jpg,1500,solid,O,z,870,3,1,58232.10000000056,216013.2999999998,7082,ATS,A,24
1,test,1,B,mfborder.png,1,m,Wed Mar 12 2025 18:05:05 GMT-0500 (Central Daylight Time),299071.4000000004,CFD-BM-010-019-A.jpg,1600,dash,O,m,943,2,1,2582.5,296488.9000000004,7082,ATS,A,1
2,test,1,B,mfborder.png,1,m,Wed Mar 12 2025 18:05:05 GMT-0500 (Central Daylight Time),301186.5999999996,CFD-WM-019-013-A.jpg,1200,dash,O,m,889,6,1,4697.699999999255,296488.9000000004,7082,ATS,A,2
3,test,1,B,mfborder.png,1,z,Wed Mar 12 2025 18:05:05 GMT-0500 (Central Daylight Time),303102.9000000004,CFD-BF-023-013-A.jpg,1000,dash,O,z,883,4,1,6614.0,296488.9000000004,7082,ATS,A,3
4,test,1,B,mfborder.png,1,m,Wed Mar 12 2025 18:05:05 GMT-0500 (Central Daylight Time),305819.9000000004,CFD-WM-013-015-A.jpg,1700,dash,O,m,999,9,1,9331.0,296488.9000000004,7082,ATS,A,4
5,test,1,B,mfborder.png,1,z,Wed Mar 12 2025 18:05:05 GMT-0500 (Central Daylight Time),307601.5999999996,CFD-WF-017-016-HC.jpg,1000,dash,O,z,758,12,1,11112.699999999255,296488.9000000004,7082,ATS,A,5
6,test,1,B,mfborder.png,1,m,Wed Mar 12 2025 18:05:05 GMT-0500 (Central Daylight Time),310618.7999999998,CFD-BM-005-010-A.jpg,2000,dash,O,m,1000,5,1,14129.899999999441,296488.9000000004,7082,ATS,A,6
7,test,1,B,mfborder.png,1,z,Wed Mar 12 2025 18:05:05 GMT-0500 (Central Daylight Time),312366.9000000004,CFD-WF-017-016-HC.jpg,1000,dash,O,z,727,12,1,15878.0,296488.9000000004,7082,ATS,A,7
8,test,1,B,mfborder.png,1,z,Wed Mar 12 2025 18:05:05 GMT-0500 (Central Daylight Time),314732.5,CFD-BF-028-020-HC.jpg,1400,dash,O,z,930,7,1,18243.599999999627,296488.9000000004,7082,ATS,A,8
9,test,1,B,mfborder.png,1,m,Wed Mar 12 2025 18:05:05 GMT-0500 (Central Daylight Time),317198.2000000002,CFD-WM-006-013-HC.jpg,1600,dash,O,m,837,10,1,20709.299999999814,296488.9000000004,7082,ATS,A,9
10,test,1,B,mfborder.png,1,z,Wed Mar 12 2025 18:05:05 GMT-0500 (Central Daylight Time),319631.5999999996,CFD-WF-003-014-A.jpg,1500,dash,O,z,910,11,1,23142.699999999255,296488.9000000004,7082,ATS,A,10
11,test,1,B,mfborder.png,1,m,Wed Mar 12 2025 18:05:05 GMT-0500 (Central Daylight Time),322130.7999999998,CFD-WM-013-015-A.jpg,1700,dash,O,m,780,9,1,25641.89999999944,296488.9000000004,7082,ATS,A,11
12,test,1,B,mfborder.png,1,m,Wed Mar 12 2025 18:05:05 GMT-0500 (Central Daylight Time),324712.2999999998,CFD-BM-010-019-A.jpg,1600,dash,O,m,948,2,1,28223.39999999944,296488.9000000004,7082,ATS,A,12
13,test,1,B,mfborder.png,1,z,Wed Mar 12 2025 18:05:05 GMT-0500 (Central Daylight Time),326877.4000000004,CFD-BF-028-020-HC.jpg,1400,dash,O,z,734,7,1,30388.5,296488.9000000004,7082,ATS,A,13
14,test,1,B,mfborder.png,1,m,Wed Mar 12 2025 18:05:05 GMT-0500 (Central Daylight Time),329361.4000000004,CFD-BM-029-026-HC.jpg,1700,dash,O,m,750,1,1,32872.5,296488.9000000004,7082,ATS,A,14
15,test,1,B,mfborder.png,1,z,Wed Mar 12 2025 18:05:05 GMT-0500 (Central Daylight Time),331093.0,CFD-BF-023-013-A.jpg,1000,dash,O,z,693,4,1,34604.09999999963,296488.9000000004,7082,ATS,A,15
16,test,1,B,mfborder.png,1,m,Wed Mar 12 2025 18:05:05 GMT-0500 (Central Daylight Time),333058.7999999998,CFD-WM-019-013-A.jpg,1200,dash,O,m,747,6,1,36569.89999999944,296488.9000000004,7082,ATS,A,16
17,test,1,B,mfborder.png,1,m,Wed Mar 12 2025 18:05:05 GMT-0500 (Central Daylight Time),336009.5999999996,CFD-BM-005-010-A.jpg,2000,dash,O,m,926,5,1,39520.699999999255,296488.9000000004,7082,ATS,A,17
18,test,1,B,mfborder.png,1,z,Wed Mar 12 2025 18:05:05 GMT-0500 (Central Daylight Time),338074.7000000002,CFD-WF-003-014-A.jpg,1500,dash,O,z,539,11,1,41585.799999999814,296488.9000000004,7082,ATS,A,18
19,test,1,B,mfborder.png,1,z,Wed Mar 12 2025 18:05:05 GMT-0500 (Central Daylight Time),340658.7999999998,CFD-BF-010-005-HC.jpg,1500,dash,O,z,1065,3,1,44169.89999999944,296488.9000000004,7082,ATS,A,19
20,test,1,B,mfborder.png,1,z,Wed Mar 12 2025 18:05:05 GMT-0500 (Central Daylight Time),343124.7999999998,CFD-BF-010-005-HC.jpg,1500,dash,O,z,949,3,1,46635.89999999944,296488.9000000004,7082,ATS,A,20
21,test,1,B,mfborder.png,1,m,Wed Mar 12 2025 18:05:05 GMT-0500 (Central Daylight Time),345355.5999999996,CFD-WM-006-013-HC.jpg,1600,dash,O,m,604,10,1,48866.699999999255,296488.9000000004,7082,ATS,A,21
22,test,1,B,mfborder.png,1,m,Wed Mar 12 2025 18:05:05 GMT-0500 (Central Daylight Time),347660.5,CFD-BM-029-026-HC.jpg,1700,dash,O,m,576,1,1,51171.59999999963,296488.9000000004,7082,ATS,A,22
23,test,1,B,mfborder.png,1,z,Wed Mar 12 2025 18:05:05 GMT-0500 (Central Daylight Time),350521.5,CFD-WF-002-008-HC.jpg,1900,dash,O,z,949,8,1,54032.59999999963,296488.9000000004,7082,ATS,A,23
24,test,1,B,mfborder.png,1,z,Wed Mar 12 2025 18:05:05 GMT-0500 (Central Daylight Time),353104.5999999996,CFD-WF-002-008-HC.jpg,1900,dash,O,z,650,8,1,56615.699999999255,296488.9000000004,7082,ATS,A,24
0,prac,1,C,mfborder.png,0,m,Wed Mar 12 2025 18:05:05 GMT-0500 (Central Daylight Time),404954.7000000002,CFD-BM-005-010-A.jpg,1200,dash,O,None,1514,5,1,3500.0,401454.7000000002,7082,ATS,A,1
1,prac,1,C,mfborder.png,1,m,Wed Mar 12 2025 18:05:05 GMT-0500 (Central Daylight Time),408920.4000000004,CFD-WM-013-015-A.jpg,1700,solid,O,m,1483,6,1,7465.700000000186,401454.7000000002,7082,ATS,A,2
2,prac,1,C,mfborder.png,1,z,Wed Mar 12 2025 18:05:05 GMT-0500 (Central Daylight Time),412517.9000000004,CFD-WF-017-016-HC.jpg,1600,dash,O,z,1202,1,1,11063.200000000186,401454.7000000002,7082,ATS,A,3
3,prac,1,C,haborder.png,1,z,Wed Mar 12 2025 18:05:05 GMT-0500 (Central Daylight Time),416267.5,CFD-BF-023-013-A.jpg,1900,dash,O,z,1064,7,1,14812.799999999814,401454.7000000002,7082,ATS,A,4
3,prac,1,C,haborder.png,0,m,Wed Mar 12 2025 18:05:05 GMT-0500 (Central Daylight Time),419565.0,CFD-WM-004-005-HC.jpg,1000,dash,O,None,1516,11,1,18110.299999999814,401454.7000000002,7082,ATS,A,5
4,prac,1,C,haborder.png,1,m,Wed Mar 12 2025 18:05:05 GMT-0500 (Central Daylight Time),422582.2000000002,CFD-WM-004-005-HC.jpg,1400,solid,O,m,827,12,1,21127.5,401454.7000000002,7082,ATS,A,6
4,prac,1,C,mfborder.png,0,m,Wed Mar 12 2025 18:05:05 GMT-0500 (Central Daylight Time),426864.2000000002,CFD-BM-017-052-HC.jpg,2000,solid,O,None,1501,4,1,25409.5,401454.7000000002,7082,ATS,A,7
5,prac,1,C,haborder.png,1,m,Wed Mar 12 2025 18:05:05 GMT-0500 (Central Daylight Time),430378.2999999998,CFD-BM-029-026-HC.jpg,1500,solid,O,m,1215,10,1,28923.599999999627,401454.7000000002,7082,ATS,A,8
6,prac,1,C,haborder.png,1,z,Wed Mar 12 2025 18:05:05 GMT-0500 (Central Daylight Time),434012.9000000004,CFD-BF-039-039-A.jpg,1700,solid,O,z,1150,8,1,32558.200000000186,401454.7000000002,7082,ATS,A,9
6,prac,1,C,mfborder.png,0,z,Wed Mar 12 2025 18:05:05 GMT-0500 (Central Daylight Time),437811.0,CFD-WF-019-015-A.jpg,1500,solid,O,None,1513,2,1,36356.299999999814,401454.7000000002,7082,ATS,A,10
6,prac,1,C,mfborder.png,0,z,Wed Mar 12 2025 18:05:05 GMT-0500 (Central Daylight Time),441108.0999999996,CFD-BF-028-020-HC.jpg,1000,dash,O,None,1514,3,1,39653.39999999944,401454.7000000002,7082,ATS,A,11
7,prac,1,C,haborder.png,1,z,Wed Mar 12 2025 18:05:05 GMT-0500 (Central Daylight Time),444374.2999999998,CFD-WF-003-014-A.jpg,1600,dash,O,z,869,9,1,42919.59999999963,401454.7000000002,7082,ATS,A,12
0,prac,2,C,mfborder.png,0,m,Wed Mar 12 2025 18:05:05 GMT-0500 (Central Daylight Time),461853.0,CFD-WM-013-015-A.jpg,1700,solid,O,None,1517,6,1,60398.299999999814,401454.7000000002,7082,ATS,A,1
1,prac,2,C,haborder.png,1,z,Wed Mar 12 2025 18:05:05 GMT-0500 (Central Daylight Time),465652.5,CFD-BF-023-013-A.jpg,1900,dash,O,z,1108,7,1,64197.799999999814,401454.7000000002,7082,ATS,A,2
1,prac,2,C,mfborder.png,0,z,Wed Mar 12 2025 18:05:05 GMT-0500 (Central Daylight Time),469468.0,CFD-WF-019-015-A.jpg,1500,solid,O,None,1515,2,1,68013.29999999981,401454.7000000002,7082,ATS,A,3
1,prac,2,C,mfborder.png,0,m,Wed Mar 12 2025 18:05:05 GMT-0500 (Central Daylight Time),472965.5999999996,CFD-BM-005-010-A.jpg,1200,dash,O,None,1515,5,1,71510.89999999944,401454.7000000002,7082,ATS,A,4
2,prac,2,C,haborder.png,1,m,Wed Mar 12 2025 18:05:05 GMT-0500 (Central Daylight Time),475715.0,CFD-WM-004-005-HC.jpg,1000,dash,O,m,955,11,1,74260.29999999981,401454.7000000002,7082,ATS,A,5
2,prac,2,C,mfborder.png,0,z,Wed Mar 12 2025 18:05:05 GMT-0500 (Central Daylight Time),479611.7000000002,CFD-WF-017-016-HC.jpg,1600,dash,O,None,1514,1,1,78157.0,401454.7000000002,7082,ATS,A,6
2,prac,2,C,mfborder.png,0,m,Wed Mar 12 2025 18:05:05 GMT-0500 (Central Daylight Time),483913.0,CFD-BM-017-052-HC.jpg,2000,solid,O,None,1517,4,1,82458.29999999981,401454.7000000002,7082,ATS,A,7
3,prac,2,C,haborder.png,1,z,Wed Mar 12 2025 18:05:05 GMT-0500 (Central Daylight Time),487644.4000000004,CFD-BF-039-039-A.jpg,1700,solid,O,z,1235,8,1,86189.70000000019,401454.7000000002,7082,ATS,A,8
4,prac,2,C,mfborder.png,1,z,Wed Mar 12 2025 18:05:05 GMT-0500 (Central Daylight Time),490626.0,CFD-BF-028-020-HC.jpg,1000,dash,O,z,1198,3,1,89171.29999999981,401454.7000000002,7082,ATS,A,9
5,prac,2,C,haborder.png,1,m,Wed Mar 12 2025 18:05:05 GMT-0500 (Central Daylight Time),493660.2000000002,CFD-WM-004-005-HC.jpg,1400,solid,O,m,848,12,1,92205.5,401454.7000000002,7082,ATS,A,10
6,prac,2,C,haborder.png,1,z,Wed Mar 12 2025 18:05:05 GMT-0500 (Central Daylight Time),497157.5,CFD-WF-003-014-A.jpg,1600,dash,O,z,1109,9,1,95702.79999999981,401454.7000000002,7082,ATS,A,11
6,prac,2,C,haborder.png,0,m,Wed Mar 12 2025 18:05:05 GMT-0500 (Central Daylight Time),500607.2000000002,CFD-BM-029-026-HC.jpg,1500,solid,O,z,1149,10,1,99152.5,401454.7000000002,7082,ATS,A,12
0,test,1,C,haborder.png,0,z,Wed Mar 12 2025 18:05:05 GMT-0500 (Central Daylight Time),530148.0,CFD-BM-005-010-A.jpg,1900,solid,O,None,1516,8,1,3432.0,526716.0,7082,ATS,A,1
1,test,1,C,haborder.png,1,z,Wed Mar 12 2025 18:05:05 GMT-0500 (Central Daylight Time),533196.5999999996,CFD-BM-005-010-A.jpg,1900,solid,O,z,1116,8,1,6480.5999999996275,526716.0,7082,ATS,A,2
2,test,1,C,haborder.png,1,z,Wed Mar 12 2025 18:05:05 GMT-0500 (Central Daylight Time),535813.2999999998,CFD-BM-010-019-A.jpg,1700,solid,O,z,887,9,1,9097.299999999814,526716.0,7082,ATS,A,3
2,test,1,C,mfborder.png,0,m,Wed Mar 12 2025 18:05:05 GMT-0500 (Central Daylight Time),538530.4000000004,CFD-BM-029-026-HC.jpg,1200,dash,O,None,1501,6,1,11814.400000000373,526716.0,7082,ATS,A,4
2,test,1,C,mfborder.png,0,m,Wed Mar 12 2025 18:05:05 GMT-0500 (Central Daylight Time),541060.9000000004,CFD-WM-006-013-HC.jpg,1000,dash,O,None,1515,4,1,14344.900000000373,526716.0,7082,ATS,A,5
3,test,1,C,haborder.png,1,z,Wed Mar 12 2025 18:05:05 GMT-0500 (Central Daylight Time),543909.7000000002,CFD-WM-013-015-A.jpg,1400,solid,O,z,1421,7,1,17193.700000000186,526716.0,7082,ATS,A,6
4,test,1,C,haborder.png,1,m,Wed Mar 12 2025 18:05:05 GMT-0500 (Central Daylight Time),545893.4000000004,CFD-WF-017-016-HC.jpg,1000,solid,O,m,966,12,1,19177.400000000373,526716.0,7082,ATS,A,7
4,test,1,C,mfborder.png,0,z,Wed Mar 12 2025 18:05:05 GMT-0500 (Central Daylight Time),548925.2000000002,CFD-WF-003-014-A.jpg,1500,dash,O,None,1516,3,1,22209.200000000186,526716.0,7082,ATS,A,8
4,test,1,C,mfborder.png,0,m,Wed Mar 12 2025 18:05:05 GMT-0500 (Central Daylight Time),552442.0,CFD-WM-019-013-A.jpg,2000,dash,O,None,1501,5,1,25726.0,526716.0,7082,ATS,A,9
5,test,1,C,haborder.png,1,m,Wed Mar 12 2025 18:05:05 GMT-0500 (Central Daylight Time),555522.4000000004,CFD-BF-028-020-HC.jpg,1600,solid,O,m,1448,10,1,28806.400000000373,526716.0,7082,ATS,A,10
5,test,1,C,mfborder.png,0,z,Wed Mar 12 2025 18:05:05 GMT-0500 (Central Daylight Time),558655.2999999998,CFD-BF-023-013-A.jpg,1600,dash,O,None,1515,2,1,31939.299999999814,526716.0,7082,ATS,A,11
6,test,1,C,mfborder.png,1,z,Wed Mar 12 2025 18:05:05 GMT-0500 (Central Daylight Time),561436.5999999996,CFD-BF-023-013-A.jpg,1600,dash,O,z,1163,2,1,34720.59999999963,526716.0,7082,ATS,A,12
6,test,1,C,mfborder.png,0,m,Wed Mar 12 2025 18:05:05 GMT-0500 (Central Daylight Time),563970.0999999996,CFD-WM-006-013-HC.jpg,1000,dash,O,None,1515,4,1,37254.09999999963,526716.0,7082,ATS,A,13
7,test,1,C,mfborder.png,1,z,Wed Mar 12 2025 18:05:05 GMT-0500 (Central Daylight Time),566735.2999999998,CFD-BF-010-005-HC.jpg,1700,dash,O,z,1034,1,1,40019.299999999814,526716.0,7082,ATS,A,14
8,test,1,C,mfborder.png,1,z,Wed Mar 12 2025 18:05:05 GMT-0500 (Central Daylight Time),569301.7000000002,CFD-BF-010-005-HC.jpg,1700,dash,O,z,836,1,1,42585.700000000186,526716.0,7082,ATS,A,15
9,test,1,C,haborder.png,1,m,Wed Mar 12 2025 18:05:05 GMT-0500 (Central Daylight Time),571250.5999999996,CFD-WF-017-016-HC.jpg,1000,solid,O,m,923,12,1,44534.59999999963,526716.0,7082,ATS,A,16
10,test,1,C,haborder.png,1,z,Wed Mar 12 2025 18:05:05 GMT-0500 (Central Daylight Time),573733.4000000004,CFD-WM-013-015-A.jpg,1400,solid,O,z,1061,7,1,47017.40000000037,526716.0,7082,ATS,A,17
11,test,1,C,haborder.png,1,z,Wed Mar 12 2025 18:05:05 GMT-0500 (Central Daylight Time),576615.7999999998,CFD-BM-010-019-A.jpg,1700,solid,O,z,1159,9,1,49899.799999999814,526716.0,7082,ATS,A,18
12,test,1,C,mfborder.png,1,z,Wed Mar 12 2025 18:05:05 GMT-0500 (Central Daylight Time),579082.0,CFD-WF-003-014-A.jpg,1500,dash,O,z,934,3,1,52366.0,526716.0,7082,ATS,A,19
13,test,1,C,haborder.png,1,m,Wed Mar 12 2025 18:05:05 GMT-0500 (Central Daylight Time),581598.0999999996,CFD-WF-002-008-HC.jpg,1500,solid,O,m,987,11,1,54882.09999999963,526716.0,7082,ATS,A,20
14,test,1,C,haborder.png,1,m,Wed Mar 12 2025 18:05:05 GMT-0500 (Central Daylight Time),584098.4000000004,CFD-BF-028-020-HC.jpg,1600,solid,O,m,884,10,1,57382.40000000037,526716.0,7082,ATS,A,21
15,test,1,C,haborder.png,1,m,Wed Mar 12 2025 18:05:05 GMT-0500 (Central Daylight Time),586530.5,CFD-WF-002-008-HC.jpg,1500,solid,O,m,916,11,1,59814.5,526716.0,7082,ATS,A,22
15,test,1,C,mfborder.png,0,m,Wed Mar 12 2025 18:05:05 GMT-0500 (Central Daylight Time),589595.7000000002,CFD-WM-019-013-A.jpg,2000,dash,O,z,1034,5,1,62879.700000000186,526716.0,7082,ATS,A,23
16,test,1,C,mfborder.png,1,m,Wed Mar 12 2025 18:05:05 GMT-0500 (Central Daylight Time),592078.7999999998,CFD-BM-029-026-HC.jpg,1200,dash,O,m,1253,6,1,65362.799999999814,526716.0,7082,ATS,A,24
1,test,2,C,haborder.png,1,z,Wed Mar 12 2025 18:05:05 GMT-0500 (Central Daylight Time),611354.9000000004,CFD-BF-023-013-A.jpg,1400,solid,O,z,906,7,1,2333.4000000003725,609021.5,7082,ATS,A,1
2,test,2,C,haborder.png,1,z,Wed Mar 12 2025 18:05:05 GMT-0500 (Central Daylight Time),614204.5,CFD-WF-003-014-A.jpg,1700,solid,O,z,1122,9,1,5183.0,609021.5,7082,ATS,A,2
2,test,2,C,mfborder.png,0,m,Wed Mar 12 2025 18:05:05 GMT-0500 (Central Daylight Time),617745.0,CFD-BM-005-010-A.jpg,2000,dash,O,None,1516,5,1,8723.5,609021.5,7082,ATS,A,3
3,test,2,C,mfborder.png,1,m,Wed Mar 12 2025 18:05:05 GMT-0500 (Central Daylight Time),619785.4000000004,CFD-WM-013-015-A.jpg,1200,dash,O,m,825,6,1,10763.900000000373,609021.5,7082,ATS,A,4
4,test,2,C,haborder.png,1,z,Wed Mar 12 2025 18:05:05 GMT-0500 (Central Daylight Time),622002.0999999996,CFD-BF-023-013-A.jpg,1400,solid,O,z,782,7,1,12980.599999999627,609021.5,7082,ATS,A,5
5,test,2,C,haborder.png,1,m,Wed Mar 12 2025 18:05:05 GMT-0500 (Central Daylight Time),624017.9000000004,CFD-WM-004-005-HC.jpg,1000,solid,O,m,983,12,1,14996.400000000373,609021.5,7082,ATS,A,6
6,test,2,C,haborder.png,1,z,Wed Mar 12 2025 18:05:05 GMT-0500 (Central Daylight Time),626800.0999999996,CFD-WF-003-014-A.jpg,1700,solid,O,z,1049,9,1,17778.599999999627,609021.5,7082,ATS,A,7
7,test,2,C,haborder.png,1,z,Wed Mar 12 2025 18:05:05 GMT-0500 (Central Daylight Time),629616.2999999998,CFD-BF-039-039-A.jpg,1900,solid,O,z,885,8,1,20594.799999999814,609021.5,7082,ATS,A,8
8,test,2,C,mfborder.png,1,z,Wed Mar 12 2025 18:05:05 GMT-0500 (Central Daylight Time),632630.9000000004,CFD-BF-028-020-HC.jpg,1500,dash,O,z,1494,3,1,23609.400000000373,609021.5,7082,ATS,A,9
9,test,2,C,mfborder.png,1,z,Wed Mar 12 2025 18:05:05 GMT-0500 (Central Daylight Time),634881.0,CFD-BF-028-020-HC.jpg,1500,dash,O,z,717,3,1,25859.5,609021.5,7082,ATS,A,10
10,test,2,C,mfborder.png,1,z,Wed Mar 12 2025 18:05:05 GMT-0500 (Central Daylight Time),637312.7999999998,CFD-WF-019-015-A.jpg,1600,dash,O,z,800,2,1,28291.299999999814,609021.5,7082,ATS,A,11
11,test,2,C,haborder.png,1,m,Wed Mar 12 2025 18:05:05 GMT-0500 (Central Daylight Time),640012.4000000004,CFD-WM-004-005-HC.jpg,1500,solid,O,m,1172,11,1,30990.900000000373,609021.5,7082,ATS,A,12
12,test,2,C,mfborder.png,1,z,Wed Mar 12 2025 18:05:05 GMT-0500 (Central Daylight Time),642427.2000000002,CFD-WF-019-015-A.jpg,1600,dash,O,z,796,2,1,33405.700000000186,609021.5,7082,ATS,A,13
13,test,2,C,haborder.png,1,z,Wed Mar 12 2025 18:05:05 GMT-0500 (Central Daylight Time),645310.9000000004,CFD-BF-039-039-A.jpg,1900,solid,O,z,952,8,1,36289.40000000037,609021.5,7082,ATS,A,14
14,test,2,C,haborder.png,1,m,Wed Mar 12 2025 18:05:05 GMT-0500 (Central Daylight Time),647627.7000000002,CFD-WM-004-005-HC.jpg,1500,solid,O,m,798,11,1,38606.200000000186,609021.5,7082,ATS,A,15
15,test,2,C,mfborder.png,1,m,Wed Mar 12 2025 18:05:05 GMT-0500 (Central Daylight Time),650293.0999999996,CFD-WM-013-015-A.jpg,1200,dash,O,m,1446,6,1,41271.59999999963,609021.5,7082,ATS,A,16
16,test,2,C,haborder.png,1,m,Wed Mar 12 2025 18:05:05 GMT-0500 (Central Daylight Time),652592.5,CFD-WM-004-005-HC.jpg,1000,solid,O,m,1277,12,1,43571.0,609021.5,7082,ATS,A,17
16,test,2,C,mfborder.png,0,z,Wed Mar 12 2025 18:05:05 GMT-0500 (Central Daylight Time),655825.7999999998,CFD-WF-017-016-HC.jpg,1700,dash,O,None,1517,1,1,46804.299999999814,609021.5,7082,ATS,A,18
17,test,2,C,mfborder.png,1,z,Wed Mar 12 2025 18:05:05 GMT-0500 (Central Daylight Time),658241.2000000002,CFD-WF-017-016-HC.jpg,1700,dash,O,z,694,1,1,49219.700000000186,609021.5,7082,ATS,A,19
18,test,2,C,mfborder.png,1,m,Wed Mar 12 2025 18:05:05 GMT-0500 (Central Daylight Time),660122.5,CFD-BM-017-052-HC.jpg,1000,dash,O,m,864,4,1,51101.0,609021.5,7082,ATS,A,20
19,test,2,C,mfborder.png,1,m,Wed Mar 12 2025 18:05:05 GMT-0500 (Central Daylight Time),661739.9000000004,CFD-BM-017-052-HC.jpg,1000,dash,O,m,590,4,1,52718.40000000037,609021.5,7082,ATS,A,21
20,test,2,C,haborder.png,1,m,Wed Mar 12 2025 18:05:05 GMT-0500 (Central Daylight Time),664787.7999999998,CFD-BM-029-026-HC.jpg,1600,solid,O,m,1423,10,1,55766.299999999814,609021.5,7082,ATS,A,22
20,test,2,C,mfborder.png,0,m,Wed Mar 12 2025 18:05:05 GMT-0500 (Central Daylight Time),668321.5,CFD-BM-005-010-A.jpg,2000,dash,O,None,1516,5,1,59300.0,609021.5,7082,ATS,A,23
20,test,2,C,haborder.png,0,m,Wed Mar 12 2025 18:05:05 GMT-0500 (Central Daylight Time),671452.2999999998,CFD-BM-029-026-HC.jpg,1600,solid,O,None,1509,10,1,62430.799999999814,609021.5,7082,ATS,A,24
1,test,3,C,mfborder.png,1,m,Wed Mar 12 2025 18:05:05 GMT-0500 (Central Daylight Time),677001.0,CFD-WM-006-013-HC.jpg,1000,dash,O,m,1259,4,1,2300.7999999998137,674700.2000000002,7082,ATS,A,1
2,test,3,C,mfborder.png,1,z,Wed Mar 12 2025 18:05:05 GMT-0500 (Central Daylight Time),679316.9000000004,CFD-WF-003-014-A.jpg,1500,dash,O,z,799,3,1,4616.700000000186,674700.2000000002,7082,ATS,A,2
3,test,3,C,mfborder.png,1,z,Wed Mar 12 2025 18:05:05 GMT-0500 (Central Daylight Time),681916.5,CFD-BF-010-005-HC.jpg,1700,dash,O,z,883,1,1,7216.299999999814,674700.2000000002,7082,ATS,A,3
4,test,3,C,haborder.png,1,m,Wed Mar 12 2025 18:05:05 GMT-0500 (Central Daylight Time),683765.5,CFD-WF-017-016-HC.jpg,1000,solid,O,m,821,12,1,9065.299999999814,674700.2000000002,7082,ATS,A,4
5,test,3,C,mfborder.png,1,m,Wed Mar 12 2025 18:05:05 GMT-0500 (Central Daylight Time),686381.0999999996,CFD-BM-029-026-HC.jpg,1200,dash,O,m,1384,6,1,11680.899999999441,674700.2000000002,7082,ATS,A,5
6,test,3,C,mfborder.png,1,m,Wed Mar 12 2025 18:05:05 GMT-0500 (Central Daylight Time),688330.0,CFD-WM-006-013-HC.jpg,1000,dash,O,m,925,4,1,13629.799999999814,674700.2000000002,7082,ATS,A,6
7,test,3,C,mfborder.png,1,z,Wed Mar 12 2025 18:05:05 GMT-0500 (Central Daylight Time),691129.5999999996,CFD-BF-023-013-A.jpg,1600,dash,O,z,1174,2,1,16429.39999999944,674700.2000000002,7082,ATS,A,7
8,test,3,C,haborder.png,1,z,Wed Mar 12 2025 18:05:05 GMT-0500 (Central Daylight Time),693728.5,CFD-WM-013-015-A.jpg,1400,solid,O,z,1166,7,1,19028.299999999814,674700.2000000002,7082,ATS,A,8
9,test,3,C,mfborder.png,1,z,Wed Mar 12 2025 18:05:05 GMT-0500 (Central Daylight Time),696030.2999999998,CFD-WF-003-014-A.jpg,1500,dash,O,z,784,3,1,21330.099999999627,674700.2000000002,7082,ATS,A,9
10,test,3,C,mfborder.png,1,m,Wed Mar 12 2025 18:05:05 GMT-0500 (Central Daylight Time),699183.7000000002,CFD-WM-019-013-A.jpg,2000,dash,O,m,1125,5,1,24483.5,674700.2000000002,7082,ATS,A,10
11,test,3,C,mfborder.png,1,m,Wed Mar 12 2025 18:05:05 GMT-0500 (Central Daylight Time),701193.7999999998,CFD-BM-029-026-HC.jpg,1200,dash,O,m,786,6,1,26493.599999999627,674700.2000000002,7082,ATS,A,11
12,test,3,C,mfborder.png,1,m,Wed Mar 12 2025 18:05:05 GMT-0500 (Central Daylight Time),703991.4000000004,CFD-WM-019-013-A.jpg,2000,dash,O,m,766,5,1,29291.200000000186,674700.2000000002,7082,ATS,A,12
13,test,3,C,haborder.png,1,m,Wed Mar 12 2025 18:05:05 GMT-0500 (Central Daylight Time),707058.9000000004,CFD-BF-028-020-HC.jpg,1600,solid,O,m,1440,10,1,32358.700000000186,674700.2000000002,7082,ATS,A,13
14,test,3,C,haborder.png,1,z,Wed Mar 12 2025 18:05:05 GMT-0500 (Central Daylight Time),710005.9000000004,CFD-BM-005-010-A.jpg,1900,solid,O,z,1030,8,1,35305.700000000186,674700.2000000002,7082,ATS,A,14
14,test,3,C,haborder.png,0,z,Wed Mar 12 2025 18:05:05 GMT-0500 (Central Daylight Time),713438.7999999998,CFD-BM-005-010-A.jpg,1900,solid,O,None,1516,8,1,38738.59999999963,674700.2000000002,7082,ATS,A,15
14,test,3,C,haborder.png,0,m,Wed Mar 12 2025 18:05:05 GMT-0500 (Central Daylight Time),716571.5,CFD-BF-028-020-HC.jpg,1600,solid,O,None,1515,10,1,41871.299999999814,674700.2000000002,7082,ATS,A,16
15,test,3,C,haborder.png,1,z,Wed Mar 12 2025 18:05:05 GMT-0500 (Central Daylight Time),719189.7999999998,CFD-BM-010-019-A.jpg,1700,solid,O,z,901,9,1,44489.59999999963,674700.2000000002,7082,ATS,A,17
15,test,3,C,mfborder.png,0,z,Wed Mar 12 2025 18:05:05 GMT-0500 (Central Daylight Time),722420.2999999998,CFD-BF-010-005-HC.jpg,1700,dash,O,None,1515,1,1,47720.09999999963,674700.2000000002,7082,ATS,A,18
16,test,3,C,haborder.png,1,m,Wed Mar 12 2025 18:05:05 GMT-0500 (Central Daylight Time),724752.0,CFD-WF-002-008-HC.jpg,1500,solid,O,m,802,11,1,50051.799999999814,674700.2000000002,7082,ATS,A,19
17,test,3,C,haborder.png,1,z,Wed Mar 12 2025 18:05:05 GMT-0500 (Central Daylight Time),727102.0999999996,CFD-WM-013-015-A.jpg,1400,solid,O,z,918,7,1,52401.89999999944,674700.2000000002,7082,ATS,A,20
18,test,3,C,haborder.png,1,m,Wed Mar 12 2025 18:05:05 GMT-0500 (Central Daylight Time),729033.0999999996,CFD-WF-017-016-HC.jpg,1000,solid,O,m,906,12,1,54332.89999999944,674700.2000000002,7082,ATS,A,21
19,test,3,C,haborder.png,1,z,Wed Mar 12 2025 18:05:05 GMT-0500 (Central Daylight Time),731750.0,CFD-BM-010-019-A.jpg,1700,solid,O,z,986,9,1,57049.799999999814,674700.2000000002,7082,ATS,A,22
19,test,3,C,mfborder.png,0,z,Wed Mar 12 2025 18:05:05 GMT-0500 (Central Daylight Time),734881.7000000002,CFD-BF-023-013-A.jpg,1600,dash,O,None,1515,2,1,60181.5,674700.2000000002,7082,ATS,A,23
20,test,3,C,haborder.png,1,m,Wed Mar 12 2025 18:05:05 GMT-0500 (Central Daylight Time),737165.2999999998,CFD-WF-002-008-HC.jpg,1500,solid,O,m,754,11,1,62465.09999999963,674700.2000000002,7082,ATS,A,24
0,test,4,C,mfborder.png,0,m,Wed Mar 12 2025 18:05:05 GMT-0500 (Central Daylight Time),744632.9000000004,CFD-WM-013-015-A.jpg,1200,dash,O,None,1519,6,1,2736.100000000559,741896.7999999998,7082,ATS,A,1
0,test,4,C,haborder.png,0,z,Wed Mar 12 2025 18:05:05 GMT-0500 (Central Daylight Time),748061.7000000002,CFD-BF-039-039-A.jpg,1900,solid,O,None,1517,8,1,6164.9000000003725,741896.7999999998,7082,ATS,A,2
1,test,4,C,mfborder.png,1,m,Wed Mar 12 2025 18:05:05 GMT-0500 (Central Daylight Time),750577.2000000002,CFD-BM-017-052-HC.jpg,1000,dash,O,m,1492,4,1,8680.400000000373,741896.7999999998,7082,ATS,A,3
1,test,4,C,haborder.png,0,m,Wed Mar 12 2025 18:05:05 GMT-0500 (Central Daylight Time),753492.5,CFD-BM-029-026-HC.jpg,1600,solid,O,z,1298,10,1,11595.700000000186,741896.7999999998,7082,ATS,A,4
2,test,4,C,haborder.png,1,z,Wed Mar 12 2025 18:05:05 GMT-0500 (Central Daylight Time),755758.0,CFD-BF-023-013-A.jpg,1400,solid,O,z,836,7,1,13861.200000000186,741896.7999999998,7082,ATS,A,5
3,test,4,C,haborder.png,1,z,Wed Mar 12 2025 18:05:05 GMT-0500 (Central Daylight Time),758342.2999999998,CFD-WF-003-014-A.jpg,1700,solid,O,z,854,9,1,16445.5,741896.7999999998,7082,ATS,A,6
4,test,4,C,haborder.png,1,z,Wed Mar 12 2025 18:05:05 GMT-0500 (Central Daylight Time),761173.2000000002,CFD-BF-039-039-A.jpg,1900,solid,O,z,902,8,1,19276.400000000373,741896.7999999998,7082,ATS,A,7
5,test,4,C,haborder.png,1,m,Wed Mar 12 2025 18:05:05 GMT-0500 (Central Daylight Time),764140.9000000004,CFD-WM-004-005-HC.jpg,1500,solid,O,m,1449,11,1,22244.10000000056,741896.7999999998,7082,ATS,A,8
6,test,4,C,haborder.png,1,m,Wed Mar 12 2025 18:05:05 GMT-0500 (Central Daylight Time),765755.2000000002,CFD-WM-004-005-HC.jpg,1000,solid,O,m,590,12,1,23858.400000000373,741896.7999999998,7082,ATS,A,9
7,test,4,C,mfborder.png,1,z,Wed Mar 12 2025 18:05:05 GMT-0500 (Central Daylight Time),768656.2999999998,CFD-BF-028-020-HC.jpg,1500,dash,O,z,1369,3,1,26759.5,741896.7999999998,7082,ATS,A,10
8,test,4,C,mfborder.png,1,m,Wed Mar 12 2025 18:05:05 GMT-0500 (Central Daylight Time),771337.4000000004,CFD-WM-013-015-A.jpg,1200,dash,O,m,1449,6,1,29440.60000000056,741896.7999999998,7082,ATS,A,11
9,test,4,C,mfborder.png,1,z,Wed Mar 12 2025 18:05:05 GMT-0500 (Central Daylight Time),773754.2999999998,CFD-WF-019-015-A.jpg,1600,dash,O,z,785,2,1,31857.5,741896.7999999998,7082,ATS,A,12
10,test,4,C,haborder.png,1,m,Wed Mar 12 2025 18:05:05 GMT-0500 (Central Daylight Time),776154.9000000004,CFD-WM-004-005-HC.jpg,1500,solid,O,m,867,11,1,34258.10000000056,741896.7999999998,7082,ATS,A,13
11,test,4,C,mfborder.png,1,z,Wed Mar 12 2025 18:05:05 GMT-0500 (Central Daylight Time),779300.2999999998,CFD-WF-017-016-HC.jpg,1700,dash,O,z,1419,1,1,37403.5,741896.7999999998,7082,ATS,A,14
12,test,4,C,haborder.png,1,m,Wed Mar 12 2025 18:05:05 GMT-0500 (Central Daylight Time),781101.2000000002,CFD-WM-004-005-HC.jpg,1000,solid,O,m,771,12,1,39204.40000000037,741896.7999999998,7082,ATS,A,15
12,test,4,C,mfborder.png,0,m,Wed Mar 12 2025 18:05:05 GMT-0500 (Central Daylight Time),784633.7000000002,CFD-BM-005-010-A.jpg,2000,dash,O,None,1517,5,1,42736.90000000037,741896.7999999998,7082,ATS,A,16
13,test,4,C,haborder.png,1,m,Wed Mar 12 2025 18:05:05 GMT-0500 (Central Daylight Time),787081.7000000002,CFD-BM-029-026-HC.jpg,1600,solid,O,m,824,10,1,45184.90000000037,741896.7999999998,7082,ATS,A,17
14,test,4,C,mfborder.png,1,z,Wed Mar 12 2025 18:05:05 GMT-0500 (Central Daylight Time),789631.2000000002,CFD-WF-019-015-A.jpg,1600,dash,O,z,915,2,1,47734.40000000037,741896.7999999998,7082,ATS,A,18
15,test,4,C,haborder.png,1,z,Wed Mar 12 2025 18:05:05 GMT-0500 (Central Daylight Time),792796.7999999998,CFD-WF-003-014-A.jpg,1700,solid,O,z,1433,9,1,50900.0,741896.7999999998,7082,ATS,A,19
16,test,4,C,mfborder.png,1,z,Wed Mar 12 2025 18:05:05 GMT-0500 (Central Daylight Time),795963.4000000004,CFD-WF-017-016-HC.jpg,1700,dash,O,z,1448,1,1,54066.60000000056,741896.7999999998,7082,ATS,A,20
17,test,4,C,mfborder.png,1,m,Wed Mar 12 2025 18:05:05 GMT-0500 (Central Daylight Time),799329.2999999998,CFD-BM-005-010-A.jpg,2000,dash,O,m,1333,5,1,57432.5,741896.7999999998,7082,ATS,A,21
18,test,4,C,mfborder.png,1,m,Wed Mar 12 2025 18:05:05 GMT-0500 (Central Daylight Time),801126.7999999998,CFD-BM-017-052-HC.jpg,1000,dash,O,m,777,4,1,59230.0,741896.7999999998,7082,ATS,A,22
19,test,4,C,mfborder.png,1,z,Wed Mar 12 2025 18:05:05 GMT-0500 (Central Daylight Time),803425.2999999998,CFD-BF-028-020-HC.jpg,1500,dash,O,z,779,3,1,61528.5,741896.7999999998,7082,ATS,A,23
19,test,4,C,haborder.png,0,z,Wed Mar 12 2025 18:05:05 GMT-0500 (Central Daylight Time),806348.2999999998,CFD-BF-023-013-A.jpg,1400,solid,O,None,1501,7,1,64451.5,741896.7999999998,7082,ATS,A,24
