acc_sum,block,block_c,condition,correct,correct_response,datetime,endtime,flanker,jitter,project,response,response_test_buffer_response,response_test_target_response,response_time,response_time_test_buffer_response,response_time_test_target_response,row_sel,session_number,start_end,starttime,subject_id,target,task,task_vers,time_test_buffer,time_test_buffer_response,time_test_constants,time_test_flanker,time_test_jitter,time_test_logger,time_test_target,time_test_target_response,time_test_variables,trial
0,prac,1,con,0,m,Fri Feb 14 2025 12:26:16 GMT-0600 (Central Standard Time),478509.6000000015,gold,800,I,z,,,942,,,13,1,3044.5,475465.1000000015,9999,gold,NF,C,,,,,,,,,,1
0,prac,1,inc,0,z,Fri Feb 14 2025 12:26:16 GMT-0600 (Central Standard Time),481492.19999999553,cobalt,1100,I,m,,,516,,,4,1,2977.0999999940395,478515.1000000015,9999,raisin,NF,C,,,,,,,,,,2
0,prac,1,con,0,z,Fri Feb 14 2025 12:26:16 GMT-0600 (Central Standard Time),484490.6000000015,orange,1000,I,m,,,686,,,3,1,2994.10000000149,481496.5,9999,orange,NF,C,,,,,,,,,,3
0,prac,1,con,0,z,Fri Feb 14 2025 12:26:16 GMT-0600 (Central Standard Time),487124.8999999985,lime,800,I,m,,,519,,,5,1,2629.5,484495.3999999985,9999,lime,NF,C,,,,,,,,,,4
0,prac,1,inc,0,z,Fri Feb 14 2025 12:26:16 GMT-0600 (Central Standard Time),489789.299999997,iron,900,I,m,,,450,,,6,1,2659.89999999851,487129.3999999985,9999,pear,NF,C,,,,,,,,,,5
1,prac,1,con,1,m,Fri Feb 14 2025 12:26:16 GMT-0600 (Central Standard Time),492471.8999999985,bronze,800,I,m,,,566,,,9,1,2677.89999999851,489794.0,9999,bronze,NF,C,,,,,,,,,,6
1,prac,1,con,0,m,Fri Feb 14 2025 12:26:16 GMT-0600 (Central Standard Time),495287.3999999985,silver,1000,I,z,,,515,,,11,1,2811.0,492476.3999999985,9999,silver,NF,C,,,,,,,,,,7
1,prac,1,con,0,z,Fri Feb 14 2025 12:26:16 GMT-0600 (Central Standard Time),498086.6000000015,kiwi,1000,I,m,,,491,,,7,1,2794.8000000044703,495291.799999997,9999,kiwi,NF,C,,,,,,,,,,8
1,prac,1,con,0,z,Fri Feb 14 2025 12:26:16 GMT-0600 (Central Standard Time),500885.6000000015,banana,800,I,m,,,684,,,1,1,2794.8000000044703,498090.799999997,9999,banana,NF,C,,,,,,,,,,9
1,prac,1,inc,0,m,Fri Feb 14 2025 12:26:16 GMT-0600 (Central Standard Time),503918.1000000015,raisin,1100,I,z,,,616,,,12,1,3027.10000000149,500891.0,9999,cobalt,NF,C,,,,,,,,,,10
1,prac,1,inc,0,m,Fri Feb 14 2025 12:26:16 GMT-0600 (Central Standard Time),506967.299999997,plum,1100,I,z,,,648,,,16,1,3044.1999999955297,503923.1000000015,9999,lead,NF,C,,,,,,,,,,11
1,prac,1,con,0,m,Fri Feb 14 2025 12:26:16 GMT-0600 (Central Standard Time),509832.8999999985,zinc,1000,I,z,,,562,,,15,1,2861.2000000029802,506971.69999999553,9999,zinc,NF,C,,,,,,,,,,12
1,prac,1,inc,0,m,Fri Feb 14 2025 12:26:16 GMT-0600 (Central Standard Time),512581.8999999985,pear,900,I,z,,,542,,,14,1,2744.7999999970198,509837.1000000015,9999,iron,NF,C,,,,,,,,,,13
1,prac,1,inc,0,z,Fri Feb 14 2025 12:26:16 GMT-0600 (Central Standard Time),515347.799999997,copper,900,I,m,,,561,,,2,1,2761.6999999955297,512586.1000000015,9999,cherry,NF,C,,,,,,,,,,14
1,prac,1,inc,0,z,Fri Feb 14 2025 12:26:16 GMT-0600 (Central Standard Time),518346.799999997,lead,1100,I,m,,,586,,,8,1,2994.7999999970198,515352.0,9999,plum,NF,C,,,,,,,,,,15
1,prac,1,inc,0,m,Fri Feb 14 2025 12:26:16 GMT-0600 (Central Standard Time),521229.19999999553,cherry,900,I,z,,,668,,,10,1,2878.1999999955297,518351.0,9999,copper,NF,C,,,,,,,,,,16
1,prac,2,inc,1,z,Fri Feb 14 2025 12:26:16 GMT-0600 (Central Standard Time),550037.1000000015,cobalt,1100,I,z,,,660,,,4,1,3061.8000000044703,546975.299999997,9999,raisin,NF,C,,,,,,,,,,1
2,prac,2,inc,1,m,Fri Feb 14 2025 12:26:16 GMT-0600 (Central Standard Time),553036.0,plum,1100,I,m,,,592,,,16,1,2994.3000000044703,550041.6999999955,9999,lead,NF,C,,,,,,,,,,2
3,prac,2,con,1,z,Fri Feb 14 2025 12:26:16 GMT-0600 (Central Standard Time),555735.1999999955,orange,1000,I,z,,,390,,,3,1,2694.6999999955297,553040.5,9999,orange,NF,C,,,,,,,,,,3
4,prac,2,con,1,m,Fri Feb 14 2025 12:26:16 GMT-0600 (Central Standard Time),558734.1999999955,zinc,1000,I,m,,,684,,,15,1,2994.89999999851,555739.299999997,9999,zinc,NF,C,,,,,,,,,,4
5,prac,2,con,1,z,Fri Feb 14 2025 12:26:16 GMT-0600 (Central Standard Time),561233.6999999955,banana,800,I,z,,,396,,,1,1,2495.5,558738.1999999955,9999,banana,NF,C,,,,,,,,,,5
6,prac,2,con,1,m,Fri Feb 14 2025 12:26:16 GMT-0600 (Central Standard Time),563732.6000000015,bronze,800,I,m,,,393,,,9,1,2494.8000000044703,561237.799999997,9999,bronze,NF,C,,,,,,,,,,6
7,prac,2,inc,1,m,Fri Feb 14 2025 12:26:16 GMT-0600 (Central Standard Time),566498.1000000015,cherry,900,I,m,,,553,,,10,1,2761.5,563736.6000000015,9999,copper,NF,C,,,,,,,,,,7
7,prac,2,inc,0,z,Fri Feb 14 2025 12:26:16 GMT-0600 (Central Standard Time),569097.6999999955,iron,900,I,m,,,396,,,6,1,2595.1999999955297,566502.5,9999,pear,NF,C,,,,,,,,,,8
8,prac,2,inc,1,z,Fri Feb 14 2025 12:26:16 GMT-0600 (Central Standard Time),571946.8999999985,lead,1100,I,z,,,445,,,8,1,2845.10000000149,569101.799999997,9999,plum,NF,C,,,,,,,,,,9
9,prac,2,con,1,z,Fri Feb 14 2025 12:26:16 GMT-0600 (Central Standard Time),575095.8999999985,kiwi,1000,I,z,,,856,,,7,1,3144.39999999851,571951.5,9999,kiwi,NF,C,,,,,,,,,,10
10,prac,2,inc,1,m,Fri Feb 14 2025 12:26:16 GMT-0600 (Central Standard Time),578045.0,raisin,1100,I,m,,,534,,,12,1,2945.2000000029802,575099.799999997,9999,cobalt,NF,C,,,,,,,,,,11
11,prac,2,con,1,m,Fri Feb 14 2025 12:26:16 GMT-0600 (Central Standard Time),580660.6000000015,gold,800,I,m,,,502,,,13,1,2611.60000000149,578049.0,9999,gold,NF,C,,,,,,,,,,12
12,prac,2,inc,1,z,Fri Feb 14 2025 12:26:16 GMT-0600 (Central Standard Time),583359.6999999955,copper,900,I,z,,,490,,,2,1,2695.1999999955297,580664.5,9999,cherry,NF,C,,,,,,,,,,13
13,prac,2,con,1,z,Fri Feb 14 2025 12:26:16 GMT-0600 (Central Standard Time),585909.0,lime,800,I,z,,,441,,,5,1,2545.0,583364.0,9999,lime,NF,C,,,,,,,,,,14
14,prac,2,inc,1,m,Fri Feb 14 2025 12:26:16 GMT-0600 (Central Standard Time),588641.5,pear,900,I,m,,,522,,,14,1,2728.7000000029802,585912.799999997,9999,iron,NF,C,,,,,,,,,,15
15,prac,2,con,1,m,Fri Feb 14 2025 12:26:16 GMT-0600 (Central Standard Time),591373.8999999985,silver,1000,I,m,,,417,,,11,1,2728.39999999851,588645.5,9999,silver,NF,C,,,,,,,,,,16
1,test,1,inc,1,m,Fri Feb 14 2025 12:26:16 GMT-0600 (Central Standard Time),700739.799999997,orange,1000,I,m,m,None,670,455.0,215.0,87,1,2212.60000000149,698527.1999999955,9999,silver,NF,C,680063,680063,678316,679330,678318,680529,679847,679847,680529,1
2,test,1,con,1,m,Fri Feb 14 2025 12:26:16 GMT-0600 (Central Standard Time),702839.1000000015,lead,1000,I,m,m,None,559,344.0,215.0,123,1,2094.60000000149,700744.5,9999,lead,NF,C,682278,682278,680533,681546,680535,682628,682063,682063,682628,2
3,test,1,con,1,z,Fri Feb 14 2025 12:26:16 GMT-0600 (Central Standard Time),704671.8999999985,banana,900,I,z,z,None,382,168.0,214.0,2,1,1827.8999999985099,702844.0,9999,banana,NF,C,684278,684278,682633,683545,682635,684461,684063,684063,684461,3
4,test,1,inc,1,z,Fri Feb 14 2025 12:26:16 GMT-0600 (Central Standard Time),706704.5,zinc,1000,I,z,z,None,491,292.0,199.0,55,1,2028.1000000014901,704676.3999999985,9999,kiwi,NF,C,686194,686194,684465,685478,684467,686494,685995,685995,686494,4
5,test,1,con,1,z,Fri Feb 14 2025 12:26:16 GMT-0600 (Central Standard Time),708487.299999997,lime,800,I,z,z,None,434,219.0,215.0,33,1,1778.7999999970198,706708.5,9999,lime,NF,C,688043,688043,686498,687311,686499,688276,687828,687828,688276,5
6,test,1,inc,1,m,Fri Feb 14 2025 12:26:16 GMT-0600 (Central Standard Time),710519.8999999985,orange,1000,I,m,m,None,492,293.0,199.0,71,1,2028.5,708491.3999999985,9999,bronze,NF,C,690009,690009,688280,689294,688282,690309,689810,689810,690309,6
7,test,1,con,1,m,Fri Feb 14 2025 12:26:16 GMT-0600 (Central Standard Time),712585.6000000015,gold,1000,I,m,m,None,531,332.0,199.0,99,1,2061.7000000029802,710523.8999999985,9999,gold,NF,C,692042,692042,690313,691326,690314,692375,691843,691843,692375,7
8,test,1,con,1,m,Fri Feb 14 2025 12:26:16 GMT-0600 (Central Standard Time),714518.6000000015,bronze,1000,I,m,m,None,385,186.0,199.0,67,1,1929.0,712589.6000000015,9999,bronze,NF,C,694108,694108,692379,693392,692380,694308,693909,693909,694308,8
9,test,1,con,1,m,Fri Feb 14 2025 12:26:16 GMT-0600 (Central Standard Time),716484.799999997,silver,1000,I,m,m,None,428,213.0,215.0,83,1,1962.2999999970198,714522.5,9999,silver,NF,C,696057,696057,694312,695335,694313,696274,695842,695842,696274,9
10,test,1,con,1,m,Fri Feb 14 2025 12:26:16 GMT-0600 (Central Standard Time),718200.6999999955,gold,800,I,m,m,None,383,183.0,200.0,97,1,1712.0,716488.6999999955,9999,gold,NF,C,697807,697807,696278,697091,696279,697990,697607,697607,697990,10
11,test,1,con,1,m,Fri Feb 14 2025 12:26:16 GMT-0600 (Central Standard Time),720200.1000000015,zinc,1000,I,m,m,None,458,259.0,199.0,115,1,1995.6000000014901,718204.5,9999,zinc,NF,C,699723,699723,697994,699007,697995,699989,699524,699524,699989,11
12,test,1,con,1,z,Fri Feb 14 2025 12:26:16 GMT-0600 (Central Standard Time),722183.1000000015,orange,1100,I,z,z,None,334,119.0,215.0,20,1,1979.0,720204.1000000015,9999,orange,NF,C,701839,701839,699993,701106,699994,701972,701623,701624,701972,12
13,test,1,con,1,m,Fri Feb 14 2025 12:26:16 GMT-0600 (Central Standard Time),724065.3999999985,cobalt,1000,I,m,m,None,348,149.0,199.0,91,1,1878.5,722186.8999999985,9999,cobalt,NF,C,703705,703705,701976,702989,701977,703854,703506,703506,703854,13
13,test,1,inc,0,m,Fri Feb 14 2025 12:26:16 GMT-0600 (Central Standard Time),726064.8999999985,raisin,1100,I,z,z,None,349,134.0,215.0,88,1,1995.7999999970198,724069.1000000015,9999,silver,NF,C,705704,705704,703858,704972,703859,705854,705489,705489,705854,14
14,test,1,con,1,z,Fri Feb 14 2025 12:26:16 GMT-0600 (Central Standard Time),728014.5,pear,1100,I,z,z,None,309,109.0,200.0,44,1,1945.7000000029802,726068.799999997,9999,pear,NF,C,707688,707688,705858,706971,705860,707804,707488,707488,707804,15
14,test,1,inc,0,m,Fri Feb 14 2025 12:26:16 GMT-0600 (Central Standard Time),729863.6999999955,orange,1000,I,z,z,None,300,101.0,199.0,79,1,1845.2999999970198,728018.3999999985,9999,copper,NF,C,709536,709536,707807,708821,707809,709653,709337,709337,709653,16
14,test,1,con,0,z,Fri Feb 14 2025 12:26:16 GMT-0600 (Central Standard Time),731563.299999997,plum,800,I,m,m,None,361,147.0,214.0,57,1,1695.6000000014901,729867.6999999955,9999,plum,NF,C,711203,711203,709657,710470,709658,711352,710988,710988,711352,17
15,test,1,con,1,z,Fri Feb 14 2025 12:26:16 GMT-0600 (Central Standard Time),733696.0,pear,900,I,z,z,None,692,493.0,199.0,42,1,2129.0,731567.0,9999,pear,NF,C,712985,712985,711356,712270,711357,713485,712786,712786,713485,18
16,test,1,inc,1,z,Fri Feb 14 2025 12:26:16 GMT-0600 (Central Standard Time),735678.6000000015,bronze,800,I,z,z,None,634,435.0,199.0,5,1,1978.7000000029802,733699.8999999985,9999,banana,NF,C,715018,715018,713489,714302,713491,715468,714819,714819,715468,19
17,test,1,inc,1,m,Fri Feb 14 2025 12:26:16 GMT-0600 (Central Standard Time),737611.299999997,lime,800,I,m,m,None,596,397.0,199.0,117,1,1928.2999999970198,735683.0,9999,zinc,NF,C,717001,717001,715472,716286,715473,717400,716802,716802,717400,20
18,test,1,con,1,z,Fri Feb 14 2025 12:26:16 GMT-0600 (Central Standard Time),739510.6000000015,cherry,900,I,z,z,None,419,210.0,209.0,10,1,1895.1000000014901,737615.5,9999,cherry,NF,C,719083,719084,717405,718318,717406,719300,718874,718874,719300,21
19,test,1,con,1,m,Fri Feb 14 2025 12:26:16 GMT-0600 (Central Standard Time),741643.5,cobalt,1100,I,m,m,None,488,289.0,199.0,92,1,2129.2000000029802,739514.299999997,9999,cobalt,NF,C,721133,721133,719303,720417,719305,721433,720934,720934,721433,22
20,test,1,inc,1,z,Fri Feb 14 2025 12:26:16 GMT-0600 (Central Standard Time),743542.6999999955,copper,900,I,z,z,None,458,244.0,214.0,30,1,1895.3999999985099,741647.299999997,9999,raisin,NF,C,723082,723082,721436,722350,721438,723332,722868,722868,723332,23
21,test,1,inc,1,m,Fri Feb 14 2025 12:26:16 GMT-0600 (Central Standard Time),745508.799999997,pear,900,I,m,m,None,520,321.0,199.0,126,1,1962.2999999970198,743546.5,9999,lead,NF,C,724965,724965,723336,724249,723337,725298,724766,724766,725298,24
22,test,1,con,1,z,Fri Feb 14 2025 12:26:16 GMT-0600 (Central Standard Time),747209.5,kiwi,800,I,z,z,None,349,150.0,199.0,49,1,1697.1000000014901,745512.3999999985,9999,kiwi,NF,C,726831,726831,725301,726115,725303,726999,726632,726632,726999,25
23,test,1,con,1,m,Fri Feb 14 2025 12:26:16 GMT-0600 (Central Standard Time),749074.299999997,zinc,900,I,m,m,None,431,232.0,199.0,114,1,1860.7999999970198,747213.5,9999,zinc,NF,C,728630,728630,727003,727915,727004,728863,728431,728431,728863,26
24,test,1,con,1,m,Fri Feb 14 2025 12:26:16 GMT-0600 (Central Standard Time),751207.299999997,bronze,800,I,m,m,None,792,577.0,215.0,65,1,2128.6999999955297,749078.6000000015,9999,bronze,NF,C,730413,730413,728868,729681,728869,730996,730198,730198,730996,27
25,test,1,con,1,m,Fri Feb 14 2025 12:26:16 GMT-0600 (Central Standard Time),753206.6000000015,iron,1000,I,m,m,None,452,253.0,199.0,107,1,1995.4000000059605,751211.1999999955,9999,iron,NF,C,732729,732729,731000,732013,731001,732996,732530,732530,732996,28
26,test,1,inc,1,z,Fri Feb 14 2025 12:26:16 GMT-0600 (Central Standard Time),755022.5,gold,800,I,z,z,None,476,261.0,215.0,45,1,1812.0,753210.5,9999,pear,NF,C,734545,734545,733000,733813,733001,734812,734330,734330,734812,29
27,test,1,con,1,z,Fri Feb 14 2025 12:26:16 GMT-0600 (Central Standard Time),757121.6999999955,banana,1100,I,z,z,None,464,249.0,215.0,4,1,2095.39999999851,755026.299999997,9999,banana,NF,C,736661,736661,734815,735929,734817,736911,736446,736446,736911,30
27,test,1,con,0,z,Fri Feb 14 2025 12:26:16 GMT-0600 (Central Standard Time),759187.5,lime,1100,I,m,m,None,428,229.0,199.0,36,1,2062.3000000044703,757125.1999999955,9999,lime,NF,C,738744,738744,736914,738028,736916,738977,738545,738545,738977,31
28,test,1,inc,1,z,Fri Feb 14 2025 12:26:16 GMT-0600 (Central Standard Time),761253.8999999985,copper,900,I,z,z,None,619,420.0,199.0,6,1,2062.7000000029802,759191.1999999955,9999,banana,NF,C,740610,740610,738980,739894,738982,741043,740411,740411,741043,32
29,test,1,inc,1,z,Fri Feb 14 2025 12:26:16 GMT-0600 (Central Standard Time),763669.799999997,lead,1100,I,z,z,None,652,437.0,215.0,64,1,2412.1999999955297,761257.6000000015,9999,plum,NF,C,743009,743009,741047,742290,741048,743459,742794,742794,743459,33
30,test,1,inc,1,z,Fri Feb 14 2025 12:26:16 GMT-0600 (Central Standard Time),765519.5,gold,800,I,z,z,None,500,285.0,215.0,37,1,1846.0,763673.5,9999,lime,NF,C,745009,745009,743463,744276,743464,745309,744792,744793,745309,34
31,test,1,inc,1,m,Fri Feb 14 2025 12:26:16 GMT-0600 (Central Standard Time),767603.1000000015,plum,1100,I,m,m,None,448,249.0,199.0,112,1,2079.7000000029802,765523.3999999985,9999,iron,NF,C,747141,747141,745312,746426,745314,747392,746942,746942,747392,35
32,test,1,con,1,z,Fri Feb 14 2025 12:26:16 GMT-0600 (Central Standard Time),769717.8999999985,banana,1000,I,z,z,None,577,377.0,200.0,3,1,2111.2999999970198,767606.6000000015,9999,banana,NF,C,749125,749125,747396,748408,747397,749507,748925,748925,749507,36
33,test,1,con,1,m,Fri Feb 14 2025 12:26:16 GMT-0600 (Central Standard Time),772217.1000000015,copper,1100,I,m,m,None,865,666.0,199.0,76,1,2495.10000000149,769722.0,9999,copper,NF,C,751340,751340,749511,750624,749513,752006,751141,751141,752006,37
34,test,1,inc,1,z,Fri Feb 14 2025 12:26:16 GMT-0600 (Central Standard Time),774399.799999997,cobalt,1100,I,z,z,None,542,343.0,199.0,8,1,2178.89999999851,772220.8999999985,9999,banana,NF,C,753839,753839,752010,753123,752011,754189,753640,753640,754189,38
35,test,1,inc,1,z,Fri Feb 14 2025 12:26:16 GMT-0600 (Central Standard Time),776632.6000000015,cobalt,1100,I,z,z,None,582,383.0,199.0,32,1,2228.7000000029802,774403.8999999985,9999,raisin,NF,C,756022,756022,754193,755306,754194,756422,755823,755823,756422,39
36,test,1,con,1,z,Fri Feb 14 2025 12:26:16 GMT-0600 (Central Standard Time),778698.5,orange,1000,I,z,z,None,522,307.0,215.0,19,1,2062.2000000029802,776636.299999997,9999,orange,NF,C,758171,758171,756425,757439,756427,758488,757956,757956,758487,40
37,test,1,con,1,z,Fri Feb 14 2025 12:26:16 GMT-0600 (Central Standard Time),780682.299999997,raisin,1000,I,z,z,None,448,233.0,215.0,27,1,1980.1000000014901,778702.1999999955,9999,raisin,NF,C,760237,760237,758491,759505,758493,760471,760022,760022,760471,41
38,test,1,con,1,m,Fri Feb 14 2025 12:26:16 GMT-0600 (Central Standard Time),782563.8999999985,silver,900,I,m,m,None,437,222.0,215.0,82,1,1877.2000000029802,780686.6999999955,9999,silver,NF,C,762120,762120,760476,761388,760477,762353,761905,761905,762353,42
39,test,1,inc,1,m,Fri Feb 14 2025 12:26:16 GMT-0600 (Central Standard Time),784596.6999999955,cherry,900,I,m,m,None,595,396.0,199.0,86,1,2028.7999999970198,782567.8999999985,9999,silver,NF,C,763986,763986,762357,763270,762358,764386,763787,763787,764386,43
40,test,1,inc,1,z,Fri Feb 14 2025 12:26:16 GMT-0600 (Central Standard Time),786662.6000000015,cobalt,1100,I,z,z,None,425,211.0,214.0,24,1,2062.2000000029802,784600.3999999985,9999,orange,NF,C,766235,766235,764389,765503,764391,766452,766021,766021,766452,44
41,test,1,inc,1,z,Fri Feb 14 2025 12:26:16 GMT-0600 (Central Standard Time),788512.1999999955,bronze,800,I,z,z,None,499,299.0,200.0,29,1,1845.6999999955297,786666.5,9999,raisin,NF,C,767986,767986,766456,767269,766457,768301,767786,767786,768301,45
42,test,1,con,1,z,Fri Feb 14 2025 12:26:16 GMT-0600 (Central Standard Time),790494.6000000015,plum,1100,I,z,z,None,335,136.0,199.0,60,1,1978.7000000029802,788515.8999999985,9999,plum,NF,C,770134,770134,768305,769418,768306,770284,769935,769935,770284,46
43,test,1,inc,1,z,Fri Feb 14 2025 12:26:16 GMT-0600 (Central Standard Time),792560.6000000015,zinc,1000,I,z,z,None,516,317.0,199.0,39,1,2062.3000000044703,790498.299999997,9999,lime,NF,C,772017,772017,770287,771302,770289,772350,771818,771818,772350,47
44,test,1,inc,1,z,Fri Feb 14 2025 12:26:16 GMT-0600 (Central Standard Time),794393.6000000015,copper,900,I,z,z,None,390,190.0,200.0,22,1,1829.0,792564.6000000015,9999,orange,NF,C,773984,773984,772354,773267,772355,774183,773784,773784,774183,48
45,test,1,inc,1,m,Fri Feb 14 2025 12:26:16 GMT-0600 (Central Standard Time),796243.0,banana,800,I,m,m,None,513,298.0,215.0,77,1,1845.5,794397.5,9999,copper,NF,C,775732,775732,774187,775000,774188,776032,775517,775517,776032,49
46,test,1,con,1,m,Fri Feb 14 2025 12:26:16 GMT-0600 (Central Standard Time),798275.6000000015,copper,1000,I,m,m,None,488,289.0,199.0,75,1,2028.7000000029802,796246.8999999985,9999,copper,NF,C,777765,777765,776036,777049,776037,778065,777566,777566,778065,50
47,test,1,con,1,m,Fri Feb 14 2025 12:26:16 GMT-0600 (Central Standard Time),800625.0,zinc,1100,I,m,m,None,707,492.0,215.0,116,1,2345.7000000029802,798279.299999997,9999,zinc,NF,C,779914,779914,778068,779182,778070,780414,779699,779699,780414,51
48,test,1,inc,1,z,Fri Feb 14 2025 12:26:16 GMT-0600 (Central Standard Time),802440.799999997,gold,800,I,z,z,None,482,283.0,199.0,61,1,1811.8999999985099,800628.8999999985,9999,plum,NF,C,781947,781947,780418,781232,780419,782230,781748,781748,782230,52
49,test,1,inc,1,z,Fri Feb 14 2025 12:26:16 GMT-0600 (Central Standard Time),804257.1000000015,bronze,800,I,z,z,None,482,283.0,199.0,13,1,1812.7000000029802,802444.3999999985,9999,cherry,NF,C,783763,783763,782233,783047,782235,784046,783564,783564,784046,53
50,test,1,inc,1,z,Fri Feb 14 2025 12:26:16 GMT-0600 (Central Standard Time),806389.8999999985,lead,1100,I,z,z,None,486,287.0,199.0,48,1,2129.0,804260.8999999985,9999,pear,NF,C,785879,785879,784050,785164,784051,786179,785680,785680,786179,54
51,test,1,inc,1,m,Fri Feb 14 2025 12:26:16 GMT-0600 (Central Standard Time),808339.0,cherry,900,I,m,m,None,513,314.0,199.0,94,1,1945.3999999985099,806393.6000000015,9999,cobalt,NF,C,787812,787812,786183,787096,786184,788128,787613,787613,788128,55
52,test,1,con,1,z,Fri Feb 14 2025 12:26:16 GMT-0600 (Central Standard Time),810121.8999999985,pear,800,I,z,z,None,377,174.0,203.0,41,1,1779.0,808342.8999999985,9999,pear,NF,C,789728,789728,788132,788946,788133,789911,789524,789524,789911,56
53,test,1,inc,1,m,Fri Feb 14 2025 12:26:16 GMT-0600 (Central Standard Time),812304.799999997,banana,800,I,m,m,None,833,634.0,199.0,93,1,2179.0,810125.799999997,9999,cobalt,NF,C,791444,791444,789915,790728,789916,792094,791245,791245,792094,57
54,test,1,con,1,z,Fri Feb 14 2025 12:26:16 GMT-0600 (Central Standard Time),814187.3999999985,cherry,1000,I,z,z,None,338,123.0,215.0,11,1,1879.0,812308.3999999985,9999,cherry,NF,C,793843,793843,792097,793111,792099,793976,793628,793628,793976,58
55,test,1,inc,1,z,Fri Feb 14 2025 12:26:16 GMT-0600 (Central Standard Time),816236.6999999955,silver,1000,I,z,z,None,511,312.0,199.0,23,1,2045.5999999940395,814191.1000000015,9999,orange,NF,C,795710,795710,793980,794994,793982,796026,795510,795510,796026,59
56,test,1,inc,1,z,Fri Feb 14 2025 12:26:16 GMT-0600 (Central Standard Time),818069.3999999985,gold,800,I,z,z,None,494,295.0,199.0,53,1,1828.6000000014901,816240.799999997,9999,kiwi,NF,C,797559,797559,796030,796843,796031,797858,797360,797360,797858,60
57,test,1,inc,1,m,Fri Feb 14 2025 12:26:16 GMT-0600 (Central Standard Time),819952.299999997,cherry,900,I,m,m,None,432,217.0,215.0,78,1,1879.1999999955297,818073.1000000015,9999,copper,NF,C,799508,799508,797862,798776,797864,799741,799293,799293,799741,61
57,test,1,inc,0,m,Fri Feb 14 2025 12:26:16 GMT-0600 (Central Standard Time),822084.799999997,plum,1100,I,z,z,None,486,287.0,199.0,128,1,2128.89999999851,819955.8999999985,9999,lead,NF,C,801574,801574,799745,800859,799746,801874,801375,801375,801874,62
58,test,1,con,1,m,Fri Feb 14 2025 12:26:16 GMT-0600 (Central Standard Time),823884.3999999985,zinc,800,I,m,m,None,454,255.0,199.0,113,1,1795.8999999985099,822088.5,9999,zinc,NF,C,803407,803407,801878,802691,801879,803673,803208,803208,803673,63
58,test,1,con,0,m,Fri Feb 14 2025 12:26:16 GMT-0600 (Central Standard Time),825933.3999999985,silver,1100,I,z,z,None,409,194.0,215.0,84,1,2045.1000000014901,823888.299999997,9999,silver,NF,C,805523,805523,803677,804791,803679,805722,805307,805308,805722,64
59,test,1,con,1,z,Fri Feb 14 2025 12:26:16 GMT-0600 (Central Standard Time),828599.5,plum,1000,I,z,z,None,1117,917.0,200.0,59,1,2661.39999999851,825938.1000000015,9999,plum,NF,C,807457,807457,805727,806740,805728,808389,807257,807257,808389,65
60,test,1,con,1,m,Fri Feb 14 2025 12:26:16 GMT-0600 (Central Standard Time),830715.6999999955,bronze,900,I,m,m,None,671,456.0,215.0,66,1,2112.2999999970198,828603.3999999985,9999,bronze,NF,C,810038,810038,808392,809306,808394,810505,809823,809823,810505,66
61,test,1,con,1,z,Fri Feb 14 2025 12:26:16 GMT-0600 (Central Standard Time),832681.6000000015,kiwi,900,I,z,z,None,523,308.0,215.0,50,1,1961.9000000059605,830719.6999999955,9999,kiwi,NF,C,812154,812154,810509,811422,810510,812471,811939,811939,812471,67
62,test,1,con,1,m,Fri Feb 14 2025 12:26:16 GMT-0600 (Central Standard Time),835014.299999997,gold,1100,I,m,m,None,693,494.0,199.0,100,1,2329.0,832685.299999997,9999,gold,NF,C,814304,814304,812474,813588,812476,814803,814104,814104,814803,68
63,test,1,inc,1,z,Fri Feb 14 2025 12:26:16 GMT-0600 (Central Standard Time),837013.6000000015,iron,900,I,z,z,None,561,362.0,199.0,38,1,1995.5,835018.1000000015,9999,lime,NF,C,816436,816436,814807,815720,814809,816803,816237,816237,816802,69
64,test,1,con,1,z,Fri Feb 14 2025 12:26:16 GMT-0600 (Central Standard Time),839063.0,raisin,800,I,z,z,None,708,509.0,199.0,25,1,2045.3999999985099,837017.6000000015,9999,raisin,NF,C,818336,818336,816807,817620,816808,818852,818137,818137,818852,70
65,test,1,inc,1,z,Fri Feb 14 2025 12:26:16 GMT-0600 (Central Standard Time),841028.8999999985,iron,900,I,z,z,None,520,321.0,199.0,54,1,1962.1000000014901,839066.799999997,9999,kiwi,NF,C,820485,820485,818856,819769,818857,820818,820286,820286,820818,71
66,test,1,inc,1,m,Fri Feb 14 2025 12:26:16 GMT-0600 (Central Standard Time),843594.6000000015,kiwi,1000,I,m,m,None,1020,806.0,214.0,111,1,2562.10000000149,841032.5,9999,iron,NF,C,822568,822568,820822,821835,820823,823384,822353,822353,823384,72
67,test,1,con,1,m,Fri Feb 14 2025 12:26:16 GMT-0600 (Central Standard Time),845627.6000000015,iron,1100,I,m,m,None,388,189.0,199.0,108,1,2029.0,843598.6000000015,9999,iron,NF,C,825217,825217,823388,824501,823389,825417,825018,825018,825417,73
68,test,1,inc,1,m,Fri Feb 14 2025 12:26:16 GMT-0600 (Central Standard Time),847761.299999997,orange,1000,I,m,m,None,591,376.0,215.0,95,1,2130.0,845631.299999997,9999,cobalt,NF,C,827166,827166,825420,826434,825422,827550,826950,826951,827550,74
69,test,1,inc,1,m,Fri Feb 14 2025 12:26:16 GMT-0600 (Central Standard Time),850426.1000000015,raisin,1100,I,m,m,None,1023,824.0,199.0,72,1,2661.10000000149,847765.0,9999,bronze,NF,C,829382,829382,827554,828666,827555,830215,829183,829183,830215,75
70,test,1,inc,1,m,Fri Feb 14 2025 12:26:16 GMT-0600 (Central Standard Time),852525.1999999955,lime,800,I,m,m,None,753,554.0,199.0,109,1,2095.0,850430.1999999955,9999,iron,NF,C,831748,831748,830219,831032,830221,832314,831549,831549,832314,76
71,test,1,con,1,m,Fri Feb 14 2025 12:26:16 GMT-0600 (Central Standard Time),854591.1000000015,cobalt,900,I,m,m,None,625,410.0,215.0,90,1,2062.10000000149,852529.0,9999,cobalt,NF,C,833964,833964,832318,833232,832319,834380,833749,833749,834380,77
72,test,1,inc,1,m,Fri Feb 14 2025 12:26:16 GMT-0600 (Central Standard Time),856667.6999999955,lime,800,I,m,m,None,740,541.0,199.0,101,1,2072.89999999851,854594.799999997,9999,gold,NF,C,835915,835915,834384,835198,834385,836457,835714,835715,836457,78
73,test,1,inc,1,z,Fri Feb 14 2025 12:26:16 GMT-0600 (Central Standard Time),858873.3999999985,silver,1000,I,z,z,None,665,450.0,215.0,31,1,2201.89999999851,856671.5,9999,raisin,NF,C,838196,838196,836461,837464,836462,838663,837980,837981,838662,79
74,test,1,con,1,z,Fri Feb 14 2025 12:26:16 GMT-0600 (Central Standard Time),860956.0,cherry,1100,I,z,z,None,438,239.0,199.0,12,1,2078.8000000044703,858877.1999999955,9999,cherry,NF,C,840495,840495,838666,839780,838668,840745,840296,840296,840745,80
75,test,1,inc,1,m,Fri Feb 14 2025 12:26:16 GMT-0600 (Central Standard Time),863188.6999999955,raisin,1100,I,m,m,None,587,388.0,199.0,80,1,2228.7999999970198,860959.8999999985,9999,copper,NF,C,842578,842578,840749,841862,840750,842978,842379,842379,842978,81
76,test,1,inc,1,z,Fri Feb 14 2025 12:26:16 GMT-0600 (Central Standard Time),865388.0,cobalt,1100,I,z,z,None,562,347.0,215.0,16,1,2195.3000000044703,863192.6999999955,9999,cherry,NF,C,844827,844827,842982,844095,842983,845177,844612,844612,845177,82
77,test,1,inc,1,m,Fri Feb 14 2025 12:26:16 GMT-0600 (Central Standard Time),867420.6000000015,pear,900,I,m,m,None,595,396.0,199.0,110,1,2028.8000000044703,865391.799999997,9999,iron,NF,C,846810,846810,845181,846094,845182,847210,846611,846611,847210,83
78,test,1,inc,1,z,Fri Feb 14 2025 12:26:16 GMT-0600 (Central Standard Time),869370.1000000015,silver,1000,I,z,z,None,406,191.0,215.0,15,1,1945.4000000059605,867424.6999999955,9999,cherry,NF,C,848959,848959,847214,848227,847215,849159,848744,848744,849159,84
79,test,1,inc,1,z,Fri Feb 14 2025 12:26:16 GMT-0600 (Central Standard Time),871769.0,zinc,1000,I,z,z,None,865,666.0,199.0,63,1,2395.0,869374.0,9999,plum,NF,C,850892,850892,849163,850176,849164,851558,850693,850693,851558,85
80,test,1,inc,1,m,Fri Feb 14 2025 12:26:16 GMT-0600 (Central Standard Time),874001.799999997,plum,1100,I,m,m,None,598,399.0,199.0,120,1,2229.10000000149,871772.6999999955,9999,zinc,NF,C,853391,853391,851562,852676,851563,853791,853192,853192,853791,86
80,test,1,inc,0,z,Fri Feb 14 2025 12:26:16 GMT-0600 (Central Standard Time),875768.0,silver,1000,I,m,m,None,217,18.0,199.0,7,1,1762.7000000029802,874005.299999997,9999,banana,NF,C,855524,855524,853794,854808,853796,855557,855325,855325,855557,87
81,test,1,con,1,m,Fri Feb 14 2025 12:26:16 GMT-0600 (Central Standard Time),877834.1000000015,lead,800,I,m,m,None,723,524.0,199.0,121,1,2062.10000000149,875772.0,9999,lead,NF,C,857090,857090,855561,856374,855562,857623,856891,856891,857623,88
81,test,1,inc,0,m,Fri Feb 14 2025 12:26:16 GMT-0600 (Central Standard Time),879483.6000000015,banana,800,I,z,z,None,305,106.0,199.0,85,1,1645.8000000044703,877837.799999997,9999,silver,NF,C,859156,859156,857627,858440,857628,859273,858957,858957,859273,89
81,test,1,con,0,z,Fri Feb 14 2025 12:26:16 GMT-0600 (Central Standard Time),881649.5,pear,1000,I,m,m,None,614,399.0,215.0,43,1,2162.10000000149,879487.3999999985,9999,pear,NF,C,861023,861023,859276,860289,859278,861439,860807,860807,861439,90
82,test,1,con,1,m,Fri Feb 14 2025 12:26:16 GMT-0600 (Central Standard Time),883432.1999999955,copper,900,I,m,m,None,340,125.0,215.0,74,1,1778.7999999970198,881653.3999999985,9999,copper,NF,C,863088,863089,861442,862356,861444,863221,862873,862873,863221,91
83,test,1,inc,1,z,Fri Feb 14 2025 12:26:16 GMT-0600 (Central Standard Time),885698.3999999985,lead,1100,I,z,z,None,630,415.0,215.0,40,1,2262.2999999970198,883436.1000000015,9999,lime,NF,C,865071,865071,863225,864338,863226,865487,864855,864856,865487,92
84,test,1,con,1,m,Fri Feb 14 2025 12:26:16 GMT-0600 (Central Standard Time),887597.6999999955,iron,900,I,m,m,None,461,262.0,199.0,106,1,1895.5,885702.1999999955,9999,iron,NF,C,867120,867120,865491,866405,865493,867387,866921,866921,867387,93
85,test,1,inc,1,m,Fri Feb 14 2025 12:26:16 GMT-0600 (Central Standard Time),889530.1999999955,banana,800,I,m,m,None,589,374.0,215.0,69,1,1928.6999999955297,887601.5,9999,bronze,NF,C,868936,868936,867391,868204,867392,869319,868721,868721,869319,94
86,test,1,con,1,m,Fri Feb 14 2025 12:26:16 GMT-0600 (Central Standard Time),891463.1000000015,iron,800,I,m,m,None,592,377.0,215.0,105,1,1928.9000000059605,889534.1999999955,9999,iron,NF,C,870869,870869,869323,870137,869325,871252,870654,870654,871252,95
87,test,1,con,1,z,Fri Feb 14 2025 12:26:16 GMT-0600 (Central Standard Time),893262.3999999985,plum,900,I,z,z,None,351,152.0,199.0,58,1,1795.5,891466.8999999985,9999,plum,NF,C,872885,872885,871256,872169,871257,873051,872686,872686,873051,96
87,test,1,inc,0,z,Fri Feb 14 2025 12:26:16 GMT-0600 (Central Standard Time),895045.6999999955,copper,900,I,m,m,None,344,145.0,199.0,14,1,1779.3999999985099,893266.299999997,9999,cherry,NF,C,874685,874685,873055,873969,873057,874835,874486,874486,874835,97
87,test,1,inc,0,z,Fri Feb 14 2025 12:26:16 GMT-0600 (Central Standard Time),897761.0,zinc,1000,I,m,m,None,1165,950.0,215.0,47,1,2711.3000000044703,895049.6999999955,9999,pear,NF,C,876584,876584,874839,875851,874840,877550,876369,876369,877550,98
88,test,1,con,1,z,Fri Feb 14 2025 12:26:16 GMT-0600 (Central Standard Time),899960.3999999985,raisin,1100,I,z,z,None,558,359.0,199.0,28,1,2195.39999999851,897765.0,9999,raisin,NF,C,879383,879383,877554,878667,877555,879749,879184,879184,879749,99
89,test,1,inc,1,m,Fri Feb 14 2025 12:26:16 GMT-0600 (Central Standard Time),901960.1000000015,cherry,900,I,m,m,None,550,335.0,215.0,70,1,1995.9000000059605,899964.1999999955,9999,bronze,NF,C,881399,881399,879753,880667,879755,881749,881184,881184,881749,100
90,test,1,con,1,m,Fri Feb 14 2025 12:26:16 GMT-0600 (Central Standard Time),903958.8999999985,lead,900,I,m,m,None,556,213.0,343.0,122,1,1995.1000000014901,901963.799999997,9999,lead,NF,C,883528,883528,881753,882666,881754,883748,883184,883184,883748,101
91,test,1,con,1,z,Fri Feb 14 2025 12:26:16 GMT-0600 (Central Standard Time),906025.1000000015,kiwi,1100,I,z,z,None,432,233.0,199.0,52,1,2062.60000000149,903962.5,9999,kiwi,NF,C,885581,885581,883752,884866,883753,885814,885382,885382,885814,102
92,test,1,con,1,z,Fri Feb 14 2025 12:26:16 GMT-0600 (Central Standard Time),907924.6999999955,kiwi,1000,I,z,z,None,361,162.0,199.0,51,1,1895.7999999970198,906028.8999999985,9999,kiwi,NF,C,887548,887548,885818,886831,885819,887714,887348,887349,887714,103
93,test,1,con,1,z,Fri Feb 14 2025 12:26:16 GMT-0600 (Central Standard Time),909840.6999999955,lime,1000,I,z,z,None,374,159.0,215.0,35,1,1912.1999999955297,907928.5,9999,lime,NF,C,889463,889463,887718,888731,887719,889630,889248,889248,889630,104
94,test,1,con,1,m,Fri Feb 14 2025 12:26:16 GMT-0600 (Central Standard Time),912056.799999997,bronze,1100,I,m,m,None,582,367.0,215.0,68,1,2212.5,909844.299999997,9999,bronze,NF,C,891479,891479,889633,890747,889635,891846,891264,891264,891846,105
95,test,1,inc,1,z,Fri Feb 14 2025 12:26:16 GMT-0600 (Central Standard Time),914090.3999999985,lead,1100,I,z,z,None,390,175.0,215.0,56,1,2029.8999999985099,912060.5,9999,kiwi,NF,C,893695,893695,891850,892963,891851,893880,893480,893480,893879,106
96,test,1,con,1,z,Fri Feb 14 2025 12:26:16 GMT-0600 (Central Standard Time),915838.799999997,banana,800,I,z,z,None,401,186.0,215.0,1,1,1744.6000000014901,914094.1999999955,9999,banana,NF,C,895428,895428,893883,894696,893885,895628,895212,895213,895628,107
97,test,1,inc,1,z,Fri Feb 14 2025 12:26:16 GMT-0600 (Central Standard Time),918154.6999999955,iron,900,I,z,z,None,880,681.0,199.0,62,1,2312.5,915842.1999999955,9999,plum,NF,C,897261,897261,895631,896545,895633,897944,897062,897062,897944,108
98,test,1,con,1,m,Fri Feb 14 2025 12:26:16 GMT-0600 (Central Standard Time),919887.6000000015,copper,800,I,m,m,None,384,185.0,199.0,73,1,1729.0,918158.6000000015,9999,copper,NF,C,899477,899477,897948,898761,897949,899677,899278,899278,899677,109
98,test,1,con,0,z,Fri Feb 14 2025 12:26:16 GMT-0600 (Central Standard Time),921603.6999999955,orange,800,I,m,m,None,379,164.0,215.0,17,1,1712.2999999970198,919891.3999999985,9999,orange,NF,C,901226,901226,899680,900493,899682,901393,901011,901011,901393,110
99,test,1,con,1,m,Fri Feb 14 2025 12:26:16 GMT-0600 (Central Standard Time),923853.1000000015,lead,1100,I,m,m,None,603,388.0,215.0,124,1,2245.8000000044703,921607.299999997,9999,lead,NF,C,903242,903242,901396,902510,901398,903642,903027,903027,903642,111
100,test,1,con,1,z,Fri Feb 14 2025 12:26:16 GMT-0600 (Central Standard Time),925502.3999999985,cherry,800,I,z,z,None,302,103.0,199.0,9,1,1645.6000000014901,923856.799999997,9999,cherry,NF,C,905175,905175,903646,904459,903647,905292,904976,904976,905291,112
101,test,1,inc,1,z,Fri Feb 14 2025 12:26:16 GMT-0600 (Central Standard Time),927463.799999997,iron,900,I,z,z,None,519,304.0,215.0,46,1,1957.5,925506.299999997,9999,pear,NF,C,906941,906941,905295,906209,905297,907253,906726,906726,907253,113
102,test,1,inc,1,m,Fri Feb 14 2025 12:26:16 GMT-0600 (Central Standard Time),929567.799999997,pear,900,I,m,m,None,658,443.0,215.0,102,1,2100.10000000149,927467.6999999955,9999,gold,NF,C,908907,908907,907257,908175,907258,909357,908692,908692,909357,114
103,test,1,con,1,m,Fri Feb 14 2025 12:26:16 GMT-0600 (Central Standard Time),931533.799999997,gold,900,I,m,m,None,519,320.0,199.0,98,1,1962.1000000014901,929571.6999999955,9999,gold,NF,C,910990,910990,909361,910274,909362,911323,910791,910791,911323,115
104,test,1,con,1,z,Fri Feb 14 2025 12:26:16 GMT-0600 (Central Standard Time),933483.1999999955,lime,900,I,z,z,None,512,313.0,199.0,34,1,1945.5,931537.6999999955,9999,lime,NF,C,912956,912956,911327,912240,911328,913272,912757,912757,913272,116
105,test,1,inc,1,m,Fri Feb 14 2025 12:26:16 GMT-0600 (Central Standard Time),935732.6000000015,kiwi,1000,I,m,m,None,712,513.0,199.0,103,1,2245.4000000059605,933487.1999999955,9999,gold,NF,C,915005,915005,913276,914290,913278,915522,914806,914806,915522,117
106,test,1,inc,1,m,Fri Feb 14 2025 12:26:16 GMT-0600 (Central Standard Time),937648.6000000015,lime,800,I,m,m,None,565,350.0,215.0,125,1,1912.2000000029802,935736.3999999985,9999,lead,NF,C,917072,917072,915525,916339,915527,917438,916856,916856,917438,118
107,test,1,inc,1,m,Fri Feb 14 2025 12:26:16 GMT-0600 (Central Standard Time),939847.799999997,kiwi,1000,I,m,m,None,658,443.0,215.0,127,1,2195.2999999970198,937652.5,9999,lead,NF,C,919187,919187,917442,918455,917443,919637,918972,918972,919637,119
108,test,1,inc,1,m,Fri Feb 14 2025 12:26:16 GMT-0600 (Central Standard Time),941897.0,kiwi,1000,I,m,m,None,506,307.0,199.0,119,1,2045.3000000044703,939851.6999999955,9999,zinc,NF,C,921370,921370,919641,920654,919642,921686,921171,921171,921686,120
109,test,1,inc,1,m,Fri Feb 14 2025 12:26:16 GMT-0600 (Central Standard Time),943897.5,pear,900,I,m,m,None,557,342.0,215.0,118,1,1996.8000000044703,941900.6999999955,9999,zinc,NF,C,923336,923336,921690,922604,921691,923687,923121,923121,923687,121
110,test,1,con,1,z,Fri Feb 14 2025 12:26:16 GMT-0600 (Central Standard Time),945863.8999999985,raisin,900,I,z,z,None,518,319.0,199.0,26,1,1962.7999999970198,943901.1000000015,9999,raisin,NF,C,925319,925319,923690,924603,923691,925653,925120,925120,925653,122
111,test,1,inc,1,m,Fri Feb 14 2025 12:26:16 GMT-0600 (Central Standard Time),947995.3999999985,raisin,1100,I,m,m,None,488,273.0,215.0,96,1,2127.60000000149,945867.799999997,9999,cobalt,NF,C,927501,927501,925657,926769,925658,927784,927286,927286,927784,123
112,test,1,con,1,m,Fri Feb 14 2025 12:26:16 GMT-0600 (Central Standard Time),949761.5,cobalt,800,I,m,m,None,423,208.0,215.0,89,1,1762.2000000029802,947999.299999997,9999,cobalt,NF,C,929334,929334,927788,928602,927790,929551,929119,929119,929551,124
113,test,1,inc,1,z,Fri Feb 14 2025 12:26:16 GMT-0600 (Central Standard Time),951594.1000000015,bronze,800,I,z,z,None,502,290.0,212.0,21,1,1828.8000000044703,949765.299999997,9999,orange,NF,C,931084,931084,929554,930368,929556,931383,930871,930871,931383,125
114,test,1,con,1,m,Fri Feb 14 2025 12:26:16 GMT-0600 (Central Standard Time),953427.0,silver,800,I,m,m,None,497,298.0,199.0,81,1,1829.1000000014901,951597.8999999985,9999,silver,NF,C,932916,932916,931387,932201,931388,933216,932717,932717,933216,126
115,test,1,con,1,z,Fri Feb 14 2025 12:26:16 GMT-0600 (Central Standard Time),955509.5,orange,900,I,z,z,None,636,437.0,199.0,18,1,2078.7000000029802,953430.799999997,9999,orange,NF,C,934849,934849,933220,934134,933221,935299,934650,934650,935299,127
116,test,1,inc,1,m,Fri Feb 14 2025 12:26:16 GMT-0600 (Central Standard Time),957625.3999999985,plum,1100,I,m,m,None,481,266.0,215.0,104,1,2112.0,955513.3999999985,9999,gold,NF,C,937148,937148,935302,936416,935304,937414,936933,936933,937414,128
