acc_sum,block,block_c,condition,correct,correct_response,datetime,endtime,flanker,jitter,project,response,response_test_buffer_response,response_test_target_response,response_time,response_time_test_buffer_response,response_time_test_target_response,row_sel,session_number,start_end,starttime,subject_id,target,task,task_vers,time_test_buffer,time_test_buffer_response,time_test_constants,time_test_flanker,time_test_jitter,time_test_logger,time_test_target,time_test_target_response,time_test_variables,trial
1,prac,1,con,1,z,Fri Oct 11 2024 15:27:16 GMT-0500 (Central Daylight Time),185833.69999999553,lime,800,I,z,,,297,,,5,1,2394.89999999851,183438.79999999702,7025,lime,NF,C,,,,,,,,,,1
1,prac,1,inc,0,z,Fri Oct 11 2024 15:27:16 GMT-0500 (Central Daylight Time),188349.69999999553,cobalt,1100,I,m,,,103,,,4,1,2510.5,185839.19999999553,7025,raisin,NF,C,,,,,,,,,,2
1,prac,1,inc,0,z,Fri Oct 11 2024 15:27:16 GMT-0500 (Central Daylight Time),193314.69999999553,copper,900,I,None,,,1800,,,2,1,4960.79999999702,188353.8999999985,7025,cherry,NF,C,,,,,,,,,,3
2,prac,1,con,1,m,Fri Oct 11 2024 15:27:16 GMT-0500 (Central Daylight Time),196613.69999999553,gold,800,I,m,,,1186,,,13,1,3294.5999999940395,193319.1000000015,7025,gold,NF,C,,,,,,,,,,4
3,prac,1,con,1,m,Fri Oct 11 2024 15:27:16 GMT-0500 (Central Daylight Time),199096.0,bronze,800,I,m,,,383,,,9,1,2477.89999999851,196618.1000000015,7025,bronze,NF,C,,,,,,,,,,5
4,prac,1,con,1,z,Fri Oct 11 2024 15:27:16 GMT-0500 (Central Daylight Time),201795.5,orange,1000,I,z,,,389,,,3,1,2694.5,199101.0,7025,orange,NF,C,,,,,,,,,,6
5,prac,1,con,1,m,Fri Oct 11 2024 15:27:16 GMT-0500 (Central Daylight Time),204428.69999999553,silver,1000,I,m,,,336,,,11,1,2629.0,201799.69999999553,7025,silver,NF,C,,,,,,,,,,7
6,prac,1,inc,1,m,Fri Oct 11 2024 15:27:16 GMT-0500 (Central Daylight Time),207243.6000000015,plum,1100,I,m,,,414,,,16,1,2811.0,204432.6000000015,7025,lead,NF,C,,,,,,,,,,8
6,prac,1,con,0,z,Fri Oct 11 2024 15:27:16 GMT-0500 (Central Daylight Time),209743.0,banana,800,I,m,,,384,,,1,1,2494.8000000044703,207248.19999999553,7025,banana,NF,C,,,,,,,,,,9
6,prac,1,inc,0,z,Fri Oct 11 2024 15:27:16 GMT-0500 (Central Daylight Time),212608.69999999553,lead,1100,I,m,,,459,,,8,1,2861.2999999970198,209747.3999999985,7025,plum,NF,C,,,,,,,,,,10
7,prac,1,con,1,m,Fri Oct 11 2024 15:27:16 GMT-0500 (Central Daylight Time),215274.3999999985,zinc,1000,I,m,,,380,,,15,1,2661.0,212613.3999999985,7025,zinc,NF,C,,,,,,,,,,11
8,prac,1,inc,1,m,Fri Oct 11 2024 15:27:16 GMT-0500 (Central Daylight Time),218140.3999999985,raisin,1100,I,m,,,454,,,12,1,2861.7999999970198,215278.6000000015,7025,cobalt,NF,C,,,,,,,,,,12
9,prac,1,inc,1,m,Fri Oct 11 2024 15:27:16 GMT-0500 (Central Daylight Time),220889.3999999985,pear,900,I,m,,,541,,,14,1,2744.89999999851,218144.5,7025,iron,NF,C,,,,,,,,,,13
10,prac,1,inc,1,z,Fri Oct 11 2024 15:27:16 GMT-0500 (Central Daylight Time),223572.79999999702,iron,900,I,z,,,374,,,6,1,2679.2999999970198,220893.5,7025,pear,NF,C,,,,,,,,,,14
11,prac,1,inc,1,m,Fri Oct 11 2024 15:27:16 GMT-0500 (Central Daylight Time),226354.5,cherry,900,I,m,,,573,,,10,1,2777.60000000149,223576.8999999985,7025,copper,NF,C,,,,,,,,,,15
11,prac,1,con,0,z,Fri Oct 11 2024 15:27:16 GMT-0500 (Central Daylight Time),229187.0,kiwi,1000,I,m,,,530,,,7,1,2828.39999999851,226358.6000000015,7025,kiwi,NF,C,,,,,,,,,,16
1,prac,2,inc,1,z,Fri Oct 11 2024 15:27:16 GMT-0500 (Central Daylight Time),241732.69999999553,iron,900,I,z,,,627,,,6,1,2828.5999999940395,238904.1000000015,7025,pear,NF,C,,,,,,,,,,1
2,prac,2,con,1,z,Fri Oct 11 2024 15:27:16 GMT-0500 (Central Daylight Time),244898.3999999985,orange,1000,I,z,,,855,,,3,1,3161.7000000029802,241736.69999999553,7025,orange,NF,C,,,,,,,,,,2
3,prac,2,con,1,z,Fri Oct 11 2024 15:27:16 GMT-0500 (Central Daylight Time),247564.29999999702,lime,800,I,z,,,554,,,5,1,2661.7999999970198,244902.5,7025,lime,NF,C,,,,,,,,,,3
4,prac,2,inc,1,m,Fri Oct 11 2024 15:27:16 GMT-0500 (Central Daylight Time),250380.29999999702,raisin,1100,I,m,,,410,,,12,1,2811.89999999851,247568.3999999985,7025,cobalt,NF,C,,,,,,,,,,4
5,prac,2,con,1,m,Fri Oct 11 2024 15:27:16 GMT-0500 (Central Daylight Time),253229.3999999985,gold,800,I,m,,,737,,,13,1,2845.2999999970198,250384.1000000015,7025,gold,NF,C,,,,,,,,,,5
6,prac,2,inc,1,z,Fri Oct 11 2024 15:27:16 GMT-0500 (Central Daylight Time),256094.69999999553,lead,1100,I,z,,,451,,,8,1,2861.5,253233.19999999553,7025,plum,NF,C,,,,,,,,,,6
7,prac,2,con,1,m,Fri Oct 11 2024 15:27:16 GMT-0500 (Central Daylight Time),258777.6000000015,silver,1000,I,m,,,383,,,11,1,2678.9000000059605,256098.69999999553,7025,silver,NF,C,,,,,,,,,,7
8,prac,2,con,1,z,Fri Oct 11 2024 15:27:16 GMT-0500 (Central Daylight Time),261243.3999999985,banana,800,I,z,,,362,,,1,1,2461.7000000029802,258781.69999999553,7025,banana,NF,C,,,,,,,,,,8
9,prac,2,inc,1,m,Fri Oct 11 2024 15:27:16 GMT-0500 (Central Daylight Time),263992.69999999553,cherry,900,I,m,,,541,,,10,1,2745.39999999851,261247.29999999702,7025,copper,NF,C,,,,,,,,,,9
10,prac,2,inc,1,z,Fri Oct 11 2024 15:27:16 GMT-0500 (Central Daylight Time),266991.6000000015,cobalt,1100,I,z,,,583,,,4,1,2994.8000000044703,263996.799999997,7025,raisin,NF,C,,,,,,,,,,10
11,prac,2,con,1,m,Fri Oct 11 2024 15:27:16 GMT-0500 (Central Daylight Time),269552.5,bronze,800,I,m,,,349,,,9,1,2557.10000000149,266995.3999999985,7025,bronze,NF,C,,,,,,,,,,11
12,prac,2,inc,1,m,Fri Oct 11 2024 15:27:16 GMT-0500 (Central Daylight Time),272506.6000000015,plum,1100,I,m,,,538,,,16,1,2949.10000000149,269557.5,7025,lead,NF,C,,,,,,,,,,12
13,prac,2,inc,1,z,Fri Oct 11 2024 15:27:16 GMT-0500 (Central Daylight Time),275189.1000000015,copper,900,I,z,,,477,,,2,1,2678.60000000149,272510.5,7025,cherry,NF,C,,,,,,,,,,13
14,prac,2,inc,1,m,Fri Oct 11 2024 15:27:16 GMT-0500 (Central Daylight Time),277838.19999999553,pear,900,I,m,,,444,,,14,1,2645.0999999940395,275193.1000000015,7025,iron,NF,C,,,,,,,,,,14
15,prac,2,con,1,m,Fri Oct 11 2024 15:27:16 GMT-0500 (Central Daylight Time),280520.8999999985,zinc,1000,I,m,,,376,,,15,1,2678.89999999851,277842.0,7025,zinc,NF,C,,,,,,,,,,15
16,prac,2,con,1,z,Fri Oct 11 2024 15:27:16 GMT-0500 (Central Daylight Time),283203.299999997,kiwi,1000,I,z,,,379,,,7,1,2678.39999999851,280524.8999999985,7025,kiwi,NF,C,,,,,,,,,,16
1,test,1,con,1,m,Fri Oct 11 2024 15:27:16 GMT-0500 (Central Daylight Time),300547.8999999985,bronze,1000,I,m,m,None,422,207.0,215.0,67,1,1945.6000000014901,298602.299999997,7025,bronze,NF,C,298247,298247,296518,297531,296519,298464,298032,298032,298464,1
2,test,1,con,1,z,Fri Oct 11 2024 15:27:16 GMT-0500 (Central Daylight Time),302330.69999999553,banana,900,I,z,z,None,333,134.0,199.0,2,1,1778.7999999970198,300551.8999999985,7025,banana,NF,C,300097,300097,298468,299380,298468,300247,299897,299897,300247,2
3,test,1,con,1,m,Fri Oct 11 2024 15:27:16 GMT-0500 (Central Daylight Time),304179.8999999985,copper,1000,I,m,m,None,313,113.0,200.0,75,1,1844.1000000014901,302335.799999997,7025,copper,NF,C,301981,301981,300252,301263,300252,302096,301780,301780,302096,3
4,test,1,inc,1,z,Fri Oct 11 2024 15:27:16 GMT-0500 (Central Daylight Time),306047.19999999553,bronze,800,I,z,z,None,521,320.0,201.0,21,1,1863.5,304183.69999999553,7025,orange,NF,C,303630,303630,302100,302913,302100,303963,303429,303429,303963,4
5,test,1,inc,1,m,Fri Oct 11 2024 15:27:16 GMT-0500 (Central Daylight Time),307878.6000000015,lime,800,I,m,m,None,496,296.0,200.0,117,1,1827.3000000044703,306051.299999997,7025,zinc,NF,C,305495,305495,303967,304779,303968,305795,305295,305295,305795,5
6,test,1,inc,1,z,Fri Oct 11 2024 15:27:16 GMT-0500 (Central Daylight Time),309777.8999999985,copper,900,I,z,z,None,450,251.0,199.0,14,1,1895.6000000014901,307882.299999997,7025,cherry,NF,C,307428,307428,305798,306712,305799,307694,307228,307228,307694,6
7,test,1,inc,1,z,Fri Oct 11 2024 15:27:16 GMT-0500 (Central Daylight Time),311677.3999999985,iron,900,I,z,z,None,463,263.0,200.0,62,1,1895.7000000029802,309781.69999999553,7025,plum,NF,C,309327,309327,307698,308611,307698,309593,309127,309127,309593,7
8,test,1,inc,1,z,Fri Oct 11 2024 15:27:16 GMT-0500 (Central Daylight Time),313410.3999999985,gold,800,I,z,z,None,382,183.0,199.0,61,1,1728.7999999970198,311681.6000000015,7025,plum,NF,C,311127,311127,309598,310410,309598,311326,310927,310927,311326,8
9,test,1,inc,1,z,Fri Oct 11 2024 15:27:16 GMT-0500 (Central Daylight Time),315243.1000000015,bronze,800,I,z,z,None,482,283.0,199.0,5,1,1829.0,313414.1000000015,7025,banana,NF,C,312860,312860,311330,312143,311330,313159,312659,312660,313159,9
9,test,1,con,0,z,Fri Oct 11 2024 15:27:16 GMT-0500 (Central Daylight Time),317242.5,lime,1000,I,m,m,None,471,265.0,206.0,35,1,1995.5,315247.0,7025,lime,NF,C,314893,314893,313163,314176,313163,315159,314687,314687,315159,10
10,test,1,inc,1,m,Fri Oct 11 2024 15:27:16 GMT-0500 (Central Daylight Time),319375.0,plum,1100,I,m,m,None,487,287.0,200.0,120,1,2128.7000000029802,317246.299999997,7025,zinc,NF,C,316991,316991,315162,316275,315162,317291,316791,316791,317291,11
11,test,1,inc,1,z,Fri Oct 11 2024 15:27:16 GMT-0500 (Central Daylight Time),321407.69999999553,zinc,1000,I,z,z,None,495,295.0,200.0,47,1,2028.6999999955297,319379.0,7025,pear,NF,C,319024,319024,317295,318308,317295,319324,318824,318824,319324,12
12,test,1,con,1,m,Fri Oct 11 2024 15:27:16 GMT-0500 (Central Daylight Time),323540.3999999985,silver,1000,I,m,m,None,589,389.0,200.0,83,1,2129.2000000029802,321411.19999999553,7025,silver,NF,C,321057,321057,319327,320340,319327,321456,320857,320857,321456,13
13,test,1,inc,1,m,Fri Oct 11 2024 15:27:16 GMT-0500 (Central Daylight Time),325457.6000000015,lime,800,I,m,m,None,575,376.0,199.0,125,1,1913.5,323544.1000000015,7025,lead,NF,C,322990,322990,321460,322273,321460,323374,322790,322790,323374,14
14,test,1,inc,1,m,Fri Oct 11 2024 15:27:16 GMT-0500 (Central Daylight Time),327622.5,plum,1100,I,m,m,None,528,329.0,199.0,112,1,2161.10000000149,325461.3999999985,7025,iron,NF,C,325206,325206,323377,324489,323378,325539,325006,325006,325538,15
15,test,1,inc,1,m,Fri Oct 11 2024 15:27:16 GMT-0500 (Central Daylight Time),329405.299999997,banana,800,I,m,m,None,446,247.0,199.0,85,1,1779.1999999955297,327626.1000000015,7025,silver,NF,C,327072,327072,325542,326355,325542,327321,326872,326872,327321,16
16,test,1,inc,1,z,Fri Oct 11 2024 15:27:16 GMT-0500 (Central Daylight Time),331571.299999997,lead,1100,I,z,z,None,524,325.0,199.0,48,1,2162.2999999970198,329409.0,7025,pear,NF,C,329154,329154,327325,328438,327325,329487,328955,328955,329487,17
17,test,1,con,1,z,Fri Oct 11 2024 15:27:16 GMT-0500 (Central Daylight Time),333404.1000000015,raisin,900,I,z,z,None,390,191.0,199.0,26,1,1828.9000000059605,331575.19999999553,7025,raisin,NF,C,331120,331120,329491,330404,329491,331320,330921,330921,331320,18
18,test,1,con,1,z,Fri Oct 11 2024 15:27:16 GMT-0500 (Central Daylight Time),335153.3999999985,lime,900,I,z,z,None,300,101.0,199.0,34,1,1745.5,333407.8999999985,7025,lime,NF,C,332953,332953,331324,332237,331324,333069,332753,332754,333069,19
19,test,1,con,1,z,Fri Oct 11 2024 15:27:16 GMT-0500 (Central Daylight Time),337019.5,pear,900,I,z,z,None,430,231.0,199.0,42,1,1862.1000000014901,335157.3999999985,7025,pear,NF,C,334703,334703,333073,333986,333074,334936,334503,334503,334936,20
20,test,1,inc,1,z,Fri Oct 11 2024 15:27:16 GMT-0500 (Central Daylight Time),339085.3999999985,cobalt,1100,I,z,z,None,420,221.0,199.0,32,1,2061.5,337023.8999999985,7025,raisin,NF,C,336769,336769,334940,336052,334940,337001,336569,336569,337001,21
20,test,1,inc,0,m,Fri Oct 11 2024 15:27:16 GMT-0500 (Central Daylight Time),342517.799999997,cherry,900,I,None,None,None,1799,1799.0,199.0,78,1,3428.7999999970198,339089.0,7025,copper,NF,C,338635,338635,337005,337918,337005,340434,338435,338435,340434,22
21,test,1,inc,1,m,Fri Oct 11 2024 15:27:16 GMT-0500 (Central Daylight Time),344583.8999999985,kiwi,1000,I,m,m,None,527,327.0,200.0,103,1,2062.2999999970198,342521.6000000015,7025,gold,NF,C,342167,342167,340438,341450,340438,342500,341967,341967,342500,23
22,test,1,inc,1,m,Fri Oct 11 2024 15:27:16 GMT-0500 (Central Daylight Time),346516.69999999553,pear,900,I,m,m,None,497,297.0,200.0,102,1,1929.2999999970198,344587.3999999985,7025,gold,NF,C,344133,344133,342503,343417,342504,344433,343933,343933,344433,24
23,test,1,con,1,m,Fri Oct 11 2024 15:27:16 GMT-0500 (Central Daylight Time),348383.69999999553,bronze,800,I,m,m,None,528,329.0,199.0,65,1,1863.2999999970198,346520.3999999985,7025,bronze,NF,C,345966,345966,344436,345249,344437,346300,345766,345766,346300,25
24,test,1,con,1,z,Fri Oct 11 2024 15:27:16 GMT-0500 (Central Daylight Time),350265.299999997,raisin,1000,I,z,z,None,342,142.0,200.0,27,1,1877.8999999985099,348387.3999999985,7025,raisin,NF,C,348032,348032,346303,347315,346304,348181,347832,347832,348181,26
25,test,1,con,1,z,Fri Oct 11 2024 15:27:16 GMT-0500 (Central Daylight Time),352565.799999997,plum,1100,I,z,z,None,655,456.0,199.0,60,1,2296.7999999970198,350269.0,7025,plum,NF,C,350014,350014,348185,349298,348185,350482,349815,349815,350482,27
26,test,1,con,1,z,Fri Oct 11 2024 15:27:16 GMT-0500 (Central Daylight Time),354280.8999999985,raisin,800,I,z,z,None,375,176.0,199.0,25,1,1710.8999999985099,352570.0,7025,raisin,NF,C,352014,352014,350486,351297,350486,352197,351814,351814,352197,28
27,test,1,con,1,z,Fri Oct 11 2024 15:27:16 GMT-0500 (Central Daylight Time),355913.6000000015,plum,800,I,z,z,None,292,92.0,200.0,57,1,1628.8000000044703,354284.799999997,7025,plum,NF,C,353730,353730,352201,353013,352201,353830,353530,353530,353830,29
28,test,1,con,1,z,Fri Oct 11 2024 15:27:16 GMT-0500 (Central Daylight Time),357663.299999997,plum,900,I,z,z,None,310,111.0,199.0,58,1,1746.1000000014901,355917.19999999553,7025,plum,NF,C,355463,355463,353833,354746,353833,355579,355263,355263,355579,30
29,test,1,con,1,z,Fri Oct 11 2024 15:27:16 GMT-0500 (Central Daylight Time),359729.19999999553,lime,1100,I,z,z,None,426,226.0,200.0,36,1,2062.0,357667.19999999553,7025,lime,NF,C,357412,357412,355583,356696,355583,357645,357212,357212,357645,31
30,test,1,inc,1,z,Fri Oct 11 2024 15:27:16 GMT-0500 (Central Daylight Time),361794.8999999985,lead,1100,I,z,z,None,432,232.0,200.0,64,1,2062.10000000149,359732.799999997,7025,plum,NF,C,359478,359478,357649,358762,357649,359711,359278,359278,359711,32
31,test,1,con,1,m,Fri Oct 11 2024 15:27:16 GMT-0500 (Central Daylight Time),363494.6000000015,silver,800,I,m,m,None,354,154.0,200.0,81,1,1696.2000000029802,361798.3999999985,7025,silver,NF,C,361244,361244,359714,360528,359715,361411,361044,361044,361411,33
32,test,1,con,1,m,Fri Oct 11 2024 15:27:16 GMT-0500 (Central Daylight Time),365360.799999997,gold,1000,I,m,m,None,318,118.0,200.0,99,1,1862.5,363498.299999997,7025,gold,NF,C,363144,363144,361414,362427,361415,363277,362944,362944,363277,34
33,test,1,inc,1,m,Fri Oct 11 2024 15:27:16 GMT-0500 (Central Daylight Time),367326.8999999985,pear,900,I,m,m,None,528,329.0,199.0,126,1,1962.0,365364.8999999985,7025,lead,NF,C,364910,364910,363281,364193,363281,365243,364710,364710,365243,35
34,test,1,inc,1,m,Fri Oct 11 2024 15:27:16 GMT-0500 (Central Daylight Time),369460.5,raisin,1100,I,m,m,None,497,298.0,199.0,80,1,2130.0,367330.5,7025,copper,NF,C,367076,367076,365246,366359,365247,367377,366876,366876,367377,36
35,test,1,con,1,m,Fri Oct 11 2024 15:27:16 GMT-0500 (Central Daylight Time),371242.299999997,copper,800,I,m,m,None,432,233.0,199.0,73,1,1777.6999999955297,369464.6000000015,7025,copper,NF,C,368909,368909,367381,368192,367381,369158,368709,368709,369158,37
36,test,1,con,1,z,Fri Oct 11 2024 15:27:16 GMT-0500 (Central Daylight Time),373158.19999999553,cherry,1000,I,z,z,None,371,171.0,200.0,11,1,1912.0999999940395,371246.1000000015,7025,cherry,NF,C,370891,370891,369162,370175,369162,371074,370691,370691,371074,38
37,test,1,con,1,z,Fri Oct 11 2024 15:27:16 GMT-0500 (Central Daylight Time),375040.69999999553,kiwi,1000,I,z,z,None,344,143.0,201.0,51,1,1878.5999999940395,373162.1000000015,7025,kiwi,NF,C,372808,372808,371078,372091,371078,372957,372607,372607,372957,39
37,test,1,con,0,m,Fri Oct 11 2024 15:27:16 GMT-0500 (Central Daylight Time),376990.3999999985,zinc,1000,I,z,z,None,405,205.0,200.0,115,1,1945.8999999985099,375044.5,7025,zinc,NF,C,374690,374690,372961,373974,372961,374906,374490,374490,374906,40
38,test,1,inc,1,z,Fri Oct 11 2024 15:27:16 GMT-0500 (Central Daylight Time),379123.0,silver,1000,I,z,z,None,599,399.0,200.0,15,1,2128.7000000029802,376994.299999997,7025,cherry,NF,C,376639,376639,374910,375923,374911,377039,376439,376439,377039,41
39,test,1,con,1,m,Fri Oct 11 2024 15:27:16 GMT-0500 (Central Daylight Time),381122.3999999985,silver,1100,I,m,m,None,358,157.0,201.0,84,1,1995.7000000029802,379126.69999999553,7025,silver,NF,C,378873,378873,377043,378156,377043,379039,378672,378672,379038,42
40,test,1,con,1,m,Fri Oct 11 2024 15:27:16 GMT-0500 (Central Daylight Time),382956.1000000015,bronze,900,I,m,m,None,398,199.0,199.0,66,1,1829.7000000029802,381126.3999999985,7025,bronze,NF,C,380671,380671,379042,379955,379043,380872,380472,380472,380872,43
41,test,1,inc,1,z,Fri Oct 11 2024 15:27:16 GMT-0500 (Central Daylight Time),385021.19999999553,zinc,1000,I,z,z,None,529,329.0,200.0,55,1,2061.5999999940395,382959.6000000015,7025,kiwi,NF,C,382605,382605,380876,381888,380876,382937,382405,382405,382937,44
42,test,1,inc,1,z,Fri Oct 11 2024 15:27:16 GMT-0500 (Central Daylight Time),387021.69999999553,iron,900,I,z,z,None,564,364.0,200.0,46,1,1996.7999999970198,385024.8999999985,7025,pear,NF,C,384570,384570,382941,383853,382941,384938,384370,384370,384938,45
43,test,1,inc,1,z,Fri Oct 11 2024 15:27:16 GMT-0500 (Central Daylight Time),389136.5,lead,1100,I,z,z,None,468,269.0,199.0,56,1,2110.89999999851,387025.6000000015,7025,kiwi,NF,C,386769,386769,384942,386053,384942,387053,386570,386570,387053,46
44,test,1,inc,1,z,Fri Oct 11 2024 15:27:16 GMT-0500 (Central Daylight Time),391019.299999997,gold,800,I,z,z,None,540,341.0,199.0,45,1,1879.0,389140.299999997,7025,pear,NF,C,388586,388586,387056,387869,387057,388935,388386,388386,388935,47
45,test,1,inc,1,m,Fri Oct 11 2024 15:27:16 GMT-0500 (Central Daylight Time),392835.3999999985,pear,900,I,m,m,None,375,175.0,200.0,110,1,1812.3999999985099,391023.0,7025,iron,NF,C,390568,390568,388939,389852,388939,390751,390368,390368,390751,48
46,test,1,con,1,m,Fri Oct 11 2024 15:27:16 GMT-0500 (Central Daylight Time),395084.6000000015,copper,1100,I,m,m,None,613,414.0,199.0,76,1,2245.4000000059605,392839.19999999553,7025,copper,NF,C,392584,392584,390755,391868,390755,393001,392385,392385,393001,49
47,test,1,con,1,m,Fri Oct 11 2024 15:27:16 GMT-0500 (Central Daylight Time),397117.299999997,zinc,1100,I,m,m,None,395,196.0,199.0,116,1,2028.6999999955297,395088.6000000015,7025,zinc,NF,C,394834,394834,393005,394117,393005,395033,394634,394634,395033,50
48,test,1,con,1,m,Fri Oct 11 2024 15:27:16 GMT-0500 (Central Daylight Time),399200.1000000015,iron,1100,I,m,m,None,444,244.0,200.0,108,1,2079.2000000029802,397120.8999999985,7025,iron,NF,C,396866,396866,395037,396150,395037,397116,396666,396666,397116,51
49,test,1,inc,1,z,Fri Oct 11 2024 15:27:16 GMT-0500 (Central Daylight Time),401033.1000000015,gold,800,I,z,z,None,494,294.0,200.0,37,1,1829.1000000014901,399204.0,7025,lime,NF,C,398649,398649,397120,397933,397120,398949,398449,398449,398949,52
50,test,1,con,1,z,Fri Oct 11 2024 15:27:16 GMT-0500 (Central Daylight Time),402748.8999999985,lime,800,I,z,z,None,380,180.0,200.0,33,1,1712.1000000014901,401036.799999997,7025,lime,NF,C,400482,400482,398953,399766,398953,400665,400282,400282,400665,53
51,test,1,inc,1,m,Fri Oct 11 2024 15:27:16 GMT-0500 (Central Daylight Time),404631.6000000015,cherry,900,I,m,m,None,458,259.0,199.0,70,1,1878.8000000044703,402752.799999997,7025,bronze,NF,C,402282,402283,400669,401581,400669,402548,402083,402083,402548,54
52,test,1,inc,1,m,Fri Oct 11 2024 15:27:16 GMT-0500 (Central Daylight Time),406714.6000000015,orange,1000,I,m,m,None,533,332.0,201.0,71,1,2079.2000000029802,404635.3999999985,7025,bronze,NF,C,404282,404282,402551,403564,402552,404631,404081,404081,404631,55
53,test,1,inc,1,m,Fri Oct 11 2024 15:27:16 GMT-0500 (Central Daylight Time),408713.69999999553,pear,900,I,m,m,None,549,350.0,199.0,118,1,1995.5,406718.19999999553,7025,zinc,NF,C,406263,406264,404634,405547,404634,406630,406064,406064,406630,56
54,test,1,inc,1,m,Fri Oct 11 2024 15:27:16 GMT-0500 (Central Daylight Time),410760.3999999985,banana,800,I,m,m,None,713,513.0,200.0,93,1,2042.8999999985099,408717.5,7025,cobalt,NF,C,408163,408163,406634,407447,406634,408676,407963,407963,408676,57
55,test,1,con,1,m,Fri Oct 11 2024 15:27:16 GMT-0500 (Central Daylight Time),412513.5,gold,800,I,m,m,None,411,211.0,200.0,97,1,1749.0,410764.5,7025,gold,NF,C,410212,410212,408681,409496,408681,410430,410012,410012,410430,58
56,test,1,con,1,m,Fri Oct 11 2024 15:27:16 GMT-0500 (Central Daylight Time),414678.3999999985,cobalt,1100,I,m,m,None,529,329.0,200.0,92,1,2161.2999999970198,412517.1000000015,7025,cobalt,NF,C,412262,412262,410433,411545,410433,412595,412062,412062,412594,59
57,test,1,con,1,z,Fri Oct 11 2024 15:27:16 GMT-0500 (Central Daylight Time),416661.299999997,orange,1100,I,z,z,None,346,131.0,215.0,20,1,1979.2999999970198,414682.0,7025,orange,NF,C,414444,414444,412598,413711,412598,414577,414229,414229,414577,60
58,test,1,inc,1,m,Fri Oct 11 2024 15:27:16 GMT-0500 (Central Daylight Time),418510.5,banana,800,I,m,m,None,513,313.0,200.0,77,1,1845.6000000014901,416664.8999999985,7025,copper,NF,C,416110,416110,414581,415394,414581,416427,415910,415910,416427,61
59,test,1,con,1,z,Fri Oct 11 2024 15:27:16 GMT-0500 (Central Daylight Time),420526.6000000015,raisin,1100,I,z,z,None,370,170.0,200.0,28,1,2012.5,418514.1000000015,7025,raisin,NF,C,418260,418260,416430,417543,416430,418443,418060,418060,418443,62
60,test,1,con,1,z,Fri Oct 11 2024 15:27:16 GMT-0500 (Central Daylight Time),422309.299999997,cherry,900,I,z,z,None,346,146.0,200.0,10,1,1779.0,420530.299999997,7025,cherry,NF,C,420076,420076,418446,419359,418447,420225,419876,419876,420225,63
61,test,1,inc,1,m,Fri Oct 11 2024 15:27:16 GMT-0500 (Central Daylight Time),424342.299999997,plum,1100,I,m,m,None,387,188.0,199.0,104,1,2029.1000000014901,422313.19999999553,7025,gold,NF,C,422058,422058,420229,421342,420229,422258,421859,421859,422258,64
62,test,1,con,1,z,Fri Oct 11 2024 15:27:16 GMT-0500 (Central Daylight Time),426058.3999999985,pear,800,I,z,z,None,383,183.0,200.0,41,1,1712.2000000029802,424346.19999999553,7025,pear,NF,C,423791,423791,422262,423075,422262,423974,423591,423591,423974,65
62,test,1,con,0,z,Fri Oct 11 2024 15:27:16 GMT-0500 (Central Daylight Time),429690.6000000015,cherry,1100,I,None,None,None,1800,1800.0,200.0,12,1,3627.7000000029802,426062.8999999985,7025,cherry,NF,C,425807,425807,423979,425091,423979,427607,425607,425607,427607,66
63,test,1,con,1,z,Fri Oct 11 2024 15:27:16 GMT-0500 (Central Daylight Time),431606.5,pear,1000,I,z,z,None,369,170.0,199.0,43,1,1912.2000000029802,429694.299999997,7025,pear,NF,C,429340,429340,427610,428623,427611,429523,429140,429140,429522,67
64,test,1,con,1,m,Fri Oct 11 2024 15:27:16 GMT-0500 (Central Daylight Time),433756.8999999985,lead,1100,I,m,m,None,505,306.0,199.0,124,1,2146.7999999970198,431610.1000000015,7025,lead,NF,C,431356,431356,429526,430639,429526,431673,431156,431156,431673,68
65,test,1,con,1,m,Fri Oct 11 2024 15:27:16 GMT-0500 (Central Daylight Time),435572.0,lead,900,I,m,m,None,381,181.0,200.0,122,1,1811.3000000044703,433760.69999999553,7025,lead,NF,C,433305,433305,431677,432589,431677,433488,433105,433105,433488,69
65,test,1,inc,0,m,Fri Oct 11 2024 15:27:16 GMT-0500 (Central Daylight Time),437454.6000000015,orange,1000,I,z,z,None,338,138.0,200.0,95,1,1878.9000000059605,435575.69999999553,7025,cobalt,NF,C,435221,435221,433492,434505,433492,435371,435021,435021,435371,70
66,test,1,con,1,m,Fri Oct 11 2024 15:27:16 GMT-0500 (Central Daylight Time),439520.8999999985,cobalt,1000,I,m,m,None,526,326.0,200.0,91,1,2062.60000000149,437458.299999997,7025,cobalt,NF,C,437104,437104,435374,436387,435375,437437,436904,436904,437437,71
67,test,1,inc,1,z,Fri Oct 11 2024 15:27:16 GMT-0500 (Central Daylight Time),441453.6000000015,copper,900,I,z,z,None,497,297.0,200.0,22,1,1929.2000000029802,439524.3999999985,7025,orange,NF,C,439070,439070,437440,438353,437441,439370,438870,438870,439370,72
68,test,1,inc,1,z,Fri Oct 11 2024 15:27:16 GMT-0500 (Central Daylight Time),443602.6000000015,zinc,1000,I,z,z,None,607,408.0,199.0,39,1,2145.3000000044703,441457.299999997,7025,lime,NF,C,441103,441103,439373,440386,439374,441519,440903,440903,441519,73
69,test,1,inc,1,z,Fri Oct 11 2024 15:27:16 GMT-0500 (Central Daylight Time),445618.8999999985,silver,1000,I,z,z,None,483,283.0,200.0,31,1,2012.5,443606.3999999985,7025,raisin,NF,C,443252,443252,441522,442537,441523,443535,443052,443052,443535,74
70,test,1,inc,1,m,Fri Oct 11 2024 15:27:16 GMT-0500 (Central Daylight Time),447618.19999999553,cherry,900,I,m,m,None,559,359.0,200.0,86,1,1995.6999999955297,445622.5,7025,silver,NF,C,445168,445168,443539,444452,443539,445534,444968,444968,445534,75
71,test,1,inc,1,z,Fri Oct 11 2024 15:27:16 GMT-0500 (Central Daylight Time),449800.8999999985,cobalt,1100,I,z,z,None,534,333.0,201.0,16,1,2178.5,447622.3999999985,7025,cherry,NF,C,447369,447369,445538,446651,445539,447717,447167,447167,447717,76
72,test,1,inc,1,m,Fri Oct 11 2024 15:27:16 GMT-0500 (Central Daylight Time),451733.69999999553,cherry,900,I,m,m,None,488,288.0,200.0,94,1,1929.0,449804.69999999553,7025,cobalt,NF,C,449350,449350,447721,448634,447721,449650,449150,449150,449650,77
73,test,1,con,1,z,Fri Oct 11 2024 15:27:16 GMT-0500 (Central Daylight Time),453549.69999999553,kiwi,900,I,z,z,None,371,172.0,199.0,50,1,1812.2999999970198,451737.3999999985,7025,kiwi,NF,C,451283,451283,449653,450566,449654,451466,451083,451083,451466,78
74,test,1,inc,1,z,Fri Oct 11 2024 15:27:16 GMT-0500 (Central Daylight Time),455449.1000000015,bronze,800,I,z,z,None,560,360.0,200.0,29,1,1895.9000000059605,453553.19999999553,7025,raisin,NF,C,452999,452999,451469,452282,451470,453365,452799,452799,453365,79
75,test,1,inc,1,m,Fri Oct 11 2024 15:27:16 GMT-0500 (Central Daylight Time),457281.8999999985,banana,800,I,m,m,None,492,292.0,200.0,69,1,1829.1000000014901,455452.799999997,7025,bronze,NF,C,454898,454898,453369,454183,453369,455198,454698,454698,455198,80
76,test,1,inc,1,m,Fri Oct 11 2024 15:27:16 GMT-0500 (Central Daylight Time),459114.5,lime,800,I,m,m,None,499,299.0,200.0,101,1,1828.8999999985099,457285.6000000015,7025,gold,NF,C,456731,456731,455202,456014,455202,457031,456531,456531,457031,81
77,test,1,inc,1,z,Fri Oct 11 2024 15:27:16 GMT-0500 (Central Daylight Time),461080.6000000015,iron,900,I,z,z,None,517,318.0,199.0,54,1,1962.5,459118.1000000015,7025,kiwi,NF,C,458664,458664,457034,457947,457034,458997,458464,458464,458997,82
78,test,1,con,1,z,Fri Oct 11 2024 15:27:16 GMT-0500 (Central Daylight Time),462813.3999999985,cherry,800,I,z,z,None,395,196.0,199.0,9,1,1729.2000000029802,461084.19999999553,7025,cherry,NF,C,460530,460530,459000,459813,459000,460729,460330,460330,460729,83
79,test,1,inc,1,m,Fri Oct 11 2024 15:27:16 GMT-0500 (Central Daylight Time),464796.19999999553,orange,1000,I,m,m,None,447,248.0,199.0,87,1,1979.1999999955297,462817.0,7025,silver,NF,C,462462,462462,460733,461746,460733,462712,462263,462263,462712,84
80,test,1,con,1,m,Fri Oct 11 2024 15:27:16 GMT-0500 (Central Daylight Time),466662.3999999985,silver,900,I,m,m,None,421,221.0,200.0,82,1,1862.5,464799.8999999985,7025,silver,NF,C,464345,464345,462716,463629,462716,464578,464145,464145,464578,85
81,test,1,con,1,m,Fri Oct 11 2024 15:27:16 GMT-0500 (Central Daylight Time),468462.8999999985,gold,900,I,m,m,None,355,155.0,200.0,98,1,1797.0,466665.8999999985,7025,gold,NF,C,466211,466212,464582,465495,464582,466379,466011,466011,466379,86
82,test,1,inc,1,z,Fri Oct 11 2024 15:27:16 GMT-0500 (Central Daylight Time),470510.8999999985,zinc,1000,I,z,z,None,502,303.0,199.0,63,1,2044.1000000014901,468466.799999997,7025,plum,NF,C,468111,468111,466383,467394,466383,468427,467911,467911,468427,87
83,test,1,con,1,z,Fri Oct 11 2024 15:27:16 GMT-0500 (Central Daylight Time),472477.1000000015,banana,1000,I,z,z,None,423,223.0,200.0,3,1,1962.3000000044703,470514.799999997,7025,banana,NF,C,470160,470160,468431,469444,468431,470393,469960,469960,470393,88
84,test,1,con,1,z,Fri Oct 11 2024 15:27:16 GMT-0500 (Central Daylight Time),474209.799999997,orange,800,I,z,z,None,384,184.0,200.0,17,1,1729.0,472480.799999997,7025,orange,NF,C,471926,471926,470397,471210,470397,472126,471726,471726,472126,89
85,test,1,inc,1,z,Fri Oct 11 2024 15:27:16 GMT-0500 (Central Daylight Time),476176.0,copper,900,I,z,z,None,519,319.0,200.0,30,1,1962.3999999985099,474213.6000000015,7025,raisin,NF,C,473759,473759,472130,473043,472130,474092,473559,473559,474092,90
86,test,1,con,1,m,Fri Oct 11 2024 15:27:16 GMT-0500 (Central Daylight Time),478225.5,bronze,1100,I,m,m,None,401,201.0,200.0,68,1,2045.8999999985099,476179.6000000015,7025,bronze,NF,C,475925,475925,474096,475208,474096,476142,475725,475725,476142,91
87,test,1,inc,1,z,Fri Oct 11 2024 15:27:16 GMT-0500 (Central Daylight Time),480208.1000000015,silver,1000,I,z,z,None,436,236.0,200.0,23,1,1978.8000000044703,478229.299999997,7025,orange,NF,C,477874,477874,476145,477158,476146,478124,477674,477674,478124,92
88,test,1,con,1,m,Fri Oct 11 2024 15:27:16 GMT-0500 (Central Daylight Time),482240.69999999553,iron,800,I,m,m,None,652,444.0,208.0,105,1,2028.8999999985099,480211.799999997,7025,iron,NF,C,479707,479707,478128,478941,478128,480157,479499,479499,480157,93
89,test,1,con,1,m,Fri Oct 11 2024 15:27:16 GMT-0500 (Central Daylight Time),484040.1000000015,cobalt,800,I,m,m,None,460,260.0,200.0,89,1,1795.6000000014901,482244.5,7025,cobalt,NF,C,481690,481690,480161,480974,480161,481956,481490,481490,481956,94
90,test,1,inc,1,z,Fri Oct 11 2024 15:27:16 GMT-0500 (Central Daylight Time),486172.69999999553,cobalt,1100,I,z,z,None,489,289.0,200.0,8,1,2128.2999999970198,484044.3999999985,7025,banana,NF,C,483789,483789,481960,483073,481961,484089,483589,483589,484089,95
91,test,1,inc,1,z,Fri Oct 11 2024 15:27:16 GMT-0500 (Central Daylight Time),488188.8999999985,silver,1000,I,z,z,None,481,281.0,200.0,7,1,2012.2999999970198,486176.6000000015,7025,banana,NF,C,485822,485822,484093,485106,484093,486105,485622,485622,486105,96
92,test,1,inc,1,m,Fri Oct 11 2024 15:27:16 GMT-0500 (Central Daylight Time),490338.19999999553,raisin,1100,I,m,m,None,509,309.0,200.0,88,1,2145.5999999940395,488192.6000000015,7025,silver,NF,C,487938,487938,486109,487221,486109,488254,487738,487738,488254,97
93,test,1,con,1,z,Fri Oct 11 2024 15:27:16 GMT-0500 (Central Daylight Time),492120.8999999985,kiwi,800,I,z,z,None,435,236.0,199.0,49,1,1778.8999999985099,490342.0,7025,kiwi,NF,C,489787,489787,488258,489071,488258,490037,489588,489588,490037,98
94,test,1,con,1,m,Fri Oct 11 2024 15:27:16 GMT-0500 (Central Daylight Time),494320.19999999553,lead,1000,I,m,m,None,653,453.0,200.0,123,1,2195.39999999851,492124.799999997,7025,lead,NF,C,491770,491770,490041,491053,490041,492236,491570,491570,492236,99
95,test,1,con,1,m,Fri Oct 11 2024 15:27:16 GMT-0500 (Central Daylight Time),496036.5,zinc,800,I,m,m,None,372,172.0,200.0,113,1,1712.3000000044703,494324.19999999553,7025,zinc,NF,C,493770,493770,492240,493053,492240,493953,493569,493569,493952,100
96,test,1,con,1,m,Fri Oct 11 2024 15:27:16 GMT-0500 (Central Daylight Time),497919.19999999553,iron,1000,I,m,m,None,344,145.0,199.0,107,1,1879.1999999955297,496040.0,7025,iron,NF,C,495685,495685,493956,494969,493956,495835,495486,495486,495835,101
96,test,1,inc,0,z,Fri Oct 11 2024 15:27:16 GMT-0500 (Central Daylight Time),499919.69999999553,cobalt,1100,I,m,m,None,362,162.0,200.0,24,1,1997.0999999940395,497922.6000000015,7025,orange,NF,C,497668,497668,495839,496952,495839,497836,497468,497468,497836,102
97,test,1,con,1,m,Fri Oct 11 2024 15:27:16 GMT-0500 (Central Daylight Time),501751.19999999553,zinc,900,I,m,m,None,395,195.0,200.0,114,1,1827.6999999955297,499923.5,7025,zinc,NF,C,499467,499467,497840,498751,497840,499667,499267,499267,499667,103
98,test,1,inc,1,z,Fri Oct 11 2024 15:27:16 GMT-0500 (Central Daylight Time),503584.1000000015,iron,900,I,z,z,None,394,194.0,200.0,38,1,1828.5,501755.6000000015,7025,lime,NF,C,501300,501300,499672,500584,499672,501500,501100,501100,501500,104
99,test,1,con,1,m,Fri Oct 11 2024 15:27:16 GMT-0500 (Central Daylight Time),505683.19999999553,iron,900,I,m,m,None,573,365.0,208.0,106,1,2095.5,503587.69999999553,7025,iron,NF,C,503233,503233,501504,502417,501504,503599,503025,503025,503599,105
100,test,1,con,1,m,Fri Oct 11 2024 15:27:16 GMT-0500 (Central Daylight Time),507632.8999999985,gold,1100,I,m,m,None,301,102.0,199.0,100,1,1946.1000000014901,505686.799999997,7025,gold,NF,C,505432,505432,503603,504716,503603,505549,505232,505233,505549,106
101,test,1,con,1,z,Fri Oct 11 2024 15:27:16 GMT-0500 (Central Daylight Time),509532.19999999553,plum,1000,I,z,z,None,364,164.0,200.0,59,1,1895.6999999955297,507636.5,7025,plum,NF,C,507282,507282,505553,506565,505553,507448,507082,507082,507448,107
102,test,1,inc,1,z,Fri Oct 11 2024 15:27:16 GMT-0500 (Central Daylight Time),511781.3999999985,lead,1100,I,z,z,None,605,405.0,200.0,40,1,2245.5,509535.8999999985,7025,lime,NF,C,509281,509281,507452,508565,507452,509698,509081,509081,509697,108
103,test,1,inc,1,m,Fri Oct 11 2024 15:27:16 GMT-0500 (Central Daylight Time),513780.8999999985,kiwi,1000,I,m,m,None,464,264.0,200.0,119,1,1995.7000000029802,511785.19999999553,7025,zinc,NF,C,511430,511430,509701,510714,509701,511697,511230,511230,511697,109
104,test,1,inc,1,m,Fri Oct 11 2024 15:27:16 GMT-0500 (Central Daylight Time),515813.5,kiwi,1000,I,m,m,None,489,289.0,200.0,111,1,2028.8999999985099,513784.6000000015,7025,iron,NF,C,513430,513430,511701,512713,511701,513730,513230,513230,513730,110
105,test,1,con,1,z,Fri Oct 11 2024 15:27:16 GMT-0500 (Central Daylight Time),517479.3999999985,banana,800,I,z,z,None,327,128.0,199.0,1,1,1662.2000000029802,515817.19999999553,7025,banana,NF,C,515263,515263,513733,514546,513733,515395,515063,515063,515395,111
106,test,1,inc,1,m,Fri Oct 11 2024 15:27:16 GMT-0500 (Central Daylight Time),519312.299999997,lime,800,I,m,m,None,493,292.0,201.0,109,1,1829.1999999955297,517483.1000000015,7025,iron,NF,C,516930,516930,515399,516212,515399,517228,516729,516729,517228,112
107,test,1,inc,1,z,Fri Oct 11 2024 15:27:16 GMT-0500 (Central Daylight Time),521245.1000000015,copper,900,I,z,z,None,495,296.0,199.0,6,1,1929.2000000029802,519315.8999999985,7025,banana,NF,C,518862,518862,517232,518145,517232,519161,518662,518662,519161,113
108,test,1,inc,1,m,Fri Oct 11 2024 15:27:16 GMT-0500 (Central Daylight Time),523344.5,kiwi,1000,I,m,m,None,561,361.0,200.0,127,1,2095.60000000149,521248.8999999985,7025,lead,NF,C,520894,520894,519165,520178,519165,521261,520694,520694,521261,114
109,test,1,con,1,m,Fri Oct 11 2024 15:27:16 GMT-0500 (Central Daylight Time),525143.799999997,lead,800,I,m,m,None,459,260.0,199.0,121,1,1795.5,523348.299999997,7025,lead,NF,C,522794,522794,521264,522077,521265,523060,522594,522594,523060,115
110,test,1,inc,1,z,Fri Oct 11 2024 15:27:16 GMT-0500 (Central Daylight Time),526893.3999999985,bronze,800,I,z,z,None,406,206.0,200.0,13,1,1745.8999999985099,525147.5,7025,cherry,NF,C,524593,524593,523064,523877,523064,524809,524393,524393,524809,116
111,test,1,inc,1,m,Fri Oct 11 2024 15:27:16 GMT-0500 (Central Daylight Time),529142.5,plum,1100,I,m,m,None,484,278.0,206.0,128,1,2245.39999999851,526897.1000000015,7025,lead,NF,C,526776,526776,524813,525926,524813,527059,526569,526569,527059,117
112,test,1,con,1,z,Fri Oct 11 2024 15:27:16 GMT-0500 (Central Daylight Time),531159.799999997,pear,1100,I,z,z,None,369,170.0,199.0,44,1,2013.6999999955297,529146.1000000015,7025,pear,NF,C,528892,528892,527062,528175,527062,529076,528692,528692,529076,118
113,test,1,con,1,z,Fri Oct 11 2024 15:27:16 GMT-0500 (Central Daylight Time),533208.0,banana,1100,I,z,z,None,402,202.0,200.0,4,1,2044.3000000044703,531163.6999999955,7025,banana,NF,C,530908,530908,529080,530191,529080,531124,530708,530708,531124,119
114,test,1,inc,1,m,Fri Oct 11 2024 15:27:16 GMT-0500 (Central Daylight Time),535240.6000000015,raisin,1100,I,m,m,None,386,186.0,200.0,72,1,2028.9000000059605,533211.6999999955,7025,bronze,NF,C,532957,532957,531128,532241,531128,533157,532757,532757,533157,120
114,test,1,inc,0,m,Fri Oct 11 2024 15:27:16 GMT-0500 (Central Daylight Time),537290.6999999955,raisin,1100,I,z,z,None,433,234.0,199.0,96,1,2046.0999999940395,535244.6000000015,7025,cobalt,NF,C,534973,534973,533161,534273,533161,535207,534774,534774,535207,121
115,test,1,inc,1,z,Fri Oct 11 2024 15:27:16 GMT-0500 (Central Daylight Time),539106.1999999955,gold,800,I,z,z,None,467,267.0,200.0,53,1,1811.7999999970198,537294.3999999985,7025,kiwi,NF,C,536739,536739,535210,536023,535211,537022,536539,536539,537022,122
116,test,1,con,1,z,Fri Oct 11 2024 15:27:16 GMT-0500 (Central Daylight Time),541355.1999999955,kiwi,1100,I,z,z,None,615,415.0,200.0,52,1,2245.5,539109.6999999955,7025,kiwi,NF,C,538855,538855,537026,538139,537026,539271,538655,538655,539271,123
117,test,1,con,1,z,Fri Oct 11 2024 15:27:16 GMT-0500 (Central Daylight Time),543171.5,orange,900,I,z,z,None,380,181.0,199.0,18,1,1812.7000000029802,541358.799999997,7025,orange,NF,C,540905,540905,539275,540188,539275,541088,540705,540705,541088,124
118,test,1,con,1,z,Fri Oct 11 2024 15:27:16 GMT-0500 (Central Daylight Time),544987.3999999985,orange,1000,I,z,z,None,298,99.0,199.0,19,1,1812.3999999985099,543175.0,7025,orange,NF,C,542804,542804,541091,542104,541091,542904,542605,542605,542903,125
118,test,1,con,0,m,Fri Oct 11 2024 15:27:16 GMT-0500 (Central Daylight Time),546870.5,copper,900,I,z,z,None,446,245.0,201.0,74,1,1879.7000000029802,544990.799999997,7025,copper,NF,C,544538,544538,542907,543820,542907,544787,544337,544337,544786,126
119,test,1,con,1,m,Fri Oct 11 2024 15:27:16 GMT-0500 (Central Daylight Time),548769.799999997,cobalt,900,I,m,m,None,458,259.0,199.0,90,1,1895.6999999955297,546874.1000000015,7025,cobalt,NF,C,546420,546420,544790,545703,544790,546686,546220,546220,546686,127
120,test,1,inc,1,m,Fri Oct 11 2024 15:27:16 GMT-0500 (Central Daylight Time),550802.5,orange,1000,I,m,m,None,500,301.0,199.0,79,1,2029.0,548773.5,7025,copper,NF,C,548402,548402,546690,547702,546690,548719,548203,548203,548719,128
