acc_sum,block,block_c,change,condition,correct,correct_response,datetime,endtime,face,project,response,response_time,row_sel,session_number,start_end,starttime,subject_id,task,task_vers,trial
0,prac,1,,1-Back,,,Fri Feb 07 2025 13:18:16 GMT-0600 (Central Standard Time),,012_o_f_d_a.png,O,space,9745,1,1,,,7046,VNB,C,0
1,prac,1,0.0,1-Back,1,m,Fri Feb 07 2025 13:18:16 GMT-0600 (Central Standard Time),135919.79999999702,022_y_f_n_a.png,O,m,1017,2,1,1908.6999999955297,134011.1000000015,7046,VNB,C,1
2,prac,1,0.0,1-Back,1,m,Fri Feb 07 2025 13:18:16 GMT-0600 (Central Standard Time),137886.0,014_m_m_h_a.png,O,m,1092,3,1,1960.7000000029802,135925.29999999702,7046,VNB,C,2
3,prac,1,0.0,1-Back,1,m,Fri Feb 07 2025 13:18:16 GMT-0600 (Central Standard Time),139718.8999999985,025_y_m_d_a.png,O,m,954,4,1,1826.6000000014901,137892.29999999702,7046,VNB,C,3
4,prac,1,0.0,1-Back,1,m,Fri Feb 07 2025 13:18:16 GMT-0600 (Central Standard Time),142034.6000000015,012_o_f_n_a.png,O,m,1422,5,1,2310.3000000044703,139724.29999999702,7046,VNB,C,4
5,prac,1,1.0,1-Back,1,z,Fri Feb 07 2025 13:18:16 GMT-0600 (Central Standard Time),143867.29999999702,025_y_m_n_a.png,O,z,961,6,1,1826.5,142040.79999999702,7046,VNB,C,5
6,prac,1,0.0,1-Back,1,m,Fri Feb 07 2025 13:18:16 GMT-0600 (Central Standard Time),145699.79999999702,015_o_m_h_a.png,O,m,929,7,1,1825.6999999955297,143874.1000000015,7046,VNB,C,6
7,prac,1,0.0,1-Back,1,m,Fri Feb 07 2025 13:18:16 GMT-0600 (Central Standard Time),147632.79999999702,019_m_f_d_a.png,O,m,1035,8,1,1927.5,145705.29999999702,7046,VNB,C,7
8,prac,1,1.0,1-Back,1,z,Fri Feb 07 2025 13:18:16 GMT-0600 (Central Standard Time),149432.19999999553,022_y_f_d_a.png,O,z,893,9,1,1793.2999999970198,147638.8999999985,7046,VNB,C,8
9,prac,1,0.0,1-Back,1,m,Fri Feb 07 2025 13:18:16 GMT-0600 (Central Standard Time),151098.3999999985,014_m_m_n_a.png,O,m,790,10,1,1660.6000000014901,149437.79999999702,7046,VNB,C,9
10,prac,1,0.0,1-Back,1,m,Fri Feb 07 2025 13:18:16 GMT-0600 (Central Standard Time),152882.19999999553,012_o_f_h_a.png,O,m,877,11,1,1777.0999999940395,151105.1000000015,7046,VNB,C,10
11,prac,1,0.0,1-Back,1,m,Fri Feb 07 2025 13:18:16 GMT-0600 (Central Standard Time),154697.0,025_y_m_d_a.png,O,m,933,12,1,1808.5,152888.5,7046,VNB,C,11
0,test,1,0.0,1-Back,,,Fri Feb 07 2025 13:18:16 GMT-0600 (Central Standard Time),154697.0,022_y_f_d_a.png,O,space,8956,1,1,1808.5,152888.5,7046,VNB,C,0
1,test,1,0.0,1-Back,1,m,Fri Feb 07 2025 13:18:16 GMT-0600 (Central Standard Time),175190.79999999702,019_m_f_n_a.png,O,m,820,2,1,1845.0,173345.79999999702,7046,VNB,C,1
2,test,1,0.0,1-Back,1,m,Fri Feb 07 2025 13:18:16 GMT-0600 (Central Standard Time),177190.1000000015,015_o_m_h_a.png,O,m,929,3,1,1995.9000000059605,175194.19999999553,7046,VNB,C,2
3,test,1,1.0,1-Back,1,z,Fri Feb 07 2025 13:18:16 GMT-0600 (Central Standard Time),179289.5,014_m_m_h_a.png,O,z,1017,4,1,2095.89999999851,177193.6000000015,7046,VNB,C,3
4,test,1,0.0,1-Back,1,m,Fri Feb 07 2025 13:18:16 GMT-0600 (Central Standard Time),181005.6000000015,012_o_f_n_a.png,O,m,638,5,1,1712.3000000044703,179293.29999999702,7046,VNB,C,4
5,test,1,0.0,1-Back,1,m,Fri Feb 07 2025 13:18:16 GMT-0600 (Central Standard Time),182888.6000000015,025_y_m_d_a.png,O,m,802,6,1,1879.5,181009.1000000015,7046,VNB,C,5
6,test,1,1.0,1-Back,1,z,Fri Feb 07 2025 13:18:16 GMT-0600 (Central Standard Time),184821.0,019_m_f_d_a.png,O,z,855,7,1,1928.8999999985099,182892.1000000015,7046,VNB,C,6
7,test,1,0.0,1-Back,1,m,Fri Feb 07 2025 13:18:16 GMT-0600 (Central Standard Time),186553.8999999985,022_y_f_h_a.png,O,m,658,8,1,1728.2000000029802,184825.69999999553,7046,VNB,C,7
8,test,1,0.0,1-Back,1,m,Fri Feb 07 2025 13:18:16 GMT-0600 (Central Standard Time),188420.19999999553,015_o_m_n_a.png,O,m,798,9,1,1862.5999999940395,186557.6000000015,7046,VNB,C,8
9,test,1,0.0,1-Back,1,m,Fri Feb 07 2025 13:18:16 GMT-0600 (Central Standard Time),190236.19999999553,025_y_m_h_a.png,O,m,732,10,1,1811.8999999985099,188424.29999999702,7046,VNB,C,9
10,test,1,0.0,1-Back,1,m,Fri Feb 07 2025 13:18:16 GMT-0600 (Central Standard Time),192002.19999999553,015_o_m_d_a.png,O,m,684,11,1,1762.0999999940395,190240.1000000015,7046,VNB,C,10
11,test,1,1.0,1-Back,1,z,Fri Feb 07 2025 13:18:16 GMT-0600 (Central Standard Time),193834.79999999702,012_o_f_d_a.png,O,z,757,12,1,1828.6000000014901,192006.19999999553,7046,VNB,C,11
12,test,1,0.0,1-Back,1,m,Fri Feb 07 2025 13:18:16 GMT-0600 (Central Standard Time),195734.3999999985,014_m_m_n_a.png,O,m,821,13,1,1896.2000000029802,193838.19999999553,7046,VNB,C,12
13,test,1,1.0,1-Back,1,z,Fri Feb 07 2025 13:18:16 GMT-0600 (Central Standard Time),197584.0,022_y_f_n_a.png,O,z,786,14,1,1845.3000000044703,195738.69999999553,7046,VNB,C,13
14,test,1,0.0,1-Back,1,m,Fri Feb 07 2025 13:18:16 GMT-0600 (Central Standard Time),199366.69999999553,019_m_f_h_a.png,O,m,712,15,1,1779.2999999970198,197587.3999999985,7046,VNB,C,14
15,test,1,0.0,1-Back,1,m,Fri Feb 07 2025 13:18:16 GMT-0600 (Central Standard Time),201099.29999999702,014_m_m_d_a.png,O,m,648,16,1,1728.0,199371.29999999702,7046,VNB,C,15
16,test,1,0.0,1-Back,1,m,Fri Feb 07 2025 13:18:16 GMT-0600 (Central Standard Time),202998.8999999985,025_y_m_n_a.png,O,m,828,17,1,1895.7000000029802,201103.19999999553,7046,VNB,C,16
17,test,1,0.0,1-Back,1,m,Fri Feb 07 2025 13:18:16 GMT-0600 (Central Standard Time),204847.8999999985,012_o_f_h_a.png,O,m,775,18,1,1845.2000000029802,203002.69999999553,7046,VNB,C,17
0,test,2,0.0,1-Back,,,Fri Feb 07 2025 13:18:16 GMT-0600 (Central Standard Time),204847.8999999985,025_y_m_n_a.png,O,space,1787,1,1,1845.2000000029802,203002.69999999553,7046,VNB,C,0
1,test,2,0.0,1-Back,1,m,Fri Feb 07 2025 13:18:16 GMT-0600 (Central Standard Time),210463.19999999553,022_y_f_h_a.png,O,m,770,2,1,1795.3999999985099,208667.79999999702,7046,VNB,C,1
2,test,2,1.0,1-Back,1,m,Fri Feb 07 2025 13:18:16 GMT-0600 (Central Standard Time),212479.0,015_o_m_n_a.png,O,m,987,3,1,2011.8000000044703,210467.19999999553,7046,VNB,C,2
3,test,2,0.0,1-Back,1,m,Fri Feb 07 2025 13:18:16 GMT-0600 (Central Standard Time),214295.29999999702,019_m_f_d_a.png,O,m,794,4,1,1812.2999999970198,212483.0,7046,VNB,C,3
4,test,2,0.0,1-Back,1,z,Fri Feb 07 2025 13:18:16 GMT-0600 (Central Standard Time),215976.0,014_m_m_d_a.png,O,z,662,5,1,1677.2000000029802,214298.79999999702,7046,VNB,C,4
5,test,2,0.0,1-Back,1,m,Fri Feb 07 2025 13:18:16 GMT-0600 (Central Standard Time),217661.19999999553,025_y_m_h_a.png,O,m,656,6,1,1681.1999999955297,215980.0,7046,VNB,C,5
6,test,2,1.0,1-Back,1,z,Fri Feb 07 2025 13:18:16 GMT-0600 (Central Standard Time),219360.3999999985,012_o_f_h_a.png,O,z,669,7,1,1695.7999999970198,217664.6000000015,7046,VNB,C,6
7,test,2,0.0,1-Back,1,m,Fri Feb 07 2025 13:18:16 GMT-0600 (Central Standard Time),221059.69999999553,019_m_f_n_a.png,O,m,673,8,1,1694.7999999970198,219364.8999999985,7046,VNB,C,7
8,test,2,0.0,1-Back,1,m,Fri Feb 07 2025 13:18:16 GMT-0600 (Central Standard Time),222809.19999999553,022_y_f_d_a.png,O,m,718,9,1,1746.0,221063.19999999553,7046,VNB,C,8
9,test,2,0.0,1-Back,1,m,Fri Feb 07 2025 13:18:16 GMT-0600 (Central Standard Time),224692.1000000015,014_m_m_n_a.png,O,m,864,10,1,1878.8000000044703,222813.29999999702,7046,VNB,C,9
10,test,2,1.0,1-Back,1,m,Fri Feb 07 2025 13:18:16 GMT-0600 (Central Standard Time),226458.1000000015,019_m_f_h_a.png,O,m,708,11,1,1761.8000000044703,224696.29999999702,7046,VNB,C,10
11,test,2,0.0,1-Back,1,z,Fri Feb 07 2025 13:18:16 GMT-0600 (Central Standard Time),228307.6000000015,015_o_m_h_a.png,O,z,782,12,1,1845.4000000059605,226462.19999999553,7046,VNB,C,11
12,test,2,0.0,1-Back,1,m,Fri Feb 07 2025 13:18:16 GMT-0600 (Central Standard Time),230058.0,025_y_m_d_a.png,O,m,676,13,1,1747.0,228311.0,7046,VNB,C,12
13,test,2,0.0,1-Back,1,m,Fri Feb 07 2025 13:18:16 GMT-0600 (Central Standard Time),231906.3999999985,012_o_f_n_a.png,O,m,775,14,1,1843.7999999970198,230062.6000000015,7046,VNB,C,13
14,test,2,0.0,1-Back,1,z,Fri Feb 07 2025 13:18:16 GMT-0600 (Central Standard Time),233772.6000000015,022_y_f_n_a.png,O,z,789,15,1,1862.0,231910.6000000015,7046,VNB,C,14
15,test,2,1.0,1-Back,1,m,Fri Feb 07 2025 13:18:16 GMT-0600 (Central Standard Time),235555.6000000015,014_m_m_h_a.png,O,m,699,16,1,1778.8000000044703,233776.79999999702,7046,VNB,C,15
16,test,2,0.0,1-Back,1,m,Fri Feb 07 2025 13:18:16 GMT-0600 (Central Standard Time),237338.1000000015,012_o_f_d_a.png,O,m,700,17,1,1778.8000000044703,235559.29999999702,7046,VNB,C,16
17,test,2,1.0,1-Back,1,z,Fri Feb 07 2025 13:18:16 GMT-0600 (Central Standard Time),239170.8999999985,015_o_m_d_a.png,O,z,749,18,1,1828.8999999985099,237342.0,7046,VNB,C,17
0,test,3,1.0,1-Back,,,Fri Feb 07 2025 13:18:16 GMT-0600 (Central Standard Time),239170.8999999985,012_o_f_h_a.png,O,space,2512,1,1,1828.8999999985099,237342.0,7046,VNB,C,0
1,test,3,0.0,1-Back,1,m,Fri Feb 07 2025 13:18:16 GMT-0600 (Central Standard Time),245718.69999999553,019_m_f_d_a.png,O,m,828,2,1,1895.5,243823.19999999553,7046,VNB,C,1
2,test,3,1.0,1-Back,1,m,Fri Feb 07 2025 13:18:16 GMT-0600 (Central Standard Time),247601.5,014_m_m_n_a.png,O,m,809,3,1,1878.3000000044703,245723.19999999553,7046,VNB,C,2
3,test,3,0.0,1-Back,1,z,Fri Feb 07 2025 13:18:16 GMT-0600 (Central Standard Time),249367.69999999553,012_o_f_n_a.png,O,z,694,4,1,1761.7999999970198,247605.8999999985,7046,VNB,C,3
4,test,3,1.0,1-Back,1,m,Fri Feb 07 2025 13:18:16 GMT-0600 (Central Standard Time),251167.0,015_o_m_d_a.png,O,m,720,5,1,1795.2000000029802,249371.79999999702,7046,VNB,C,4
5,test,3,0.0,1-Back,1,m,Fri Feb 07 2025 13:18:16 GMT-0600 (Central Standard Time),253033.1000000015,022_y_f_h_a.png,O,m,785,6,1,1862.1000000014901,251171.0,7046,VNB,C,5
6,test,3,0.0,1-Back,1,z,Fri Feb 07 2025 13:18:16 GMT-0600 (Central Standard Time),255065.79999999702,025_y_m_h_a.png,O,z,951,7,1,2028.6000000014901,253037.19999999553,7046,VNB,C,6
7,test,3,0.0,1-Back,1,m,Fri Feb 07 2025 13:18:16 GMT-0600 (Central Standard Time),256765.3999999985,019_m_f_n_a.png,O,m,622,8,1,1695.5,255069.8999999985,7046,VNB,C,7
8,test,3,0.0,1-Back,1,m,Fri Feb 07 2025 13:18:16 GMT-0600 (Central Standard Time),258631.3999999985,022_y_f_d_a.png,O,m,794,9,1,1861.6000000014901,256769.79999999702,7046,VNB,C,8
9,test,3,1.0,1-Back,1,m,Fri Feb 07 2025 13:18:16 GMT-0600 (Central Standard Time),260514.1000000015,015_o_m_n_a.png,O,m,801,10,1,1879.3000000044703,258634.79999999702,7046,VNB,C,9
10,test,3,0.0,1-Back,1,m,Fri Feb 07 2025 13:18:16 GMT-0600 (Central Standard Time),262380.1000000015,014_m_m_h_a.png,O,m,797,11,1,1861.4000000059605,260518.69999999553,7046,VNB,C,10
11,test,3,0.0,1-Back,1,z,Fri Feb 07 2025 13:18:16 GMT-0600 (Central Standard Time),264179.8999999985,019_m_f_h_a.png,O,z,731,12,1,1795.8999999985099,262384.0,7046,VNB,C,11
12,test,3,1.0,1-Back,1,m,Fri Feb 07 2025 13:18:16 GMT-0600 (Central Standard Time),265979.5,012_o_f_d_a.png,O,m,724,13,1,1795.6000000014901,264183.8999999985,7046,VNB,C,12
13,test,3,0.0,1-Back,1,z,Fri Feb 07 2025 13:18:16 GMT-0600 (Central Standard Time),267795.5,014_m_m_d_a.png,O,z,783,14,1,1812.3000000044703,265983.19999999553,7046,VNB,C,13
14,test,3,0.0,1-Back,1,m,Fri Feb 07 2025 13:18:16 GMT-0600 (Central Standard Time),269644.5,025_y_m_n_a.png,O,m,780,15,1,1844.8999999985099,267799.6000000015,7046,VNB,C,14
15,test,3,1.0,1-Back,1,m,Fri Feb 07 2025 13:18:16 GMT-0600 (Central Standard Time),271610.8999999985,015_o_m_h_a.png,O,m,891,16,1,1961.8999999985099,269649.0,7046,VNB,C,15
16,test,3,0.0,1-Back,1,m,Fri Feb 07 2025 13:18:16 GMT-0600 (Central Standard Time),273626.6000000015,025_y_m_d_a.png,O,m,950,17,1,2012.0,271614.6000000015,7046,VNB,C,16
17,test,3,1.0,1-Back,1,m,Fri Feb 07 2025 13:18:16 GMT-0600 (Central Standard Time),275459.69999999553,022_y_f_n_a.png,O,m,766,18,1,1829.0,273630.69999999553,7046,VNB,C,17
0,test,4,1.0,1-Back,,,Fri Feb 07 2025 13:18:16 GMT-0600 (Central Standard Time),275459.69999999553,014_m_m_d_a.png,O,space,1047,1,1,1829.0,273630.69999999553,7046,VNB,C,0
1,test,4,0.0,1-Back,1,z,Fri Feb 07 2025 13:18:16 GMT-0600 (Central Standard Time),280541.0,015_o_m_d_a.png,O,z,997,2,1,2011.8999999985099,278529.1000000015,7046,VNB,C,1
2,test,4,0.0,1-Back,1,m,Fri Feb 07 2025 13:18:16 GMT-0600 (Central Standard Time),282207.3999999985,025_y_m_h_a.png,O,m,636,3,1,1663.2000000029802,280544.19999999553,7046,VNB,C,2
3,test,4,0.0,1-Back,1,m,Fri Feb 07 2025 13:18:16 GMT-0600 (Central Standard Time),284389.8999999985,019_m_f_n_a.png,O,m,1162,4,1,2177.89999999851,282212.0,7046,VNB,C,3
4,test,4,1.0,1-Back,1,m,Fri Feb 07 2025 13:18:16 GMT-0600 (Central Standard Time),286189.5,012_o_f_h_a.png,O,m,772,5,1,1795.5,284394.0,7046,VNB,C,4
5,test,4,0.0,1-Back,1,m,Fri Feb 07 2025 13:18:16 GMT-0600 (Central Standard Time),288055.69999999553,014_m_m_n_a.png,O,m,836,6,1,1862.0,286193.69999999553,7046,VNB,C,5
6,test,4,0.0,1-Back,1,m,Fri Feb 07 2025 13:18:16 GMT-0600 (Central Standard Time),290155.0,025_y_m_d_a.png,O,m,1074,7,1,2095.39999999851,288059.6000000015,7046,VNB,C,6
7,test,4,1.0,1-Back,1,z,Fri Feb 07 2025 13:18:16 GMT-0600 (Central Standard Time),291837.8999999985,022_y_f_d_a.png,O,z,655,8,1,1679.5,290158.3999999985,7046,VNB,C,7
8,test,4,0.0,1-Back,1,m,Fri Feb 07 2025 13:18:16 GMT-0600 (Central Standard Time),293470.6000000015,019_m_f_h_a.png,O,m,612,9,1,1628.6000000014901,291842.0,7046,VNB,C,8
9,test,4,0.0,1-Back,1,z,Fri Feb 07 2025 13:18:16 GMT-0600 (Central Standard Time),295486.799999997,015_o_m_h_a.png,O,z,995,10,1,2011.7999999970198,293475.0,7046,VNB,C,9
10,test,4,1.0,1-Back,1,m,Fri Feb 07 2025 13:18:16 GMT-0600 (Central Standard Time),297085.8999999985,012_o_f_n_a.png,O,m,579,11,1,1594.3999999985099,295491.5,7046,VNB,C,10
11,test,4,0.0,1-Back,1,m,Fri Feb 07 2025 13:18:16 GMT-0600 (Central Standard Time),298818.799999997,019_m_f_d_a.png,O,m,708,12,1,1728.8999999985099,297089.8999999985,7046,VNB,C,11
12,test,4,0.0,1-Back,1,m,Fri Feb 07 2025 13:18:16 GMT-0600 (Central Standard Time),300668.19999999553,022_y_f_n_a.png,O,m,831,13,1,1846.2999999970198,298821.8999999985,7046,VNB,C,12
13,test,4,0.0,1-Back,1,m,Fri Feb 07 2025 13:18:16 GMT-0600 (Central Standard Time),302384.5,012_o_f_d_a.png,O,m,685,14,1,1712.6000000014901,300671.8999999985,7046,VNB,C,13
14,test,4,0.0,1-Back,1,m,Fri Feb 07 2025 13:18:16 GMT-0600 (Central Standard Time),304100.3999999985,022_y_f_h_a.png,O,m,697,15,1,1712.1000000014901,302388.299999997,7046,VNB,C,14
15,test,4,1.0,1-Back,1,z,Fri Feb 07 2025 13:18:16 GMT-0600 (Central Standard Time),305750.0,014_m_m_h_a.png,O,z,621,16,1,1646.5,304103.5,7046,VNB,C,15
16,test,4,0.0,1-Back,1,m,Fri Feb 07 2025 13:18:16 GMT-0600 (Central Standard Time),307483.799999997,015_o_m_n_a.png,O,m,708,17,1,1729.5,305754.299999997,7046,VNB,C,16
16,test,4,1.0,1-Back,0,z,Fri Feb 07 2025 13:18:16 GMT-0600 (Central Standard Time),309532.1000000015,025_y_m_n_a.png,O,m,1031,18,1,2044.2000000029802,307487.8999999985,7046,VNB,C,17
0,test,5,1.0,1-Back,,,Fri Feb 07 2025 13:18:16 GMT-0600 (Central Standard Time),309532.1000000015,015_o_m_n_a.png,O,space,1103,1,1,2044.2000000029802,307487.8999999985,7046,VNB,C,0
1,test,5,1.0,1-Back,1,m,Fri Feb 07 2025 13:18:16 GMT-0600 (Central Standard Time),314297.3999999985,012_o_f_h_a.png,O,m,609,2,1,1628.0,312669.3999999985,7046,VNB,C,1
2,test,5,0.0,1-Back,1,m,Fri Feb 07 2025 13:18:16 GMT-0600 (Central Standard Time),316080.19999999553,025_y_m_d_a.png,O,m,702,3,1,1778.6999999955297,314301.5,7046,VNB,C,2
2,test,5,0.0,1-Back,0,z,Fri Feb 07 2025 13:18:16 GMT-0600 (Central Standard Time),318079.5,015_o_m_d_a.png,O,m,928,4,1,1995.2000000029802,316084.299999997,7046,VNB,C,3
3,test,5,0.0,1-Back,1,m,Fri Feb 07 2025 13:18:16 GMT-0600 (Central Standard Time),319795.69999999553,019_m_f_h_a.png,O,m,641,5,1,1711.7999999970198,318083.8999999985,7046,VNB,C,4
4,test,5,0.0,1-Back,1,m,Fri Feb 07 2025 13:18:16 GMT-0600 (Central Standard Time),321595.0,022_y_f_n_a.png,O,m,716,6,1,1795.5,319799.5,7046,VNB,C,5
5,test,5,1.0,1-Back,1,z,Fri Feb 07 2025 13:18:16 GMT-0600 (Central Standard Time),323727.6000000015,012_o_f_n_a.png,O,z,1053,7,1,2129.2000000029802,321598.3999999985,7046,VNB,C,6
6,test,5,0.0,1-Back,1,m,Fri Feb 07 2025 13:18:16 GMT-0600 (Central Standard Time),325443.8999999985,019_m_f_d_a.png,O,m,640,8,1,1712.3999999985099,323731.5,7046,VNB,C,7
7,test,5,0.0,1-Back,1,m,Fri Feb 07 2025 13:18:16 GMT-0600 (Central Standard Time),327126.799999997,025_y_m_h_a.png,O,m,604,9,1,1679.0,325447.799999997,7046,VNB,C,8
8,test,5,0.0,1-Back,1,m,Fri Feb 07 2025 13:18:16 GMT-0600 (Central Standard Time),328826.1000000015,022_y_f_d_a.png,O,m,625,10,1,1695.2000000029802,327130.8999999985,7046,VNB,C,9
9,test,5,0.0,1-Back,1,m,Fri Feb 07 2025 13:18:16 GMT-0600 (Central Standard Time),330542.3999999985,014_m_m_n_a.png,O,m,637,11,1,1712.1000000014901,328830.299999997,7046,VNB,C,10
10,test,5,1.0,1-Back,1,z,Fri Feb 07 2025 13:18:16 GMT-0600 (Central Standard Time),332291.8999999985,019_m_f_n_a.png,O,z,665,12,1,1745.2000000029802,330546.69999999553,7046,VNB,C,11
11,test,5,0.0,1-Back,1,m,Fri Feb 07 2025 13:18:16 GMT-0600 (Central Standard Time),334091.1000000015,015_o_m_h_a.png,O,m,724,13,1,1796.1000000014901,332295.0,7046,VNB,C,12
12,test,5,0.0,1-Back,1,z,Fri Feb 07 2025 13:18:16 GMT-0600 (Central Standard Time),335924.0,014_m_m_h_a.png,O,z,755,14,1,1829.5,334094.5,7046,VNB,C,13
13,test,5,1.0,1-Back,1,m,Fri Feb 07 2025 13:18:16 GMT-0600 (Central Standard Time),337557.0,012_o_f_d_a.png,O,m,572,15,1,1629.1000000014901,335927.8999999985,7046,VNB,C,14
14,test,5,0.0,1-Back,1,m,Fri Feb 07 2025 13:18:16 GMT-0600 (Central Standard Time),339172.69999999553,025_y_m_n_a.png,O,m,547,16,1,1611.7999999970198,337560.8999999985,7046,VNB,C,15
15,test,5,0.0,1-Back,1,m,Fri Feb 07 2025 13:18:16 GMT-0600 (Central Standard Time),340788.8999999985,022_y_f_h_a.png,O,m,539,17,1,1612.8999999985099,339176.0,7046,VNB,C,16
16,test,5,0.0,1-Back,1,m,Fri Feb 07 2025 13:18:16 GMT-0600 (Central Standard Time),342421.8999999985,014_m_m_d_a.png,O,m,538,18,1,1629.8999999985099,340792.0,7046,VNB,C,17
0,prac,1,0.0,2-Back,,,Fri Feb 07 2025 13:18:16 GMT-0600 (Central Standard Time),342421.8999999985,019_m_f_n_a.png,O,space,13589,1,1,1629.8999999985099,340792.0,7046,VNB,C,0
0,prac,1,0.0,2-Back,,,Fri Feb 07 2025 13:18:16 GMT-0600 (Central Standard Time),342421.8999999985,012_o_f_h_a.png,O,space,13589,2,1,1629.8999999985099,340792.0,7046,VNB,C,0
1,prac,1,0.0,2-Back,1,m,Fri Feb 07 2025 13:18:16 GMT-0600 (Central Standard Time),458985.6000000015,015_o_m_d_a.png,O,m,1149,3,1,2041.8000000044703,456943.799999997,7046,VNB,C,1
2,prac,1,1.0,2-Back,1,z,Fri Feb 07 2025 13:18:16 GMT-0600 (Central Standard Time),461286.0,014_m_m_h_a.png,O,z,1419,4,1,2295.10000000149,458990.8999999985,7046,VNB,C,2
3,prac,1,0.0,2-Back,1,m,Fri Feb 07 2025 13:18:16 GMT-0600 (Central Standard Time),463084.1000000015,022_y_f_n_a.png,O,m,908,5,1,1792.9000000059605,461291.19999999553,7046,VNB,C,3
4,prac,1,1.0,2-Back,1,z,Fri Feb 07 2025 13:18:16 GMT-0600 (Central Standard Time),465016.8999999985,015_o_m_h_a.png,O,z,1027,6,1,1926.8999999985099,463090.0,7046,VNB,C,4
4,prac,1,1.0,2-Back,0,z,Fri Feb 07 2025 13:18:16 GMT-0600 (Central Standard Time),466950.0,025_y_m_n_a.png,O,m,1051,7,1,1926.7000000029802,465023.299999997,7046,VNB,C,5
5,prac,1,0.0,2-Back,1,m,Fri Feb 07 2025 13:18:16 GMT-0600 (Central Standard Time),468732.5,019_m_f_d_a.png,O,m,889,8,1,1776.6000000014901,466955.8999999985,7046,VNB,C,6
5,prac,1,0.0,2-Back,0,m,Fri Feb 07 2025 13:18:16 GMT-0600 (Central Standard Time),470731.799999997,012_o_f_d_a.png,O,z,1109,9,1,1992.8999999985099,468738.8999999985,7046,VNB,C,7
6,prac,1,0.0,2-Back,1,m,Fri Feb 07 2025 13:18:16 GMT-0600 (Central Standard Time),472464.69999999553,014_m_m_h_a.png,O,m,945,10,1,1727.6999999955297,470737.0,7046,VNB,C,8
7,prac,1,1.0,2-Back,1,z,Fri Feb 07 2025 13:18:16 GMT-0600 (Central Standard Time),474348.3999999985,022_y_f_d_a.png,O,z,983,11,1,1878.2000000029802,472470.19999999553,7046,VNB,C,9
8,prac,1,0.0,2-Back,1,m,Fri Feb 07 2025 13:18:16 GMT-0600 (Central Standard Time),476097.0,015_o_m_n_a.png,O,m,842,12,1,1742.1000000014901,474354.8999999985,7046,VNB,C,10
0,test,1,0.0,2-Back,,,Fri Feb 07 2025 13:18:16 GMT-0600 (Central Standard Time),476097.0,025_y_m_h_a.png,O,space,12284,1,1,1742.1000000014901,474354.8999999985,7046,VNB,C,0
0,test,1,0.0,2-Back,,,Fri Feb 07 2025 13:18:16 GMT-0600 (Central Standard Time),476097.0,012_o_f_n_a.png,O,space,12284,2,1,1742.1000000014901,474354.8999999985,7046,VNB,C,0
1,test,1,0.0,2-Back,1,z,Fri Feb 07 2025 13:18:16 GMT-0600 (Central Standard Time),507038.0,015_o_m_h_a.png,O,z,1205,3,1,2228.89999999851,504809.1000000015,7046,VNB,C,1
2,test,1,0.0,2-Back,1,m,Fri Feb 07 2025 13:18:16 GMT-0600 (Central Standard Time),508936.6000000015,019_m_f_d_a.png,O,m,869,4,1,1895.6000000014901,507041.0,7046,VNB,C,2
3,test,1,1.0,2-Back,1,m,Fri Feb 07 2025 13:18:16 GMT-0600 (Central Standard Time),511036.1000000015,025_y_m_n_a.png,O,m,1081,5,1,2095.60000000149,508940.5,7046,VNB,C,3
4,test,1,0.0,2-Back,1,z,Fri Feb 07 2025 13:18:16 GMT-0600 (Central Standard Time),512985.5,022_y_f_d_a.png,O,z,925,6,1,1945.2000000029802,511040.299999997,7046,VNB,C,4
5,test,1,0.0,2-Back,1,m,Fri Feb 07 2025 13:18:16 GMT-0600 (Central Standard Time),514801.19999999553,014_m_m_h_a.png,O,m,784,7,1,1811.8999999985099,512989.299999997,7046,VNB,C,5
6,test,1,1.0,2-Back,1,m,Fri Feb 07 2025 13:18:16 GMT-0600 (Central Standard Time),516634.19999999553,022_y_f_n_a.png,O,m,809,8,1,1829.0999999940395,514805.1000000015,7046,VNB,C,6
7,test,1,0.0,2-Back,1,z,Fri Feb 07 2025 13:18:16 GMT-0600 (Central Standard Time),518333.6000000015,012_o_f_h_a.png,O,z,679,9,1,1695.7000000029802,516637.8999999985,7046,VNB,C,7
8,test,1,0.0,2-Back,1,m,Fri Feb 07 2025 13:18:16 GMT-0600 (Central Standard Time),520132.8999999985,015_o_m_d_a.png,O,m,780,10,1,1795.5,518337.3999999985,7046,VNB,C,8
9,test,1,1.0,2-Back,1,m,Fri Feb 07 2025 13:18:16 GMT-0600 (Central Standard Time),522048.799999997,014_m_m_d_a.png,O,m,889,11,1,1912.3999999985099,520136.3999999985,7046,VNB,C,9
10,test,1,0.0,2-Back,1,m,Fri Feb 07 2025 13:18:16 GMT-0600 (Central Standard Time),523998.799999997,019_m_f_n_a.png,O,m,921,12,1,1946.1000000014901,522052.69999999553,7046,VNB,C,10
11,test,1,0.0,2-Back,1,m,Fri Feb 07 2025 13:18:16 GMT-0600 (Central Standard Time),525948.1000000015,022_y_f_h_a.png,O,m,931,13,1,1946.1000000014901,524002.0,7046,VNB,C,11
12,test,1,0.0,2-Back,1,z,Fri Feb 07 2025 13:18:16 GMT-0600 (Central Standard Time),527664.1999999955,014_m_m_n_a.png,O,z,694,14,1,1713.0,525951.1999999955,7046,VNB,C,12
13,test,1,0.0,2-Back,1,m,Fri Feb 07 2025 13:18:16 GMT-0600 (Central Standard Time),529513.6000000015,025_y_m_d_a.png,O,m,818,15,1,1845.7000000029802,527667.8999999985,7046,VNB,C,13
14,test,1,1.0,2-Back,1,m,Fri Feb 07 2025 13:18:16 GMT-0600 (Central Standard Time),531346.0,019_m_f_h_a.png,O,m,809,16,1,1829.2000000029802,529516.799999997,7046,VNB,C,14
14,test,1,0.0,2-Back,0,z,Fri Feb 07 2025 13:18:16 GMT-0600 (Central Standard Time),533145.6000000015,012_o_f_d_a.png,O,m,776,17,1,1796.0,531349.6000000015,7046,VNB,C,15
15,test,1,0.0,2-Back,1,m,Fri Feb 07 2025 13:18:16 GMT-0600 (Central Standard Time),534978.5,015_o_m_n_a.png,O,m,808,18,1,1828.7000000029802,533149.799999997,7046,VNB,C,16
0,test,2,0.0,2-Back,,,Fri Feb 07 2025 13:18:16 GMT-0600 (Central Standard Time),534978.5,014_m_m_h_a.png,O,space,1992,1,1,1828.7000000029802,533149.799999997,7046,VNB,C,0
0,test,2,0.0,2-Back,,,Fri Feb 07 2025 13:18:16 GMT-0600 (Central Standard Time),534978.5,022_y_f_n_a.png,O,space,1992,2,1,1828.7000000029802,533149.799999997,7046,VNB,C,0
1,test,2,1.0,2-Back,1,z,Fri Feb 07 2025 13:18:16 GMT-0600 (Central Standard Time),544392.1000000015,012_o_f_h_a.png,O,z,1144,3,1,2162.4000000059605,542229.6999999955,7046,VNB,C,1
2,test,2,0.0,2-Back,1,m,Fri Feb 07 2025 13:18:16 GMT-0600 (Central Standard Time),546508.299999997,015_o_m_d_a.png,O,m,1084,4,1,2112.10000000149,544396.1999999955,7046,VNB,C,2
3,test,2,0.0,2-Back,1,m,Fri Feb 07 2025 13:18:16 GMT-0600 (Central Standard Time),548924.1000000015,019_m_f_d_a.png,O,m,1389,5,1,2411.60000000149,546512.5,7046,VNB,C,3
4,test,2,0.0,2-Back,1,m,Fri Feb 07 2025 13:18:16 GMT-0600 (Central Standard Time),551056.6000000015,025_y_m_h_a.png,O,m,1102,6,1,2128.4000000059605,548928.1999999955,7046,VNB,C,4
5,test,2,0.0,2-Back,1,m,Fri Feb 07 2025 13:18:16 GMT-0600 (Central Standard Time),553239.3999999985,012_o_f_n_a.png,O,m,1161,7,1,2179.0,551060.3999999985,7046,VNB,C,5
6,test,2,1.0,2-Back,1,z,Fri Feb 07 2025 13:18:16 GMT-0600 (Central Standard Time),555372.299999997,015_o_m_h_a.png,O,z,1098,8,1,2129.10000000149,553243.1999999955,7046,VNB,C,6
7,test,2,0.0,2-Back,1,m,Fri Feb 07 2025 13:18:16 GMT-0600 (Central Standard Time),557454.8999999985,022_y_f_d_a.png,O,m,1062,9,1,2079.0,555375.8999999985,7046,VNB,C,7
8,test,2,0.0,2-Back,1,m,Fri Feb 07 2025 13:18:16 GMT-0600 (Central Standard Time),560054.0,025_y_m_d_a.png,O,m,1579,10,1,2595.7000000029802,557458.299999997,7046,VNB,C,8
9,test,2,0.0,2-Back,1,m,Fri Feb 07 2025 13:18:16 GMT-0600 (Central Standard Time),562820.1000000015,014_m_m_n_a.png,O,m,1748,11,1,2762.3000000044703,560057.799999997,7046,VNB,C,9
10,test,2,0.0,2-Back,1,m,Fri Feb 07 2025 13:18:16 GMT-0600 (Central Standard Time),565752.1999999955,019_m_f_h_a.png,O,m,1902,12,1,2928.89999999851,562823.299999997,7046,VNB,C,10
10,test,2,1.0,2-Back,0,z,Fri Feb 07 2025 13:18:16 GMT-0600 (Central Standard Time),568018.1999999955,015_o_m_n_a.png,O,m,1242,13,1,2262.39999999851,565755.799999997,7046,VNB,C,11
11,test,2,0.0,2-Back,1,m,Fri Feb 07 2025 13:18:16 GMT-0600 (Central Standard Time),570300.6999999955,012_o_f_d_a.png,O,m,1195,14,1,2278.1999999955297,568022.5,7046,VNB,C,12
12,test,2,0.0,2-Back,1,m,Fri Feb 07 2025 13:18:16 GMT-0600 (Central Standard Time),572883.1999999955,022_y_f_h_a.png,O,m,1557,15,1,2578.5,570304.6999999955,7046,VNB,C,13
13,test,2,0.0,2-Back,1,z,Fri Feb 07 2025 13:18:16 GMT-0600 (Central Standard Time),575132.5,014_m_m_d_a.png,O,z,1223,16,1,2245.89999999851,572886.6000000015,7046,VNB,C,14
14,test,2,0.0,2-Back,1,m,Fri Feb 07 2025 13:18:16 GMT-0600 (Central Standard Time),577148.6000000015,025_y_m_n_a.png,O,m,989,17,1,2011.9000000059605,575136.6999999955,7046,VNB,C,15
15,test,2,1.0,2-Back,1,m,Fri Feb 07 2025 13:18:16 GMT-0600 (Central Standard Time),579664.5,019_m_f_n_a.png,O,m,1485,18,1,2512.10000000149,577152.3999999985,7046,VNB,C,16
0,test,3,1.0,2-Back,,,Fri Feb 07 2025 13:18:16 GMT-0600 (Central Standard Time),579664.5,015_o_m_n_a.png,O,space,2410,1,1,2512.10000000149,577152.3999999985,7046,VNB,C,0
0,test,3,1.0,2-Back,,,Fri Feb 07 2025 13:18:16 GMT-0600 (Central Standard Time),579664.5,012_o_f_d_a.png,O,space,2410,2,1,2512.10000000149,577152.3999999985,7046,VNB,C,0
1,test,3,0.0,2-Back,1,m,Fri Feb 07 2025 13:18:16 GMT-0600 (Central Standard Time),589694.6999999955,022_y_f_h_a.png,O,m,1304,3,1,2328.89999999851,587365.799999997,7046,VNB,C,1
1,test,3,0.0,2-Back,0,z,Fri Feb 07 2025 13:18:16 GMT-0600 (Central Standard Time),592094.1999999955,019_m_f_d_a.png,O,m,1379,4,1,2395.5,589698.6999999955,7046,VNB,C,2
2,test,3,1.0,2-Back,1,m,Fri Feb 07 2025 13:18:16 GMT-0600 (Central Standard Time),594076.5,025_y_m_n_a.png,O,m,964,5,1,1978.2000000029802,592098.299999997,7046,VNB,C,3
3,test,3,0.0,2-Back,1,m,Fri Feb 07 2025 13:18:16 GMT-0600 (Central Standard Time),596292.6000000015,015_o_m_h_a.png,O,m,1189,6,1,2212.4000000059605,594080.1999999955,7046,VNB,C,4
4,test,3,0.0,2-Back,1,z,Fri Feb 07 2025 13:18:16 GMT-0600 (Central Standard Time),598225.3999999985,022_y_f_n_a.png,O,z,901,7,1,1929.2999999970198,596296.1000000015,7046,VNB,C,5
5,test,3,1.0,2-Back,1,m,Fri Feb 07 2025 13:18:16 GMT-0600 (Central Standard Time),600224.6999999955,014_m_m_d_a.png,O,m,968,8,1,1995.6999999955297,598229.0,7046,VNB,C,6
6,test,3,0.0,2-Back,1,m,Fri Feb 07 2025 13:18:16 GMT-0600 (Central Standard Time),602323.8999999985,025_y_m_d_a.png,O,m,1073,9,1,2094.7999999970198,600229.1000000015,7046,VNB,C,7
7,test,3,0.0,2-Back,1,m,Fri Feb 07 2025 13:18:16 GMT-0600 (Central Standard Time),604356.6000000015,012_o_f_h_a.png,O,m,1014,10,1,2029.3000000044703,602327.299999997,7046,VNB,C,8
8,test,3,1.0,2-Back,1,m,Fri Feb 07 2025 13:18:16 GMT-0600 (Central Standard Time),606372.5,019_m_f_n_a.png,O,m,997,11,1,2012.8999999985099,604359.6000000015,7046,VNB,C,9
9,test,3,1.0,2-Back,1,z,Fri Feb 07 2025 13:18:16 GMT-0600 (Central Standard Time),608338.8999999985,014_m_m_h_a.png,O,z,941,12,1,1962.6000000014901,606376.299999997,7046,VNB,C,10
10,test,3,0.0,2-Back,1,m,Fri Feb 07 2025 13:18:16 GMT-0600 (Central Standard Time),610371.3999999985,022_y_f_d_a.png,O,m,1007,13,1,2029.2999999970198,608342.1000000015,7046,VNB,C,11
11,test,3,0.0,2-Back,1,m,Fri Feb 07 2025 13:18:16 GMT-0600 (Central Standard Time),612337.6999999955,012_o_f_n_a.png,O,m,942,14,1,1962.5,610375.1999999955,7046,VNB,C,12
12,test,3,0.0,2-Back,1,z,Fri Feb 07 2025 13:18:16 GMT-0600 (Central Standard Time),614253.5,015_o_m_d_a.png,O,z,888,15,1,1912.5,612341.0,7046,VNB,C,13
12,test,3,1.0,2-Back,0,m,Fri Feb 07 2025 13:18:16 GMT-0600 (Central Standard Time),616502.8999999985,019_m_f_h_a.png,O,z,1228,16,1,2246.2000000029802,614256.6999999955,7046,VNB,C,14
13,test,3,0.0,2-Back,1,m,Fri Feb 07 2025 13:18:16 GMT-0600 (Central Standard Time),618285.6999999955,014_m_m_n_a.png,O,m,763,17,1,1778.5999999940395,616507.1000000015,7046,VNB,C,15
14,test,3,0.0,2-Back,1,z,Fri Feb 07 2025 13:18:16 GMT-0600 (Central Standard Time),620168.5,025_y_m_h_a.png,O,z,860,18,1,1878.8999999985099,618289.6000000015,7046,VNB,C,16
0,test,4,0.0,2-Back,,,Fri Feb 07 2025 13:18:16 GMT-0600 (Central Standard Time),620168.5,019_m_f_n_a.png,O,space,2090,1,1,1878.8999999985099,618289.6000000015,7046,VNB,C,0
0,test,4,0.0,2-Back,,,Fri Feb 07 2025 13:18:16 GMT-0600 (Central Standard Time),620168.5,015_o_m_n_a.png,O,space,2090,2,1,1878.8999999985099,618289.6000000015,7046,VNB,C,0
1,test,4,1.0,2-Back,1,m,Fri Feb 07 2025 13:18:16 GMT-0600 (Central Standard Time),629615.6000000015,025_y_m_h_a.png,O,m,994,3,1,2062.10000000149,627553.5,7046,VNB,C,1
2,test,4,1.0,2-Back,1,m,Fri Feb 07 2025 13:18:16 GMT-0600 (Central Standard Time),631614.8999999985,012_o_f_d_a.png,O,m,928,4,1,1995.5,629619.3999999985,7046,VNB,C,2
3,test,4,0.0,2-Back,1,z,Fri Feb 07 2025 13:18:16 GMT-0600 (Central Standard Time),633447.6000000015,015_o_m_h_a.png,O,z,761,5,1,1828.9000000059605,631618.6999999955,7046,VNB,C,3
4,test,4,0.0,2-Back,1,m,Fri Feb 07 2025 13:18:16 GMT-0600 (Central Standard Time),635430.299999997,014_m_m_n_a.png,O,m,904,6,1,1978.8999999985099,633451.3999999985,7046,VNB,C,4
5,test,4,0.0,2-Back,1,m,Fri Feb 07 2025 13:18:16 GMT-0600 (Central Standard Time),637529.6999999955,019_m_f_d_a.png,O,m,1025,7,1,2095.1999999955297,635434.5,7046,VNB,C,5
5,test,4,0.0,2-Back,0,z,Fri Feb 07 2025 13:18:16 GMT-0600 (Central Standard Time),639878.6999999955,022_y_f_n_a.png,O,m,1270,8,1,2345.1999999955297,637533.5,7046,VNB,C,6
6,test,4,1.0,2-Back,1,m,Fri Feb 07 2025 13:18:16 GMT-0600 (Central Standard Time),641828.3999999985,012_o_f_h_a.png,O,m,881,9,1,1946.1000000014901,639882.299999997,7046,VNB,C,7
7,test,4,0.0,2-Back,1,m,Fri Feb 07 2025 13:18:16 GMT-0600 (Central Standard Time),643811.1000000015,014_m_m_h_a.png,O,m,957,10,1,1979.7000000029802,641831.3999999985,7046,VNB,C,8
8,test,4,0.0,2-Back,1,m,Fri Feb 07 2025 13:18:16 GMT-0600 (Central Standard Time),645927.1999999955,022_y_f_d_a.png,O,m,1045,11,1,2112.2999999970198,643814.8999999985,7046,VNB,C,9
9,test,4,0.0,2-Back,1,m,Fri Feb 07 2025 13:18:16 GMT-0600 (Central Standard Time),647876.3999999985,025_y_m_n_a.png,O,m,931,12,1,1945.2999999970198,645931.1000000015,7046,VNB,C,10
10,test,4,0.0,2-Back,1,z,Fri Feb 07 2025 13:18:16 GMT-0600 (Central Standard Time),649775.799999997,015_o_m_d_a.png,O,z,869,13,1,1896.2999999970198,647879.5,7046,VNB,C,11
11,test,4,1.0,2-Back,1,m,Fri Feb 07 2025 13:18:16 GMT-0600 (Central Standard Time),651642.1000000015,019_m_f_h_a.png,O,m,834,14,1,1862.7000000029802,649779.3999999985,7046,VNB,C,12
12,test,4,1.0,2-Back,1,m,Fri Feb 07 2025 13:18:16 GMT-0600 (Central Standard Time),653691.3999999985,022_y_f_h_a.png,O,m,1016,15,1,2045.2000000029802,651646.1999999955,7046,VNB,C,13
13,test,4,0.0,2-Back,1,m,Fri Feb 07 2025 13:18:16 GMT-0600 (Central Standard Time),655907.299999997,012_o_f_n_a.png,O,m,1182,16,1,2211.89999999851,653695.3999999985,7046,VNB,C,14
14,test,4,0.0,2-Back,1,m,Fri Feb 07 2025 13:18:16 GMT-0600 (Central Standard Time),657973.1000000015,025_y_m_d_a.png,O,m,1046,17,1,2061.7000000029802,655911.3999999985,7046,VNB,C,15
15,test,4,1.0,2-Back,1,m,Fri Feb 07 2025 13:18:16 GMT-0600 (Central Standard Time),660122.5,014_m_m_d_a.png,O,m,1116,18,1,2145.89999999851,657976.6000000015,7046,VNB,C,16
0,test,5,1.0,2-Back,,,Fri Feb 07 2025 13:18:16 GMT-0600 (Central Standard Time),660122.5,022_y_f_d_a.png,O,space,1904,1,1,2145.89999999851,657976.6000000015,7046,VNB,C,0
0,test,5,1.0,2-Back,,,Fri Feb 07 2025 13:18:16 GMT-0600 (Central Standard Time),660122.5,012_o_f_h_a.png,O,space,1904,2,1,2145.89999999851,657976.6000000015,7046,VNB,C,0
0,test,5,1.0,2-Back,0,z,Fri Feb 07 2025 13:18:16 GMT-0600 (Central Standard Time),669469.6999999955,015_o_m_d_a.png,O,m,1163,3,1,2177.5999999940395,667292.1000000015,7046,VNB,C,1
1,test,5,1.0,2-Back,1,m,Fri Feb 07 2025 13:18:16 GMT-0600 (Central Standard Time),671370.1999999955,019_m_f_n_a.png,O,m,876,4,1,1896.5999999940395,669473.6000000015,7046,VNB,C,2
2,test,5,0.0,2-Back,1,m,Fri Feb 07 2025 13:18:16 GMT-0600 (Central Standard Time),673501.799999997,014_m_m_h_a.png,O,m,1105,5,1,2128.39999999851,671373.3999999985,7046,VNB,C,3
3,test,5,0.0,2-Back,1,z,Fri Feb 07 2025 13:18:16 GMT-0600 (Central Standard Time),675401.3999999985,022_y_f_n_a.png,O,z,876,6,1,1896.0,673505.3999999985,7046,VNB,C,4
4,test,5,0.0,2-Back,1,m,Fri Feb 07 2025 13:18:16 GMT-0600 (Central Standard Time),677384.0,012_o_f_d_a.png,O,m,952,7,1,1979.3000000044703,675404.6999999955,7046,VNB,C,5
5,test,5,0.0,2-Back,1,m,Fri Feb 07 2025 13:18:16 GMT-0600 (Central Standard Time),679433.1000000015,015_o_m_h_a.png,O,m,1018,8,1,2045.9000000059605,677387.1999999955,7046,VNB,C,6
5,test,5,1.0,2-Back,0,z,Fri Feb 07 2025 13:18:16 GMT-0600 (Central Standard Time),681349.0,019_m_f_d_a.png,O,m,898,9,1,1912.6000000014901,679436.3999999985,7046,VNB,C,7
6,test,5,0.0,2-Back,1,m,Fri Feb 07 2025 13:18:16 GMT-0600 (Central Standard Time),683281.799999997,025_y_m_n_a.png,O,m,909,10,1,1929.0,681352.799999997,7046,VNB,C,8
7,test,5,0.0,2-Back,1,m,Fri Feb 07 2025 13:18:16 GMT-0600 (Central Standard Time),685481.299999997,014_m_m_n_a.png,O,m,1168,11,1,2195.7999999970198,683285.5,7046,VNB,C,9
8,test,5,0.0,2-Back,1,m,Fri Feb 07 2025 13:18:16 GMT-0600 (Central Standard Time),687715.0,022_y_f_h_a.png,O,m,1095,12,1,2230.60000000149,685484.3999999985,7046,VNB,C,10
9,test,5,0.0,2-Back,1,m,Fri Feb 07 2025 13:18:16 GMT-0600 (Central Standard Time),689730.0,025_y_m_d_a.png,O,m,984,13,1,2010.8000000044703,687719.1999999955,7046,VNB,C,11
10,test,5,1.0,2-Back,1,z,Fri Feb 07 2025 13:18:16 GMT-0600 (Central Standard Time),691596.3999999985,019_m_f_h_a.png,O,z,848,14,1,1862.6000000014901,689733.799999997,7046,VNB,C,12
11,test,5,0.0,2-Back,1,m,Fri Feb 07 2025 13:18:16 GMT-0600 (Central Standard Time),693529.0,015_o_m_n_a.png,O,m,909,15,1,1928.7000000029802,691600.299999997,7046,VNB,C,13
12,test,5,0.0,2-Back,1,m,Fri Feb 07 2025 13:18:16 GMT-0600 (Central Standard Time),695444.799999997,014_m_m_d_a.png,O,m,889,16,1,1912.1000000014901,693532.6999999955,7046,VNB,C,14
12,test,5,0.0,2-Back,0,z,Fri Feb 07 2025 13:18:16 GMT-0600 (Central Standard Time),697627.6999999955,012_o_f_n_a.png,O,m,1156,17,1,2179.5,695448.1999999955,7046,VNB,C,15
13,test,5,1.0,2-Back,1,m,Fri Feb 07 2025 13:18:16 GMT-0600 (Central Standard Time),699627.1000000015,025_y_m_h_a.png,O,m,966,18,1,1995.8000000044703,697631.299999997,7046,VNB,C,16
