block_c,block_dur,condition,countdown,datetime,endtime,list,multichar_response,project,response,response_time,session_number,start_end,starttime,subject_id,task,task_vers,trial
,,,,Fri Sep 20 2024 17:52:51 GMT-0500 (Central Daylight Time),,,,I,space,301,1,,,8006,WL,B,
prac,,0,,Fri Sep 20 2024 17:52:51 GMT-0500 (Central Daylight Time),,NA,b,I,b,18026,1,,,8006,WL,B,1.0
prac,,0,,Fri Sep 20 2024 17:52:51 GMT-0500 (Central Daylight Time),,NA,bo,I,o,809,1,,,8006,WL,B,1.0
prac,,0,,Fri Sep 20 2024 17:52:51 GMT-0500 (Central Daylight Time),,NA,boo,I,o,122,1,,,8006,WL,B,1.0
prac,,0,,Fri Sep 20 2024 17:52:51 GMT-0500 (Central Daylight Time),,NA,boos,I,s,60,1,,,8006,WL,B,1.0
prac,,0,,Fri Sep 20 2024 17:52:51 GMT-0500 (Central Daylight Time),,NA,boost,I,t,113,1,,,8006,WL,B,1.0
prac,,0,,Fri Sep 20 2024 17:52:51 GMT-0500 (Central Daylight Time),,NA,boostenter,I,enter,26124,1,,,8006,WL,B,1.0
1,0.5839998722076416,learn,59416.00012779236,Fri Sep 20 2024 17:52:51 GMT-0500 (Central Daylight Time),155502.7000000002,A,c,I,c,574,1,583.3000000007451,154919.39999999944,8006,WL,B,1.0
1,0.7330000400543213,learn,59266.99995994568,Fri Sep 20 2024 17:52:51 GMT-0500 (Central Daylight Time),155652.5,A,cl,I,l,133,1,733.1000000005588,154919.39999999944,8006,WL,B,1.0
1,1.3499999046325684,learn,58650.00009536743,Fri Sep 20 2024 17:52:51 GMT-0500 (Central Daylight Time),156268.89999999944,A,clo,I,o,609,1,1349.5,154919.39999999944,8006,WL,B,1.0
1,1.432999849319458,learn,58567.00015068054,Fri Sep 20 2024 17:52:51 GMT-0500 (Central Daylight Time),156352.09999999963,A,clok,I,k,64,1,1432.7000000001863,154919.39999999944,8006,WL,B,1.0
1,1.6329998970031738,learn,58367.000102996826,Fri Sep 20 2024 17:52:51 GMT-0500 (Central Daylight Time),156552.2000000002,A,clokc,I,c,181,1,1632.800000000745,154919.39999999944,8006,WL,B,1.0
1,2.049999952316284,learn,57950.000047683716,Fri Sep 20 2024 17:52:51 GMT-0500 (Central Daylight Time),156968.59999999963,A,clok,I,backspace,397,1,2049.2000000001863,154919.39999999944,8006,WL,B,1.0
1,2.500999927520752,learn,57499.00007247925,Fri Sep 20 2024 17:52:51 GMT-0500 (Central Daylight Time),157419.5,A,clo,I,backspace,430,1,2500.100000000559,154919.39999999944,8006,WL,B,1.0
1,2.6989998817443848,learn,57301.000118255615,Fri Sep 20 2024 17:52:51 GMT-0500 (Central Daylight Time),157618.39999999944,A,cloc,I,c,185,1,2699.0,154919.39999999944,8006,WL,B,1.0
1,3.381999969482422,learn,56618.00003051758,Fri Sep 20 2024 17:52:51 GMT-0500 (Central Daylight Time),158301.5,A,clock,I,k,666,1,3382.100000000559,154919.39999999944,8006,WL,B,1.0
1,3.565999984741211,learn,56434.00001525879,Fri Sep 20 2024 17:52:51 GMT-0500 (Central Daylight Time),158484.89999999944,A,clockenter,I,enter,168,1,3565.5,154919.39999999944,8006,WL,B,1.0
1,5.059000015258789,learn,54940.99998474121,Fri Sep 20 2024 17:52:51 GMT-0500 (Central Daylight Time),159977.7999999998,A,s,I,s,1486,1,1492.5,158485.2999999998,8006,WL,B,2.0
1,5.0980000495910645,learn,54901.999950408936,Fri Sep 20 2024 17:52:51 GMT-0500 (Central Daylight Time),160017.2000000002,A,st,I,t,17,1,1531.9000000003725,158485.2999999998,8006,WL,B,2.0
1,5.4649999141693115,learn,54535.00008583069,Fri Sep 20 2024 17:52:51 GMT-0500 (Central Daylight Time),160384.2000000002,A,str,I,r,345,1,1898.9000000003725,158485.2999999998,8006,WL,B,2.0
1,5.547999858856201,learn,54452.0001411438,Fri Sep 20 2024 17:52:51 GMT-0500 (Central Daylight Time),160467.2999999998,A,stre,I,e,77,1,1982.0,158485.2999999998,8006,WL,B,2.0
1,5.697999954223633,learn,54302.00004577637,Fri Sep 20 2024 17:52:51 GMT-0500 (Central Daylight Time),160617.2999999998,A,stree,I,e,138,1,2132.0,158485.2999999998,8006,WL,B,2.0
1,5.764999866485596,learn,54235.000133514404,Fri Sep 20 2024 17:52:51 GMT-0500 (Central Daylight Time),160684.2999999998,A,street,I,t,52,1,2199.0,158485.2999999998,8006,WL,B,2.0
1,6.047999858856201,learn,53952.0001411438,Fri Sep 20 2024 17:52:51 GMT-0500 (Central Daylight Time),160967.2999999998,A,streetenter,I,enter,265,1,2482.0,158485.2999999998,8006,WL,B,2.0
1,6.898000001907349,learn,53101.99999809265,Fri Sep 20 2024 17:52:51 GMT-0500 (Central Daylight Time),161816.89999999944,A,f,I,f,838,1,849.0999999996275,160967.7999999998,8006,WL,B,3.0
1,6.98199987411499,learn,53018.00012588501,Fri Sep 20 2024 17:52:51 GMT-0500 (Central Daylight Time),161901.2000000002,A,fi,I,i,77,1,933.4000000003725,160967.7999999998,8006,WL,B,3.0
1,7.082000017166138,learn,52917.99998283386,Fri Sep 20 2024 17:52:51 GMT-0500 (Central Daylight Time),162000.59999999963,A,fir,I,r,88,1,1032.7999999998137,160967.7999999998,8006,WL,B,3.0
1,7.13100004196167,learn,52868.99995803833,Fri Sep 20 2024 17:52:51 GMT-0500 (Central Daylight Time),162050.39999999944,A,fire,I,e,44,1,1082.5999999996275,160967.7999999998,8006,WL,B,3.0
1,7.247999906539917,learn,52752.00009346008,Fri Sep 20 2024 17:52:51 GMT-0500 (Central Daylight Time),162166.89999999944,A,fireenter,I,enter,107,1,1199.0999999996275,160967.7999999998,8006,WL,B,3.0
1,9.71399998664856,learn,50286.00001335144,Fri Sep 20 2024 17:52:51 GMT-0500 (Central Daylight Time),164632.7999999998,A,b,I,b,2446,1,2465.5,162167.2999999998,8006,WL,B,4.0
1,9.781999826431274,learn,50218.000173568726,Fri Sep 20 2024 17:52:51 GMT-0500 (Central Daylight Time),164700.5,A,bo,I,o,60,1,2533.2000000001863,162167.2999999998,8006,WL,B,4.0
1,9.930999994277954,learn,50069.000005722046,Fri Sep 20 2024 17:52:51 GMT-0500 (Central Daylight Time),164849.59999999963,A,boo,I,o,129,1,2682.2999999998137,162167.2999999998,8006,WL,B,4.0
1,10.013999938964844,learn,49986.000061035156,Fri Sep 20 2024 17:52:51 GMT-0500 (Central Daylight Time),164932.7000000002,A,boos,I,s,76,1,2765.4000000003725,162167.2999999998,8006,WL,B,4.0
1,10.113999843597412,learn,49886.00015640259,Fri Sep 20 2024 17:52:51 GMT-0500 (Central Daylight Time),165033.0,A,boost,I,t,80,1,2865.7000000001863,162167.2999999998,8006,WL,B,4.0
1,10.263999938964844,learn,49736.000061035156,Fri Sep 20 2024 17:52:51 GMT-0500 (Central Daylight Time),165182.7000000002,A,boostenter,I,enter,140,1,3015.4000000003725,162167.2999999998,8006,WL,B,4.0
1,14.044999837875366,learn,45955.000162124634,Fri Sep 20 2024 17:52:51 GMT-0500 (Central Daylight Time),168964.89999999944,A,g,I,g,3775,1,3781.899999999441,165183.0,8006,WL,B,5.0
1,14.312000036239624,learn,45687.999963760376,Fri Sep 20 2024 17:52:51 GMT-0500 (Central Daylight Time),169231.5,A,gr,I,r,256,1,4048.5,165183.0,8006,WL,B,5.0
1,14.394999980926514,learn,45605.000019073486,Fri Sep 20 2024 17:52:51 GMT-0500 (Central Daylight Time),169314.59999999963,A,gra,I,a,70,1,4131.5999999996275,165183.0,8006,WL,B,5.0
1,14.611999988555908,learn,45388.00001144409,Fri Sep 20 2024 17:52:51 GMT-0500 (Central Daylight Time),169531.59999999963,A,gras,I,s,196,1,4348.5999999996275,165183.0,8006,WL,B,5.0
1,14.744999885559082,learn,45255.00011444092,Fri Sep 20 2024 17:52:51 GMT-0500 (Central Daylight Time),169664.59999999963,A,grass,I,s,113,1,4481.5999999996275,165183.0,8006,WL,B,5.0
1,14.861000061035156,learn,45138.999938964844,Fri Sep 20 2024 17:52:51 GMT-0500 (Central Daylight Time),169781.2000000002,A,grassenter,I,enter,101,1,4598.200000000186,165183.0,8006,WL,B,5.0
1,16.97699999809265,learn,43023.00000190735,Fri Sep 20 2024 17:52:51 GMT-0500 (Central Daylight Time),171897.09999999963,A,c,I,c,2095,1,2115.5,169781.59999999963,8006,WL,B,6.0
1,17.043999910354614,learn,42956.000089645386,Fri Sep 20 2024 17:52:51 GMT-0500 (Central Daylight Time),171963.89999999944,A,ci,I,i,60,1,2182.2999999998137,169781.59999999963,8006,WL,B,6.0
1,17.177000045776367,learn,42822.99995422363,Fri Sep 20 2024 17:52:51 GMT-0500 (Central Daylight Time),172097.2999999998,A,cit,I,t,113,1,2315.7000000001863,169781.59999999963,8006,WL,B,6.0
1,17.24399995803833,learn,42756.00004196167,Fri Sep 20 2024 17:52:51 GMT-0500 (Central Daylight Time),172163.7000000002,A,city,I,y,52,1,2382.100000000559,169781.59999999963,8006,WL,B,6.0
1,17.39400005340576,learn,42605.99994659424,Fri Sep 20 2024 17:52:51 GMT-0500 (Central Daylight Time),172313.59999999963,A,cityenter,I,enter,130,1,2532.0,169781.59999999963,8006,WL,B,6.0
1,20.15999984741211,learn,39840.00015258789,Fri Sep 20 2024 17:52:51 GMT-0500 (Central Daylight Time),175079.89999999944,A,a,I,a,2747,1,2766.0,172313.89999999944,8006,WL,B,7.0
1,20.259999990463257,learn,39740.00000953674,Fri Sep 20 2024 17:52:51 GMT-0500 (Central Daylight Time),175179.5,A,ar,I,r,85,1,2865.600000000559,172313.89999999944,8006,WL,B,7.0
1,20.40999984741211,learn,39590.00015258789,Fri Sep 20 2024 17:52:51 GMT-0500 (Central Daylight Time),175329.59999999963,A,arm,I,m,129,1,3015.7000000001863,172313.89999999944,8006,WL,B,7.0
1,20.575999975204468,learn,39424.00002479553,Fri Sep 20 2024 17:52:51 GMT-0500 (Central Daylight Time),175496.2000000002,A,armenter,I,enter,148,1,3182.300000000745,172313.89999999944,8006,WL,B,7.0
1,22.45899987220764,learn,37541.00012779236,Fri Sep 20 2024 17:52:51 GMT-0500 (Central Daylight Time),177378.7999999998,A,g,I,g,1862,1,1882.2000000001863,175496.59999999963,8006,WL,B,8.0
1,22.64199995994568,learn,37358.00004005432,Fri Sep 20 2024 17:52:51 GMT-0500 (Central Daylight Time),177562.2000000002,A,gr,I,r,163,1,2065.600000000559,175496.59999999963,8006,WL,B,8.0
1,22.70899987220764,learn,37291.00012779236,Fri Sep 20 2024 17:52:51 GMT-0500 (Central Daylight Time),177628.7000000002,A,gre,I,e,59,1,2132.100000000559,175496.59999999963,8006,WL,B,8.0
1,22.842000007629395,learn,37157.999992370605,Fri Sep 20 2024 17:52:51 GMT-0500 (Central Daylight Time),177761.89999999944,A,gree,I,e,112,1,2265.2999999998137,175496.59999999963,8006,WL,B,8.0
1,22.941999912261963,learn,37058.00008773804,Fri Sep 20 2024 17:52:51 GMT-0500 (Central Daylight Time),177862.2000000002,A,green,I,n,84,1,2365.600000000559,175496.59999999963,8006,WL,B,8.0
1,23.092000007629395,learn,36907.999992370605,Fri Sep 20 2024 17:52:51 GMT-0500 (Central Daylight Time),178011.89999999944,A,greenenter,I,enter,135,1,2515.2999999998137,175496.59999999963,8006,WL,B,8.0
1,31.740000009536743,learn,28259.999990463257,Fri Sep 20 2024 17:52:51 GMT-0500 (Central Daylight Time),186659.2999999998,A,c,I,c,8633,1,8647.099999999627,178012.2000000002,8006,WL,B,9.0
1,31.85599994659424,learn,28144.00005340576,Fri Sep 20 2024 17:52:51 GMT-0500 (Central Daylight Time),186776.09999999963,A,ci,I,i,98,1,8763.899999999441,178012.2000000002,8006,WL,B,9.0
1,31.938999891281128,learn,28061.000108718872,Fri Sep 20 2024 17:52:51 GMT-0500 (Central Daylight Time),186859.09999999963,A,cit,I,t,69,1,8846.899999999441,178012.2000000002,8006,WL,B,9.0
1,32.039000034332275,learn,27960.999965667725,Fri Sep 20 2024 17:52:51 GMT-0500 (Central Daylight Time),186959.2000000002,A,city,I,y,82,1,8947.0,178012.2000000002,8006,WL,B,9.0
1,32.15599989891052,learn,27844.000101089478,Fri Sep 20 2024 17:52:51 GMT-0500 (Central Daylight Time),187075.7000000002,A,cityenter,I,enter,102,1,9063.5,178012.2000000002,8006,WL,B,9.0
1,33.45599985122681,learn,26544.000148773193,Fri Sep 20 2024 17:52:51 GMT-0500 (Central Daylight Time),188375.5,A,c,I,c,1282,1,1299.4000000003725,187076.09999999963,8006,WL,B,10.0
1,33.539000034332275,learn,26460.999965667725,Fri Sep 20 2024 17:52:51 GMT-0500 (Central Daylight Time),188458.59999999963,A,ci,I,i,63,1,1382.5,187076.09999999963,8006,WL,B,10.0
1,33.621999979019165,learn,26378.000020980835,Fri Sep 20 2024 17:52:51 GMT-0500 (Central Daylight Time),188542.09999999963,A,cit,I,t,75,1,1466.0,187076.09999999963,8006,WL,B,10.0
1,33.70599985122681,learn,26294.000148773193,Fri Sep 20 2024 17:52:51 GMT-0500 (Central Daylight Time),188625.39999999944,A,city,I,y,63,1,1549.2999999998137,187076.09999999963,8006,WL,B,10.0
1,33.789000034332275,learn,26210.999965667725,Fri Sep 20 2024 17:52:51 GMT-0500 (Central Daylight Time),188708.7000000002,A,cityenter,I,enter,68,1,1632.6000000005588,187076.09999999963,8006,WL,B,10.0
1,42.88599991798401,learn,17114.00008201599,Fri Sep 20 2024 17:52:51 GMT-0500 (Central Daylight Time),197805.7000000002,A,s,I,s,9088,1,9096.5,188709.2000000002,8006,WL,B,11.0
1,43.01900005340576,learn,16980.99994659424,Fri Sep 20 2024 17:52:51 GMT-0500 (Central Daylight Time),197939.0,A,st,I,t,119,1,9229.799999999814,188709.2000000002,8006,WL,B,11.0
1,43.20299983024597,learn,16797.00016975403,Fri Sep 20 2024 17:52:51 GMT-0500 (Central Daylight Time),198122.2000000002,A,str,I,r,169,1,9413.0,188709.2000000002,8006,WL,B,11.0
1,43.26900005340576,learn,16730.99994659424,Fri Sep 20 2024 17:52:51 GMT-0500 (Central Daylight Time),198188.89999999944,A,stre,I,e,59,1,9479.699999999255,188709.2000000002,8006,WL,B,11.0
1,43.418999910354614,learn,16581.000089645386,Fri Sep 20 2024 17:52:51 GMT-0500 (Central Daylight Time),198338.89999999944,A,stree,I,e,144,1,9629.699999999255,188709.2000000002,8006,WL,B,11.0
1,43.503000020980835,learn,16496.999979019165,Fri Sep 20 2024 17:52:51 GMT-0500 (Central Daylight Time),198422.2999999998,A,street,I,t,66,1,9713.099999999627,188709.2000000002,8006,WL,B,11.0
1,43.61899995803833,learn,16381.00004196167,Fri Sep 20 2024 17:52:51 GMT-0500 (Central Daylight Time),198538.7999999998,A,streetenter,I,enter,111,1,9829.599999999627,188709.2000000002,8006,WL,B,11.0
1,49.50099992752075,learn,10499.000072479248,Fri Sep 20 2024 17:52:51 GMT-0500 (Central Daylight Time),204420.39999999944,A,enter,I,enter,5867,1,5881.399999999441,198539.0,8006,WL,B,12.0
1,50.06699991226196,learn,9933.000087738037,Fri Sep 20 2024 17:52:51 GMT-0500 (Central Daylight Time),204986.7999999998,A,enter,I,enter,553,1,566.0999999996275,204420.7000000002,8006,WL,B,13.0
1,50.51699995994568,learn,9483.000040054321,Fri Sep 20 2024 17:52:51 GMT-0500 (Central Daylight Time),205436.89999999944,A,enter,I,enter,435,1,449.8999999994412,204987.0,8006,WL,B,14.0
1,50.86699986457825,learn,9133.000135421753,Fri Sep 20 2024 17:52:51 GMT-0500 (Central Daylight Time),205786.5,A,enter,I,enter,329,1,349.29999999981374,205437.2000000002,8006,WL,B,15.0
2,1.3660001754760742,learn,58633.999824523926,Fri Sep 20 2024 17:52:51 GMT-0500 (Central Daylight Time),275781.2999999998,A,w,I,w,1358,1,1366.0,274415.2999999998,8006,WL,B,1.0
2,1.499000072479248,learn,58500.99992752075,Fri Sep 20 2024 17:52:51 GMT-0500 (Central Daylight Time),275914.5,A,wi,I,i,120,1,1499.2000000001863,274415.2999999998,8006,WL,B,1.0
2,1.6660001277923584,learn,58333.99987220764,Fri Sep 20 2024 17:52:51 GMT-0500 (Central Daylight Time),276081.2000000002,A,wif,I,f,147,1,1665.9000000003725,274415.2999999998,8006,WL,B,1.0
2,1.749000072479248,learn,58250.99992752075,Fri Sep 20 2024 17:52:51 GMT-0500 (Central Daylight Time),276164.5999999996,A,wife,I,e,76,1,1749.2999999998137,274415.2999999998,8006,WL,B,1.0
2,1.9160001277923584,learn,58083.99987220764,Fri Sep 20 2024 17:52:51 GMT-0500 (Central Daylight Time),276331.0999999996,A,wifeenter,I,enter,161,1,1915.7999999998137,274415.2999999998,8006,WL,B,1.0
2,2.366000175476074,learn,57633.999824523926,Fri Sep 20 2024 17:52:51 GMT-0500 (Central Daylight Time),276780.89999999944,A,s,I,s,442,1,449.59999999962747,276331.2999999998,8006,WL,B,2.0
2,2.499000072479248,learn,57500.99992752075,Fri Sep 20 2024 17:52:51 GMT-0500 (Central Daylight Time),276914.39999999944,A,st,I,t,112,1,583.0999999996275,276331.2999999998,8006,WL,B,2.0
2,2.683000087738037,learn,57316.99991226196,Fri Sep 20 2024 17:52:51 GMT-0500 (Central Daylight Time),277097.7999999998,A,str,I,r,171,1,766.5,276331.2999999998,8006,WL,B,2.0
2,2.7320001125335693,learn,57267.99988746643,Fri Sep 20 2024 17:52:51 GMT-0500 (Central Daylight Time),277147.5,A,stre,I,e,36,1,816.2000000001863,276331.2999999998,8006,WL,B,2.0
2,2.8990001678466797,learn,57100.99983215332,Fri Sep 20 2024 17:52:51 GMT-0500 (Central Daylight Time),277314.0999999996,A,stree,I,e,155,1,982.7999999998137,276331.2999999998,8006,WL,B,2.0
2,2.999000072479248,learn,57000.99992752075,Fri Sep 20 2024 17:52:51 GMT-0500 (Central Daylight Time),277414.0999999996,A,street,I,t,84,1,1082.7999999998137,276331.2999999998,8006,WL,B,2.0
2,3.2929999828338623,learn,56707.00001716614,Fri Sep 20 2024 17:52:51 GMT-0500 (Central Daylight Time),277708.2999999998,A,streetenter,I,enter,289,1,1377.0,276331.2999999998,8006,WL,B,2.0
2,3.4820001125335693,learn,56517.99988746643,Fri Sep 20 2024 17:52:51 GMT-0500 (Central Daylight Time),277897.5,A,c,I,c,169,1,188.90000000037253,277708.5999999996,8006,WL,B,3.0
2,3.5320000648498535,learn,56467.99993515015,Fri Sep 20 2024 17:52:51 GMT-0500 (Central Daylight Time),277947.0999999996,A,ca,I,a,44,1,238.5,277708.5999999996,8006,WL,B,3.0
2,3.749000072479248,learn,56250.99992752075,Fri Sep 20 2024 17:52:51 GMT-0500 (Central Daylight Time),278163.89999999944,A,cab,I,b,211,1,455.29999999981374,277708.5999999996,8006,WL,B,3.0
2,3.8990001678466797,learn,56100.99983215332,Fri Sep 20 2024 17:52:51 GMT-0500 (Central Daylight Time),278313.89999999944,A,cabi,I,i,138,1,605.2999999998137,277708.5999999996,8006,WL,B,3.0
2,3.999000072479248,learn,56000.99992752075,Fri Sep 20 2024 17:52:51 GMT-0500 (Central Daylight Time),278413.7999999998,A,cabin,I,n,84,1,705.2000000001863,277708.5999999996,8006,WL,B,3.0
2,4.215000152587891,learn,55784.99984741211,Fri Sep 20 2024 17:52:51 GMT-0500 (Central Daylight Time),278630.39999999944,A,cabinenter,I,enter,200,1,921.7999999998137,277708.5999999996,8006,WL,B,3.0
2,4.482000112533569,learn,55517.99988746643,Fri Sep 20 2024 17:52:51 GMT-0500 (Central Daylight Time),278896.89999999944,A,a,I,a,247,1,266.19999999925494,278630.7000000002,8006,WL,B,4.0
2,4.631999969482422,learn,55368.00003051758,Fri Sep 20 2024 17:52:51 GMT-0500 (Central Daylight Time),279046.89999999944,A,al,I,l,132,1,416.19999999925494,278630.7000000002,8006,WL,B,4.0
2,4.933000087738037,learn,55066.99991226196,Fri Sep 20 2024 17:52:51 GMT-0500 (Central Daylight Time),279348.0999999996,A,a,I,backspace,295,1,717.3999999994412,278630.7000000002,8006,WL,B,4.0
2,5.082000017166138,learn,54917.99998283386,Fri Sep 20 2024 17:52:51 GMT-0500 (Central Daylight Time),279496.7999999998,A,,I,backspace,137,1,866.0999999996275,278630.7000000002,8006,WL,B,4.0
2,5.265000104904175,learn,54734.999895095825,Fri Sep 20 2024 17:52:51 GMT-0500 (Central Daylight Time),279680.0999999996,A,l,I,l,173,1,1049.3999999994412,278630.7000000002,8006,WL,B,4.0
2,5.332000017166138,learn,54667.99998283386,Fri Sep 20 2024 17:52:51 GMT-0500 (Central Daylight Time),279746.7000000002,A,la,I,a,61,1,1116.0,278630.7000000002,8006,WL,B,4.0
2,5.582000017166138,learn,54417.99998283386,Fri Sep 20 2024 17:52:51 GMT-0500 (Central Daylight Time),279996.7000000002,A,lak,I,k,243,1,1366.0,278630.7000000002,8006,WL,B,4.0
2,5.715000152587891,learn,54284.99984741211,Fri Sep 20 2024 17:52:51 GMT-0500 (Central Daylight Time),280130.0,A,lake,I,e,121,1,1499.2999999998137,278630.7000000002,8006,WL,B,4.0
2,5.8480000495910645,learn,54151.999950408936,Fri Sep 20 2024 17:52:51 GMT-0500 (Central Daylight Time),280263.2999999998,A,lakeenter,I,enter,115,1,1632.5999999996275,278630.7000000002,8006,WL,B,4.0
2,6.0980000495910645,learn,53901.999950408936,Fri Sep 20 2024 17:52:51 GMT-0500 (Central Daylight Time),280513.0,A,a,I,a,230,1,249.29999999981374,280263.7000000002,8006,WL,B,5.0
2,6.197999954223633,learn,53802.00004577637,Fri Sep 20 2024 17:52:51 GMT-0500 (Central Daylight Time),280613.0,A,ar,I,r,84,1,349.29999999981374,280263.7000000002,8006,WL,B,5.0
2,6.432000160217285,learn,53567.999839782715,Fri Sep 20 2024 17:52:51 GMT-0500 (Central Daylight Time),280846.7999999998,A,arm,I,m,216,1,583.0999999996275,280263.7000000002,8006,WL,B,5.0
2,6.748000144958496,learn,53251.999855041504,Fri Sep 20 2024 17:52:51 GMT-0500 (Central Daylight Time),281163.0,A,armenter,I,enter,303,1,899.2999999998137,280263.7000000002,8006,WL,B,5.0
2,8.430999994277954,learn,51569.000005722046,Fri Sep 20 2024 17:52:51 GMT-0500 (Central Daylight Time),282845.7999999998,A,w,I,w,1674,1,1682.4000000003725,281163.39999999944,8006,WL,B,6.0
2,8.531000137329102,learn,51468.9998626709,Fri Sep 20 2024 17:52:51 GMT-0500 (Central Daylight Time),282945.7000000002,A,wi,I,i,80,1,1782.300000000745,281163.39999999944,8006,WL,B,6.0
2,8.614000082015991,learn,51385.99991798401,Fri Sep 20 2024 17:52:51 GMT-0500 (Central Daylight Time),283029.0,A,win,I,n,68,1,1865.6000000005588,281163.39999999944,8006,WL,B,6.0
2,8.746999979019165,learn,51253.000020980835,Fri Sep 20 2024 17:52:51 GMT-0500 (Central Daylight Time),283162.2000000002,A,wind,I,d,121,1,1998.800000000745,281163.39999999944,8006,WL,B,6.0
2,8.864000082015991,learn,51135.99991798401,Fri Sep 20 2024 17:52:51 GMT-0500 (Central Daylight Time),283278.89999999944,A,windo,I,o,107,1,2115.5,281163.39999999944,8006,WL,B,6.0
2,8.930000066757202,learn,51069.9999332428,Fri Sep 20 2024 17:52:51 GMT-0500 (Central Daylight Time),283345.5999999996,A,window,I,w,47,1,2182.2000000001863,281163.39999999944,8006,WL,B,6.0
2,9.27999997138977,learn,50720.00002861023,Fri Sep 20 2024 17:52:51 GMT-0500 (Central Daylight Time),283695.5,A,windowenter,I,enter,332,1,2532.100000000559,281163.39999999944,8006,WL,B,6.0
2,9.614000082015991,learn,50385.99991798401,Fri Sep 20 2024 17:52:51 GMT-0500 (Central Daylight Time),284028.7999999998,A,w,I,w,318,1,332.79999999981374,283696.0,8006,WL,B,7.0
2,9.69700002670288,learn,50302.99997329712,Fri Sep 20 2024 17:52:51 GMT-0500 (Central Daylight Time),284112.0,A,wi,I,i,74,1,416.0,283696.0,8006,WL,B,7.0
2,9.880000114440918,learn,50119.99988555908,Fri Sep 20 2024 17:52:51 GMT-0500 (Central Daylight Time),284295.39999999944,A,wid,I,d,173,1,599.3999999994412,283696.0,8006,WL,B,7.0
2,10.213000059127808,learn,49786.99994087219,Fri Sep 20 2024 17:52:51 GMT-0500 (Central Daylight Time),284628.5999999996,A,wi,I,backspace,319,1,932.5999999996275,283696.0,8006,WL,B,7.0
2,10.27999997138977,learn,49720.00002861023,Fri Sep 20 2024 17:52:51 GMT-0500 (Central Daylight Time),284695.2000000002,A,wif,I,f,57,1,999.2000000001863,283696.0,8006,WL,B,7.0
2,10.347000122070312,learn,49652.99987792969,Fri Sep 20 2024 17:52:51 GMT-0500 (Central Daylight Time),284761.89999999944,A,wife,I,e,54,1,1065.8999999994412,283696.0,8006,WL,B,7.0
2,10.797000169754028,learn,49202.99983024597,Fri Sep 20 2024 17:52:51 GMT-0500 (Central Daylight Time),285211.7000000002,A,wifeenter,I,enter,435,1,1515.7000000001863,283696.0,8006,WL,B,7.0
2,14.26200008392334,learn,45737.99991607666,Fri Sep 20 2024 17:52:51 GMT-0500 (Central Daylight Time),288677.39999999944,A,b,I,b,3458,1,3465.399999999441,285212.0,8006,WL,B,8.0
2,14.611000061035156,learn,45388.999938964844,Fri Sep 20 2024 17:52:51 GMT-0500 (Central Daylight Time),289027.0999999996,A,bo,I,o,344,1,3815.0999999996275,285212.0,8006,WL,B,8.0
2,14.745000123977661,learn,45254.99987602234,Fri Sep 20 2024 17:52:51 GMT-0500 (Central Daylight Time),289160.39999999944,A,boo,I,o,123,1,3948.399999999441,285212.0,8006,WL,B,8.0
2,14.82800006866455,learn,45171.99993133545,Fri Sep 20 2024 17:52:51 GMT-0500 (Central Daylight Time),289243.7000000002,A,boos,I,s,69,1,4031.7000000001863,285212.0,8006,WL,B,8.0
2,14.91100001335144,learn,45088.99998664856,Fri Sep 20 2024 17:52:51 GMT-0500 (Central Daylight Time),289327.0,A,boost,I,t,74,1,4115.0,285212.0,8006,WL,B,8.0
2,15.045000076293945,learn,44954.999923706055,Fri Sep 20 2024 17:52:51 GMT-0500 (Central Daylight Time),289460.5999999996,A,boostenter,I,enter,119,1,4248.5999999996275,285212.0,8006,WL,B,8.0
2,17.128999948501587,learn,42871.00005149841,Fri Sep 20 2024 17:52:51 GMT-0500 (Central Daylight Time),291544.2999999998,A,enter,I,enter,2065,1,2083.2999999998137,289461.0,8006,WL,B,9.0
2,17.3270001411438,learn,42672.9998588562,Fri Sep 20 2024 17:52:51 GMT-0500 (Central Daylight Time),291743.0,A,enter,I,enter,181,1,198.0,291545.0,8006,WL,B,10.0
2,17.47699999809265,learn,42523.00000190735,Fri Sep 20 2024 17:52:51 GMT-0500 (Central Daylight Time),291893.0,A,enter,I,enter,135,1,149.6000000005588,291743.39999999944,8006,WL,B,11.0
2,17.627000093460083,learn,42372.99990653992,Fri Sep 20 2024 17:52:51 GMT-0500 (Central Daylight Time),292042.7999999998,A,enter,I,enter,145,1,149.40000000037253,291893.39999999944,8006,WL,B,12.0
2,17.97699999809265,learn,42023.00000190735,Fri Sep 20 2024 17:52:51 GMT-0500 (Central Daylight Time),292392.5999999996,A,enter,I,enter,339,1,349.5,292043.0999999996,8006,WL,B,13.0
2,18.276999950408936,learn,41723.000049591064,Fri Sep 20 2024 17:52:51 GMT-0500 (Central Daylight Time),292692.5999999996,A,enter,I,enter,286,1,299.59999999962747,292393.0,8006,WL,B,14.0
2,18.794000148773193,learn,41205.99985122681,Fri Sep 20 2024 17:52:51 GMT-0500 (Central Daylight Time),293209.5,A,enter,I,enter,497,1,516.6000000005588,292692.89999999944,8006,WL,B,15.0
3,0.7660000324249268,learn,59233.99996757507,Fri Sep 20 2024 17:52:51 GMT-0500 (Central Daylight Time),360521.39999999944,A,c,I,c,756,1,766.5,359754.89999999944,8006,WL,B,1.0
3,0.8500001430511475,learn,59149.99985694885,Fri Sep 20 2024 17:52:51 GMT-0500 (Central Daylight Time),360605.0,A,ck,I,k,68,1,850.1000000005588,359754.89999999944,8006,WL,B,1.0
3,0.9500000476837158,learn,59049.999952316284,Fri Sep 20 2024 17:52:51 GMT-0500 (Central Daylight Time),360704.7000000002,A,cku,I,u,81,1,949.8000000007451,359754.89999999944,8006,WL,B,1.0
3,2.449000120162964,learn,57550.999879837036,Fri Sep 20 2024 17:52:51 GMT-0500 (Central Daylight Time),362204.2999999998,A,ck,I,backspace,1493,1,2449.4000000003725,359754.89999999944,8006,WL,B,1.0
3,2.5989999771118164,learn,57401.00002288818,Fri Sep 20 2024 17:52:51 GMT-0500 (Central Daylight Time),362354.2000000002,A,c,I,backspace,129,1,2599.300000000745,359754.89999999944,8006,WL,B,1.0
3,3.2160000801086426,learn,56783.99991989136,Fri Sep 20 2024 17:52:51 GMT-0500 (Central Daylight Time),362970.7999999998,A,cl,I,l,596,1,3215.9000000003725,359754.89999999944,8006,WL,B,1.0
3,3.381999969482422,learn,56618.00003051758,Fri Sep 20 2024 17:52:51 GMT-0500 (Central Daylight Time),363137.2999999998,A,clc,I,c,147,1,3382.4000000003725,359754.89999999944,8006,WL,B,1.0
3,3.3990001678466797,learn,56600.99983215332,Fri Sep 20 2024 17:52:51 GMT-0500 (Central Daylight Time),363154.0999999996,A,clco,I,o,0,1,3399.2000000001863,359754.89999999944,8006,WL,B,1.0
3,4.115000009536743,learn,55884.99999046326,Fri Sep 20 2024 17:52:51 GMT-0500 (Central Daylight Time),363870.39999999944,A,clc,I,backspace,700,1,4115.5,359754.89999999944,8006,WL,B,1.0
3,4.248000144958496,learn,55751.999855041504,Fri Sep 20 2024 17:52:51 GMT-0500 (Central Daylight Time),364003.5999999996,A,cl,I,backspace,119,1,4248.700000000186,359754.89999999944,8006,WL,B,1.0
3,4.465000152587891,learn,55534.99984741211,Fri Sep 20 2024 17:52:51 GMT-0500 (Central Daylight Time),364220.2000000002,A,clo,I,o,211,1,4465.300000000745,359754.89999999944,8006,WL,B,1.0
3,4.582000017166138,learn,55417.99998283386,Fri Sep 20 2024 17:52:51 GMT-0500 (Central Daylight Time),364337.0,A,cloc,I,c,97,1,4582.100000000559,359754.89999999944,8006,WL,B,1.0
3,4.699000120162964,learn,55300.999879837036,Fri Sep 20 2024 17:52:51 GMT-0500 (Central Daylight Time),364453.5999999996,A,clock,I,k,108,1,4698.700000000186,359754.89999999944,8006,WL,B,1.0
3,4.947999954223633,learn,55052.00004577637,Fri Sep 20 2024 17:52:51 GMT-0500 (Central Daylight Time),364703.5,A,clockenter,I,enter,241,1,4948.600000000559,359754.89999999944,8006,WL,B,1.0
3,5.615000009536743,learn,54384.99999046326,Fri Sep 20 2024 17:52:51 GMT-0500 (Central Daylight Time),365370.0999999996,A,p,I,p,646,1,666.2000000001863,364703.89999999944,8006,WL,B,2.0
3,5.748000144958496,learn,54251.999855041504,Fri Sep 20 2024 17:52:51 GMT-0500 (Central Daylight Time),365503.5,A,pi,I,i,115,1,799.6000000005588,364703.89999999944,8006,WL,B,2.0
3,5.898000001907349,learn,54101.99999809265,Fri Sep 20 2024 17:52:51 GMT-0500 (Central Daylight Time),365653.2000000002,A,pip,I,p,142,1,949.3000000007451,364703.89999999944,8006,WL,B,2.0
3,6.015000104904175,learn,53984.999895095825,Fri Sep 20 2024 17:52:51 GMT-0500 (Central Daylight Time),365769.7000000002,A,pipe,I,e,105,1,1065.800000000745,364703.89999999944,8006,WL,B,2.0
3,6.29800009727478,learn,53701.99990272522,Fri Sep 20 2024 17:52:51 GMT-0500 (Central Daylight Time),366053.0,A,pipel,I,l,268,1,1349.1000000005588,364703.89999999944,8006,WL,B,2.0
3,6.38100004196167,learn,53618.99995803833,Fri Sep 20 2024 17:52:51 GMT-0500 (Central Daylight Time),366136.5,A,pipela,I,a,65,1,1432.6000000005588,364703.89999999944,8006,WL,B,2.0
3,6.5980000495910645,learn,53401.999950408936,Fri Sep 20 2024 17:52:51 GMT-0500 (Central Daylight Time),366353.0999999996,A,pipelak,I,k,205,1,1649.2000000001863,364703.89999999944,8006,WL,B,2.0
3,6.864000082015991,learn,53135.99991798401,Fri Sep 20 2024 17:52:51 GMT-0500 (Central Daylight Time),366619.39999999944,A,pipela,I,backspace,261,1,1915.5,364703.89999999944,8006,WL,B,2.0
3,7.031000137329102,learn,52968.9998626709,Fri Sep 20 2024 17:52:51 GMT-0500 (Central Daylight Time),366786.0999999996,A,pipel,I,backspace,155,1,2082.2000000001863,364703.89999999944,8006,WL,B,2.0
3,7.164000034332275,learn,52835.999965667725,Fri Sep 20 2024 17:52:51 GMT-0500 (Central Daylight Time),366919.2999999998,A,pipe,I,backspace,123,1,2215.4000000003725,364703.89999999944,8006,WL,B,2.0
3,7.38100004196167,learn,52618.99995803833,Fri Sep 20 2024 17:52:51 GMT-0500 (Central Daylight Time),367136.0,A,pipeenter,I,enter,206,1,2432.100000000559,364703.89999999944,8006,WL,B,2.0
3,8.114000082015991,learn,51885.99991798401,Fri Sep 20 2024 17:52:51 GMT-0500 (Central Daylight Time),367869.2999999998,A,l,I,l,726,1,732.9000000003725,367136.39999999944,8006,WL,B,3.0
3,8.21399998664856,learn,51786.00001335144,Fri Sep 20 2024 17:52:51 GMT-0500 (Central Daylight Time),367969.0,A,la,I,a,81,1,832.6000000005588,367136.39999999944,8006,WL,B,3.0
3,8.814000129699707,learn,51185.99987030029,Fri Sep 20 2024 17:52:51 GMT-0500 (Central Daylight Time),368568.89999999944,A,lak,I,k,581,1,1432.5,367136.39999999944,8006,WL,B,3.0
3,8.94700002670288,learn,51052.99997329712,Fri Sep 20 2024 17:52:51 GMT-0500 (Central Daylight Time),368702.2000000002,A,lake,I,e,125,1,1565.800000000745,367136.39999999944,8006,WL,B,3.0
3,9.082000017166138,learn,50917.99998283386,Fri Sep 20 2024 17:52:51 GMT-0500 (Central Daylight Time),368836.5999999996,A,lakeenter,I,enter,127,1,1700.2000000001863,367136.39999999944,8006,WL,B,3.0
3,9.264000177383423,learn,50735.99982261658,Fri Sep 20 2024 17:52:51 GMT-0500 (Central Daylight Time),369018.7999999998,A,a,I,a,162,1,181.79999999981374,368837.0,8006,WL,B,4.0
3,9.347000122070312,learn,50652.99987792969,Fri Sep 20 2024 17:52:51 GMT-0500 (Central Daylight Time),369102.0,A,ar,I,r,66,1,265.0,368837.0,8006,WL,B,4.0
3,9.547000169754028,learn,50452.99983024597,Fri Sep 20 2024 17:52:51 GMT-0500 (Central Daylight Time),369302.0,A,arm,I,m,193,1,465.0,368837.0,8006,WL,B,4.0
3,10.163000106811523,learn,49836.99989318848,Fri Sep 20 2024 17:52:51 GMT-0500 (Central Daylight Time),369918.5,A,armenter,I,enter,609,1,1081.5,368837.0,8006,WL,B,4.0
3,11.907999992370605,learn,48092.000007629395,Fri Sep 20 2024 17:52:51 GMT-0500 (Central Daylight Time),371663.2000000002,A,s,I,s,1740,1,1744.4000000003725,369918.7999999998,8006,WL,B,5.0
3,12.055000066757202,learn,47944.9999332428,Fri Sep 20 2024 17:52:51 GMT-0500 (Central Daylight Time),371810.2999999998,A,st,I,t,78,1,1891.5,369918.7999999998,8006,WL,B,5.0
3,12.17900013923645,learn,47820.99986076355,Fri Sep 20 2024 17:52:51 GMT-0500 (Central Daylight Time),371934.2999999998,A,str,I,r,107,1,2015.5,369918.7999999998,8006,WL,B,5.0
3,12.212000131607056,learn,47787.999868392944,Fri Sep 20 2024 17:52:51 GMT-0500 (Central Daylight Time),371967.5,A,stre,I,e,23,1,2048.7000000001863,369918.7999999998,8006,WL,B,5.0
3,12.396000146865845,learn,47603.999853134155,Fri Sep 20 2024 17:52:51 GMT-0500 (Central Daylight Time),372151.39999999944,A,stree,I,e,167,1,2232.5999999996275,369918.7999999998,8006,WL,B,5.0
3,12.446000099182129,learn,47553.99990081787,Fri Sep 20 2024 17:52:51 GMT-0500 (Central Daylight Time),372201.0999999996,A,street,I,t,31,1,2282.2999999998137,369918.7999999998,8006,WL,B,5.0
3,12.61300015449524,learn,47386.99984550476,Fri Sep 20 2024 17:52:51 GMT-0500 (Central Daylight Time),372367.5999999996,A,streetenter,I,enter,149,1,2448.7999999998137,369918.7999999998,8006,WL,B,5.0
3,17.528000116348267,learn,42471.99988365173,Fri Sep 20 2024 17:52:51 GMT-0500 (Central Daylight Time),377282.7000000002,A,p,I,p,4910,1,4914.700000000186,372368.0,8006,WL,B,6.0
3,17.628000020980835,learn,42371.999979019165,Fri Sep 20 2024 17:52:51 GMT-0500 (Central Daylight Time),377382.7999999998,A,pi,I,i,92,1,5014.799999999814,372368.0,8006,WL,B,6.0
3,17.82800006866455,learn,42171.99993133545,Fri Sep 20 2024 17:52:51 GMT-0500 (Central Daylight Time),377582.7000000002,A,pip,I,p,191,1,5214.700000000186,372368.0,8006,WL,B,6.0
3,17.91100001335144,learn,42088.99998664856,Fri Sep 20 2024 17:52:51 GMT-0500 (Central Daylight Time),377666.2999999998,A,pipe,I,e,63,1,5298.299999999814,372368.0,8006,WL,B,6.0
3,18.261000156402588,learn,41738.99984359741,Fri Sep 20 2024 17:52:51 GMT-0500 (Central Daylight Time),378015.89999999944,A,pipeenter,I,enter,331,1,5647.899999999441,372368.0,8006,WL,B,6.0
3,19.344000101089478,learn,40655.99989891052,Fri Sep 20 2024 17:52:51 GMT-0500 (Central Daylight Time),379098.7999999998,A,w,I,w,1070,1,1082.5,378016.2999999998,8006,WL,B,7.0
3,19.444000005722046,learn,40555.999994277954,Fri Sep 20 2024 17:52:51 GMT-0500 (Central Daylight Time),379199.0,A,wi,I,i,83,1,1182.7000000001863,378016.2999999998,8006,WL,B,7.0
3,19.777000188827515,learn,40222.999811172485,Fri Sep 20 2024 17:52:51 GMT-0500 (Central Daylight Time),379532.0,A,wif,I,f,327,1,1515.7000000001863,378016.2999999998,8006,WL,B,7.0
3,19.877000093460083,learn,40122.99990653992,Fri Sep 20 2024 17:52:51 GMT-0500 (Central Daylight Time),379632.0,A,wife,I,e,91,1,1615.7000000001863,378016.2999999998,8006,WL,B,7.0
3,20.093000173568726,learn,39906.999826431274,Fri Sep 20 2024 17:52:51 GMT-0500 (Central Daylight Time),379848.5,A,wifeenter,I,enter,198,1,1832.2000000001863,378016.2999999998,8006,WL,B,7.0
3,22.526000022888184,learn,37473.99997711182,Fri Sep 20 2024 17:52:51 GMT-0500 (Central Daylight Time),382281.39999999944,A,g,I,g,2413,1,2432.5999999996275,379848.7999999998,8006,WL,B,8.0
3,22.70900011062622,learn,37290.99988937378,Fri Sep 20 2024 17:52:51 GMT-0500 (Central Daylight Time),382464.5,A,gr,I,r,164,1,2615.7000000001863,379848.7999999998,8006,WL,B,8.0
3,22.776000022888184,learn,37223.99997711182,Fri Sep 20 2024 17:52:51 GMT-0500 (Central Daylight Time),382531.0,A,gra,I,a,62,1,2682.2000000001863,379848.7999999998,8006,WL,B,8.0
3,23.009000062942505,learn,36990.999937057495,Fri Sep 20 2024 17:52:51 GMT-0500 (Central Daylight Time),382764.5,A,gras,I,s,219,1,2915.7000000001863,379848.7999999998,8006,WL,B,8.0
3,23.14300012588501,learn,36856.99987411499,Fri Sep 20 2024 17:52:51 GMT-0500 (Central Daylight Time),382897.89999999944,A,grass,I,s,122,1,3049.0999999996275,379848.7999999998,8006,WL,B,8.0
3,23.276000022888184,learn,36723.99997711182,Fri Sep 20 2024 17:52:51 GMT-0500 (Central Daylight Time),383031.2000000002,A,grassenter,I,enter,115,1,3182.4000000003725,379848.7999999998,8006,WL,B,8.0
3,24.358999967575073,learn,35641.00003242493,Fri Sep 20 2024 17:52:51 GMT-0500 (Central Daylight Time),384114.0,A,c,I,c,1063,1,1082.6000000005588,383031.39999999944,8006,WL,B,9.0
3,24.426000118255615,learn,35573.999881744385,Fri Sep 20 2024 17:52:51 GMT-0500 (Central Daylight Time),384181.0,A,ci,I,i,52,1,1149.6000000005588,383031.39999999944,8006,WL,B,9.0
3,24.625,learn,35375.0,Fri Sep 20 2024 17:52:51 GMT-0500 (Central Daylight Time),384380.5999999996,A,ciy,I,y,186,1,1349.2000000001863,383031.39999999944,8006,WL,B,9.0
3,24.77500009536743,learn,35224.99990463257,Fri Sep 20 2024 17:52:51 GMT-0500 (Central Daylight Time),384530.5,A,ciyenter,I,enter,129,1,1499.1000000005588,383031.39999999944,8006,WL,B,9.0
3,29.624000072479248,learn,30375.999927520752,Fri Sep 20 2024 17:52:51 GMT-0500 (Central Daylight Time),389379.0,A,enter,I,enter,4843,1,4848.100000000559,384530.89999999944,8006,WL,B,10.0
3,29.824000120162964,learn,30175.999879837036,Fri Sep 20 2024 17:52:51 GMT-0500 (Central Daylight Time),389579.0,A,enter,I,enter,187,1,199.70000000018626,389379.2999999998,8006,WL,B,11.0
3,30.124000072479248,learn,29875.999927520752,Fri Sep 20 2024 17:52:51 GMT-0500 (Central Daylight Time),389878.89999999944,A,enter,I,enter,291,1,299.5,389579.39999999944,8006,WL,B,12.0
3,30.341000080108643,learn,29658.999919891357,Fri Sep 20 2024 17:52:51 GMT-0500 (Central Daylight Time),390095.5999999996,A,enter,I,enter,200,1,216.29999999981374,389879.2999999998,8006,WL,B,13.0
3,30.69000005722046,learn,29309.99994277954,Fri Sep 20 2024 17:52:51 GMT-0500 (Central Daylight Time),390445.39999999944,A,enter,I,enter,334,1,349.3999999994412,390096.0,8006,WL,B,14.0
3,31.10700011253357,learn,28892.99988746643,Fri Sep 20 2024 17:52:51 GMT-0500 (Central Daylight Time),390861.89999999944,A,enter,I,enter,408,1,416.09999999962747,390445.7999999998,8006,WL,B,15.0
4,1.1009998321533203,learn,58899.00016784668,Fri Sep 20 2024 17:52:51 GMT-0500 (Central Daylight Time),457308.7999999998,A,s,I,s,1094,1,1100.5,456208.2999999998,8006,WL,B,1.0
4,1.3829998970031738,learn,58617.000102996826,Fri Sep 20 2024 17:52:51 GMT-0500 (Central Daylight Time),457590.89999999944,A,st,I,t,265,1,1382.5999999996275,456208.2999999998,8006,WL,B,1.0
4,1.616999864578247,learn,58383.00013542175,Fri Sep 20 2024 17:52:51 GMT-0500 (Central Daylight Time),457824.39999999944,A,str,I,r,223,1,1616.0999999996275,456208.2999999998,8006,WL,B,1.0
4,1.682999849319458,learn,58317.00015068054,Fri Sep 20 2024 17:52:51 GMT-0500 (Central Daylight Time),457891.0999999996,A,stre,I,e,53,1,1682.7999999998137,456208.2999999998,8006,WL,B,1.0
4,1.8829998970031738,learn,58117.000102996826,Fri Sep 20 2024 17:52:51 GMT-0500 (Central Daylight Time),458090.5999999996,A,stree,I,e,186,1,1882.2999999998137,456208.2999999998,8006,WL,B,1.0
4,1.9500000476837158,learn,58049.999952316284,Fri Sep 20 2024 17:52:51 GMT-0500 (Central Daylight Time),458157.5999999996,A,street,I,t,59,1,1949.2999999998137,456208.2999999998,8006,WL,B,1.0
4,2.25,learn,57750.0,Fri Sep 20 2024 17:52:51 GMT-0500 (Central Daylight Time),458457.5,A,streetenter,I,enter,288,1,2249.2000000001863,456208.2999999998,8006,WL,B,1.0
4,2.9169998168945312,learn,57083.00018310547,Fri Sep 20 2024 17:52:51 GMT-0500 (Central Daylight Time),459124.7999999998,A,g,I,g,652,1,667.0999999996275,458457.7000000002,8006,WL,B,2.0
4,3.0999999046325684,learn,56900.00009536743,Fri Sep 20 2024 17:52:51 GMT-0500 (Central Daylight Time),459307.2999999998,A,gr,I,r,162,1,849.5999999996275,458457.7000000002,8006,WL,B,2.0
4,3.115999937057495,learn,56884.000062942505,Fri Sep 20 2024 17:52:51 GMT-0500 (Central Daylight Time),459323.7999999998,A,gra,I,a,10,1,866.0999999996275,458457.7000000002,8006,WL,B,2.0
4,3.3329999446868896,learn,56667.00005531311,Fri Sep 20 2024 17:52:51 GMT-0500 (Central Daylight Time),459540.39999999944,A,gras,I,s,202,1,1082.699999999255,458457.7000000002,8006,WL,B,2.0
4,3.4670000076293945,learn,56532.999992370605,Fri Sep 20 2024 17:52:51 GMT-0500 (Central Daylight Time),459674.7000000002,A,grass,I,s,121,1,1217.0,458457.7000000002,8006,WL,B,2.0
4,3.7819998264312744,learn,56218.000173568726,Fri Sep 20 2024 17:52:51 GMT-0500 (Central Daylight Time),459990.0999999996,A,grassenter,I,enter,300,1,1532.3999999994412,458457.7000000002,8006,WL,B,2.0
4,4.016000032424927,learn,55983.99996757507,Fri Sep 20 2024 17:52:51 GMT-0500 (Central Daylight Time),460223.7999999998,A,a,I,a,225,1,233.29999999981374,459990.5,8006,WL,B,3.0
4,4.398999929428101,learn,55601.0000705719,Fri Sep 20 2024 17:52:51 GMT-0500 (Central Daylight Time),460606.7999999998,A,ar,I,r,367,1,616.2999999998137,459990.5,8006,WL,B,3.0
4,4.498999834060669,learn,55501.00016593933,Fri Sep 20 2024 17:52:51 GMT-0500 (Central Daylight Time),460706.89999999944,A,arm,I,m,87,1,716.3999999994412,459990.5,8006,WL,B,3.0
4,4.73199987411499,learn,55268.00012588501,Fri Sep 20 2024 17:52:51 GMT-0500 (Central Daylight Time),460940.0,A,armenter,I,enter,219,1,949.5,459990.5,8006,WL,B,3.0
4,5.082000017166138,learn,54917.99998283386,Fri Sep 20 2024 17:52:51 GMT-0500 (Central Daylight Time),461289.5,A,p,I,p,338,1,349.20000000018626,460940.2999999998,8006,WL,B,4.0
4,5.365000009536743,learn,54634.99999046326,Fri Sep 20 2024 17:52:51 GMT-0500 (Central Daylight Time),461573.0999999996,A,pi,I,i,267,1,632.7999999998137,460940.2999999998,8006,WL,B,4.0
4,5.549000024795532,learn,54450.99997520447,Fri Sep 20 2024 17:52:51 GMT-0500 (Central Daylight Time),461756.39999999944,A,pip,I,p,178,1,816.0999999996275,460940.2999999998,8006,WL,B,4.0
4,5.832000017166138,learn,54167.99998283386,Fri Sep 20 2024 17:52:51 GMT-0500 (Central Daylight Time),462039.7999999998,A,pipe,I,e,274,1,1099.5,460940.2999999998,8006,WL,B,4.0
4,6.031999826431274,learn,53968.000173568726,Fri Sep 20 2024 17:52:51 GMT-0500 (Central Daylight Time),462239.5,A,pipeenter,I,enter,190,1,1299.2000000001863,460940.2999999998,8006,WL,B,4.0
4,6.98199987411499,learn,53018.00012588501,Fri Sep 20 2024 17:52:51 GMT-0500 (Central Daylight Time),463189.2999999998,A,w,I,w,942,1,949.5,462239.7999999998,8006,WL,B,5.0
4,7.080999851226807,learn,52919.00014877319,Fri Sep 20 2024 17:52:51 GMT-0500 (Central Daylight Time),463289.2000000002,A,wi,I,i,89,1,1049.4000000003725,462239.7999999998,8006,WL,B,5.0
4,7.264999866485596,learn,52735.000133514404,Fri Sep 20 2024 17:52:51 GMT-0500 (Central Daylight Time),463472.5,A,wif,I,f,165,1,1232.7000000001863,462239.7999999998,8006,WL,B,5.0
4,7.330999851226807,learn,52669.00014877319,Fri Sep 20 2024 17:52:51 GMT-0500 (Central Daylight Time),463538.7999999998,A,wife,I,e,62,1,1299.0,462239.7999999998,8006,WL,B,5.0
4,7.497999906539917,learn,52502.00009346008,Fri Sep 20 2024 17:52:51 GMT-0500 (Central Daylight Time),463706.0,A,wifeenter,I,enter,156,1,1466.2000000001863,462239.7999999998,8006,WL,B,5.0
4,8.697999954223633,learn,51302.00004577637,Fri Sep 20 2024 17:52:51 GMT-0500 (Central Daylight Time),464905.39999999944,A,c,I,c,1180,1,1199.0999999996275,463706.2999999998,8006,WL,B,6.0
4,8.763999938964844,learn,51236.000061035156,Fri Sep 20 2024 17:52:51 GMT-0500 (Central Daylight Time),464972.0999999996,A,cl,I,l,60,1,1265.7999999998137,463706.2999999998,8006,WL,B,6.0
4,8.930999994277954,learn,51069.000005722046,Fri Sep 20 2024 17:52:51 GMT-0500 (Central Daylight Time),465138.5,A,clo,I,o,154,1,1432.2000000001863,463706.2999999998,8006,WL,B,6.0
4,9.013999938964844,learn,50986.000061035156,Fri Sep 20 2024 17:52:51 GMT-0500 (Central Daylight Time),465222.0,A,cloc,I,c,68,1,1515.7000000001863,463706.2999999998,8006,WL,B,6.0
4,9.146999835968018,learn,50853.00016403198,Fri Sep 20 2024 17:52:51 GMT-0500 (Central Daylight Time),465355.2000000002,A,clock,I,k,119,1,1648.9000000003725,463706.2999999998,8006,WL,B,6.0
4,9.480999946594238,learn,50519.00005340576,Fri Sep 20 2024 17:52:51 GMT-0500 (Central Daylight Time),465688.39999999944,A,clockenter,I,enter,314,1,1982.0999999996275,463706.2999999998,8006,WL,B,6.0
4,11.04699993133545,learn,48953.00006866455,Fri Sep 20 2024 17:52:51 GMT-0500 (Central Daylight Time),467254.7000000002,A,l,I,l,1557,1,1565.9000000003725,465688.7999999998,8006,WL,B,7.0
4,11.146999835968018,learn,48853.00016403198,Fri Sep 20 2024 17:52:51 GMT-0500 (Central Daylight Time),467354.7999999998,A,la,I,a,78,1,1666.0,465688.7999999998,8006,WL,B,7.0
4,11.329999923706055,learn,48670.000076293945,Fri Sep 20 2024 17:52:51 GMT-0500 (Central Daylight Time),467538.2999999998,A,lak,I,k,163,1,1849.5,465688.7999999998,8006,WL,B,7.0
4,11.462999820709229,learn,48537.00017929077,Fri Sep 20 2024 17:52:51 GMT-0500 (Central Daylight Time),467671.0999999996,A,lake,I,e,116,1,1982.2999999998137,465688.7999999998,8006,WL,B,7.0
4,11.562999963760376,learn,48437.000036239624,Fri Sep 20 2024 17:52:51 GMT-0500 (Central Daylight Time),467771.2999999998,A,lakeenter,I,enter,78,1,2082.5,465688.7999999998,8006,WL,B,7.0
4,11.962999820709229,learn,48037.00017929077,Fri Sep 20 2024 17:52:51 GMT-0500 (Central Daylight Time),468170.89999999944,A,c,I,c,396,1,399.29999999981374,467771.5999999996,8006,WL,B,8.0
4,12.046000003814697,learn,47953.9999961853,Fri Sep 20 2024 17:52:51 GMT-0500 (Central Daylight Time),468254.39999999944,A,ca,I,a,75,1,482.79999999981374,467771.5999999996,8006,WL,B,8.0
4,12.296000003814697,learn,47703.9999961853,Fri Sep 20 2024 17:52:51 GMT-0500 (Central Daylight Time),468504.2999999998,A,cab,I,b,231,1,732.7000000001863,467771.5999999996,8006,WL,B,8.0
4,12.395999908447266,learn,47604.000091552734,Fri Sep 20 2024 17:52:51 GMT-0500 (Central Daylight Time),468604.39999999944,A,cabi,I,i,93,1,832.7999999998137,467771.5999999996,8006,WL,B,8.0
4,12.480000019073486,learn,47519.999980926514,Fri Sep 20 2024 17:52:51 GMT-0500 (Central Daylight Time),468687.89999999944,A,cabin,I,n,65,1,916.2999999998137,467771.5999999996,8006,WL,B,8.0
4,12.645999908447266,learn,47354.000091552734,Fri Sep 20 2024 17:52:51 GMT-0500 (Central Daylight Time),468854.2999999998,A,cabinenter,I,enter,150,1,1082.7000000001863,467771.5999999996,8006,WL,B,8.0
4,15.044999837875366,learn,44955.000162124634,Fri Sep 20 2024 17:52:51 GMT-0500 (Central Daylight Time),471253.2000000002,A,enter,I,enter,2391,1,2398.600000000559,468854.5999999996,8006,WL,B,9.0
4,15.59500002861023,learn,44404.99997138977,Fri Sep 20 2024 17:52:51 GMT-0500 (Central Daylight Time),471803.0999999996,A,enter,I,enter,545,1,549.3999999994412,471253.7000000002,8006,WL,B,10.0
4,17.527999877929688,learn,42472.00012207031,Fri Sep 20 2024 17:52:51 GMT-0500 (Central Daylight Time),473735.7000000002,A,enter,I,enter,1924,1,1932.300000000745,471803.39999999944,8006,WL,B,11.0
4,17.794999837875366,learn,42205.000162124634,Fri Sep 20 2024 17:52:51 GMT-0500 (Central Daylight Time),474002.5999999996,A,enter,I,enter,255,1,266.5,473736.0999999996,8006,WL,B,12.0
4,18.09500002861023,learn,41904.99997138977,Fri Sep 20 2024 17:52:51 GMT-0500 (Central Daylight Time),474302.5999999996,A,enter,I,enter,283,1,299.5,474003.0999999996,8006,WL,B,13.0
4,18.41100001335144,learn,41588.99998664856,Fri Sep 20 2024 17:52:51 GMT-0500 (Central Daylight Time),474618.89999999944,A,enter,I,enter,296,1,315.8999999994412,474303.0,8006,WL,B,14.0
4,18.777999877929688,learn,41222.00012207031,Fri Sep 20 2024 17:52:51 GMT-0500 (Central Daylight Time),474985.5999999996,A,enter,I,enter,356,1,366.29999999981374,474619.2999999998,8006,WL,B,15.0
5,1.5999999046325684,learn,60000.0,Fri Sep 20 2024 17:52:51 GMT-0500 (Central Daylight Time),542597.8999999994,A,g,I,g,1586,1,1599.699999999255,540998.2000000002,8006,WL,B,1.0
5,1.7660000324249268,learn,60000.0,Fri Sep 20 2024 17:52:51 GMT-0500 (Central Daylight Time),542764.5,A,gr,I,r,151,1,1766.2999999998137,540998.2000000002,8006,WL,B,1.0
5,1.8329999446868896,learn,60000.0,Fri Sep 20 2024 17:52:51 GMT-0500 (Central Daylight Time),542830.7999999998,A,gra,I,a,57,1,1832.5999999996275,540998.2000000002,8006,WL,B,1.0
5,2.0329999923706055,learn,60000.0,Fri Sep 20 2024 17:52:51 GMT-0500 (Central Daylight Time),543030.8999999994,A,gras,I,s,192,1,2032.699999999255,540998.2000000002,8006,WL,B,1.0
5,2.1659998893737793,learn,60000.0,Fri Sep 20 2024 17:52:51 GMT-0500 (Central Daylight Time),543164.0999999996,A,grass,I,s,127,1,2165.899999999441,540998.2000000002,8006,WL,B,1.0
5,2.5829999446868896,learn,60000.0,Fri Sep 20 2024 17:52:51 GMT-0500 (Central Daylight Time),543580.8999999994,A,grassenter,I,enter,402,1,2582.699999999255,540998.2000000002,8006,WL,B,1.0
5,3.2160000801086426,learn,60000.0,Fri Sep 20 2024 17:52:51 GMT-0500 (Central Daylight Time),544213.7999999998,A,w,I,w,616,1,632.4000000003725,543581.3999999994,8006,WL,B,2.0
5,3.2990000247955322,learn,60000.0,Fri Sep 20 2024 17:52:51 GMT-0500 (Central Daylight Time),544297.0,A,wi,I,i,73,1,715.6000000005588,543581.3999999994,8006,WL,B,2.0
5,3.3489999771118164,learn,60000.0,Fri Sep 20 2024 17:52:51 GMT-0500 (Central Daylight Time),544346.8999999994,A,win,I,n,44,1,765.5,543581.3999999994,8006,WL,B,2.0
5,3.7170000076293945,learn,60000.0,Fri Sep 20 2024 17:52:51 GMT-0500 (Central Daylight Time),544714.8999999994,A,wind,I,d,363,1,1133.5,543581.3999999994,8006,WL,B,2.0
5,4.131999969482422,learn,60000.0,Fri Sep 20 2024 17:52:51 GMT-0500 (Central Daylight Time),545129.8999999994,A,windo,I,o,395,1,1548.5,543581.3999999994,8006,WL,B,2.0
5,4.181999921798706,learn,60000.0,Fri Sep 20 2024 17:52:51 GMT-0500 (Central Daylight Time),545179.8999999994,A,window,I,w,36,1,1598.5,543581.3999999994,8006,WL,B,2.0
5,4.5320000648498535,learn,60000.0,Fri Sep 20 2024 17:52:51 GMT-0500 (Central Daylight Time),545529.7999999998,A,windowenter,I,enter,338,1,1948.4000000003725,543581.3999999994,8006,WL,B,2.0
5,5.047999858856201,learn,60000.0,Fri Sep 20 2024 17:52:51 GMT-0500 (Central Daylight Time),546046.5999999996,A,c,I,c,500,1,516.5,545530.0999999996,8006,WL,B,3.0
5,5.148999929428101,learn,60000.0,Fri Sep 20 2024 17:52:51 GMT-0500 (Central Daylight Time),546146.7999999998,A,ci,I,i,88,1,616.7000000001863,545530.0999999996,8006,WL,B,3.0
5,5.264999866485596,learn,60000.0,Fri Sep 20 2024 17:52:51 GMT-0500 (Central Daylight Time),546263.2000000002,A,cit,I,t,99,1,733.1000000005588,545530.0999999996,8006,WL,B,3.0
5,5.365000009536743,learn,60000.0,Fri Sep 20 2024 17:52:51 GMT-0500 (Central Daylight Time),546363.2000000002,A,city,I,y,79,1,833.1000000005588,545530.0999999996,8006,WL,B,3.0
5,5.497999906539917,learn,60000.0,Fri Sep 20 2024 17:52:51 GMT-0500 (Central Daylight Time),546496.2999999998,A,cityenter,I,enter,114,1,966.2000000001863,545530.0999999996,8006,WL,B,3.0
5,6.247999906539917,learn,60000.0,Fri Sep 20 2024 17:52:51 GMT-0500 (Central Daylight Time),547246.2000000002,A,p,I,p,743,1,749.6000000005588,546496.5999999996,8006,WL,B,4.0
5,6.9649999141693115,learn,60000.0,Fri Sep 20 2024 17:52:51 GMT-0500 (Central Daylight Time),547963.5,A,pu,I,u,711,1,1466.9000000003725,546496.5999999996,8006,WL,B,4.0
5,7.414000034332275,learn,60000.0,Fri Sep 20 2024 17:52:51 GMT-0500 (Central Daylight Time),548412.5999999996,A,pup,I,p,434,1,1916.0,546496.5999999996,8006,WL,B,4.0
5,7.96399998664856,learn,60000.0,Fri Sep 20 2024 17:52:51 GMT-0500 (Central Daylight Time),548962.2999999998,A,pupi,I,i,529,1,2465.7000000001863,546496.5999999996,8006,WL,B,4.0
5,8.013999938964844,learn,60000.0,Fri Sep 20 2024 17:52:51 GMT-0500 (Central Daylight Time),549012.2000000002,A,pupil,I,l,43,1,2515.600000000559,546496.5999999996,8006,WL,B,4.0
5,8.19700002670288,learn,60000.0,Fri Sep 20 2024 17:52:51 GMT-0500 (Central Daylight Time),549195.5,A,pupilenter,I,enter,179,1,2698.9000000003725,546496.5999999996,8006,WL,B,4.0
5,8.579999923706055,learn,60000.0,Fri Sep 20 2024 17:52:51 GMT-0500 (Central Daylight Time),549578.7999999998,A,c,I,c,371,1,383.09999999962747,549195.7000000002,8006,WL,B,5.0
5,8.664000034332275,learn,60000.0,Fri Sep 20 2024 17:52:51 GMT-0500 (Central Daylight Time),549662.2999999998,A,ca,I,a,76,1,466.59999999962747,549195.7000000002,8006,WL,B,5.0
5,8.897000074386597,learn,60000.0,Fri Sep 20 2024 17:52:51 GMT-0500 (Central Daylight Time),549895.5999999996,A,cab,I,b,224,1,699.8999999994412,549195.7000000002,8006,WL,B,5.0
5,9.013999938964844,learn,60000.0,Fri Sep 20 2024 17:52:51 GMT-0500 (Central Daylight Time),550012.0,A,cabi,I,i,103,1,816.2999999998137,549195.7000000002,8006,WL,B,5.0
5,9.079999923706055,learn,60000.0,Fri Sep 20 2024 17:52:51 GMT-0500 (Central Daylight Time),550078.5,A,cabin,I,n,51,1,882.7999999998137,549195.7000000002,8006,WL,B,5.0
5,9.263999938964844,learn,60000.0,Fri Sep 20 2024 17:52:51 GMT-0500 (Central Daylight Time),550261.8999999994,A,cabinenter,I,enter,168,1,1066.199999999255,549195.7000000002,8006,WL,B,5.0
5,10.963000059127808,learn,60000.0,Fri Sep 20 2024 17:52:51 GMT-0500 (Central Daylight Time),551961.5,A,l,I,l,1687,1,1699.2999999998137,550262.2000000002,8006,WL,B,6.0
5,11.02999997138977,learn,60000.0,Fri Sep 20 2024 17:52:51 GMT-0500 (Central Daylight Time),552028.0999999996,A,la,I,a,61,1,1765.8999999994412,550262.2000000002,8006,WL,B,6.0
5,11.430000066757202,learn,60000.0,Fri Sep 20 2024 17:52:51 GMT-0500 (Central Daylight Time),552427.8999999994,A,lak,I,k,394,1,2165.699999999255,550262.2000000002,8006,WL,B,6.0
5,11.52999997138977,learn,60000.0,Fri Sep 20 2024 17:52:51 GMT-0500 (Central Daylight Time),552527.8999999994,A,lake,I,e,82,1,2265.699999999255,550262.2000000002,8006,WL,B,6.0
5,11.662999868392944,learn,60000.0,Fri Sep 20 2024 17:52:51 GMT-0500 (Central Daylight Time),552661.2000000002,A,lakeenter,I,enter,127,1,2399.0,550262.2000000002,8006,WL,B,6.0
5,13.161999940872192,learn,60000.0,Fri Sep 20 2024 17:52:51 GMT-0500 (Central Daylight Time),554160.7000000002,A,w,I,w,1480,1,1499.2000000001863,552661.5,8006,WL,B,7.0
5,13.228999853134155,learn,60000.0,Fri Sep 20 2024 17:52:51 GMT-0500 (Central Daylight Time),554227.2999999998,A,wi,I,i,61,1,1565.7999999998137,552661.5,8006,WL,B,7.0
5,13.395999908447266,learn,60000.0,Fri Sep 20 2024 17:52:51 GMT-0500 (Central Daylight Time),554393.7999999998,A,wif,I,f,155,1,1732.2999999998137,552661.5,8006,WL,B,7.0
5,13.461999893188477,learn,60000.0,Fri Sep 20 2024 17:52:51 GMT-0500 (Central Daylight Time),554460.7999999998,A,wife,I,e,60,1,1799.2999999998137,552661.5,8006,WL,B,7.0
5,13.611999988555908,learn,60000.0,Fri Sep 20 2024 17:52:51 GMT-0500 (Central Daylight Time),554610.7000000002,A,wifeenter,I,enter,129,1,1949.2000000001863,552661.5,8006,WL,B,7.0
5,14.361999988555908,learn,60000.0,Fri Sep 20 2024 17:52:51 GMT-0500 (Central Daylight Time),555360.2999999998,A,g,I,g,739,1,749.2000000001863,554611.0999999996,8006,WL,B,8.0
5,14.529000043869019,learn,60000.0,Fri Sep 20 2024 17:52:51 GMT-0500 (Central Daylight Time),555527.0,A,gr,I,r,150,1,915.9000000003725,554611.0999999996,8006,WL,B,8.0
5,14.578999996185303,learn,60000.0,Fri Sep 20 2024 17:52:51 GMT-0500 (Central Daylight Time),555577.0,A,gra,I,a,39,1,965.9000000003725,554611.0999999996,8006,WL,B,8.0
5,14.795000076293945,learn,60000.0,Fri Sep 20 2024 17:52:51 GMT-0500 (Central Daylight Time),555793.7000000002,A,gras,I,s,197,1,1182.6000000005588,554611.0999999996,8006,WL,B,8.0
5,14.92799997329712,learn,60000.0,Fri Sep 20 2024 17:52:51 GMT-0500 (Central Daylight Time),555926.7999999998,A,grass,I,s,117,1,1315.7000000001863,554611.0999999996,8006,WL,B,8.0
5,15.027999877929688,learn,60000.0,Fri Sep 20 2024 17:52:51 GMT-0500 (Central Daylight Time),556026.7000000002,A,grassenter,I,enter,87,1,1415.6000000005588,554611.0999999996,8006,WL,B,8.0
5,15.82800006866455,learn,60000.0,Fri Sep 20 2024 17:52:51 GMT-0500 (Central Daylight Time),556826.7000000002,A,a,I,a,795,1,799.7000000001863,556027.0,8006,WL,B,9.0
5,15.911999940872192,learn,60000.0,Fri Sep 20 2024 17:52:51 GMT-0500 (Central Daylight Time),556910.0,A,ar,I,r,75,1,883.0,556027.0,8006,WL,B,9.0
5,16.111999988555908,learn,60000.0,Fri Sep 20 2024 17:52:51 GMT-0500 (Central Daylight Time),557109.8999999994,A,arm,I,m,185,1,1082.8999999994412,556027.0,8006,WL,B,9.0
5,16.32800006866455,learn,60000.0,Fri Sep 20 2024 17:52:51 GMT-0500 (Central Daylight Time),557326.2000000002,A,armenter,I,enter,208,1,1299.2000000001863,556027.0,8006,WL,B,9.0
5,18.74399995803833,learn,60000.0,Fri Sep 20 2024 17:52:51 GMT-0500 (Central Daylight Time),559742.3999999994,A,s,I,s,2407,1,2415.7999999998137,557326.5999999996,8006,WL,B,10.0
5,18.8439998626709,learn,60000.0,Fri Sep 20 2024 17:52:51 GMT-0500 (Central Daylight Time),559842.2000000002,A,st,I,t,88,1,2515.600000000559,557326.5999999996,8006,WL,B,10.0
5,19.007999897003174,learn,60000.0,Fri Sep 20 2024 17:52:51 GMT-0500 (Central Daylight Time),560006.5999999996,A,sta,I,a,160,1,2680.0,557326.5999999996,8006,WL,B,10.0
5,19.155999898910522,learn,60000.0,Fri Sep 20 2024 17:52:51 GMT-0500 (Central Daylight Time),560154.2000000002,A,star,I,r,143,1,2827.600000000559,557326.5999999996,8006,WL,B,10.0
5,19.39400005340576,learn,60000.0,Fri Sep 20 2024 17:52:51 GMT-0500 (Central Daylight Time),560392.0999999996,A,starenter,I,enter,228,1,3065.5,557326.5999999996,8006,WL,B,10.0
5,20.126999855041504,learn,60000.0,Fri Sep 20 2024 17:52:51 GMT-0500 (Central Daylight Time),561125.2000000002,A,enter,I,enter,719,1,732.8000000007451,560392.3999999994,8006,WL,B,11.0
5,20.276999950408936,learn,60000.0,Fri Sep 20 2024 17:52:51 GMT-0500 (Central Daylight Time),561275.0,A,enter,I,enter,145,1,149.40000000037253,561125.5999999996,8006,WL,B,12.0
5,20.444000005722046,learn,60000.0,Fri Sep 20 2024 17:52:51 GMT-0500 (Central Daylight Time),561441.7999999998,A,enter,I,enter,147,1,166.5,561275.2999999998,8006,WL,B,13.0
5,20.792999982833862,learn,60000.0,Fri Sep 20 2024 17:52:51 GMT-0500 (Central Daylight Time),561791.7000000002,A,enter,I,enter,333,1,349.6000000005588,561442.0999999996,8006,WL,B,14.0
5,21.109999895095825,learn,60000.0,Fri Sep 20 2024 17:52:51 GMT-0500 (Central Daylight Time),562108.2999999998,A,enter,I,enter,311,1,316.29999999981374,561792.0,8006,WL,B,15.0
6,3.0490000247955322,distr,56950.99997520447,Fri Sep 20 2024 17:52:51 GMT-0500 (Central Daylight Time),635185.5999999996,B,a,I,a,3038,1,3049.2999999998137,632136.2999999998,8006,WL,B,1.0
6,3.1649999618530273,distr,56835.00003814697,Fri Sep 20 2024 17:52:51 GMT-0500 (Central Daylight Time),635301.7999999998,B,ab,I,b,101,1,3165.5,632136.2999999998,8006,WL,B,1.0
6,3.5820000171661377,distr,56417.99998283386,Fri Sep 20 2024 17:52:51 GMT-0500 (Central Daylight Time),635718.7999999998,B,a,I,backspace,401,1,3582.5,632136.2999999998,8006,WL,B,1.0
6,3.7149999141693115,distr,56285.00008583069,Fri Sep 20 2024 17:52:51 GMT-0500 (Central Daylight Time),635851.7000000002,B,,I,backspace,127,1,3715.4000000003725,632136.2999999998,8006,WL,B,1.0
6,3.8489999771118164,distr,56151.00002288818,Fri Sep 20 2024 17:52:51 GMT-0500 (Central Daylight Time),635985.2000000002,B,b,I,b,122,1,3848.9000000003725,632136.2999999998,8006,WL,B,1.0
6,3.9159998893737793,distr,56084.00011062622,Fri Sep 20 2024 17:52:51 GMT-0500 (Central Daylight Time),636052.7999999998,B,ba,I,a,62,1,3916.5,632136.2999999998,8006,WL,B,1.0
6,4.48199987411499,distr,55518.00012588501,Fri Sep 20 2024 17:52:51 GMT-0500 (Central Daylight Time),636618.0999999996,B,bab,I,b,553,1,4481.799999999814,632136.2999999998,8006,WL,B,1.0
6,4.547999858856201,distr,55452.0001411438,Fri Sep 20 2024 17:52:51 GMT-0500 (Central Daylight Time),636684.8999999994,B,baby,I,y,61,1,4548.5999999996275,632136.2999999998,8006,WL,B,1.0
6,4.898000001907349,distr,55101.99999809265,Fri Sep 20 2024 17:52:51 GMT-0500 (Central Daylight Time),637034.7999999998,B,babyenter,I,enter,345,1,4898.5,632136.2999999998,8006,WL,B,1.0
6,5.648000001907349,distr,54351.99999809265,Fri Sep 20 2024 17:52:51 GMT-0500 (Central Daylight Time),637784.5,B,p,I,p,739,1,749.5,637035.0,8006,WL,B,2.0
6,5.730999946594238,distr,54269.00005340576,Fri Sep 20 2024 17:52:51 GMT-0500 (Central Daylight Time),637867.5999999996,B,pa,I,a,78,1,832.5999999996275,637035.0,8006,WL,B,2.0
6,5.930999994277954,distr,54069.000005722046,Fri Sep 20 2024 17:52:51 GMT-0500 (Central Daylight Time),638067.7000000002,B,pal,I,l,187,1,1032.7000000001863,637035.0,8006,WL,B,2.0
6,6.047999858856201,distr,53952.0001411438,Fri Sep 20 2024 17:52:51 GMT-0500 (Central Daylight Time),638184.5999999996,B,pala,I,a,107,1,1149.5999999996275,637035.0,8006,WL,B,2.0
6,6.3480000495910645,distr,53651.999950408936,Fri Sep 20 2024 17:52:51 GMT-0500 (Central Daylight Time),638484.2999999998,B,palac,I,c,293,1,1449.2999999998137,637035.0,8006,WL,B,2.0
6,6.414000034332275,distr,53585.999965667725,Fri Sep 20 2024 17:52:51 GMT-0500 (Central Daylight Time),638550.7999999998,B,palace,I,e,50,1,1515.7999999998137,637035.0,8006,WL,B,2.0
6,6.980999946594238,distr,53019.00005340576,Fri Sep 20 2024 17:52:51 GMT-0500 (Central Daylight Time),639117.5,B,palaceenter,I,enter,560,1,2082.5,637035.0,8006,WL,B,2.0
6,7.63100004196167,distr,52368.99995803833,Fri Sep 20 2024 17:52:51 GMT-0500 (Central Daylight Time),639767.2999999998,B,p,I,p,633,1,649.5,639117.7999999998,8006,WL,B,3.0
6,8.04699993133545,distr,51953.00006866455,Fri Sep 20 2024 17:52:51 GMT-0500 (Central Daylight Time),640183.5999999996,B,,I,backspace,399,1,1065.7999999998137,639117.7999999998,8006,WL,B,3.0
6,8.313999891281128,distr,51686.00010871887,Fri Sep 20 2024 17:52:51 GMT-0500 (Central Daylight Time),640450.5999999996,B,o,I,o,255,1,1332.7999999998137,639117.7999999998,8006,WL,B,3.0
6,8.44700002670288,distr,51552.99997329712,Fri Sep 20 2024 17:52:51 GMT-0500 (Central Daylight Time),640584.0,B,oc,I,c,115,1,1466.2000000001863,639117.7999999998,8006,WL,B,3.0
6,8.563999891281128,distr,51436.00010871887,Fri Sep 20 2024 17:52:51 GMT-0500 (Central Daylight Time),640700.2999999998,B,oce,I,e,110,1,1582.5,639117.7999999998,8006,WL,B,3.0
6,9.063999891281128,distr,50936.00010871887,Fri Sep 20 2024 17:52:51 GMT-0500 (Central Daylight Time),641200.0999999996,B,ocea,I,a,489,1,2082.2999999998137,639117.7999999998,8006,WL,B,3.0
6,9.180000066757202,distr,50819.9999332428,Fri Sep 20 2024 17:52:51 GMT-0500 (Central Daylight Time),641316.7999999998,B,ocean,I,n,103,1,2199.0,639117.7999999998,8006,WL,B,3.0
6,9.61299991607666,distr,50387.00008392334,Fri Sep 20 2024 17:52:51 GMT-0500 (Central Daylight Time),641749.7999999998,B,oceanc,I,c,424,1,2632.0,639117.7999999998,8006,WL,B,3.0
6,9.662999868392944,distr,50337.000131607056,Fri Sep 20 2024 17:52:51 GMT-0500 (Central Daylight Time),641799.7999999998,B,oceanci,I,i,40,1,2682.0,639117.7999999998,8006,WL,B,3.0
6,9.812999963760376,distr,50187.000036239624,Fri Sep 20 2024 17:52:51 GMT-0500 (Central Daylight Time),641950.0,B,oceancit,I,t,143,1,2832.2000000001863,639117.7999999998,8006,WL,B,3.0
6,10.147000074386597,distr,49852.9999256134,Fri Sep 20 2024 17:52:51 GMT-0500 (Central Daylight Time),642283.0,B,oceanci,I,backspace,312,1,3165.2000000001863,639117.7999999998,8006,WL,B,3.0
6,10.29699993133545,distr,49703.00006866455,Fri Sep 20 2024 17:52:51 GMT-0500 (Central Daylight Time),642433.0999999996,B,oceanc,I,backspace,132,1,3315.2999999998137,639117.7999999998,8006,WL,B,3.0
6,10.430000066757202,distr,49569.9999332428,Fri Sep 20 2024 17:52:51 GMT-0500 (Central Daylight Time),642566.3999999994,B,ocean,I,backspace,126,1,3448.5999999996275,639117.7999999998,8006,WL,B,3.0
6,10.562999963760376,distr,49437.000036239624,Fri Sep 20 2024 17:52:51 GMT-0500 (Central Daylight Time),642699.3999999994,B,ocea,I,backspace,128,1,3581.5999999996275,639117.7999999998,8006,WL,B,3.0
6,11.145999908447266,distr,48854.000091552734,Fri Sep 20 2024 17:52:51 GMT-0500 (Central Daylight Time),643282.8999999994,B,ocean,I,n,578,1,4165.0999999996275,639117.7999999998,8006,WL,B,3.0
6,11.430000066757202,distr,48569.9999332428,Fri Sep 20 2024 17:52:51 GMT-0500 (Central Daylight Time),643566.0999999996,B,oceanenter,I,enter,268,1,4448.299999999814,639117.7999999998,8006,WL,B,3.0
6,12.845999956130981,distr,47154.00004386902,Fri Sep 20 2024 17:52:51 GMT-0500 (Central Daylight Time),644982.3999999994,B,enter,I,enter,1408,1,1415.7999999998137,643566.5999999996,8006,WL,B,4.0
6,13.029000043869019,distr,46970.99995613098,Fri Sep 20 2024 17:52:51 GMT-0500 (Central Daylight Time),645165.5,B,enter,I,enter,167,1,182.90000000037253,644982.5999999996,8006,WL,B,5.0
6,13.19599986076355,distr,46804.00013923645,Fri Sep 20 2024 17:52:51 GMT-0500 (Central Daylight Time),645332.0999999996,B,enter,I,enter,153,1,166.29999999981374,645165.7999999998,8006,WL,B,6.0
6,13.628999948501587,distr,46371.00005149841,Fri Sep 20 2024 17:52:51 GMT-0500 (Central Daylight Time),645765.3999999994,B,enter,I,enter,417,1,432.79999999981374,645332.5999999996,8006,WL,B,7.0
6,14.294999837875366,distr,45705.000162124634,Fri Sep 20 2024 17:52:51 GMT-0500 (Central Daylight Time),646431.7999999998,B,enter,I,enter,649,1,666.0,645765.7999999998,8006,WL,B,8.0
6,14.51199984550476,distr,45488.00015449524,Fri Sep 20 2024 17:52:51 GMT-0500 (Central Daylight Time),646648.3999999994,B,enter,I,enter,198,1,216.29999999981374,646432.0999999996,8006,WL,B,9.0
6,14.67799997329712,distr,45322.00002670288,Fri Sep 20 2024 17:52:51 GMT-0500 (Central Daylight Time),646815.0,B,enter,I,enter,157,1,166.20000000018626,646648.7999999998,8006,WL,B,10.0
6,14.861999988555908,distr,45138.00001144409,Fri Sep 20 2024 17:52:51 GMT-0500 (Central Daylight Time),646998.3999999994,B,enter,I,enter,168,1,183.09999999962747,646815.2999999998,8006,WL,B,11.0
6,15.144999980926514,distr,44855.000019073486,Fri Sep 20 2024 17:52:51 GMT-0500 (Central Daylight Time),647281.5999999996,B,enter,I,enter,263,1,282.8999999994412,646998.7000000002,8006,WL,B,12.0
6,15.460999965667725,distr,44539.000034332275,Fri Sep 20 2024 17:52:51 GMT-0500 (Central Daylight Time),647598.0999999996,B,enter,I,enter,309,1,316.09999999962747,647282.0,8006,WL,B,13.0
6,15.777999877929688,distr,44222.00012207031,Fri Sep 20 2024 17:52:51 GMT-0500 (Central Daylight Time),647914.7999999998,B,enter,I,enter,296,1,316.40000000037253,647598.3999999994,8006,WL,B,14.0
6,16.111000061035156,distr,43888.999938964844,Fri Sep 20 2024 17:52:51 GMT-0500 (Central Daylight Time),648247.7999999998,B,enter,I,enter,315,1,332.70000000018626,647915.0999999996,8006,WL,B,15.0
7,0.3339998722076416,immed,59666.00012779236,Fri Sep 20 2024 17:52:51 GMT-0500 (Central Daylight Time),661660.3999999994,A,g,I,g,328,1,333.09999999962747,661327.2999999998,8006,WL,B,1.0
7,0.5339999198913574,immed,59466.00008010864,Fri Sep 20 2024 17:52:51 GMT-0500 (Central Daylight Time),661860.2999999998,A,gr,I,r,194,1,533.0,661327.2999999998,8006,WL,B,1.0
7,0.5999999046325684,immed,59400.00009536743,Fri Sep 20 2024 17:52:51 GMT-0500 (Central Daylight Time),661926.8999999994,A,gra,I,a,58,1,599.5999999996275,661327.2999999998,8006,WL,B,1.0
7,1.0,immed,59000.0,Fri Sep 20 2024 17:52:51 GMT-0500 (Central Daylight Time),662327.0,A,gras,I,s,392,1,999.7000000001863,661327.2999999998,8006,WL,B,1.0
7,1.1329998970031738,immed,58867.000102996826,Fri Sep 20 2024 17:52:51 GMT-0500 (Central Daylight Time),662460.0,A,grass,I,s,120,1,1132.7000000001863,661327.2999999998,8006,WL,B,1.0
7,1.316999912261963,immed,58683.00008773804,Fri Sep 20 2024 17:52:51 GMT-0500 (Central Daylight Time),662643.5,A,grassenter,I,enter,171,1,1316.2000000001863,661327.2999999998,8006,WL,B,1.0
7,2.5329999923706055,immed,57467.000007629395,Fri Sep 20 2024 17:52:51 GMT-0500 (Central Daylight Time),663859.3999999994,A,b,I,b,1212,1,1215.699999999255,662643.7000000002,8006,WL,B,2.0
7,2.615999937057495,immed,57384.000062942505,Fri Sep 20 2024 17:52:51 GMT-0500 (Central Daylight Time),663943.0999999996,A,ba,I,a,67,1,1299.3999999994412,662643.7000000002,8006,WL,B,2.0
7,3.065999984741211,immed,56934.00001525879,Fri Sep 20 2024 17:52:51 GMT-0500 (Central Daylight Time),664392.7999999998,A,bac,I,c,439,1,1749.0999999996275,662643.7000000002,8006,WL,B,2.0
7,3.5329999923706055,immed,56467.000007629395,Fri Sep 20 2024 17:52:51 GMT-0500 (Central Daylight Time),664859.3999999994,A,ba,I,backspace,454,1,2215.699999999255,662643.7000000002,8006,WL,B,2.0
7,3.682999849319458,immed,56317.00015068054,Fri Sep 20 2024 17:52:51 GMT-0500 (Central Daylight Time),665009.2999999998,A,b,I,backspace,131,1,2365.5999999996275,662643.7000000002,8006,WL,B,2.0
7,3.798999786376953,immed,56201.00021362305,Fri Sep 20 2024 17:52:51 GMT-0500 (Central Daylight Time),665125.7999999998,A,,I,backspace,109,1,2482.0999999996275,662643.7000000002,8006,WL,B,2.0
7,4.631999969482422,immed,55368.00003051758,Fri Sep 20 2024 17:52:51 GMT-0500 (Central Daylight Time),665958.7999999998,A,c,I,c,825,1,3315.0999999996275,662643.7000000002,8006,WL,B,2.0
7,4.664999961853027,immed,55335.00003814697,Fri Sep 20 2024 17:52:51 GMT-0500 (Central Daylight Time),665992.0999999996,A,ca,I,a,23,1,3348.399999999441,662643.7000000002,8006,WL,B,2.0
7,4.881999969482422,immed,55118.00003051758,Fri Sep 20 2024 17:52:51 GMT-0500 (Central Daylight Time),666208.7999999998,A,cab,I,b,199,1,3565.0999999996275,662643.7000000002,8006,WL,B,2.0
7,5.014999866485596,immed,54985.000133514404,Fri Sep 20 2024 17:52:51 GMT-0500 (Central Daylight Time),666342.0999999996,A,cabi,I,i,126,1,3698.399999999441,662643.7000000002,8006,WL,B,2.0
7,5.082000017166138,immed,54917.99998283386,Fri Sep 20 2024 17:52:51 GMT-0500 (Central Daylight Time),666408.7999999998,A,cabin,I,n,48,1,3765.0999999996275,662643.7000000002,8006,WL,B,2.0
7,5.281999826431274,immed,54718.000173568726,Fri Sep 20 2024 17:52:51 GMT-0500 (Central Daylight Time),666608.7999999998,A,cabinenter,I,enter,181,1,3965.0999999996275,662643.7000000002,8006,WL,B,2.0
7,6.947999954223633,immed,53052.00004577637,Fri Sep 20 2024 17:52:51 GMT-0500 (Central Daylight Time),668274.8999999994,A,a,I,a,1646,1,1665.699999999255,666609.2000000002,8006,WL,B,3.0
7,7.014999866485596,immed,52985.000133514404,Fri Sep 20 2024 17:52:51 GMT-0500 (Central Daylight Time),668341.7000000002,A,ar,I,r,60,1,1732.5,666609.2000000002,8006,WL,B,3.0
7,7.197999954223633,immed,52802.00004577637,Fri Sep 20 2024 17:52:51 GMT-0500 (Central Daylight Time),668524.7000000002,A,arm,I,m,177,1,1915.5,666609.2000000002,8006,WL,B,3.0
7,7.430999994277954,immed,52569.000005722046,Fri Sep 20 2024 17:52:51 GMT-0500 (Central Daylight Time),668758.0999999996,A,armenter,I,enter,226,1,2148.899999999441,666609.2000000002,8006,WL,B,3.0
7,7.830999851226807,immed,52169.00014877319,Fri Sep 20 2024 17:52:51 GMT-0500 (Central Daylight Time),669158.2999999998,A,w,I,w,384,1,399.90000000037253,668758.3999999994,8006,WL,B,4.0
7,7.914999961853027,immed,52085.00003814697,Fri Sep 20 2024 17:52:51 GMT-0500 (Central Daylight Time),669241.3999999994,A,wi,I,i,64,1,483.0,668758.3999999994,8006,WL,B,4.0
7,8.247999906539917,immed,51752.00009346008,Fri Sep 20 2024 17:52:51 GMT-0500 (Central Daylight Time),669574.5999999996,A,wif,I,f,316,1,816.2000000001863,668758.3999999994,8006,WL,B,4.0
7,8.297999858856201,immed,51702.0001411438,Fri Sep 20 2024 17:52:51 GMT-0500 (Central Daylight Time),669624.3999999994,A,wife,I,e,32,1,866.0,668758.3999999994,8006,WL,B,4.0
7,8.48199987411499,immed,51518.00012588501,Fri Sep 20 2024 17:52:51 GMT-0500 (Central Daylight Time),669809.0,A,wifeenter,I,enter,165,1,1050.6000000005588,668758.3999999994,8006,WL,B,4.0
7,11.763000011444092,immed,48236.99998855591,Fri Sep 20 2024 17:52:51 GMT-0500 (Central Daylight Time),673090.0,A,g,I,g,3270,1,3280.7000000001863,669809.2999999998,8006,WL,B,5.0
7,12.02999997138977,immed,47970.00002861023,Fri Sep 20 2024 17:52:51 GMT-0500 (Central Daylight Time),673356.7000000002,A,gr,I,r,261,1,3547.4000000003725,669809.2999999998,8006,WL,B,5.0
7,12.145999908447266,immed,47854.000091552734,Fri Sep 20 2024 17:52:51 GMT-0500 (Central Daylight Time),673473.2000000002,A,gra,I,a,106,1,3663.9000000003725,669809.2999999998,8006,WL,B,5.0
7,12.329999923706055,immed,47670.000076293945,Fri Sep 20 2024 17:52:51 GMT-0500 (Central Daylight Time),673656.7999999998,A,gras,I,s,174,1,3847.5,669809.2999999998,8006,WL,B,5.0
7,12.462999820709229,immed,47537.00017929077,Fri Sep 20 2024 17:52:51 GMT-0500 (Central Daylight Time),673789.7999999998,A,grass,I,s,125,1,3980.5,669809.2999999998,8006,WL,B,5.0
7,12.613999843597412,immed,47386.00015640259,Fri Sep 20 2024 17:52:51 GMT-0500 (Central Daylight Time),673940.7000000002,A,grassenter,I,enter,137,1,4131.4000000003725,669809.2999999998,8006,WL,B,5.0
7,23.192999839782715,immed,36807.000160217285,Fri Sep 20 2024 17:52:51 GMT-0500 (Central Daylight Time),684520.0999999996,A,s,I,s,10570,1,10579.099999999627,673941.0,8006,WL,B,6.0
7,23.359999895095825,immed,36640.000104904175,Fri Sep 20 2024 17:52:51 GMT-0500 (Central Daylight Time),684686.2999999998,A,st,I,t,150,1,10745.299999999814,673941.0,8006,WL,B,6.0
7,23.459999799728394,immed,36540.00020027161,Fri Sep 20 2024 17:52:51 GMT-0500 (Central Daylight Time),684786.3999999994,A,sta,I,a,89,1,10845.399999999441,673941.0,8006,WL,B,6.0
7,23.55999994277954,immed,36440.00005722046,Fri Sep 20 2024 17:52:51 GMT-0500 (Central Daylight Time),684886.2999999998,A,star,I,r,84,1,10945.299999999814,673941.0,8006,WL,B,6.0
7,24.092999935150146,immed,35907.00006484985,Fri Sep 20 2024 17:52:51 GMT-0500 (Central Daylight Time),685419.7000000002,A,starenter,I,enter,520,1,11478.700000000186,673941.0,8006,WL,B,6.0
7,25.441999912261963,immed,34558.00008773804,Fri Sep 20 2024 17:52:51 GMT-0500 (Central Daylight Time),686768.8999999994,A,a,I,a,1331,1,1348.7999999998137,685420.0999999996,8006,WL,B,7.0
7,25.54199981689453,immed,34458.00018310547,Fri Sep 20 2024 17:52:51 GMT-0500 (Central Daylight Time),686869.0999999996,A,ar,I,r,94,1,1449.0,685420.0999999996,8006,WL,B,7.0
7,25.658999919891357,immed,34341.00008010864,Fri Sep 20 2024 17:52:51 GMT-0500 (Central Daylight Time),686985.7000000002,A,arm,I,m,98,1,1565.6000000005588,685420.0999999996,8006,WL,B,7.0
7,25.825999975204468,immed,34174.00002479553,Fri Sep 20 2024 17:52:51 GMT-0500 (Central Daylight Time),687152.5,A,armenter,I,enter,157,1,1732.4000000003725,685420.0999999996,8006,WL,B,7.0
7,28.79099988937378,immed,31209.00011062622,Fri Sep 20 2024 17:52:51 GMT-0500 (Central Daylight Time),690118.0999999996,A,enter,I,enter,2958,1,2965.2999999998137,687152.7999999998,8006,WL,B,8.0
7,28.990999937057495,immed,31009.000062942505,Fri Sep 20 2024 17:52:51 GMT-0500 (Central Daylight Time),690318.0999999996,A,enter,I,enter,192,1,199.59999999962747,690118.5,8006,WL,B,9.0
7,29.12399983406067,immed,30876.00016593933,Fri Sep 20 2024 17:52:51 GMT-0500 (Central Daylight Time),690451.0999999996,A,enter,I,enter,128,1,132.70000000018626,690318.3999999994,8006,WL,B,10.0
7,29.2739999294281,immed,30726.0000705719,Fri Sep 20 2024 17:52:51 GMT-0500 (Central Daylight Time),690601.0999999996,A,enter,I,enter,131,1,149.70000000018626,690451.3999999994,8006,WL,B,11.0
7,29.390999794006348,immed,30609.000205993652,Fri Sep 20 2024 17:52:51 GMT-0500 (Central Daylight Time),690717.8999999994,A,enter,I,enter,109,1,116.5,690601.3999999994,8006,WL,B,12.0
7,29.774999856948853,immed,30225.000143051147,Fri Sep 20 2024 17:52:51 GMT-0500 (Central Daylight Time),691101.5,A,enter,I,enter,377,1,383.29999999981374,690718.2000000002,8006,WL,B,13.0
7,30.075999975204468,immed,29924.000024795532,Fri Sep 20 2024 17:52:51 GMT-0500 (Central Daylight Time),691402.7999999998,A,enter,I,enter,289,1,301.0,691101.7999999998,8006,WL,B,14.0
7,30.390999794006348,immed,29609.000205993652,Fri Sep 20 2024 17:52:51 GMT-0500 (Central Daylight Time),691717.5999999996,A,enter,I,enter,308,1,314.3999999994412,691403.2000000002,8006,WL,B,15.0
