block_c,block_dur,condition,countdown,datetime,endtime,list,multichar_response,project,response,response_time,session_number,start_end,starttime,subject_id,task,task_vers,trial
,,,,Tue Apr 15 2025 17:39:40 GMT-0500 (Central Daylight Time),,,,I,space,755,3,,,8006,WL,C,
prac,,0,,Tue Apr 15 2025 17:39:40 GMT-0500 (Central Daylight Time),,NA,b,I,b,5271,3,,,8006,WL,C,1.0
prac,,0,,Tue Apr 15 2025 17:39:40 GMT-0500 (Central Daylight Time),,NA,bo,I,o,457,3,,,8006,WL,C,1.0
prac,,0,,Tue Apr 15 2025 17:39:40 GMT-0500 (Central Daylight Time),,NA,boo,I,o,147,3,,,8006,WL,C,1.0
prac,,0,,Tue Apr 15 2025 17:39:40 GMT-0500 (Central Daylight Time),,NA,boos,I,s,648,3,,,8006,WL,C,1.0
prac,,0,,Tue Apr 15 2025 17:39:40 GMT-0500 (Central Daylight Time),,NA,boosy,I,y,366,3,,,8006,WL,C,1.0
prac,,0,,Tue Apr 15 2025 17:39:40 GMT-0500 (Central Daylight Time),,NA,boos,I,backspace,638,3,,,8006,WL,C,1.0
prac,,0,,Tue Apr 15 2025 17:39:40 GMT-0500 (Central Daylight Time),,NA,boost,I,t,517,3,,,8006,WL,C,1.0
prac,,0,,Tue Apr 15 2025 17:39:40 GMT-0500 (Central Daylight Time),,NA,boostenter,I,enter,2160,3,,,8006,WL,C,1.0
1,1.2340002059936523,learn,58765.99979400635,Tue Apr 15 2025 17:39:40 GMT-0500 (Central Daylight Time),115673.89999999944,A,s,I,s,1220,3,1232.7999999998137,114441.09999999963,8006,WL,C,1.0
1,1.3330001831054688,learn,58666.99981689453,Tue Apr 15 2025 17:39:40 GMT-0500 (Central Daylight Time),115773.5,A,sh,I,h,90,3,1332.4000000003725,114441.09999999963,8006,WL,C,1.0
1,1.9500000476837158,learn,58049.999952316284,Tue Apr 15 2025 17:39:40 GMT-0500 (Central Daylight Time),116389.89999999944,A,sho,I,o,606,3,1948.7999999998137,114441.09999999963,8006,WL,C,1.0
1,2.06600022315979,learn,57933.99977684021,Tue Apr 15 2025 17:39:40 GMT-0500 (Central Daylight Time),116506.59999999963,A,shor,I,r,111,3,2065.5,114441.09999999963,8006,WL,C,1.0
1,2.133000135421753,learn,57866.99986457825,Tue Apr 15 2025 17:39:40 GMT-0500 (Central Daylight Time),116573.39999999944,A,shore,I,e,58,3,2132.2999999998137,114441.09999999963,8006,WL,C,1.0
1,2.8330001831054688,learn,57166.99981689453,Tue Apr 15 2025 17:39:40 GMT-0500 (Central Daylight Time),117273.09999999963,A,shoreenter,I,enter,687,3,2832.0,114441.09999999963,8006,WL,C,1.0
1,3.449000120162964,learn,56550.999879837036,Tue Apr 15 2025 17:39:40 GMT-0500 (Central Daylight Time),117889.59999999963,A,b,I,b,603,3,615.7999999998137,117273.79999999981,8006,WL,C,2.0
1,3.5329999923706055,learn,56467.000007629395,Tue Apr 15 2025 17:39:40 GMT-0500 (Central Daylight Time),117972.89999999944,A,bo,I,o,75,3,699.0999999996275,117273.79999999981,8006,WL,C,2.0
1,3.7950000762939453,learn,56204.999923706055,Tue Apr 15 2025 17:39:40 GMT-0500 (Central Daylight Time),118235.19999999925,A,bod,I,d,257,3,961.3999999994412,117273.79999999981,8006,WL,C,2.0
1,3.942000150680542,learn,56057.99984931946,Tue Apr 15 2025 17:39:40 GMT-0500 (Central Daylight Time),118382.69999999925,A,body,I,y,140,3,1108.8999999994412,117273.79999999981,8006,WL,C,2.0
1,4.365000009536743,learn,55634.99999046326,Tue Apr 15 2025 17:39:40 GMT-0500 (Central Daylight Time),118805.79999999981,A,bodyenter,I,enter,411,3,1532.0,117273.79999999981,8006,WL,C,2.0
1,4.882000207901001,learn,55117.999792099,Tue Apr 15 2025 17:39:40 GMT-0500 (Central Daylight Time),119322.69999999925,A,w,I,w,495,3,516.1999999992549,118806.5,8006,WL,C,3.0
1,4.982000112533569,learn,55017.99988746643,Tue Apr 15 2025 17:39:40 GMT-0500 (Central Daylight Time),119422.29999999981,A,wh,I,h,90,3,615.7999999998137,118806.5,8006,WL,C,3.0
1,5.232000112533569,learn,54767.99988746643,Tue Apr 15 2025 17:39:40 GMT-0500 (Central Daylight Time),119672.29999999981,A,whe,I,e,238,3,865.7999999998137,118806.5,8006,WL,C,3.0
1,5.3480000495910645,learn,54651.999950408936,Tue Apr 15 2025 17:39:40 GMT-0500 (Central Daylight Time),119789.0,A,whea,I,a,100,3,982.5,118806.5,8006,WL,C,3.0
1,5.465000152587891,learn,54534.99984741211,Tue Apr 15 2025 17:39:40 GMT-0500 (Central Daylight Time),119905.79999999981,A,wheat,I,t,96,3,1099.2999999998137,118806.5,8006,WL,C,3.0
1,5.699000120162964,learn,54300.999879837036,Tue Apr 15 2025 17:39:40 GMT-0500 (Central Daylight Time),120140.09999999963,A,wheatenter,I,enter,219,3,1333.5999999996275,118806.5,8006,WL,C,3.0
1,6.998000144958496,learn,53001.999855041504,Tue Apr 15 2025 17:39:40 GMT-0500 (Central Daylight Time),121438.5,A,c,I,c,1289,3,1298.0,120140.5,8006,WL,C,4.0
1,7.0980000495910645,learn,52901.999950408936,Tue Apr 15 2025 17:39:40 GMT-0500 (Central Daylight Time),121538.19999999925,A,co,I,o,86,3,1397.699999999255,120140.5,8006,WL,C,4.0
1,7.231000185012817,learn,52768.99981498718,Tue Apr 15 2025 17:39:40 GMT-0500 (Central Daylight Time),121671.79999999981,A,cor,I,r,115,3,1531.2999999998137,120140.5,8006,WL,C,4.0
1,7.364000082015991,learn,52635.99991798401,Tue Apr 15 2025 17:39:40 GMT-0500 (Central Daylight Time),121805.0,A,corn,I,n,117,3,1664.5,120140.5,8006,WL,C,4.0
1,7.5980000495910645,learn,52401.999950408936,Tue Apr 15 2025 17:39:40 GMT-0500 (Central Daylight Time),122038.19999999925,A,cornenter,I,enter,224,3,1897.699999999255,120140.5,8006,WL,C,4.0
1,8.897000074386597,learn,51102.9999256134,Tue Apr 15 2025 17:39:40 GMT-0500 (Central Daylight Time),123337.79999999981,A,s,I,s,1279,3,1299.1000000005588,122038.69999999925,8006,WL,C,5.0
1,8.997000217437744,learn,51002.999782562256,Tue Apr 15 2025 17:39:40 GMT-0500 (Central Daylight Time),123437.89999999944,A,su,I,u,83,3,1399.2000000001863,122038.69999999925,8006,WL,C,5.0
1,9.180999994277954,learn,50819.000005722046,Tue Apr 15 2025 17:39:40 GMT-0500 (Central Daylight Time),123621.09999999963,A,sug,I,g,167,3,1582.4000000003725,122038.69999999925,8006,WL,C,5.0
1,9.28000020980835,learn,50719.99979019165,Tue Apr 15 2025 17:39:40 GMT-0500 (Central Daylight Time),123721.0,A,suga,I,a,80,3,1682.300000000745,122038.69999999925,8006,WL,C,5.0
1,9.414000034332275,learn,50585.999965667725,Tue Apr 15 2025 17:39:40 GMT-0500 (Central Daylight Time),123854.39999999944,A,sugar,I,r,116,3,1815.7000000001863,122038.69999999925,8006,WL,C,5.0
1,9.797000169754028,learn,50202.99983024597,Tue Apr 15 2025 17:39:40 GMT-0500 (Central Daylight Time),124237.69999999925,A,sugarenter,I,enter,366,3,2199.0,122038.69999999925,8006,WL,C,5.0
1,10.247000217437744,learn,49752.999782562256,Tue Apr 15 2025 17:39:40 GMT-0500 (Central Daylight Time),124687.39999999944,A,b,I,b,439,3,449.29999999981374,124238.09999999963,8006,WL,C,6.0
1,10.347000122070312,learn,49652.99987792969,Tue Apr 15 2025 17:39:40 GMT-0500 (Central Daylight Time),124787.09999999963,A,bo,I,o,94,3,549.0,124238.09999999963,8006,WL,C,6.0
1,10.547000169754028,learn,49452.99983024597,Tue Apr 15 2025 17:39:40 GMT-0500 (Central Daylight Time),124987.29999999981,A,boy,I,y,186,3,749.2000000001863,124238.09999999963,8006,WL,C,6.0
1,10.713000059127808,learn,49286.99994087219,Tue Apr 15 2025 17:39:40 GMT-0500 (Central Daylight Time),125154.0,A,boyenter,I,enter,153,3,915.9000000003725,124238.09999999963,8006,WL,C,6.0
1,10.963000059127808,learn,49036.99994087219,Tue Apr 15 2025 17:39:40 GMT-0500 (Central Daylight Time),125403.89999999944,A,c,I,c,235,3,249.3999999994412,125154.5,8006,WL,C,7.0
1,11.03000020980835,learn,48969.99979019165,Tue Apr 15 2025 17:39:40 GMT-0500 (Central Daylight Time),125470.59999999963,A,ca,I,a,48,3,316.09999999962747,125154.5,8006,WL,C,7.0
1,11.130000114440918,learn,48869.99988555908,Tue Apr 15 2025 17:39:40 GMT-0500 (Central Daylight Time),125570.79999999981,A,cam,I,m,86,3,416.29999999981374,125154.5,8006,WL,C,7.0
1,11.247000217437744,learn,48752.999782562256,Tue Apr 15 2025 17:39:40 GMT-0500 (Central Daylight Time),125687.39999999944,A,camp,I,p,106,3,532.8999999994412,125154.5,8006,WL,C,7.0
1,11.59600019454956,learn,48403.99980545044,Tue Apr 15 2025 17:39:40 GMT-0500 (Central Daylight Time),126037.0,A,campenter,I,enter,342,3,882.5,125154.5,8006,WL,C,7.0
1,12.03000020980835,learn,47969.99979019165,Tue Apr 15 2025 17:39:40 GMT-0500 (Central Daylight Time),126470.19999999925,A,f,I,f,424,3,432.79999999981374,126037.39999999944,8006,WL,C,8.0
1,12.129000186920166,learn,47870.999813079834,Tue Apr 15 2025 17:39:40 GMT-0500 (Central Daylight Time),126570.09999999963,A,fl,I,l,95,3,532.7000000001863,126037.39999999944,8006,WL,C,8.0
1,12.34600019454956,learn,47653.99980545044,Tue Apr 15 2025 17:39:40 GMT-0500 (Central Daylight Time),126786.89999999944,A,fla,I,a,203,3,749.5,126037.39999999944,8006,WL,C,8.0
1,12.730000019073486,learn,47269.999980926514,Tue Apr 15 2025 17:39:40 GMT-0500 (Central Daylight Time),127170.19999999925,A,flag,I,g,370,3,1132.7999999998137,126037.39999999944,8006,WL,C,8.0
1,12.963000059127808,learn,47036.99994087219,Tue Apr 15 2025 17:39:40 GMT-0500 (Central Daylight Time),127403.29999999981,A,flagenter,I,enter,219,3,1365.9000000003725,126037.39999999944,8006,WL,C,8.0
1,13.946000099182129,learn,46053.99990081787,Tue Apr 15 2025 17:39:40 GMT-0500 (Central Daylight Time),128386.19999999925,A,q,I,q,978,3,982.3999999994412,127403.79999999981,8006,WL,C,9.0
1,14.129000186920166,learn,45870.999813079834,Tue Apr 15 2025 17:39:40 GMT-0500 (Central Daylight Time),128569.59999999963,A,qu,I,u,171,3,1165.7999999998137,127403.79999999981,8006,WL,C,9.0
1,14.246000051498413,learn,45753.99994850159,Tue Apr 15 2025 17:39:40 GMT-0500 (Central Daylight Time),128686.19999999925,A,que,I,e,108,3,1282.3999999994412,127403.79999999981,8006,WL,C,9.0
1,14.412000179290771,learn,45587.99982070923,Tue Apr 15 2025 17:39:40 GMT-0500 (Central Daylight Time),128852.89999999944,A,quee,I,e,151,3,1449.0999999996275,127403.79999999981,8006,WL,C,9.0
1,14.529000043869019,learn,45470.99995613098,Tue Apr 15 2025 17:39:40 GMT-0500 (Central Daylight Time),128969.39999999944,A,queen,I,n,97,3,1565.5999999996275,127403.79999999981,8006,WL,C,9.0
1,14.76200008392334,learn,45237.99991607666,Tue Apr 15 2025 17:39:40 GMT-0500 (Central Daylight Time),129202.39999999944,A,queenenter,I,enter,228,3,1798.5999999996275,127403.79999999981,8006,WL,C,9.0
1,17.061000108718872,learn,42938.99989128113,Tue Apr 15 2025 17:39:40 GMT-0500 (Central Daylight Time),131502.0,A,t,I,t,2291,3,2299.2000000001863,129202.79999999981,8006,WL,C,10.0
1,17.145000219345093,learn,42854.99978065491,Tue Apr 15 2025 17:39:40 GMT-0500 (Central Daylight Time),131585.39999999944,A,to,I,o,62,3,2382.5999999996275,129202.79999999981,8006,WL,C,10.0
1,17.228000164031982,learn,42771.99983596802,Tue Apr 15 2025 17:39:40 GMT-0500 (Central Daylight Time),131668.69999999925,A,tow,I,w,76,3,2465.899999999441,129202.79999999981,8006,WL,C,10.0
1,17.311000108718872,learn,42688.99989128113,Tue Apr 15 2025 17:39:40 GMT-0500 (Central Daylight Time),131751.89999999944,A,towe,I,e,73,3,2549.0999999996275,129202.79999999981,8006,WL,C,10.0
1,17.378000020980835,learn,42621.999979019165,Tue Apr 15 2025 17:39:40 GMT-0500 (Central Daylight Time),131818.5,A,tower,I,r,62,3,2615.7000000001863,129202.79999999981,8006,WL,C,10.0
1,17.561000108718872,learn,42438.99989128113,Tue Apr 15 2025 17:39:40 GMT-0500 (Central Daylight Time),132001.7999999998,A,towerenter,I,enter,171,3,2799.0,129202.79999999981,8006,WL,C,10.0
1,27.092000007629395,learn,32907.999992370605,Tue Apr 15 2025 17:39:40 GMT-0500 (Central Daylight Time),141532.09999999963,A,n,I,n,9524,3,9530.0,132002.09999999963,8006,WL,C,11.0
1,27.341000080108643,learn,32658.999919891357,Tue Apr 15 2025 17:39:40 GMT-0500 (Central Daylight Time),141782.0,A,ni,I,i,245,3,9779.900000000373,132002.09999999963,8006,WL,C,11.0
1,27.48800015449524,learn,32511.99984550476,Tue Apr 15 2025 17:39:40 GMT-0500 (Central Daylight Time),141929.0,A,nil,I,l,46,3,9926.900000000373,132002.09999999963,8006,WL,C,11.0
1,28.225000143051147,learn,31774.999856948853,Tue Apr 15 2025 17:39:40 GMT-0500 (Central Daylight Time),142665.2999999998,A,ni,I,backspace,714,3,10663.200000000186,132002.09999999963,8006,WL,C,11.0
1,28.391000032424927,learn,31608.999967575073,Tue Apr 15 2025 17:39:40 GMT-0500 (Central Daylight Time),142831.7999999998,A,n,I,backspace,148,3,10829.700000000186,132002.09999999963,8006,WL,C,11.0
1,28.558000087738037,learn,31441.999912261963,Tue Apr 15 2025 17:39:40 GMT-0500 (Central Daylight Time),142998.39999999944,A,na,I,a,157,3,10996.299999999814,132002.09999999963,8006,WL,C,11.0
1,28.674000024795532,learn,31325.999975204468,Tue Apr 15 2025 17:39:40 GMT-0500 (Central Daylight Time),143115.0,A,nai,I,i,103,3,11112.900000000373,132002.09999999963,8006,WL,C,11.0
1,28.758000135421753,learn,31241.999864578247,Tue Apr 15 2025 17:39:40 GMT-0500 (Central Daylight Time),143198.5,A,nail,I,l,74,3,11196.400000000373,132002.09999999963,8006,WL,C,11.0
1,29.091000080108643,learn,30908.999919891357,Tue Apr 15 2025 17:39:40 GMT-0500 (Central Daylight Time),143531.59999999963,A,nailenter,I,enter,319,3,11529.5,132002.09999999963,8006,WL,C,11.0
1,45.18600010871887,learn,14813.999891281128,Tue Apr 15 2025 17:39:40 GMT-0500 (Central Daylight Time),159626.5,A,enter,I,enter,16082,3,16094.5,143532.0,8006,WL,C,12.0
1,45.75200009346008,learn,14247.999906539917,Tue Apr 15 2025 17:39:40 GMT-0500 (Central Daylight Time),160192.89999999944,A,enter,I,enter,555,3,566.0999999996275,159626.7999999998,8006,WL,C,13.0
1,46.05200004577637,learn,13947.999954223633,Tue Apr 15 2025 17:39:40 GMT-0500 (Central Daylight Time),160492.7999999998,A,enter,I,enter,285,3,299.5,160193.2999999998,8006,WL,C,14.0
1,46.385000228881836,learn,13614.999771118164,Tue Apr 15 2025 17:39:40 GMT-0500 (Central Daylight Time),160826.09999999963,A,enter,I,enter,320,3,332.90000000037253,160493.19999999925,8006,WL,C,15.0
2,1.0169999599456787,learn,58983.00004005432,Tue Apr 15 2025 17:39:40 GMT-0500 (Central Daylight Time),229604.59999999963,A,s,I,s,1002,3,1016.4000000003725,228588.19999999925,8006,WL,C,1.0
2,1.4160001277923584,learn,58583.99987220764,Tue Apr 15 2025 17:39:40 GMT-0500 (Central Daylight Time),230004.39999999944,A,sh,I,h,392,3,1416.2000000001863,228588.19999999925,8006,WL,C,1.0
2,1.5329999923706055,learn,58467.000007629395,Tue Apr 15 2025 17:39:40 GMT-0500 (Central Daylight Time),230121.09999999963,A,sho,I,o,105,3,1532.9000000003725,228588.19999999925,8006,WL,C,1.0
2,1.7000000476837158,learn,58299.999952316284,Tue Apr 15 2025 17:39:40 GMT-0500 (Central Daylight Time),230287.7999999998,A,shor,I,r,156,3,1699.6000000005588,228588.19999999925,8006,WL,C,1.0
2,1.7829999923706055,learn,58217.000007629395,Tue Apr 15 2025 17:39:40 GMT-0500 (Central Daylight Time),230371.09999999963,A,shore,I,e,70,3,1782.9000000003725,228588.19999999925,8006,WL,C,1.0
2,2.133000135421753,learn,57866.99986457825,Tue Apr 15 2025 17:39:40 GMT-0500 (Central Daylight Time),230720.7999999998,A,shoreenter,I,enter,330,3,2132.600000000559,228588.19999999925,8006,WL,C,1.0
2,2.5329999923706055,learn,57467.000007629395,Tue Apr 15 2025 17:39:40 GMT-0500 (Central Daylight Time),231120.89999999944,A,b,I,b,381,3,399.70000000018626,230721.19999999925,8006,WL,C,2.0
2,2.8989999294281006,learn,57101.0000705719,Tue Apr 15 2025 17:39:40 GMT-0500 (Central Daylight Time),231487.2999999998,A,bo,I,o,356,3,766.1000000005588,230721.19999999925,8006,WL,C,2.0
2,3.365999937057495,learn,56634.000062942505,Tue Apr 15 2025 17:39:40 GMT-0500 (Central Daylight Time),231953.7999999998,A,bod,I,d,454,3,1232.6000000005588,230721.19999999925,8006,WL,C,2.0
2,3.4660000801086426,learn,56533.99991989136,Tue Apr 15 2025 17:39:40 GMT-0500 (Central Daylight Time),232053.69999999925,A,body,I,y,91,3,1332.5,230721.19999999925,8006,WL,C,2.0
2,3.881999969482422,learn,56118.00003051758,Tue Apr 15 2025 17:39:40 GMT-0500 (Central Daylight Time),232470.39999999944,A,bodyenter,I,enter,407,3,1749.2000000001863,230721.19999999925,8006,WL,C,2.0
2,4.398999929428101,learn,55601.0000705719,Tue Apr 15 2025 17:39:40 GMT-0500 (Central Daylight Time),232986.59999999963,A,m,I,m,511,3,515.9000000003725,232470.69999999925,8006,WL,C,3.0
2,4.5320000648498535,learn,55467.99993515015,Tue Apr 15 2025 17:39:40 GMT-0500 (Central Daylight Time),233120.2999999998,A,ma,I,a,115,3,649.6000000005588,232470.69999999925,8006,WL,C,3.0
2,4.648999929428101,learn,55351.0000705719,Tue Apr 15 2025 17:39:40 GMT-0500 (Central Daylight Time),233236.7999999998,A,mai,I,i,101,3,766.1000000005588,232470.69999999925,8006,WL,C,3.0
2,4.732000112533569,learn,55267.99988746643,Tue Apr 15 2025 17:39:40 GMT-0500 (Central Daylight Time),233320.2999999998,A,mail,I,l,73,3,849.6000000005588,232470.69999999925,8006,WL,C,3.0
2,5.199000120162964,learn,54800.999879837036,Tue Apr 15 2025 17:39:40 GMT-0500 (Central Daylight Time),233786.69999999925,A,mai,I,backspace,461,3,1316.0,232470.69999999925,8006,WL,C,3.0
2,5.348999977111816,learn,54651.00002288818,Tue Apr 15 2025 17:39:40 GMT-0500 (Central Daylight Time),233936.59999999963,A,ma,I,backspace,139,3,1465.9000000003725,232470.69999999925,8006,WL,C,3.0
2,5.482000112533569,learn,54517.99988746643,Tue Apr 15 2025 17:39:40 GMT-0500 (Central Daylight Time),234069.7999999998,A,m,I,backspace,125,3,1599.1000000005588,232470.69999999925,8006,WL,C,3.0
2,5.615000009536743,learn,54384.99999046326,Tue Apr 15 2025 17:39:40 GMT-0500 (Central Daylight Time),234203.19999999925,A,,I,backspace,119,3,1732.5,232470.69999999925,8006,WL,C,3.0
2,5.832000017166138,learn,54167.99998283386,Tue Apr 15 2025 17:39:40 GMT-0500 (Central Daylight Time),234419.69999999925,A,n,I,n,202,3,1949.0,232470.69999999925,8006,WL,C,3.0
2,5.947999954223633,learn,54052.00004577637,Tue Apr 15 2025 17:39:40 GMT-0500 (Central Daylight Time),234536.2999999998,A,na,I,a,106,3,2065.600000000559,232470.69999999925,8006,WL,C,3.0
2,6.197999954223633,learn,53802.00004577637,Tue Apr 15 2025 17:39:40 GMT-0500 (Central Daylight Time),234786.2999999998,A,nai,I,i,245,3,2315.600000000559,232470.69999999925,8006,WL,C,3.0
2,6.29800009727478,learn,53701.99990272522,Tue Apr 15 2025 17:39:40 GMT-0500 (Central Daylight Time),234886.19999999925,A,nail,I,l,91,3,2415.5,232470.69999999925,8006,WL,C,3.0
2,6.730999946594238,learn,53269.00005340576,Tue Apr 15 2025 17:39:40 GMT-0500 (Central Daylight Time),235319.2999999998,A,nailenter,I,enter,415,3,2848.600000000559,232470.69999999925,8006,WL,C,3.0
2,7.411999940872192,learn,52588.00005912781,Tue Apr 15 2025 17:39:40 GMT-0500 (Central Daylight Time),236000.0,A,o,I,o,675,3,680.3000000007451,235319.69999999925,8006,WL,C,4.0
2,7.559000015258789,learn,52440.99998474121,Tue Apr 15 2025 17:39:40 GMT-0500 (Central Daylight Time),236147.09999999963,A,oc,I,c,116,3,827.4000000003725,235319.69999999925,8006,WL,C,4.0
2,7.697000026702881,learn,52302.99997329712,Tue Apr 15 2025 17:39:40 GMT-0500 (Central Daylight Time),236285.5,A,oct,I,t,130,3,965.8000000007451,235319.69999999925,8006,WL,C,4.0
2,7.79800009727478,learn,52201.99990272522,Tue Apr 15 2025 17:39:40 GMT-0500 (Central Daylight Time),236385.69999999925,A,octo,I,o,86,3,1066.0,235319.69999999925,8006,WL,C,4.0
2,7.881999969482422,learn,52118.00003051758,Tue Apr 15 2025 17:39:40 GMT-0500 (Central Daylight Time),236470.19999999925,A,octor,I,r,76,3,1150.5,235319.69999999925,8006,WL,C,4.0
2,8.263999938964844,learn,51736.000061035156,Tue Apr 15 2025 17:39:40 GMT-0500 (Central Daylight Time),236852.2999999998,A,octo,I,backspace,375,3,1532.6000000005588,235319.69999999925,8006,WL,C,4.0
2,8.414000034332275,learn,51585.999965667725,Tue Apr 15 2025 17:39:40 GMT-0500 (Central Daylight Time),237002.09999999963,A,oct,I,backspace,137,3,1682.4000000003725,235319.69999999925,8006,WL,C,4.0
2,8.54800009727478,learn,51451.99990272522,Tue Apr 15 2025 17:39:40 GMT-0500 (Central Daylight Time),237135.69999999925,A,oc,I,backspace,115,3,1816.0,235319.69999999925,8006,WL,C,4.0
2,8.680999994277954,learn,51319.000005722046,Tue Apr 15 2025 17:39:40 GMT-0500 (Central Daylight Time),237268.89999999944,A,o,I,backspace,126,3,1949.2000000001863,235319.69999999925,8006,WL,C,4.0
2,8.831000089645386,learn,51168.999910354614,Tue Apr 15 2025 17:39:40 GMT-0500 (Central Daylight Time),237418.69999999925,A,,I,backspace,136,3,2099.0,235319.69999999925,8006,WL,C,4.0
2,8.897000074386597,learn,51102.9999256134,Tue Apr 15 2025 17:39:40 GMT-0500 (Central Daylight Time),237485.5,A,d,I,d,59,3,2165.800000000745,235319.69999999925,8006,WL,C,4.0
2,9.430999994277954,learn,50569.000005722046,Tue Apr 15 2025 17:39:40 GMT-0500 (Central Daylight Time),238018.59999999963,A,dc,I,c,511,3,2698.9000000003725,235319.69999999925,8006,WL,C,4.0
2,9.746999979019165,learn,50253.000020980835,Tue Apr 15 2025 17:39:40 GMT-0500 (Central Daylight Time),238335.09999999963,A,d,I,backspace,307,3,3015.4000000003725,235319.69999999925,8006,WL,C,4.0
2,9.930000066757202,learn,50069.9999332428,Tue Apr 15 2025 17:39:40 GMT-0500 (Central Daylight Time),238518.39999999944,A,do,I,o,166,3,3198.7000000001863,235319.69999999925,8006,WL,C,4.0
2,10.02999997138977,learn,49970.00002861023,Tue Apr 15 2025 17:39:40 GMT-0500 (Central Daylight Time),238618.39999999944,A,doc,I,c,79,3,3298.7000000001863,235319.69999999925,8006,WL,C,4.0
2,10.21399998664856,learn,49786.00001335144,Tue Apr 15 2025 17:39:40 GMT-0500 (Central Daylight Time),238802.2999999998,A,doct,I,t,179,3,3482.600000000559,235319.69999999925,8006,WL,C,4.0
2,10.312999963760376,learn,49687.000036239624,Tue Apr 15 2025 17:39:40 GMT-0500 (Central Daylight Time),238901.7999999998,A,docto,I,o,91,3,3582.100000000559,235319.69999999925,8006,WL,C,4.0
2,10.413000106811523,learn,49586.99989318848,Tue Apr 15 2025 17:39:40 GMT-0500 (Central Daylight Time),239001.69999999925,A,doctor,I,r,88,3,3682.0,235319.69999999925,8006,WL,C,4.0
2,10.663000106811523,learn,49336.99989318848,Tue Apr 15 2025 17:39:40 GMT-0500 (Central Daylight Time),239251.69999999925,A,doctorenter,I,enter,244,3,3932.0,235319.69999999925,8006,WL,C,4.0
2,10.913000106811523,learn,49086.99989318848,Tue Apr 15 2025 17:39:40 GMT-0500 (Central Daylight Time),239501.39999999944,A,h,I,h,234,3,249.29999999981374,239252.09999999963,8006,WL,C,5.0
2,10.998000144958496,learn,49001.999855041504,Tue Apr 15 2025 17:39:40 GMT-0500 (Central Daylight Time),239586.09999999963,A,ho,I,o,80,3,334.0,239252.09999999963,8006,WL,C,5.0
2,11.146000146865845,learn,48853.999853134155,Tue Apr 15 2025 17:39:40 GMT-0500 (Central Daylight Time),239734.7999999998,A,hom,I,m,139,3,482.70000000018626,239252.09999999963,8006,WL,C,5.0
2,11.296000003814697,learn,48703.9999961853,Tue Apr 15 2025 17:39:40 GMT-0500 (Central Daylight Time),239884.69999999925,A,home,I,e,134,3,632.5999999996275,239252.09999999963,8006,WL,C,5.0
2,11.661999940872192,learn,48338.00005912781,Tue Apr 15 2025 17:39:40 GMT-0500 (Central Daylight Time),240251.0,A,homeenter,I,enter,361,3,998.9000000003725,239252.09999999963,8006,WL,C,5.0
2,11.878999948501587,learn,48121.00005149841,Tue Apr 15 2025 17:39:40 GMT-0500 (Central Daylight Time),240467.89999999944,A,b,I,b,211,3,216.70000000018626,240251.19999999925,8006,WL,C,6.0
2,11.979000091552734,learn,48020.999908447266,Tue Apr 15 2025 17:39:40 GMT-0500 (Central Daylight Time),240567.59999999963,A,bo,I,o,88,3,316.40000000037253,240251.19999999925,8006,WL,C,6.0
2,12.196000099182129,learn,47803.99990081787,Tue Apr 15 2025 17:39:40 GMT-0500 (Central Daylight Time),240784.2999999998,A,boy,I,y,198,3,533.1000000005588,240251.19999999925,8006,WL,C,6.0
2,12.51200008392334,learn,47487.99991607666,Tue Apr 15 2025 17:39:40 GMT-0500 (Central Daylight Time),241100.89999999944,A,boyenter,I,enter,309,3,849.7000000001863,240251.19999999925,8006,WL,C,6.0
2,12.996000051498413,learn,47003.99994850159,Tue Apr 15 2025 17:39:40 GMT-0500 (Central Daylight Time),241584.39999999944,A,c,I,c,473,3,483.29999999981374,241101.09999999963,8006,WL,C,7.0
2,13.078999996185303,learn,46921.0000038147,Tue Apr 15 2025 17:39:40 GMT-0500 (Central Daylight Time),241667.59999999963,A,ca,I,a,77,3,566.5,241101.09999999963,8006,WL,C,7.0
2,13.229000091552734,learn,46770.999908447266,Tue Apr 15 2025 17:39:40 GMT-0500 (Central Daylight Time),241817.59999999963,A,cat,I,t,138,3,716.5,241101.09999999963,8006,WL,C,7.0
2,13.396000146865845,learn,46603.999853134155,Tue Apr 15 2025 17:39:40 GMT-0500 (Central Daylight Time),241984.09999999963,A,catt,I,t,148,3,883.0,241101.09999999963,8006,WL,C,7.0
2,13.462000131607056,learn,46537.999868392944,Tue Apr 15 2025 17:39:40 GMT-0500 (Central Daylight Time),242050.59999999963,A,cattl,I,l,61,3,949.5,241101.09999999963,8006,WL,C,7.0
2,13.562000036239624,learn,46437.999963760376,Tue Apr 15 2025 17:39:40 GMT-0500 (Central Daylight Time),242150.59999999963,A,cattle,I,e,83,3,1049.5,241101.09999999963,8006,WL,C,7.0
2,13.729000091552734,learn,46270.999908447266,Tue Apr 15 2025 17:39:40 GMT-0500 (Central Daylight Time),242317.09999999963,A,cattleenter,I,enter,150,3,1216.0,241101.09999999963,8006,WL,C,7.0
2,14.229000091552734,learn,45770.999908447266,Tue Apr 15 2025 17:39:40 GMT-0500 (Central Daylight Time),242817.2999999998,A,c,I,c,488,3,499.90000000037253,242317.39999999944,8006,WL,C,8.0
2,14.328999996185303,learn,45671.0000038147,Tue Apr 15 2025 17:39:40 GMT-0500 (Central Daylight Time),242917.2999999998,A,co,I,o,92,3,599.9000000003725,242317.39999999944,8006,WL,C,8.0
2,14.42799997329712,learn,45572.00002670288,Tue Apr 15 2025 17:39:40 GMT-0500 (Central Daylight Time),243017.0,A,cor,I,r,87,3,699.6000000005588,242317.39999999944,8006,WL,C,8.0
2,14.528000116348267,learn,45471.99988365173,Tue Apr 15 2025 17:39:40 GMT-0500 (Central Daylight Time),243116.89999999944,A,corn,I,n,84,3,799.5,242317.39999999944,8006,WL,C,8.0
2,14.779000043869019,learn,45220.99995613098,Tue Apr 15 2025 17:39:40 GMT-0500 (Central Daylight Time),243367.09999999963,A,cornenter,I,enter,232,3,1049.7000000001863,242317.39999999944,8006,WL,C,8.0
2,15.161999940872192,learn,44838.00005912781,Tue Apr 15 2025 17:39:40 GMT-0500 (Central Daylight Time),243750.39999999944,A,w,I,w,374,3,382.8999999994412,243367.5,8006,WL,C,9.0
2,15.245000123977661,learn,44754.99987602234,Tue Apr 15 2025 17:39:40 GMT-0500 (Central Daylight Time),243833.39999999944,A,wh,I,h,71,3,465.8999999994412,243367.5,8006,WL,C,9.0
2,15.361999988555908,learn,44638.00001144409,Tue Apr 15 2025 17:39:40 GMT-0500 (Central Daylight Time),243950.09999999963,A,whe,I,e,100,3,582.5999999996275,243367.5,8006,WL,C,9.0
2,15.894999980926514,learn,44105.000019073486,Tue Apr 15 2025 17:39:40 GMT-0500 (Central Daylight Time),244483.0,A,whea,I,a,527,3,1115.5,243367.5,8006,WL,C,9.0
2,15.995000123977661,learn,44004.99987602234,Tue Apr 15 2025 17:39:40 GMT-0500 (Central Daylight Time),244583.19999999925,A,wheat,I,t,82,3,1215.699999999255,243367.5,8006,WL,C,9.0
2,16.294000148773193,learn,43705.99985122681,Tue Apr 15 2025 17:39:40 GMT-0500 (Central Daylight Time),244882.89999999944,A,wheatenter,I,enter,294,3,1515.3999999994412,243367.5,8006,WL,C,9.0
2,16.594000101089478,learn,43405.99989891052,Tue Apr 15 2025 17:39:40 GMT-0500 (Central Daylight Time),245183.0,A,s,I,s,291,3,299.90000000037253,244883.09999999963,8006,WL,C,10.0
2,16.710999965667725,learn,43289.000034332275,Tue Apr 15 2025 17:39:40 GMT-0500 (Central Daylight Time),245299.69999999925,A,su,I,u,102,3,416.59999999962747,244883.09999999963,8006,WL,C,10.0
2,16.878000020980835,learn,43121.999979019165,Tue Apr 15 2025 17:39:40 GMT-0500 (Central Daylight Time),245466.5,A,sug,I,g,145,3,583.4000000003725,244883.09999999963,8006,WL,C,10.0
2,17.07800006866455,learn,42921.99993133545,Tue Apr 15 2025 17:39:40 GMT-0500 (Central Daylight Time),245666.09999999963,A,suga,I,a,187,3,783.0,244883.09999999963,8006,WL,C,10.0
2,17.16100001335144,learn,42838.99998664856,Tue Apr 15 2025 17:39:40 GMT-0500 (Central Daylight Time),245749.5,A,sugar,I,r,75,3,866.4000000003725,244883.09999999963,8006,WL,C,10.0
2,17.344000101089478,learn,42655.99989891052,Tue Apr 15 2025 17:39:40 GMT-0500 (Central Daylight Time),245932.7999999998,A,sugarenter,I,enter,168,3,1049.7000000001863,244883.09999999963,8006,WL,C,10.0
2,17.91100001335144,learn,42088.99998664856,Tue Apr 15 2025 17:39:40 GMT-0500 (Central Daylight Time),246499.39999999944,A,q,I,q,561,3,566.2999999998137,245933.09999999963,8006,WL,C,11.0
2,18.0770001411438,learn,41922.9998588562,Tue Apr 15 2025 17:39:40 GMT-0500 (Central Daylight Time),246666.0,A,qu,I,u,162,3,732.9000000003725,245933.09999999963,8006,WL,C,11.0
2,18.22699999809265,learn,41773.00000190735,Tue Apr 15 2025 17:39:40 GMT-0500 (Central Daylight Time),246815.89999999944,A,qui,I,i,140,3,882.7999999998137,245933.09999999963,8006,WL,C,11.0
2,18.344000101089478,learn,41655.99989891052,Tue Apr 15 2025 17:39:40 GMT-0500 (Central Daylight Time),246932.5,A,quie,I,e,102,3,999.4000000003725,245933.09999999963,8006,WL,C,11.0
2,18.47699999809265,learn,41523.00000190735,Tue Apr 15 2025 17:39:40 GMT-0500 (Central Daylight Time),247065.89999999944,A,quiee,I,e,121,3,1132.7999999998137,245933.09999999963,8006,WL,C,11.0
2,18.5770001411438,learn,41422.9998588562,Tue Apr 15 2025 17:39:40 GMT-0500 (Central Daylight Time),247165.59999999963,A,quieen,I,n,83,3,1232.5,245933.09999999963,8006,WL,C,11.0
2,19.110000133514404,learn,40889.999866485596,Tue Apr 15 2025 17:39:40 GMT-0500 (Central Daylight Time),247698.69999999925,A,quiee,I,backspace,528,3,1765.5999999996275,245933.09999999963,8006,WL,C,11.0
2,19.259999990463257,learn,40740.00000953674,Tue Apr 15 2025 17:39:40 GMT-0500 (Central Daylight Time),247848.7999999998,A,quie,I,backspace,139,3,1915.7000000001863,245933.09999999963,8006,WL,C,11.0
2,19.49399995803833,learn,40506.00004196167,Tue Apr 15 2025 17:39:40 GMT-0500 (Central Daylight Time),248082.19999999925,A,qui,I,backspace,229,3,2149.0999999996275,245933.09999999963,8006,WL,C,11.0
2,19.66000008583069,learn,40339.99991416931,Tue Apr 15 2025 17:39:40 GMT-0500 (Central Daylight Time),248248.59999999963,A,qu,I,backspace,147,3,2315.5,245933.09999999963,8006,WL,C,11.0
2,19.877000093460083,learn,40122.99990653992,Tue Apr 15 2025 17:39:40 GMT-0500 (Central Daylight Time),248465.39999999944,A,que,I,e,205,3,2532.2999999998137,245933.09999999963,8006,WL,C,11.0
2,20.026999950408936,learn,39973.000049591064,Tue Apr 15 2025 17:39:40 GMT-0500 (Central Daylight Time),248615.19999999925,A,quee,I,e,140,3,2682.0999999996275,245933.09999999963,8006,WL,C,11.0
2,20.177000045776367,learn,39822.99995422363,Tue Apr 15 2025 17:39:40 GMT-0500 (Central Daylight Time),248765.09999999963,A,queen,I,n,134,3,2832.0,245933.09999999963,8006,WL,C,11.0
2,20.66000008583069,learn,39339.99991416931,Tue Apr 15 2025 17:39:40 GMT-0500 (Central Daylight Time),249248.5,A,queenenter,I,enter,464,3,3315.4000000003725,245933.09999999963,8006,WL,C,11.0
2,20.926000118255615,learn,39073.999881744385,Tue Apr 15 2025 17:39:40 GMT-0500 (Central Daylight Time),249514.7999999998,A,c,I,c,261,3,266.0,249248.7999999998,8006,WL,C,12.0
2,20.960000038146973,learn,39039.99996185303,Tue Apr 15 2025 17:39:40 GMT-0500 (Central Daylight Time),249548.19999999925,A,ca,I,a,27,3,299.3999999994412,249248.7999999998,8006,WL,C,12.0
2,21.042999982833862,learn,38957.00001716614,Tue Apr 15 2025 17:39:40 GMT-0500 (Central Daylight Time),249631.69999999925,A,cam,I,m,73,3,382.8999999994412,249248.7999999998,8006,WL,C,12.0
2,21.176000118255615,learn,38823.999881744385,Tue Apr 15 2025 17:39:40 GMT-0500 (Central Daylight Time),249764.89999999944,A,camp,I,p,118,3,516.0999999996275,249248.7999999998,8006,WL,C,12.0
2,21.592999935150146,learn,38407.00006484985,Tue Apr 15 2025 17:39:40 GMT-0500 (Central Daylight Time),250181.39999999944,A,campenter,I,enter,400,3,932.5999999996275,249248.7999999998,8006,WL,C,12.0
2,27.258000135421753,learn,32741.999864578247,Tue Apr 15 2025 17:39:40 GMT-0500 (Central Daylight Time),255846.19999999925,A,enter,I,enter,5655,3,5664.5,250181.69999999925,8006,WL,C,13.0
2,27.391000032424927,learn,32608.999967575073,Tue Apr 15 2025 17:39:40 GMT-0500 (Central Daylight Time),255979.7999999998,A,enter,I,enter,127,3,133.29999999981374,255846.5,8006,WL,C,14.0
2,28.473999977111816,learn,31526.000022888184,Tue Apr 15 2025 17:39:40 GMT-0500 (Central Daylight Time),257062.39999999944,A,enter,I,enter,1074,3,1082.2999999998137,255980.09999999963,8006,WL,C,15.0
3,0.8999998569488525,learn,59100.00014305115,Tue Apr 15 2025 17:39:40 GMT-0500 (Central Daylight Time),323142.0999999996,A,c,I,c,883,3,899.7000000001863,322242.39999999944,8006,WL,C,1.0
3,1.0329999923706055,learn,58967.000007629395,Tue Apr 15 2025 17:39:40 GMT-0500 (Central Daylight Time),323275.0,A,co,I,o,127,3,1032.6000000005588,322242.39999999944,8006,WL,C,1.0
3,1.1669998168945312,learn,58833.00018310547,Tue Apr 15 2025 17:39:40 GMT-0500 (Central Daylight Time),323408.69999999925,A,cor,I,r,115,3,1166.2999999998137,322242.39999999944,8006,WL,C,1.0
3,1.2829999923706055,learn,58717.000007629395,Tue Apr 15 2025 17:39:40 GMT-0500 (Central Daylight Time),323525.2999999998,A,corn,I,n,109,3,1282.9000000003725,322242.39999999944,8006,WL,C,1.0
3,1.5999999046325684,learn,58400.00009536743,Tue Apr 15 2025 17:39:40 GMT-0500 (Central Daylight Time),323841.7999999998,A,cornenter,I,enter,296,3,1599.4000000003725,322242.39999999944,8006,WL,C,1.0
3,1.8499999046325684,learn,58150.00009536743,Tue Apr 15 2025 17:39:40 GMT-0500 (Central Daylight Time),324091.7999999998,A,n,I,n,236,3,249.70000000018626,323842.0999999996,8006,WL,C,2.0
3,1.9659998416900635,learn,58034.00015830994,Tue Apr 15 2025 17:39:40 GMT-0500 (Central Daylight Time),324208.0999999996,A,na,I,a,106,3,366.0,323842.0999999996,8006,WL,C,2.0
3,2.1499998569488525,learn,57850.00014305115,Tue Apr 15 2025 17:39:40 GMT-0500 (Central Daylight Time),324391.69999999925,A,nai,I,i,165,3,549.5999999996275,323842.0999999996,8006,WL,C,2.0
3,2.2159998416900635,learn,57784.00015830994,Tue Apr 15 2025 17:39:40 GMT-0500 (Central Daylight Time),324458.19999999925,A,nail,I,l,62,3,616.0999999996275,323842.0999999996,8006,WL,C,2.0
3,2.482999801635742,learn,57517.00019836426,Tue Apr 15 2025 17:39:40 GMT-0500 (Central Daylight Time),324724.7999999998,A,nailenter,I,enter,251,3,882.7000000001863,323842.0999999996,8006,WL,C,2.0
3,2.998999834060669,learn,57001.00016593933,Tue Apr 15 2025 17:39:40 GMT-0500 (Central Daylight Time),325241.0,A,s,I,s,495,3,515.7000000001863,324725.2999999998,8006,WL,C,3.0
3,3.0989999771118164,learn,56901.00002288818,Tue Apr 15 2025 17:39:40 GMT-0500 (Central Daylight Time),325341.0999999996,A,sh,I,h,84,3,615.7999999998137,324725.2999999998,8006,WL,C,3.0
3,3.232999801635742,learn,56767.00019836426,Tue Apr 15 2025 17:39:40 GMT-0500 (Central Daylight Time),325474.69999999925,A,sho,I,o,120,3,749.3999999994412,324725.2999999998,8006,WL,C,3.0
3,3.381999969482422,learn,56618.00003051758,Tue Apr 15 2025 17:39:40 GMT-0500 (Central Daylight Time),325624.39999999944,A,shor,I,r,131,3,899.0999999996275,324725.2999999998,8006,WL,C,3.0
3,3.432999849319458,learn,56567.00015068054,Tue Apr 15 2025 17:39:40 GMT-0500 (Central Daylight Time),325674.5,A,shore,I,e,36,3,949.2000000001863,324725.2999999998,8006,WL,C,3.0
3,3.748999834060669,learn,56251.00016593933,Tue Apr 15 2025 17:39:40 GMT-0500 (Central Daylight Time),325990.69999999925,A,shoreenter,I,enter,307,3,1265.3999999994412,324725.2999999998,8006,WL,C,3.0
3,4.4659998416900635,learn,55534.00015830994,Tue Apr 15 2025 17:39:40 GMT-0500 (Central Daylight Time),326707.5999999996,A,c,I,c,711,3,716.5999999996275,325991.0,8006,WL,C,4.0
3,4.565999984741211,learn,55434.00001525879,Tue Apr 15 2025 17:39:40 GMT-0500 (Central Daylight Time),326807.69999999925,A,ca,I,a,82,3,816.6999999992549,325991.0,8006,WL,C,4.0
3,4.73199987411499,learn,55268.00012588501,Tue Apr 15 2025 17:39:40 GMT-0500 (Central Daylight Time),326973.89999999944,A,cat,I,t,150,3,982.8999999994412,325991.0,8006,WL,C,4.0
3,4.898999929428101,learn,55101.0000705719,Tue Apr 15 2025 17:39:40 GMT-0500 (Central Daylight Time),327140.7999999998,A,catt,I,t,152,3,1149.7999999998137,325991.0,8006,WL,C,4.0
3,5.06499981880188,learn,54935.00018119812,Tue Apr 15 2025 17:39:40 GMT-0500 (Central Daylight Time),327307.39999999944,A,cattl,I,l,152,3,1316.3999999994412,325991.0,8006,WL,C,4.0
3,5.148999929428101,learn,54851.0000705719,Tue Apr 15 2025 17:39:40 GMT-0500 (Central Daylight Time),327390.89999999944,A,cattle,I,e,66,3,1399.8999999994412,325991.0,8006,WL,C,4.0
3,5.681999921798706,learn,54318.000078201294,Tue Apr 15 2025 17:39:40 GMT-0500 (Central Daylight Time),327923.89999999944,A,cattleenter,I,enter,526,3,1932.8999999994412,325991.0,8006,WL,C,4.0
3,8.063999891281128,learn,51936.00010871887,Tue Apr 15 2025 17:39:40 GMT-0500 (Central Daylight Time),330306.0999999996,A,q,I,q,2370,3,2381.9000000003725,327924.19999999925,8006,WL,C,5.0
3,8.215999841690063,learn,51784.00015830994,Tue Apr 15 2025 17:39:40 GMT-0500 (Central Daylight Time),330457.39999999944,A,qu,I,u,139,3,2533.2000000001863,327924.19999999925,8006,WL,C,5.0
3,8.363999843597412,learn,51636.00015640259,Tue Apr 15 2025 17:39:40 GMT-0500 (Central Daylight Time),330606.0999999996,A,que,I,e,132,3,2681.9000000003725,327924.19999999925,8006,WL,C,5.0
3,8.497999906539917,learn,51502.00009346008,Tue Apr 15 2025 17:39:40 GMT-0500 (Central Daylight Time),330739.5,A,quee,I,e,127,3,2815.300000000745,327924.19999999925,8006,WL,C,5.0
3,8.648000001907349,learn,51351.99999809265,Tue Apr 15 2025 17:39:40 GMT-0500 (Central Daylight Time),330889.5,A,queen,I,n,130,3,2965.300000000745,327924.19999999925,8006,WL,C,5.0
3,8.996999979019165,learn,51003.000020980835,Tue Apr 15 2025 17:39:40 GMT-0500 (Central Daylight Time),331239.2999999998,A,queenenter,I,enter,340,3,3315.100000000559,327924.19999999925,8006,WL,C,5.0
3,9.330999851226807,learn,50669.00014877319,Tue Apr 15 2025 17:39:40 GMT-0500 (Central Daylight Time),331572.69999999925,A,h,I,h,318,3,333.0,331239.69999999925,8006,WL,C,6.0
3,9.44700002670288,learn,50552.99997329712,Tue Apr 15 2025 17:39:40 GMT-0500 (Central Daylight Time),331689.2999999998,A,ho,I,o,96,3,449.6000000005588,331239.69999999925,8006,WL,C,6.0
3,9.563999891281128,learn,50436.00010871887,Tue Apr 15 2025 17:39:40 GMT-0500 (Central Daylight Time),331806.0,A,hom,I,m,108,3,566.3000000007451,331239.69999999925,8006,WL,C,6.0
3,9.680999994277954,learn,50319.000005722046,Tue Apr 15 2025 17:39:40 GMT-0500 (Central Daylight Time),331922.39999999944,A,home,I,e,103,3,682.7000000001863,331239.69999999925,8006,WL,C,6.0
3,9.96399998664856,learn,50036.00001335144,Tue Apr 15 2025 17:39:40 GMT-0500 (Central Daylight Time),332205.69999999925,A,homeenter,I,enter,275,3,966.0,331239.69999999925,8006,WL,C,6.0
3,10.52999997138977,learn,49470.00002861023,Tue Apr 15 2025 17:39:40 GMT-0500 (Central Daylight Time),332772.19999999925,A,t,I,t,560,3,566.2999999998137,332205.89999999944,8006,WL,C,7.0
3,10.596999883651733,learn,49403.00011634827,Tue Apr 15 2025 17:39:40 GMT-0500 (Central Daylight Time),332838.7999999998,A,to,I,o,57,3,632.9000000003725,332205.89999999944,8006,WL,C,7.0
3,10.730000019073486,learn,49269.999980926514,Tue Apr 15 2025 17:39:40 GMT-0500 (Central Daylight Time),332972.2999999998,A,tow,I,w,118,3,766.4000000003725,332205.89999999944,8006,WL,C,7.0
3,10.847999811172485,learn,49152.000188827515,Tue Apr 15 2025 17:39:40 GMT-0500 (Central Daylight Time),333089.7999999998,A,towe,I,e,113,3,883.9000000003725,332205.89999999944,8006,WL,C,7.0
3,10.898000001907349,learn,49101.99999809265,Tue Apr 15 2025 17:39:40 GMT-0500 (Central Daylight Time),333140.39999999944,A,tower,I,r,44,3,934.5,332205.89999999944,8006,WL,C,7.0
3,11.096999883651733,learn,48903.00011634827,Tue Apr 15 2025 17:39:40 GMT-0500 (Central Daylight Time),333338.5,A,towerenter,I,enter,192,3,1132.6000000005588,332205.89999999944,8006,WL,C,7.0
3,12.178999900817871,learn,47821.00009918213,Tue Apr 15 2025 17:39:40 GMT-0500 (Central Daylight Time),334421.2999999998,A,c,I,c,1075,3,1082.5,333338.7999999998,8006,WL,C,8.0
3,12.363999843597412,learn,47636.00015640259,Tue Apr 15 2025 17:39:40 GMT-0500 (Central Daylight Time),334606.19999999925,A,co,I,o,168,3,1267.3999999994412,333338.7999999998,8006,WL,C,8.0
3,12.679999828338623,learn,47320.00017166138,Tue Apr 15 2025 17:39:40 GMT-0500 (Central Daylight Time),334921.5,A,cor,I,r,303,3,1582.7000000001863,333338.7999999998,8006,WL,C,8.0
3,12.763000011444092,learn,47236.99998855591,Tue Apr 15 2025 17:39:40 GMT-0500 (Central Daylight Time),335004.69999999925,A,corn,I,n,76,3,1665.8999999994412,333338.7999999998,8006,WL,C,8.0
3,12.995999813079834,learn,47004.000186920166,Tue Apr 15 2025 17:39:40 GMT-0500 (Central Daylight Time),335238.0999999996,A,cornenter,I,enter,217,3,1899.2999999998137,333338.7999999998,8006,WL,C,8.0
3,13.961999893188477,learn,46038.00010681152,Tue Apr 15 2025 17:39:40 GMT-0500 (Central Daylight Time),336204.19999999925,A,w,I,w,951,3,965.8999999994412,335238.2999999998,8006,WL,C,9.0
3,14.095999956130981,learn,45904.00004386902,Tue Apr 15 2025 17:39:40 GMT-0500 (Central Daylight Time),336337.7999999998,A,wh,I,h,121,3,1099.5,335238.2999999998,8006,WL,C,9.0
3,14.428999900817871,learn,45571.00009918213,Tue Apr 15 2025 17:39:40 GMT-0500 (Central Daylight Time),336671.0999999996,A,whe,I,e,316,3,1432.7999999998137,335238.2999999998,8006,WL,C,9.0
3,14.51199984550476,learn,45488.00015449524,Tue Apr 15 2025 17:39:40 GMT-0500 (Central Daylight Time),336754.2999999998,A,whea,I,a,78,3,1516.0,335238.2999999998,8006,WL,C,9.0
3,14.611999988555908,learn,45388.00001144409,Tue Apr 15 2025 17:39:40 GMT-0500 (Central Daylight Time),336854.0999999996,A,wheat,I,t,83,3,1615.7999999998137,335238.2999999998,8006,WL,C,9.0
3,14.828999996185303,learn,45171.0000038147,Tue Apr 15 2025 17:39:40 GMT-0500 (Central Daylight Time),337071.0999999996,A,wheatenter,I,enter,199,3,1832.7999999998137,335238.2999999998,8006,WL,C,9.0
3,15.161999940872192,learn,44838.00005912781,Tue Apr 15 2025 17:39:40 GMT-0500 (Central Daylight Time),337404.0999999996,A,b,I,b,319,3,332.59999999962747,337071.5,8006,WL,C,10.0
3,15.245999813079834,learn,44754.000186920166,Tue Apr 15 2025 17:39:40 GMT-0500 (Central Daylight Time),337487.5999999996,A,bo,I,o,73,3,416.09999999962747,337071.5,8006,WL,C,10.0
3,15.444999933242798,learn,44555.0000667572,Tue Apr 15 2025 17:39:40 GMT-0500 (Central Daylight Time),337687.2999999998,A,boy,I,y,190,3,615.7999999998137,337071.5,8006,WL,C,10.0
3,15.628999948501587,learn,44371.00005149841,Tue Apr 15 2025 17:39:40 GMT-0500 (Central Daylight Time),337870.69999999925,A,boyenter,I,enter,166,3,799.1999999992549,337071.5,8006,WL,C,10.0
3,16.394999980926514,learn,43605.000019073486,Tue Apr 15 2025 17:39:40 GMT-0500 (Central Daylight Time),338637.0999999996,A,d,I,d,751,3,766.0999999996275,337871.0,8006,WL,C,11.0
3,16.461999893188477,learn,43538.00010681152,Tue Apr 15 2025 17:39:40 GMT-0500 (Central Daylight Time),338703.7999999998,A,do,I,o,48,3,832.7999999998137,337871.0,8006,WL,C,11.0
3,16.57799983024597,learn,43422.00016975403,Tue Apr 15 2025 17:39:40 GMT-0500 (Central Daylight Time),338820.39999999944,A,doc,I,c,110,3,949.3999999994412,337871.0,8006,WL,C,11.0
3,16.76199984550476,learn,43238.00015449524,Tue Apr 15 2025 17:39:40 GMT-0500 (Central Daylight Time),339003.5999999996,A,doct,I,t,177,3,1132.5999999996275,337871.0,8006,WL,C,11.0
3,16.861999988555908,learn,43138.00001144409,Tue Apr 15 2025 17:39:40 GMT-0500 (Central Daylight Time),339103.5999999996,A,docto,I,o,82,3,1232.5999999996275,337871.0,8006,WL,C,11.0
3,16.92799997329712,learn,43072.00002670288,Tue Apr 15 2025 17:39:40 GMT-0500 (Central Daylight Time),339170.0999999996,A,doctor,I,r,54,3,1299.0999999996275,337871.0,8006,WL,C,11.0
3,17.128000020980835,learn,42871.999979019165,Tue Apr 15 2025 17:39:40 GMT-0500 (Central Daylight Time),339370.0999999996,A,doctorenter,I,enter,179,3,1499.0999999996275,337871.0,8006,WL,C,11.0
3,17.527999877929688,learn,42472.00012207031,Tue Apr 15 2025 17:39:40 GMT-0500 (Central Daylight Time),339770.0999999996,A,c,I,c,379,3,399.59999999962747,339370.5,8006,WL,C,12.0
3,17.57799983024597,learn,42422.00016975403,Tue Apr 15 2025 17:39:40 GMT-0500 (Central Daylight Time),339819.89999999944,A,ca,I,a,43,3,449.3999999994412,339370.5,8006,WL,C,12.0
3,17.66100001335144,learn,42338.99998664856,Tue Apr 15 2025 17:39:40 GMT-0500 (Central Daylight Time),339903.2999999998,A,cam,I,m,73,3,532.7999999998137,339370.5,8006,WL,C,12.0
3,17.76199984550476,learn,42238.00015449524,Tue Apr 15 2025 17:39:40 GMT-0500 (Central Daylight Time),340004.2999999998,A,camp,I,p,94,3,633.7999999998137,339370.5,8006,WL,C,12.0
3,18.01099991798401,learn,41989.00008201599,Tue Apr 15 2025 17:39:40 GMT-0500 (Central Daylight Time),340253.19999999925,A,campenter,I,enter,241,3,882.6999999992549,339370.5,8006,WL,C,12.0
3,18.294999837875366,learn,41705.000162124634,Tue Apr 15 2025 17:39:40 GMT-0500 (Central Daylight Time),340536.39999999944,A,f,I,f,272,3,282.79999999981374,340253.5999999996,8006,WL,C,13.0
3,18.393999814987183,learn,41606.00018501282,Tue Apr 15 2025 17:39:40 GMT-0500 (Central Daylight Time),340636.39999999944,A,fl,I,l,85,3,382.79999999981374,340253.5999999996,8006,WL,C,13.0
3,18.543999910354614,learn,41456.000089645386,Tue Apr 15 2025 17:39:40 GMT-0500 (Central Daylight Time),340786.19999999925,A,fla,I,a,145,3,532.5999999996275,340253.5999999996,8006,WL,C,13.0
3,18.82799983024597,learn,41172.00016975403,Tue Apr 15 2025 17:39:40 GMT-0500 (Central Daylight Time),341069.69999999925,A,flag,I,g,267,3,816.0999999996275,340253.5999999996,8006,WL,C,13.0
3,19.110999822616577,learn,40889.00017738342,Tue Apr 15 2025 17:39:40 GMT-0500 (Central Daylight Time),341353.0999999996,A,flagenter,I,enter,264,3,1099.5,340253.5999999996,8006,WL,C,13.0
3,19.960999965667725,learn,40039.000034332275,Tue Apr 15 2025 17:39:40 GMT-0500 (Central Daylight Time),342202.69999999925,A,l,I,l,836,3,849.2999999998137,341353.39999999944,8006,WL,C,14.0
3,20.043999910354614,learn,39956.000089645386,Tue Apr 15 2025 17:39:40 GMT-0500 (Central Daylight Time),342285.89999999944,A,le,I,e,75,3,932.5,341353.39999999944,8006,WL,C,14.0
3,20.143999814987183,learn,39856.00018501282,Tue Apr 15 2025 17:39:40 GMT-0500 (Central Daylight Time),342386.39999999944,A,let,I,t,96,3,1033.0,341353.39999999944,8006,WL,C,14.0
3,20.32699990272522,learn,39673.00009727478,Tue Apr 15 2025 17:39:40 GMT-0500 (Central Daylight Time),342569.19999999925,A,lett,I,t,163,3,1215.7999999998137,341353.39999999944,8006,WL,C,14.0
3,20.444000005722046,learn,39555.999994277954,Tue Apr 15 2025 17:39:40 GMT-0500 (Central Daylight Time),342685.5,A,lette,I,e,100,3,1332.1000000005588,341353.39999999944,8006,WL,C,14.0
3,20.509999990463257,learn,39490.00000953674,Tue Apr 15 2025 17:39:40 GMT-0500 (Central Daylight Time),342752.39999999944,A,letter,I,r,56,3,1399.0,341353.39999999944,8006,WL,C,14.0
3,20.5939998626709,learn,39406.0001373291,Tue Apr 15 2025 17:39:40 GMT-0500 (Central Daylight Time),342835.89999999944,A,letterenter,I,enter,77,3,1482.5,341353.39999999944,8006,WL,C,14.0
3,21.676999807357788,learn,38323.00019264221,Tue Apr 15 2025 17:39:40 GMT-0500 (Central Daylight Time),343918.89999999944,A,enter,I,enter,1066,3,1082.7000000001863,342836.19999999925,8006,WL,C,15.0
4,0.7829999923706055,learn,59217.000007629395,Tue Apr 15 2025 17:39:40 GMT-0500 (Central Daylight Time),409364.7999999998,A,c,I,c,768,3,782.7999999998137,408582.0,8006,WL,C,1.0
4,1.9159998893737793,learn,58084.00011062622,Tue Apr 15 2025 17:39:40 GMT-0500 (Central Daylight Time),410498.0,A,co,I,o,1112,3,1916.0,408582.0,8006,WL,C,1.0
4,2.0160000324249268,learn,57983.99996757507,Tue Apr 15 2025 17:39:40 GMT-0500 (Central Daylight Time),410597.89999999944,A,cor,I,r,83,3,2015.8999999994412,408582.0,8006,WL,C,1.0
4,2.1489999294281006,learn,57851.0000705719,Tue Apr 15 2025 17:39:40 GMT-0500 (Central Daylight Time),410731.0999999996,A,corn,I,n,119,3,2149.0999999996275,408582.0,8006,WL,C,1.0
4,2.5820000171661377,learn,57417.99998283386,Tue Apr 15 2025 17:39:40 GMT-0500 (Central Daylight Time),411164.19999999925,A,cornenter,I,enter,426,3,2582.199999999255,408582.0,8006,WL,C,1.0
4,3.1480000019073486,learn,56851.99999809265,Tue Apr 15 2025 17:39:40 GMT-0500 (Central Daylight Time),411730.5999999996,A,n,I,n,561,3,566.0999999996275,411164.5,8006,WL,C,2.0
4,3.381999969482422,learn,56618.00003051758,Tue Apr 15 2025 17:39:40 GMT-0500 (Central Daylight Time),411964.0,A,na,I,a,219,3,799.5,411164.5,8006,WL,C,2.0
4,3.5320000648498535,learn,56467.99993515015,Tue Apr 15 2025 17:39:40 GMT-0500 (Central Daylight Time),412114.0999999996,A,nau,I,u,129,3,949.5999999996275,411164.5,8006,WL,C,2.0
4,3.5989999771118164,learn,56401.00002288818,Tue Apr 15 2025 17:39:40 GMT-0500 (Central Daylight Time),412180.7999999998,A,naul,I,l,59,3,1016.2999999998137,411164.5,8006,WL,C,2.0
4,3.615000009536743,learn,56384.99999046326,Tue Apr 15 2025 17:39:40 GMT-0500 (Central Daylight Time),412197.39999999944,A,naulk,I,k,0,3,1032.8999999994412,411164.5,8006,WL,C,2.0
4,4.04800009727478,learn,55951.99990272522,Tue Apr 15 2025 17:39:40 GMT-0500 (Central Daylight Time),412630.5999999996,A,naul,I,backspace,416,3,1466.0999999996275,411164.5,8006,WL,C,2.0
4,4.181999921798706,learn,55818.000078201294,Tue Apr 15 2025 17:39:40 GMT-0500 (Central Daylight Time),412763.89999999944,A,nau,I,backspace,127,3,1599.3999999994412,411164.5,8006,WL,C,2.0
4,4.315000057220459,learn,55684.99994277954,Tue Apr 15 2025 17:39:40 GMT-0500 (Central Daylight Time),412897.0999999996,A,na,I,backspace,121,3,1732.5999999996275,411164.5,8006,WL,C,2.0
4,4.565000057220459,learn,55434.99994277954,Tue Apr 15 2025 17:39:40 GMT-0500 (Central Daylight Time),413147.0,A,nai,I,i,244,3,1982.5,411164.5,8006,WL,C,2.0
4,4.7149999141693115,learn,55285.00008583069,Tue Apr 15 2025 17:39:40 GMT-0500 (Central Daylight Time),413297.0,A,nail,I,l,138,3,2132.5,411164.5,8006,WL,C,2.0
4,4.9649999141693115,learn,55035.00008583069,Tue Apr 15 2025 17:39:40 GMT-0500 (Central Daylight Time),413546.69999999925,A,nailenter,I,enter,244,3,2382.199999999255,411164.5,8006,WL,C,2.0
4,5.247999906539917,learn,54752.00009346008,Tue Apr 15 2025 17:39:40 GMT-0500 (Central Daylight Time),413830.19999999925,A,c,I,c,275,3,283.19999999925494,413547.0,8006,WL,C,3.0
4,5.29800009727478,learn,54701.99990272522,Tue Apr 15 2025 17:39:40 GMT-0500 (Central Daylight Time),413880.5,A,ca,I,a,31,3,333.5,413547.0,8006,WL,C,3.0
4,5.447999954223633,learn,54552.00004577637,Tue Apr 15 2025 17:39:40 GMT-0500 (Central Daylight Time),414030.2999999998,A,cat,I,t,141,3,483.29999999981374,413547.0,8006,WL,C,3.0
4,5.5980000495910645,learn,54401.999950408936,Tue Apr 15 2025 17:39:40 GMT-0500 (Central Daylight Time),414180.39999999944,A,catt,I,t,135,3,633.3999999994412,413547.0,8006,WL,C,3.0
4,5.865000009536743,learn,54134.99999046326,Tue Apr 15 2025 17:39:40 GMT-0500 (Central Daylight Time),414446.7999999998,A,cattl,I,l,249,3,899.7999999998137,413547.0,8006,WL,C,3.0
4,5.947999954223633,learn,54052.00004577637,Tue Apr 15 2025 17:39:40 GMT-0500 (Central Daylight Time),414530.0,A,cattle,I,e,79,3,983.0,413547.0,8006,WL,C,3.0
4,6.164000034332275,learn,53835.999965667725,Tue Apr 15 2025 17:39:40 GMT-0500 (Central Daylight Time),414746.2999999998,A,cattleenter,I,enter,210,3,1199.2999999998137,413547.0,8006,WL,C,3.0
4,6.480999946594238,learn,53519.00005340576,Tue Apr 15 2025 17:39:40 GMT-0500 (Central Daylight Time),415063.0999999996,A,s,I,s,307,3,316.40000000037253,414746.69999999925,8006,WL,C,4.0
4,6.563999891281128,learn,53436.00010871887,Tue Apr 15 2025 17:39:40 GMT-0500 (Central Daylight Time),415146.0999999996,A,sh,I,h,70,3,399.40000000037253,414746.69999999925,8006,WL,C,4.0
4,6.648000001907349,learn,53351.99999809265,Tue Apr 15 2025 17:39:40 GMT-0500 (Central Daylight Time),415229.89999999944,A,sho,I,o,67,3,483.20000000018626,414746.69999999925,8006,WL,C,4.0
4,6.8470001220703125,learn,53152.99987792969,Tue Apr 15 2025 17:39:40 GMT-0500 (Central Daylight Time),415429.5999999996,A,shor,I,r,184,3,682.9000000003725,414746.69999999925,8006,WL,C,4.0
4,6.914000034332275,learn,53085.999965667725,Tue Apr 15 2025 17:39:40 GMT-0500 (Central Daylight Time),415496.5,A,shore,I,e,48,3,749.8000000007451,414746.69999999925,8006,WL,C,4.0
4,7.063999891281128,learn,52936.00010871887,Tue Apr 15 2025 17:39:40 GMT-0500 (Central Daylight Time),415646.19999999925,A,shoreenter,I,enter,133,3,899.5,414746.69999999925,8006,WL,C,4.0
4,7.313999891281128,learn,52686.00010871887,Tue Apr 15 2025 17:39:40 GMT-0500 (Central Daylight Time),415896.19999999925,A,b,I,b,231,3,249.69999999925494,415646.5,8006,WL,C,5.0
4,7.397000074386597,learn,52602.9999256134,Tue Apr 15 2025 17:39:40 GMT-0500 (Central Daylight Time),415979.5,A,bo,I,o,77,3,333.0,415646.5,8006,WL,C,5.0
4,7.680999994277954,learn,52319.000005722046,Tue Apr 15 2025 17:39:40 GMT-0500 (Central Daylight Time),416262.69999999925,A,bod,I,d,266,3,616.1999999992549,415646.5,8006,WL,C,5.0
4,7.796999931335449,learn,52203.00006866455,Tue Apr 15 2025 17:39:40 GMT-0500 (Central Daylight Time),416379.2999999998,A,body,I,y,103,3,732.7999999998137,415646.5,8006,WL,C,5.0
4,8.02999997138977,learn,51970.00002861023,Tue Apr 15 2025 17:39:40 GMT-0500 (Central Daylight Time),416612.69999999925,A,bodyenter,I,enter,218,3,966.1999999992549,415646.5,8006,WL,C,5.0
4,8.579999923706055,learn,51420.000076293945,Tue Apr 15 2025 17:39:40 GMT-0500 (Central Daylight Time),417162.5999999996,A,b,I,b,537,3,549.5,416613.0999999996,8006,WL,C,6.0
4,8.664000034332275,learn,51335.999965667725,Tue Apr 15 2025 17:39:40 GMT-0500 (Central Daylight Time),417245.7999999998,A,bo,I,o,75,3,632.7000000001863,416613.0999999996,8006,WL,C,6.0
4,8.813999891281128,learn,51186.00010871887,Tue Apr 15 2025 17:39:40 GMT-0500 (Central Daylight Time),417395.89999999944,A,boy,I,y,144,3,782.7999999998137,416613.0999999996,8006,WL,C,6.0
4,9.230000019073486,learn,50769.999980926514,Tue Apr 15 2025 17:39:40 GMT-0500 (Central Daylight Time),417812.0999999996,A,boyenter,I,enter,410,3,1199.0,416613.0999999996,8006,WL,C,6.0
4,9.680000066757202,learn,50319.9999332428,Tue Apr 15 2025 17:39:40 GMT-0500 (Central Daylight Time),418262.0999999996,A,d,I,d,441,3,449.79999999981374,417812.2999999998,8006,WL,C,7.0
4,9.77999997138977,learn,50220.00002861023,Tue Apr 15 2025 17:39:40 GMT-0500 (Central Daylight Time),418362.0999999996,A,do,I,o,79,3,549.7999999998137,417812.2999999998,8006,WL,C,7.0
4,9.895999908447266,learn,50104.000091552734,Tue Apr 15 2025 17:39:40 GMT-0500 (Central Daylight Time),418478.7999999998,A,doc,I,c,99,3,666.5,417812.2999999998,8006,WL,C,7.0
4,10.329999923706055,learn,49670.000076293945,Tue Apr 15 2025 17:39:40 GMT-0500 (Central Daylight Time),418911.7999999998,A,do,I,backspace,414,3,1099.5,417812.2999999998,8006,WL,C,7.0
4,10.828999996185303,learn,49171.0000038147,Tue Apr 15 2025 17:39:40 GMT-0500 (Central Daylight Time),419411.69999999925,A,doc,I,c,486,3,1599.3999999994412,417812.2999999998,8006,WL,C,7.0
4,11.046000003814697,learn,48953.9999961853,Tue Apr 15 2025 17:39:40 GMT-0500 (Central Daylight Time),419628.2999999998,A,doct,I,t,201,3,1816.0,417812.2999999998,8006,WL,C,7.0
4,11.11299991607666,learn,48887.00008392334,Tue Apr 15 2025 17:39:40 GMT-0500 (Central Daylight Time),419695.2999999998,A,docto,I,o,49,3,1883.0,417812.2999999998,8006,WL,C,7.0
4,11.180000066757202,learn,48819.9999332428,Tue Apr 15 2025 17:39:40 GMT-0500 (Central Daylight Time),419761.89999999944,A,doctor,I,r,62,3,1949.5999999996275,417812.2999999998,8006,WL,C,7.0
4,11.479000091552734,learn,48520.999908447266,Tue Apr 15 2025 17:39:40 GMT-0500 (Central Daylight Time),420061.5999999996,A,doctorenter,I,enter,292,3,2249.2999999998137,417812.2999999998,8006,WL,C,7.0
4,11.729000091552734,learn,48270.999908447266,Tue Apr 15 2025 17:39:40 GMT-0500 (Central Daylight Time),420311.39999999944,A,c,I,c,232,3,249.5,420061.89999999944,8006,WL,C,8.0
4,11.796000003814697,learn,48203.9999961853,Tue Apr 15 2025 17:39:40 GMT-0500 (Central Daylight Time),420378.19999999925,A,ca,I,a,46,3,316.29999999981374,420061.89999999944,8006,WL,C,8.0
4,11.86299991607666,learn,48137.00008392334,Tue Apr 15 2025 17:39:40 GMT-0500 (Central Daylight Time),420445.0,A,cam,I,m,51,3,383.1000000005588,420061.89999999944,8006,WL,C,8.0
4,11.946000099182129,learn,48053.99990081787,Tue Apr 15 2025 17:39:40 GMT-0500 (Central Daylight Time),420527.89999999944,A,camp,I,p,72,3,466.0,420061.89999999944,8006,WL,C,8.0
4,12.428999900817871,learn,47571.00009918213,Tue Apr 15 2025 17:39:40 GMT-0500 (Central Daylight Time),421011.0,A,campenter,I,enter,478,3,949.1000000005588,420061.89999999944,8006,WL,C,8.0
4,13.59500002861023,learn,46404.99997138977,Tue Apr 15 2025 17:39:40 GMT-0500 (Central Daylight Time),422177.5999999996,A,f,I,f,1155,3,1166.4000000003725,421011.19999999925,8006,WL,C,9.0
4,13.67799997329712,learn,46322.00002670288,Tue Apr 15 2025 17:39:40 GMT-0500 (Central Daylight Time),422260.69999999925,A,fl,I,l,68,3,1249.5,421011.19999999925,8006,WL,C,9.0
4,13.778000116348267,learn,46221.99988365173,Tue Apr 15 2025 17:39:40 GMT-0500 (Central Daylight Time),422360.69999999925,A,fla,I,a,81,3,1349.5,421011.19999999925,8006,WL,C,9.0
4,14.09500002861023,learn,45904.99997138977,Tue Apr 15 2025 17:39:40 GMT-0500 (Central Daylight Time),422677.2999999998,A,flag,I,g,301,3,1666.1000000005588,421011.19999999925,8006,WL,C,9.0
4,14.477999925613403,learn,45522.0000743866,Tue Apr 15 2025 17:39:40 GMT-0500 (Central Daylight Time),423060.5999999996,A,flagenter,I,enter,368,3,2049.4000000003725,421011.19999999925,8006,WL,C,9.0
4,14.778000116348267,learn,45221.99988365173,Tue Apr 15 2025 17:39:40 GMT-0500 (Central Daylight Time),423360.2999999998,A,l,I,l,288,3,299.29999999981374,423061.0,8006,WL,C,10.0
4,14.82800006866455,learn,45171.99993133545,Tue Apr 15 2025 17:39:40 GMT-0500 (Central Daylight Time),423410.2999999998,A,le,I,e,45,3,349.29999999981374,423061.0,8006,WL,C,10.0
4,14.960999965667725,learn,45039.000034332275,Tue Apr 15 2025 17:39:40 GMT-0500 (Central Daylight Time),423543.69999999925,A,let,I,t,115,3,482.69999999925494,423061.0,8006,WL,C,10.0
4,15.111999988555908,learn,44888.00001144409,Tue Apr 15 2025 17:39:40 GMT-0500 (Central Daylight Time),423693.89999999944,A,lett,I,t,134,3,632.8999999994412,423061.0,8006,WL,C,10.0
4,15.245000123977661,learn,44754.99987602234,Tue Apr 15 2025 17:39:40 GMT-0500 (Central Daylight Time),423827.0,A,lette,I,e,119,3,766.0,423061.0,8006,WL,C,10.0
4,15.312000036239624,learn,44687.999963760376,Tue Apr 15 2025 17:39:40 GMT-0500 (Central Daylight Time),423894.2999999998,A,letter,I,r,50,3,833.2999999998137,423061.0,8006,WL,C,10.0
4,16.811000108718872,learn,43188.99989128113,Tue Apr 15 2025 17:39:40 GMT-0500 (Central Daylight Time),425393.19999999925,A,letterenter,I,enter,1487,3,2332.199999999255,423061.0,8006,WL,C,10.0
4,17.64400005340576,learn,42355.99994659424,Tue Apr 15 2025 17:39:40 GMT-0500 (Central Daylight Time),426226.19999999925,A,q,I,q,820,3,832.5999999996275,425393.5999999996,8006,WL,C,11.0
4,17.76099991798401,learn,42239.00008201599,Tue Apr 15 2025 17:39:40 GMT-0500 (Central Daylight Time),426342.89999999944,A,qu,I,u,99,3,949.2999999998137,425393.5999999996,8006,WL,C,11.0
4,17.927000045776367,learn,42072.99995422363,Tue Apr 15 2025 17:39:40 GMT-0500 (Central Daylight Time),426509.5999999996,A,que,I,e,159,3,1116.0,425393.5999999996,8006,WL,C,11.0
4,18.094000101089478,learn,41905.99989891052,Tue Apr 15 2025 17:39:40 GMT-0500 (Central Daylight Time),426676.19999999925,A,quee,I,e,160,3,1282.5999999996275,425393.5999999996,8006,WL,C,11.0
4,18.194000005722046,learn,41805.999994277954,Tue Apr 15 2025 17:39:40 GMT-0500 (Central Daylight Time),426776.0999999996,A,queen,I,n,89,3,1382.5,425393.5999999996,8006,WL,C,11.0
4,18.759999990463257,learn,41240.00000953674,Tue Apr 15 2025 17:39:40 GMT-0500 (Central Daylight Time),427342.5999999996,A,queenenter,I,enter,557,3,1949.0,425393.5999999996,8006,WL,C,11.0
4,19.542999982833862,learn,40457.00001716614,Tue Apr 15 2025 17:39:40 GMT-0500 (Central Daylight Time),428125.7999999998,A,t,I,t,775,3,782.9000000003725,427342.89999999944,8006,WL,C,12.0
4,19.64299988746643,learn,40357.00011253357,Tue Apr 15 2025 17:39:40 GMT-0500 (Central Daylight Time),428225.5999999996,A,to,I,o,80,3,882.7000000001863,427342.89999999944,8006,WL,C,12.0
4,19.72699999809265,learn,40273.00000190735,Tue Apr 15 2025 17:39:40 GMT-0500 (Central Daylight Time),428308.89999999944,A,tow,I,w,68,3,966.0,427342.89999999944,8006,WL,C,12.0
4,19.776999950408936,learn,40223.000049591064,Tue Apr 15 2025 17:39:40 GMT-0500 (Central Daylight Time),428359.0,A,towe,I,e,41,3,1016.1000000005588,427342.89999999944,8006,WL,C,12.0
4,19.842999935150146,learn,40157.00006484985,Tue Apr 15 2025 17:39:40 GMT-0500 (Central Daylight Time),428425.5999999996,A,tower,I,r,47,3,1082.7000000001863,427342.89999999944,8006,WL,C,12.0
4,20.176000118255615,learn,39823.999881744385,Tue Apr 15 2025 17:39:40 GMT-0500 (Central Daylight Time),428758.7999999998,A,towerenter,I,enter,316,3,1415.9000000003725,427342.89999999944,8006,WL,C,12.0
4,21.176000118255615,learn,38823.999881744385,Tue Apr 15 2025 17:39:40 GMT-0500 (Central Daylight Time),429758.5999999996,A,w,I,w,983,3,999.4000000003725,428759.19999999925,8006,WL,C,13.0
4,21.276000022888184,learn,38723.99997711182,Tue Apr 15 2025 17:39:40 GMT-0500 (Central Daylight Time),429858.2999999998,A,wh,I,h,87,3,1099.1000000005588,428759.19999999925,8006,WL,C,13.0
4,21.45900011062622,learn,38540.99988937378,Tue Apr 15 2025 17:39:40 GMT-0500 (Central Daylight Time),430041.7999999998,A,whe,I,e,163,3,1282.6000000005588,428759.19999999925,8006,WL,C,13.0
4,21.55999994277954,learn,38440.00005722046,Tue Apr 15 2025 17:39:40 GMT-0500 (Central Daylight Time),430142.0,A,whea,I,a,84,3,1382.800000000745,428759.19999999925,8006,WL,C,13.0
4,21.625999927520752,learn,38374.00007247925,Tue Apr 15 2025 17:39:40 GMT-0500 (Central Daylight Time),430208.2999999998,A,wheat,I,t,47,3,1449.1000000005588,428759.19999999925,8006,WL,C,13.0
4,23.70900011062622,learn,36290.99988937378,Tue Apr 15 2025 17:39:40 GMT-0500 (Central Daylight Time),432291.0,A,wheatenter,I,enter,2069,3,3531.800000000745,428759.19999999925,8006,WL,C,13.0
4,24.608999967575073,learn,35391.00003242493,Tue Apr 15 2025 17:39:40 GMT-0500 (Central Daylight Time),433191.0,A,h,I,h,891,3,899.7000000001863,432291.2999999998,8006,WL,C,14.0
4,24.691999912261963,learn,35308.00008773804,Tue Apr 15 2025 17:39:40 GMT-0500 (Central Daylight Time),433274.0999999996,A,ho,I,o,78,3,982.7999999998137,432291.2999999998,8006,WL,C,14.0
4,24.825000047683716,learn,35174.999952316284,Tue Apr 15 2025 17:39:40 GMT-0500 (Central Daylight Time),433407.2999999998,A,hom,I,m,115,3,1116.0,432291.2999999998,8006,WL,C,14.0
4,24.89199995994568,learn,35108.00004005432,Tue Apr 15 2025 17:39:40 GMT-0500 (Central Daylight Time),433474.0,A,home,I,e,62,3,1182.7000000001863,432291.2999999998,8006,WL,C,14.0
4,25.341000080108643,learn,34658.99991989136,Tue Apr 15 2025 17:39:40 GMT-0500 (Central Daylight Time),433923.69999999925,A,homeenter,I,enter,443,3,1632.3999999994412,432291.2999999998,8006,WL,C,14.0
4,29.074000120162964,learn,30925.999879837036,Tue Apr 15 2025 17:39:40 GMT-0500 (Central Daylight Time),437656.0,A,enter,I,enter,3714,3,3731.9000000003725,433924.0999999996,8006,WL,C,15.0
5,1.7330000400543213,learn,60000.0,Tue Apr 15 2025 17:39:40 GMT-0500 (Central Daylight Time),504052.0,A,c,I,c,1719,3,1732.9000000003725,502319.0999999996,8006,WL,C,1.0
5,1.8329999446868896,learn,60000.0,Tue Apr 15 2025 17:39:40 GMT-0500 (Central Daylight Time),504152.0,A,co,I,o,89,3,1832.9000000003725,502319.0999999996,8006,WL,C,1.0
5,1.9500000476837158,learn,60000.0,Tue Apr 15 2025 17:39:40 GMT-0500 (Central Daylight Time),504268.5999999996,A,cor,I,r,101,3,1949.5,502319.0999999996,8006,WL,C,1.0
5,2.0329999923706055,learn,60000.0,Tue Apr 15 2025 17:39:40 GMT-0500 (Central Daylight Time),504351.7999999998,A,corn,I,n,73,3,2032.7000000001863,502319.0999999996,8006,WL,C,1.0
5,2.5,learn,60000.0,Tue Apr 15 2025 17:39:40 GMT-0500 (Central Daylight Time),504818.2999999998,A,cornenter,I,enter,446,3,2499.2000000001863,502319.0999999996,8006,WL,C,1.0
5,2.75,learn,60000.0,Tue Apr 15 2025 17:39:40 GMT-0500 (Central Daylight Time),505068.39999999944,A,n,I,n,242,3,249.79999999981374,504818.5999999996,8006,WL,C,2.0
5,2.865999937057495,learn,60000.0,Tue Apr 15 2025 17:39:40 GMT-0500 (Central Daylight Time),505184.7999999998,A,na,I,a,97,3,366.20000000018626,504818.5999999996,8006,WL,C,2.0
5,3.0329999923706055,learn,60000.0,Tue Apr 15 2025 17:39:40 GMT-0500 (Central Daylight Time),505351.5999999996,A,nai,I,i,157,3,533.0,504818.5999999996,8006,WL,C,2.0
5,3.0999999046325684,learn,60000.0,Tue Apr 15 2025 17:39:40 GMT-0500 (Central Daylight Time),505418.39999999944,A,nail,I,l,62,3,599.7999999998137,504818.5999999996,8006,WL,C,2.0
5,3.3320000171661377,learn,60000.0,Tue Apr 15 2025 17:39:40 GMT-0500 (Central Daylight Time),505650.89999999944,A,nailenter,I,enter,227,3,832.2999999998137,504818.5999999996,8006,WL,C,2.0
5,3.632999897003174,learn,60000.0,Tue Apr 15 2025 17:39:40 GMT-0500 (Central Daylight Time),505951.2999999998,A,c,I,c,282,3,300.0,505651.2999999998,8006,WL,C,3.0
5,3.6989998817443848,learn,60000.0,Tue Apr 15 2025 17:39:40 GMT-0500 (Central Daylight Time),506018.0,A,ca,I,a,54,3,366.70000000018626,505651.2999999998,8006,WL,C,3.0
5,3.865999937057495,learn,60000.0,Tue Apr 15 2025 17:39:40 GMT-0500 (Central Daylight Time),506184.69999999925,A,cat,I,t,156,3,533.3999999994412,505651.2999999998,8006,WL,C,3.0
5,3.998999834060669,learn,60000.0,Tue Apr 15 2025 17:39:40 GMT-0500 (Central Daylight Time),506317.7999999998,A,catt,I,t,117,3,666.5,505651.2999999998,8006,WL,C,3.0
5,4.148999929428101,learn,60000.0,Tue Apr 15 2025 17:39:40 GMT-0500 (Central Daylight Time),506467.7999999998,A,cattl,I,l,144,3,816.5,505651.2999999998,8006,WL,C,3.0
5,4.281999826431274,learn,60000.0,Tue Apr 15 2025 17:39:40 GMT-0500 (Central Daylight Time),506601.0,A,cattle,I,e,113,3,949.7000000001863,505651.2999999998,8006,WL,C,3.0
5,4.448999881744385,learn,60000.0,Tue Apr 15 2025 17:39:40 GMT-0500 (Central Daylight Time),506767.69999999925,A,cattleenter,I,enter,147,3,1116.3999999994412,505651.2999999998,8006,WL,C,3.0
5,4.748999834060669,learn,60000.0,Tue Apr 15 2025 17:39:40 GMT-0500 (Central Daylight Time),507067.5999999996,A,s,I,s,285,3,299.59999999962747,506768.0,8006,WL,C,4.0
5,4.848999977111816,learn,60000.0,Tue Apr 15 2025 17:39:40 GMT-0500 (Central Daylight Time),507167.7999999998,A,sh,I,h,82,3,399.79999999981374,506768.0,8006,WL,C,4.0
5,4.931999921798706,learn,60000.0,Tue Apr 15 2025 17:39:40 GMT-0500 (Central Daylight Time),507250.5999999996,A,sho,I,o,78,3,482.59999999962747,506768.0,8006,WL,C,4.0
5,5.115999937057495,learn,60000.0,Tue Apr 15 2025 17:39:40 GMT-0500 (Central Daylight Time),507434.2999999998,A,shor,I,r,171,3,666.2999999998137,506768.0,8006,WL,C,4.0
5,5.165999889373779,learn,60000.0,Tue Apr 15 2025 17:39:40 GMT-0500 (Central Daylight Time),507484.0999999996,A,shore,I,e,43,3,716.0999999996275,506768.0,8006,WL,C,4.0
5,5.33299994468689,learn,60000.0,Tue Apr 15 2025 17:39:40 GMT-0500 (Central Daylight Time),507651.7999999998,A,shoreenter,I,enter,162,3,883.7999999998137,506768.0,8006,WL,C,4.0
5,5.615000009536743,learn,60000.0,Tue Apr 15 2025 17:39:40 GMT-0500 (Central Daylight Time),507933.89999999944,A,b,I,b,266,3,281.8999999994412,507652.0,8006,WL,C,5.0
5,5.7149999141693115,learn,60000.0,Tue Apr 15 2025 17:39:40 GMT-0500 (Central Daylight Time),508033.89999999944,A,bo,I,o,79,3,381.8999999994412,507652.0,8006,WL,C,5.0
5,5.98199987411499,learn,60000.0,Tue Apr 15 2025 17:39:40 GMT-0500 (Central Daylight Time),508300.5999999996,A,bod,I,d,260,3,648.5999999996275,507652.0,8006,WL,C,5.0
5,6.098999977111816,learn,60000.0,Tue Apr 15 2025 17:39:40 GMT-0500 (Central Daylight Time),508417.0999999996,A,body,I,y,105,3,765.0999999996275,507652.0,8006,WL,C,5.0
5,6.264999866485596,learn,60000.0,Tue Apr 15 2025 17:39:40 GMT-0500 (Central Daylight Time),508583.69999999925,A,bodyenter,I,enter,156,3,931.6999999992549,507652.0,8006,WL,C,5.0
5,6.865000009536743,learn,60000.0,Tue Apr 15 2025 17:39:40 GMT-0500 (Central Daylight Time),509183.5999999996,A,b,I,b,590,3,599.5999999996275,508584.0,8006,WL,C,6.0
5,6.947999954223633,learn,60000.0,Tue Apr 15 2025 17:39:40 GMT-0500 (Central Daylight Time),509266.5999999996,A,bo,I,o,78,3,682.5999999996275,508584.0,8006,WL,C,6.0
5,7.164999961853027,learn,60000.0,Tue Apr 15 2025 17:39:40 GMT-0500 (Central Daylight Time),509483.5,A,boy,I,y,203,3,899.5,508584.0,8006,WL,C,6.0
5,7.330999851226807,learn,60000.0,Tue Apr 15 2025 17:39:40 GMT-0500 (Central Daylight Time),509649.89999999944,A,boyenter,I,enter,162,3,1065.8999999994412,508584.0,8006,WL,C,6.0
5,7.83299994468689,learn,60000.0,Tue Apr 15 2025 17:39:40 GMT-0500 (Central Daylight Time),510151.19999999925,A,d,I,d,484,3,501.0,509650.19999999925,8006,WL,C,7.0
5,7.898000001907349,learn,60000.0,Tue Apr 15 2025 17:39:40 GMT-0500 (Central Daylight Time),510216.5999999996,A,do,I,o,54,3,566.4000000003725,509650.19999999925,8006,WL,C,7.0
5,8.014999866485596,learn,60000.0,Tue Apr 15 2025 17:39:40 GMT-0500 (Central Daylight Time),510333.19999999925,A,doc,I,c,101,3,683.0,509650.19999999925,8006,WL,C,7.0
5,8.398000001907349,learn,60000.0,Tue Apr 15 2025 17:39:40 GMT-0500 (Central Daylight Time),510716.5,A,doct,I,t,376,3,1066.300000000745,509650.19999999925,8006,WL,C,7.0
5,8.514999866485596,learn,60000.0,Tue Apr 15 2025 17:39:40 GMT-0500 (Central Daylight Time),510833.0999999996,A,docto,I,o,96,3,1182.9000000003725,509650.19999999925,8006,WL,C,7.0
5,8.580999851226807,learn,60000.0,Tue Apr 15 2025 17:39:40 GMT-0500 (Central Daylight Time),510899.69999999925,A,doctor,I,r,52,3,1249.5,509650.19999999925,8006,WL,C,7.0
5,9.113999843597412,learn,60000.0,Tue Apr 15 2025 17:39:40 GMT-0500 (Central Daylight Time),511433.0,A,doctorenter,I,enter,513,3,1782.800000000745,509650.19999999925,8006,WL,C,7.0
5,10.297999858856201,learn,60000.0,Tue Apr 15 2025 17:39:40 GMT-0500 (Central Daylight Time),512616.0999999996,A,f,I,f,1165,3,1182.7999999998137,511433.2999999998,8006,WL,C,8.0
5,10.363999843597412,learn,60000.0,Tue Apr 15 2025 17:39:40 GMT-0500 (Central Daylight Time),512682.39999999944,A,fl,I,l,61,3,1249.0999999996275,511433.2999999998,8006,WL,C,8.0
5,10.46399998664856,learn,60000.0,Tue Apr 15 2025 17:39:40 GMT-0500 (Central Daylight Time),512782.69999999925,A,fla,I,a,83,3,1349.3999999994412,511433.2999999998,8006,WL,C,8.0
5,10.815000057220459,learn,60000.0,Tue Apr 15 2025 17:39:40 GMT-0500 (Central Daylight Time),513133.39999999944,A,flag,I,g,335,3,1700.0999999996275,511433.2999999998,8006,WL,C,8.0
5,10.980000019073486,learn,60000.0,Tue Apr 15 2025 17:39:40 GMT-0500 (Central Daylight Time),513298.69999999925,A,flagenter,I,enter,159,3,1865.3999999994412,511433.2999999998,8006,WL,C,8.0
5,11.44700002670288,learn,60000.0,Tue Apr 15 2025 17:39:40 GMT-0500 (Central Daylight Time),513765.39999999944,A,c,I,c,459,3,466.59999999962747,513298.7999999998,8006,WL,C,9.0
5,11.52999997138977,learn,60000.0,Tue Apr 15 2025 17:39:40 GMT-0500 (Central Daylight Time),513848.69999999925,A,ca,I,a,64,3,549.8999999994412,513298.7999999998,8006,WL,C,9.0
5,11.563999891281128,learn,60000.0,Tue Apr 15 2025 17:39:40 GMT-0500 (Central Daylight Time),513882.0999999996,A,cam,I,m,13,3,583.2999999998137,513298.7999999998,8006,WL,C,9.0
5,11.679999828338623,learn,60000.0,Tue Apr 15 2025 17:39:40 GMT-0500 (Central Daylight Time),513998.7999999998,A,camp,I,p,108,3,700.0,513298.7999999998,8006,WL,C,9.0
5,11.914000034332275,learn,60000.0,Tue Apr 15 2025 17:39:40 GMT-0500 (Central Daylight Time),514232.0999999996,A,campenter,I,enter,215,3,933.2999999998137,513298.7999999998,8006,WL,C,9.0
5,12.230000019073486,learn,60000.0,Tue Apr 15 2025 17:39:40 GMT-0500 (Central Daylight Time),514548.69999999925,A,l,I,l,309,3,316.29999999981374,514232.39999999944,8006,WL,C,10.0
5,12.29699993133545,learn,60000.0,Tue Apr 15 2025 17:39:40 GMT-0500 (Central Daylight Time),514615.39999999944,A,le,I,e,49,3,383.0,514232.39999999944,8006,WL,C,10.0
5,12.562999963760376,learn,60000.0,Tue Apr 15 2025 17:39:40 GMT-0500 (Central Daylight Time),514881.89999999944,A,let,I,t,246,3,649.5,514232.39999999944,8006,WL,C,10.0
5,12.69700002670288,learn,60000.0,Tue Apr 15 2025 17:39:40 GMT-0500 (Central Daylight Time),515015.0999999996,A,lett,I,t,123,3,782.7000000001863,514232.39999999944,8006,WL,C,10.0
5,12.829999923706055,learn,60000.0,Tue Apr 15 2025 17:39:40 GMT-0500 (Central Daylight Time),515148.39999999944,A,lette,I,e,127,3,916.0,514232.39999999944,8006,WL,C,10.0
5,12.895999908447266,learn,60000.0,Tue Apr 15 2025 17:39:40 GMT-0500 (Central Daylight Time),515214.89999999944,A,letter,I,r,49,3,982.5,514232.39999999944,8006,WL,C,10.0
5,12.963000059127808,learn,60000.0,Tue Apr 15 2025 17:39:40 GMT-0500 (Central Daylight Time),515281.5999999996,A,letterenter,I,enter,46,3,1049.2000000001863,514232.39999999944,8006,WL,C,10.0
5,13.69700002670288,learn,60000.0,Tue Apr 15 2025 17:39:40 GMT-0500 (Central Daylight Time),516015.0999999996,A,q,I,q,716,3,733.2999999998137,515281.7999999998,8006,WL,C,11.0
5,13.796000003814697,learn,60000.0,Tue Apr 15 2025 17:39:40 GMT-0500 (Central Daylight Time),516114.5,A,qu,I,u,94,3,832.7000000001863,515281.7999999998,8006,WL,C,11.0
5,13.996000051498413,learn,60000.0,Tue Apr 15 2025 17:39:40 GMT-0500 (Central Daylight Time),516314.7999999998,A,que,I,e,187,3,1033.0,515281.7999999998,8006,WL,C,11.0
5,14.29699993133545,learn,60000.0,Tue Apr 15 2025 17:39:40 GMT-0500 (Central Daylight Time),516615.7999999998,A,quee,I,e,283,3,1334.0,515281.7999999998,8006,WL,C,11.0
5,14.595999956130981,learn,60000.0,Tue Apr 15 2025 17:39:40 GMT-0500 (Central Daylight Time),516914.39999999944,A,queen,I,n,278,3,1632.5999999996275,515281.7999999998,8006,WL,C,11.0
5,14.994999885559082,learn,60000.0,Tue Apr 15 2025 17:39:40 GMT-0500 (Central Daylight Time),517314.0,A,queenenter,I,enter,386,3,2032.2000000001863,515281.7999999998,8006,WL,C,11.0
5,15.378999948501587,learn,60000.0,Tue Apr 15 2025 17:39:40 GMT-0500 (Central Daylight Time),517697.5999999996,A,h,I,h,363,3,383.40000000037253,517314.19999999925,8006,WL,C,12.0
5,15.461999893188477,learn,60000.0,Tue Apr 15 2025 17:39:40 GMT-0500 (Central Daylight Time),517780.89999999944,A,ho,I,o,68,3,466.70000000018626,517314.19999999925,8006,WL,C,12.0
5,15.578999996185303,learn,60000.0,Tue Apr 15 2025 17:39:40 GMT-0500 (Central Daylight Time),517897.69999999925,A,hom,I,m,105,3,583.5,517314.19999999925,8006,WL,C,12.0
5,15.678999900817871,learn,60000.0,Tue Apr 15 2025 17:39:40 GMT-0500 (Central Daylight Time),517997.5999999996,A,home,I,e,92,3,683.4000000003725,517314.19999999925,8006,WL,C,12.0
5,15.861999988555908,learn,60000.0,Tue Apr 15 2025 17:39:40 GMT-0500 (Central Daylight Time),518180.89999999944,A,homeenter,I,enter,176,3,866.7000000001863,517314.19999999925,8006,WL,C,12.0
5,18.161999940872192,learn,60000.0,Tue Apr 15 2025 17:39:40 GMT-0500 (Central Daylight Time),520480.0999999996,A,s,I,s,2289,3,2298.9000000003725,518181.19999999925,8006,WL,C,13.0
5,18.727999925613403,learn,60000.0,Tue Apr 15 2025 17:39:40 GMT-0500 (Central Daylight Time),521046.5999999996,A,su,I,u,557,3,2865.4000000003725,518181.19999999925,8006,WL,C,13.0
5,18.812000036239624,learn,60000.0,Tue Apr 15 2025 17:39:40 GMT-0500 (Central Daylight Time),521130.0999999996,A,sug,I,g,71,3,2948.9000000003725,518181.19999999925,8006,WL,C,13.0
5,19.043999910354614,learn,60000.0,Tue Apr 15 2025 17:39:40 GMT-0500 (Central Daylight Time),521363.0,A,suga,I,a,227,3,3181.800000000745,518181.19999999925,8006,WL,C,13.0
5,19.144999980926514,learn,60000.0,Tue Apr 15 2025 17:39:40 GMT-0500 (Central Daylight Time),521463.19999999925,A,sugar,I,r,83,3,3282.0,518181.19999999925,8006,WL,C,13.0
5,19.42799997329712,learn,60000.0,Tue Apr 15 2025 17:39:40 GMT-0500 (Central Daylight Time),521746.2999999998,A,sugarenter,I,enter,278,3,3565.100000000559,518181.19999999925,8006,WL,C,13.0
5,19.74399995803833,learn,60000.0,Tue Apr 15 2025 17:39:40 GMT-0500 (Central Daylight Time),522062.7999999998,A,w,I,w,299,3,316.20000000018626,521746.5999999996,8006,WL,C,14.0
5,19.82699990272522,learn,60000.0,Tue Apr 15 2025 17:39:40 GMT-0500 (Central Daylight Time),522146.0,A,wh,I,h,71,3,399.40000000037253,521746.5999999996,8006,WL,C,14.0
5,19.92799997329712,learn,60000.0,Tue Apr 15 2025 17:39:40 GMT-0500 (Central Daylight Time),522246.0999999996,A,whe,I,e,83,3,499.5,521746.5999999996,8006,WL,C,14.0
5,20.293999910354614,learn,60000.0,Tue Apr 15 2025 17:39:40 GMT-0500 (Central Daylight Time),522612.69999999925,A,whet,I,t,351,3,866.0999999996275,521746.5999999996,8006,WL,C,14.0
5,20.861000061035156,learn,60000.0,Tue Apr 15 2025 17:39:40 GMT-0500 (Central Daylight Time),523179.19999999925,A,whe,I,backspace,553,3,1432.5999999996275,521746.5999999996,8006,WL,C,14.0
5,20.876999855041504,learn,60000.0,Tue Apr 15 2025 17:39:40 GMT-0500 (Central Daylight Time),523195.7999999998,A,whea,I,a,1,3,1449.2000000001863,521746.5999999996,8006,WL,C,14.0
5,20.960999965667725,learn,60000.0,Tue Apr 15 2025 17:39:40 GMT-0500 (Central Daylight Time),523279.5,A,wheat,I,t,66,3,1532.9000000003725,521746.5999999996,8006,WL,C,14.0
5,21.126999855041504,learn,60000.0,Tue Apr 15 2025 17:39:40 GMT-0500 (Central Daylight Time),523445.5999999996,A,wheatenter,I,enter,158,3,1699.0,521746.5999999996,8006,WL,C,14.0
5,21.543999910354614,learn,60000.0,Tue Apr 15 2025 17:39:40 GMT-0500 (Central Daylight Time),523862.2999999998,A,t,I,t,408,3,416.20000000018626,523446.0999999996,8006,WL,C,15.0
5,21.64400005340576,learn,60000.0,Tue Apr 15 2025 17:39:40 GMT-0500 (Central Daylight Time),523962.2999999998,A,to,I,o,79,3,516.2000000001863,523446.0999999996,8006,WL,C,15.0
5,21.810999870300293,learn,60000.0,Tue Apr 15 2025 17:39:40 GMT-0500 (Central Daylight Time),524129.0,A,tow,I,w,147,3,682.9000000003725,523446.0999999996,8006,WL,C,15.0
5,21.876999855041504,learn,60000.0,Tue Apr 15 2025 17:39:40 GMT-0500 (Central Daylight Time),524195.69999999925,A,towe,I,e,52,3,749.5999999996275,523446.0999999996,8006,WL,C,15.0
5,21.99399995803833,learn,60000.0,Tue Apr 15 2025 17:39:40 GMT-0500 (Central Daylight Time),524312.0999999996,A,tower,I,r,98,3,866.0,523446.0999999996,8006,WL,C,15.0
5,22.15999984741211,learn,60000.0,Tue Apr 15 2025 17:39:40 GMT-0500 (Central Daylight Time),524479.0,A,towerenter,I,enter,149,3,1032.9000000003725,523446.0999999996,8006,WL,C,15.0
6,1.999000072479248,distr,58000.99992752075,Tue Apr 15 2025 17:39:40 GMT-0500 (Central Daylight Time),592524.0999999996,B,f,I,f,1994,3,1999.5,590524.5999999996,8006,WL,C,1.0
6,2.116000175476074,distr,57883.999824523926,Tue Apr 15 2025 17:39:40 GMT-0500 (Central Daylight Time),592640.6999999993,B,fo,I,o,96,3,2116.0999999996275,590524.5999999996,8006,WL,C,1.0
6,2.199000120162964,distr,57800.999879837036,Tue Apr 15 2025 17:39:40 GMT-0500 (Central Daylight Time),592724.0,B,for,I,r,77,3,2199.4000000003725,590524.5999999996,8006,WL,C,1.0
6,2.2990000247955322,distr,57700.99997520447,Tue Apr 15 2025 17:39:40 GMT-0500 (Central Daylight Time),592824.0999999996,B,fore,I,e,82,3,2299.5,590524.5999999996,8006,WL,C,1.0
6,2.433000087738037,distr,57566.99991226196,Tue Apr 15 2025 17:39:40 GMT-0500 (Central Daylight Time),592957.2999999998,B,foret,I,t,126,3,2432.7000000001863,590524.5999999996,8006,WL,C,1.0
6,3.0320000648498535,distr,56967.99993515015,Tue Apr 15 2025 17:39:40 GMT-0500 (Central Daylight Time),593557.1999999993,B,fore,I,backspace,592,3,3032.5999999996275,590524.5999999996,8006,WL,C,1.0
6,3.1490001678466797,distr,56850.99983215332,Tue Apr 15 2025 17:39:40 GMT-0500 (Central Daylight Time),593673.8999999994,B,fores,I,s,96,3,3149.2999999998137,590524.5999999996,8006,WL,C,1.0
6,3.199000120162964,distr,56800.999879837036,Tue Apr 15 2025 17:39:40 GMT-0500 (Central Daylight Time),593723.3999999994,B,forest,I,t,44,3,3198.7999999998137,590524.5999999996,8006,WL,C,1.0
6,3.366000175476074,distr,56633.999824523926,Tue Apr 15 2025 17:39:40 GMT-0500 (Central Daylight Time),593890.3999999994,B,forestenter,I,enter,162,3,3365.7999999998137,590524.5999999996,8006,WL,C,1.0
6,4.315000057220459,distr,55684.99994277954,Tue Apr 15 2025 17:39:40 GMT-0500 (Central Daylight Time),594840.0,B,p,I,p,931,3,949.4000000003725,593890.5999999996,8006,WL,C,2.0
6,4.8480000495910645,distr,55151.999950408936,Tue Apr 15 2025 17:39:40 GMT-0500 (Central Daylight Time),595373.2999999998,B,,I,backspace,517,3,1482.7000000001863,593890.5999999996,8006,WL,C,2.0
6,5.581000089645386,distr,54418.999910354614,Tue Apr 15 2025 17:39:40 GMT-0500 (Central Daylight Time),596106.1999999993,B,c,I,c,720,3,2215.5999999996275,593890.5999999996,8006,WL,C,2.0
6,5.648000001907349,distr,54351.99999809265,Tue Apr 15 2025 17:39:40 GMT-0500 (Central Daylight Time),596173.0,B,ch,I,h,51,3,2282.4000000003725,593890.5999999996,8006,WL,C,2.0
6,6.265000104904175,distr,53734.999895095825,Tue Apr 15 2025 17:39:40 GMT-0500 (Central Daylight Time),596789.5,B,chr,I,r,609,3,2898.9000000003725,593890.5999999996,8006,WL,C,2.0
6,6.331000089645386,distr,53668.999910354614,Tue Apr 15 2025 17:39:40 GMT-0500 (Central Daylight Time),596856.0999999996,B,chri,I,i,48,3,2965.5,593890.5999999996,8006,WL,C,2.0
6,6.565000057220459,distr,53434.99994277954,Tue Apr 15 2025 17:39:40 GMT-0500 (Central Daylight Time),597089.2999999998,B,chrit,I,t,222,3,3198.7000000001863,593890.5999999996,8006,WL,C,2.0
6,7.114000082015991,distr,52885.99991798401,Tue Apr 15 2025 17:39:40 GMT-0500 (Central Daylight Time),597639.0999999996,B,chri,I,backspace,540,3,3748.5,593890.5999999996,8006,WL,C,2.0
6,7.13100004196167,distr,52868.99995803833,Tue Apr 15 2025 17:39:40 GMT-0500 (Central Daylight Time),597655.8999999994,B,chris,I,s,0,3,3765.2999999998137,593890.5999999996,8006,WL,C,2.0
6,7.21399998664856,distr,52786.00001335144,Tue Apr 15 2025 17:39:40 GMT-0500 (Central Daylight Time),597739.1999999993,B,christ,I,t,70,3,3848.5999999996275,593890.5999999996,8006,WL,C,2.0
6,7.38100004196167,distr,52618.99995803833,Tue Apr 15 2025 17:39:40 GMT-0500 (Central Daylight Time),597905.8999999994,B,christm,I,m,147,3,4015.2999999998137,593890.5999999996,8006,WL,C,2.0
6,7.448000192642212,distr,52551.99980735779,Tue Apr 15 2025 17:39:40 GMT-0500 (Central Daylight Time),597972.5,B,christma,I,a,60,3,4081.9000000003725,593890.5999999996,8006,WL,C,2.0
6,7.514000177383423,distr,52485.99982261658,Tue Apr 15 2025 17:39:40 GMT-0500 (Central Daylight Time),598039.0999999996,B,christmas,I,s,57,3,4148.5,593890.5999999996,8006,WL,C,2.0
6,7.781000137329102,distr,52218.9998626709,Tue Apr 15 2025 17:39:40 GMT-0500 (Central Daylight Time),598305.5,B,christmasenter,I,enter,246,3,4414.9000000003725,593890.5999999996,8006,WL,C,2.0
6,8.496999979019165,distr,51503.000020980835,Tue Apr 15 2025 17:39:40 GMT-0500 (Central Daylight Time),599022.0,B,d,I,d,700,3,716.1000000005588,598305.8999999994,8006,WL,C,3.0
6,8.564000129699707,distr,51435.99987030029,Tue Apr 15 2025 17:39:40 GMT-0500 (Central Daylight Time),599088.6999999993,B,di,I,i,55,3,782.7999999998137,598305.8999999994,8006,WL,C,3.0
6,8.647000074386597,distr,51352.9999256134,Tue Apr 15 2025 17:39:40 GMT-0500 (Central Daylight Time),599172.0,B,dia,I,a,69,3,866.1000000005588,598305.8999999994,8006,WL,C,3.0
6,8.980000019073486,distr,51019.999980926514,Tue Apr 15 2025 17:39:40 GMT-0500 (Central Daylight Time),599505.3999999994,B,diam,I,m,312,3,1199.5,598305.8999999994,8006,WL,C,3.0
6,9.080000162124634,distr,50919.999837875366,Tue Apr 15 2025 17:39:40 GMT-0500 (Central Daylight Time),599605.1999999993,B,diamo,I,o,84,3,1299.2999999998137,598305.8999999994,8006,WL,C,3.0
6,9.19700002670288,distr,50802.99997329712,Tue Apr 15 2025 17:39:40 GMT-0500 (Central Daylight Time),599721.7999999998,B,diamon,I,n,103,3,1415.9000000003725,598305.8999999994,8006,WL,C,3.0
6,9.547000169754028,distr,50452.99983024597,Tue Apr 15 2025 17:39:40 GMT-0500 (Central Daylight Time),600071.7999999998,B,diamond,I,d,340,3,1765.9000000003725,598305.8999999994,8006,WL,C,3.0
6,9.647000074386597,distr,50352.9999256134,Tue Apr 15 2025 17:39:40 GMT-0500 (Central Daylight Time),600171.7999999998,B,diamondenter,I,enter,86,3,1865.9000000003725,598305.8999999994,8006,WL,C,3.0
6,9.913000106811523,distr,50086.99989318848,Tue Apr 15 2025 17:39:40 GMT-0500 (Central Daylight Time),600438.1999999993,B,m,I,m,258,3,266.0,600172.1999999993,8006,WL,C,4.0
6,10.014000177383423,distr,49985.99982261658,Tue Apr 15 2025 17:39:40 GMT-0500 (Central Daylight Time),600538.6999999993,B,mo,I,o,79,3,366.5,600172.1999999993,8006,WL,C,4.0
6,10.130000114440918,distr,49869.99988555908,Tue Apr 15 2025 17:39:40 GMT-0500 (Central Daylight Time),600654.8999999994,B,mot,I,t,99,3,482.70000000018626,600172.1999999993,8006,WL,C,4.0
6,10.213000059127808,distr,49786.99994087219,Tue Apr 15 2025 17:39:40 GMT-0500 (Central Daylight Time),600738.0,B,moth,I,h,70,3,565.8000000007451,600172.1999999993,8006,WL,C,4.0
6,10.297000169754028,distr,49702.99983024597,Tue Apr 15 2025 17:39:40 GMT-0500 (Central Daylight Time),600821.3999999994,B,mothe,I,e,68,3,649.2000000001863,600172.1999999993,8006,WL,C,4.0
6,10.36300015449524,distr,49636.99984550476,Tue Apr 15 2025 17:39:40 GMT-0500 (Central Daylight Time),600888.0999999996,B,mother,I,r,48,3,715.9000000003725,600172.1999999993,8006,WL,C,4.0
6,10.480000019073486,distr,49519.999980926514,Tue Apr 15 2025 17:39:40 GMT-0500 (Central Daylight Time),601004.5999999996,B,motherenter,I,enter,110,3,832.4000000003725,600172.1999999993,8006,WL,C,4.0
6,11.630000114440918,distr,48369.99988555908,Tue Apr 15 2025 17:39:40 GMT-0500 (Central Daylight Time),602154.5,B,s,I,s,1129,3,1149.7000000001863,601004.7999999998,8006,WL,C,5.0
6,11.696000099182129,distr,48303.99990081787,Tue Apr 15 2025 17:39:40 GMT-0500 (Central Daylight Time),602221.1999999993,B,sk,I,k,51,3,1216.3999999994412,601004.7999999998,8006,WL,C,5.0
6,11.84600019454956,distr,48153.99980545044,Tue Apr 15 2025 17:39:40 GMT-0500 (Central Daylight Time),602370.7999999998,B,sky,I,y,144,3,1366.0,601004.7999999998,8006,WL,C,5.0
6,11.996000051498413,distr,48003.99994850159,Tue Apr 15 2025 17:39:40 GMT-0500 (Central Daylight Time),602521.0999999996,B,skyenter,I,enter,131,3,1516.2999999998137,601004.7999999998,8006,WL,C,5.0
6,12.328999996185303,distr,47671.0000038147,Tue Apr 15 2025 17:39:40 GMT-0500 (Central Daylight Time),602854.1999999993,B,v,I,v,317,3,332.79999999981374,602521.3999999994,8006,WL,C,6.0
6,12.396000146865845,distr,47603.999853134155,Tue Apr 15 2025 17:39:40 GMT-0500 (Central Daylight Time),602920.8999999994,B,va,I,a,55,3,399.5,602521.3999999994,8006,WL,C,6.0
6,12.578999996185303,distr,47421.0000038147,Tue Apr 15 2025 17:39:40 GMT-0500 (Central Daylight Time),603104.0999999996,B,val,I,l,173,3,582.7000000001863,602521.3999999994,8006,WL,C,6.0
6,12.729000091552734,distr,47270.999908447266,Tue Apr 15 2025 17:39:40 GMT-0500 (Central Daylight Time),603254.0,B,vall,I,l,132,3,732.6000000005588,602521.3999999994,8006,WL,C,6.0
6,12.879000186920166,distr,47120.999813079834,Tue Apr 15 2025 17:39:40 GMT-0500 (Central Daylight Time),603404.0,B,vally,I,y,143,3,882.6000000005588,602521.3999999994,8006,WL,C,6.0
6,13.078999996185303,distr,46921.0000038147,Tue Apr 15 2025 17:39:40 GMT-0500 (Central Daylight Time),603603.8999999994,B,vallyenter,I,enter,185,3,1082.5,602521.3999999994,8006,WL,C,6.0
6,22.993000030517578,distr,37006.99996948242,Tue Apr 15 2025 17:39:40 GMT-0500 (Central Daylight Time),613517.6999999993,B,enter,I,enter,9906,3,9913.5,603604.1999999993,8006,WL,C,7.0
6,23.14300012588501,distr,36856.99987411499,Tue Apr 15 2025 17:39:40 GMT-0500 (Central Daylight Time),613667.5999999996,B,enter,I,enter,135,3,149.59999999962747,613518.0,8006,WL,C,8.0
6,23.242000102996826,distr,36757.999897003174,Tue Apr 15 2025 17:39:40 GMT-0500 (Central Daylight Time),613767.2999999998,B,enter,I,enter,90,3,99.40000000037253,613667.8999999994,8006,WL,C,9.0
6,23.392000198364258,distr,36607.99980163574,Tue Apr 15 2025 17:39:40 GMT-0500 (Central Daylight Time),613917.3999999994,B,enter,I,enter,134,3,149.79999999981374,613767.5999999996,8006,WL,C,10.0
6,23.526000022888184,distr,36473.99997711182,Tue Apr 15 2025 17:39:40 GMT-0500 (Central Daylight Time),614051.0,B,enter,I,enter,120,3,133.30000000074506,613917.6999999993,8006,WL,C,11.0
6,23.642000198364258,distr,36357.99980163574,Tue Apr 15 2025 17:39:40 GMT-0500 (Central Daylight Time),614167.2999999998,B,enter,I,enter,99,3,116.0,614051.2999999998,8006,WL,C,12.0
6,23.842000007629395,distr,36157.999992370605,Tue Apr 15 2025 17:39:40 GMT-0500 (Central Daylight Time),614367.3999999994,B,enter,I,enter,190,3,199.70000000018626,614167.6999999993,8006,WL,C,13.0
6,24.075999975204468,distr,35924.00002479553,Tue Apr 15 2025 17:39:40 GMT-0500 (Central Daylight Time),614600.5999999996,B,enter,I,enter,222,3,232.90000000037253,614367.6999999993,8006,WL,C,14.0
6,24.325000047683716,distr,35674.999952316284,Tue Apr 15 2025 17:39:40 GMT-0500 (Central Daylight Time),614850.3999999994,B,enter,I,enter,237,3,249.3999999994412,614601.0,8006,WL,C,15.0
7,8.063999891281128,immed,51936.00010871887,Tue Apr 15 2025 17:39:40 GMT-0500 (Central Daylight Time),632494.7999999998,A,q,I,q,8055,3,8063.799999999814,624431.0,8006,WL,C,1.0
7,8.19700002670288,immed,51802.99997329712,Tue Apr 15 2025 17:39:40 GMT-0500 (Central Daylight Time),632628.2999999998,A,qu,I,u,126,3,8197.299999999814,624431.0,8006,WL,C,1.0
7,8.313999891281128,immed,51686.00010871887,Tue Apr 15 2025 17:39:40 GMT-0500 (Central Daylight Time),632744.8999999994,A,que,I,e,105,3,8313.899999999441,624431.0,8006,WL,C,1.0
7,8.46399998664856,immed,51536.00001335144,Tue Apr 15 2025 17:39:40 GMT-0500 (Central Daylight Time),632894.5999999996,A,quee,I,e,132,3,8463.599999999627,624431.0,8006,WL,C,1.0
7,8.54699993133545,immed,51453.00006866455,Tue Apr 15 2025 17:39:40 GMT-0500 (Central Daylight Time),632978.0999999996,A,queen,I,n,79,3,8547.099999999627,624431.0,8006,WL,C,1.0
7,8.980000019073486,immed,51019.999980926514,Tue Apr 15 2025 17:39:40 GMT-0500 (Central Daylight Time),633411.3999999994,A,queenenter,I,enter,427,3,8980.399999999441,624431.0,8006,WL,C,1.0
7,9.379999876022339,immed,50620.00012397766,Tue Apr 15 2025 17:39:40 GMT-0500 (Central Daylight Time),633811.1999999993,A,t,I,t,386,3,399.5,633411.6999999993,8006,WL,C,2.0
7,9.46399998664856,immed,50536.00001335144,Tue Apr 15 2025 17:39:40 GMT-0500 (Central Daylight Time),633894.6999999993,A,to,I,o,66,3,483.0,633411.6999999993,8006,WL,C,2.0
7,9.629999876022339,immed,50370.00012397766,Tue Apr 15 2025 17:39:40 GMT-0500 (Central Daylight Time),634061.0,A,tow,I,w,151,3,649.3000000007451,633411.6999999993,8006,WL,C,2.0
7,9.713000059127808,immed,50286.99994087219,Tue Apr 15 2025 17:39:40 GMT-0500 (Central Daylight Time),634144.3999999994,A,towe,I,e,64,3,732.7000000001863,633411.6999999993,8006,WL,C,2.0
7,9.77999997138977,immed,50220.00002861023,Tue Apr 15 2025 17:39:40 GMT-0500 (Central Daylight Time),634211.0,A,tower,I,r,53,3,799.3000000007451,633411.6999999993,8006,WL,C,2.0
7,9.996999979019165,immed,50003.000020980835,Tue Apr 15 2025 17:39:40 GMT-0500 (Central Daylight Time),634427.5999999996,A,towerenter,I,enter,210,3,1015.9000000003725,633411.6999999993,8006,WL,C,2.0
7,11.230000019073486,immed,48769.999980926514,Tue Apr 15 2025 17:39:40 GMT-0500 (Central Daylight Time),635660.6999999993,A,w,I,w,1218,3,1232.699999999255,634428.0,8006,WL,C,3.0
7,11.312999963760376,immed,48687.000036239624,Tue Apr 15 2025 17:39:40 GMT-0500 (Central Daylight Time),635743.7999999998,A,wh,I,h,73,3,1315.7999999998137,634428.0,8006,WL,C,3.0
7,11.463000059127808,immed,48536.99994087219,Tue Apr 15 2025 17:39:40 GMT-0500 (Central Daylight Time),635893.8999999994,A,whe,I,e,142,3,1465.8999999994412,634428.0,8006,WL,C,3.0
7,11.823999881744385,immed,48176.000118255615,Tue Apr 15 2025 17:39:40 GMT-0500 (Central Daylight Time),636255.3999999994,A,whea,I,a,209,3,1827.3999999994412,634428.0,8006,WL,C,3.0
7,11.930000066757202,immed,48069.9999332428,Tue Apr 15 2025 17:39:40 GMT-0500 (Central Daylight Time),636361.1999999993,A,wheat,I,t,85,3,1933.199999999255,634428.0,8006,WL,C,3.0
7,13.996000051498413,immed,46003.99994850159,Tue Apr 15 2025 17:39:40 GMT-0500 (Central Daylight Time),638426.5,A,wheatenter,I,enter,2052,3,3998.5,634428.0,8006,WL,C,3.0
7,14.294999837875366,immed,45705.000162124634,Tue Apr 15 2025 17:39:40 GMT-0500 (Central Daylight Time),638726.5,A,h,I,h,281,3,299.6000000005588,638426.8999999994,8006,WL,C,4.0
7,14.378999948501587,immed,45621.00005149841,Tue Apr 15 2025 17:39:40 GMT-0500 (Central Daylight Time),638809.7999999998,A,ho,I,o,63,3,382.90000000037253,638426.8999999994,8006,WL,C,4.0
7,14.51199984550476,immed,45488.00015449524,Tue Apr 15 2025 17:39:40 GMT-0500 (Central Daylight Time),638942.6999999993,A,hom,I,m,124,3,515.7999999998137,638426.8999999994,8006,WL,C,4.0
7,14.661999940872192,immed,45338.00005912781,Tue Apr 15 2025 17:39:40 GMT-0500 (Central Daylight Time),639092.8999999994,A,home,I,e,135,3,666.0,638426.8999999994,8006,WL,C,4.0
7,15.07800006866455,immed,44921.99993133545,Tue Apr 15 2025 17:39:40 GMT-0500 (Central Daylight Time),639509.2999999998,A,homeenter,I,enter,401,3,1082.4000000003725,638426.8999999994,8006,WL,C,4.0
7,17.128000020980835,immed,42871.999979019165,Tue Apr 15 2025 17:39:40 GMT-0500 (Central Daylight Time),641558.8999999994,A,s,I,s,2032,3,2049.2000000001863,639509.6999999993,8006,WL,C,5.0
7,17.210999965667725,immed,42789.000034332275,Tue Apr 15 2025 17:39:40 GMT-0500 (Central Daylight Time),641642.0999999996,A,su,I,u,62,3,2132.4000000003725,639509.6999999993,8006,WL,C,5.0
7,17.32800006866455,immed,42671.99993133545,Tue Apr 15 2025 17:39:40 GMT-0500 (Central Daylight Time),641758.7999999998,A,sug,I,g,107,3,2249.100000000559,639509.6999999993,8006,WL,C,5.0
7,17.39400005340576,immed,42605.99994659424,Tue Apr 15 2025 17:39:40 GMT-0500 (Central Daylight Time),641825.3999999994,A,suga,I,a,55,3,2315.7000000001863,639509.6999999993,8006,WL,C,5.0
7,17.560999870300293,immed,42439.00012969971,Tue Apr 15 2025 17:39:40 GMT-0500 (Central Daylight Time),641992.0,A,sugar,I,r,148,3,2482.300000000745,639509.6999999993,8006,WL,C,5.0
7,17.8439998626709,immed,42156.0001373291,Tue Apr 15 2025 17:39:40 GMT-0500 (Central Daylight Time),642275.0999999996,A,sugarenter,I,enter,269,3,2765.4000000003725,639509.6999999993,8006,WL,C,5.0
7,18.47699999809265,immed,41523.00000190735,Tue Apr 15 2025 17:39:40 GMT-0500 (Central Daylight Time),642908.3999999994,A,b,I,b,618,3,633.0,642275.3999999994,8006,WL,C,6.0
7,18.543999910354614,immed,41456.000089645386,Tue Apr 15 2025 17:39:40 GMT-0500 (Central Daylight Time),642975.0999999996,A,bo,I,o,57,3,699.7000000001863,642275.3999999994,8006,WL,C,6.0
7,18.66100001335144,immed,41338.99998664856,Tue Apr 15 2025 17:39:40 GMT-0500 (Central Daylight Time),643091.6999999993,A,boy,I,y,110,3,816.2999999998137,642275.3999999994,8006,WL,C,6.0
7,18.8439998626709,immed,41156.0001373291,Tue Apr 15 2025 17:39:40 GMT-0500 (Central Daylight Time),643274.7999999998,A,boyenter,I,enter,178,3,999.4000000003725,642275.3999999994,8006,WL,C,6.0
7,19.07699990272522,immed,40923.00009727478,Tue Apr 15 2025 17:39:40 GMT-0500 (Central Daylight Time),643508.1999999993,A,d,I,d,227,3,233.09999999962747,643275.0999999996,8006,WL,C,7.0
7,19.14400005340576,immed,40855.99994659424,Tue Apr 15 2025 17:39:40 GMT-0500 (Central Daylight Time),643574.8999999994,A,do,I,o,49,3,299.79999999981374,643275.0999999996,8006,WL,C,7.0
7,19.444000005722046,immed,40555.999994277954,Tue Apr 15 2025 17:39:40 GMT-0500 (Central Daylight Time),643874.3999999994,A,doc,I,c,295,3,599.2999999998137,643275.0999999996,8006,WL,C,7.0
7,19.710000038146973,immed,40289.99996185303,Tue Apr 15 2025 17:39:40 GMT-0500 (Central Daylight Time),644141.3999999994,A,doct,I,t,259,3,866.2999999998137,643275.0999999996,8006,WL,C,7.0
7,19.80999994277954,immed,40190.00005722046,Tue Apr 15 2025 17:39:40 GMT-0500 (Central Daylight Time),644241.2999999998,A,docto,I,o,80,3,966.2000000001863,643275.0999999996,8006,WL,C,7.0
7,19.876999855041504,immed,40123.000144958496,Tue Apr 15 2025 17:39:40 GMT-0500 (Central Daylight Time),644308.0,A,doctor,I,r,60,3,1032.9000000003725,643275.0999999996,8006,WL,C,7.0
7,20.126999855041504,immed,39873.000144958496,Tue Apr 15 2025 17:39:40 GMT-0500 (Central Daylight Time),644558.0,A,doctorenter,I,enter,242,3,1282.9000000003725,643275.0999999996,8006,WL,C,7.0
7,21.39299988746643,immed,38607.00011253357,Tue Apr 15 2025 17:39:40 GMT-0500 (Central Daylight Time),645823.8999999994,A,c,I,c,1248,3,1265.5999999996275,644558.2999999998,8006,WL,C,8.0
7,21.442999839782715,immed,38557.000160217285,Tue Apr 15 2025 17:39:40 GMT-0500 (Central Daylight Time),645874.0999999996,A,ca,I,a,46,3,1315.7999999998137,644558.2999999998,8006,WL,C,8.0
7,21.509999990463257,immed,38490.00000953674,Tue Apr 15 2025 17:39:40 GMT-0500 (Central Daylight Time),645940.7999999998,A,cam,I,m,60,3,1382.5,644558.2999999998,8006,WL,C,8.0
7,21.64299988746643,immed,38357.00011253357,Tue Apr 15 2025 17:39:40 GMT-0500 (Central Daylight Time),646074.0,A,camp,I,p,121,3,1515.7000000001863,644558.2999999998,8006,WL,C,8.0
7,21.859999895095825,immed,38140.000104904175,Tue Apr 15 2025 17:39:40 GMT-0500 (Central Daylight Time),646290.7999999998,A,campenter,I,enter,203,3,1732.5,644558.2999999998,8006,WL,C,8.0
7,22.608999967575073,immed,37391.00003242493,Tue Apr 15 2025 17:39:40 GMT-0500 (Central Daylight Time),647040.3999999994,A,f,I,f,731,3,749.2999999998137,646291.0999999996,8006,WL,C,9.0
7,22.675999879837036,immed,37324.000120162964,Tue Apr 15 2025 17:39:40 GMT-0500 (Central Daylight Time),647107.1999999993,A,fl,I,l,53,3,816.0999999996275,646291.0999999996,8006,WL,C,9.0
7,22.80900001525879,immed,37190.99998474121,Tue Apr 15 2025 17:39:40 GMT-0500 (Central Daylight Time),647240.1999999993,A,fla,I,a,114,3,949.0999999996275,646291.0999999996,8006,WL,C,9.0
7,23.042999982833862,immed,36957.00001716614,Tue Apr 15 2025 17:39:40 GMT-0500 (Central Daylight Time),647473.6999999993,A,flag,I,g,221,3,1182.5999999996275,646291.0999999996,8006,WL,C,9.0
7,23.2260000705719,immed,36773.9999294281,Tue Apr 15 2025 17:39:40 GMT-0500 (Central Daylight Time),647656.7999999998,A,flagenter,I,enter,164,3,1365.7000000001863,646291.0999999996,8006,WL,C,9.0
7,23.70899987220764,immed,36291.00012779236,Tue Apr 15 2025 17:39:40 GMT-0500 (Central Daylight Time),648139.8999999994,A,l,I,l,476,3,482.70000000018626,647657.1999999993,8006,WL,C,10.0
7,23.925999879837036,immed,36074.000120162964,Tue Apr 15 2025 17:39:40 GMT-0500 (Central Daylight Time),648356.6999999993,A,le,I,e,210,3,699.5,647657.1999999993,8006,WL,C,10.0
7,24.04200005531311,immed,35957.99994468689,Tue Apr 15 2025 17:39:40 GMT-0500 (Central Daylight Time),648473.3999999994,A,let,I,t,97,3,816.2000000001863,647657.1999999993,8006,WL,C,10.0
7,24.175999879837036,immed,35824.000120162964,Tue Apr 15 2025 17:39:40 GMT-0500 (Central Daylight Time),648606.6999999993,A,lett,I,t,124,3,949.5,647657.1999999993,8006,WL,C,10.0
7,24.526000022888184,immed,35473.99997711182,Tue Apr 15 2025 17:39:40 GMT-0500 (Central Daylight Time),648956.3999999994,A,lette,I,e,343,3,1299.2000000001863,647657.1999999993,8006,WL,C,10.0
7,24.575000047683716,immed,35424.999952316284,Tue Apr 15 2025 17:39:40 GMT-0500 (Central Daylight Time),649006.3999999994,A,letter,I,r,41,3,1349.2000000001863,647657.1999999993,8006,WL,C,10.0
7,24.80900001525879,immed,35190.99998474121,Tue Apr 15 2025 17:39:40 GMT-0500 (Central Daylight Time),649239.7999999998,A,letterenter,I,enter,215,3,1582.6000000005588,647657.1999999993,8006,WL,C,10.0
7,27.557999849319458,immed,32442.000150680542,Tue Apr 15 2025 17:39:40 GMT-0500 (Central Daylight Time),651988.6999999993,A,s,I,s,2734,3,2748.699999999255,649240.0,8006,WL,C,11.0
7,27.641000032424927,immed,32358.999967575073,Tue Apr 15 2025 17:39:40 GMT-0500 (Central Daylight Time),652072.0999999996,A,sh,I,h,65,3,2832.0999999996275,649240.0,8006,WL,C,11.0
7,27.70799994468689,immed,32292.00005531311,Tue Apr 15 2025 17:39:40 GMT-0500 (Central Daylight Time),652138.8999999994,A,sho,I,o,53,3,2898.899999999441,649240.0,8006,WL,C,11.0
7,27.807999849319458,immed,32192.000150680542,Tue Apr 15 2025 17:39:40 GMT-0500 (Central Daylight Time),652238.6999999993,A,shor,I,r,83,3,2998.699999999255,649240.0,8006,WL,C,11.0
7,27.875,immed,32125.0,Tue Apr 15 2025 17:39:40 GMT-0500 (Central Daylight Time),652305.5999999996,A,shore,I,e,47,3,3065.5999999996275,649240.0,8006,WL,C,11.0
7,28.057999849319458,immed,31942.000150680542,Tue Apr 15 2025 17:39:40 GMT-0500 (Central Daylight Time),652488.6999999993,A,shoreenter,I,enter,172,3,3248.699999999255,649240.0,8006,WL,C,11.0
7,29.19099998474121,immed,30809.00001525879,Tue Apr 15 2025 17:39:40 GMT-0500 (Central Daylight Time),653621.5,A,b,I,b,1125,3,1132.7000000001863,652488.7999999998,8006,WL,C,12.0
7,29.256999969482422,immed,30743.000030517578,Tue Apr 15 2025 17:39:40 GMT-0500 (Central Daylight Time),653688.3999999994,A,bo,I,o,56,3,1199.5999999996275,652488.7999999998,8006,WL,C,12.0
