block_c,block_dur,condition,countdown,datetime,endtime,list,multichar_response,project,response,response_time,session_number,start_end,starttime,subject_id,task,task_vers,trial
,,,,Thu Dec 12 2024 17:06:05 GMT-0600 (Central Standard Time),,,,I,space,2192,2,,,8006,WL,A,
prac,,0,,Thu Dec 12 2024 17:06:05 GMT-0600 (Central Standard Time),,NA,b,I,b,4186,2,,,8006,WL,A,1.0
prac,,0,,Thu Dec 12 2024 17:06:05 GMT-0600 (Central Standard Time),,NA,bo,I,o,557,2,,,8006,WL,A,1.0
prac,,0,,Thu Dec 12 2024 17:06:05 GMT-0600 (Central Standard Time),,NA,boo,I,o,137,2,,,8006,WL,A,1.0
prac,,0,,Thu Dec 12 2024 17:06:05 GMT-0600 (Central Standard Time),,NA,boos,I,s,194,2,,,8006,WL,A,1.0
prac,,0,,Thu Dec 12 2024 17:06:05 GMT-0600 (Central Standard Time),,NA,boost,I,t,122,2,,,8006,WL,A,1.0
prac,,0,,Thu Dec 12 2024 17:06:05 GMT-0600 (Central Standard Time),,NA,boostenter,I,enter,980,2,,,8006,WL,A,1.0
1,3.0,learn,57000.0,Thu Dec 12 2024 17:06:05 GMT-0600 (Central Standard Time),132952.2999999998,A,k,I,k,2977,2,2998.9000000003725,129953.39999999944,8006,WL,A,1.0
1,3.0830001831054688,learn,56916.99981689453,Thu Dec 12 2024 17:06:05 GMT-0600 (Central Standard Time),133035.39999999944,A,ke,I,e,65,2,3082.0,129953.39999999944,8006,WL,A,1.0
1,3.199000120162964,learn,56800.999879837036,Thu Dec 12 2024 17:06:05 GMT-0600 (Central Standard Time),133151.89999999944,A,key,I,y,94,2,3198.5,129953.39999999944,8006,WL,A,1.0
1,3.5160000324249268,learn,56483.99996757507,Thu Dec 12 2024 17:06:05 GMT-0600 (Central Standard Time),133468.59999999963,A,keyenter,I,enter,299,2,3515.2000000001863,129953.39999999944,8006,WL,A,1.0
1,5.016000032424927,learn,54983.99996757507,Thu Dec 12 2024 17:06:05 GMT-0600 (Central Standard Time),134968.2999999998,A,r,I,r,1478,2,1499.4000000003725,133468.89999999944,8006,WL,A,2.0
1,5.065999984741211,learn,54934.00001525879,Thu Dec 12 2024 17:06:05 GMT-0600 (Central Standard Time),135018.09999999963,A,ra,I,a,34,2,1549.2000000001863,133468.89999999944,8006,WL,A,2.0
1,5.266000032424927,learn,54733.99996757507,Thu Dec 12 2024 17:06:05 GMT-0600 (Central Standard Time),135218.2000000002,A,rat,I,t,177,2,1749.300000000745,133468.89999999944,8006,WL,A,2.0
1,5.382000207901001,learn,54617.999792099,Thu Dec 12 2024 17:06:05 GMT-0600 (Central Standard Time),135334.39999999944,A,ratt,I,t,97,2,1865.5,133468.89999999944,8006,WL,A,2.0
1,5.499000072479248,learn,54500.99992752075,Thu Dec 12 2024 17:06:05 GMT-0600 (Central Standard Time),135451.59999999963,A,rattl,I,l,101,2,1982.7000000001863,133468.89999999944,8006,WL,A,2.0
1,5.549000024795532,learn,54450.99997520447,Thu Dec 12 2024 17:06:05 GMT-0600 (Central Standard Time),135501.39999999944,A,rattle,I,e,39,2,2032.5,133468.89999999944,8006,WL,A,2.0
1,5.749000072479248,learn,54250.99992752075,Thu Dec 12 2024 17:06:05 GMT-0600 (Central Standard Time),135701.2000000002,A,rattleenter,I,enter,189,2,2232.300000000745,133468.89999999944,8006,WL,A,2.0
1,6.215000152587891,learn,53784.99984741211,Thu Dec 12 2024 17:06:05 GMT-0600 (Central Standard Time),136167.7000000002,A,g,I,g,453,2,465.90000000037253,135701.7999999998,8006,WL,A,3.0
1,6.29800009727478,learn,53701.99990272522,Thu Dec 12 2024 17:06:05 GMT-0600 (Central Standard Time),136251.0,A,go,I,o,75,2,549.2000000001863,135701.7999999998,8006,WL,A,3.0
1,6.5320000648498535,learn,53467.99993515015,Thu Dec 12 2024 17:06:05 GMT-0600 (Central Standard Time),136484.5,A,gol,I,l,224,2,782.7000000001863,135701.7999999998,8006,WL,A,3.0
1,6.882000207901001,learn,53117.999792099,Thu Dec 12 2024 17:06:05 GMT-0600 (Central Standard Time),136834.2000000002,A,gold,I,d,335,2,1132.4000000003725,135701.7999999998,8006,WL,A,3.0
1,7.015000104904175,learn,52984.999895095825,Thu Dec 12 2024 17:06:05 GMT-0600 (Central Standard Time),136967.2999999998,A,goldenter,I,enter,120,2,1265.5,135701.7999999998,8006,WL,A,3.0
1,7.748000144958496,learn,52251.999855041504,Thu Dec 12 2024 17:06:05 GMT-0600 (Central Standard Time),137700.39999999944,A,r,I,r,723,2,732.5999999996275,136967.7999999998,8006,WL,A,4.0
1,7.8480000495910645,learn,52151.999950408936,Thu Dec 12 2024 17:06:05 GMT-0600 (Central Standard Time),137800.59999999963,A,ru,I,u,78,2,832.7999999998137,136967.7999999998,8006,WL,A,4.0
1,8.032000064849854,learn,51967.99993515015,Thu Dec 12 2024 17:06:05 GMT-0600 (Central Standard Time),137984.0,A,rug,I,g,162,2,1016.2000000001863,136967.7999999998,8006,WL,A,4.0
1,8.183000087738037,learn,51816.99991226196,Thu Dec 12 2024 17:06:05 GMT-0600 (Central Standard Time),138135.09999999963,A,rugenter,I,enter,131,2,1167.2999999998137,136967.7999999998,8006,WL,A,4.0
1,9.581000089645386,learn,50418.999910354614,Thu Dec 12 2024 17:06:05 GMT-0600 (Central Standard Time),139533.5,A,m,I,m,1387,2,1397.9000000003725,138135.59999999963,8006,WL,A,5.0
1,9.648000001907349,learn,50351.99999809265,Thu Dec 12 2024 17:06:05 GMT-0600 (Central Standard Time),139600.2000000002,A,me,I,e,45,2,1464.6000000005588,138135.59999999963,8006,WL,A,5.0
1,9.71399998664856,learn,50286.00001335144,Thu Dec 12 2024 17:06:05 GMT-0600 (Central Standard Time),139666.7000000002,A,mea,I,a,51,2,1531.1000000005588,138135.59999999963,8006,WL,A,5.0
1,9.864000082015991,learn,50135.99991798401,Thu Dec 12 2024 17:06:05 GMT-0600 (Central Standard Time),139816.39999999944,A,mead,I,d,127,2,1680.7999999998137,138135.59999999963,8006,WL,A,5.0
1,9.981000185012817,learn,50018.99981498718,Thu Dec 12 2024 17:06:05 GMT-0600 (Central Standard Time),139933.09999999963,A,meado,I,o,107,2,1797.5,138135.59999999963,8006,WL,A,5.0
1,10.46399998664856,learn,49536.00001335144,Thu Dec 12 2024 17:06:05 GMT-0600 (Central Standard Time),140416.59999999963,A,meadow,I,w,471,2,2281.0,138135.59999999963,8006,WL,A,5.0
1,10.614000082015991,learn,49385.99991798401,Thu Dec 12 2024 17:06:05 GMT-0600 (Central Standard Time),140566.5,A,meadowenter,I,enter,129,2,2430.9000000003725,138135.59999999963,8006,WL,A,5.0
1,11.182000160217285,learn,48817.999839782715,Thu Dec 12 2024 17:06:05 GMT-0600 (Central Standard Time),141134.0,A,t,I,t,557,2,567.2000000001863,140566.7999999998,8006,WL,A,6.0
1,11.380000114440918,learn,48619.99988555908,Thu Dec 12 2024 17:06:05 GMT-0600 (Central Standard Time),141332.89999999944,A,tr,I,r,181,2,766.0999999996275,140566.7999999998,8006,WL,A,6.0
1,11.414000034332275,learn,48585.999965667725,Thu Dec 12 2024 17:06:05 GMT-0600 (Central Standard Time),141366.0,A,tra,I,a,22,2,799.2000000001863,140566.7999999998,8006,WL,A,6.0
1,11.564000129699707,learn,48435.99987030029,Thu Dec 12 2024 17:06:05 GMT-0600 (Central Standard Time),141516.2000000002,A,trai,I,i,133,2,949.4000000003725,140566.7999999998,8006,WL,A,6.0
1,11.647000074386597,learn,48352.9999256134,Thu Dec 12 2024 17:06:05 GMT-0600 (Central Standard Time),141599.2000000002,A,train,I,n,71,2,1032.4000000003725,140566.7999999998,8006,WL,A,6.0
1,11.830000162124634,learn,48169.999837875366,Thu Dec 12 2024 17:06:05 GMT-0600 (Central Standard Time),141782.59999999963,A,trainenter,I,enter,172,2,1215.7999999998137,140566.7999999998,8006,WL,A,6.0
1,14.246000051498413,learn,45753.99994850159,Thu Dec 12 2024 17:06:05 GMT-0600 (Central Standard Time),144198.39999999944,A,f,I,f,2396,2,2415.399999999441,141783.0,8006,WL,A,7.0
1,14.36300015449524,learn,45636.99984550476,Thu Dec 12 2024 17:06:05 GMT-0600 (Central Standard Time),144315.0,A,fl,I,l,100,2,2532.0,141783.0,8006,WL,A,7.0
1,14.779000043869019,learn,45220.99995613098,Thu Dec 12 2024 17:06:05 GMT-0600 (Central Standard Time),144731.39999999944,A,fll,I,l,401,2,2948.399999999441,141783.0,8006,WL,A,7.0
1,15.412000179290771,learn,44587.99982070923,Thu Dec 12 2024 17:06:05 GMT-0600 (Central Standard Time),145364.7999999998,A,fl,I,backspace,614,2,3581.7999999998137,141783.0,8006,WL,A,7.0
1,15.67900013923645,learn,44320.99986076355,Thu Dec 12 2024 17:06:05 GMT-0600 (Central Standard Time),145631.39999999944,A,flo,I,o,246,2,3848.399999999441,141783.0,8006,WL,A,7.0
1,15.828999996185303,learn,44171.0000038147,Thu Dec 12 2024 17:06:05 GMT-0600 (Central Standard Time),145781.2000000002,A,floo,I,o,132,2,3998.2000000001863,141783.0,8006,WL,A,7.0
1,16.146000146865845,learn,43853.999853134155,Thu Dec 12 2024 17:06:05 GMT-0600 (Central Standard Time),146098.0,A,floor,I,r,294,2,4315.0,141783.0,8006,WL,A,7.0
1,16.27900004386902,learn,43720.99995613098,Thu Dec 12 2024 17:06:05 GMT-0600 (Central Standard Time),146231.09999999963,A,floorenter,I,enter,121,2,4448.0999999996275,141783.0,8006,WL,A,7.0
1,23.909000158309937,learn,36090.99984169006,Thu Dec 12 2024 17:06:05 GMT-0600 (Central Standard Time),153861.7999999998,A,b,I,b,7611,2,7630.200000000186,146231.59999999963,8006,WL,A,8.0
1,23.97699999809265,learn,36023.00000190735,Thu Dec 12 2024 17:06:05 GMT-0600 (Central Standard Time),153929.09999999963,A,bo,I,o,45,2,7697.5,146231.59999999963,8006,WL,A,8.0
1,24.12600016593933,learn,35873.99983406067,Thu Dec 12 2024 17:06:05 GMT-0600 (Central Standard Time),154078.7000000002,A,boo,I,o,130,2,7847.100000000559,146231.59999999963,8006,WL,A,8.0
1,24.2260000705719,learn,35773.9999294281,Thu Dec 12 2024 17:06:05 GMT-0600 (Central Standard Time),154178.59999999963,A,book,I,k,78,2,7947.0,146231.59999999963,8006,WL,A,8.0
1,24.4760000705719,learn,35523.9999294281,Thu Dec 12 2024 17:06:05 GMT-0600 (Central Standard Time),154428.5,A,bookenter,I,enter,233,2,8196.900000000373,146231.59999999963,8006,WL,A,8.0
1,25.9760000705719,learn,34023.9999294281,Thu Dec 12 2024 17:06:05 GMT-0600 (Central Standard Time),155928.2999999998,A,f,I,f,1486,2,1499.4000000003725,154428.89999999944,8006,WL,A,9.0
1,26.026000022888184,learn,33973.99997711182,Thu Dec 12 2024 17:06:05 GMT-0600 (Central Standard Time),155978.2000000002,A,fl,I,l,35,2,1549.300000000745,154428.89999999944,8006,WL,A,9.0
1,26.176000118255615,learn,33823.999881744385,Thu Dec 12 2024 17:06:05 GMT-0600 (Central Standard Time),156128.39999999944,A,flo,I,o,138,2,1699.5,154428.89999999944,8006,WL,A,9.0
1,26.259000062942505,learn,33740.999937057495,Thu Dec 12 2024 17:06:05 GMT-0600 (Central Standard Time),156211.39999999944,A,flow,I,w,67,2,1782.5,154428.89999999944,8006,WL,A,9.0
1,26.325999975204468,learn,33674.00002479553,Thu Dec 12 2024 17:06:05 GMT-0600 (Central Standard Time),156278.2000000002,A,flowe,I,e,57,2,1849.300000000745,154428.89999999944,8006,WL,A,9.0
1,26.359000205993652,learn,33640.99979400635,Thu Dec 12 2024 17:06:05 GMT-0600 (Central Standard Time),156311.39999999944,A,flower,I,r,14,2,1882.5,154428.89999999944,8006,WL,A,9.0
1,26.54200005531311,learn,33457.99994468689,Thu Dec 12 2024 17:06:05 GMT-0600 (Central Standard Time),156494.39999999944,A,flowerenter,I,enter,172,2,2065.5,154428.89999999944,8006,WL,A,9.0
1,33.307000160217285,learn,26692.999839782715,Thu Dec 12 2024 17:06:05 GMT-0600 (Central Standard Time),163259.2999999998,A,g,I,g,6749,2,6764.5,156494.7999999998,8006,WL,A,10.0
1,33.40700006484985,learn,26592.999935150146,Thu Dec 12 2024 17:06:05 GMT-0600 (Central Standard Time),163359.39999999944,A,go,I,o,78,2,6864.5999999996275,156494.7999999998,8006,WL,A,10.0
1,33.540000200271606,learn,26459.999799728394,Thu Dec 12 2024 17:06:05 GMT-0600 (Central Standard Time),163492.39999999944,A,gol,I,l,117,2,6997.5999999996275,156494.7999999998,8006,WL,A,10.0
1,33.623000144958496,learn,26376.999855041504,Thu Dec 12 2024 17:06:05 GMT-0600 (Central Standard Time),163575.89999999944,A,gold,I,d,63,2,7081.0999999996275,156494.7999999998,8006,WL,A,10.0
1,33.790000200271606,learn,26209.999799728394,Thu Dec 12 2024 17:06:05 GMT-0600 (Central Standard Time),163742.39999999944,A,goldenter,I,enter,157,2,7247.5999999996275,156494.7999999998,8006,WL,A,10.0
1,42.937000036239624,learn,17062.999963760376,Thu Dec 12 2024 17:06:05 GMT-0600 (Central Standard Time),172889.39999999944,A,l,I,l,9125,2,9146.599999999627,163742.7999999998,8006,WL,A,11.0
1,43.12000012397766,learn,16879.99987602234,Thu Dec 12 2024 17:06:05 GMT-0600 (Central Standard Time),173072.7999999998,A,lo,I,o,169,2,9330.0,163742.7999999998,8006,WL,A,11.0
1,43.22000002861023,learn,16779.99997138977,Thu Dec 12 2024 17:06:05 GMT-0600 (Central Standard Time),173172.7000000002,A,loc,I,c,83,2,9429.900000000373,163742.7999999998,8006,WL,A,11.0
1,43.354000091552734,learn,16645.999908447266,Thu Dec 12 2024 17:06:05 GMT-0600 (Central Standard Time),173306.2000000002,A,lock,I,k,111,2,9563.400000000373,163742.7999999998,8006,WL,A,11.0
1,43.420000076293945,learn,16579.999923706055,Thu Dec 12 2024 17:06:05 GMT-0600 (Central Standard Time),173372.7999999998,A,locke,I,e,48,2,9630.0,163742.7999999998,8006,WL,A,11.0
1,43.519999980926514,learn,16480.000019073486,Thu Dec 12 2024 17:06:05 GMT-0600 (Central Standard Time),173472.7999999998,A,locket,I,t,86,2,9730.0,163742.7999999998,8006,WL,A,11.0
1,43.63700008392334,learn,16362.99991607666,Thu Dec 12 2024 17:06:05 GMT-0600 (Central Standard Time),173589.39999999944,A,locketenter,I,enter,107,2,9846.599999999627,163742.7999999998,8006,WL,A,11.0
1,44.730000019073486,learn,15269.999980926514,Thu Dec 12 2024 17:06:05 GMT-0600 (Central Standard Time),174683.09999999963,A,o,I,o,1088,2,1093.0999999996275,173590.0,8006,WL,A,12.0
1,44.878000020980835,learn,15121.999979019165,Thu Dec 12 2024 17:06:05 GMT-0600 (Central Standard Time),174830.5,A,ol,I,l,139,2,1240.5,173590.0,8006,WL,A,12.0
1,44.93600010871887,learn,15063.999891281128,Thu Dec 12 2024 17:06:05 GMT-0600 (Central Standard Time),174888.59999999963,A,old,I,d,34,2,1298.5999999996275,173590.0,8006,WL,A,12.0
1,45.086000204086304,learn,14913.999795913696,Thu Dec 12 2024 17:06:05 GMT-0600 (Central Standard Time),175038.89999999944,A,oldenter,I,enter,135,2,1448.8999999994412,173590.0,8006,WL,A,12.0
1,46.10300016403198,learn,13896.999835968018,Thu Dec 12 2024 17:06:05 GMT-0600 (Central Standard Time),176055.2999999998,A,g,I,g,997,2,1016.0999999996275,175039.2000000002,8006,WL,A,13.0
1,46.18600010871887,learn,13813.999891281128,Thu Dec 12 2024 17:06:05 GMT-0600 (Central Standard Time),176138.59999999963,A,go,I,o,61,2,1099.3999999994412,175039.2000000002,8006,WL,A,13.0
1,46.586000204086304,learn,13413.999795913696,Thu Dec 12 2024 17:06:05 GMT-0600 (Central Standard Time),176538.7000000002,A,gol,I,l,377,2,1499.5,175039.2000000002,8006,WL,A,13.0
1,46.7020001411438,learn,13297.999858856201,Thu Dec 12 2024 17:06:05 GMT-0600 (Central Standard Time),176655.09999999963,A,gold,I,d,104,2,1615.8999999994412,175039.2000000002,8006,WL,A,13.0
1,46.86900019645691,learn,13130.99980354309,Thu Dec 12 2024 17:06:05 GMT-0600 (Central Standard Time),176821.89999999944,A,goldenter,I,enter,156,2,1782.699999999255,175039.2000000002,8006,WL,A,13.0
1,56.032999992370605,learn,3967.0000076293945,Thu Dec 12 2024 17:06:05 GMT-0600 (Central Standard Time),185985.7000000002,A,b,I,b,9141,2,9163.5,176822.2000000002,8006,WL,A,14.0
1,56.46600008010864,learn,3533.9999198913574,Thu Dec 12 2024 17:06:05 GMT-0600 (Central Standard Time),186418.59999999963,A,bo,I,o,417,2,9596.399999999441,176822.2000000002,8006,WL,A,14.0
1,56.64900016784668,learn,3350.9998321533203,Thu Dec 12 2024 17:06:05 GMT-0600 (Central Standard Time),186602.0,A,boo,I,o,161,2,9779.799999999814,176822.2000000002,8006,WL,A,14.0
1,56.71600008010864,learn,3283.9999198913574,Thu Dec 12 2024 17:06:05 GMT-0600 (Central Standard Time),186668.59999999963,A,book,I,k,49,2,9846.399999999441,176822.2000000002,8006,WL,A,14.0
1,56.91600012779236,learn,3083.9998722076416,Thu Dec 12 2024 17:06:05 GMT-0600 (Central Standard Time),186868.5,A,bookenter,I,enter,183,2,10046.299999999814,176822.2000000002,8006,WL,A,14.0
1,60.015000104904175,learn,-15.000104904174805,Thu Dec 12 2024 17:06:05 GMT-0600 (Central Standard Time),189967.59999999963,A,None,I,None,3092,2,3098.7000000001863,186868.89999999944,8006,WL,A,15.0
2,3.3319997787475586,learn,56668.00022125244,Thu Dec 12 2024 17:06:05 GMT-0600 (Central Standard Time),259779.09999999963,A,b,I,b,3310,2,3332.0999999996275,256447.0,8006,WL,A,1.0
2,3.4149999618530273,learn,56585.00003814697,Thu Dec 12 2024 17:06:05 GMT-0600 (Central Standard Time),259862.2999999998,A,bu,I,u,70,2,3415.2999999998137,256447.0,8006,WL,A,1.0
2,3.9149999618530273,learn,56085.00003814697,Thu Dec 12 2024 17:06:05 GMT-0600 (Central Standard Time),260362.39999999944,A,but,I,t,477,2,3915.399999999441,256447.0,8006,WL,A,1.0
2,4.048999786376953,learn,55951.00021362305,Thu Dec 12 2024 17:06:05 GMT-0600 (Central Standard Time),260495.59999999963,A,butt,I,t,113,2,4048.5999999996275,256447.0,8006,WL,A,1.0
2,4.115000009536743,learn,55884.99999046326,Thu Dec 12 2024 17:06:05 GMT-0600 (Central Standard Time),260562.2000000002,A,butto,I,o,44,2,4115.200000000186,256447.0,8006,WL,A,1.0
2,4.198999881744385,learn,55801.000118255615,Thu Dec 12 2024 17:06:05 GMT-0600 (Central Standard Time),260645.5,A,button,I,n,66,2,4198.5,256447.0,8006,WL,A,1.0
2,4.615000009536743,learn,55384.99999046326,Thu Dec 12 2024 17:06:05 GMT-0600 (Central Standard Time),261062.0,A,buttonenter,I,enter,406,2,4615.0,256447.0,8006,WL,A,1.0
2,5.2149999141693115,learn,54785.00008583069,Thu Dec 12 2024 17:06:05 GMT-0600 (Central Standard Time),261661.7000000002,A,k,I,k,581,2,599.2000000001863,261062.5,8006,WL,A,2.0
2,5.31499981880188,learn,54685.00018119812,Thu Dec 12 2024 17:06:05 GMT-0600 (Central Standard Time),261762.09999999963,A,ke,I,e,86,2,699.5999999996275,261062.5,8006,WL,A,2.0
2,5.447999954223633,learn,54552.00004577637,Thu Dec 12 2024 17:06:05 GMT-0600 (Central Standard Time),261895.2000000002,A,key,I,y,121,2,832.7000000001863,261062.5,8006,WL,A,2.0
2,5.648000001907349,learn,54351.99999809265,Thu Dec 12 2024 17:06:05 GMT-0600 (Central Standard Time),262095.09999999963,A,keyenter,I,enter,188,2,1032.5999999996275,261062.5,8006,WL,A,2.0
2,6.065999984741211,learn,53934.00001525879,Thu Dec 12 2024 17:06:05 GMT-0600 (Central Standard Time),262512.7000000002,A,l,I,l,405,2,417.30000000074506,262095.39999999944,8006,WL,A,3.0
2,6.230999946594238,learn,53769.00005340576,Thu Dec 12 2024 17:06:05 GMT-0600 (Central Standard Time),262678.2999999998,A,lo,I,o,146,2,582.9000000003725,262095.39999999944,8006,WL,A,3.0
2,6.347999811172485,learn,53652.000188827515,Thu Dec 12 2024 17:06:05 GMT-0600 (Central Standard Time),262794.7000000002,A,log,I,g,109,2,699.3000000007451,262095.39999999944,8006,WL,A,3.0
2,6.56499981880188,learn,53435.00018119812,Thu Dec 12 2024 17:06:05 GMT-0600 (Central Standard Time),263011.39999999944,A,logenter,I,enter,201,2,916.0,262095.39999999944,8006,WL,A,3.0
2,7.863999843597412,learn,52136.00015640259,Thu Dec 12 2024 17:06:05 GMT-0600 (Central Standard Time),264310.89999999944,A,g,I,g,1279,2,1299.0999999996275,263011.7999999998,8006,WL,A,4.0
2,7.930999994277954,learn,52069.000005722046,Thu Dec 12 2024 17:06:05 GMT-0600 (Central Standard Time),264377.39999999944,A,go,I,o,52,2,1365.5999999996275,263011.7999999998,8006,WL,A,4.0
2,8.063999891281128,learn,51936.00010871887,Thu Dec 12 2024 17:06:05 GMT-0600 (Central Standard Time),264510.89999999944,A,gol,I,l,122,2,1499.0999999996275,263011.7999999998,8006,WL,A,4.0
2,8.13099980354309,learn,51869.00019645691,Thu Dec 12 2024 17:06:05 GMT-0600 (Central Standard Time),264577.39999999944,A,gold,I,d,52,2,1565.5999999996275,263011.7999999998,8006,WL,A,4.0
2,8.363999843597412,learn,51636.00015640259,Thu Dec 12 2024 17:06:05 GMT-0600 (Central Standard Time),264811.0999999996,A,goldenter,I,enter,218,2,1799.2999999998137,263011.7999999998,8006,WL,A,4.0
2,9.27999997138977,learn,50720.00002861023,Thu Dec 12 2024 17:06:05 GMT-0600 (Central Standard Time),265727.2999999998,A,h,I,h,904,2,915.9000000003725,264811.39999999944,8006,WL,A,5.0
2,9.379999876022339,learn,50620.00012397766,Thu Dec 12 2024 17:06:05 GMT-0600 (Central Standard Time),265827.2000000002,A,ha,I,a,84,2,1015.8000000007451,264811.39999999944,8006,WL,A,5.0
2,9.446999788284302,learn,50553.0002117157,Thu Dec 12 2024 17:06:05 GMT-0600 (Central Standard Time),265893.89999999944,A,har,I,r,56,2,1082.5,264811.39999999944,8006,WL,A,5.0
2,9.946999788284302,learn,50053.0002117157,Thu Dec 12 2024 17:06:05 GMT-0600 (Central Standard Time),266393.7000000002,A,harp,I,p,478,2,1582.300000000745,264811.39999999944,8006,WL,A,5.0
2,10.579999923706055,learn,49420.000076293945,Thu Dec 12 2024 17:06:05 GMT-0600 (Central Standard Time),267027.0,A,harpenter,I,enter,626,2,2215.600000000559,264811.39999999944,8006,WL,A,5.0
2,11.429999828338623,learn,48570.00017166138,Thu Dec 12 2024 17:06:05 GMT-0600 (Central Standard Time),267876.5999999996,A,c,I,c,832,2,849.3999999994412,267027.2000000002,8006,WL,A,6.0
2,11.52999997138977,learn,48470.00002861023,Thu Dec 12 2024 17:06:05 GMT-0600 (Central Standard Time),267976.5,A,ch,I,h,79,2,949.2999999998137,267027.2000000002,8006,WL,A,6.0
2,11.629999876022339,learn,48370.00012397766,Thu Dec 12 2024 17:06:05 GMT-0600 (Central Standard Time),268076.5999999996,A,chi,I,i,84,2,1049.3999999994412,267027.2000000002,8006,WL,A,6.0
2,11.77999997138977,learn,48220.00002861023,Thu Dec 12 2024 17:06:05 GMT-0600 (Central Standard Time),268226.5999999996,A,chim,I,m,127,2,1199.3999999994412,267027.2000000002,8006,WL,A,6.0
2,12.062999963760376,learn,47937.000036239624,Thu Dec 12 2024 17:06:05 GMT-0600 (Central Standard Time),268509.5999999996,A,chime,I,e,265,2,1482.3999999994412,267027.2000000002,8006,WL,A,6.0
2,12.63099980354309,learn,47369.00019645691,Thu Dec 12 2024 17:06:05 GMT-0600 (Central Standard Time),269078.0,A,chim,I,backspace,552,2,2050.7999999998137,267027.2000000002,8006,WL,A,6.0
2,12.813999891281128,learn,47186.00010871887,Thu Dec 12 2024 17:06:05 GMT-0600 (Central Standard Time),269260.5999999996,A,chimn,I,n,173,2,2233.399999999441,267027.2000000002,8006,WL,A,6.0
2,12.962999820709229,learn,47037.00017929077,Thu Dec 12 2024 17:06:05 GMT-0600 (Central Standard Time),269409.7999999998,A,chimne,I,e,127,2,2382.5999999996275,267027.2000000002,8006,WL,A,6.0
2,13.095999956130981,learn,46904.00004386902,Thu Dec 12 2024 17:06:05 GMT-0600 (Central Standard Time),269542.5999999996,A,chimney,I,y,114,2,2515.399999999441,267027.2000000002,8006,WL,A,6.0
2,14.01199984550476,learn,45988.00015449524,Thu Dec 12 2024 17:06:05 GMT-0600 (Central Standard Time),270458.89999999944,A,chimneyenter,I,enter,908,2,3431.699999999255,267027.2000000002,8006,WL,A,6.0
2,15.59499979019165,learn,44405.00020980835,Thu Dec 12 2024 17:06:05 GMT-0600 (Central Standard Time),272041.89999999944,A,s,I,s,1569,2,1582.699999999255,270459.2000000002,8006,WL,A,7.0
2,15.661999940872192,learn,44338.00005912781,Thu Dec 12 2024 17:06:05 GMT-0600 (Central Standard Time),272108.5,A,sa,I,a,57,2,1649.2999999998137,270459.2000000002,8006,WL,A,7.0
2,15.76199984550476,learn,44238.00015449524,Thu Dec 12 2024 17:06:05 GMT-0600 (Central Standard Time),272208.39999999944,A,sal,I,l,80,2,1749.199999999255,270459.2000000002,8006,WL,A,7.0
2,15.92799997329712,learn,44072.00002670288,Thu Dec 12 2024 17:06:05 GMT-0600 (Central Standard Time),272375.2000000002,A,salt,I,t,147,2,1916.0,270459.2000000002,8006,WL,A,7.0
2,16.127999782562256,learn,43872.000217437744,Thu Dec 12 2024 17:06:05 GMT-0600 (Central Standard Time),272575.0,A,saltenter,I,enter,189,2,2115.7999999998137,270459.2000000002,8006,WL,A,7.0
2,17.143999814987183,learn,42856.00018501282,Thu Dec 12 2024 17:06:05 GMT-0600 (Central Standard Time),273591.2999999998,A,a,I,a,996,2,1016.0,272575.2999999998,8006,WL,A,8.0
2,17.26099991798401,learn,42739.00008201599,Thu Dec 12 2024 17:06:05 GMT-0600 (Central Standard Time),273708.2000000002,A,ap,I,p,99,2,1132.9000000003725,272575.2999999998,8006,WL,A,8.0
2,17.41100001335144,learn,42588.99998664856,Thu Dec 12 2024 17:06:05 GMT-0600 (Central Standard Time),273858.0,A,app,I,p,135,2,1282.7000000001863,272575.2999999998,8006,WL,A,8.0
2,17.560999870300293,learn,42439.00012969971,Thu Dec 12 2024 17:06:05 GMT-0600 (Central Standard Time),274008.0,A,appl,I,l,137,2,1432.7000000001863,272575.2999999998,8006,WL,A,8.0
2,17.627999782562256,learn,42372.000217437744,Thu Dec 12 2024 17:06:05 GMT-0600 (Central Standard Time),274074.5999999996,A,apple,I,e,59,2,1499.2999999998137,272575.2999999998,8006,WL,A,8.0
2,17.877999782562256,learn,42122.000217437744,Thu Dec 12 2024 17:06:05 GMT-0600 (Central Standard Time),274324.39999999944,A,appleenter,I,enter,233,2,1749.0999999996275,272575.2999999998,8006,WL,A,8.0
2,18.91100001335144,learn,41088.99998664856,Thu Dec 12 2024 17:06:05 GMT-0600 (Central Standard Time),275357.7000000002,A,f,I,f,1024,2,1033.0,274324.7000000002,8006,WL,A,9.0
2,19.027999877929688,learn,40972.00012207031,Thu Dec 12 2024 17:06:05 GMT-0600 (Central Standard Time),275474.39999999944,A,fi,I,i,94,2,1149.699999999255,274324.7000000002,8006,WL,A,9.0
2,19.05999994277954,learn,40940.00005722046,Thu Dec 12 2024 17:06:05 GMT-0600 (Central Standard Time),275507.2999999998,A,fin,I,n,17,2,1182.5999999996275,274324.7000000002,8006,WL,A,9.0
2,19.22699999809265,learn,40773.00000190735,Thu Dec 12 2024 17:06:05 GMT-0600 (Central Standard Time),275674.2999999998,A,fing,I,g,153,2,1349.5999999996275,274324.7000000002,8006,WL,A,9.0
2,19.359999895095825,learn,40640.000104904175,Thu Dec 12 2024 17:06:05 GMT-0600 (Central Standard Time),275807.2999999998,A,finge,I,e,113,2,1482.5999999996275,274324.7000000002,8006,WL,A,9.0
2,19.40999984741211,learn,40590.00015258789,Thu Dec 12 2024 17:06:05 GMT-0600 (Central Standard Time),275857.39999999944,A,finger,I,r,35,2,1532.699999999255,274324.7000000002,8006,WL,A,9.0
2,19.526999950408936,learn,40473.000049591064,Thu Dec 12 2024 17:06:05 GMT-0600 (Central Standard Time),275974.2000000002,A,fingerenter,I,enter,98,2,1649.5,274324.7000000002,8006,WL,A,9.0
2,21.442999839782715,learn,38557.000160217285,Thu Dec 12 2024 17:06:05 GMT-0600 (Central Standard Time),277890.0999999996,A,m,I,m,1901,2,1915.5,275974.5999999996,8006,WL,A,10.0
2,21.526999950408936,learn,38473.000049591064,Thu Dec 12 2024 17:06:05 GMT-0600 (Central Standard Time),277973.5,A,me,I,e,65,2,1998.9000000003725,275974.5999999996,8006,WL,A,10.0
2,21.609999895095825,learn,38390.000104904175,Thu Dec 12 2024 17:06:05 GMT-0600 (Central Standard Time),278056.7999999998,A,mea,I,a,71,2,2082.2000000001863,275974.5999999996,8006,WL,A,10.0
2,21.792999982833862,learn,38207.00001716614,Thu Dec 12 2024 17:06:05 GMT-0600 (Central Standard Time),278240.0999999996,A,mead,I,d,170,2,2265.5,275974.5999999996,8006,WL,A,10.0
2,21.942999839782715,learn,38057.000160217285,Thu Dec 12 2024 17:06:05 GMT-0600 (Central Standard Time),278389.7999999998,A,meado,I,o,132,2,2415.2000000001863,275974.5999999996,8006,WL,A,10.0
2,22.325999975204468,learn,37674.00002479553,Thu Dec 12 2024 17:06:05 GMT-0600 (Central Standard Time),278773.2000000002,A,meadow,I,w,373,2,2798.600000000559,275974.5999999996,8006,WL,A,10.0
2,22.55999994277954,learn,37440.00005722046,Thu Dec 12 2024 17:06:05 GMT-0600 (Central Standard Time),279006.5,A,meadowenter,I,enter,223,2,3031.9000000003725,275974.5999999996,8006,WL,A,10.0
2,24.625999927520752,learn,35374.00007247925,Thu Dec 12 2024 17:06:05 GMT-0600 (Central Standard Time),281072.39999999944,A,r,I,r,2045,2,2065.5999999996275,279006.7999999998,8006,WL,A,11.0
2,24.72499990463257,learn,35275.00009536743,Thu Dec 12 2024 17:06:05 GMT-0600 (Central Standard Time),281172.2999999998,A,ru,I,u,91,2,2165.5,279006.7999999998,8006,WL,A,11.0
2,24.89199995994568,learn,35108.00004005432,Thu Dec 12 2024 17:06:05 GMT-0600 (Central Standard Time),281338.89999999944,A,rug,I,g,151,2,2332.0999999996275,279006.7999999998,8006,WL,A,11.0
2,25.074999809265137,learn,34925.00019073486,Thu Dec 12 2024 17:06:05 GMT-0600 (Central Standard Time),281522.2999999998,A,rugenter,I,enter,170,2,2515.5,279006.7999999998,8006,WL,A,11.0
2,26.092000007629395,learn,33907.999992370605,Thu Dec 12 2024 17:06:05 GMT-0600 (Central Standard Time),282538.7999999998,A,b,I,b,994,2,1016.0999999996275,281522.7000000002,8006,WL,A,12.0
2,26.14199995994568,learn,33858.00004005432,Thu Dec 12 2024 17:06:05 GMT-0600 (Central Standard Time),282588.5999999996,A,bo,I,o,41,2,1065.8999999994412,281522.7000000002,8006,WL,A,12.0
2,26.29199981689453,learn,33708.00018310547,Thu Dec 12 2024 17:06:05 GMT-0600 (Central Standard Time),282738.5,A,boo,I,o,135,2,1215.7999999998137,281522.7000000002,8006,WL,A,12.0
2,26.375,learn,33625.0,Thu Dec 12 2024 17:06:05 GMT-0600 (Central Standard Time),282821.7000000002,A,book,I,k,73,2,1299.0,281522.7000000002,8006,WL,A,12.0
2,26.625,learn,33375.0,Thu Dec 12 2024 17:06:05 GMT-0600 (Central Standard Time),283071.7999999998,A,bookenter,I,enter,229,2,1549.0999999996275,281522.7000000002,8006,WL,A,12.0
2,28.5239999294281,learn,31476.0000705719,Thu Dec 12 2024 17:06:05 GMT-0600 (Central Standard Time),284971.0,A,t,I,t,1891,2,1898.9000000003725,283072.0999999996,8006,WL,A,13.0
2,28.723999977111816,learn,31276.000022888184,Thu Dec 12 2024 17:06:05 GMT-0600 (Central Standard Time),285171.39999999944,A,tr,I,r,184,2,2099.2999999998137,283072.0999999996,8006,WL,A,13.0
2,28.7739999294281,learn,31226.0000705719,Thu Dec 12 2024 17:06:05 GMT-0600 (Central Standard Time),285220.89999999944,A,tra,I,a,40,2,2148.7999999998137,283072.0999999996,8006,WL,A,13.0
2,28.857999801635742,learn,31142.000198364258,Thu Dec 12 2024 17:06:05 GMT-0600 (Central Standard Time),285304.5999999996,A,trai,I,i,72,2,2232.5,283072.0999999996,8006,WL,A,13.0
2,28.923999786376953,learn,31076.000213623047,Thu Dec 12 2024 17:06:05 GMT-0600 (Central Standard Time),285371.0,A,train,I,n,58,2,2298.9000000003725,283072.0999999996,8006,WL,A,13.0
2,29.157999992370605,learn,30842.000007629395,Thu Dec 12 2024 17:06:05 GMT-0600 (Central Standard Time),285604.5,A,trainenter,I,enter,224,2,2532.4000000003725,283072.0999999996,8006,WL,A,13.0
2,40.98699998855591,learn,19013.00001144409,Thu Dec 12 2024 17:06:05 GMT-0600 (Central Standard Time),297434.0,A,enter,I,enter,11815,2,11829.200000000186,285604.7999999998,8006,WL,A,14.0
2,43.40299987792969,learn,16597.000122070312,Thu Dec 12 2024 17:06:05 GMT-0600 (Central Standard Time),299850.0999999996,A,enter,I,enter,2393,2,2415.5999999996275,297434.5,8006,WL,A,15.0
3,1.816999912261963,learn,58183.00008773804,Thu Dec 12 2024 17:06:05 GMT-0600 (Central Standard Time),368461.7999999998,A,l,I,l,1806,2,1816.0,366645.7999999998,8006,WL,A,1.0
3,2.0,learn,58000.0,Thu Dec 12 2024 17:06:05 GMT-0600 (Central Standard Time),368645.0999999996,A,lo,I,o,173,2,1999.2999999998137,366645.7999999998,8006,WL,A,1.0
3,2.0999999046325684,learn,57900.00009536743,Thu Dec 12 2024 17:06:05 GMT-0600 (Central Standard Time),368744.89999999944,A,log,I,g,78,2,2099.0999999996275,366645.7999999998,8006,WL,A,1.0
3,2.365999937057495,learn,57634.000062942505,Thu Dec 12 2024 17:06:05 GMT-0600 (Central Standard Time),369011.5,A,logenter,I,enter,251,2,2365.7000000001863,366645.7999999998,8006,WL,A,1.0
3,2.998999834060669,learn,57001.00016593933,Thu Dec 12 2024 17:06:05 GMT-0600 (Central Standard Time),369644.5999999996,A,b,I,b,616,2,632.7000000001863,369011.89999999944,8006,WL,A,2.0
3,3.0989999771118164,learn,56901.00002288818,Thu Dec 12 2024 17:06:05 GMT-0600 (Central Standard Time),369744.5999999996,A,bu,I,u,78,2,732.7000000001863,369011.89999999944,8006,WL,A,2.0
3,3.299999952316284,learn,56700.000047683716,Thu Dec 12 2024 17:06:05 GMT-0600 (Central Standard Time),369944.89999999944,A,but,I,t,187,2,933.0,369011.89999999944,8006,WL,A,2.0
3,3.4489998817443848,learn,56551.000118255615,Thu Dec 12 2024 17:06:05 GMT-0600 (Central Standard Time),370094.5,A,butt,I,t,138,2,1082.6000000005588,369011.89999999944,8006,WL,A,2.0
3,3.7330000400543213,learn,56266.99995994568,Thu Dec 12 2024 17:06:05 GMT-0600 (Central Standard Time),370377.7999999998,A,butto,I,o,268,2,1365.9000000003725,369011.89999999944,8006,WL,A,2.0
3,3.815999984741211,learn,56184.00001525879,Thu Dec 12 2024 17:06:05 GMT-0600 (Central Standard Time),370461.39999999944,A,button,I,n,65,2,1449.5,369011.89999999944,8006,WL,A,2.0
3,4.365999937057495,learn,55634.000062942505,Thu Dec 12 2024 17:06:05 GMT-0600 (Central Standard Time),371011.0,A,buttonenter,I,enter,527,2,1999.1000000005588,369011.89999999944,8006,WL,A,2.0
3,6.582000017166138,learn,53417.99998283386,Thu Dec 12 2024 17:06:05 GMT-0600 (Central Standard Time),373226.89999999944,A,k,I,k,2208,2,2215.5999999996275,371011.2999999998,8006,WL,A,3.0
3,6.73199987411499,learn,53268.00012588501,Thu Dec 12 2024 17:06:05 GMT-0600 (Central Standard Time),373376.89999999944,A,ke,I,e,136,2,2365.5999999996275,371011.2999999998,8006,WL,A,3.0
3,6.881999969482422,learn,53118.00003051758,Thu Dec 12 2024 17:06:05 GMT-0600 (Central Standard Time),373526.7999999998,A,key,I,y,139,2,2515.5,371011.2999999998,8006,WL,A,3.0
3,7.580999851226807,learn,52419.00014877319,Thu Dec 12 2024 17:06:05 GMT-0600 (Central Standard Time),374226.5,A,keyenter,I,enter,684,2,3215.2000000001863,371011.2999999998,8006,WL,A,3.0
3,7.88100004196167,learn,52118.99995803833,Thu Dec 12 2024 17:06:05 GMT-0600 (Central Standard Time),374526.7000000002,A,r,I,r,290,2,299.90000000037253,374226.7999999998,8006,WL,A,4.0
3,7.9649999141693115,learn,52035.00008583069,Thu Dec 12 2024 17:06:05 GMT-0600 (Central Standard Time),374610.2000000002,A,ra,I,a,61,2,383.40000000037253,374226.7999999998,8006,WL,A,4.0
3,8.115000009536743,learn,51884.99999046326,Thu Dec 12 2024 17:06:05 GMT-0600 (Central Standard Time),374759.7999999998,A,rat,I,t,129,2,533.0,374226.7999999998,8006,WL,A,4.0
3,8.263999938964844,learn,51736.000061035156,Thu Dec 12 2024 17:06:05 GMT-0600 (Central Standard Time),374909.5999999996,A,ratt,I,t,132,2,682.7999999998137,374226.7999999998,8006,WL,A,4.0
3,8.363999843597412,learn,51636.00015640259,Thu Dec 12 2024 17:06:05 GMT-0600 (Central Standard Time),375009.7000000002,A,rattl,I,l,79,2,782.9000000003725,374226.7999999998,8006,WL,A,4.0
3,8.414000034332275,learn,51585.999965667725,Thu Dec 12 2024 17:06:05 GMT-0600 (Central Standard Time),375059.5999999996,A,rattle,I,e,33,2,832.7999999998137,374226.7999999998,8006,WL,A,4.0
3,8.664000034332275,learn,51335.999965667725,Thu Dec 12 2024 17:06:05 GMT-0600 (Central Standard Time),375309.7000000002,A,rattleenter,I,enter,233,2,1082.9000000003725,374226.7999999998,8006,WL,A,4.0
3,9.04699993133545,learn,50953.00006866455,Thu Dec 12 2024 17:06:05 GMT-0600 (Central Standard Time),375692.7000000002,A,g,I,g,367,2,382.70000000018626,375310.0,8006,WL,A,5.0
3,9.113999843597412,learn,50886.00015640259,Thu Dec 12 2024 17:06:05 GMT-0600 (Central Standard Time),375759.39999999944,A,go,I,o,54,2,449.3999999994412,375310.0,8006,WL,A,5.0
3,9.263999938964844,learn,50736.000061035156,Thu Dec 12 2024 17:06:05 GMT-0600 (Central Standard Time),375909.39999999944,A,gol,I,l,140,2,599.3999999994412,375310.0,8006,WL,A,5.0
3,9.346999883651733,learn,50653.00011634827,Thu Dec 12 2024 17:06:05 GMT-0600 (Central Standard Time),375992.7000000002,A,gold,I,d,71,2,682.7000000001863,375310.0,8006,WL,A,5.0
3,9.513999938964844,learn,50486.000061035156,Thu Dec 12 2024 17:06:05 GMT-0600 (Central Standard Time),376159.39999999944,A,goldenter,I,enter,147,2,849.3999999994412,375310.0,8006,WL,A,5.0
3,10.646999835968018,learn,49353.00016403198,Thu Dec 12 2024 17:06:05 GMT-0600 (Central Standard Time),377292.2999999998,A,m,I,m,1124,2,1132.5999999996275,376159.7000000002,8006,WL,A,6.0
3,10.71399998664856,learn,49286.00001335144,Thu Dec 12 2024 17:06:05 GMT-0600 (Central Standard Time),377358.89999999944,A,me,I,e,56,2,1199.199999999255,376159.7000000002,8006,WL,A,6.0
3,10.79699993133545,learn,49203.00006866455,Thu Dec 12 2024 17:06:05 GMT-0600 (Central Standard Time),377442.39999999944,A,mea,I,a,62,2,1282.699999999255,376159.7000000002,8006,WL,A,6.0
3,10.96399998664856,learn,49036.00001335144,Thu Dec 12 2024 17:06:05 GMT-0600 (Central Standard Time),377608.7999999998,A,mead,I,d,152,2,1449.0999999996275,376159.7000000002,8006,WL,A,6.0
3,11.096999883651733,learn,48903.00011634827,Thu Dec 12 2024 17:06:05 GMT-0600 (Central Standard Time),377742.0999999996,A,meado,I,o,124,2,1582.3999999994412,376159.7000000002,8006,WL,A,6.0
3,11.346999883651733,learn,48653.00011634827,Thu Dec 12 2024 17:06:05 GMT-0600 (Central Standard Time),377992.0999999996,A,meadow,I,w,229,2,1832.3999999994412,376159.7000000002,8006,WL,A,6.0
3,12.36299991607666,learn,47637.00008392334,Thu Dec 12 2024 17:06:05 GMT-0600 (Central Standard Time),379008.39999999944,A,meadowenter,I,enter,995,2,2848.699999999255,376159.7000000002,8006,WL,A,6.0
3,13.128999948501587,learn,46871.00005149841,Thu Dec 12 2024 17:06:05 GMT-0600 (Central Standard Time),379774.7999999998,A,r,I,r,746,2,766.0999999996275,379008.7000000002,8006,WL,A,7.0
3,13.230000019073486,learn,46769.999980926514,Thu Dec 12 2024 17:06:05 GMT-0600 (Central Standard Time),379875.0,A,ru,I,u,78,2,866.2999999998137,379008.7000000002,8006,WL,A,7.0
3,13.713000059127808,learn,46286.99994087219,Thu Dec 12 2024 17:06:05 GMT-0600 (Central Standard Time),380358.0999999996,A,rug,I,g,472,2,1349.3999999994412,379008.7000000002,8006,WL,A,7.0
3,14.029000043869019,learn,45970.99995613098,Thu Dec 12 2024 17:06:05 GMT-0600 (Central Standard Time),380674.5999999996,A,rugenter,I,enter,293,2,1665.8999999994412,379008.7000000002,8006,WL,A,7.0
3,14.961999893188477,learn,45038.00010681152,Thu Dec 12 2024 17:06:05 GMT-0600 (Central Standard Time),381607.7000000002,A,t,I,t,921,2,932.8000000007451,380674.89999999944,8006,WL,A,8.0
3,15.178999900817871,learn,44821.00009918213,Thu Dec 12 2024 17:06:05 GMT-0600 (Central Standard Time),381824.39999999944,A,tr,I,r,195,2,1149.5,380674.89999999944,8006,WL,A,8.0
3,15.228999853134155,learn,44771.000146865845,Thu Dec 12 2024 17:06:05 GMT-0600 (Central Standard Time),381874.0999999996,A,tra,I,a,35,2,1199.2000000001863,380674.89999999944,8006,WL,A,8.0
3,15.312000036239624,learn,44687.999963760376,Thu Dec 12 2024 17:06:05 GMT-0600 (Central Standard Time),381957.2999999998,A,trai,I,i,73,2,1282.4000000003725,380674.89999999944,8006,WL,A,8.0
3,15.395999908447266,learn,44604.000091552734,Thu Dec 12 2024 17:06:05 GMT-0600 (Central Standard Time),382040.7999999998,A,train,I,n,62,2,1365.9000000003725,380674.89999999944,8006,WL,A,8.0
3,15.546000003814697,learn,44453.9999961853,Thu Dec 12 2024 17:06:05 GMT-0600 (Central Standard Time),382190.7999999998,A,trainenter,I,enter,130,2,1515.9000000003725,380674.89999999944,8006,WL,A,8.0
3,16.27900004386902,learn,43720.99995613098,Thu Dec 12 2024 17:06:05 GMT-0600 (Central Standard Time),382923.89999999944,A,b,I,b,716,2,732.6999999992549,382191.2000000002,8006,WL,A,9.0
3,16.361999988555908,learn,43638.00001144409,Thu Dec 12 2024 17:06:05 GMT-0600 (Central Standard Time),383007.39999999944,A,bo,I,o,63,2,816.1999999992549,382191.2000000002,8006,WL,A,9.0
3,16.496000051498413,learn,43503.99994850159,Thu Dec 12 2024 17:06:05 GMT-0600 (Central Standard Time),383141.7000000002,A,boo,I,o,124,2,950.5,382191.2000000002,8006,WL,A,9.0
3,16.562000036239624,learn,43437.999963760376,Thu Dec 12 2024 17:06:05 GMT-0600 (Central Standard Time),383207.39999999944,A,book,I,k,54,2,1016.1999999992549,382191.2000000002,8006,WL,A,9.0
3,16.777999877929688,learn,43222.00012207031,Thu Dec 12 2024 17:06:05 GMT-0600 (Central Standard Time),383423.7999999998,A,bookenter,I,enter,197,2,1232.5999999996275,382191.2000000002,8006,WL,A,9.0
3,17.463000059127808,learn,42536.99994087219,Thu Dec 12 2024 17:06:05 GMT-0600 (Central Standard Time),384108.0999999996,A,f,I,f,669,2,684.0,383424.0999999996,8006,WL,A,10.0
3,17.51199984550476,learn,42488.00015449524,Thu Dec 12 2024 17:06:05 GMT-0600 (Central Standard Time),384156.89999999944,A,fl,I,l,30,2,732.7999999998137,383424.0999999996,8006,WL,A,10.0
3,17.661999940872192,learn,42338.00005912781,Thu Dec 12 2024 17:06:05 GMT-0600 (Central Standard Time),384306.7999999998,A,flo,I,o,133,2,882.7000000001863,383424.0999999996,8006,WL,A,10.0
3,17.710999965667725,learn,42289.000034332275,Thu Dec 12 2024 17:06:05 GMT-0600 (Central Standard Time),384356.5999999996,A,flow,I,w,32,2,932.5,383424.0999999996,8006,WL,A,10.0
3,17.777999877929688,learn,42222.00012207031,Thu Dec 12 2024 17:06:05 GMT-0600 (Central Standard Time),384423.7000000002,A,flowe,I,e,54,2,999.6000000005588,383424.0999999996,8006,WL,A,10.0
3,17.810999870300293,learn,42189.00012969971,Thu Dec 12 2024 17:06:05 GMT-0600 (Central Standard Time),384456.5999999996,A,flower,I,r,21,2,1032.5,383424.0999999996,8006,WL,A,10.0
3,17.994999885559082,learn,42005.00011444092,Thu Dec 12 2024 17:06:05 GMT-0600 (Central Standard Time),384640.0999999996,A,flowerenter,I,enter,163,2,1216.0,383424.0999999996,8006,WL,A,10.0
3,19.060999870300293,learn,40939.00012969971,Thu Dec 12 2024 17:06:05 GMT-0600 (Central Standard Time),385706.39999999944,A,h,I,h,1043,2,1065.8999999994412,384640.5,8006,WL,A,11.0
3,19.0939998626709,learn,40906.0001373291,Thu Dec 12 2024 17:06:05 GMT-0600 (Central Standard Time),385739.39999999944,A,ha,I,a,24,2,1098.8999999994412,384640.5,8006,WL,A,11.0
3,19.194000005722046,learn,40805.999994277954,Thu Dec 12 2024 17:06:05 GMT-0600 (Central Standard Time),385839.5,A,har,I,r,81,2,1199.0,384640.5,8006,WL,A,11.0
3,19.694000005722046,learn,40305.999994277954,Thu Dec 12 2024 17:06:05 GMT-0600 (Central Standard Time),386339.5999999996,A,haro,I,o,482,2,1699.0999999996275,384640.5,8006,WL,A,11.0
3,20.51099991798401,learn,39489.00008201599,Thu Dec 12 2024 17:06:05 GMT-0600 (Central Standard Time),387155.89999999944,A,har,I,backspace,801,2,2515.399999999441,384640.5,8006,WL,A,11.0
3,21.026999950408936,learn,38973.000049591064,Thu Dec 12 2024 17:06:05 GMT-0600 (Central Standard Time),387672.5,A,harp,I,p,504,2,3032.0,384640.5,8006,WL,A,11.0
3,21.22699999809265,learn,38773.00000190735,Thu Dec 12 2024 17:06:05 GMT-0600 (Central Standard Time),387872.39999999944,A,harpenter,I,enter,187,2,3231.899999999441,384640.5,8006,WL,A,11.0
3,21.80999994277954,learn,38190.00005722046,Thu Dec 12 2024 17:06:05 GMT-0600 (Central Standard Time),388455.5999999996,A,c,I,c,564,2,582.8999999994412,387872.7000000002,8006,WL,A,12.0
3,21.89400005340576,learn,38105.99994659424,Thu Dec 12 2024 17:06:05 GMT-0600 (Central Standard Time),388538.7000000002,A,ch,I,h,61,2,666.0,387872.7000000002,8006,WL,A,12.0
3,21.99399995803833,learn,38006.00004196167,Thu Dec 12 2024 17:06:05 GMT-0600 (Central Standard Time),388638.89999999944,A,chi,I,i,81,2,766.1999999992549,387872.7000000002,8006,WL,A,12.0
3,22.14299988746643,learn,37857.00011253357,Thu Dec 12 2024 17:06:05 GMT-0600 (Central Standard Time),388788.5999999996,A,chim,I,m,140,2,915.8999999994412,387872.7000000002,8006,WL,A,12.0
3,22.342999935150146,learn,37657.00006484985,Thu Dec 12 2024 17:06:05 GMT-0600 (Central Standard Time),388988.7000000002,A,chimi,I,i,184,2,1116.0,387872.7000000002,8006,WL,A,12.0
3,22.859999895095825,learn,37140.000104904175,Thu Dec 12 2024 17:06:05 GMT-0600 (Central Standard Time),389505.39999999944,A,chim,I,backspace,495,2,1632.699999999255,387872.7000000002,8006,WL,A,12.0
3,23.042999982833862,learn,36957.00001716614,Thu Dec 12 2024 17:06:05 GMT-0600 (Central Standard Time),389688.5,A,chimn,I,n,162,2,1815.7999999998137,387872.7000000002,8006,WL,A,12.0
3,23.109999895095825,learn,36890.000104904175,Thu Dec 12 2024 17:06:05 GMT-0600 (Central Standard Time),389755.0999999996,A,chimne,I,e,51,2,1882.3999999994412,387872.7000000002,8006,WL,A,12.0
3,23.243000030517578,learn,36756.99996948242,Thu Dec 12 2024 17:06:05 GMT-0600 (Central Standard Time),389888.39999999944,A,chimney,I,y,120,2,2015.699999999255,387872.7000000002,8006,WL,A,12.0
3,24.39299988746643,learn,35607.00011253357,Thu Dec 12 2024 17:06:05 GMT-0600 (Central Standard Time),391038.0999999996,A,chimneyenter,I,enter,1139,2,3165.399999999441,387872.7000000002,8006,WL,A,12.0
3,27.29200005531311,learn,32707.99994468689,Thu Dec 12 2024 17:06:05 GMT-0600 (Central Standard Time),393937.2000000002,A,a,I,a,2877,2,2898.600000000559,391038.5999999996,8006,WL,A,13.0
3,27.39199995994568,learn,32608.00004005432,Thu Dec 12 2024 17:06:05 GMT-0600 (Central Standard Time),394037.2000000002,A,ap,I,p,81,2,2998.600000000559,391038.5999999996,8006,WL,A,13.0
3,27.524999856948853,learn,32475.000143051147,Thu Dec 12 2024 17:06:05 GMT-0600 (Central Standard Time),394170.7000000002,A,app,I,p,119,2,3132.100000000559,391038.5999999996,8006,WL,A,13.0
3,27.674999952316284,learn,32325.000047683716,Thu Dec 12 2024 17:06:05 GMT-0600 (Central Standard Time),394320.5,A,appl,I,l,138,2,3281.9000000003725,391038.5999999996,8006,WL,A,13.0
3,27.758999824523926,learn,32241.000175476074,Thu Dec 12 2024 17:06:05 GMT-0600 (Central Standard Time),394404.39999999944,A,apple,I,e,75,2,3365.7999999998137,391038.5999999996,8006,WL,A,13.0
3,27.941999912261963,learn,32058.000087738037,Thu Dec 12 2024 17:06:05 GMT-0600 (Central Standard Time),394586.7999999998,A,appleenter,I,enter,175,2,3548.2000000001863,391038.5999999996,8006,WL,A,13.0
3,28.158999919891357,learn,31841.000080108643,Thu Dec 12 2024 17:06:05 GMT-0600 (Central Standard Time),394804.5999999996,A,s,I,s,209,2,217.59999999962747,394587.0,8006,WL,A,14.0
3,28.241999864578247,learn,31758.000135421753,Thu Dec 12 2024 17:06:05 GMT-0600 (Central Standard Time),394886.89999999944,A,sa,I,a,65,2,299.8999999994412,394587.0,8006,WL,A,14.0
3,28.340999841690063,learn,31659.000158309937,Thu Dec 12 2024 17:06:05 GMT-0600 (Central Standard Time),394986.7000000002,A,sal,I,l,84,2,399.70000000018626,394587.0,8006,WL,A,14.0
3,28.641000032424927,learn,31358.999967575073,Thu Dec 12 2024 17:06:05 GMT-0600 (Central Standard Time),395286.5999999996,A,salt,I,t,290,2,699.5999999996275,394587.0,8006,WL,A,14.0
3,29.62399983406067,learn,30376.00016593933,Thu Dec 12 2024 17:06:05 GMT-0600 (Central Standard Time),396269.5,A,saltenter,I,enter,973,2,1682.5,394587.0,8006,WL,A,14.0
3,30.007999897003174,learn,29992.000102996826,Thu Dec 12 2024 17:06:05 GMT-0600 (Central Standard Time),396652.89999999944,A,f,I,f,375,2,383.0,396269.89999999944,8006,WL,A,15.0
3,30.12399983406067,learn,29876.00016593933,Thu Dec 12 2024 17:06:05 GMT-0600 (Central Standard Time),396769.7000000002,A,fi,I,i,103,2,499.80000000074506,396269.89999999944,8006,WL,A,15.0
3,30.157999992370605,learn,29842.000007629395,Thu Dec 12 2024 17:06:05 GMT-0600 (Central Standard Time),396802.89999999944,A,fin,I,n,27,2,533.0,396269.89999999944,8006,WL,A,15.0
3,30.29099988937378,learn,29709.00011062622,Thu Dec 12 2024 17:06:05 GMT-0600 (Central Standard Time),396936.2000000002,A,fing,I,g,112,2,666.3000000007451,396269.89999999944,8006,WL,A,15.0
3,30.406999826431274,learn,29593.000173568726,Thu Dec 12 2024 17:06:05 GMT-0600 (Central Standard Time),397052.7999999998,A,finge,I,e,100,2,782.9000000003725,396269.89999999944,8006,WL,A,15.0
3,30.45799994468689,learn,29542.00005531311,Thu Dec 12 2024 17:06:05 GMT-0600 (Central Standard Time),397102.7999999998,A,finger,I,r,40,2,832.9000000003725,396269.89999999944,8006,WL,A,15.0
3,30.573999881744385,learn,29426.000118255615,Thu Dec 12 2024 17:06:05 GMT-0600 (Central Standard Time),397219.7999999998,A,fingerenter,I,enter,101,2,949.9000000003725,396269.89999999944,8006,WL,A,15.0
4,2.5160000324249268,learn,57483.99996757507,Thu Dec 12 2024 17:06:05 GMT-0600 (Central Standard Time),465681.2999999998,A,l,I,l,2494,2,2515.5,463165.7999999998,8006,WL,A,1.0
4,2.6659998893737793,learn,57334.00011062622,Thu Dec 12 2024 17:06:05 GMT-0600 (Central Standard Time),465831.2999999998,A,lo,I,o,128,2,2665.5,463165.7999999998,8006,WL,A,1.0
4,2.7330000400543213,learn,57266.99995994568,Thu Dec 12 2024 17:06:05 GMT-0600 (Central Standard Time),465898.5,A,log,I,g,44,2,2732.7000000001863,463165.7999999998,8006,WL,A,1.0
4,3.0490000247955322,learn,56950.99997520447,Thu Dec 12 2024 17:06:05 GMT-0600 (Central Standard Time),466214.5,A,logenter,I,enter,305,2,3048.7000000001863,463165.7999999998,8006,WL,A,1.0
4,3.881999969482422,learn,56118.00003051758,Thu Dec 12 2024 17:06:05 GMT-0600 (Central Standard Time),467047.5,A,b,I,b,822,2,832.7000000001863,466214.7999999998,8006,WL,A,2.0
4,3.999000072479248,learn,56000.99992752075,Thu Dec 12 2024 17:06:05 GMT-0600 (Central Standard Time),467164.2999999998,A,bu,I,u,101,2,949.5,466214.7999999998,8006,WL,A,2.0
4,4.299000024795532,learn,55700.99997520447,Thu Dec 12 2024 17:06:05 GMT-0600 (Central Standard Time),467464.0999999996,A,but,I,t,287,2,1249.2999999998137,466214.7999999998,8006,WL,A,2.0
4,4.431999921798706,learn,55568.000078201294,Thu Dec 12 2024 17:06:05 GMT-0600 (Central Standard Time),467597.7000000002,A,butt,I,t,117,2,1382.9000000003725,466214.7999999998,8006,WL,A,2.0
4,4.514999866485596,learn,55485.000133514404,Thu Dec 12 2024 17:06:05 GMT-0600 (Central Standard Time),467680.7000000002,A,butto,I,o,69,2,1465.9000000003725,466214.7999999998,8006,WL,A,2.0
4,4.615000009536743,learn,55384.99999046326,Thu Dec 12 2024 17:06:05 GMT-0600 (Central Standard Time),467780.7000000002,A,button,I,n,91,2,1565.9000000003725,466214.7999999998,8006,WL,A,2.0
4,5.497999906539917,learn,54502.00009346008,Thu Dec 12 2024 17:06:05 GMT-0600 (Central Standard Time),468663.7000000002,A,buttonenter,I,enter,863,2,2448.9000000003725,466214.7999999998,8006,WL,A,2.0
4,6.065000057220459,learn,53934.99994277954,Thu Dec 12 2024 17:06:05 GMT-0600 (Central Standard Time),469230.5999999996,A,k,I,k,548,2,566.5999999996275,468664.0,8006,WL,A,3.0
4,6.181999921798706,learn,53818.000078201294,Thu Dec 12 2024 17:06:05 GMT-0600 (Central Standard Time),469347.0999999996,A,ke,I,e,93,2,683.0999999996275,468664.0,8006,WL,A,3.0
4,6.315000057220459,learn,53684.99994277954,Thu Dec 12 2024 17:06:05 GMT-0600 (Central Standard Time),469480.2000000002,A,key,I,y,120,2,816.2000000001863,468664.0,8006,WL,A,3.0
4,7.164000034332275,learn,52835.999965667725,Thu Dec 12 2024 17:06:05 GMT-0600 (Central Standard Time),470329.7999999998,A,keyenter,I,enter,835,2,1665.7999999998137,468664.0,8006,WL,A,3.0
4,7.463000059127808,learn,52536.99994087219,Thu Dec 12 2024 17:06:05 GMT-0600 (Central Standard Time),470630.0,A,r,I,r,282,2,299.79999999981374,470330.2000000002,8006,WL,A,4.0
4,7.513000011444092,learn,52486.99998855591,Thu Dec 12 2024 17:06:05 GMT-0600 (Central Standard Time),470679.7999999998,A,ra,I,a,37,2,349.59999999962747,470330.2000000002,8006,WL,A,4.0
4,7.662999868392944,learn,52337.000131607056,Thu Dec 12 2024 17:06:05 GMT-0600 (Central Standard Time),470829.89999999944,A,rat,I,t,141,2,499.69999999925494,470330.2000000002,8006,WL,A,4.0
4,7.796000003814697,learn,52203.9999961853,Thu Dec 12 2024 17:06:05 GMT-0600 (Central Standard Time),470963.0999999996,A,ratt,I,t,127,2,632.8999999994412,470330.2000000002,8006,WL,A,4.0
4,7.930000066757202,learn,52069.9999332428,Thu Dec 12 2024 17:06:05 GMT-0600 (Central Standard Time),471096.39999999944,A,rattl,I,l,113,2,766.1999999992549,470330.2000000002,8006,WL,A,4.0
4,7.980000019073486,learn,52019.999980926514,Thu Dec 12 2024 17:06:05 GMT-0600 (Central Standard Time),471146.39999999944,A,rattle,I,e,27,2,816.1999999992549,470330.2000000002,8006,WL,A,4.0
4,8.230000019073486,learn,51769.999980926514,Thu Dec 12 2024 17:06:05 GMT-0600 (Central Standard Time),471396.2999999998,A,rattleenter,I,enter,234,2,1066.0999999996275,470330.2000000002,8006,WL,A,4.0
4,8.546000003814697,learn,51453.9999961853,Thu Dec 12 2024 17:06:05 GMT-0600 (Central Standard Time),471712.89999999944,A,g,I,g,295,2,316.29999999981374,471396.5999999996,8006,WL,A,5.0
4,8.61299991607666,learn,51387.00008392334,Thu Dec 12 2024 17:06:05 GMT-0600 (Central Standard Time),471779.2000000002,A,go,I,o,58,2,382.6000000005588,471396.5999999996,8006,WL,A,5.0
4,8.763000011444092,learn,51236.99998855591,Thu Dec 12 2024 17:06:05 GMT-0600 (Central Standard Time),471929.5999999996,A,gol,I,l,138,2,533.0,471396.5999999996,8006,WL,A,5.0
4,8.86299991607666,learn,51137.00008392334,Thu Dec 12 2024 17:06:05 GMT-0600 (Central Standard Time),472029.39999999944,A,gold,I,d,82,2,632.7999999998137,471396.5999999996,8006,WL,A,5.0
4,8.996000051498413,learn,51003.99994850159,Thu Dec 12 2024 17:06:05 GMT-0600 (Central Standard Time),472162.7000000002,A,goldenter,I,enter,111,2,766.1000000005588,471396.5999999996,8006,WL,A,5.0
4,10.812000036239624,learn,49187.999963760376,Thu Dec 12 2024 17:06:05 GMT-0600 (Central Standard Time),473978.7999999998,A,c,I,c,1794,2,1815.7999999998137,472163.0,8006,WL,A,6.0
4,10.861999988555908,learn,49138.00001144409,Thu Dec 12 2024 17:06:05 GMT-0600 (Central Standard Time),474028.5,A,ch,I,h,39,2,1865.5,472163.0,8006,WL,A,6.0
4,10.94599986076355,learn,49054.00013923645,Thu Dec 12 2024 17:06:05 GMT-0600 (Central Standard Time),474112.2000000002,A,chi,I,i,64,2,1949.2000000001863,472163.0,8006,WL,A,6.0
4,11.062000036239624,learn,48937.999963760376,Thu Dec 12 2024 17:06:05 GMT-0600 (Central Standard Time),474228.5,A,chim,I,m,108,2,2065.5,472163.0,8006,WL,A,6.0
4,11.244999885559082,learn,48755.00011444092,Thu Dec 12 2024 17:06:05 GMT-0600 (Central Standard Time),474412.0,A,chime,I,e,176,2,2249.0,472163.0,8006,WL,A,6.0
4,11.312000036239624,learn,48687.999963760376,Thu Dec 12 2024 17:06:05 GMT-0600 (Central Standard Time),474478.7999999998,A,chimen,I,n,47,2,2315.7999999998137,472163.0,8006,WL,A,6.0
4,11.478999853134155,learn,48521.000146865845,Thu Dec 12 2024 17:06:05 GMT-0600 (Central Standard Time),474645.2999999998,A,chimeny,I,y,149,2,2482.2999999998137,472163.0,8006,WL,A,6.0
4,12.062000036239624,learn,47937.999963760376,Thu Dec 12 2024 17:06:05 GMT-0600 (Central Standard Time),475228.5,A,chimen,I,backspace,566,2,3065.5,472163.0,8006,WL,A,6.0
4,12.227999925613403,learn,47772.0000743866,Thu Dec 12 2024 17:06:05 GMT-0600 (Central Standard Time),475395.0,A,chime,I,backspace,144,2,3232.0,472163.0,8006,WL,A,6.0
4,12.310999870300293,learn,47689.00012969971,Thu Dec 12 2024 17:06:05 GMT-0600 (Central Standard Time),475478.0999999996,A,chim,I,backspace,73,2,3315.0999999996275,472163.0,8006,WL,A,6.0
4,12.477999925613403,learn,47522.0000743866,Thu Dec 12 2024 17:06:05 GMT-0600 (Central Standard Time),475644.89999999944,A,chimn,I,n,158,2,3481.899999999441,472163.0,8006,WL,A,6.0
4,12.595999956130981,learn,47404.00004386902,Thu Dec 12 2024 17:06:05 GMT-0600 (Central Standard Time),475762.5,A,chimne,I,e,94,2,3599.5,472163.0,8006,WL,A,6.0
4,12.694999933242798,learn,47305.0000667572,Thu Dec 12 2024 17:06:05 GMT-0600 (Central Standard Time),475861.5999999996,A,chimney,I,y,91,2,3698.5999999996275,472163.0,8006,WL,A,6.0
4,13.277999877929688,learn,46722.00012207031,Thu Dec 12 2024 17:06:05 GMT-0600 (Central Standard Time),476444.7999999998,A,chimneyenter,I,enter,574,2,4281.799999999814,472163.0,8006,WL,A,6.0
4,14.960999965667725,learn,45039.000034332275,Thu Dec 12 2024 17:06:05 GMT-0600 (Central Standard Time),478127.5,A,h,I,h,1662,2,1682.2999999998137,476445.2000000002,8006,WL,A,7.0
4,15.026999950408936,learn,44973.000049591064,Thu Dec 12 2024 17:06:05 GMT-0600 (Central Standard Time),478194.0999999996,A,ha,I,a,44,2,1748.8999999994412,476445.2000000002,8006,WL,A,7.0
4,15.144000053405762,learn,44855.99994659424,Thu Dec 12 2024 17:06:05 GMT-0600 (Central Standard Time),478310.7999999998,A,har,I,r,105,2,1865.5999999996275,476445.2000000002,8006,WL,A,7.0
4,15.476999998092651,learn,44523.00000190735,Thu Dec 12 2024 17:06:05 GMT-0600 (Central Standard Time),478644.0,A,harp,I,p,317,2,2198.7999999998137,476445.2000000002,8006,WL,A,7.0
4,15.726999998092651,learn,44273.00000190735,Thu Dec 12 2024 17:06:05 GMT-0600 (Central Standard Time),478893.5999999996,A,harpenter,I,enter,241,2,2448.399999999441,476445.2000000002,8006,WL,A,7.0
4,17.78499984741211,learn,42215.00015258789,Thu Dec 12 2024 17:06:05 GMT-0600 (Central Standard Time),480951.5999999996,A,i,I,i,2046,2,2057.7000000001863,478893.89999999944,8006,WL,A,8.0
4,17.861000061035156,learn,42138.999938964844,Thu Dec 12 2024 17:06:05 GMT-0600 (Central Standard Time),481027.5999999996,A,in,I,n,50,2,2133.7000000001863,478893.89999999944,8006,WL,A,8.0
4,17.943000078201294,learn,42056.999921798706,Thu Dec 12 2024 17:06:05 GMT-0600 (Central Standard Time),481110.0,A,ing,I,g,65,2,2216.100000000559,478893.89999999944,8006,WL,A,8.0
4,18.05999994277954,learn,41940.00005722046,Thu Dec 12 2024 17:06:05 GMT-0600 (Central Standard Time),481226.7000000002,A,inge,I,e,110,2,2332.800000000745,478893.89999999944,8006,WL,A,8.0
4,18.109999895095825,learn,41890.000104904175,Thu Dec 12 2024 17:06:05 GMT-0600 (Central Standard Time),481276.5,A,inger,I,r,41,2,2382.600000000559,478893.89999999944,8006,WL,A,8.0
4,18.210000038146973,learn,41789.99996185303,Thu Dec 12 2024 17:06:05 GMT-0600 (Central Standard Time),481376.5,A,ingerenter,I,enter,87,2,2482.600000000559,478893.89999999944,8006,WL,A,8.0
4,19.4760000705719,learn,40523.9999294281,Thu Dec 12 2024 17:06:05 GMT-0600 (Central Standard Time),482642.7000000002,A,f,I,f,1251,2,1265.800000000745,481376.89999999944,8006,WL,A,9.0
4,19.9760000705719,learn,40023.9999294281,Thu Dec 12 2024 17:06:05 GMT-0600 (Central Standard Time),483142.5999999996,A,,I,backspace,488,2,1765.7000000001863,481376.89999999944,8006,WL,A,9.0
4,20.075999975204468,learn,39924.00002479553,Thu Dec 12 2024 17:06:05 GMT-0600 (Central Standard Time),483242.7999999998,A,s,I,s,93,2,1865.9000000003725,481376.89999999944,8006,WL,A,9.0
4,20.175999879837036,learn,39824.000120162964,Thu Dec 12 2024 17:06:05 GMT-0600 (Central Standard Time),483342.7999999998,A,sa,I,a,82,2,1965.9000000003725,481376.89999999944,8006,WL,A,9.0
4,20.276000022888184,learn,39723.99997711182,Thu Dec 12 2024 17:06:05 GMT-0600 (Central Standard Time),483442.5999999996,A,sal,I,l,86,2,2065.7000000001863,481376.89999999944,8006,WL,A,9.0
4,20.691999912261963,learn,39308.00008773804,Thu Dec 12 2024 17:06:05 GMT-0600 (Central Standard Time),483859.0,A,salt,I,t,402,2,2482.100000000559,481376.89999999944,8006,WL,A,9.0
4,20.858999967575073,learn,39141.00003242493,Thu Dec 12 2024 17:06:05 GMT-0600 (Central Standard Time),484025.5999999996,A,saltenter,I,enter,146,2,2648.7000000001863,481376.89999999944,8006,WL,A,9.0
4,21.47499990463257,learn,38525.00009536743,Thu Dec 12 2024 17:06:05 GMT-0600 (Central Standard Time),484642.0999999996,A,a,I,a,603,2,616.2000000001863,484025.89999999944,8006,WL,A,10.0
4,21.575000047683716,learn,38424.999952316284,Thu Dec 12 2024 17:06:05 GMT-0600 (Central Standard Time),484741.89999999944,A,ap,I,p,81,2,716.0,484025.89999999944,8006,WL,A,10.0
4,21.70899987220764,learn,38291.00012779236,Thu Dec 12 2024 17:06:05 GMT-0600 (Central Standard Time),484875.39999999944,A,app,I,p,117,2,849.5,484025.89999999944,8006,WL,A,10.0
4,21.85800004005432,learn,38141.99995994568,Thu Dec 12 2024 17:06:05 GMT-0600 (Central Standard Time),485024.89999999944,A,appl,I,l,128,2,999.0,484025.89999999944,8006,WL,A,10.0
4,21.924999952316284,learn,38075.000047683716,Thu Dec 12 2024 17:06:05 GMT-0600 (Central Standard Time),485092.0,A,apple,I,e,51,2,1066.1000000005588,484025.89999999944,8006,WL,A,10.0
4,22.174999952316284,learn,37825.000047683716,Thu Dec 12 2024 17:06:05 GMT-0600 (Central Standard Time),485341.89999999944,A,appleenter,I,enter,240,2,1316.0,484025.89999999944,8006,WL,A,10.0
4,23.174999952316284,learn,36825.000047683716,Thu Dec 12 2024 17:06:05 GMT-0600 (Central Standard Time),486341.7000000002,A,m,I,m,982,2,999.5,485342.2000000002,8006,WL,A,11.0
4,23.20799994468689,learn,36792.00005531311,Thu Dec 12 2024 17:06:05 GMT-0600 (Central Standard Time),486374.7999999998,A,me,I,e,22,2,1032.5999999996275,485342.2000000002,8006,WL,A,11.0
4,23.292999982833862,learn,36707.00001716614,Thu Dec 12 2024 17:06:05 GMT-0600 (Central Standard Time),486459.39999999944,A,mea,I,a,71,2,1117.199999999255,485342.2000000002,8006,WL,A,11.0
4,23.47499990463257,learn,36525.00009536743,Thu Dec 12 2024 17:06:05 GMT-0600 (Central Standard Time),486641.5,A,mead,I,d,160,2,1299.2999999998137,485342.2000000002,8006,WL,A,11.0
4,23.575000047683716,learn,36424.999952316284,Thu Dec 12 2024 17:06:05 GMT-0600 (Central Standard Time),486741.5,A,meado,I,o,91,2,1399.2999999998137,485342.2000000002,8006,WL,A,11.0
4,23.72499990463257,learn,36275.00009536743,Thu Dec 12 2024 17:06:05 GMT-0600 (Central Standard Time),486891.5,A,meadow,I,w,134,2,1549.2999999998137,485342.2000000002,8006,WL,A,11.0
4,24.240999937057495,learn,35759.000062942505,Thu Dec 12 2024 17:06:05 GMT-0600 (Central Standard Time),487408.0,A,meadowenter,I,enter,504,2,2065.7999999998137,485342.2000000002,8006,WL,A,11.0
4,24.907999992370605,learn,35092.000007629395,Thu Dec 12 2024 17:06:05 GMT-0600 (Central Standard Time),488074.5,A,r,I,r,644,2,666.2999999998137,487408.2000000002,8006,WL,A,12.0
4,24.95799994468689,learn,35042.00005531311,Thu Dec 12 2024 17:06:05 GMT-0600 (Central Standard Time),488124.2999999998,A,ru,I,u,33,2,716.0999999996275,487408.2000000002,8006,WL,A,12.0
4,25.141000032424927,learn,34858.99996757507,Thu Dec 12 2024 17:06:05 GMT-0600 (Central Standard Time),488307.7999999998,A,rug,I,g,167,2,899.5999999996275,487408.2000000002,8006,WL,A,12.0
4,25.5239999294281,learn,34476.0000705719,Thu Dec 12 2024 17:06:05 GMT-0600 (Central Standard Time),488690.89999999944,A,rugenter,I,enter,369,2,1282.699999999255,487408.2000000002,8006,WL,A,12.0
4,25.874000072479248,learn,34125.99992752075,Thu Dec 12 2024 17:06:05 GMT-0600 (Central Standard Time),489040.7999999998,A,f,I,f,338,2,349.59999999962747,488691.2000000002,8006,WL,A,13.0
4,25.94000005722046,learn,34059.99994277954,Thu Dec 12 2024 17:06:05 GMT-0600 (Central Standard Time),489107.2000000002,A,fl,I,l,59,2,416.0,488691.2000000002,8006,WL,A,13.0
4,26.374000072479248,learn,33625.99992752075,Thu Dec 12 2024 17:06:05 GMT-0600 (Central Standard Time),489540.5999999996,A,flo,I,o,417,2,849.3999999994412,488691.2000000002,8006,WL,A,13.0
4,26.44099998474121,learn,33559.00001525879,Thu Dec 12 2024 17:06:05 GMT-0600 (Central Standard Time),489607.39999999944,A,flow,I,w,57,2,916.1999999992549,488691.2000000002,8006,WL,A,13.0
4,26.506999969482422,learn,33493.00003051758,Thu Dec 12 2024 17:06:05 GMT-0600 (Central Standard Time),489673.7999999998,A,flowe,I,e,53,2,982.5999999996275,488691.2000000002,8006,WL,A,13.0
4,26.539999961853027,learn,33460.00003814697,Thu Dec 12 2024 17:06:05 GMT-0600 (Central Standard Time),489707.0,A,flower,I,r,18,2,1015.7999999998137,488691.2000000002,8006,WL,A,13.0
4,26.823999881744385,learn,33176.000118255615,Thu Dec 12 2024 17:06:05 GMT-0600 (Central Standard Time),489990.5,A,flowerenter,I,enter,274,2,1299.2999999998137,488691.2000000002,8006,WL,A,13.0
4,27.33999991416931,learn,32660.00008583069,Thu Dec 12 2024 17:06:05 GMT-0600 (Central Standard Time),490506.89999999944,A,t,I,t,501,2,516.0999999996275,489990.7999999998,8006,WL,A,14.0
4,27.506999969482422,learn,32493.000030517578,Thu Dec 12 2024 17:06:05 GMT-0600 (Central Standard Time),490673.89999999944,A,tr,I,r,144,2,683.0999999996275,489990.7999999998,8006,WL,A,14.0
4,27.539999961853027,learn,32460.000038146973,Thu Dec 12 2024 17:06:05 GMT-0600 (Central Standard Time),490707.0,A,tra,I,a,27,2,716.2000000001863,489990.7999999998,8006,WL,A,14.0
4,27.60699987411499,learn,32393.00012588501,Thu Dec 12 2024 17:06:05 GMT-0600 (Central Standard Time),490773.5999999996,A,trai,I,i,48,2,782.7999999998137,489990.7999999998,8006,WL,A,14.0
4,27.69000005722046,learn,32309.99994277954,Thu Dec 12 2024 17:06:05 GMT-0600 (Central Standard Time),490856.7999999998,A,train,I,n,71,2,866.0,489990.7999999998,8006,WL,A,14.0
4,27.889999866485596,learn,32110.000133514404,Thu Dec 12 2024 17:06:05 GMT-0600 (Central Standard Time),491056.89999999944,A,trainenter,I,enter,187,2,1066.0999999996275,489990.7999999998,8006,WL,A,14.0
4,28.256999969482422,learn,31743.000030517578,Thu Dec 12 2024 17:06:05 GMT-0600 (Central Standard Time),491423.39999999944,A,b,I,b,347,2,366.09999999962747,491057.2999999998,8006,WL,A,15.0
4,28.33999991416931,learn,31660.00008583069,Thu Dec 12 2024 17:06:05 GMT-0600 (Central Standard Time),491506.5999999996,A,bo,I,o,67,2,449.29999999981374,491057.2999999998,8006,WL,A,15.0
4,28.490000009536743,learn,31509.999990463257,Thu Dec 12 2024 17:06:05 GMT-0600 (Central Standard Time),491656.5,A,boo,I,o,129,2,599.2000000001863,491057.2999999998,8006,WL,A,15.0
4,28.539999961853027,learn,31460.000038146973,Thu Dec 12 2024 17:06:05 GMT-0600 (Central Standard Time),491706.5999999996,A,book,I,k,34,2,649.2999999998137,491057.2999999998,8006,WL,A,15.0
4,28.756999969482422,learn,31243.000030517578,Thu Dec 12 2024 17:06:05 GMT-0600 (Central Standard Time),491923.2000000002,A,bookenter,I,enter,194,2,865.9000000003725,491057.2999999998,8006,WL,A,15.0
5,2.432000160217285,learn,60000.0,Thu Dec 12 2024 17:06:05 GMT-0600 (Central Standard Time),559735.5,A,l,I,l,2420,2,2431.600000000559,557303.8999999994,8006,WL,A,1.0
5,2.5820000171661377,learn,60000.0,Thu Dec 12 2024 17:06:05 GMT-0600 (Central Standard Time),559885.5,A,lo,I,o,140,2,2581.600000000559,557303.8999999994,8006,WL,A,1.0
5,2.6480000019073486,learn,60000.0,Thu Dec 12 2024 17:06:05 GMT-0600 (Central Standard Time),559952.0999999996,A,log,I,g,55,2,2648.2000000001863,557303.8999999994,8006,WL,A,1.0
5,4.414000034332275,learn,60000.0,Thu Dec 12 2024 17:06:05 GMT-0600 (Central Standard Time),561718.0,A,logenter,I,enter,1757,2,4414.100000000559,557303.8999999994,8006,WL,A,1.0
5,5.447000026702881,learn,60000.0,Thu Dec 12 2024 17:06:05 GMT-0600 (Central Standard Time),562751.2000000002,A,b,I,b,1014,2,1032.9000000003725,561718.2999999998,8006,WL,A,2.0
5,5.513999938964844,learn,60000.0,Thu Dec 12 2024 17:06:05 GMT-0600 (Central Standard Time),562817.7000000002,A,bu,I,u,52,2,1099.4000000003725,561718.2999999998,8006,WL,A,2.0
5,5.730999946594238,learn,60000.0,Thu Dec 12 2024 17:06:05 GMT-0600 (Central Standard Time),563034.5999999996,A,but,I,t,194,2,1316.2999999998137,561718.2999999998,8006,WL,A,2.0
5,5.864000082015991,learn,60000.0,Thu Dec 12 2024 17:06:05 GMT-0600 (Central Standard Time),563167.7000000002,A,butt,I,t,122,2,1449.4000000003725,561718.2999999998,8006,WL,A,2.0
5,5.963000059127808,learn,60000.0,Thu Dec 12 2024 17:06:05 GMT-0600 (Central Standard Time),563267.2999999998,A,butto,I,o,91,2,1549.0,561718.2999999998,8006,WL,A,2.0
5,6.0299999713897705,learn,60000.0,Thu Dec 12 2024 17:06:05 GMT-0600 (Central Standard Time),563334.2999999998,A,button,I,n,56,2,1616.0,561718.2999999998,8006,WL,A,2.0
5,6.213000059127808,learn,60000.0,Thu Dec 12 2024 17:06:05 GMT-0600 (Central Standard Time),563517.5,A,buttonenter,I,enter,175,2,1799.2000000001863,561718.2999999998,8006,WL,A,2.0
5,6.880000114440918,learn,60000.0,Thu Dec 12 2024 17:06:05 GMT-0600 (Central Standard Time),564183.8999999994,A,k,I,k,646,2,666.1999999992549,563517.7000000002,8006,WL,A,3.0
5,6.980000019073486,learn,60000.0,Thu Dec 12 2024 17:06:05 GMT-0600 (Central Standard Time),564283.8999999994,A,ke,I,e,84,2,766.1999999992549,563517.7000000002,8006,WL,A,3.0
5,7.062999963760376,learn,60000.0,Thu Dec 12 2024 17:06:05 GMT-0600 (Central Standard Time),564367.2999999998,A,key,I,y,64,2,849.5999999996275,563517.7000000002,8006,WL,A,3.0
5,7.963000059127808,learn,60000.0,Thu Dec 12 2024 17:06:05 GMT-0600 (Central Standard Time),565266.8999999994,A,keyenter,I,enter,885,2,1749.199999999255,563517.7000000002,8006,WL,A,3.0
5,8.213000059127808,learn,60000.0,Thu Dec 12 2024 17:06:05 GMT-0600 (Central Standard Time),565516.7999999998,A,r,I,r,234,2,249.59999999962747,565267.2000000002,8006,WL,A,4.0
5,8.27999997138977,learn,60000.0,Thu Dec 12 2024 17:06:05 GMT-0600 (Central Standard Time),565583.7000000002,A,ra,I,a,47,2,316.5,565267.2000000002,8006,WL,A,4.0
5,8.430000066757202,learn,60000.0,Thu Dec 12 2024 17:06:05 GMT-0600 (Central Standard Time),565733.5999999996,A,rat,I,t,133,2,466.3999999994412,565267.2000000002,8006,WL,A,4.0
5,8.564000129699707,learn,60000.0,Thu Dec 12 2024 17:06:05 GMT-0600 (Central Standard Time),565867.8999999994,A,ratt,I,t,118,2,600.6999999992549,565267.2000000002,8006,WL,A,4.0
5,8.663000106811523,learn,60000.0,Thu Dec 12 2024 17:06:05 GMT-0600 (Central Standard Time),565966.5999999996,A,rattl,I,l,79,2,699.3999999994412,565267.2000000002,8006,WL,A,4.0
5,8.730000019073486,learn,60000.0,Thu Dec 12 2024 17:06:05 GMT-0600 (Central Standard Time),566033.5999999996,A,rattle,I,e,53,2,766.3999999994412,565267.2000000002,8006,WL,A,4.0
5,8.946000099182129,learn,60000.0,Thu Dec 12 2024 17:06:05 GMT-0600 (Central Standard Time),566250.2000000002,A,rattleenter,I,enter,203,2,983.0,565267.2000000002,8006,WL,A,4.0
5,9.246000051498413,learn,60000.0,Thu Dec 12 2024 17:06:05 GMT-0600 (Central Standard Time),566549.5,A,g,I,g,289,2,299.0,566250.5,8006,WL,A,5.0
5,9.296000003814697,learn,60000.0,Thu Dec 12 2024 17:06:05 GMT-0600 (Central Standard Time),566599.7000000002,A,go,I,o,38,2,349.20000000018626,566250.5,8006,WL,A,5.0
5,9.463000059127808,learn,60000.0,Thu Dec 12 2024 17:06:05 GMT-0600 (Central Standard Time),566766.5999999996,A,gol,I,l,155,2,516.0999999996275,566250.5,8006,WL,A,5.0
5,9.828999996185303,learn,60000.0,Thu Dec 12 2024 17:06:05 GMT-0600 (Central Standard Time),567132.8999999994,A,gold,I,d,351,2,882.3999999994412,566250.5,8006,WL,A,5.0
5,9.996999979019165,learn,60000.0,Thu Dec 12 2024 17:06:05 GMT-0600 (Central Standard Time),567300.5,A,goldenter,I,enter,152,2,1050.0,566250.5,8006,WL,A,5.0
5,11.59500002861023,learn,60000.0,Thu Dec 12 2024 17:06:05 GMT-0600 (Central Standard Time),568899.3999999994,A,c,I,c,1577,2,1598.5999999996275,567300.7999999998,8006,WL,A,6.0
5,11.661999940872192,learn,60000.0,Thu Dec 12 2024 17:06:05 GMT-0600 (Central Standard Time),568965.7999999998,A,ch,I,h,57,2,1665.0,567300.7999999998,8006,WL,A,6.0
5,11.745000123977661,learn,60000.0,Thu Dec 12 2024 17:06:05 GMT-0600 (Central Standard Time),569049.0,A,chi,I,i,71,2,1748.2000000001863,567300.7999999998,8006,WL,A,6.0
5,11.861999988555908,learn,60000.0,Thu Dec 12 2024 17:06:05 GMT-0600 (Central Standard Time),569165.5999999996,A,chim,I,m,107,2,1864.7999999998137,567300.7999999998,8006,WL,A,6.0
5,12.02999997138977,learn,60000.0,Thu Dec 12 2024 17:06:05 GMT-0600 (Central Standard Time),569333.7000000002,A,chime,I,e,158,2,2032.9000000003725,567300.7999999998,8006,WL,A,6.0
5,12.11300015449524,learn,60000.0,Thu Dec 12 2024 17:06:05 GMT-0600 (Central Standard Time),569417.2000000002,A,chimen,I,n,72,2,2116.4000000003725,567300.7999999998,8006,WL,A,6.0
5,12.295000076293945,learn,60000.0,Thu Dec 12 2024 17:06:05 GMT-0600 (Central Standard Time),569598.7999999998,A,chimeny,I,y,171,2,2298.0,567300.7999999998,8006,WL,A,6.0
5,12.778000116348267,learn,60000.0,Thu Dec 12 2024 17:06:05 GMT-0600 (Central Standard Time),570082.0,A,chimen,I,backspace,470,2,2781.2000000001863,567300.7999999998,8006,WL,A,6.0
5,12.911999940872192,learn,60000.0,Thu Dec 12 2024 17:06:05 GMT-0600 (Central Standard Time),570215.5,A,chime,I,backspace,113,2,2914.7000000001863,567300.7999999998,8006,WL,A,6.0
5,13.02999997138977,learn,60000.0,Thu Dec 12 2024 17:06:05 GMT-0600 (Central Standard Time),570333.5,A,chim,I,backspace,100,2,3032.7000000001863,567300.7999999998,8006,WL,A,6.0
5,13.17799997329712,learn,60000.0,Thu Dec 12 2024 17:06:05 GMT-0600 (Central Standard Time),570482.0,A,chimn,I,n,126,2,3181.2000000001863,567300.7999999998,8006,WL,A,6.0
5,13.261000156402588,learn,60000.0,Thu Dec 12 2024 17:06:05 GMT-0600 (Central Standard Time),570565.2000000002,A,chimne,I,e,75,2,3264.4000000003725,567300.7999999998,8006,WL,A,6.0
5,13.394999980926514,learn,60000.0,Thu Dec 12 2024 17:06:05 GMT-0600 (Central Standard Time),570698.7000000002,A,chimney,I,y,111,2,3397.9000000003725,567300.7999999998,8006,WL,A,6.0
5,14.07800006866455,learn,60000.0,Thu Dec 12 2024 17:06:05 GMT-0600 (Central Standard Time),571381.7000000002,A,chimneyenter,I,enter,674,2,4080.9000000003725,567300.7999999998,8006,WL,A,6.0
5,14.844000101089478,learn,60000.0,Thu Dec 12 2024 17:06:05 GMT-0600 (Central Standard Time),572148.0999999996,A,h,I,h,750,2,766.0,571382.0999999996,8006,WL,A,7.0
5,14.91100001335144,learn,60000.0,Thu Dec 12 2024 17:06:05 GMT-0600 (Central Standard Time),572214.7999999998,A,ha,I,a,56,2,832.7000000001863,571382.0999999996,8006,WL,A,7.0
5,15.028000116348267,learn,60000.0,Thu Dec 12 2024 17:06:05 GMT-0600 (Central Standard Time),572331.5999999996,A,har,I,r,109,2,949.5,571382.0999999996,8006,WL,A,7.0
5,15.24399995803833,learn,60000.0,Thu Dec 12 2024 17:06:05 GMT-0600 (Central Standard Time),572548.0,A,harp,I,p,208,2,1165.9000000003725,571382.0999999996,8006,WL,A,7.0
5,15.827000141143799,learn,60000.0,Thu Dec 12 2024 17:06:05 GMT-0600 (Central Standard Time),573131.0999999996,A,harpenter,I,enter,568,2,1749.0,571382.0999999996,8006,WL,A,7.0
5,16.89400005340576,learn,60000.0,Thu Dec 12 2024 17:06:05 GMT-0600 (Central Standard Time),574197.5999999996,A,f,I,f,1050,2,1066.0999999996275,573131.5,8006,WL,A,8.0
5,16.943000078201294,learn,60000.0,Thu Dec 12 2024 17:06:05 GMT-0600 (Central Standard Time),574247.2000000002,A,fi,I,i,39,2,1115.7000000001863,573131.5,8006,WL,A,8.0
5,16.99399995803833,learn,60000.0,Thu Dec 12 2024 17:06:05 GMT-0600 (Central Standard Time),574297.7000000002,A,fin,I,n,28,2,1166.2000000001863,573131.5,8006,WL,A,8.0
5,17.30999994277954,learn,60000.0,Thu Dec 12 2024 17:06:05 GMT-0600 (Central Standard Time),574614.0,A,fing,I,g,299,2,1482.5,573131.5,8006,WL,A,8.0
5,17.444999933242798,learn,60000.0,Thu Dec 12 2024 17:06:05 GMT-0600 (Central Standard Time),574748.3999999994,A,finge,I,e,127,2,1616.8999999994412,573131.5,8006,WL,A,8.0
5,17.509999990463257,learn,60000.0,Thu Dec 12 2024 17:06:05 GMT-0600 (Central Standard Time),574814.0,A,finger,I,r,48,2,1682.5,573131.5,8006,WL,A,8.0
5,18.127000093460083,learn,60000.0,Thu Dec 12 2024 17:06:05 GMT-0600 (Central Standard Time),575430.5,A,fingerenter,I,enter,605,2,2299.0,573131.5,8006,WL,A,8.0
5,18.39300012588501,learn,60000.0,Thu Dec 12 2024 17:06:05 GMT-0600 (Central Standard Time),575696.8999999994,A,s,I,s,245,2,266.09999999962747,575430.7999999998,8006,WL,A,9.0
5,18.443000078201294,learn,60000.0,Thu Dec 12 2024 17:06:05 GMT-0600 (Central Standard Time),575747.0999999996,A,sa,I,a,44,2,316.29999999981374,575430.7999999998,8006,WL,A,9.0
5,18.526999950408936,learn,60000.0,Thu Dec 12 2024 17:06:05 GMT-0600 (Central Standard Time),575830.3999999994,A,sal,I,l,66,2,399.59999999962747,575430.7999999998,8006,WL,A,9.0
5,18.825999975204468,learn,60000.0,Thu Dec 12 2024 17:06:05 GMT-0600 (Central Standard Time),576130.2999999998,A,salt,I,t,286,2,699.5,575430.7999999998,8006,WL,A,9.0
5,19.259000062942505,learn,60000.0,Thu Dec 12 2024 17:06:05 GMT-0600 (Central Standard Time),576563.2000000002,A,saltenter,I,enter,425,2,1132.4000000003725,575430.7999999998,8006,WL,A,9.0
5,19.608999967575073,learn,60000.0,Thu Dec 12 2024 17:06:05 GMT-0600 (Central Standard Time),576913.2000000002,A,a,I,a,330,2,349.70000000018626,576563.5,8006,WL,A,10.0
5,19.70900011062622,learn,60000.0,Thu Dec 12 2024 17:06:05 GMT-0600 (Central Standard Time),577013.2999999998,A,ap,I,p,90,2,449.79999999981374,576563.5,8006,WL,A,10.0
5,19.858999967575073,learn,60000.0,Thu Dec 12 2024 17:06:05 GMT-0600 (Central Standard Time),577163.2999999998,A,app,I,p,127,2,599.7999999998137,576563.5,8006,WL,A,10.0
5,20.009000062942505,learn,60000.0,Thu Dec 12 2024 17:06:05 GMT-0600 (Central Standard Time),577313.2999999998,A,appl,I,l,138,2,749.7999999998137,576563.5,8006,WL,A,10.0
5,20.05900001525879,learn,60000.0,Thu Dec 12 2024 17:06:05 GMT-0600 (Central Standard Time),577363.0999999996,A,apple,I,e,43,2,799.5999999996275,576563.5,8006,WL,A,10.0
5,20.79200005531311,learn,60000.0,Thu Dec 12 2024 17:06:05 GMT-0600 (Central Standard Time),578096.3999999994,A,appleenter,I,enter,714,2,1532.8999999994412,576563.5,8006,WL,A,10.0
5,24.325000047683716,learn,60000.0,Thu Dec 12 2024 17:06:05 GMT-0600 (Central Standard Time),581628.5999999996,A,m,I,m,3514,2,3532.0,578096.5999999996,8006,WL,A,11.0
5,24.35800004005432,learn,60000.0,Thu Dec 12 2024 17:06:05 GMT-0600 (Central Standard Time),581661.7000000002,A,me,I,e,23,2,3565.100000000559,578096.5999999996,8006,WL,A,11.0
5,24.44099998474121,learn,60000.0,Thu Dec 12 2024 17:06:05 GMT-0600 (Central Standard Time),581745.0999999996,A,mea,I,a,71,2,3648.5,578096.5999999996,8006,WL,A,11.0
5,24.624000072479248,learn,60000.0,Thu Dec 12 2024 17:06:05 GMT-0600 (Central Standard Time),581928.3999999994,A,mead,I,d,171,2,3831.7999999998137,578096.5999999996,8006,WL,A,11.0
5,24.740999937057495,learn,60000.0,Thu Dec 12 2024 17:06:05 GMT-0600 (Central Standard Time),582045.0,A,meado,I,o,99,2,3948.4000000003725,578096.5999999996,8006,WL,A,11.0
5,24.924000024795532,learn,60000.0,Thu Dec 12 2024 17:06:05 GMT-0600 (Central Standard Time),582228.2999999998,A,meadow,I,w,167,2,4131.700000000186,578096.5999999996,8006,WL,A,11.0
5,25.740999937057495,learn,60000.0,Thu Dec 12 2024 17:06:05 GMT-0600 (Central Standard Time),583044.7000000002,A,meadowenter,I,enter,799,2,4948.100000000559,578096.5999999996,8006,WL,A,11.0
5,27.074000120162964,learn,60000.0,Thu Dec 12 2024 17:06:05 GMT-0600 (Central Standard Time),584377.5999999996,A,r,I,r,1311,2,1332.5999999996275,583045.0,8006,WL,A,12.0
5,27.140000104904175,learn,60000.0,Thu Dec 12 2024 17:06:05 GMT-0600 (Central Standard Time),584444.3999999994,A,ru,I,u,58,2,1399.3999999994412,583045.0,8006,WL,A,12.0
5,27.2739999294281,learn,60000.0,Thu Dec 12 2024 17:06:05 GMT-0600 (Central Standard Time),584577.7000000002,A,rug,I,g,112,2,1532.7000000001863,583045.0,8006,WL,A,12.0
5,27.674000024795532,learn,60000.0,Thu Dec 12 2024 17:06:05 GMT-0600 (Central Standard Time),584977.7000000002,A,rugenter,I,enter,386,2,1932.7000000001863,583045.0,8006,WL,A,12.0
5,28.17300009727478,learn,60000.0,Thu Dec 12 2024 17:06:05 GMT-0600 (Central Standard Time),585477.2999999998,A,f,I,f,482,2,499.29999999981374,584978.0,8006,WL,A,13.0
5,28.223000049591064,learn,60000.0,Thu Dec 12 2024 17:06:05 GMT-0600 (Central Standard Time),585527.2000000002,A,fl,I,l,38,2,549.2000000001863,584978.0,8006,WL,A,13.0
5,28.35700011253357,learn,60000.0,Thu Dec 12 2024 17:06:05 GMT-0600 (Central Standard Time),585660.3999999994,A,flo,I,o,125,2,682.3999999994412,584978.0,8006,WL,A,13.0
5,28.407000064849854,learn,60000.0,Thu Dec 12 2024 17:06:05 GMT-0600 (Central Standard Time),585710.5999999996,A,flow,I,w,31,2,732.5999999996275,584978.0,8006,WL,A,13.0
5,28.490000009536743,learn,60000.0,Thu Dec 12 2024 17:06:05 GMT-0600 (Central Standard Time),585793.7000000002,A,flowe,I,e,61,2,815.7000000001863,584978.0,8006,WL,A,13.0
5,28.506999969482422,learn,60000.0,Thu Dec 12 2024 17:06:05 GMT-0600 (Central Standard Time),585810.5999999996,A,flower,I,r,0,2,832.5999999996275,584978.0,8006,WL,A,13.0
5,28.67300009727478,learn,60000.0,Thu Dec 12 2024 17:06:05 GMT-0600 (Central Standard Time),585977.0,A,flowerenter,I,enter,147,2,999.0,584978.0,8006,WL,A,13.0
5,29.42300009727478,learn,60000.0,Thu Dec 12 2024 17:06:05 GMT-0600 (Central Standard Time),586727.0,A,b,I,b,738,2,749.7000000001863,585977.2999999998,8006,WL,A,14.0
5,29.490000009536743,learn,60000.0,Thu Dec 12 2024 17:06:05 GMT-0600 (Central Standard Time),586793.5999999996,A,bo,I,o,53,2,816.2999999998137,585977.2999999998,8006,WL,A,14.0
5,29.623000144958496,learn,60000.0,Thu Dec 12 2024 17:06:05 GMT-0600 (Central Standard Time),586926.8999999994,A,boo,I,o,123,2,949.5999999996275,585977.2999999998,8006,WL,A,14.0
5,29.69000005722046,learn,60000.0,Thu Dec 12 2024 17:06:05 GMT-0600 (Central Standard Time),586993.5,A,book,I,k,46,2,1016.2000000001863,585977.2999999998,8006,WL,A,14.0
5,29.92300009727478,learn,60000.0,Thu Dec 12 2024 17:06:05 GMT-0600 (Central Standard Time),587226.7999999998,A,bookenter,I,enter,219,2,1249.5,585977.2999999998,8006,WL,A,14.0
5,30.140000104904175,learn,60000.0,Thu Dec 12 2024 17:06:05 GMT-0600 (Central Standard Time),587443.5999999996,A,t,I,t,194,2,216.5,587227.0999999996,8006,WL,A,15.0
5,30.305999994277954,learn,60000.0,Thu Dec 12 2024 17:06:05 GMT-0600 (Central Standard Time),587610.0,A,tr,I,r,144,2,382.90000000037253,587227.0999999996,8006,WL,A,15.0
5,30.33899998664856,learn,60000.0,Thu Dec 12 2024 17:06:05 GMT-0600 (Central Standard Time),587642.8999999994,A,tra,I,a,26,2,415.79999999981374,587227.0999999996,8006,WL,A,15.0
5,30.388999938964844,learn,60000.0,Thu Dec 12 2024 17:06:05 GMT-0600 (Central Standard Time),587693.0999999996,A,trai,I,i,41,2,466.0,587227.0999999996,8006,WL,A,15.0
5,30.490999937057495,learn,60000.0,Thu Dec 12 2024 17:06:05 GMT-0600 (Central Standard Time),587795.0999999996,A,train,I,n,87,2,568.0,587227.0999999996,8006,WL,A,15.0
5,30.77300000190735,learn,60000.0,Thu Dec 12 2024 17:06:05 GMT-0600 (Central Standard Time),588076.5,A,trainenter,I,enter,274,2,849.4000000003725,587227.0999999996,8006,WL,A,15.0
6,0.9340000152587891,distr,59065.99998474121,Thu Dec 12 2024 17:06:05 GMT-0600 (Central Standard Time),661870.0999999996,B,m,I,m,916,2,933.0999999996275,660937.0,8006,WL,A,1.0
6,1.316999912261963,distr,58683.00008773804,Thu Dec 12 2024 17:06:05 GMT-0600 (Central Standard Time),662253.3999999994,B,me,I,e,372,2,1316.3999999994412,660937.0,8006,WL,A,1.0
6,1.366999864578247,distr,58633.00013542175,Thu Dec 12 2024 17:06:05 GMT-0600 (Central Standard Time),662303.3999999994,B,mea,I,a,39,2,1366.3999999994412,660937.0,8006,WL,A,1.0
6,1.4499998092651367,distr,58550.00019073486,Thu Dec 12 2024 17:06:05 GMT-0600 (Central Standard Time),662386.7999999998,B,meal,I,l,69,2,1449.7999999998137,660937.0,8006,WL,A,1.0
6,2.049999952316284,distr,57950.000047683716,Thu Dec 12 2024 17:06:05 GMT-0600 (Central Standard Time),662986.3999999994,B,mealenter,I,enter,577,2,2049.399999999441,660937.0,8006,WL,A,1.0
6,2.8499999046325684,distr,57150.00009536743,Thu Dec 12 2024 17:06:05 GMT-0600 (Central Standard Time),663786.0999999996,B,c,I,c,786,2,799.3999999994412,662986.7000000002,8006,WL,A,2.0
6,2.9499998092651367,distr,57050.00019073486,Thu Dec 12 2024 17:06:05 GMT-0600 (Central Standard Time),663886.0999999996,B,co,I,o,89,2,899.3999999994412,662986.7000000002,8006,WL,A,2.0
6,3.115999937057495,distr,56884.000062942505,Thu Dec 12 2024 17:06:05 GMT-0600 (Central Standard Time),664052.7999999998,B,coa,I,a,151,2,1066.0999999996275,662986.7000000002,8006,WL,A,2.0
6,3.3329999446868896,distr,56667.00005531311,Thu Dec 12 2024 17:06:05 GMT-0600 (Central Standard Time),664269.3999999994,B,coat,I,t,200,2,1282.699999999255,662986.7000000002,8006,WL,A,2.0
6,3.4499998092651367,distr,56550.00019073486,Thu Dec 12 2024 17:06:05 GMT-0600 (Central Standard Time),664386.2000000002,B,coatenter,I,enter,103,2,1399.5,662986.7000000002,8006,WL,A,2.0
6,3.998999834060669,distr,56001.00016593933,Thu Dec 12 2024 17:06:05 GMT-0600 (Central Standard Time),664935.5999999996,B,b,I,b,538,2,549.2000000001863,664386.3999999994,8006,WL,A,3.0
6,4.049999952316284,distr,55950.000047683716,Thu Dec 12 2024 17:06:05 GMT-0600 (Central Standard Time),664986.2999999998,B,bo,I,o,44,2,599.9000000003725,664386.3999999994,8006,WL,A,3.0
6,4.233000040054321,distr,55766.99995994568,Thu Dec 12 2024 17:06:05 GMT-0600 (Central Standard Time),665169.0999999996,B,bot,I,t,162,2,782.7000000001863,664386.3999999994,8006,WL,A,3.0
6,4.348999977111816,distr,55651.00002288818,Thu Dec 12 2024 17:06:05 GMT-0600 (Central Standard Time),665285.7000000002,B,bott,I,t,99,2,899.3000000007451,664386.3999999994,8006,WL,A,3.0
6,4.432999849319458,distr,55567.00015068054,Thu Dec 12 2024 17:06:05 GMT-0600 (Central Standard Time),665368.8999999994,B,bottl,I,l,63,2,982.5,664386.3999999994,8006,WL,A,3.0
6,4.516000032424927,distr,55483.99996757507,Thu Dec 12 2024 17:06:05 GMT-0600 (Central Standard Time),665452.2999999998,B,bottle,I,e,75,2,1065.9000000003725,664386.3999999994,8006,WL,A,3.0
6,5.198999881744385,distr,54801.000118255615,Thu Dec 12 2024 17:06:05 GMT-0600 (Central Standard Time),666135.5,B,bottleenter,I,enter,670,2,1749.1000000005588,664386.3999999994,8006,WL,A,3.0
6,5.531999826431274,distr,54468.000173568726,Thu Dec 12 2024 17:06:05 GMT-0600 (Central Standard Time),666468.5999999996,B,p,I,p,324,2,332.79999999981374,666135.7999999998,8006,WL,A,4.0
6,5.615000009536743,distr,54384.99999046326,Thu Dec 12 2024 17:06:05 GMT-0600 (Central Standard Time),666551.8999999994,B,pe,I,e,72,2,416.09999999962747,666135.7999999998,8006,WL,A,4.0
6,5.681999921798706,distr,54318.000078201294,Thu Dec 12 2024 17:06:05 GMT-0600 (Central Standard Time),666618.5999999996,B,pea,I,a,44,2,482.79999999981374,666135.7999999998,8006,WL,A,4.0
6,5.832000017166138,distr,54167.99998283386,Thu Dec 12 2024 17:06:05 GMT-0600 (Central Standard Time),666768.5999999996,B,peac,I,c,137,2,632.7999999998137,666135.7999999998,8006,WL,A,4.0
6,6.014999866485596,distr,53985.000133514404,Thu Dec 12 2024 17:06:05 GMT-0600 (Central Standard Time),666951.7999999998,B,peach,I,h,172,2,816.0,666135.7999999998,8006,WL,A,4.0
6,6.4649999141693115,distr,53535.00008583069,Thu Dec 12 2024 17:06:05 GMT-0600 (Central Standard Time),667401.8999999994,B,peachenter,I,enter,437,2,1266.0999999996275,666135.7999999998,8006,WL,A,4.0
6,6.865000009536743,distr,53134.99999046326,Thu Dec 12 2024 17:06:05 GMT-0600 (Central Standard Time),667801.5,B,c,I,c,386,2,399.40000000037253,667402.0999999996,8006,WL,A,5.0
6,6.948999881744385,distr,53051.000118255615,Thu Dec 12 2024 17:06:05 GMT-0600 (Central Standard Time),667885.0,B,ch,I,h,75,2,482.90000000037253,667402.0999999996,8006,WL,A,5.0
6,7.049000024795532,distr,52950.99997520447,Thu Dec 12 2024 17:06:05 GMT-0600 (Central Standard Time),667985.0,B,cha,I,a,88,2,582.9000000003725,667402.0999999996,8006,WL,A,5.0
6,7.347999811172485,distr,52652.000188827515,Thu Dec 12 2024 17:06:05 GMT-0600 (Central Standard Time),668284.7999999998,B,chai,I,i,291,2,882.7000000001863,667402.0999999996,8006,WL,A,5.0
6,7.447999954223633,distr,52552.00004577637,Thu Dec 12 2024 17:06:05 GMT-0600 (Central Standard Time),668384.7999999998,B,chair,I,r,80,2,982.7000000001863,667402.0999999996,8006,WL,A,5.0
6,7.632999897003174,distr,52367.000102996826,Thu Dec 12 2024 17:06:05 GMT-0600 (Central Standard Time),668569.2000000002,B,chairenter,I,enter,163,2,1167.1000000005588,667402.0999999996,8006,WL,A,5.0
6,8.997999906539917,distr,51002.00009346008,Thu Dec 12 2024 17:06:05 GMT-0600 (Central Standard Time),669934.2000000002,B,p,I,p,1355,2,1364.7000000001863,668569.5,8006,WL,A,6.0
6,9.21399998664856,distr,50786.00001335144,Thu Dec 12 2024 17:06:05 GMT-0600 (Central Standard Time),670150.5999999996,B,po,I,o,206,2,1581.0999999996275,668569.5,8006,WL,A,6.0
6,9.38100004196167,distr,50618.99995803833,Thu Dec 12 2024 17:06:05 GMT-0600 (Central Standard Time),670317.5999999996,B,poo,I,o,148,2,1748.0999999996275,668569.5,8006,WL,A,6.0
6,9.547999858856201,distr,50452.0001411438,Thu Dec 12 2024 17:06:05 GMT-0600 (Central Standard Time),670484.0,B,pool,I,l,151,2,1914.5,668569.5,8006,WL,A,6.0
6,9.763999938964844,distr,50236.000061035156,Thu Dec 12 2024 17:06:05 GMT-0600 (Central Standard Time),670700.7999999998,B,poolenter,I,enter,201,2,2131.2999999998137,668569.5,8006,WL,A,6.0
6,10.146999835968018,distr,49853.00016403198,Thu Dec 12 2024 17:06:05 GMT-0600 (Central Standard Time),671083.5,B,c,I,c,376,2,382.29999999981374,670701.2000000002,8006,WL,A,7.0
6,10.21399998664856,distr,49786.00001335144,Thu Dec 12 2024 17:06:05 GMT-0600 (Central Standard Time),671150.5,B,co,I,o,57,2,449.29999999981374,670701.2000000002,8006,WL,A,7.0
6,10.280999898910522,distr,49719.00010108948,Thu Dec 12 2024 17:06:05 GMT-0600 (Central Standard Time),671217.2999999998,B,cou,I,u,54,2,516.0999999996275,670701.2000000002,8006,WL,A,7.0
6,10.44700002670288,distr,49552.99997329712,Thu Dec 12 2024 17:06:05 GMT-0600 (Central Standard Time),671383.7000000002,B,coun,I,n,147,2,682.5,670701.2000000002,8006,WL,A,7.0
6,10.54699993133545,distr,49453.00006866455,Thu Dec 12 2024 17:06:05 GMT-0600 (Central Standard Time),671483.5999999996,B,count,I,t,91,2,782.3999999994412,670701.2000000002,8006,WL,A,7.0
6,10.697999954223633,distr,49302.00004577637,Thu Dec 12 2024 17:06:05 GMT-0600 (Central Standard Time),671634.0,B,county,I,y,137,2,932.7999999998137,670701.2000000002,8006,WL,A,7.0
6,11.29699993133545,distr,48703.00006866455,Thu Dec 12 2024 17:06:05 GMT-0600 (Central Standard Time),672233.5999999996,B,countyenter,I,enter,586,2,1532.3999999994412,670701.2000000002,8006,WL,A,7.0
6,11.980000019073486,distr,48019.999980926514,Thu Dec 12 2024 17:06:05 GMT-0600 (Central Standard Time),672916.7000000002,B,p,I,p,674,2,682.8000000007451,672233.8999999994,8006,WL,A,8.0
6,12.146999835968018,distr,47853.00016403198,Thu Dec 12 2024 17:06:05 GMT-0600 (Central Standard Time),673083.2000000002,B,pa,I,a,160,2,849.3000000007451,672233.8999999994,8006,WL,A,8.0
6,12.662999868392944,distr,47337.000131607056,Thu Dec 12 2024 17:06:05 GMT-0600 (Central Standard Time),673599.7999999998,B,p,I,backspace,498,2,1365.9000000003725,672233.8999999994,8006,WL,A,8.0
6,12.86299991607666,distr,47137.00008392334,Thu Dec 12 2024 17:06:05 GMT-0600 (Central Standard Time),673799.8999999994,B,pl,I,l,189,2,1566.0,672233.8999999994,8006,WL,A,8.0
6,12.94700002670288,distr,47052.99997329712,Thu Dec 12 2024 17:06:05 GMT-0600 (Central Standard Time),673883.0,B,pla,I,a,76,2,1649.1000000005588,672233.8999999994,8006,WL,A,8.0
6,13.079999923706055,distr,46920.000076293945,Thu Dec 12 2024 17:06:05 GMT-0600 (Central Standard Time),674016.2000000002,B,plai,I,i,122,2,1782.300000000745,672233.8999999994,8006,WL,A,8.0
6,13.129999876022339,distr,46870.00012397766,Thu Dec 12 2024 17:06:05 GMT-0600 (Central Standard Time),674066.2000000002,B,plain,I,n,36,2,1832.300000000745,672233.8999999994,8006,WL,A,8.0
6,13.36299991607666,distr,46637.00008392334,Thu Dec 12 2024 17:06:05 GMT-0600 (Central Standard Time),674299.3999999994,B,plaine,I,e,225,2,2065.5,672233.8999999994,8006,WL,A,8.0
6,13.730000019073486,distr,46269.999980926514,Thu Dec 12 2024 17:06:05 GMT-0600 (Central Standard Time),674666.0999999996,B,plain,I,backspace,345,2,2432.2000000001863,672233.8999999994,8006,WL,A,8.0
6,13.86299991607666,distr,46137.00008392334,Thu Dec 12 2024 17:06:05 GMT-0600 (Central Standard Time),674799.2999999998,B,plai,I,backspace,123,2,2565.4000000003725,672233.8999999994,8006,WL,A,8.0
6,13.995999813079834,distr,46004.000186920166,Thu Dec 12 2024 17:06:05 GMT-0600 (Central Standard Time),674932.7000000002,B,pla,I,backspace,118,2,2698.800000000745,672233.8999999994,8006,WL,A,8.0
6,14.162999868392944,distr,45837.000131607056,Thu Dec 12 2024 17:06:05 GMT-0600 (Central Standard Time),675099.0999999996,B,plan,I,n,160,2,2865.2000000001863,672233.8999999994,8006,WL,A,8.0
6,14.245999813079834,distr,45754.000186920166,Thu Dec 12 2024 17:06:05 GMT-0600 (Central Standard Time),675182.7000000002,B,plane,I,e,66,2,2948.800000000745,672233.8999999994,8006,WL,A,8.0
6,14.562999963760376,distr,45437.000036239624,Thu Dec 12 2024 17:06:05 GMT-0600 (Central Standard Time),675499.2000000002,B,planeenter,I,enter,301,2,3265.300000000745,672233.8999999994,8006,WL,A,8.0
6,17.84500002861023,distr,42154.99997138977,Thu Dec 12 2024 17:06:05 GMT-0600 (Central Standard Time),678781.7000000002,B,b,I,b,3273,2,3282.100000000559,675499.5999999996,8006,WL,A,9.0
6,17.911999940872192,distr,42088.00005912781,Thu Dec 12 2024 17:06:05 GMT-0600 (Central Standard Time),678848.0999999996,B,bo,I,o,48,2,3348.5,675499.5999999996,8006,WL,A,9.0
6,18.01199984550476,distr,41988.00015449524,Thu Dec 12 2024 17:06:05 GMT-0600 (Central Standard Time),678948.2999999998,B,bow,I,w,83,2,3448.7000000001863,675499.5999999996,8006,WL,A,9.0
6,18.17799997329712,distr,41822.00002670288,Thu Dec 12 2024 17:06:05 GMT-0600 (Central Standard Time),679114.7999999998,B,bowl,I,l,144,2,3615.2000000001863,675499.5999999996,8006,WL,A,9.0
6,18.560999870300293,distr,41439.00012969971,Thu Dec 12 2024 17:06:05 GMT-0600 (Central Standard Time),679497.8999999994,B,bowlenter,I,enter,369,2,3998.2999999998137,675499.5999999996,8006,WL,A,9.0
6,25.64299988746643,distr,34357.00011253357,Thu Dec 12 2024 17:06:05 GMT-0600 (Central Standard Time),686579.0,B,i,I,i,7075,2,7080.799999999814,679498.2000000002,8006,WL,A,10.0
6,25.70899987220764,distr,34291.00012779236,Thu Dec 12 2024 17:06:05 GMT-0600 (Central Standard Time),686645.5999999996,B,in,I,n,49,2,7147.399999999441,679498.2000000002,8006,WL,A,10.0
6,25.89299988746643,distr,34107.00011253357,Thu Dec 12 2024 17:06:05 GMT-0600 (Central Standard Time),686829.0,B,ins,I,s,175,2,7330.799999999814,679498.2000000002,8006,WL,A,10.0
6,26.04199981689453,distr,33958.00018310547,Thu Dec 12 2024 17:06:05 GMT-0600 (Central Standard Time),686978.5,B,inse,I,e,143,2,7480.299999999814,679498.2000000002,8006,WL,A,10.0
6,26.22499990463257,distr,33775.00009536743,Thu Dec 12 2024 17:06:05 GMT-0600 (Central Standard Time),687161.8999999994,B,insec,I,c,168,2,7663.699999999255,679498.2000000002,8006,WL,A,10.0
6,26.39199995994568,distr,33608.00004005432,Thu Dec 12 2024 17:06:05 GMT-0600 (Central Standard Time),687328.7999999998,B,insect,I,t,146,2,7830.5999999996275,679498.2000000002,8006,WL,A,10.0
6,26.658999919891357,distr,33341.00008010864,Thu Dec 12 2024 17:06:05 GMT-0600 (Central Standard Time),687595.0999999996,B,insectenter,I,enter,260,2,8096.899999999441,679498.2000000002,8006,WL,A,10.0
6,34.43999981880188,distr,25560.00018119812,Thu Dec 12 2024 17:06:05 GMT-0600 (Central Standard Time),695376.2999999998,B,j,I,j,7761,2,7781.0,687595.2999999998,8006,WL,A,11.0
6,34.58999991416931,distr,25410.00008583069,Thu Dec 12 2024 17:06:05 GMT-0600 (Central Standard Time),695526.2999999998,B,ju,I,u,138,2,7931.0,687595.2999999998,8006,WL,A,11.0
6,34.70599985122681,distr,25294.000148773193,Thu Dec 12 2024 17:06:05 GMT-0600 (Central Standard Time),695642.7999999998,B,jud,I,d,101,2,8047.5,687595.2999999998,8006,WL,A,11.0
6,34.83999991416931,distr,25160.00008583069,Thu Dec 12 2024 17:06:05 GMT-0600 (Central Standard Time),695776.2999999998,B,judy,I,y,114,2,8181.0,687595.2999999998,8006,WL,A,11.0
6,35.27300000190735,distr,24726.99999809265,Thu Dec 12 2024 17:06:05 GMT-0600 (Central Standard Time),696209.3999999994,B,jud,I,backspace,421,2,8614.099999999627,687595.2999999998,8006,WL,A,11.0
6,35.50600004196167,distr,24493.99995803833,Thu Dec 12 2024 17:06:05 GMT-0600 (Central Standard Time),696442.7000000002,B,judd,I,d,211,2,8847.400000000373,687595.2999999998,8006,WL,A,11.0
6,35.95599985122681,distr,24044.000148773193,Thu Dec 12 2024 17:06:05 GMT-0600 (Central Standard Time),696892.3999999994,B,jud,I,backspace,433,2,9297.099999999627,687595.2999999998,8006,WL,A,11.0
6,36.07299995422363,distr,23927.000045776367,Thu Dec 12 2024 17:06:05 GMT-0600 (Central Standard Time),697009.0999999996,B,judg,I,g,96,2,9413.799999999814,687595.2999999998,8006,WL,A,11.0
6,36.1729998588562,distr,23827.0001411438,Thu Dec 12 2024 17:06:05 GMT-0600 (Central Standard Time),697109.0,B,judge,I,e,92,2,9513.700000000186,687595.2999999998,8006,WL,A,11.0
6,38.138999938964844,distr,21861.000061035156,Thu Dec 12 2024 17:06:05 GMT-0600 (Central Standard Time),699075.0999999996,B,judgeenter,I,enter,1951,2,11479.799999999814,687595.2999999998,8006,WL,A,11.0
6,38.388999938964844,distr,21611.000061035156,Thu Dec 12 2024 17:06:05 GMT-0600 (Central Standard Time),699325.0999999996,B,g,I,g,234,2,249.59999999962747,699075.5,8006,WL,A,12.0
6,38.539000034332275,distr,21460.999965667725,Thu Dec 12 2024 17:06:05 GMT-0600 (Central Standard Time),699475.0,B,gr,I,r,144,2,399.5,699075.5,8006,WL,A,12.0
6,38.57200002670288,distr,21427.99997329712,Thu Dec 12 2024 17:06:05 GMT-0600 (Central Standard Time),699508.2000000002,B,gra,I,a,18,2,432.70000000018626,699075.5,8006,WL,A,12.0
6,38.72199988365173,distr,21278.000116348267,Thu Dec 12 2024 17:06:05 GMT-0600 (Central Standard Time),699658.2000000002,B,gran,I,n,137,2,582.7000000001863,699075.5,8006,WL,A,12.0
6,38.80499982833862,distr,21195.000171661377,Thu Dec 12 2024 17:06:05 GMT-0600 (Central Standard Time),699741.5999999996,B,grant,I,t,65,2,666.0999999996275,699075.5,8006,WL,A,12.0
6,39.02199983596802,distr,20978.000164031982,Thu Dec 12 2024 17:06:05 GMT-0600 (Central Standard Time),699958.2000000002,B,grantenter,I,enter,199,2,882.7000000001863,699075.5,8006,WL,A,12.0
6,39.58799982070923,distr,20412.00017929077,Thu Dec 12 2024 17:06:05 GMT-0600 (Central Standard Time),700524.8999999994,B,enter,I,enter,550,2,566.3999999994412,699958.5,8006,WL,A,13.0
6,40.15499997138977,distr,19845.00002861023,Thu Dec 12 2024 17:06:05 GMT-0600 (Central Standard Time),701091.0999999996,B,enter,I,enter,551,2,565.8999999994412,700525.2000000002,8006,WL,A,14.0
6,40.47099995613098,distr,19529.00004386902,Thu Dec 12 2024 17:06:05 GMT-0600 (Central Standard Time),701407.7999999998,B,enter,I,enter,298,2,316.40000000037253,701091.3999999994,8006,WL,A,15.0
7,12.378999948501587,immed,47621.00005149841,Thu Dec 12 2024 17:06:05 GMT-0600 (Central Standard Time),714804.7000000002,A,t,I,t,12373,2,12380.400000000373,702424.2999999998,8006,WL,A,1.0
7,12.545000076293945,immed,47454.999923706055,Thu Dec 12 2024 17:06:05 GMT-0600 (Central Standard Time),714970.2999999998,A,tr,I,r,151,2,12546.0,702424.2999999998,8006,WL,A,1.0
7,12.562000036239624,immed,47437.999963760376,Thu Dec 12 2024 17:06:05 GMT-0600 (Central Standard Time),714987.2000000002,A,tra,I,a,10,2,12562.900000000373,702424.2999999998,8006,WL,A,1.0
7,12.960999965667725,immed,47039.000034332275,Thu Dec 12 2024 17:06:05 GMT-0600 (Central Standard Time),715386.7999999998,A,trai,I,i,386,2,12962.5,702424.2999999998,8006,WL,A,1.0
7,13.028000116348267,immed,46971.99988365173,Thu Dec 12 2024 17:06:05 GMT-0600 (Central Standard Time),715453.7000000002,A,train,I,n,49,2,13029.400000000373,702424.2999999998,8006,WL,A,1.0
7,13.41100001335144,immed,46588.99998664856,Thu Dec 12 2024 17:06:05 GMT-0600 (Central Standard Time),715836.5,A,trainenter,I,enter,367,2,13412.200000000186,702424.2999999998,8006,WL,A,1.0
7,13.750999927520752,immed,46249.00007247925,Thu Dec 12 2024 17:06:05 GMT-0600 (Central Standard Time),716176.7000000002,A,m,I,m,333,2,339.90000000037253,715836.7999999998,8006,WL,A,2.0
7,13.898000001907349,immed,46101.99999809265,Thu Dec 12 2024 17:06:05 GMT-0600 (Central Standard Time),716323.7000000002,A,ma,I,a,58,2,486.90000000037253,715836.7999999998,8006,WL,A,2.0
7,14.127000093460083,immed,45872.99990653992,Thu Dec 12 2024 17:06:05 GMT-0600 (Central Standard Time),716553.0,A,mad,I,d,210,2,716.2000000001863,715836.7999999998,8006,WL,A,2.0
7,14.49399995803833,immed,45506.00004196167,Thu Dec 12 2024 17:06:05 GMT-0600 (Central Standard Time),716919.5999999996,A,ma,I,backspace,356,2,1082.7999999998137,715836.7999999998,8006,WL,A,2.0
7,14.627000093460083,immed,45372.99990653992,Thu Dec 12 2024 17:06:05 GMT-0600 (Central Standard Time),717052.5999999996,A,m,I,backspace,124,2,1215.7999999998137,715836.7999999998,8006,WL,A,2.0
7,14.82699990272522,immed,45173.00009727478,Thu Dec 12 2024 17:06:05 GMT-0600 (Central Standard Time),717252.3999999994,A,md,I,d,191,2,1415.5999999996275,715836.7999999998,8006,WL,A,2.0
7,15.07699990272522,immed,44923.00009727478,Thu Dec 12 2024 17:06:05 GMT-0600 (Central Standard Time),717502.5999999996,A,mde,I,e,232,2,1665.7999999998137,715836.7999999998,8006,WL,A,2.0
7,15.377000093460083,immed,44622.99990653992,Thu Dec 12 2024 17:06:05 GMT-0600 (Central Standard Time),717802.7000000002,A,md,I,backspace,294,2,1965.9000000003725,715836.7999999998,8006,WL,A,2.0
7,15.509999990463257,immed,44490.00000953674,Thu Dec 12 2024 17:06:05 GMT-0600 (Central Standard Time),717935.7000000002,A,m,I,backspace,121,2,2098.9000000003725,715836.7999999998,8006,WL,A,2.0
7,15.609999895095825,immed,44390.000104904175,Thu Dec 12 2024 17:06:05 GMT-0600 (Central Standard Time),718035.5,A,me,I,e,84,2,2198.7000000001863,715836.7999999998,8006,WL,A,2.0
7,15.776999950408936,immed,44223.000049591064,Thu Dec 12 2024 17:06:05 GMT-0600 (Central Standard Time),718202.2000000002,A,med,I,d,152,2,2365.4000000003725,715836.7999999998,8006,WL,A,2.0
7,16.026000022888184,immed,43973.99997711182,Thu Dec 12 2024 17:06:05 GMT-0600 (Central Standard Time),718452.0999999996,A,meda,I,a,234,2,2615.2999999998137,715836.7999999998,8006,WL,A,2.0
7,16.342999935150146,immed,43657.00006484985,Thu Dec 12 2024 17:06:05 GMT-0600 (Central Standard Time),718768.7000000002,A,med,I,backspace,303,2,2931.9000000003725,715836.7999999998,8006,WL,A,2.0
7,16.743000030517578,immed,43256.99996948242,Thu Dec 12 2024 17:06:05 GMT-0600 (Central Standard Time),719168.5999999996,A,me,I,backspace,379,2,3331.7999999998137,715836.7999999998,8006,WL,A,2.0
7,16.859999895095825,immed,43140.000104904175,Thu Dec 12 2024 17:06:05 GMT-0600 (Central Standard Time),719285.2999999998,A,mea,I,a,99,2,3448.5,715836.7999999998,8006,WL,A,2.0
7,17.009999990463257,immed,42990.00000953674,Thu Dec 12 2024 17:06:05 GMT-0600 (Central Standard Time),719435.2000000002,A,mead,I,d,134,2,3598.4000000003725,715836.7999999998,8006,WL,A,2.0
7,17.342999935150146,immed,42657.00006484985,Thu Dec 12 2024 17:06:05 GMT-0600 (Central Standard Time),719768.3999999994,A,meado,I,o,311,2,3931.5999999996275,715836.7999999998,8006,WL,A,2.0
