Number,acc_sum,block,block_c,block_cond,con_img,correct,correct_response,datetime,endtime,jitter,project,response,response_time,row_sel,session_number,start_end,starttime,subject_id,task,task_vers,trial
8,1,prac,1,A,circle.png,1,m,Wed Mar 05 2025 10:07:23 GMT-0600 (Central Standard Time),70093.30000007153,1600,O,m,1235,7,1,3622.7000000476837,66470.60000002384,7086,NTS,C,1
1,2,prac,1,A,circle.png,1,z,Wed Mar 05 2025 10:07:23 GMT-0600 (Central Standard Time),73009.90000009537,1000,O,z,1132,1,1,2911.7000000476837,70098.20000004768,7086,NTS,C,2
3,3,prac,1,A,circle.png,1,z,Wed Mar 05 2025 10:07:23 GMT-0600 (Central Standard Time),75843.5,1200,O,z,836,3,1,2828.399999976158,73015.10000002384,7086,NTS,C,3
4,4,prac,1,A,circle.png,1,z,Wed Mar 05 2025 10:07:23 GMT-0600 (Central Standard Time),78759.70000004768,1400,O,z,728,4,1,2910.899999976158,75848.80000007153,7086,NTS,C,4
9,5,prac,1,A,circle.png,1,m,Wed Mar 05 2025 10:07:23 GMT-0600 (Central Standard Time),81741.70000004768,1500,O,m,693,8,1,2975.100000023842,78766.60000002384,7086,NTS,C,5
7,6,prac,1,A,circle.png,1,m,Wed Mar 05 2025 10:07:23 GMT-0600 (Central Standard Time),84940.70000004768,1700,O,m,703,6,1,3191.7000000476837,81749.0,7086,NTS,C,6
6,7,prac,1,A,circle.png,1,m,Wed Mar 05 2025 10:07:23 GMT-0600 (Central Standard Time),88407.90000009537,1900,O,m,793,5,1,3458.7000000476837,84949.20000004768,7086,NTS,C,7
4,8,prac,1,A,circle.png,1,z,Wed Mar 05 2025 10:07:23 GMT-0600 (Central Standard Time),91538.40000009537,1400,O,z,939,4,1,3125.600000023842,88412.80000007153,7086,NTS,C,8
6,9,prac,1,A,circle.png,1,m,Wed Mar 05 2025 10:07:23 GMT-0600 (Central Standard Time),95039.0,1900,O,m,826,5,1,3494.2999999523163,91544.70000004768,7086,NTS,C,9
3,10,prac,1,A,circle.png,1,z,Wed Mar 05 2025 10:07:23 GMT-0600 (Central Standard Time),97687.5,1200,O,z,651,3,1,2640.7999999523163,95046.70000004768,7086,NTS,C,10
2,11,prac,1,A,circle.png,1,z,Wed Mar 05 2025 10:07:23 GMT-0600 (Central Standard Time),101219.90000009537,2000,O,z,761,2,1,3525.0,97694.90000009537,7086,NTS,C,11
7,12,prac,1,A,circle.png,1,m,Wed Mar 05 2025 10:07:23 GMT-0600 (Central Standard Time),104417.40000009537,1700,O,m,716,6,1,3190.8000000715256,101226.60000002384,7086,NTS,C,12
1,0,prac,1,B,triangle.png,0,z,Wed Mar 05 2025 10:07:23 GMT-0600 (Central Standard Time),142771.80000007153,1900,O,None,1515,1,1,4186.600000023842,138585.20000004768,7086,NTS,C,1
2,1,prac,1,B,triangle.png,1,m,Wed Mar 05 2025 10:07:23 GMT-0600 (Central Standard Time),146072.0,1700,O,m,801,2,1,3291.7999999523163,142780.20000004768,7086,NTS,C,2
6,2,prac,1,B,triangle.png,1,m,Wed Mar 05 2025 10:07:23 GMT-0600 (Central Standard Time),148819.70000004768,1000,O,m,948,5,1,2739.600000023842,146080.10000002384,7086,NTS,C,3
2,3,prac,1,B,triangle.png,1,m,Wed Mar 05 2025 10:07:23 GMT-0600 (Central Standard Time),152369.60000002384,1700,O,m,1049,2,1,3542.7999999523163,148826.80000007153,7086,NTS,C,4
4,4,prac,1,B,triangle.png,1,m,Wed Mar 05 2025 10:07:23 GMT-0600 (Central Standard Time),155367.5,1500,O,m,700,4,1,2990.1999999284744,152377.30000007153,7086,NTS,C,5
6,5,prac,1,B,triangle.png,1,m,Wed Mar 05 2025 10:07:23 GMT-0600 (Central Standard Time),157835.70000004768,1000,O,m,683,5,1,2461.399999976158,155374.30000007153,7086,NTS,C,6
3,6,prac,1,B,triangle.png,1,z,Wed Mar 05 2025 10:07:23 GMT-0600 (Central Standard Time),160834.10000002384,1600,O,z,601,3,1,2991.399999976158,157842.70000004768,7086,NTS,C,7
7,7,prac,1,B,triangle.png,1,z,Wed Mar 05 2025 10:07:23 GMT-0600 (Central Standard Time),164431.70000004768,2000,O,z,808,6,1,3589.2999999523163,160842.40000009537,7086,NTS,C,8
4,8,prac,1,B,triangle.png,1,m,Wed Mar 05 2025 10:07:23 GMT-0600 (Central Standard Time),167381.0,1500,O,m,660,4,1,2942.5,164438.5,7086,NTS,C,9
9,9,prac,1,B,triangle.png,1,z,Wed Mar 05 2025 10:07:23 GMT-0600 (Central Standard Time),170732.40000009537,1400,O,z,1157,8,1,3344.8000000715256,167387.60000002384,7086,NTS,C,10
9,10,prac,1,B,triangle.png,1,z,Wed Mar 05 2025 10:07:23 GMT-0600 (Central Standard Time),173478.40000009537,1400,O,z,551,8,1,2741.8000000715256,170736.60000002384,7086,NTS,C,11
8,11,prac,1,B,triangle.png,1,m,Wed Mar 05 2025 10:07:23 GMT-0600 (Central Standard Time),176227.20000004768,1200,O,m,753,7,1,2742.0,173485.20000004768,7086,NTS,C,12
8,1,test,1,A,circle.png,1,m,Wed Mar 05 2025 10:07:23 GMT-0600 (Central Standard Time),200354.60000002384,1600,O,m,1214,7,1,2829.1999999284744,197525.40000009537,7086,NTS,C,1
4,2,test,1,A,circle.png,1,z,Wed Mar 05 2025 10:07:23 GMT-0600 (Central Standard Time),202918.5,1400,O,z,1133,4,1,2557.899999976158,200360.60000002384,7086,NTS,C,2
8,3,test,1,A,circle.png,1,m,Wed Mar 05 2025 10:07:23 GMT-0600 (Central Standard Time),205237.30000007153,1600,O,m,701,7,1,2316.2000000476837,202921.10000002384,7086,NTS,C,3
1,4,test,1,A,circle.png,1,z,Wed Mar 05 2025 10:07:23 GMT-0600 (Central Standard Time),206986.0,1000,O,z,725,1,1,1743.7999999523163,205242.20000004768,7086,NTS,C,4
4,5,test,1,A,circle.png,1,z,Wed Mar 05 2025 10:07:23 GMT-0600 (Central Standard Time),209433.80000007153,1400,O,z,1014,4,1,2442.2000000476837,206991.60000002384,7086,NTS,C,5
6,6,test,1,A,circle.png,1,m,Wed Mar 05 2025 10:07:23 GMT-0600 (Central Standard Time),212183.70000004768,1900,O,m,818,5,1,2744.100000023842,209439.60000002384,7086,NTS,C,6
6,6,test,1,A,circle.png,0,m,Wed Mar 05 2025 10:07:23 GMT-0600 (Central Standard Time),215615.40000009537,1900,O,None,1516,5,1,3427.3000000715256,212188.10000002384,7086,NTS,C,7
6,7,test,1,A,circle.png,1,m,Wed Mar 05 2025 10:07:23 GMT-0600 (Central Standard Time),218133.20000004768,1900,O,m,601,5,1,2512.600000023842,215620.60000002384,7086,NTS,C,8
9,8,test,1,A,circle.png,1,m,Wed Mar 05 2025 10:07:23 GMT-0600 (Central Standard Time),220513.90000009537,1500,O,m,849,8,1,2375.0,218138.90000009537,7086,NTS,C,9
1,9,test,1,A,circle.png,1,z,Wed Mar 05 2025 10:07:23 GMT-0600 (Central Standard Time),222346.80000007153,1000,O,z,806,1,1,1827.7000000476837,220519.10000002384,7086,NTS,C,10
7,10,test,1,A,circle.png,1,m,Wed Mar 05 2025 10:07:23 GMT-0600 (Central Standard Time),224929.40000009537,1700,O,m,857,6,1,2578.600000023842,222350.80000007153,7086,NTS,C,11
6,11,test,1,A,circle.png,1,m,Wed Mar 05 2025 10:07:23 GMT-0600 (Central Standard Time),227843.60000002384,1900,O,m,988,5,1,2909.7999999523163,224933.80000007153,7086,NTS,C,12
2,12,test,1,A,circle.png,1,z,Wed Mar 05 2025 10:07:23 GMT-0600 (Central Standard Time),230559.90000009537,2000,O,z,686,2,1,2710.600000023842,227849.30000007153,7086,NTS,C,13
2,13,test,1,A,circle.png,1,z,Wed Mar 05 2025 10:07:23 GMT-0600 (Central Standard Time),233326.40000009537,2000,O,z,734,2,1,2760.4000000953674,230566.0,7086,NTS,C,14
9,14,test,1,A,circle.png,1,m,Wed Mar 05 2025 10:07:23 GMT-0600 (Central Standard Time),235526.20000004768,1500,O,m,670,8,1,2193.7000000476837,233332.5,7086,NTS,C,15
4,15,test,1,A,circle.png,1,z,Wed Mar 05 2025 10:07:23 GMT-0600 (Central Standard Time),237758.80000007153,1400,O,z,802,4,1,2227.3000000715256,235531.5,7086,NTS,C,16
4,16,test,1,A,circle.png,1,z,Wed Mar 05 2025 10:07:23 GMT-0600 (Central Standard Time),239973.60000002384,1400,O,z,795,4,1,2209.6999999284744,237763.90000009537,7086,NTS,C,17
3,17,test,1,A,circle.png,1,z,Wed Mar 05 2025 10:07:23 GMT-0600 (Central Standard Time),242008.40000009537,1200,O,z,809,3,1,2030.7000000476837,239977.70000004768,7086,NTS,C,18
7,18,test,1,A,circle.png,1,m,Wed Mar 05 2025 10:07:23 GMT-0600 (Central Standard Time),244523.70000004768,1700,O,m,788,6,1,2508.5,242015.20000004768,7086,NTS,C,19
2,19,test,1,A,circle.png,1,z,Wed Mar 05 2025 10:07:23 GMT-0600 (Central Standard Time),247207.30000007153,2000,O,z,651,2,1,2679.3000000715256,244528.0,7086,NTS,C,20
9,20,test,1,A,circle.png,1,m,Wed Mar 05 2025 10:07:23 GMT-0600 (Central Standard Time),249738.20000004768,1500,O,m,1001,8,1,2522.2000000476837,247216.0,7086,NTS,C,21
9,21,test,1,A,circle.png,1,m,Wed Mar 05 2025 10:07:23 GMT-0600 (Central Standard Time),251789.80000007153,1500,O,m,534,8,1,2045.5,249744.30000007153,7086,NTS,C,22
7,22,test,1,A,circle.png,1,m,Wed Mar 05 2025 10:07:23 GMT-0600 (Central Standard Time),254220.5,1700,O,m,704,6,1,2424.7999999523163,251795.70000004768,7086,NTS,C,23
3,23,test,1,A,circle.png,1,z,Wed Mar 05 2025 10:07:23 GMT-0600 (Central Standard Time),256153.20000004768,1200,O,z,697,3,1,1927.6000000238419,254225.60000002384,7086,NTS,C,24
7,1,test,1,B,triangle.png,1,z,Wed Mar 05 2025 10:07:23 GMT-0600 (Central Standard Time),273631.0,2000,O,z,919,6,1,2942.5,270688.5,7086,NTS,C,1
1,2,test,1,B,triangle.png,1,z,Wed Mar 05 2025 10:07:23 GMT-0600 (Central Standard Time),275662.10000002384,1400,O,z,612,9,1,2027.7999999523163,273634.3000000715,7086,NTS,C,2
8,3,test,1,B,triangle.png,1,m,Wed Mar 05 2025 10:07:23 GMT-0600 (Central Standard Time),278028.8000000715,1700,O,m,638,15,1,2359.399999976158,275669.40000009537,7086,NTS,C,3
2,4,test,1,B,triangle.png,1,m,Wed Mar 05 2025 10:07:23 GMT-0600 (Central Standard Time),280611.0,1700,O,m,853,2,1,2577.6999999284744,278033.3000000715,7086,NTS,C,4
1,5,test,1,B,triangle.png,1,z,Wed Mar 05 2025 10:07:23 GMT-0600 (Central Standard Time),283044.2000000477,1900,O,z,506,1,1,2427.7000000476837,280616.5,7086,NTS,C,5
2,6,test,1,B,triangle.png,1,m,Wed Mar 05 2025 10:07:23 GMT-0600 (Central Standard Time),285310.40000009537,1200,O,m,1037,10,1,2261.5,283048.90000009537,7086,NTS,C,6
7,7,test,1,B,triangle.png,1,z,Wed Mar 05 2025 10:07:23 GMT-0600 (Central Standard Time),288058.7000000477,1600,O,z,1122,14,1,2742.7000000476837,285316.0,7086,NTS,C,7
3,8,test,1,B,triangle.png,1,z,Wed Mar 05 2025 10:07:23 GMT-0600 (Central Standard Time),290658.5,2000,O,z,574,11,1,2595.1999999284744,288063.3000000715,7086,NTS,C,8
4,9,test,1,B,triangle.png,1,m,Wed Mar 05 2025 10:07:23 GMT-0600 (Central Standard Time),292375.2000000477,1000,O,m,686,12,1,1712.6000000238419,290662.60000002384,7086,NTS,C,9
4,10,test,1,B,triangle.png,1,m,Wed Mar 05 2025 10:07:23 GMT-0600 (Central Standard Time),294390.7000000477,1500,O,m,486,4,1,2010.7000000476837,292380.0,7086,NTS,C,10
6,11,test,1,B,triangle.png,1,m,Wed Mar 05 2025 10:07:23 GMT-0600 (Central Standard Time),296658.5,1500,O,m,734,13,1,2262.5999999046326,294395.90000009537,7086,NTS,C,11
4,12,test,1,B,triangle.png,1,m,Wed Mar 05 2025 10:07:23 GMT-0600 (Central Standard Time),298756.0,1000,O,m,1073,12,1,2095.0,296661.0,7086,NTS,C,12
9,13,test,1,B,triangle.png,1,z,Wed Mar 05 2025 10:07:23 GMT-0600 (Central Standard Time),301055.60000002384,1400,O,z,878,8,1,2295.0,298760.60000002384,7086,NTS,C,13
2,14,test,1,B,triangle.png,1,m,Wed Mar 05 2025 10:07:23 GMT-0600 (Central Standard Time),303323.40000009537,1200,O,m,1050,10,1,2263.5,301059.90000009537,7086,NTS,C,14
1,15,test,1,B,triangle.png,1,z,Wed Mar 05 2025 10:07:23 GMT-0600 (Central Standard Time),305470.60000002384,1400,O,z,720,9,1,2141.899999976158,303328.7000000477,7086,NTS,C,15
3,16,test,1,B,triangle.png,1,z,Wed Mar 05 2025 10:07:23 GMT-0600 (Central Standard Time),308237.5,2000,O,z,750,11,1,2762.1999999284744,305475.3000000715,7086,NTS,C,16
7,17,test,1,B,triangle.png,1,z,Wed Mar 05 2025 10:07:23 GMT-0600 (Central Standard Time),311351.0,2000,O,z,1093,6,1,3108.2999999523163,308242.7000000477,7086,NTS,C,17
7,18,test,1,B,triangle.png,1,z,Wed Mar 05 2025 10:07:23 GMT-0600 (Central Standard Time),313452.3000000715,1600,O,z,483,14,1,2097.399999976158,311354.90000009537,7086,NTS,C,18
6,19,test,1,B,triangle.png,1,m,Wed Mar 05 2025 10:07:23 GMT-0600 (Central Standard Time),315083.7000000477,1000,O,m,615,5,1,1625.8999999761581,313457.8000000715,7086,NTS,C,19
4,20,test,1,B,triangle.png,1,m,Wed Mar 05 2025 10:07:23 GMT-0600 (Central Standard Time),317483.2000000477,1500,O,m,873,4,1,2394.7000000476837,315088.5,7086,NTS,C,20
8,21,test,1,B,triangle.png,1,m,Wed Mar 05 2025 10:07:23 GMT-0600 (Central Standard Time),320015.40000009537,1700,O,m,810,15,1,2528.100000023842,317487.3000000715,7086,NTS,C,21
3,22,test,1,B,triangle.png,1,z,Wed Mar 05 2025 10:07:23 GMT-0600 (Central Standard Time),322231.3000000715,1600,O,z,586,3,1,2210.8000000715256,320020.5,7086,NTS,C,22
9,23,test,1,B,triangle.png,1,z,Wed Mar 05 2025 10:07:23 GMT-0600 (Central Standard Time),325564.40000009537,1900,O,z,1405,16,1,3328.3000000715256,322236.10000002384,7086,NTS,C,23
8,24,test,1,B,triangle.png,1,m,Wed Mar 05 2025 10:07:23 GMT-0600 (Central Standard Time),327528.90000009537,1200,O,m,733,7,1,1959.4000000953674,325569.5,7086,NTS,C,24
8,0,prac,1,C,triangle.png,0,m,Wed Mar 05 2025 10:07:23 GMT-0600 (Central Standard Time),380012.8000000715,1400,O,None,1516,7,1,3691.100000023842,376321.7000000477,7086,NTS,C,1
3,1,prac,1,C,triangle.png,1,z,Wed Mar 05 2025 10:07:23 GMT-0600 (Central Standard Time),382929.0,1500,O,z,633,3,1,2910.2999999523163,380018.7000000477,7086,NTS,C,2
9,2,prac,1,C,circle.png,1,m,Wed Mar 05 2025 10:07:23 GMT-0600 (Central Standard Time),386661.8000000715,1900,O,m,1052,8,1,3723.7000000476837,382938.10000002384,7086,NTS,C,3
2,3,prac,1,C,triangle.png,1,m,Wed Mar 05 2025 10:07:23 GMT-0600 (Central Standard Time),390028.8000000715,1600,O,m,987,2,1,3354.8000000715256,386674.0,7086,NTS,C,4
1,4,prac,1,C,circle.png,1,z,Wed Mar 05 2025 10:07:23 GMT-0600 (Central Standard Time),393393.5,1700,O,z,890,1,1,3358.5999999046326,390034.90000009537,7086,NTS,C,5
2,5,prac,1,C,triangle.png,1,m,Wed Mar 05 2025 10:07:23 GMT-0600 (Central Standard Time),397125.10000002384,1600,O,m,1337,2,1,3722.1999999284744,393402.90000009537,7086,NTS,C,6
8,6,prac,1,C,triangle.png,1,m,Wed Mar 05 2025 10:07:23 GMT-0600 (Central Standard Time),400290.7000000477,1400,O,m,971,7,1,3157.399999976158,397133.3000000715,7086,NTS,C,7
9,7,prac,1,C,circle.png,1,m,Wed Mar 05 2025 10:07:23 GMT-0600 (Central Standard Time),403606.10000002384,1900,O,m,636,8,1,3307.899999976158,400298.2000000477,7086,NTS,C,8
4,8,prac,1,C,circle.png,1,z,Wed Mar 05 2025 10:07:23 GMT-0600 (Central Standard Time),406502.60000002384,1000,O,z,1107,4,1,2890.0,403612.60000002384,7086,NTS,C,9
1,9,prac,1,C,circle.png,1,z,Wed Mar 05 2025 10:07:23 GMT-0600 (Central Standard Time),410104.7000000477,1700,O,z,1124,1,1,3598.2000000476837,406506.5,7086,NTS,C,10
7,10,prac,1,C,triangle.png,1,z,Wed Mar 05 2025 10:07:23 GMT-0600 (Central Standard Time),413386.10000002384,1200,O,z,1298,6,1,3271.399999976158,410114.7000000477,7086,NTS,C,11
6,11,prac,1,C,circle.png,1,m,Wed Mar 05 2025 10:07:23 GMT-0600 (Central Standard Time),417402.40000009537,2000,O,m,1216,5,1,4008.7000000476837,413393.7000000477,7086,NTS,C,12
3,1,prac,2,C,triangle.png,1,z,Wed Mar 05 2025 10:07:23 GMT-0600 (Central Standard Time),438594.0,1500,O,z,1055,3,1,3340.1999999284744,435253.8000000715,7086,NTS,C,1
1,2,prac,2,C,circle.png,1,z,Wed Mar 05 2025 10:07:23 GMT-0600 (Central Standard Time),442577.90000009537,1700,O,z,1489,1,1,3978.600000023842,438599.3000000715,7086,NTS,C,2
3,3,prac,2,C,triangle.png,1,z,Wed Mar 05 2025 10:07:23 GMT-0600 (Central Standard Time),446109.3000000715,1500,O,z,1246,3,1,3524.399999976158,442584.90000009537,7086,NTS,C,3
6,4,prac,2,C,circle.png,1,m,Wed Mar 05 2025 10:07:23 GMT-0600 (Central Standard Time),449675.0,2000,O,m,773,5,1,3558.899999976158,446116.10000002384,7086,NTS,C,4
4,5,prac,2,C,circle.png,1,z,Wed Mar 05 2025 10:07:23 GMT-0600 (Central Standard Time),452756.10000002384,1000,O,z,1285,4,1,3074.600000023842,449681.5,7086,NTS,C,5
9,6,prac,2,C,circle.png,1,m,Wed Mar 05 2025 10:07:23 GMT-0600 (Central Standard Time),456490.10000002384,1900,O,m,1048,8,1,3725.6999999284744,452764.40000009537,7086,NTS,C,6
2,6,prac,2,C,triangle.png,0,m,Wed Mar 05 2025 10:07:23 GMT-0600 (Central Standard Time),460137.40000009537,1600,O,z,1257,2,1,3639.4000000953674,456498.0,7086,NTS,C,7
7,7,prac,2,C,triangle.png,1,z,Wed Mar 05 2025 10:07:23 GMT-0600 (Central Standard Time),463154.0,1200,O,z,1033,6,1,3011.0999999046326,460142.90000009537,7086,NTS,C,8
8,7,prac,2,C,triangle.png,0,m,Wed Mar 05 2025 10:07:23 GMT-0600 (Central Standard Time),466851.90000009537,1400,O,None,1516,7,1,3690.600000023842,463161.3000000715,7086,NTS,C,9
9,8,prac,2,C,circle.png,1,m,Wed Mar 05 2025 10:07:23 GMT-0600 (Central Standard Time),470501.40000009537,1900,O,m,952,8,1,3645.0,466856.40000009537,7086,NTS,C,10
6,9,prac,2,C,circle.png,1,m,Wed Mar 05 2025 10:07:23 GMT-0600 (Central Standard Time),474067.60000002384,2000,O,m,774,5,1,3558.100000023842,470509.5,7086,NTS,C,11
4,10,prac,2,C,circle.png,1,z,Wed Mar 05 2025 10:07:23 GMT-0600 (Central Standard Time),476820.3000000715,1000,O,z,950,4,1,2743.899999976158,474076.40000009537,7086,NTS,C,12
8,1,test,1,C,circle.png,1,m,Wed Mar 05 2025 10:07:23 GMT-0600 (Central Standard Time),489495.90000009537,1200,O,m,753,15,1,1975.9000000953674,487520.0,7086,NTS,C,1
9,2,test,1,C,circle.png,1,m,Wed Mar 05 2025 10:07:23 GMT-0600 (Central Standard Time),491696.2000000477,1500,O,m,671,8,1,2190.0,489506.2000000477,7086,NTS,C,2
2,2,test,1,C,circle.png,0,z,Wed Mar 05 2025 10:07:23 GMT-0600 (Central Standard Time),494927.2000000477,1700,O,None,1515,10,1,3223.899999976158,491703.3000000715,7086,NTS,C,3
7,2,test,1,C,triangle.png,0,z,Wed Mar 05 2025 10:07:23 GMT-0600 (Central Standard Time),497858.7000000477,1700,O,m,1215,22,1,2924.0,494934.7000000477,7086,NTS,C,4
2,3,test,1,C,circle.png,1,z,Wed Mar 05 2025 10:07:23 GMT-0600 (Central Standard Time),500524.7000000477,1700,O,z,939,18,1,2659.899999976158,497864.8000000715,7086,NTS,C,5
1,4,test,1,C,triangle.png,1,z,Wed Mar 05 2025 10:07:23 GMT-0600 (Central Standard Time),503756.90000009537,1900,O,z,1312,17,1,3227.3000000715256,500529.60000002384,7086,NTS,C,6
4,5,test,1,C,circle.png,1,z,Wed Mar 05 2025 10:07:23 GMT-0600 (Central Standard Time),506188.5,1400,O,z,1011,4,1,2425.0,503763.5,7086,NTS,C,7
6,6,test,1,C,triangle.png,1,m,Wed Mar 05 2025 10:07:23 GMT-0600 (Central Standard Time),508355.90000009537,1000,O,m,1141,13,1,2160.4000000953674,506195.5,7086,NTS,C,8
6,7,test,1,C,circle.png,1,m,Wed Mar 05 2025 10:07:23 GMT-0600 (Central Standard Time),511372.10000002384,1900,O,m,1090,21,1,3010.6999999284744,508361.40000009537,7086,NTS,C,9
9,8,test,1,C,triangle.png,1,z,Wed Mar 05 2025 10:07:23 GMT-0600 (Central Standard Time),514153.90000009537,1400,O,z,1357,16,1,2777.2000000476837,511376.7000000477,7086,NTS,C,10
7,9,test,1,C,triangle.png,1,z,Wed Mar 05 2025 10:07:23 GMT-0600 (Central Standard Time),516901.8000000715,1700,O,z,1026,6,1,2743.7000000476837,514158.10000002384,7086,NTS,C,11
4,10,test,1,C,triangle.png,1,m,Wed Mar 05 2025 10:07:23 GMT-0600 (Central Standard Time),519803.3000000715,1500,O,m,1374,12,1,2896.0,516907.3000000715,7086,NTS,C,12
3,11,test,1,C,circle.png,1,z,Wed Mar 05 2025 10:07:23 GMT-0600 (Central Standard Time),522252.10000002384,1600,O,z,833,19,1,2444.2999999523163,519807.8000000715,7086,NTS,C,13
8,12,test,1,C,triangle.png,1,m,Wed Mar 05 2025 10:07:23 GMT-0600 (Central Standard Time),525183.1000000238,1600,O,m,1309,7,1,2923.399999976158,522259.7000000477,7086,NTS,C,14
1,13,test,1,C,triangle.png,1,z,Wed Mar 05 2025 10:07:23 GMT-0600 (Central Standard Time),528065.2000000477,1900,O,z,960,9,1,2877.899999976158,525187.3000000715,7086,NTS,C,15
9,14,test,1,C,circle.png,1,m,Wed Mar 05 2025 10:07:23 GMT-0600 (Central Standard Time),530331.4000000954,1500,O,m,737,24,1,2262.3000000715256,528069.1000000238,7086,NTS,C,16
3,15,test,1,C,circle.png,1,z,Wed Mar 05 2025 10:07:23 GMT-0600 (Central Standard Time),532964.9000000954,1600,O,z,1015,11,1,2627.600000023842,530337.3000000715,7086,NTS,C,17
7,16,test,1,C,circle.png,1,m,Wed Mar 05 2025 10:07:23 GMT-0600 (Central Standard Time),535964.7000000477,2000,O,m,983,14,1,2995.5,532969.2000000477,7086,NTS,C,18
1,16,test,1,C,circle.png,0,z,Wed Mar 05 2025 10:07:23 GMT-0600 (Central Standard Time),537846.2000000477,1000,O,m,862,1,1,1876.0,535970.2000000477,7086,NTS,C,19
4,17,test,1,C,triangle.png,1,m,Wed Mar 05 2025 10:07:23 GMT-0600 (Central Standard Time),540661.0,1500,O,m,1293,20,1,2810.5999999046326,537850.4000000954,7086,NTS,C,20
6,18,test,1,C,circle.png,1,m,Wed Mar 05 2025 10:07:23 GMT-0600 (Central Standard Time),543410.8000000715,1900,O,m,824,5,1,2744.399999976158,540666.4000000954,7086,NTS,C,21
3,19,test,1,C,triangle.png,1,z,Wed Mar 05 2025 10:07:23 GMT-0600 (Central Standard Time),545777.2000000477,1200,O,z,1133,3,1,2361.100000023842,543416.1000000238,7086,NTS,C,22
8,19,test,1,C,triangle.png,0,m,Wed Mar 05 2025 10:07:23 GMT-0600 (Central Standard Time),548893.0,1600,O,None,1501,23,1,3110.5999999046326,545782.4000000954,7086,NTS,C,23
2,19,test,1,C,triangle.png,0,m,Wed Mar 05 2025 10:07:23 GMT-0600 (Central Standard Time),552092.3000000715,2000,O,z,1173,2,1,3194.100000023842,548898.2000000477,7086,NTS,C,24
1,1,test,2,C,triangle.png,1,z,Wed Mar 05 2025 10:07:23 GMT-0600 (Central Standard Time),560574.5,1900,O,z,745,9,1,2660.1999999284744,557914.3000000715,7086,NTS,C,1
2,2,test,2,C,circle.png,1,z,Wed Mar 05 2025 10:07:23 GMT-0600 (Central Standard Time),563355.2000000477,1700,O,z,1065,10,1,2774.7000000476837,560580.5,7086,NTS,C,2
6,3,test,2,C,triangle.png,1,m,Wed Mar 05 2025 10:07:23 GMT-0600 (Central Standard Time),565603.5,1000,O,m,1221,21,1,2242.5,563361.0,7086,NTS,C,3
8,4,test,2,C,circle.png,1,m,Wed Mar 05 2025 10:07:23 GMT-0600 (Central Standard Time),567636.3000000715,1200,O,m,804,23,1,2028.0,565608.3000000715,7086,NTS,C,4
8,5,test,2,C,circle.png,1,m,Wed Mar 05 2025 10:07:23 GMT-0600 (Central Standard Time),569852.3000000715,1200,O,m,989,15,1,2211.2000000476837,567641.1000000238,7086,NTS,C,5
8,5,test,2,C,triangle.png,0,m,Wed Mar 05 2025 10:07:23 GMT-0600 (Central Standard Time),572868.1000000238,1600,O,z,1396,7,1,3011.600000023842,569856.5,7086,NTS,C,6
3,6,test,2,C,circle.png,1,z,Wed Mar 05 2025 10:07:23 GMT-0600 (Central Standard Time),575817.3000000715,1600,O,z,1324,19,1,2939.2000000476837,572878.1000000238,7086,NTS,C,7
9,7,test,2,C,triangle.png,1,z,Wed Mar 05 2025 10:07:23 GMT-0600 (Central Standard Time),578733.6000000238,1400,O,z,1498,24,1,2910.399999976158,575823.2000000477,7086,NTS,C,8
2,8,test,2,C,triangle.png,1,m,Wed Mar 05 2025 10:07:23 GMT-0600 (Central Standard Time),582083.8000000715,2000,O,m,1334,2,1,3346.100000023842,578737.7000000477,7086,NTS,C,9
4,9,test,2,C,triangle.png,1,m,Wed Mar 05 2025 10:07:23 GMT-0600 (Central Standard Time),584414.9000000954,1500,O,m,802,12,1,2326.100000023842,582088.8000000715,7086,NTS,C,10
2,10,test,2,C,circle.png,1,z,Wed Mar 05 2025 10:07:23 GMT-0600 (Central Standard Time),586996.0,1700,O,z,855,18,1,2576.6999999284744,584419.3000000715,7086,NTS,C,11
6,11,test,2,C,triangle.png,1,m,Wed Mar 05 2025 10:07:23 GMT-0600 (Central Standard Time),589229.6000000238,1000,O,m,1203,13,1,2227.899999976158,587001.7000000477,7086,NTS,C,12
3,12,test,2,C,circle.png,1,z,Wed Mar 05 2025 10:07:23 GMT-0600 (Central Standard Time),592043.0,1600,O,z,1192,11,1,2807.899999976158,589235.1000000238,7086,NTS,C,13
3,13,test,2,C,triangle.png,1,z,Wed Mar 05 2025 10:07:23 GMT-0600 (Central Standard Time),594562.5,1200,O,z,1314,3,1,2517.0,592045.5,7086,NTS,C,14
4,14,test,2,C,triangle.png,1,m,Wed Mar 05 2025 10:07:23 GMT-0600 (Central Standard Time),597310.8000000715,1500,O,m,1228,20,1,2745.0,594565.8000000715,7086,NTS,C,15
9,14,test,2,C,triangle.png,0,z,Wed Mar 05 2025 10:07:23 GMT-0600 (Central Standard Time),600226.4000000954,1400,O,None,1501,16,1,2911.5,597314.9000000954,7086,NTS,C,16
6,15,test,2,C,circle.png,1,m,Wed Mar 05 2025 10:07:23 GMT-0600 (Central Standard Time),603292.1000000238,1900,O,m,1147,5,1,3059.6999999284744,600232.4000000954,7086,NTS,C,17
1,16,test,2,C,circle.png,1,z,Wed Mar 05 2025 10:07:23 GMT-0600 (Central Standard Time),605408.7000000477,1000,O,z,1094,1,1,2110.2000000476837,603298.5,7086,NTS,C,18
4,16,test,2,C,circle.png,0,z,Wed Mar 05 2025 10:07:23 GMT-0600 (Central Standard Time),608341.5,1400,O,None,1515,4,1,2928.899999976158,605412.6000000238,7086,NTS,C,19
7,17,test,2,C,circle.png,1,m,Wed Mar 05 2025 10:07:23 GMT-0600 (Central Standard Time),611389.3000000715,2000,O,m,1029,22,1,3043.600000023842,608345.7000000477,7086,NTS,C,20
9,18,test,2,C,circle.png,1,m,Wed Mar 05 2025 10:07:23 GMT-0600 (Central Standard Time),613873.4000000954,1500,O,m,951,8,1,2477.9000000953674,611395.5,7086,NTS,C,21
7,19,test,2,C,circle.png,1,m,Wed Mar 05 2025 10:07:23 GMT-0600 (Central Standard Time),616670.4000000954,2000,O,m,777,14,1,2790.5,613879.9000000954,7086,NTS,C,22
1,20,test,2,C,triangle.png,1,z,Wed Mar 05 2025 10:07:23 GMT-0600 (Central Standard Time),619805.1000000238,1900,O,z,1217,17,1,3128.6999999284744,616676.4000000954,7086,NTS,C,23
7,21,test,2,C,triangle.png,1,z,Wed Mar 05 2025 10:07:23 GMT-0600 (Central Standard Time),622603.8000000715,1700,O,z,1083,6,1,2792.899999976158,619810.9000000954,7086,NTS,C,24
2,0,test,3,C,triangle.png,0,m,Wed Mar 05 2025 10:07:23 GMT-0600 (Central Standard Time),629633.8000000715,2000,O,None,1515,18,1,3528.3000000715256,626105.5,7086,NTS,C,1
4,1,test,3,C,circle.png,1,z,Wed Mar 05 2025 10:07:23 GMT-0600 (Central Standard Time),632117.2000000477,1400,O,z,1054,4,1,2478.399999976158,629638.8000000715,7086,NTS,C,2
8,1,test,3,C,triangle.png,0,m,Wed Mar 05 2025 10:07:23 GMT-0600 (Central Standard Time),635250.5,1600,O,None,1517,7,1,3129.5999999046326,632120.9000000954,7086,NTS,C,3
7,2,test,3,C,triangle.png,1,z,Wed Mar 05 2025 10:07:23 GMT-0600 (Central Standard Time),637964.6000000238,1700,O,z,988,6,1,2708.1999999284744,635256.4000000954,7086,NTS,C,4
6,3,test,3,C,circle.png,1,m,Wed Mar 05 2025 10:07:23 GMT-0600 (Central Standard Time),640697.7000000477,1900,O,m,802,21,1,2728.2999999523163,637969.4000000954,7086,NTS,C,5
3,4,test,3,C,triangle.png,1,z,Wed Mar 05 2025 10:07:23 GMT-0600 (Central Standard Time),642862.4000000954,1200,O,z,944,19,1,2160.0,640702.4000000954,7086,NTS,C,6
1,5,test,3,C,circle.png,1,z,Wed Mar 05 2025 10:07:23 GMT-0600 (Central Standard Time),644680.5,1000,O,z,796,1,1,1812.7999999523163,642867.7000000477,7086,NTS,C,7
8,6,test,3,C,triangle.png,1,m,Wed Mar 05 2025 10:07:23 GMT-0600 (Central Standard Time),647427.4000000954,1600,O,m,1131,23,1,2742.3000000715256,644685.1000000238,7086,NTS,C,8
7,7,test,3,C,circle.png,1,m,Wed Mar 05 2025 10:07:23 GMT-0600 (Central Standard Time),650411.1000000238,2000,O,m,964,14,1,2976.2999999523163,647434.8000000715,7086,NTS,C,9
9,8,test,3,C,triangle.png,1,z,Wed Mar 05 2025 10:07:23 GMT-0600 (Central Standard Time),653176.8000000715,1400,O,z,1337,16,1,2761.0,650415.8000000715,7086,NTS,C,10
4,9,test,3,C,triangle.png,1,m,Wed Mar 05 2025 10:07:23 GMT-0600 (Central Standard Time),655941.6000000238,1500,O,m,1236,12,1,2760.7999999523163,653180.8000000715,7086,NTS,C,11
4,10,test,3,C,circle.png,1,z,Wed Mar 05 2025 10:07:23 GMT-0600 (Central Standard Time),658390.5,1400,O,z,1026,20,1,2445.1999999284744,655945.3000000715,7086,NTS,C,12
2,11,test,3,C,triangle.png,1,m,Wed Mar 05 2025 10:07:23 GMT-0600 (Central Standard Time),661673.8000000715,2000,O,m,1258,2,1,3278.600000023842,658395.2000000477,7086,NTS,C,13
1,12,test,3,C,triangle.png,1,z,Wed Mar 05 2025 10:07:23 GMT-0600 (Central Standard Time),664740.7000000477,1900,O,z,1147,9,1,3062.899999976158,661677.8000000715,7086,NTS,C,14
9,13,test,3,C,circle.png,1,m,Wed Mar 05 2025 10:07:23 GMT-0600 (Central Standard Time),667173.6000000238,1500,O,m,916,24,1,2429.6999999284744,664743.9000000954,7086,NTS,C,15
1,14,test,3,C,circle.png,1,z,Wed Mar 05 2025 10:07:23 GMT-0600 (Central Standard Time),669237.6000000238,1000,O,z,1046,17,1,2059.5,667178.1000000238,7086,NTS,C,16
6,15,test,3,C,triangle.png,1,m,Wed Mar 05 2025 10:07:23 GMT-0600 (Central Standard Time),671605.1000000238,1000,O,m,1351,13,1,2363.100000023842,669242.0,7086,NTS,C,17
2,16,test,3,C,circle.png,1,z,Wed Mar 05 2025 10:07:23 GMT-0600 (Central Standard Time),674485.5,1700,O,z,1161,10,1,2874.399999976158,671611.1000000238,7086,NTS,C,18
3,17,test,3,C,triangle.png,1,z,Wed Mar 05 2025 10:07:23 GMT-0600 (Central Standard Time),676768.1000000238,1200,O,z,1051,3,1,2278.399999976158,674489.7000000477,7086,NTS,C,19
3,18,test,3,C,circle.png,1,z,Wed Mar 05 2025 10:07:23 GMT-0600 (Central Standard Time),679368.4000000954,1600,O,z,967,11,1,2596.4000000953674,676772.0,7086,NTS,C,20
9,19,test,3,C,circle.png,1,m,Wed Mar 05 2025 10:07:23 GMT-0600 (Central Standard Time),682233.8000000715,1500,O,m,1342,8,1,2860.100000023842,679373.7000000477,7086,NTS,C,21
8,20,test,3,C,circle.png,1,m,Wed Mar 05 2025 10:07:23 GMT-0600 (Central Standard Time),684299.8000000715,1200,O,m,848,15,1,2061.3000000715256,682238.5,7086,NTS,C,22
7,21,test,3,C,triangle.png,1,z,Wed Mar 05 2025 10:07:23 GMT-0600 (Central Standard Time),687048.5,1700,O,z,1019,22,1,2743.899999976158,684304.6000000238,7086,NTS,C,23
6,22,test,3,C,circle.png,1,m,Wed Mar 05 2025 10:07:23 GMT-0600 (Central Standard Time),689931.3000000715,1900,O,m,965,5,1,2877.3000000715256,687054.0,7086,NTS,C,24
6,0,test,4,C,triangle.png,0,m,Wed Mar 05 2025 10:07:23 GMT-0600 (Central Standard Time),699196.0,1000,O,None,1515,13,1,2529.5999999046326,696666.4000000954,7086,NTS,C,1
6,1,test,4,C,circle.png,1,m,Wed Mar 05 2025 10:07:23 GMT-0600 (Central Standard Time),701944.3000000715,1900,O,m,817,21,1,2738.7000000476837,699205.6000000238,7086,NTS,C,2
7,1,test,4,C,circle.png,0,m,Wed Mar 05 2025 10:07:23 GMT-0600 (Central Standard Time),705444.4000000954,2000,O,z,1483,14,1,3495.8000000715256,701948.6000000238,7086,NTS,C,3
7,2,test,4,C,triangle.png,1,z,Wed Mar 05 2025 10:07:23 GMT-0600 (Central Standard Time),708289.7000000477,1700,O,z,1121,22,1,2838.0,705451.7000000477,7086,NTS,C,4
8,3,test,4,C,triangle.png,1,m,Wed Mar 05 2025 10:07:23 GMT-0600 (Central Standard Time),711323.5,1600,O,m,1415,7,1,3030.5999999046326,708292.9000000954,7086,NTS,C,5
3,4,test,4,C,circle.png,1,z,Wed Mar 05 2025 10:07:23 GMT-0600 (Central Standard Time),714274.1000000238,1600,O,z,1317,11,1,2945.100000023842,711329.0,7086,NTS,C,6
4,5,test,4,C,circle.png,1,z,Wed Mar 05 2025 10:07:23 GMT-0600 (Central Standard Time),716704.9000000954,1400,O,z,1000,20,1,2427.0,714277.9000000954,7086,NTS,C,7
9,6,test,4,C,circle.png,1,m,Wed Mar 05 2025 10:07:23 GMT-0600 (Central Standard Time),718922.9000000954,1500,O,m,700,24,1,2211.4000000953674,716711.5,7086,NTS,C,8
9,7,test,4,C,circle.png,1,m,Wed Mar 05 2025 10:07:23 GMT-0600 (Central Standard Time),721104.7000000477,1500,O,m,650,8,1,2177.2999999523163,718927.4000000954,7086,NTS,C,9
6,8,test,4,C,circle.png,1,m,Wed Mar 05 2025 10:07:23 GMT-0600 (Central Standard Time),723622.7000000477,1900,O,m,602,5,1,2511.2999999523163,721111.4000000954,7086,NTS,C,10
1,9,test,4,C,circle.png,1,z,Wed Mar 05 2025 10:07:23 GMT-0600 (Central Standard Time),725520.4000000954,1000,O,z,877,1,1,1893.5,723626.9000000954,7086,NTS,C,11
2,10,test,4,C,triangle.png,1,m,Wed Mar 05 2025 10:07:23 GMT-0600 (Central Standard Time),728969.3000000715,2000,O,m,1426,2,1,3444.0,725525.3000000715,7086,NTS,C,12
3,11,test,4,C,triangle.png,1,z,Wed Mar 05 2025 10:07:23 GMT-0600 (Central Standard Time),731101.6000000238,1200,O,z,916,19,1,2127.6999999284744,728973.9000000954,7086,NTS,C,13
1,12,test,4,C,triangle.png,1,z,Wed Mar 05 2025 10:07:23 GMT-0600 (Central Standard Time),733833.1000000238,1900,O,z,798,9,1,2725.5,731107.6000000238,7086,NTS,C,14
1,13,test,4,C,circle.png,1,z,Wed Mar 05 2025 10:07:23 GMT-0600 (Central Standard Time),735633.5,1000,O,z,775,17,1,1797.1999999284744,733836.3000000715,7086,NTS,C,15
3,14,test,4,C,triangle.png,1,z,Wed Mar 05 2025 10:07:23 GMT-0600 (Central Standard Time),737933.0,1200,O,z,1082,3,1,2293.7999999523163,735639.2000000477,7086,NTS,C,16
4,15,test,4,C,triangle.png,1,m,Wed Mar 05 2025 10:07:23 GMT-0600 (Central Standard Time),740881.5,1500,O,m,1416,12,1,2943.7999999523163,737937.7000000477,7086,NTS,C,17
9,15,test,4,C,triangle.png,0,z,Wed Mar 05 2025 10:07:23 GMT-0600 (Central Standard Time),743514.2000000477,1400,O,m,1213,16,1,2626.5,740887.7000000477,7086,NTS,C,18
2,16,test,4,C,circle.png,1,z,Wed Mar 05 2025 10:07:23 GMT-0600 (Central Standard Time),746579.6000000238,1700,O,z,1347,10,1,3060.0,743519.6000000238,7086,NTS,C,19
4,17,test,4,C,circle.png,1,z,Wed Mar 05 2025 10:07:23 GMT-0600 (Central Standard Time),748913.7000000477,1400,O,z,901,4,1,2329.2999999523163,746584.4000000954,7086,NTS,C,20
8,18,test,4,C,triangle.png,1,m,Wed Mar 05 2025 10:07:23 GMT-0600 (Central Standard Time),751712.3000000715,1600,O,m,1167,23,1,2793.5,748918.8000000715,7086,NTS,C,21
2,18,test,4,C,triangle.png,0,m,Wed Mar 05 2025 10:07:23 GMT-0600 (Central Standard Time),755243.5,2000,O,None,1515,18,1,3526.899999976158,751716.6000000238,7086,NTS,C,22
7,19,test,4,C,triangle.png,1,z,Wed Mar 05 2025 10:07:23 GMT-0600 (Central Standard Time),757908.1000000238,1700,O,z,936,6,1,2658.899999976158,755249.2000000477,7086,NTS,C,23
8,20,test,4,C,circle.png,1,m,Wed Mar 05 2025 10:07:23 GMT-0600 (Central Standard Time),760043.8000000715,1200,O,m,916,15,1,2132.3000000715256,757911.5,7086,NTS,C,24
