acc_sum,block_c,block_dur,condition,correct,correct_response,countdown,datetime,endtime,project,response,response_time,response_time_test1_response,response_time_test2_response,row_sel,same,session_number,start_end,starttime,stim1,stim2,subject_id,task,task_vers,time_test1,time_test2,trial
1,1,0.0,prac,1,z,30000.0,Mon Feb 24 2025 15:05:43 GMT-0600 (Central Standard Time),38264.40000000037,O,z,1311,,,4,yes,1,2829.100000000559,35435.299999999814,RSM,RSM,7063,LC,B,,,1
2,1,0.0,prac,1,m,30000.0,Mon Feb 24 2025 15:05:43 GMT-0600 (Central Standard Time),41329.700000000186,O,m,1540,,,3,no,1,3059.2999999998137,38270.40000000037,QHZXPC,QHZWPC,7063,LC,B,,,2
3,1,0.0,prac,1,m,30000.0,Mon Feb 24 2025 15:05:43 GMT-0600 (Central Standard Time),43962.5,O,m,1108,,,1,no,1,2628.4000000003725,41334.09999999963,RNV,FNV,7063,LC,B,,,3
4,1,0.0,prac,1,m,30000.0,Mon Feb 24 2025 15:05:43 GMT-0600 (Central Standard Time),46878.09999999963,O,m,1379,,,5,no,1,2911.2999999998137,43966.799999999814,LNDPRSKQB,LNDPRSJQB,7063,LC,B,,,4
5,1,0.0,prac,1,z,30000.0,Mon Feb 24 2025 15:05:43 GMT-0600 (Central Standard Time),49710.40000000037,O,z,1304,,,2,yes,1,2828.300000000745,46882.09999999963,NBGFSM,NBGFSM,7063,LC,B,,,5
6,1,0.0,prac,1,z,30000.0,Mon Feb 24 2025 15:05:43 GMT-0600 (Central Standard Time),52959.59999999963,O,z,1712,,,6,yes,1,3245.199999999255,49714.40000000037,CSDBFPHXZ,CSDBFPHXZ,7063,LC,B,,,6
1,1,2.049999952316284,test,1,m,27950.000047683716,Mon Feb 24 2025 15:05:43 GMT-0600 (Central Standard Time),62606.5,O,m,2043,2043,,1,no,1,2046.7000000001863,60559.799999999814,HCF,RCF,7063,LC,B,57300,,1
2,1,3.9489998817443848,test,1,m,26051.000118255615,Mon Feb 24 2025 15:05:43 GMT-0600 (Central Standard Time),64506.09999999963,O,m,1880,1880,,2,no,1,1896.199999999255,62609.90000000037,QTPRJX,QTPNJX,7063,LC,B,59351,,2
3,1,6.164999961853027,test,1,m,23835.000038146973,Mon Feb 24 2025 15:05:43 GMT-0600 (Central Standard Time),66722.09999999963,O,m,2197,2197,,3,no,1,2212.699999999255,64509.40000000037,MZDYGVGKQ,MZDYGLBKQ,7063,LC,B,61250,,3
4,1,7.398000001907349,test,1,m,22601.99999809265,Mon Feb 24 2025 15:05:43 GMT-0600 (Central Standard Time),67955.09999999963,O,m,1221,1221,,4,no,1,1229.699999999255,66725.40000000037,FQTNMK,JQTNMK,7063,LC,B,63466,,4
5,1,8.864000082015991,test,1,z,21135.99991798401,Mon Feb 24 2025 15:05:43 GMT-0600 (Central Standard Time),69421.09999999963,O,z,1460,1460,,5,yes,1,1462.8999999994412,67958.20000000019,CLJ,CLJ,7063,LC,B,64699,,5
6,1,11.230000019073486,test,1,m,18769.999980926514,Mon Feb 24 2025 15:05:43 GMT-0600 (Central Standard Time),71787.09999999963,O,m,2354,2354,,6,no,1,2362.899999999441,69424.20000000019,JGDMNSVPW,JGZMNSVPW,7063,LC,B,66165,,6
7,1,14.196000099182129,test,1,z,15803.999900817871,Mon Feb 24 2025 15:05:43 GMT-0600 (Central Standard Time),74752.79999999981,O,z,2956,2956,,7,yes,1,2962.2999999998137,71790.5,FPTVHKCBJ,FPTVHKCBJ,7063,LC,B,68531,,7
8,1,15.711999893188477,test,1,m,14288.000106811523,Mon Feb 24 2025 15:05:43 GMT-0600 (Central Standard Time),76269.09999999963,O,m,1511,1511,,8,no,1,1513.2999999998137,74755.79999999981,XRPZBS,ZRPBDH,7063,LC,B,71496,,8
9,1,16.961999893188477,test,1,m,13038.000106811523,Mon Feb 24 2025 15:05:43 GMT-0600 (Central Standard Time),77518.5,O,m,1242,1242,,9,no,1,1246.2000000001863,76272.29999999981,ZSQ,ZSP,7063,LC,B,73013,,9
9,1,19.810999870300293,test,0,z,10189.000129699707,Mon Feb 24 2025 15:05:43 GMT-0600 (Central Standard Time),80367.59999999963,O,m,2840,2840,,10,yes,1,2845.5,77522.09999999963,MPZRXL,MPZRXL,7063,LC,B,74263,,10
10,1,21.710999965667725,test,1,m,8289.000034332275,Mon Feb 24 2025 15:05:43 GMT-0600 (Central Standard Time),82267.5,O,m,1880,1880,,11,no,1,1896.5999999996275,80370.90000000037,KJH,KRH,7063,LC,B,77111,,11
11,1,24.825999975204468,test,1,z,5174.000024795532,Mon Feb 24 2025 15:05:43 GMT-0600 (Central Standard Time),85382.79999999981,O,z,3098,3098,,12,yes,1,3110.399999999441,82272.40000000037,SMNHVTFCB,SMNHVTFCB,7063,LC,B,79013,,12
12,1,26.408999919891357,test,1,z,3591.0000801086426,Mon Feb 24 2025 15:05:43 GMT-0600 (Central Standard Time),86965.5,O,z,1577,1577,,13,yes,1,1579.5,85386.0,KJWTQF,KJWTQF,7063,LC,B,82126,,13
13,1,29.29099988937378,test,1,z,709.0001106262207,Mon Feb 24 2025 15:05:43 GMT-0600 (Central Standard Time),89848.0,O,z,2874,2874,,14,yes,1,2879.4000000003725,86968.59999999963,CHDKQGLMB,CHDKQGLMB,7063,LC,B,83709,,14
13,1,30.007999897003174,test,0,z,-7.999897003173828,Mon Feb 24 2025 15:05:43 GMT-0600 (Central Standard Time),90564.70000000019,O,None,712,712,,15,yes,1,713.4000000003725,89851.29999999981,GHQ,GHQ,7063,LC,B,86592,,15
1,2,2.9649999141693115,test,1,z,27035.00008583069,Mon Feb 24 2025 15:05:43 GMT-0600 (Central Standard Time),97712.09999999963,O,z,2958,,2958.0,1,yes,1,7860.799999999814,89851.29999999981,PRDBZTYFN,PRDBZTYFN,7063,LC,B,,91489.0,1
2,2,4.582000017166138,test,1,m,25417.999982833862,Mon Feb 24 2025 15:05:43 GMT-0600 (Central Standard Time),99328.40000000037,O,m,1607,,1607.0,2,no,1,9477.100000000559,89851.29999999981,NCWJDZ,NCMJDZ,7063,LC,B,,94456.0,2
3,2,6.115000009536743,test,1,m,23884.999990463257,Mon Feb 24 2025 15:05:43 GMT-0600 (Central Standard Time),100861.40000000037,O,m,1519,,1519.0,3,no,1,11010.100000000559,89851.29999999981,KHW,KBW,7063,LC,B,,96072.0,3
4,2,7.746999979019165,test,1,m,22253.000020980835,Mon Feb 24 2025 15:05:43 GMT-0600 (Central Standard Time),102494.09999999963,O,m,1618,,1618.0,4,no,1,12642.799999999814,89851.29999999981,ZRBGMF,ZRBCMF,7063,LC,B,,97605.0,4
5,2,9.063999891281128,test,1,m,20936.000108718872,Mon Feb 24 2025 15:05:43 GMT-0600 (Central Standard Time),103810.29999999981,O,m,1306,,1306.0,5,no,1,13959.0,89851.29999999981,BTH,BYH,7063,LC,B,,99237.0,5
6,2,10.879999876022339,test,1,z,19120.00012397766,Mon Feb 24 2025 15:05:43 GMT-0600 (Central Standard Time),105626.5,O,z,1805,,1805.0,6,yes,1,15775.200000000186,89851.29999999981,XWKQRYCNZ,XWKQRYCNZ,7063,LC,B,,100554.0,6
7,2,13.345999956130981,test,1,z,16654.00004386902,Mon Feb 24 2025 15:05:43 GMT-0600 (Central Standard Time),108092.20000000019,O,z,2461,,2461.0,7,yes,1,18240.900000000373,89851.29999999981,HNPDLK,HNPDLK,7063,LC,B,,102370.0,7
8,2,16.294999837875366,test,1,m,13705.000162124634,Mon Feb 24 2025 15:05:43 GMT-0600 (Central Standard Time),111041.59999999963,O,m,2931,,2931.0,8,no,1,21190.299999999814,89851.29999999981,WMQTRSGLZ,WMQTRZGLZ,7063,LC,B,,104836.0,8
9,2,17.477999925613403,test,1,z,12522.000074386597,Mon Feb 24 2025 15:05:43 GMT-0600 (Central Standard Time),112224.40000000037,O,z,1174,,1174.0,9,yes,1,22373.10000000056,89851.29999999981,JPN,JPN,7063,LC,B,,107785.0,9
10,2,19.293999910354614,test,1,m,10706.000089645386,Mon Feb 24 2025 15:05:43 GMT-0600 (Central Standard Time),114040.5,O,m,1799,,1799.0,10,no,1,24189.200000000186,89851.29999999981,QLXSVT,QLNSVT,7063,LC,B,,108968.0,10
10,2,20.89299988746643,test,0,z,9107.00011253357,Mon Feb 24 2025 15:05:43 GMT-0600 (Central Standard Time),115640.0,O,m,1591,,1591.0,11,yes,1,25788.700000000186,89851.29999999981,YXHKZVFPB,YXHKZVFPD,7063,LC,B,,110784.0,11
11,2,23.274999856948853,test,1,z,6725.0001430511475,Mon Feb 24 2025 15:05:43 GMT-0600 (Central Standard Time),118022.79999999981,O,z,2368,,2368.0,12,yes,1,28171.5,89851.29999999981,RJZ,RJZ,7063,LC,B,,112383.0,12
12,2,25.240999937057495,test,1,z,4759.000062942505,Mon Feb 24 2025 15:05:43 GMT-0600 (Central Standard Time),119988.59999999963,O,z,1961,,1961.0,13,yes,1,30137.299999999814,89851.29999999981,CLNPZD,CLNPZD,7063,LC,B,,114766.0,13
12,2,30.00600004196167,test,0,m,-6.000041961669922,Mon Feb 24 2025 15:05:43 GMT-0600 (Central Standard Time),124753.90000000037,O,None,4762,,4762.0,14,no,1,34902.60000000056,89851.29999999981,DCBPFHXYJ,DCBPFHLYJ,7063,LC,B,,116732.0,14
