block_c,block_dur,condition,countdown,datetime,endtime,list,multichar_response,project,response,response_time,session_number,start_end,starttime,subject_id,task,task_vers,trial
,,,,Wed Apr 02 2025 09:36:02 GMT-0500 (Central Daylight Time),,,,O,space,363,1,,,7088,WL,A,
prac,,0,,Wed Apr 02 2025 09:36:02 GMT-0500 (Central Daylight Time),,NA,b,O,b,2415,1,,,7088,WL,A,1.0
prac,,0,,Wed Apr 02 2025 09:36:02 GMT-0500 (Central Daylight Time),,NA,bo,O,o,491,1,,,7088,WL,A,1.0
prac,,0,,Wed Apr 02 2025 09:36:02 GMT-0500 (Central Daylight Time),,NA,boo,O,o,159,1,,,7088,WL,A,1.0
prac,,0,,Wed Apr 02 2025 09:36:02 GMT-0500 (Central Daylight Time),,NA,boos,O,s,444,1,,,7088,WL,A,1.0
prac,,0,,Wed Apr 02 2025 09:36:02 GMT-0500 (Central Daylight Time),,NA,boost,O,t,616,1,,,7088,WL,A,1.0
prac,,0,,Wed Apr 02 2025 09:36:02 GMT-0500 (Central Daylight Time),,NA,boostenter,O,enter,1695,1,,,7088,WL,A,1.0
1,1.183000087738037,learn,58816.99991226196,Wed Apr 02 2025 09:36:02 GMT-0500 (Central Daylight Time),172475.0,A,b,O,b,1159,1,1183.2999999523163,171291.70000004768,7088,WL,A,1.0
1,1.4179999828338623,learn,58582.00001716614,Wed Apr 02 2025 09:36:02 GMT-0500 (Central Daylight Time),172709.5,A,bo,O,o,225,1,1417.7999999523163,171291.70000004768,7088,WL,A,1.0
1,1.5840001106262207,learn,58415.99988937378,Wed Apr 02 2025 09:36:02 GMT-0500 (Central Daylight Time),172875.60000002384,A,boo,O,o,149,1,1583.8999999761581,171291.70000004768,7088,WL,A,1.0
1,1.8010001182556152,learn,58198.999881744385,Wed Apr 02 2025 09:36:02 GMT-0500 (Central Daylight Time),173092.60000002384,A,book,O,k,205,1,1800.8999999761581,171291.70000004768,7088,WL,A,1.0
1,2.315999984741211,learn,57684.00001525879,Wed Apr 02 2025 09:36:02 GMT-0500 (Central Daylight Time),173607.60000002384,A,bookenter,O,enter,502,1,2315.899999976158,171291.70000004768,7088,WL,A,1.0
1,3.680999994277954,learn,56319.000005722046,Wed Apr 02 2025 09:36:02 GMT-0500 (Central Daylight Time),174973.10000002384,A,f,O,f,1357,1,1365.1000000238419,173608.0,7088,WL,A,2.0
1,3.881999969482422,learn,56118.00003051758,Wed Apr 02 2025 09:36:02 GMT-0500 (Central Daylight Time),175173.5,A,fl,O,l,183,1,1565.5,173608.0,7088,WL,A,2.0
1,4.181999921798706,learn,55818.000078201294,Wed Apr 02 2025 09:36:02 GMT-0500 (Central Daylight Time),175474.10000002384,A,flo,O,o,279,1,1866.1000000238419,173608.0,7088,WL,A,2.0
1,4.414000034332275,learn,55585.999965667725,Wed Apr 02 2025 09:36:02 GMT-0500 (Central Daylight Time),175706.20000004768,A,flow,O,w,209,1,2098.2000000476837,173608.0,7088,WL,A,2.0
1,4.8480000495910645,learn,55151.999950408936,Wed Apr 02 2025 09:36:02 GMT-0500 (Central Daylight Time),176140.10000002384,A,flowe,O,e,412,1,2532.100000023842,173608.0,7088,WL,A,2.0
1,5.164999961853027,learn,54835.00003814697,Wed Apr 02 2025 09:36:02 GMT-0500 (Central Daylight Time),176456.29999995232,A,flower,O,r,301,1,2848.2999999523163,173608.0,7088,WL,A,2.0
1,5.414000034332275,learn,54585.999965667725,Wed Apr 02 2025 09:36:02 GMT-0500 (Central Daylight Time),176705.79999995232,A,flowerenter,O,enter,236,1,3097.7999999523163,173608.0,7088,WL,A,2.0
1,6.578999996185303,learn,53421.0000038147,Wed Apr 02 2025 09:36:02 GMT-0500 (Central Daylight Time),177872.29999995232,A,t,O,t,1156,1,1166.2999999523163,176706.0,7088,WL,A,3.0
1,6.79800009727478,learn,53201.99990272522,Wed Apr 02 2025 09:36:02 GMT-0500 (Central Daylight Time),178091.0,A,tr,O,r,197,1,1385.0,176706.0,7088,WL,A,3.0
1,7.046999931335449,learn,52953.00006866455,Wed Apr 02 2025 09:36:02 GMT-0500 (Central Daylight Time),178340.70000004768,A,tra,O,a,243,1,1634.7000000476837,176706.0,7088,WL,A,3.0
1,7.3459999561309814,learn,52654.00004386902,Wed Apr 02 2025 09:36:02 GMT-0500 (Central Daylight Time),178638.70000004768,A,trai,O,i,288,1,1932.7000000476837,176706.0,7088,WL,A,3.0
1,7.645999908447266,learn,52354.000091552734,Wed Apr 02 2025 09:36:02 GMT-0500 (Central Daylight Time),178938.79999995232,A,train,O,n,278,1,2232.7999999523163,176706.0,7088,WL,A,3.0
1,8.312000036239624,learn,51687.999963760376,Wed Apr 02 2025 09:36:02 GMT-0500 (Central Daylight Time),179604.89999997616,A,trainenter,O,enter,644,1,2898.899999976158,176706.0,7088,WL,A,3.0
1,9.444999933242798,learn,50555.0000667572,Wed Apr 02 2025 09:36:02 GMT-0500 (Central Daylight Time),180738.0,A,r,O,r,1112,1,1132.7999999523163,179605.20000004768,7088,WL,A,4.0
1,9.57800006866455,learn,50421.99993133545,Wed Apr 02 2025 09:36:02 GMT-0500 (Central Daylight Time),180871.10000002384,A,ru,O,u,123,1,1265.8999999761581,179605.20000004768,7088,WL,A,4.0
1,9.84500002861023,learn,50154.99997138977,Wed Apr 02 2025 09:36:02 GMT-0500 (Central Daylight Time),181137.89999997616,A,rug,O,g,255,1,1532.6999999284744,179605.20000004768,7088,WL,A,4.0
1,10.296000003814697,learn,49703.9999961853,Wed Apr 02 2025 09:36:02 GMT-0500 (Central Daylight Time),181588.89999997616,A,rugenter,O,enter,447,1,1983.6999999284744,179605.20000004768,7088,WL,A,4.0
1,11.375999927520752,learn,48624.00007247925,Wed Apr 02 2025 09:36:02 GMT-0500 (Central Daylight Time),182668.89999997616,A,g,O,g,1072,1,1079.6000000238419,181589.29999995232,7088,WL,A,5.0
1,11.510999917984009,learn,48489.00008201599,Wed Apr 02 2025 09:36:02 GMT-0500 (Central Daylight Time),182804.0,A,go,O,o,120,1,1214.7000000476837,181589.29999995232,7088,WL,A,5.0
1,11.711999893188477,learn,48288.00010681152,Wed Apr 02 2025 09:36:02 GMT-0500 (Central Daylight Time),183004.79999995232,A,gol,O,l,185,1,1415.5,181589.29999995232,7088,WL,A,5.0
1,12.009999990463257,learn,47990.00000953674,Wed Apr 02 2025 09:36:02 GMT-0500 (Central Daylight Time),183303.60000002384,A,gold,O,d,277,1,1714.3000000715256,181589.29999995232,7088,WL,A,5.0
1,12.609999895095825,learn,47390.000104904175,Wed Apr 02 2025 09:36:02 GMT-0500 (Central Daylight Time),183902.79999995232,A,goldenter,O,enter,588,1,2313.5,181589.29999995232,7088,WL,A,5.0
1,13.57800006866455,learn,46421.99993133545,Wed Apr 02 2025 09:36:02 GMT-0500 (Central Daylight Time),184870.70000004768,A,a,O,a,951,1,967.5,183903.20000004768,7088,WL,A,6.0
1,13.792999982833862,learn,46207.00001716614,Wed Apr 02 2025 09:36:02 GMT-0500 (Central Daylight Time),185085.79999995232,A,ap,O,p,206,1,1182.5999999046326,183903.20000004768,7088,WL,A,6.0
1,13.9760000705719,learn,46023.9999294281,Wed Apr 02 2025 09:36:02 GMT-0500 (Central Daylight Time),185269.70000004768,A,app,O,p,167,1,1366.5,183903.20000004768,7088,WL,A,6.0
1,14.176000118255615,learn,45823.999881744385,Wed Apr 02 2025 09:36:02 GMT-0500 (Central Daylight Time),185469.10000002384,A,appl,O,l,182,1,1565.8999999761581,183903.20000004768,7088,WL,A,6.0
1,14.34500002861023,learn,45654.99997138977,Wed Apr 02 2025 09:36:02 GMT-0500 (Central Daylight Time),185637.79999995232,A,apple,O,e,161,1,1734.5999999046326,183903.20000004768,7088,WL,A,6.0
1,16.009999990463257,learn,43990.00000953674,Wed Apr 02 2025 09:36:02 GMT-0500 (Central Daylight Time),187302.60000002384,A,appleenter,O,enter,1653,1,3399.399999976158,183903.20000004768,7088,WL,A,6.0
1,38.920000076293945,learn,21079.999923706055,Wed Apr 02 2025 09:36:02 GMT-0500 (Central Daylight Time),210212.70000004768,A,a,O,a,22904,1,22909.700000047684,187303.0,7088,WL,A,7.0
1,39.234999895095825,learn,20765.000104904175,Wed Apr 02 2025 09:36:02 GMT-0500 (Central Daylight Time),210528.5,A,ap,O,p,302,1,23225.5,187303.0,7088,WL,A,7.0
1,39.41799998283386,learn,20582.000017166138,Wed Apr 02 2025 09:36:02 GMT-0500 (Central Daylight Time),210711.39999997616,A,app,O,p,164,1,23408.399999976158,187303.0,7088,WL,A,7.0
1,39.61800003051758,learn,20381.999969482422,Wed Apr 02 2025 09:36:02 GMT-0500 (Central Daylight Time),210911.29999995232,A,appl,O,l,181,1,23608.299999952316,187303.0,7088,WL,A,7.0
1,39.734999895095825,learn,20265.000104904175,Wed Apr 02 2025 09:36:02 GMT-0500 (Central Daylight Time),211028.60000002384,A,apple,O,e,102,1,23725.600000023842,187303.0,7088,WL,A,7.0
1,40.13499999046326,learn,19865.000009536743,Wed Apr 02 2025 09:36:02 GMT-0500 (Central Daylight Time),211428.20000004768,A,appleenter,O,enter,384,1,24125.200000047684,187303.0,7088,WL,A,7.0
1,60.01300001144409,learn,-13.000011444091797,Wed Apr 02 2025 09:36:02 GMT-0500 (Central Daylight Time),231306.0,A,None,O,None,19871,1,19877.600000023842,211428.39999997616,7088,WL,A,8.0
2,1.065999984741211,learn,58934.00001525879,Wed Apr 02 2025 09:36:02 GMT-0500 (Central Daylight Time),305732.2000000477,A,m,O,m,1051,1,1066.0,304666.2000000477,7088,WL,A,1.0
2,1.2839999198913574,learn,58716.00008010864,Wed Apr 02 2025 09:36:02 GMT-0500 (Central Daylight Time),305949.7000000477,A,me,O,e,212,1,1283.5,304666.2000000477,7088,WL,A,1.0
2,1.565999984741211,learn,58434.00001525879,Wed Apr 02 2025 09:36:02 GMT-0500 (Central Daylight Time),306232.0,A,mea,O,a,262,1,1565.7999999523163,304666.2000000477,7088,WL,A,1.0
2,1.9499998092651367,learn,58050.00019073486,Wed Apr 02 2025 09:36:02 GMT-0500 (Central Daylight Time),306615.89999997616,A,mead,O,d,375,1,1949.6999999284744,304666.2000000477,7088,WL,A,1.0
2,2.116999864578247,learn,57883.00013542175,Wed Apr 02 2025 09:36:02 GMT-0500 (Central Daylight Time),306782.60000002384,A,meado,O,o,158,1,2116.399999976158,304666.2000000477,7088,WL,A,1.0
2,2.2649998664855957,learn,57735.000133514404,Wed Apr 02 2025 09:36:02 GMT-0500 (Central Daylight Time),306931.39999997616,A,meadow,O,w,127,1,2265.1999999284744,304666.2000000477,7088,WL,A,1.0
2,2.5989999771118164,learn,57401.00002288818,Wed Apr 02 2025 09:36:02 GMT-0500 (Central Daylight Time),307265.0,A,meadowenter,O,enter,321,1,2598.7999999523163,304666.2000000477,7088,WL,A,1.0
2,3.364999771118164,learn,56635.000228881836,Wed Apr 02 2025 09:36:02 GMT-0500 (Central Daylight Time),308030.89999997616,A,h,O,h,757,1,765.6000000238419,307265.2999999523,7088,WL,A,2.0
2,3.7149999141693115,learn,56285.00008583069,Wed Apr 02 2025 09:36:02 GMT-0500 (Central Daylight Time),308380.89999997616,A,ha,O,a,333,1,1115.6000000238419,307265.2999999523,7088,WL,A,2.0
2,4.364999771118164,learn,55635.000228881836,Wed Apr 02 2025 09:36:02 GMT-0500 (Central Daylight Time),309031.0,A,har,O,r,633,1,1765.7000000476837,307265.2999999523,7088,WL,A,2.0
2,4.498999834060669,learn,55501.00016593933,Wed Apr 02 2025 09:36:02 GMT-0500 (Central Daylight Time),309164.7000000477,A,harp,O,p,119,1,1899.4000000953674,307265.2999999523,7088,WL,A,2.0
2,4.881999969482422,learn,55118.00003051758,Wed Apr 02 2025 09:36:02 GMT-0500 (Central Daylight Time),309548.0,A,harpenter,O,enter,376,1,2282.7000000476837,307265.2999999523,7088,WL,A,2.0
2,5.349999904632568,learn,54650.00009536743,Wed Apr 02 2025 09:36:02 GMT-0500 (Central Daylight Time),310015.60000002384,A,s,O,s,445,1,467.2000000476837,309548.39999997616,7088,WL,A,3.0
2,5.579999923706055,learn,54420.000076293945,Wed Apr 02 2025 09:36:02 GMT-0500 (Central Daylight Time),310245.7999999523,A,sa,O,a,214,1,697.3999999761581,309548.39999997616,7088,WL,A,3.0
2,5.728999853134155,learn,54271.000146865845,Wed Apr 02 2025 09:36:02 GMT-0500 (Central Daylight Time),310394.7000000477,A,sal,O,l,136,1,846.3000000715256,309548.39999997616,7088,WL,A,3.0
2,6.144999980926514,learn,53855.000019073486,Wed Apr 02 2025 09:36:02 GMT-0500 (Central Daylight Time),310811.10000002384,A,salt,O,t,412,1,1262.7000000476837,309548.39999997616,7088,WL,A,3.0
2,7.363999843597412,learn,52636.00015640259,Wed Apr 02 2025 09:36:02 GMT-0500 (Central Daylight Time),312029.60000002384,A,saltenter,O,enter,1212,1,2481.2000000476837,309548.39999997616,7088,WL,A,3.0
2,8.77999997138977,learn,51220.00002861023,Wed Apr 02 2025 09:36:02 GMT-0500 (Central Daylight Time),313445.89999997616,A,l,O,l,1395,1,1416.0,312029.89999997616,7088,WL,A,4.0
2,8.979999780654907,learn,51020.00021934509,Wed Apr 02 2025 09:36:02 GMT-0500 (Central Daylight Time),313646.10000002384,A,lo,O,o,184,1,1616.2000000476837,312029.89999997616,7088,WL,A,4.0
2,9.212999820709229,learn,50787.00017929077,Wed Apr 02 2025 09:36:02 GMT-0500 (Central Daylight Time),313879.2000000477,A,log,O,g,224,1,1849.3000000715256,312029.89999997616,7088,WL,A,4.0
2,10.228999853134155,learn,49771.000146865845,Wed Apr 02 2025 09:36:02 GMT-0500 (Central Daylight Time),314895.0,A,logenter,O,enter,1006,1,2865.100000023842,312029.89999997616,7088,WL,A,4.0
2,11.044999837875366,learn,48955.000162124634,Wed Apr 02 2025 09:36:02 GMT-0500 (Central Daylight Time),315711.39999997616,A,c,O,c,808,1,816.1999999284744,314895.2000000477,7088,WL,A,5.0
2,11.311999797821045,learn,48688.000202178955,Wed Apr 02 2025 09:36:02 GMT-0500 (Central Daylight Time),315978.5,A,ch,O,h,246,1,1083.2999999523163,314895.2000000477,7088,WL,A,5.0
2,11.762999773025513,learn,48237.00022697449,Wed Apr 02 2025 09:36:02 GMT-0500 (Central Daylight Time),316428.89999997616,A,chi,O,i,436,1,1533.6999999284744,314895.2000000477,7088,WL,A,5.0
2,12.361999988555908,learn,47638.00001144409,Wed Apr 02 2025 09:36:02 GMT-0500 (Central Daylight Time),317028.39999997616,A,chim,O,m,594,1,2133.1999999284744,314895.2000000477,7088,WL,A,5.0
2,12.628999948501587,learn,47371.00005149841,Wed Apr 02 2025 09:36:02 GMT-0500 (Central Daylight Time),317295.2999999523,A,chimn,O,n,258,1,2400.0999999046326,314895.2000000477,7088,WL,A,5.0
2,13.145999908447266,learn,46854.000091552734,Wed Apr 02 2025 09:36:02 GMT-0500 (Central Daylight Time),317811.89999997616,A,chimne,O,e,503,1,2916.6999999284744,314895.2000000477,7088,WL,A,5.0
2,13.293999910354614,learn,46706.000089645386,Wed Apr 02 2025 09:36:02 GMT-0500 (Central Daylight Time),317960.2000000477,A,chimney,O,y,129,1,3065.0,314895.2000000477,7088,WL,A,5.0
2,14.327999830245972,learn,45672.00016975403,Wed Apr 02 2025 09:36:02 GMT-0500 (Central Daylight Time),318994.0,A,chimneyenter,O,enter,1023,1,4098.799999952316,314895.2000000477,7088,WL,A,5.0
2,15.02899980545044,learn,44971.00019454956,Wed Apr 02 2025 09:36:02 GMT-0500 (Central Daylight Time),319694.5,A,b,O,b,683,1,700.2000000476837,318994.2999999523,7088,WL,A,6.0
2,15.24399995803833,learn,44756.00004196167,Wed Apr 02 2025 09:36:02 GMT-0500 (Central Daylight Time),319910.10000002384,A,bo,O,o,208,1,915.8000000715256,318994.2999999523,7088,WL,A,6.0
2,15.394999980926514,learn,44605.000019073486,Wed Apr 02 2025 09:36:02 GMT-0500 (Central Daylight Time),320060.7000000477,A,boo,O,o,143,1,1066.4000000953674,318994.2999999523,7088,WL,A,6.0
2,15.777999877929688,learn,44222.00012207031,Wed Apr 02 2025 09:36:02 GMT-0500 (Central Daylight Time),320444.39999997616,A,book,O,k,371,1,1450.1000000238419,318994.2999999523,7088,WL,A,6.0
2,16.376999855041504,learn,43623.000144958496,Wed Apr 02 2025 09:36:02 GMT-0500 (Central Daylight Time),321043.5,A,bookenter,O,enter,585,1,2049.2000000476837,318994.2999999523,7088,WL,A,6.0
2,17.007999897003174,learn,42992.000102996826,Wed Apr 02 2025 09:36:02 GMT-0500 (Central Daylight Time),321674.39999997616,A,t,O,t,617,1,630.6999999284744,321043.7000000477,7088,WL,A,7.0
2,17.307999849319458,learn,42692.00015068054,Wed Apr 02 2025 09:36:02 GMT-0500 (Central Daylight Time),321974.2999999523,A,tr,O,r,284,1,930.5999999046326,321043.7000000477,7088,WL,A,7.0
2,17.943999767303467,learn,42056.00023269653,Wed Apr 02 2025 09:36:02 GMT-0500 (Central Daylight Time),322610.39999997616,A,tra,O,a,616,1,1566.6999999284744,321043.7000000477,7088,WL,A,7.0
2,18.16099977493286,learn,41839.00022506714,Wed Apr 02 2025 09:36:02 GMT-0500 (Central Daylight Time),322827.5,A,trai,O,i,196,1,1783.7999999523163,321043.7000000477,7088,WL,A,7.0
2,18.426999807357788,learn,41573.00019264221,Wed Apr 02 2025 09:36:02 GMT-0500 (Central Daylight Time),323093.2000000477,A,train,O,n,248,1,2049.5,321043.7000000477,7088,WL,A,7.0
2,18.87999987602234,learn,41120.00012397766,Wed Apr 02 2025 09:36:02 GMT-0500 (Central Daylight Time),323546.39999997616,A,trainenter,O,enter,448,1,2502.6999999284744,321043.7000000477,7088,WL,A,7.0
2,19.408999919891357,learn,40591.00008010864,Wed Apr 02 2025 09:36:02 GMT-0500 (Central Daylight Time),324075.2999999523,A,r,O,r,518,1,528.6999999284744,323546.60000002384,7088,WL,A,8.0
2,19.658999919891357,learn,40341.00008010864,Wed Apr 02 2025 09:36:02 GMT-0500 (Central Daylight Time),324325.0,A,ru,O,u,242,1,778.3999999761581,323546.60000002384,7088,WL,A,8.0
2,20.027999877929688,learn,39972.00012207031,Wed Apr 02 2025 09:36:02 GMT-0500 (Central Daylight Time),324693.7000000477,A,rug,O,g,362,1,1147.1000000238419,323546.60000002384,7088,WL,A,8.0
2,20.72499990463257,learn,39275.00009536743,Wed Apr 02 2025 09:36:02 GMT-0500 (Central Daylight Time),325391.10000002384,A,ruga,O,a,689,1,1844.5,323546.60000002384,7088,WL,A,8.0
2,21.009999990463257,learn,38990.00000953674,Wed Apr 02 2025 09:36:02 GMT-0500 (Central Daylight Time),325675.7000000477,A,rugap,O,p,271,1,2129.100000023842,323546.60000002384,7088,WL,A,8.0
2,21.193999767303467,learn,38806.00023269653,Wed Apr 02 2025 09:36:02 GMT-0500 (Central Daylight Time),325859.60000002384,A,rugapp,O,p,161,1,2313.0,323546.60000002384,7088,WL,A,8.0
2,21.39199995994568,learn,38608.00004005432,Wed Apr 02 2025 09:36:02 GMT-0500 (Central Daylight Time),326058.0,A,rugappl,O,l,186,1,2511.399999976158,323546.60000002384,7088,WL,A,8.0
2,21.609999895095825,learn,38390.000104904175,Wed Apr 02 2025 09:36:02 GMT-0500 (Central Daylight Time),326275.7000000477,A,rugapple,O,e,196,1,2729.100000023842,323546.60000002384,7088,WL,A,8.0
2,21.925999879837036,learn,38074.000120162964,Wed Apr 02 2025 09:36:02 GMT-0500 (Central Daylight Time),326591.89999997616,A,rugappleenter,O,enter,297,1,3045.2999999523163,323546.60000002384,7088,WL,A,8.0
2,23.774999856948853,learn,36225.00014305115,Wed Apr 02 2025 09:36:02 GMT-0500 (Central Daylight Time),328441.2000000477,A,g,O,g,1829,1,1849.1000000238419,326592.10000002384,7088,WL,A,9.0
2,23.941999912261963,learn,36058.00008773804,Wed Apr 02 2025 09:36:02 GMT-0500 (Central Daylight Time),328608.10000002384,A,go,O,o,147,1,2016.0,326592.10000002384,7088,WL,A,9.0
2,24.140999794006348,learn,35859.00020599365,Wed Apr 02 2025 09:36:02 GMT-0500 (Central Daylight Time),328807.2000000477,A,gol,O,l,188,1,2215.100000023842,326592.10000002384,7088,WL,A,9.0
2,24.423999786376953,learn,35576.00021362305,Wed Apr 02 2025 09:36:02 GMT-0500 (Central Daylight Time),329090.5,A,gold,O,d,270,1,2498.399999976158,326592.10000002384,7088,WL,A,9.0
2,25.973999977111816,learn,34026.00002288818,Wed Apr 02 2025 09:36:02 GMT-0500 (Central Daylight Time),330639.89999997616,A,goldenter,O,enter,1539,1,4047.7999999523163,326592.10000002384,7088,WL,A,9.0
2,27.357999801635742,learn,32642.000198364258,Wed Apr 02 2025 09:36:02 GMT-0500 (Central Daylight Time),332024.39999997616,A,h,O,h,1365,1,1384.1000000238419,330640.2999999523,7088,WL,A,10.0
2,27.539999961853027,learn,32460.000038146973,Wed Apr 02 2025 09:36:02 GMT-0500 (Central Daylight Time),332206.2999999523,A,ha,O,a,165,1,1566.0,330640.2999999523,7088,WL,A,10.0
2,28.039999961853027,learn,31960.000038146973,Wed Apr 02 2025 09:36:02 GMT-0500 (Central Daylight Time),332705.89999997616,A,har,O,r,478,1,2065.600000023842,330640.2999999523,7088,WL,A,10.0
2,28.307999849319458,learn,31692.000150680542,Wed Apr 02 2025 09:36:02 GMT-0500 (Central Daylight Time),332973.7999999523,A,harp,O,p,262,1,2333.5,330640.2999999523,7088,WL,A,10.0
2,29.156999826431274,learn,30843.000173568726,Wed Apr 02 2025 09:36:02 GMT-0500 (Central Daylight Time),333823.0,A,harpenter,O,enter,839,1,3182.7000000476837,330640.2999999523,7088,WL,A,10.0
2,46.85099983215332,learn,13149.00016784668,Wed Apr 02 2025 09:36:02 GMT-0500 (Central Daylight Time),351517.2999999523,A,k,O,k,17679,1,17694.0,333823.2999999523,7088,WL,A,11.0
2,47.50099992752075,learn,12499.000072479248,Wed Apr 02 2025 09:36:02 GMT-0500 (Central Daylight Time),352166.89999997616,A,ke,O,e,633,1,18343.600000023842,333823.2999999523,7088,WL,A,11.0
2,47.70099997520447,learn,12299.000024795532,Wed Apr 02 2025 09:36:02 GMT-0500 (Central Daylight Time),352366.7999999523,A,key,O,y,189,1,18543.5,333823.2999999523,7088,WL,A,11.0
2,48.14999985694885,learn,11850.000143051147,Wed Apr 02 2025 09:36:02 GMT-0500 (Central Daylight Time),352816.2999999523,A,keyenter,O,enter,431,1,18993.0,333823.2999999523,7088,WL,A,11.0
2,60.01299977302551,learn,-12.999773025512695,Wed Apr 02 2025 09:36:02 GMT-0500 (Central Daylight Time),364680.2999999523,A,None,O,None,11858,1,11863.599999904633,352816.7000000477,7088,WL,A,12.0
3,1.1180000305175781,learn,58881.99996948242,Wed Apr 02 2025 09:36:02 GMT-0500 (Central Daylight Time),437391.5,A,b,O,b,1109,1,1117.2000000476837,436274.2999999523,7088,WL,A,1.0
3,1.3000001907348633,learn,58699.99980926514,Wed Apr 02 2025 09:36:02 GMT-0500 (Central Daylight Time),437574.2000000477,A,bu,O,u,177,1,1299.9000000953674,436274.2999999523,7088,WL,A,1.0
3,1.6670000553131104,learn,58332.99994468689,Wed Apr 02 2025 09:36:02 GMT-0500 (Central Daylight Time),437941.0,A,but,O,t,358,1,1666.7000000476837,436274.2999999523,7088,WL,A,1.0
3,1.8330001831054688,learn,58166.99981689453,Wed Apr 02 2025 09:36:02 GMT-0500 (Central Daylight Time),438106.89999997616,A,butt,O,t,158,1,1832.6000000238419,436274.2999999523,7088,WL,A,1.0
3,1.9160001277923584,learn,58083.99987220764,Wed Apr 02 2025 09:36:02 GMT-0500 (Central Daylight Time),438189.7000000477,A,butto,O,o,76,1,1915.4000000953674,436274.2999999523,7088,WL,A,1.0
3,2.2320001125335693,learn,57767.99988746643,Wed Apr 02 2025 09:36:02 GMT-0500 (Central Daylight Time),438505.89999997616,A,button,O,n,294,1,2231.600000023842,436274.2999999523,7088,WL,A,1.0
3,2.7310001850128174,learn,57268.99981498718,Wed Apr 02 2025 09:36:02 GMT-0500 (Central Daylight Time),439005.0,A,buttonenter,O,enter,491,1,2730.7000000476837,436274.2999999523,7088,WL,A,1.0
3,3.615000009536743,learn,56384.99999046326,Wed Apr 02 2025 09:36:02 GMT-0500 (Central Daylight Time),439888.7999999523,A,r,O,r,873,1,883.5999999046326,439005.2000000477,7088,WL,A,2.0
3,4.315000057220459,learn,55684.99994277954,Wed Apr 02 2025 09:36:02 GMT-0500 (Central Daylight Time),440589.10000002384,A,ra,O,a,683,1,1583.8999999761581,439005.2000000477,7088,WL,A,2.0
3,4.565000057220459,learn,55434.99994277954,Wed Apr 02 2025 09:36:02 GMT-0500 (Central Daylight Time),440838.5,A,rat,O,t,240,1,1833.2999999523163,439005.2000000477,7088,WL,A,2.0
3,4.732000112533569,learn,55267.99988746643,Wed Apr 02 2025 09:36:02 GMT-0500 (Central Daylight Time),441006.2000000477,A,ratt,O,t,162,1,2001.0,439005.2000000477,7088,WL,A,2.0
3,5.398000001907349,learn,54601.99999809265,Wed Apr 02 2025 09:36:02 GMT-0500 (Central Daylight Time),441671.89999997616,A,rattl,O,l,654,1,2666.6999999284744,439005.2000000477,7088,WL,A,2.0
3,5.732000112533569,learn,54267.99988746643,Wed Apr 02 2025 09:36:02 GMT-0500 (Central Daylight Time),442005.60000002384,A,rattle,O,e,316,1,3000.399999976158,439005.2000000477,7088,WL,A,2.0
3,6.03000020980835,learn,53969.99979019165,Wed Apr 02 2025 09:36:02 GMT-0500 (Central Daylight Time),442304.0,A,rattleenter,O,enter,286,1,3298.7999999523163,439005.2000000477,7088,WL,A,2.0
3,7.248000144958496,learn,52751.999855041504,Wed Apr 02 2025 09:36:02 GMT-0500 (Central Daylight Time),443521.5,A,h,O,h,1206,1,1217.2999999523163,442304.2000000477,7088,WL,A,3.0
3,7.71399998664856,learn,52286.00001335144,Wed Apr 02 2025 09:36:02 GMT-0500 (Central Daylight Time),443987.7000000477,A,ha,O,a,460,1,1683.5,442304.2000000477,7088,WL,A,3.0
3,8.21399998664856,learn,51786.00001335144,Wed Apr 02 2025 09:36:02 GMT-0500 (Central Daylight Time),444487.2999999523,A,har,O,r,490,1,2183.0999999046326,442304.2000000477,7088,WL,A,3.0
3,8.662000179290771,learn,51337.99982070923,Wed Apr 02 2025 09:36:02 GMT-0500 (Central Daylight Time),444936.2999999523,A,harp,O,p,438,1,2632.0999999046326,442304.2000000477,7088,WL,A,3.0
3,9.063000202178955,learn,50936.999797821045,Wed Apr 02 2025 09:36:02 GMT-0500 (Central Daylight Time),445336.60000002384,A,harpenter,O,enter,382,1,3032.399999976158,442304.2000000477,7088,WL,A,3.0
3,9.564000129699707,learn,50435.99987030029,Wed Apr 02 2025 09:36:02 GMT-0500 (Central Daylight Time),445837.5,A,c,O,c,486,1,500.60000002384186,445336.89999997616,7088,WL,A,4.0
3,9.78000020980835,learn,50219.99979019165,Wed Apr 02 2025 09:36:02 GMT-0500 (Central Daylight Time),446053.7000000477,A,ch,O,h,209,1,716.8000000715256,445336.89999997616,7088,WL,A,4.0
3,10.230000019073486,learn,49769.999980926514,Wed Apr 02 2025 09:36:02 GMT-0500 (Central Daylight Time),446503.2999999523,A,chi,O,i,433,1,1166.3999999761581,445336.89999997616,7088,WL,A,4.0
3,10.61300015449524,learn,49386.99984550476,Wed Apr 02 2025 09:36:02 GMT-0500 (Central Daylight Time),446886.7000000477,A,chim,O,m,366,1,1549.8000000715256,445336.89999997616,7088,WL,A,4.0
3,11.229000091552734,learn,48770.999908447266,Wed Apr 02 2025 09:36:02 GMT-0500 (Central Daylight Time),447502.7000000477,A,chimn,O,n,606,1,2165.8000000715256,445336.89999997616,7088,WL,A,4.0
3,11.51200008392334,learn,48487.99991607666,Wed Apr 02 2025 09:36:02 GMT-0500 (Central Daylight Time),447785.89999997616,A,chimne,O,e,272,1,2449.0,445336.89999997616,7088,WL,A,4.0
3,11.730000019073486,learn,48269.999980926514,Wed Apr 02 2025 09:36:02 GMT-0500 (Central Daylight Time),448003.7000000477,A,chimney,O,y,197,1,2666.8000000715256,445336.89999997616,7088,WL,A,4.0
3,12.128000020980835,learn,47871.999979019165,Wed Apr 02 2025 09:36:02 GMT-0500 (Central Daylight Time),448402.2000000477,A,chimneyenter,O,enter,384,1,3065.3000000715256,445336.89999997616,7088,WL,A,4.0
3,12.531000137329102,learn,47468.9998626709,Wed Apr 02 2025 09:36:02 GMT-0500 (Central Daylight Time),448804.5,A,l,O,l,398,1,402.0,448402.5,7088,WL,A,5.0
3,12.76200008392334,learn,47237.99991607666,Wed Apr 02 2025 09:36:02 GMT-0500 (Central Daylight Time),449036.10000002384,A,lo,O,o,217,1,633.6000000238419,448402.5,7088,WL,A,5.0
3,13.111999988555908,learn,46888.00001144409,Wed Apr 02 2025 09:36:02 GMT-0500 (Central Daylight Time),449385.7999999523,A,log,O,g,338,1,983.2999999523163,448402.5,7088,WL,A,5.0
3,13.445000171661377,learn,46554.99982833862,Wed Apr 02 2025 09:36:02 GMT-0500 (Central Daylight Time),449718.60000002384,A,logenter,O,enter,323,1,1316.1000000238419,448402.5,7088,WL,A,5.0
3,14.396000146865845,learn,45603.999853134155,Wed Apr 02 2025 09:36:02 GMT-0500 (Central Daylight Time),450669.39999997616,A,b,O,b,946,1,950.6000000238419,449718.7999999523,7088,WL,A,6.0
3,14.59600019454956,learn,45403.99980545044,Wed Apr 02 2025 09:36:02 GMT-0500 (Central Daylight Time),450869.5,A,bo,O,o,193,1,1150.7000000476837,449718.7999999523,7088,WL,A,6.0
3,14.761000156402588,learn,45238.99984359741,Wed Apr 02 2025 09:36:02 GMT-0500 (Central Daylight Time),451034.89999997616,A,boo,O,o,153,1,1316.1000000238419,449718.7999999523,7088,WL,A,6.0
3,15.07800006866455,learn,44921.99993133545,Wed Apr 02 2025 09:36:02 GMT-0500 (Central Daylight Time),451351.7000000477,A,book,O,k,298,1,1632.9000000953674,449718.7999999523,7088,WL,A,6.0
3,15.696000099182129,learn,44303.99990081787,Wed Apr 02 2025 09:36:02 GMT-0500 (Central Daylight Time),451969.2999999523,A,bookenter,O,enter,598,1,2250.5,449718.7999999523,7088,WL,A,6.0
3,16.57800006866455,learn,43421.99993133545,Wed Apr 02 2025 09:36:02 GMT-0500 (Central Daylight Time),452852.0,A,t,O,t,869,1,882.2999999523163,451969.7000000477,7088,WL,A,7.0
3,16.8270001411438,learn,43172.9998588562,Wed Apr 02 2025 09:36:02 GMT-0500 (Central Daylight Time),453100.7999999523,A,tr,O,r,233,1,1131.0999999046326,451969.7000000477,7088,WL,A,7.0
3,17.42900013923645,learn,42570.99986076355,Wed Apr 02 2025 09:36:02 GMT-0500 (Central Daylight Time),453702.39999997616,A,tra,O,a,594,1,1732.6999999284744,451969.7000000477,7088,WL,A,7.0
3,17.695000171661377,learn,42304.99982833862,Wed Apr 02 2025 09:36:02 GMT-0500 (Central Daylight Time),453968.2999999523,A,trai,O,i,256,1,1998.5999999046326,451969.7000000477,7088,WL,A,7.0
3,17.961000204086304,learn,42038.999795913696,Wed Apr 02 2025 09:36:02 GMT-0500 (Central Daylight Time),454234.39999997616,A,train,O,n,247,1,2264.6999999284744,451969.7000000477,7088,WL,A,7.0
3,18.561000108718872,learn,41438.99989128113,Wed Apr 02 2025 09:36:02 GMT-0500 (Central Daylight Time),454834.5,A,trainenter,O,enter,580,1,2864.7999999523163,451969.7000000477,7088,WL,A,7.0
3,19.743000030517578,learn,40256.99996948242,Wed Apr 02 2025 09:36:02 GMT-0500 (Central Daylight Time),456016.60000002384,A,r,O,r,1172,1,1181.8999999761581,454834.7000000477,7088,WL,A,8.0
3,19.9760000705719,learn,40023.9999294281,Wed Apr 02 2025 09:36:02 GMT-0500 (Central Daylight Time),456250.10000002384,A,ru,O,u,212,1,1415.3999999761581,454834.7000000477,7088,WL,A,8.0
3,20.259999990463257,learn,39740.00000953674,Wed Apr 02 2025 09:36:02 GMT-0500 (Central Daylight Time),456533.5,A,rug,O,g,263,1,1698.7999999523163,454834.7000000477,7088,WL,A,8.0
3,20.627000093460083,learn,39372.99990653992,Wed Apr 02 2025 09:36:02 GMT-0500 (Central Daylight Time),456900.60000002384,A,rugenter,O,enter,351,1,2065.899999976158,454834.7000000477,7088,WL,A,8.0
3,21.193000078201294,learn,38806.999921798706,Wed Apr 02 2025 09:36:02 GMT-0500 (Central Daylight Time),457467.2000000477,A,g,O,g,554,1,566.3000000715256,456900.89999997616,7088,WL,A,9.0
3,21.343000173568726,learn,38656.999826431274,Wed Apr 02 2025 09:36:02 GMT-0500 (Central Daylight Time),457616.5,A,go,O,o,139,1,715.6000000238419,456900.89999997616,7088,WL,A,9.0
3,21.56000018119812,learn,38439.99981880188,Wed Apr 02 2025 09:36:02 GMT-0500 (Central Daylight Time),457833.39999997616,A,gol,O,l,196,1,932.5,456900.89999997616,7088,WL,A,9.0
3,21.811000108718872,learn,38188.99989128113,Wed Apr 02 2025 09:36:02 GMT-0500 (Central Daylight Time),458084.39999997616,A,gold,O,d,229,1,1183.5,456900.89999997616,7088,WL,A,9.0
3,22.176000118255615,learn,37823.999881744385,Wed Apr 02 2025 09:36:02 GMT-0500 (Central Daylight Time),458449.5,A,goldenter,O,enter,346,1,1548.6000000238419,456900.89999997616,7088,WL,A,9.0
3,22.859000205993652,learn,37140.99979400635,Wed Apr 02 2025 09:36:02 GMT-0500 (Central Daylight Time),459133.0,A,a,O,a,678,1,683.2000000476837,458449.7999999523,7088,WL,A,10.0
3,23.076000213623047,learn,36923.99978637695,Wed Apr 02 2025 09:36:02 GMT-0500 (Central Daylight Time),459349.2999999523,A,ap,O,p,211,1,899.5,458449.7999999523,7088,WL,A,10.0
3,23.242000102996826,learn,36757.999897003174,Wed Apr 02 2025 09:36:02 GMT-0500 (Central Daylight Time),459516.0,A,app,O,p,151,1,1066.2000000476837,458449.7999999523,7088,WL,A,10.0
3,23.460000038146973,learn,36539.99996185303,Wed Apr 02 2025 09:36:02 GMT-0500 (Central Daylight Time),459733.89999997616,A,appl,O,l,212,1,1284.1000000238419,458449.7999999523,7088,WL,A,10.0
3,23.611000061035156,learn,36388.999938964844,Wed Apr 02 2025 09:36:02 GMT-0500 (Central Daylight Time),459884.7000000477,A,apple,O,e,145,1,1434.9000000953674,458449.7999999523,7088,WL,A,10.0
3,25.825000047683716,learn,34174.999952316284,Wed Apr 02 2025 09:36:02 GMT-0500 (Central Daylight Time),462098.7000000477,A,appleenter,O,enter,2209,1,3648.9000000953674,458449.7999999523,7088,WL,A,10.0
3,28.6560001373291,learn,31343.9998626709,Wed Apr 02 2025 09:36:02 GMT-0500 (Central Daylight Time),464930.2000000477,A,m,O,m,2827,1,2831.2000000476837,462099.0,7088,WL,A,11.0
3,29.02300000190735,learn,30976.99999809265,Wed Apr 02 2025 09:36:02 GMT-0500 (Central Daylight Time),465297.2999999523,A,me,O,e,357,1,3198.2999999523163,462099.0,7088,WL,A,11.0
3,29.33899998664856,learn,30661.00001335144,Wed Apr 02 2025 09:36:02 GMT-0500 (Central Daylight Time),465613.0,A,mea,O,a,299,1,3514.0,462099.0,7088,WL,A,11.0
3,29.659000158309937,learn,30340.999841690063,Wed Apr 02 2025 09:36:02 GMT-0500 (Central Daylight Time),465932.39999997616,A,mead,O,d,298,1,3833.399999976158,462099.0,7088,WL,A,11.0
3,29.892000198364258,learn,30107.999801635742,Wed Apr 02 2025 09:36:02 GMT-0500 (Central Daylight Time),466165.2999999523,A,meado,O,o,228,1,4066.2999999523163,462099.0,7088,WL,A,11.0
3,30.02300000190735,learn,29976.99999809265,Wed Apr 02 2025 09:36:02 GMT-0500 (Central Daylight Time),466297.0,A,meadow,O,w,111,1,4198.0,462099.0,7088,WL,A,11.0
3,30.473000049591064,learn,29526.999950408936,Wed Apr 02 2025 09:36:02 GMT-0500 (Central Daylight Time),466746.7000000477,A,meadowenter,O,enter,437,1,4647.700000047684,462099.0,7088,WL,A,11.0
3,31.92300009727478,learn,28076.99990272522,Wed Apr 02 2025 09:36:02 GMT-0500 (Central Daylight Time),468196.5,A,h,O,h,1445,1,1449.5,466747.0,7088,WL,A,12.0
3,32.23900008201599,learn,27760.99991798401,Wed Apr 02 2025 09:36:02 GMT-0500 (Central Daylight Time),468512.7000000477,A,ha,O,a,296,1,1765.7000000476837,466747.0,7088,WL,A,12.0
3,32.77400016784668,learn,27225.99983215332,Wed Apr 02 2025 09:36:02 GMT-0500 (Central Daylight Time),469047.7000000477,A,har,O,r,510,1,2300.7000000476837,466747.0,7088,WL,A,12.0
3,33.02300000190735,learn,26976.99999809265,Wed Apr 02 2025 09:36:02 GMT-0500 (Central Daylight Time),469296.60000002384,A,harp,O,p,228,1,2549.600000023842,466747.0,7088,WL,A,12.0
3,33.372000217437744,learn,26627.999782562256,Wed Apr 02 2025 09:36:02 GMT-0500 (Central Daylight Time),469645.7999999523,A,harpenter,O,enter,341,1,2898.7999999523163,466747.0,7088,WL,A,12.0
3,60.01300001144409,learn,-13.000011444091797,Wed Apr 02 2025 09:36:02 GMT-0500 (Central Daylight Time),496288.5,A,None,O,None,26637,1,26642.5,469646.0,7088,WL,A,13.0
4,1.183000087738037,learn,58816.99991226196,Wed Apr 02 2025 09:36:02 GMT-0500 (Central Daylight Time),565099.1000000238,A,m,O,m,1161,1,1182.0,563917.1000000238,7088,WL,A,1.0
4,1.5490000247955322,learn,58450.99997520447,Wed Apr 02 2025 09:36:02 GMT-0500 (Central Daylight Time),565465.2000000477,A,me,O,e,342,1,1548.1000000238419,563917.1000000238,7088,WL,A,1.0
4,1.8320000171661377,learn,58167.99998283386,Wed Apr 02 2025 09:36:02 GMT-0500 (Central Daylight Time),565749.1000000238,A,mea,O,a,268,1,1832.0,563917.1000000238,7088,WL,A,1.0
4,2.2160000801086426,learn,57783.99991989136,Wed Apr 02 2025 09:36:02 GMT-0500 (Central Daylight Time),566132.7000000477,A,mead,O,d,369,1,2215.600000023842,563917.1000000238,7088,WL,A,1.0
4,2.750999927520752,learn,57249.00007247925,Wed Apr 02 2025 09:36:02 GMT-0500 (Central Daylight Time),566667.6000000238,A,meado,O,o,513,1,2750.5,563917.1000000238,7088,WL,A,1.0
4,2.865000009536743,learn,57134.99999046326,Wed Apr 02 2025 09:36:02 GMT-0500 (Central Daylight Time),566781.2999999523,A,meadow,O,w,98,1,2864.1999999284744,563917.1000000238,7088,WL,A,1.0
4,3.1670000553131104,learn,56832.99994468689,Wed Apr 02 2025 09:36:02 GMT-0500 (Central Daylight Time),567083.2999999523,A,meadowenter,O,enter,295,1,3166.1999999284744,563917.1000000238,7088,WL,A,1.0
4,3.9670000076293945,learn,56032.999992370605,Wed Apr 02 2025 09:36:02 GMT-0500 (Central Daylight Time),567884.0,A,h,O,h,786,1,800.5,567083.5,7088,WL,A,2.0
4,4.247999906539917,learn,55752.00009346008,Wed Apr 02 2025 09:36:02 GMT-0500 (Central Daylight Time),568164.5,A,ha,O,a,265,1,1081.0,567083.5,7088,WL,A,2.0
4,5.197000026702881,learn,54802.99997329712,Wed Apr 02 2025 09:36:02 GMT-0500 (Central Daylight Time),569113.6000000238,A,har,O,r,936,1,2030.1000000238419,567083.5,7088,WL,A,2.0
4,5.3480000495910645,learn,54651.999950408936,Wed Apr 02 2025 09:36:02 GMT-0500 (Central Daylight Time),569264.5,A,harp,O,p,141,1,2181.0,567083.5,7088,WL,A,2.0
4,5.664999961853027,learn,54335.00003814697,Wed Apr 02 2025 09:36:02 GMT-0500 (Central Daylight Time),569581.8999999762,A,harpenter,O,enter,308,1,2498.399999976158,567083.5,7088,WL,A,2.0
4,6.3480000495910645,learn,53651.999950408936,Wed Apr 02 2025 09:36:02 GMT-0500 (Central Daylight Time),570264.1000000238,A,s,O,s,672,1,682.0,569582.1000000238,7088,WL,A,3.0
4,6.5980000495910645,learn,53401.999950408936,Wed Apr 02 2025 09:36:02 GMT-0500 (Central Daylight Time),570514.7999999523,A,sa,O,a,230,1,932.6999999284744,569582.1000000238,7088,WL,A,3.0
4,6.730999946594238,learn,53269.00005340576,Wed Apr 02 2025 09:36:02 GMT-0500 (Central Daylight Time),570647.6000000238,A,sal,O,l,112,1,1065.5,569582.1000000238,7088,WL,A,3.0
4,7.180999994277954,learn,52819.000005722046,Wed Apr 02 2025 09:36:02 GMT-0500 (Central Daylight Time),571098.0,A,salt,O,t,428,1,1515.8999999761581,569582.1000000238,7088,WL,A,3.0
4,7.815000057220459,learn,52184.99994277954,Wed Apr 02 2025 09:36:02 GMT-0500 (Central Daylight Time),571732.0,A,saltf,O,f,627,1,2149.899999976158,569582.1000000238,7088,WL,A,3.0
4,8.04800009727478,learn,51951.99990272522,Wed Apr 02 2025 09:36:02 GMT-0500 (Central Daylight Time),571964.5,A,saltfi,O,i,210,1,2382.399999976158,569582.1000000238,7088,WL,A,3.0
4,8.266000032424927,learn,51733.99996757507,Wed Apr 02 2025 09:36:02 GMT-0500 (Central Daylight Time),572182.2000000477,A,saltfin,O,n,211,1,2600.100000023842,569582.1000000238,7088,WL,A,3.0
4,8.446000099182129,learn,51553.99990081787,Wed Apr 02 2025 09:36:02 GMT-0500 (Central Daylight Time),572362.7000000477,A,saltfing,O,g,165,1,2780.600000023842,569582.1000000238,7088,WL,A,3.0
4,8.997999906539917,learn,51002.00009346008,Wed Apr 02 2025 09:36:02 GMT-0500 (Central Daylight Time),572914.1000000238,A,saltfinge,O,e,539,1,3332.0,569582.1000000238,7088,WL,A,3.0
4,9.29800009727478,learn,50701.99990272522,Wed Apr 02 2025 09:36:02 GMT-0500 (Central Daylight Time),573214.0,A,saltfinger,O,r,284,1,3631.899999976158,569582.1000000238,7088,WL,A,3.0
4,9.647000074386597,learn,50352.9999256134,Wed Apr 02 2025 09:36:02 GMT-0500 (Central Daylight Time),573563.5,A,saltfingerenter,O,enter,343,1,3981.399999976158,569582.1000000238,7088,WL,A,3.0
4,14.680000066757202,learn,45319.9999332428,Wed Apr 02 2025 09:36:02 GMT-0500 (Central Daylight Time),578596.2000000477,A,c,O,c,5018,1,5032.400000095367,573563.7999999523,7088,WL,A,4.0
4,14.793999910354614,learn,45206.000089645386,Wed Apr 02 2025 09:36:02 GMT-0500 (Central Daylight Time),578710.2999999523,A,ch,O,h,97,1,5146.5,573563.7999999523,7088,WL,A,4.0
4,15.311000108718872,learn,44688.99989128113,Wed Apr 02 2025 09:36:02 GMT-0500 (Central Daylight Time),579227.8999999762,A,chi,O,i,505,1,5664.100000023842,573563.7999999523,7088,WL,A,4.0
4,15.57800006866455,learn,44421.99993133545,Wed Apr 02 2025 09:36:02 GMT-0500 (Central Daylight Time),579494.8999999762,A,chim,O,m,249,1,5931.100000023842,573563.7999999523,7088,WL,A,4.0
4,16.043999910354614,learn,43956.000089645386,Wed Apr 02 2025 09:36:02 GMT-0500 (Central Daylight Time),579960.5,A,chimn,O,n,455,1,6396.700000047684,573563.7999999523,7088,WL,A,4.0
4,16.361999988555908,learn,43638.00001144409,Wed Apr 02 2025 09:36:02 GMT-0500 (Central Daylight Time),580278.2000000477,A,chimne,O,e,301,1,6714.400000095367,573563.7999999523,7088,WL,A,4.0
4,16.51099991798401,learn,43489.00008201599,Wed Apr 02 2025 09:36:02 GMT-0500 (Central Daylight Time),580428.1000000238,A,chimney,O,y,143,1,6864.300000071526,573563.7999999523,7088,WL,A,4.0
4,16.91100001335144,learn,43088.99998664856,Wed Apr 02 2025 09:36:02 GMT-0500 (Central Daylight Time),580827.0,A,chimneyenter,O,enter,392,1,7263.200000047684,573563.7999999523,7088,WL,A,4.0
4,17.677000045776367,learn,42322.99995422363,Wed Apr 02 2025 09:36:02 GMT-0500 (Central Daylight Time),581593.5,A,l,O,l,755,1,766.2000000476837,580827.2999999523,7088,WL,A,5.0
4,17.877000093460083,learn,42122.99990653992,Wed Apr 02 2025 09:36:02 GMT-0500 (Central Daylight Time),581793.7999999523,A,lo,O,o,189,1,966.5,580827.2999999523,7088,WL,A,5.0
4,18.243000030517578,learn,41756.99996948242,Wed Apr 02 2025 09:36:02 GMT-0500 (Central Daylight Time),582159.5,A,log,O,g,349,1,1332.2000000476837,580827.2999999523,7088,WL,A,5.0
4,18.66000008583069,learn,41339.99991416931,Wed Apr 02 2025 09:36:02 GMT-0500 (Central Daylight Time),582576.8999999762,A,logenter,O,enter,407,1,1749.6000000238419,580827.2999999523,7088,WL,A,5.0
4,19.80999994277954,learn,40190.00005722046,Wed Apr 02 2025 09:36:02 GMT-0500 (Central Daylight Time),583726.7000000477,A,g,O,g,1144,1,1149.7000000476837,582577.0,7088,WL,A,6.0
4,19.960999965667725,learn,40039.000034332275,Wed Apr 02 2025 09:36:02 GMT-0500 (Central Daylight Time),583877.2999999523,A,go,O,o,145,1,1300.2999999523163,582577.0,7088,WL,A,6.0
4,20.161999940872192,learn,39838.00005912781,Wed Apr 02 2025 09:36:02 GMT-0500 (Central Daylight Time),584078.2999999523,A,gol,O,l,193,1,1501.2999999523163,582577.0,7088,WL,A,6.0
4,20.526000022888184,learn,39473.99997711182,Wed Apr 02 2025 09:36:02 GMT-0500 (Central Daylight Time),584442.7000000477,A,gold,O,d,351,1,1865.7000000476837,582577.0,7088,WL,A,6.0
4,20.776000022888184,learn,39223.99997711182,Wed Apr 02 2025 09:36:02 GMT-0500 (Central Daylight Time),584692.7000000477,A,goldenter,O,enter,241,1,2115.7000000476837,582577.0,7088,WL,A,6.0
4,21.924999952316284,learn,38075.000047683716,Wed Apr 02 2025 09:36:02 GMT-0500 (Central Daylight Time),585841.7999999523,A,a,O,a,1137,1,1148.8999999761581,584692.8999999762,7088,WL,A,7.0
4,22.158999919891357,learn,37841.00008010864,Wed Apr 02 2025 09:36:02 GMT-0500 (Central Daylight Time),586076.0,A,ap,O,p,219,1,1383.1000000238419,584692.8999999762,7088,WL,A,7.0
4,22.32699990272522,learn,37673.00009727478,Wed Apr 02 2025 09:36:02 GMT-0500 (Central Daylight Time),586244.0,A,app,O,p,154,1,1551.1000000238419,584692.8999999762,7088,WL,A,7.0
4,22.54099988937378,learn,37459.00011062622,Wed Apr 02 2025 09:36:02 GMT-0500 (Central Daylight Time),586457.7000000477,A,appl,O,l,201,1,1764.8000000715256,584692.8999999762,7088,WL,A,7.0
4,22.70900011062622,learn,37290.99988937378,Wed Apr 02 2025 09:36:02 GMT-0500 (Central Daylight Time),586625.5,A,apple,O,e,148,1,1932.6000000238419,584692.8999999762,7088,WL,A,7.0
4,23.02500009536743,learn,36974.99990463257,Wed Apr 02 2025 09:36:02 GMT-0500 (Central Daylight Time),586941.0,A,appleenter,O,enter,293,1,2248.100000023842,584692.8999999762,7088,WL,A,7.0
4,24.223999977111816,learn,35776.00002288818,Wed Apr 02 2025 09:36:02 GMT-0500 (Central Daylight Time),588140.8999999762,A,b,O,b,1185,1,1199.5,586941.3999999762,7088,WL,A,8.0
4,24.723999977111816,learn,35276.00002288818,Wed Apr 02 2025 09:36:02 GMT-0500 (Central Daylight Time),588640.7999999523,A,bo,O,o,480,1,1699.3999999761581,586941.3999999762,7088,WL,A,8.0
4,24.85800004005432,learn,35141.99995994568,Wed Apr 02 2025 09:36:02 GMT-0500 (Central Daylight Time),588774.7999999523,A,boo,O,o,116,1,1833.3999999761581,586941.3999999762,7088,WL,A,8.0
4,25.424999952316284,learn,34575.000047683716,Wed Apr 02 2025 09:36:02 GMT-0500 (Central Daylight Time),589341.7000000477,A,book,O,k,550,1,2400.3000000715256,586941.3999999762,7088,WL,A,8.0
4,26.174999952316284,learn,33825.000047683716,Wed Apr 02 2025 09:36:02 GMT-0500 (Central Daylight Time),590091.7999999523,A,bookenter,O,enter,745,1,3150.399999976158,586941.3999999762,7088,WL,A,8.0
4,26.825000047683716,learn,33174.999952316284,Wed Apr 02 2025 09:36:02 GMT-0500 (Central Daylight Time),590741.2999999523,A,t,O,t,644,1,649.1999999284744,590092.1000000238,7088,WL,A,9.0
4,27.073999881744385,learn,32926.000118255615,Wed Apr 02 2025 09:36:02 GMT-0500 (Central Daylight Time),590990.7999999523,A,tr,O,r,231,1,898.6999999284744,590092.1000000238,7088,WL,A,9.0
4,27.375,learn,32625.0,Wed Apr 02 2025 09:36:02 GMT-0500 (Central Daylight Time),591291.5,A,tra,O,a,278,1,1199.3999999761581,590092.1000000238,7088,WL,A,9.0
4,27.624000072479248,learn,32375.999927520752,Wed Apr 02 2025 09:36:02 GMT-0500 (Central Daylight Time),591540.2000000477,A,trai,O,i,233,1,1448.1000000238419,590092.1000000238,7088,WL,A,9.0
4,27.891000032424927,learn,32108.999967575073,Wed Apr 02 2025 09:36:02 GMT-0500 (Central Daylight Time),591807.3999999762,A,train,O,n,246,1,1715.2999999523163,590092.1000000238,7088,WL,A,9.0
4,28.456000089645386,learn,31543.999910354614,Wed Apr 02 2025 09:36:02 GMT-0500 (Central Daylight Time),592372.8999999762,A,trainenter,O,enter,549,1,2280.7999999523163,590092.1000000238,7088,WL,A,9.0
4,28.992000102996826,learn,31007.999897003174,Wed Apr 02 2025 09:36:02 GMT-0500 (Central Daylight Time),592908.8999999762,A,r,O,r,530,1,535.6999999284744,592373.2000000477,7088,WL,A,10.0
4,29.25600004196167,learn,30743.99995803833,Wed Apr 02 2025 09:36:02 GMT-0500 (Central Daylight Time),593172.7999999523,A,ru,O,u,242,1,799.5999999046326,592373.2000000477,7088,WL,A,10.0
4,29.490999937057495,learn,30509.000062942505,Wed Apr 02 2025 09:36:02 GMT-0500 (Central Daylight Time),593407.2999999523,A,run,O,n,215,1,1034.0999999046326,592373.2000000477,7088,WL,A,10.0
4,30.19099998474121,learn,29809.00001525879,Wed Apr 02 2025 09:36:02 GMT-0500 (Central Daylight Time),594107.2000000477,A,ru,O,backspace,686,1,1734.0,592373.2000000477,7088,WL,A,10.0
4,30.490999937057495,learn,29509.000062942505,Wed Apr 02 2025 09:36:02 GMT-0500 (Central Daylight Time),594407.1000000238,A,rug,O,g,282,1,2033.8999999761581,592373.2000000477,7088,WL,A,10.0
4,30.83899998664856,learn,29161.00001335144,Wed Apr 02 2025 09:36:02 GMT-0500 (Central Daylight Time),594755.7999999523,A,rugenter,O,enter,333,1,2382.5999999046326,592373.2000000477,7088,WL,A,10.0
4,36.0220000743866,learn,23977.999925613403,Wed Apr 02 2025 09:36:02 GMT-0500 (Central Daylight Time),599939.6000000238,A,b,O,b,5178,1,5183.5,594756.1000000238,7088,WL,A,11.0
4,36.569000005722046,learn,23430.999994277954,Wed Apr 02 2025 09:36:02 GMT-0500 (Central Daylight Time),600486.8999999762,A,bu,O,u,530,1,5730.799999952316,594756.1000000238,7088,WL,A,11.0
4,36.8199999332428,learn,23180.000066757202,Wed Apr 02 2025 09:36:02 GMT-0500 (Central Daylight Time),600738.1000000238,A,but,O,t,238,1,5982.0,594756.1000000238,7088,WL,A,11.0
4,37.019999980926514,learn,22980.000019073486,Wed Apr 02 2025 09:36:02 GMT-0500 (Central Daylight Time),600937.8999999762,A,butt,O,t,179,1,6181.799999952316,594756.1000000238,7088,WL,A,11.0
4,37.1029999256134,learn,22897.000074386597,Wed Apr 02 2025 09:36:02 GMT-0500 (Central Daylight Time),601020.6000000238,A,butto,O,o,66,1,6264.5,594756.1000000238,7088,WL,A,11.0
4,37.420000076293945,learn,22579.999923706055,Wed Apr 02 2025 09:36:02 GMT-0500 (Central Daylight Time),601337.7999999523,A,button,O,n,304,1,6581.699999928474,594756.1000000238,7088,WL,A,11.0
4,38.170000076293945,learn,21829.999923706055,Wed Apr 02 2025 09:36:02 GMT-0500 (Central Daylight Time),602087.6000000238,A,buttonenter,O,enter,732,1,7331.5,594756.1000000238,7088,WL,A,11.0
4,60.01300001144409,learn,-13.000011444091797,Wed Apr 02 2025 09:36:02 GMT-0500 (Central Daylight Time),623931.3999999762,A,None,O,None,21838,1,21843.600000023842,602087.7999999523,7088,WL,A,12.0
5,1.0170001983642578,learn,60000.0,Wed Apr 02 2025 09:36:02 GMT-0500 (Central Daylight Time),696207.6000000238,A,k,O,k,1001,1,1017.3999999761581,695190.2000000477,7088,WL,A,1.0
5,1.4509999752044678,learn,60000.0,Wed Apr 02 2025 09:36:02 GMT-0500 (Central Daylight Time),696641.5,A,ke,O,e,413,1,1451.2999999523163,695190.2000000477,7088,WL,A,1.0
5,1.6670000553131104,learn,60000.0,Wed Apr 02 2025 09:36:02 GMT-0500 (Central Daylight Time),696856.8999999762,A,key,O,y,195,1,1666.6999999284744,695190.2000000477,7088,WL,A,1.0
5,3.682000160217285,learn,60000.0,Wed Apr 02 2025 09:36:02 GMT-0500 (Central Daylight Time),698872.2999999523,A,keyenter,O,enter,2005,1,3682.0999999046326,695190.2000000477,7088,WL,A,1.0
5,4.932000160217285,learn,60000.0,Wed Apr 02 2025 09:36:02 GMT-0500 (Central Daylight Time),700121.7000000477,A,r,O,r,1229,1,1249.1000000238419,698872.6000000238,7088,WL,A,2.0
5,5.199000120162964,learn,60000.0,Wed Apr 02 2025 09:36:02 GMT-0500 (Central Daylight Time),700389.6000000238,A,ra,O,a,263,1,1517.0,698872.6000000238,7088,WL,A,2.0
5,5.433000087738037,learn,60000.0,Wed Apr 02 2025 09:36:02 GMT-0500 (Central Daylight Time),700623.2000000477,A,rat,O,t,216,1,1750.6000000238419,698872.6000000238,7088,WL,A,2.0
5,5.582000017166138,learn,60000.0,Wed Apr 02 2025 09:36:02 GMT-0500 (Central Daylight Time),700772.2999999523,A,ratt,O,t,134,1,1899.6999999284744,698872.6000000238,7088,WL,A,2.0
5,6.432000160217285,learn,60000.0,Wed Apr 02 2025 09:36:02 GMT-0500 (Central Daylight Time),701622.2999999523,A,rattl,O,l,833,1,2749.6999999284744,698872.6000000238,7088,WL,A,2.0
5,6.682000160217285,learn,60000.0,Wed Apr 02 2025 09:36:02 GMT-0500 (Central Daylight Time),701871.8999999762,A,rattle,O,e,240,1,2999.2999999523163,698872.6000000238,7088,WL,A,2.0
5,6.932000160217285,learn,60000.0,Wed Apr 02 2025 09:36:02 GMT-0500 (Central Daylight Time),702122.1000000238,A,rattleenter,O,enter,237,1,3249.5,698872.6000000238,7088,WL,A,2.0
5,8.430999994277954,learn,60000.0,Wed Apr 02 2025 09:36:02 GMT-0500 (Central Daylight Time),703620.7999999523,A,g,O,g,1484,1,1498.5,702122.2999999523,7088,WL,A,3.0
5,8.583000183105469,learn,60000.0,Wed Apr 02 2025 09:36:02 GMT-0500 (Central Daylight Time),703773.0,A,go,O,o,134,1,1650.7000000476837,702122.2999999523,7088,WL,A,3.0
5,8.782000064849854,learn,60000.0,Wed Apr 02 2025 09:36:02 GMT-0500 (Central Daylight Time),703972.1000000238,A,gol,O,l,193,1,1849.8000000715256,702122.2999999523,7088,WL,A,3.0
5,9.047000169754028,learn,60000.0,Wed Apr 02 2025 09:36:02 GMT-0500 (Central Daylight Time),704237.6000000238,A,gold,O,d,258,1,2115.3000000715256,702122.2999999523,7088,WL,A,3.0
5,10.397000074386597,learn,60000.0,Wed Apr 02 2025 09:36:02 GMT-0500 (Central Daylight Time),705586.7999999523,A,goldenter,O,enter,1335,1,3464.5,702122.2999999523,7088,WL,A,3.0
5,11.21500015258789,learn,60000.0,Wed Apr 02 2025 09:36:02 GMT-0500 (Central Daylight Time),706405.5,A,b,O,b,813,1,818.3999999761581,705587.1000000238,7088,WL,A,4.0
5,11.729000091552734,learn,60000.0,Wed Apr 02 2025 09:36:02 GMT-0500 (Central Daylight Time),706919.5,A,bu,O,u,503,1,1332.3999999761581,705587.1000000238,7088,WL,A,4.0
5,12.164000034332275,learn,60000.0,Wed Apr 02 2025 09:36:02 GMT-0500 (Central Daylight Time),707354.7000000477,A,but,O,t,415,1,1767.6000000238419,705587.1000000238,7088,WL,A,4.0
5,12.330000162124634,learn,60000.0,Wed Apr 02 2025 09:36:02 GMT-0500 (Central Daylight Time),707520.6000000238,A,butt,O,t,146,1,1933.5,705587.1000000238,7088,WL,A,4.0
5,12.414000034332275,learn,60000.0,Wed Apr 02 2025 09:36:02 GMT-0500 (Central Daylight Time),707604.1000000238,A,butto,O,o,79,1,2017.0,705587.1000000238,7088,WL,A,4.0
5,12.664000034332275,learn,60000.0,Wed Apr 02 2025 09:36:02 GMT-0500 (Central Daylight Time),707854.1000000238,A,button,O,n,243,1,2267.0,705587.1000000238,7088,WL,A,4.0
5,13.09600019454956,learn,60000.0,Wed Apr 02 2025 09:36:02 GMT-0500 (Central Daylight Time),708285.8999999762,A,buttonenter,O,enter,423,1,2698.7999999523163,705587.1000000238,7088,WL,A,4.0
5,13.896000146865845,learn,60000.0,Wed Apr 02 2025 09:36:02 GMT-0500 (Central Daylight Time),709086.3999999762,A,c,O,c,791,1,800.1999999284744,708286.2000000477,7088,WL,A,5.0
5,14.11300015449524,learn,60000.0,Wed Apr 02 2025 09:36:02 GMT-0500 (Central Daylight Time),709303.5,A,ch,O,h,198,1,1017.2999999523163,708286.2000000477,7088,WL,A,5.0
5,14.513000011444092,learn,60000.0,Wed Apr 02 2025 09:36:02 GMT-0500 (Central Daylight Time),709703.1000000238,A,chi,O,i,382,1,1416.8999999761581,708286.2000000477,7088,WL,A,5.0
5,15.578999996185303,learn,60000.0,Wed Apr 02 2025 09:36:02 GMT-0500 (Central Daylight Time),710768.8999999762,A,chim,O,m,1055,1,2482.6999999284744,708286.2000000477,7088,WL,A,5.0
5,16.19600009918213,learn,60000.0,Wed Apr 02 2025 09:36:02 GMT-0500 (Central Daylight Time),711385.7000000477,A,chimn,O,n,596,1,3099.5,708286.2000000477,7088,WL,A,5.0
5,16.561000108718872,learn,60000.0,Wed Apr 02 2025 09:36:02 GMT-0500 (Central Daylight Time),711750.8999999762,A,chimne,O,e,355,1,3464.6999999284744,708286.2000000477,7088,WL,A,5.0
5,16.728000164031982,learn,60000.0,Wed Apr 02 2025 09:36:02 GMT-0500 (Central Daylight Time),711918.6000000238,A,chimney,O,y,149,1,3632.399999976158,708286.2000000477,7088,WL,A,5.0
5,17.24500012397766,learn,60000.0,Wed Apr 02 2025 09:36:02 GMT-0500 (Central Daylight Time),712435.0,A,chimneyenter,O,enter,502,1,4148.799999952316,708286.2000000477,7088,WL,A,5.0
5,17.711000204086304,learn,60000.0,Wed Apr 02 2025 09:36:02 GMT-0500 (Central Daylight Time),712901.2999999523,A,l,O,l,460,1,466.0,712435.2999999523,7088,WL,A,6.0
5,17.92900013923645,learn,60000.0,Wed Apr 02 2025 09:36:02 GMT-0500 (Central Daylight Time),713118.7999999523,A,lo,O,o,199,1,683.5,712435.2999999523,7088,WL,A,6.0
5,18.296000003814697,learn,60000.0,Wed Apr 02 2025 09:36:02 GMT-0500 (Central Daylight Time),713486.1000000238,A,log,O,g,350,1,1050.8000000715256,712435.2999999523,7088,WL,A,6.0
5,18.728000164031982,learn,60000.0,Wed Apr 02 2025 09:36:02 GMT-0500 (Central Daylight Time),713917.8999999762,A,logenter,O,enter,424,1,1482.6000000238419,712435.2999999523,7088,WL,A,6.0
5,19.578999996185303,learn,60000.0,Wed Apr 02 2025 09:36:02 GMT-0500 (Central Daylight Time),714769.2000000477,A,s,O,s,841,1,851.1000000238419,713918.1000000238,7088,WL,A,7.0
5,19.84500002861023,learn,60000.0,Wed Apr 02 2025 09:36:02 GMT-0500 (Central Daylight Time),715035.2999999523,A,sa,O,a,244,1,1117.1999999284744,713918.1000000238,7088,WL,A,7.0
5,20.011000156402588,learn,60000.0,Wed Apr 02 2025 09:36:02 GMT-0500 (Central Daylight Time),715201.3999999762,A,sal,O,l,153,1,1283.2999999523163,713918.1000000238,7088,WL,A,7.0
5,20.42799997329712,learn,60000.0,Wed Apr 02 2025 09:36:02 GMT-0500 (Central Daylight Time),715618.2000000477,A,salt,O,t,405,1,1700.1000000238419,713918.1000000238,7088,WL,A,7.0
5,20.926000118255615,learn,60000.0,Wed Apr 02 2025 09:36:02 GMT-0500 (Central Daylight Time),716116.7000000477,A,saltenter,O,enter,482,1,2198.600000023842,713918.1000000238,7088,WL,A,7.0
5,21.561000108718872,learn,60000.0,Wed Apr 02 2025 09:36:02 GMT-0500 (Central Daylight Time),716751.0,A,m,O,m,617,1,634.0,716117.0,7088,WL,A,8.0
5,21.81000018119812,learn,60000.0,Wed Apr 02 2025 09:36:02 GMT-0500 (Central Daylight Time),717000.7000000477,A,me,O,e,238,1,883.7000000476837,716117.0,7088,WL,A,8.0
5,22.12600016593933,learn,60000.0,Wed Apr 02 2025 09:36:02 GMT-0500 (Central Daylight Time),717317.7000000477,A,mea,O,a,310,1,1200.7000000476837,716117.0,7088,WL,A,8.0
5,22.45800018310547,learn,60000.0,Wed Apr 02 2025 09:36:02 GMT-0500 (Central Daylight Time),717650.1000000238,A,mead,O,d,316,1,1533.1000000238419,716117.0,7088,WL,A,8.0
5,22.742000102996826,learn,60000.0,Wed Apr 02 2025 09:36:02 GMT-0500 (Central Daylight Time),717934.1000000238,A,meado,O,o,274,1,1817.1000000238419,716117.0,7088,WL,A,8.0
5,22.95800018310547,learn,60000.0,Wed Apr 02 2025 09:36:02 GMT-0500 (Central Daylight Time),718149.7000000477,A,meadow,O,w,208,1,2032.7000000476837,716117.0,7088,WL,A,8.0
5,23.54200005531311,learn,60000.0,Wed Apr 02 2025 09:36:02 GMT-0500 (Central Daylight Time),718733.2000000477,A,meadowenter,O,enter,572,1,2616.2000000476837,716117.0,7088,WL,A,8.0
5,24.824000120162964,learn,60000.0,Wed Apr 02 2025 09:36:02 GMT-0500 (Central Daylight Time),720015.5,A,b,O,b,1263,1,1281.8999999761581,718733.6000000238,7088,WL,A,9.0
5,25.05900001525879,learn,60000.0,Wed Apr 02 2025 09:36:02 GMT-0500 (Central Daylight Time),720251.0,A,bo,O,o,211,1,1517.3999999761581,718733.6000000238,7088,WL,A,9.0
5,25.225000143051147,learn,60000.0,Wed Apr 02 2025 09:36:02 GMT-0500 (Central Daylight Time),720416.7000000477,A,boo,O,o,145,1,1683.1000000238419,718733.6000000238,7088,WL,A,9.0
5,25.558000087738037,learn,60000.0,Wed Apr 02 2025 09:36:02 GMT-0500 (Central Daylight Time),720749.8999999762,A,book,O,k,324,1,2016.2999999523163,718733.6000000238,7088,WL,A,9.0
5,26.141000032424927,learn,60000.0,Wed Apr 02 2025 09:36:02 GMT-0500 (Central Daylight Time),721332.6000000238,A,bookenter,O,enter,575,1,2599.0,718733.6000000238,7088,WL,A,9.0
5,27.04200005531311,learn,60000.0,Wed Apr 02 2025 09:36:02 GMT-0500 (Central Daylight Time),722233.2999999523,A,f,O,f,890,1,900.5,721332.7999999523,7088,WL,A,10.0
5,27.223999977111816,learn,60000.0,Wed Apr 02 2025 09:36:02 GMT-0500 (Central Daylight Time),722415.6000000238,A,fl,O,l,163,1,1082.8000000715256,721332.7999999523,7088,WL,A,10.0
5,27.457000017166138,learn,60000.0,Wed Apr 02 2025 09:36:02 GMT-0500 (Central Daylight Time),722649.0,A,flo,O,o,212,1,1316.2000000476837,721332.7999999523,7088,WL,A,10.0
5,27.743000030517578,learn,60000.0,Wed Apr 02 2025 09:36:02 GMT-0500 (Central Daylight Time),722934.1000000238,A,flow,O,w,277,1,1601.3000000715256,721332.7999999523,7088,WL,A,10.0
5,28.144999980926514,learn,60000.0,Wed Apr 02 2025 09:36:02 GMT-0500 (Central Daylight Time),723336.6000000238,A,flowe,O,e,390,1,2003.8000000715256,721332.7999999523,7088,WL,A,10.0
5,28.44099998474121,learn,60000.0,Wed Apr 02 2025 09:36:02 GMT-0500 (Central Daylight Time),723633.0,A,flower,O,r,278,1,2300.2000000476837,721332.7999999523,7088,WL,A,10.0
5,28.757000207901,learn,60000.0,Wed Apr 02 2025 09:36:02 GMT-0500 (Central Daylight Time),723948.5,A,flowerenter,O,enter,308,1,2615.7000000476837,721332.7999999523,7088,WL,A,10.0
5,29.789000034332275,learn,60000.0,Wed Apr 02 2025 09:36:02 GMT-0500 (Central Daylight Time),724981.0,A,r,O,r,1026,1,1032.2999999523163,723948.7000000477,7088,WL,A,11.0
5,29.98900008201599,learn,60000.0,Wed Apr 02 2025 09:36:02 GMT-0500 (Central Daylight Time),725181.0,A,ru,O,u,182,1,1232.2999999523163,723948.7000000477,7088,WL,A,11.0
5,30.34000015258789,learn,60000.0,Wed Apr 02 2025 09:36:02 GMT-0500 (Central Daylight Time),725531.1000000238,A,rug,O,g,336,1,1582.3999999761581,723948.7000000477,7088,WL,A,11.0
5,30.873000144958496,learn,60000.0,Wed Apr 02 2025 09:36:02 GMT-0500 (Central Daylight Time),726064.5,A,rugt,O,t,514,1,2115.7999999523163,723948.7000000477,7088,WL,A,11.0
5,31.623000144958496,learn,60000.0,Wed Apr 02 2025 09:36:02 GMT-0500 (Central Daylight Time),726814.6000000238,A,rug,O,backspace,728,1,2865.899999976158,723948.7000000477,7088,WL,A,11.0
5,32.938000202178955,learn,60000.0,Wed Apr 02 2025 09:36:02 GMT-0500 (Central Daylight Time),728129.7000000477,A,rugenter,O,enter,1299,1,4181.0,723948.7000000477,7088,WL,A,11.0
5,34.140000104904175,learn,60000.0,Wed Apr 02 2025 09:36:02 GMT-0500 (Central Daylight Time),729331.2999999523,A,t,O,t,1196,1,1201.3999999761581,728129.8999999762,7088,WL,A,12.0
5,34.45300006866455,learn,60000.0,Wed Apr 02 2025 09:36:02 GMT-0500 (Central Daylight Time),729644.2000000477,A,tr,O,r,303,1,1514.3000000715256,728129.8999999762,7088,WL,A,12.0
5,35.13800001144409,learn,60000.0,Wed Apr 02 2025 09:36:02 GMT-0500 (Central Daylight Time),730330.0,A,tra,O,a,675,1,2200.100000023842,728129.8999999762,7088,WL,A,12.0
5,35.438000202178955,learn,60000.0,Wed Apr 02 2025 09:36:02 GMT-0500 (Central Daylight Time),730629.8999999762,A,trai,O,i,281,1,2500.0,728129.8999999762,7088,WL,A,12.0
5,35.78800010681152,learn,60000.0,Wed Apr 02 2025 09:36:02 GMT-0500 (Central Daylight Time),730979.3999999762,A,train,O,n,335,1,2849.5,728129.8999999762,7088,WL,A,12.0
5,37.188000202178955,learn,60000.0,Wed Apr 02 2025 09:36:02 GMT-0500 (Central Daylight Time),732379.5,A,trainenter,O,enter,1378,1,4249.600000023842,728129.8999999762,7088,WL,A,12.0
5,40.057000160217285,learn,60000.0,Wed Apr 02 2025 09:36:02 GMT-0500 (Central Daylight Time),735248.5,A,a,O,a,2863,1,2868.7999999523163,732379.7000000477,7088,WL,A,13.0
5,40.205000162124634,learn,60000.0,Wed Apr 02 2025 09:36:02 GMT-0500 (Central Daylight Time),735396.8999999762,A,ap,O,p,142,1,3017.1999999284744,732379.7000000477,7088,WL,A,13.0
5,40.41799998283386,learn,60000.0,Wed Apr 02 2025 09:36:02 GMT-0500 (Central Daylight Time),735609.7999999523,A,app,O,p,200,1,3230.0999999046326,732379.7000000477,7088,WL,A,13.0
5,40.65300011634827,learn,60000.0,Wed Apr 02 2025 09:36:02 GMT-0500 (Central Daylight Time),735844.3999999762,A,appl,O,l,222,1,3464.6999999284744,732379.7000000477,7088,WL,A,13.0
5,40.837000131607056,learn,60000.0,Wed Apr 02 2025 09:36:02 GMT-0500 (Central Daylight Time),736028.5,A,apple,O,e,176,1,3648.7999999523163,732379.7000000477,7088,WL,A,13.0
5,41.519999980926514,learn,60000.0,Wed Apr 02 2025 09:36:02 GMT-0500 (Central Daylight Time),736711.2999999523,A,appleenter,O,enter,661,1,4331.599999904633,732379.7000000477,7088,WL,A,13.0
5,101.5329999923706,learn,60000.0,Wed Apr 02 2025 09:36:02 GMT-0500 (Central Daylight Time),796726.0,A,None,O,None,60009,1,60014.5,736711.5,7088,WL,A,14.0
6,1.1319999694824219,distr,58868.00003051758,Wed Apr 02 2025 09:36:02 GMT-0500 (Central Daylight Time),870335.5,B,p,O,p,1109,1,1132.0,869203.5,7088,WL,A,1.0
6,1.38100004196167,distr,58618.99995803833,Wed Apr 02 2025 09:36:02 GMT-0500 (Central Daylight Time),870584.2000000477,B,po,O,o,226,1,1380.7000000476837,869203.5,7088,WL,A,1.0
6,1.5499999523162842,distr,58450.000047683716,Wed Apr 02 2025 09:36:02 GMT-0500 (Central Daylight Time),870753.2000000477,B,poo,O,o,144,1,1549.7000000476837,869203.5,7088,WL,A,1.0
6,1.7320001125335693,distr,58267.99988746643,Wed Apr 02 2025 09:36:02 GMT-0500 (Central Daylight Time),870935.2999999523,B,pool,O,l,162,1,1731.7999999523163,869203.5,7088,WL,A,1.0
6,2.0160000324249268,distr,57983.99996757507,Wed Apr 02 2025 09:36:02 GMT-0500 (Central Daylight Time),871219.3999999762,B,poolenter,O,enter,275,1,2015.8999999761581,869203.5,7088,WL,A,1.0
6,2.9809999465942383,distr,57019.00005340576,Wed Apr 02 2025 09:36:02 GMT-0500 (Central Daylight Time),872184.0,B,s,O,s,953,1,964.2999999523163,871219.7000000477,7088,WL,A,2.0
6,3.364000082015991,distr,56635.99991798401,Wed Apr 02 2025 09:36:02 GMT-0500 (Central Daylight Time),872567.0,B,se,O,e,364,1,1347.2999999523163,871219.7000000477,7088,WL,A,2.0
6,3.5490000247955322,distr,56450.99997520447,Wed Apr 02 2025 09:36:02 GMT-0500 (Central Daylight Time),872752.2000000477,B,see,O,e,175,1,1532.5,871219.7000000477,7088,WL,A,2.0
6,3.812000036239624,distr,56187.999963760376,Wed Apr 02 2025 09:36:02 GMT-0500 (Central Daylight Time),873015.2000000477,B,seed,O,d,251,1,1795.5,871219.7000000477,7088,WL,A,2.0
6,4.480000019073486,distr,55519.999980926514,Wed Apr 02 2025 09:36:02 GMT-0500 (Central Daylight Time),873683.5,B,seeds,O,s,664,1,2463.7999999523163,871219.7000000477,7088,WL,A,2.0
6,4.661999940872192,distr,55338.00005912781,Wed Apr 02 2025 09:36:02 GMT-0500 (Central Daylight Time),873865.5,B,seedsh,O,h,170,1,2645.7999999523163,871219.7000000477,7088,WL,A,2.0
6,4.979000091552734,distr,55020.999908447266,Wed Apr 02 2025 09:36:02 GMT-0500 (Central Daylight Time),874182.2000000477,B,seedshe,O,e,300,1,2962.5,871219.7000000477,7088,WL,A,2.0
6,5.128000020980835,distr,54871.999979019165,Wed Apr 02 2025 09:36:02 GMT-0500 (Central Daylight Time),874331.5,B,seedshee,O,e,144,1,3111.7999999523163,871219.7000000477,7088,WL,A,2.0
6,5.3450000286102295,distr,54654.99997138977,Wed Apr 02 2025 09:36:02 GMT-0500 (Central Daylight Time),874548.5,B,seedsheep,O,p,211,1,3328.7999999523163,871219.7000000477,7088,WL,A,2.0
6,6.13100004196167,distr,53868.99995803833,Wed Apr 02 2025 09:36:02 GMT-0500 (Central Daylight Time),875334.2999999523,B,seedshee,O,backspace,770,1,4114.599999904633,871219.7000000477,7088,WL,A,2.0
6,6.361999988555908,distr,53638.00001144409,Wed Apr 02 2025 09:36:02 GMT-0500 (Central Daylight Time),875565.7999999523,B,seedshe,O,backspace,212,1,4346.099999904633,871219.7000000477,7088,WL,A,2.0
6,6.680000066757202,distr,53319.9999332428,Wed Apr 02 2025 09:36:02 GMT-0500 (Central Daylight Time),875882.8999999762,B,seedsh,O,backspace,302,1,4663.199999928474,871219.7000000477,7088,WL,A,2.0
6,6.963000059127808,distr,53036.99994087219,Wed Apr 02 2025 09:36:02 GMT-0500 (Central Daylight Time),876166.7000000477,B,seeds,O,backspace,273,1,4947.0,871219.7000000477,7088,WL,A,2.0
6,7.71399998664856,distr,52286.00001335144,Wed Apr 02 2025 09:36:02 GMT-0500 (Central Daylight Time),876916.8999999762,B,seed,O,backspace,731,1,5697.199999928474,871219.7000000477,7088,WL,A,2.0
6,8.59500002861023,distr,51404.99997138977,Wed Apr 02 2025 09:36:02 GMT-0500 (Central Daylight Time),877798.6000000238,B,seedenter,O,enter,862,1,6578.899999976158,871219.7000000477,7088,WL,A,2.0
6,9.546000003814697,distr,50453.9999961853,Wed Apr 02 2025 09:36:02 GMT-0500 (Central Daylight Time),878749.7000000477,B,s,O,s,935,1,950.8000000715256,877798.8999999762,7088,WL,A,3.0
6,9.680000066757202,distr,50319.9999332428,Wed Apr 02 2025 09:36:02 GMT-0500 (Central Daylight Time),878883.7000000477,B,sh,O,h,128,1,1084.8000000715256,877798.8999999762,7088,WL,A,3.0
6,9.92799997329712,distr,50072.00002670288,Wed Apr 02 2025 09:36:02 GMT-0500 (Central Daylight Time),879131.2000000477,B,she,O,e,238,1,1332.3000000715256,877798.8999999762,7088,WL,A,3.0
6,10.111999988555908,distr,49888.00001144409,Wed Apr 02 2025 09:36:02 GMT-0500 (Central Daylight Time),879315.1000000238,B,shee,O,e,167,1,1516.2000000476837,877798.8999999762,7088,WL,A,3.0
6,10.444999933242798,distr,49555.0000667572,Wed Apr 02 2025 09:36:02 GMT-0500 (Central Daylight Time),879647.8999999762,B,sheep,O,p,313,1,1849.0,877798.8999999762,7088,WL,A,3.0
6,10.878999948501587,distr,49121.00005149841,Wed Apr 02 2025 09:36:02 GMT-0500 (Central Daylight Time),880081.8999999762,B,sheepenter,O,enter,409,1,2283.0,877798.8999999762,7088,WL,A,3.0
6,12.329999923706055,distr,47670.000076293945,Wed Apr 02 2025 09:36:02 GMT-0500 (Central Daylight Time),881533.2000000477,B,m,O,m,1446,1,1451.1000000238419,880082.1000000238,7088,WL,A,4.0
6,12.644999980926514,distr,47355.000019073486,Wed Apr 02 2025 09:36:02 GMT-0500 (Central Daylight Time),881848.2999999523,B,me,O,e,296,1,1766.1999999284744,880082.1000000238,7088,WL,A,4.0
6,13.130000114440918,distr,46869.99988555908,Wed Apr 02 2025 09:36:02 GMT-0500 (Central Daylight Time),882333.5,B,mea,O,a,474,1,2251.399999976158,880082.1000000238,7088,WL,A,4.0
6,14.627000093460083,distr,45372.99990653992,Wed Apr 02 2025 09:36:02 GMT-0500 (Central Daylight Time),883830.3999999762,B,meal,O,l,1483,1,3748.2999999523163,880082.1000000238,7088,WL,A,4.0
6,14.993000030517578,distr,45006.99996948242,Wed Apr 02 2025 09:36:02 GMT-0500 (Central Daylight Time),884196.1000000238,B,mealenter,O,enter,346,1,4114.0,880082.1000000238,7088,WL,A,4.0
6,16.043999910354614,distr,43956.000089645386,Wed Apr 02 2025 09:36:02 GMT-0500 (Central Daylight Time),885247.6000000238,B,p,O,p,1034,1,1051.2000000476837,884196.3999999762,7088,WL,A,5.0
6,16.278000116348267,distr,43721.99988365173,Wed Apr 02 2025 09:36:02 GMT-0500 (Central Daylight Time),885481.5,B,pe,O,e,213,1,1285.1000000238419,884196.3999999762,7088,WL,A,5.0
6,16.578999996185303,distr,43421.0000038147,Wed Apr 02 2025 09:36:02 GMT-0500 (Central Daylight Time),885782.3999999762,B,pea,O,a,291,1,1586.0,884196.3999999762,7088,WL,A,5.0
6,16.944999933242798,distr,43055.0000667572,Wed Apr 02 2025 09:36:02 GMT-0500 (Central Daylight Time),886148.5,B,peac,O,c,355,1,1952.1000000238419,884196.3999999762,7088,WL,A,5.0
6,17.293999910354614,distr,42706.000089645386,Wed Apr 02 2025 09:36:02 GMT-0500 (Central Daylight Time),886497.8999999762,B,peach,O,h,335,1,2301.5,884196.3999999762,7088,WL,A,5.0
6,17.742000102996826,distr,42257.999897003174,Wed Apr 02 2025 09:36:02 GMT-0500 (Central Daylight Time),886945.3999999762,B,peachenter,O,enter,430,1,2749.0,884196.3999999762,7088,WL,A,5.0
6,18.581000089645386,distr,41418.999910354614,Wed Apr 02 2025 09:36:02 GMT-0500 (Central Daylight Time),887783.8999999762,B,p,O,p,831,1,838.1999999284744,886945.7000000477,7088,WL,A,6.0
6,18.79699993133545,distr,41203.00006866455,Wed Apr 02 2025 09:36:02 GMT-0500 (Central Daylight Time),888000.2000000477,B,pl,O,l,197,1,1054.5,886945.7000000477,7088,WL,A,6.0
6,19.026000022888184,distr,40973.99997711182,Wed Apr 02 2025 09:36:02 GMT-0500 (Central Daylight Time),888229.3999999762,B,pla,O,a,225,1,1283.6999999284744,886945.7000000477,7088,WL,A,6.0
6,19.793999910354614,distr,40206.000089645386,Wed Apr 02 2025 09:36:02 GMT-0500 (Central Daylight Time),888996.8999999762,B,plan,O,n,750,1,2051.1999999284744,886945.7000000477,7088,WL,A,6.0
6,20.127000093460083,distr,39872.99990653992,Wed Apr 02 2025 09:36:02 GMT-0500 (Central Daylight Time),889330.2999999523,B,plane,O,e,315,1,2384.5999999046326,886945.7000000477,7088,WL,A,6.0
6,21.842000007629395,distr,38157.999992370605,Wed Apr 02 2025 09:36:02 GMT-0500 (Central Daylight Time),891045.2000000477,B,planeenter,O,enter,1704,1,4099.5,886945.7000000477,7088,WL,A,6.0
6,25.60800004005432,distr,34391.99995994568,Wed Apr 02 2025 09:36:02 GMT-0500 (Central Daylight Time),894811.7000000477,B,b,O,b,3761,1,3766.3000000715256,891045.3999999762,7088,WL,A,7.0
6,26.056999921798706,distr,33943.000078201294,Wed Apr 02 2025 09:36:02 GMT-0500 (Central Daylight Time),895260.7000000477,B,bo,O,o,441,1,4215.300000071526,891045.3999999762,7088,WL,A,7.0
6,26.35700011253357,distr,33642.99988746643,Wed Apr 02 2025 09:36:02 GMT-0500 (Central Daylight Time),895560.5,B,bow,O,w,288,1,4515.100000023842,891045.3999999762,7088,WL,A,7.0
6,26.575000047683716,distr,33424.999952316284,Wed Apr 02 2025 09:36:02 GMT-0500 (Central Daylight Time),895778.0,B,bowl,O,l,196,1,4732.600000023842,891045.3999999762,7088,WL,A,7.0
6,27.141000032424927,distr,32858.99996757507,Wed Apr 02 2025 09:36:02 GMT-0500 (Central Daylight Time),896344.1000000238,B,bowlenter,O,enter,546,1,5298.700000047684,891045.3999999762,7088,WL,A,7.0
6,60.01200008392334,distr,-12.000083923339844,Wed Apr 02 2025 09:36:02 GMT-0500 (Central Daylight Time),929216.2000000477,B,None,O,None,32866,1,32871.800000071526,896344.3999999762,7088,WL,A,8.0
7,1.433000087738037,immed,58566.99991226196,Wed Apr 02 2025 09:36:02 GMT-0500 (Central Daylight Time),953059.7000000477,A,b,O,b,1419,1,1433.1000000238419,951626.6000000238,7088,WL,A,1.0
7,2.382000207901001,immed,57617.999792099,Wed Apr 02 2025 09:36:02 GMT-0500 (Central Daylight Time),954008.6000000238,A,bo,O,o,937,1,2382.0,951626.6000000238,7088,WL,A,1.0
7,2.515000104904175,immed,57484.999895095825,Wed Apr 02 2025 09:36:02 GMT-0500 (Central Daylight Time),954141.3999999762,A,boo,O,o,127,1,2514.7999999523163,951626.6000000238,7088,WL,A,1.0
7,2.748000144958496,immed,57251.999855041504,Wed Apr 02 2025 09:36:02 GMT-0500 (Central Daylight Time),954374.6000000238,A,book,O,k,222,1,2748.0,951626.6000000238,7088,WL,A,1.0
7,3.1640000343322754,immed,56835.999965667725,Wed Apr 02 2025 09:36:02 GMT-0500 (Central Daylight Time),954790.5,A,bookenter,O,enter,408,1,3163.899999976158,951626.6000000238,7088,WL,A,1.0
7,3.749000072479248,immed,56250.99992752075,Wed Apr 02 2025 09:36:02 GMT-0500 (Central Daylight Time),955375.8999999762,A,t,O,t,567,1,585.1000000238419,954790.7999999523,7088,WL,A,2.0
7,3.9810001850128174,immed,56018.99981498718,Wed Apr 02 2025 09:36:02 GMT-0500 (Central Daylight Time),955607.3999999762,A,tr,O,r,214,1,816.6000000238419,954790.7999999523,7088,WL,A,2.0
7,4.147000074386597,immed,55852.9999256134,Wed Apr 02 2025 09:36:02 GMT-0500 (Central Daylight Time),955773.8999999762,A,tra,O,a,150,1,983.1000000238419,954790.7999999523,7088,WL,A,2.0
7,4.54800009727478,immed,55451.99990272522,Wed Apr 02 2025 09:36:02 GMT-0500 (Central Daylight Time),956174.6000000238,A,trai,O,i,390,1,1383.8000000715256,954790.7999999523,7088,WL,A,2.0
7,4.830000162124634,immed,55169.999837875366,Wed Apr 02 2025 09:36:02 GMT-0500 (Central Daylight Time),956457.0,A,train,O,n,262,1,1666.2000000476837,954790.7999999523,7088,WL,A,2.0
7,5.248000144958496,immed,54751.999855041504,Wed Apr 02 2025 09:36:02 GMT-0500 (Central Daylight Time),956874.7000000477,A,trainenter,O,enter,404,1,2083.9000000953674,954790.7999999523,7088,WL,A,2.0
7,6.078999996185303,immed,53921.0000038147,Wed Apr 02 2025 09:36:02 GMT-0500 (Central Daylight Time),957706.6000000238,A,r,O,r,819,1,831.6000000238419,956875.0,7088,WL,A,3.0
7,6.663000106811523,immed,53336.99989318848,Wed Apr 02 2025 09:36:02 GMT-0500 (Central Daylight Time),958290.7999999523,A,ru,O,u,562,1,1415.7999999523163,956875.0,7088,WL,A,3.0
7,6.950000047683716,immed,53049.999952316284,Wed Apr 02 2025 09:36:02 GMT-0500 (Central Daylight Time),958577.5,A,rug,O,g,273,1,1702.5,956875.0,7088,WL,A,3.0
7,7.478000164031982,immed,52521.99983596802,Wed Apr 02 2025 09:36:02 GMT-0500 (Central Daylight Time),959105.8999999762,A,rugenter,O,enter,509,1,2230.899999976158,956875.0,7088,WL,A,3.0
7,8.646000146865845,immed,51353.999853134155,Wed Apr 02 2025 09:36:02 GMT-0500 (Central Daylight Time),960273.5,A,g,O,g,1146,1,1167.3999999761581,959106.1000000238,7088,WL,A,4.0
7,9.195000171661377,immed,50804.99982833862,Wed Apr 02 2025 09:36:02 GMT-0500 (Central Daylight Time),960822.5,A,go,O,o,532,1,1716.3999999761581,959106.1000000238,7088,WL,A,4.0
7,9.361999988555908,immed,50638.00001144409,Wed Apr 02 2025 09:36:02 GMT-0500 (Central Daylight Time),960989.8999999762,A,gol,O,l,162,1,1883.7999999523163,959106.1000000238,7088,WL,A,4.0
7,9.81000018119812,immed,50189.99981880188,Wed Apr 02 2025 09:36:02 GMT-0500 (Central Daylight Time),961438.2999999523,A,gold,O,d,431,1,2332.1999999284744,959106.1000000238,7088,WL,A,4.0
7,10.444000005722046,immed,49555.999994277954,Wed Apr 02 2025 09:36:02 GMT-0500 (Central Daylight Time),962071.8999999762,A,goldenter,O,enter,623,1,2965.7999999523163,959106.1000000238,7088,WL,A,4.0
7,13.476999998092651,immed,46523.00000190735,Wed Apr 02 2025 09:36:02 GMT-0500 (Central Daylight Time),965105.2000000477,A,c,O,c,3021,1,3033.0,962072.2000000477,7088,WL,A,5.0
7,14.011000156402588,immed,45988.99984359741,Wed Apr 02 2025 09:36:02 GMT-0500 (Central Daylight Time),965638.6000000238,A,ch,O,h,515,1,3566.399999976158,962072.2000000477,7088,WL,A,5.0
7,14.657999992370605,immed,45342.000007629395,Wed Apr 02 2025 09:36:02 GMT-0500 (Central Daylight Time),966285.7000000477,A,chi,O,i,638,1,4213.5,962072.2000000477,7088,WL,A,5.0
7,14.944000005722046,immed,45055.999994277954,Wed Apr 02 2025 09:36:02 GMT-0500 (Central Daylight Time),966571.8999999762,A,chim,O,m,274,1,4499.699999928474,962072.2000000477,7088,WL,A,5.0
7,15.327000141143799,immed,44672.9998588562,Wed Apr 02 2025 09:36:02 GMT-0500 (Central Daylight Time),966954.6000000238,A,chimn,O,n,370,1,4882.399999976158,962072.2000000477,7088,WL,A,5.0
7,15.693000078201294,immed,44306.999921798706,Wed Apr 02 2025 09:36:02 GMT-0500 (Central Daylight Time),967321.3999999762,A,chimne,O,e,353,1,5249.199999928474,962072.2000000477,7088,WL,A,5.0
7,16.242000102996826,immed,43757.999897003174,Wed Apr 02 2025 09:36:02 GMT-0500 (Central Daylight Time),967869.7000000477,A,chimney,O,y,540,1,5797.5,962072.2000000477,7088,WL,A,5.0
7,16.725000143051147,immed,43274.99985694885,Wed Apr 02 2025 09:36:02 GMT-0500 (Central Daylight Time),968352.8999999762,A,chimneyenter,O,enter,462,1,6280.699999928474,962072.2000000477,7088,WL,A,5.0
7,17.625,immed,42375.0,Wed Apr 02 2025 09:36:02 GMT-0500 (Central Daylight Time),969252.7999999523,A,l,O,l,885,1,899.5999999046326,968353.2000000477,7088,WL,A,6.0
7,17.859000205993652,immed,42140.99979400635,Wed Apr 02 2025 09:36:02 GMT-0500 (Central Daylight Time),969487.1000000238,A,lo,O,o,225,1,1133.8999999761581,968353.2000000477,7088,WL,A,6.0
7,18.325000047683716,immed,41674.999952316284,Wed Apr 02 2025 09:36:02 GMT-0500 (Central Daylight Time),969952.5,A,log,O,g,444,1,1599.2999999523163,968353.2000000477,7088,WL,A,6.0
7,18.975000143051147,immed,41024.99985694885,Wed Apr 02 2025 09:36:02 GMT-0500 (Central Daylight Time),970603.2999999523,A,logenter,O,enter,627,1,2250.0999999046326,968353.2000000477,7088,WL,A,6.0
7,21.091000080108643,immed,38908.99991989136,Wed Apr 02 2025 09:36:02 GMT-0500 (Central Daylight Time),972718.8999999762,A,b,O,b,2107,1,2115.2999999523163,970603.6000000238,7088,WL,A,7.0
7,21.407000064849854,immed,38592.99993515015,Wed Apr 02 2025 09:36:02 GMT-0500 (Central Daylight Time),973034.8999999762,A,bu,O,u,303,1,2431.2999999523163,970603.6000000238,7088,WL,A,7.0
7,21.707000017166138,immed,38292.99998283386,Wed Apr 02 2025 09:36:02 GMT-0500 (Central Daylight Time),973334.7000000477,A,bug,O,g,290,1,2731.100000023842,970603.6000000238,7088,WL,A,7.0
7,23.67300009727478,immed,36326.99990272522,Wed Apr 02 2025 09:36:02 GMT-0500 (Central Daylight Time),975301.0,A,bu,O,backspace,1960,1,4697.399999976158,970603.6000000238,7088,WL,A,7.0
7,23.841000080108643,immed,36158.99991989136,Wed Apr 02 2025 09:36:02 GMT-0500 (Central Daylight Time),975469.2999999523,A,b,O,backspace,145,1,4865.699999928474,970603.6000000238,7088,WL,A,7.0
7,24.1560001373291,immed,35843.9998626709,Wed Apr 02 2025 09:36:02 GMT-0500 (Central Daylight Time),975784.3999999762,A,,O,backspace,293,1,5180.799999952316,970603.6000000238,7088,WL,A,7.0
7,27.59000015258789,immed,32409.99984741211,Wed Apr 02 2025 09:36:02 GMT-0500 (Central Daylight Time),979218.0,A,g,O,g,3421,1,8614.399999976158,970603.6000000238,7088,WL,A,7.0
7,28.08899998664856,immed,31911.00001335144,Wed Apr 02 2025 09:36:02 GMT-0500 (Central Daylight Time),979716.7999999523,A,go,O,o,485,1,9113.199999928474,970603.6000000238,7088,WL,A,7.0
7,28.27400016784668,immed,31725.99983215332,Wed Apr 02 2025 09:36:02 GMT-0500 (Central Daylight Time),979901.7999999523,A,gol,O,l,178,1,9298.199999928474,970603.6000000238,7088,WL,A,7.0
7,28.57200002670288,immed,31427.99997329712,Wed Apr 02 2025 09:36:02 GMT-0500 (Central Daylight Time),980200.2000000477,A,gold,O,d,278,1,9596.600000023842,970603.6000000238,7088,WL,A,7.0
7,28.972000122070312,immed,31027.999877929688,Wed Apr 02 2025 09:36:02 GMT-0500 (Central Daylight Time),980600.1000000238,A,goldenter,O,enter,381,1,9996.5,970603.6000000238,7088,WL,A,7.0
7,30.022000074386597,immed,29977.999925613403,Wed Apr 02 2025 09:36:02 GMT-0500 (Central Daylight Time),981650.2000000477,A,a,O,a,1038,1,1049.8000000715256,980600.3999999762,7088,WL,A,8.0
7,30.271000146865845,immed,29728.999853134155,Wed Apr 02 2025 09:36:02 GMT-0500 (Central Daylight Time),981899.1000000238,A,ap,O,p,236,1,1298.7000000476837,980600.3999999762,7088,WL,A,8.0
7,30.439000129699707,immed,29560.999870300293,Wed Apr 02 2025 09:36:02 GMT-0500 (Central Daylight Time),982067.1000000238,A,app,O,p,155,1,1466.7000000476837,980600.3999999762,7088,WL,A,8.0
7,30.653000116348267,immed,29346.999883651733,Wed Apr 02 2025 09:36:02 GMT-0500 (Central Daylight Time),982281.2999999523,A,appl,O,l,195,1,1680.8999999761581,980600.3999999762,7088,WL,A,8.0
7,30.788000106811523,immed,29211.999893188477,Wed Apr 02 2025 09:36:02 GMT-0500 (Central Daylight Time),982416.2000000477,A,apple,O,e,123,1,1815.8000000715256,980600.3999999762,7088,WL,A,8.0
7,31.07100009918213,immed,28928.99990081787,Wed Apr 02 2025 09:36:02 GMT-0500 (Central Daylight Time),982699.2000000477,A,appleenter,O,enter,277,1,2098.8000000715256,980600.3999999762,7088,WL,A,8.0
7,32.021000146865845,immed,27978.999853134155,Wed Apr 02 2025 09:36:02 GMT-0500 (Central Daylight Time),983648.6000000238,A,f,O,f,938,1,949.2000000476837,982699.3999999762,7088,WL,A,9.0
7,32.23800015449524,immed,27761.99984550476,Wed Apr 02 2025 09:36:02 GMT-0500 (Central Daylight Time),983866.2000000477,A,fi,O,i,205,1,1166.8000000715256,982699.3999999762,7088,WL,A,9.0
7,32.605000019073486,immed,27394.999980926514,Wed Apr 02 2025 09:36:02 GMT-0500 (Central Daylight Time),984233.3999999762,A,fin,O,n,348,1,1534.0,982699.3999999762,7088,WL,A,9.0
7,32.93900012969971,immed,27060.999870300293,Wed Apr 02 2025 09:36:02 GMT-0500 (Central Daylight Time),984566.5,A,fing,O,g,321,1,1867.1000000238419,982699.3999999762,7088,WL,A,9.0
7,33.205000162124634,immed,26794.999837875366,Wed Apr 02 2025 09:36:02 GMT-0500 (Central Daylight Time),984832.6000000238,A,finge,O,e,255,1,2133.2000000476837,982699.3999999762,7088,WL,A,9.0
7,33.50500011444092,immed,26494.999885559082,Wed Apr 02 2025 09:36:02 GMT-0500 (Central Daylight Time),985133.0,A,finger,O,r,296,1,2433.600000023842,982699.3999999762,7088,WL,A,9.0
7,34.42300009727478,immed,25576.99990272522,Wed Apr 02 2025 09:36:02 GMT-0500 (Central Daylight Time),986050.7999999523,A,fingerenter,O,enter,910,1,3351.399999976158,982699.3999999762,7088,WL,A,9.0
7,60.01300001144409,immed,-13.000011444091797,Wed Apr 02 2025 09:36:02 GMT-0500 (Central Daylight Time),1011640.7999999523,A,None,O,None,25584,1,25589.799999952316,986051.0,7088,WL,A,10.0
