Q,Q1,Q2,Q3,Q4,acc_sum,block,block_c,correct,correct_response,datetime,endtime,project,response,response_time,row_sel,session_number,squiggle1,squiggle1x,squiggle1y,squiggle2,squiggle2x,squiggle2y,squiggle3,squiggle3x,squiggle3y,squiggle4,squiggle4x,squiggle4y,start_end,starttime,subject_id,target_congruent,task,task_vers,testsquiggle,testsquigglex,testsquiggley,time_practice_delay,time_practice_fixation,time_practice_stimuli,time_practice_study,time_test_delay,time_test_fixation,time_test_stimuli,time_test_study,trial
1,1,0,0,0,0,prac,1,0,z,Fri Apr 11 2025 16:20:33 GMT-0500 (Central Daylight Time),90824.0,O,m,1334,1,1,116.bmp,-120,-120,117.bmp,120,-120,118.bmp,-120,120,119.bmp,120,120,10164.599999904633,80659.40000009537,7107,yes,SM,A,116.bmp,-120,-120,84111,78079,86129,80097,,,,,1
3,0,0,1,0,1,prac,1,1,m,Fri Apr 11 2025 16:20:33 GMT-0500 (Central Daylight Time),100786.80000007153,O,m,1118,2,1,120.bmp,-120,-120,121.bmp,120,-120,122.bmp,-120,120,123.bmp,120,120,9946.399999976158,90840.40000009537,7107,no,SM,A,123.bmp,-120,120,94291,88260,96308,90277,,,,,2
4,0,0,0,1,2,prac,1,1,m,Fri Apr 11 2025 16:20:33 GMT-0500 (Central Daylight Time),110767.20000004768,O,m,1160,3,1,124.bmp,-120,-120,125.bmp,120,-120,126.bmp,-120,120,127.bmp,120,120,9971.799999952316,100795.40000009537,7107,no,SM,A,124.bmp,120,120,104238,98215,106255,100224,,,,,3
2,0,1,0,0,2,prac,1,0,z,Fri Apr 11 2025 16:20:33 GMT-0500 (Central Daylight Time),120730.5,O,m,1131,4,1,128.bmp,-120,-120,129.bmp,120,-120,130.bmp,-120,120,131.bmp,120,120,9947.0,110783.5,7107,yes,SM,A,129.bmp,120,-120,114234,108203,116252,110220,,,,,4
3,0,0,1,0,3,prac,1,1,z,Fri Apr 11 2025 16:20:33 GMT-0500 (Central Daylight Time),130527.30000007153,O,z,952,5,1,132.bmp,-120,-120,133.bmp,120,-120,134.bmp,-120,120,135.bmp,120,120,9780.5,120746.80000007153,7107,yes,SM,A,134.bmp,-120,120,124198,118167,126215,120184,,,,,5
1,1,0,0,0,4,prac,1,1,m,Fri Apr 11 2025 16:20:33 GMT-0500 (Central Daylight Time),140557.5,O,m,1214,6,1,136.bmp,-120,-120,137.bmp,120,-120,138.bmp,-120,120,139.bmp,120,120,10016.5,130541.0,7107,no,SM,A,139.bmp,-120,-120,133978,127961,135993,129964,,,,,6
2,0,1,0,0,5,prac,1,1,m,Fri Apr 11 2025 16:20:33 GMT-0500 (Central Daylight Time),151070.80000007153,O,m,1677,7,1,140.bmp,-120,-120,141.bmp,120,-120,142.bmp,-120,120,143.bmp,120,120,10498.600000023842,140572.20000004768,7107,no,SM,A,140.bmp,120,-120,144024,137992,146042,140010,,,,,7
4,0,0,0,1,6,prac,1,1,z,Fri Apr 11 2025 16:20:33 GMT-0500 (Central Daylight Time),160934.20000004768,O,z,1020,8,1,144.bmp,-120,-120,145.bmp,120,-120,146.bmp,-120,120,147.bmp,120,120,9848.600000023842,151085.60000002384,7107,yes,SM,A,147.bmp,120,120,154538,148505,156555,150524,,,,,8
4,0,0,0,1,1,test,1,1,m,Fri Apr 11 2025 16:20:33 GMT-0500 (Central Daylight Time),180061.10000002384,O,m,1214,1,1,148.bmp,-120,-120,149.bmp,120,-120,150.bmp,-120,120,143.bmp,120,120,9252.0,170809.10000002384,7107,no,SM,A,150.bmp,120,120,154538,148505,156555,150524,174248.0,168229.0,176265.0,170232.0,1
2,0,1,0,0,2,test,1,1,m,Fri Apr 11 2025 16:20:33 GMT-0500 (Central Daylight Time),189608.10000002384,O,m,1494,2,1,101.bmp,-120,-120,102.bmp,120,-120,103.bmp,-120,120,104.bmp,120,120,9532.899999976158,180075.20000004768,7107,no,SM,A,103.bmp,120,-120,154538,148505,156555,150524,183512.0,177495.0,185529.0,179497.0,2
1,1,0,0,0,3,test,1,1,z,Fri Apr 11 2025 16:20:33 GMT-0500 (Central Daylight Time),199404.70000004768,O,z,1734,3,1,105.bmp,-120,-120,106.bmp,120,-120,107.bmp,-120,120,108.bmp,120,120,9783.100000023842,189621.60000002384,7107,yes,SM,A,105.bmp,-120,-120,154538,148505,156555,150524,193058.0,187041.0,195074.0,189044.0,3
3,0,0,1,0,3,test,1,0,m,Fri Apr 11 2025 16:20:33 GMT-0500 (Central Daylight Time),208968.10000002384,O,z,1485,4,1,109.bmp,-120,-120,110.bmp,120,-120,111.bmp,-120,120,112.bmp,120,120,9549.600000023842,199418.5,7107,no,SM,A,109.bmp,-120,120,154538,148505,156555,150524,202872.0,196839.0,204890.0,198857.0,4
2,0,1,0,0,3,test,1,0,z,Fri Apr 11 2025 16:20:33 GMT-0500 (Central Daylight Time),219048.40000009537,O,None,2014,5,1,113.bmp,-120,-120,114.bmp,120,-120,115.bmp,-120,120,116.bmp,120,120,10065.400000095367,208983.0,7107,yes,SM,A,114.bmp,120,-120,154538,148505,156555,150524,212435.0,206403.0,214453.0,208420.0,5
3,0,0,1,0,3,test,1,0,z,Fri Apr 11 2025 16:20:33 GMT-0500 (Central Daylight Time),228811.5,O,m,1707,6,1,117.bmp,-120,-120,118.bmp,120,-120,119.bmp,-120,120,120.bmp,120,120,9748.799999952316,219062.70000004768,7107,yes,SM,A,119.bmp,-120,120,154538,148505,156555,150524,222499.0,216482.0,224516.0,218485.0,6
4,0,0,0,1,4,test,1,1,z,Fri Apr 11 2025 16:20:33 GMT-0500 (Central Daylight Time),237741.90000009537,O,z,879,7,1,121.bmp,-120,-120,122.bmp,120,-120,123.bmp,-120,120,124.bmp,120,120,8915.400000095367,228826.5,7107,yes,SM,A,124.bmp,120,120,154538,148505,156555,150524,232262.0,226246.0,234279.0,228248.0,7
2,0,1,0,0,5,test,1,1,m,Fri Apr 11 2025 16:20:33 GMT-0500 (Central Daylight Time),246655.5,O,m,861,8,1,125.bmp,-120,-120,126.bmp,120,-120,127.bmp,-120,120,128.bmp,120,120,8900.399999976158,237755.10000002384,7107,no,SM,A,125.bmp,120,-120,154538,148505,156555,150524,241193.0,235175.0,243210.0,237178.0,8
3,0,0,1,0,6,test,1,1,m,Fri Apr 11 2025 16:20:33 GMT-0500 (Central Daylight Time),256169.20000004768,O,m,1459,9,1,129.bmp,-120,-120,130.bmp,120,-120,131.bmp,-120,120,132.bmp,120,120,9499.399999976158,246669.80000007153,7107,no,SM,A,130.bmp,-120,120,154538,148505,156555,150524,250106.0,244090.0,252124.0,246092.0,9
4,0,0,0,1,7,test,1,1,z,Fri Apr 11 2025 16:20:33 GMT-0500 (Central Daylight Time),265749.40000009537,O,z,1522,10,1,137.bmp,-120,-120,138.bmp,120,-120,139.bmp,-120,120,140.bmp,120,120,9566.5,256182.90000009537,7107,yes,SM,A,140.bmp,120,120,154538,148505,156555,150524,259620.0,253603.0,261637.0,255606.0,10
3,0,0,1,0,8,test,1,1,z,Fri Apr 11 2025 16:20:33 GMT-0500 (Central Daylight Time),274596.7000000477,O,z,781,11,1,133.bmp,-120,-120,134.bmp,120,-120,135.bmp,-120,120,136.bmp,120,120,8833.100000023842,265763.60000002384,7107,yes,SM,A,135.bmp,-120,120,154538,148505,156555,150524,269200.0,263183.0,271218.0,265186.0,11
2,0,1,0,0,9,test,1,1,m,Fri Apr 11 2025 16:20:33 GMT-0500 (Central Daylight Time),283760.40000009537,O,m,1086,12,1,141.bmp,-120,-120,142.bmp,120,-120,143.bmp,-120,120,144.bmp,120,120,9149.400000095367,274611.0,7107,no,SM,A,141.bmp,120,-120,154538,148505,156555,150524,278063.0,272031.0,280081.0,274050.0,12
3,0,0,1,0,9,test,1,0,m,Fri Apr 11 2025 16:20:33 GMT-0500 (Central Daylight Time),293822.7000000477,O,None,2015,13,1,145.bmp,-120,-120,146.bmp,120,-120,147.bmp,-120,120,148.bmp,120,120,10048.600000023842,283774.10000002384,7107,no,SM,A,146.bmp,-120,120,154538,148505,156555,150524,287211.0,281194.0,289227.0,283197.0,13
1,1,0,0,0,10,test,1,1,z,Fri Apr 11 2025 16:20:33 GMT-0500 (Central Daylight Time),302820.0,O,z,940,14,1,149.bmp,-120,-120,150.bmp,120,-120,104.bmp,-120,120,101.bmp,120,120,8993.299999952316,293826.7000000477,7107,yes,SM,A,149.bmp,-120,-120,154538,148505,156555,150524,297273.0,291246.0,299290.0,293260.0,14
4,0,0,0,1,10,test,1,0,m,Fri Apr 11 2025 16:20:33 GMT-0500 (Central Daylight Time),312884.10000002384,O,None,2015,15,1,110.bmp,-120,-120,111.bmp,120,-120,112.bmp,-120,120,113.bmp,120,120,10059.899999976158,302824.2000000477,7107,no,SM,A,111.bmp,120,120,154538,148505,156555,150524,306271.0,300243.0,308288.0,302256.0,15
1,1,0,0,0,11,test,1,1,m,Fri Apr 11 2025 16:20:33 GMT-0500 (Central Daylight Time),321914.5,O,m,969,16,1,102.bmp,-120,-120,103.bmp,120,-120,104.bmp,-120,120,105.bmp,120,120,9016.5,312898.0,7107,no,SM,A,105.bmp,-120,-120,154538,148505,156555,150524,316335.0,310318.0,318350.0,312320.0,16
3,0,0,1,0,12,test,1,1,m,Fri Apr 11 2025 16:20:33 GMT-0500 (Central Daylight Time),331877.3000000715,O,m,1889,17,1,122.bmp,-120,-120,123.bmp,120,-120,124.bmp,-120,120,125.bmp,120,120,9947.300000071526,321930.0,7107,no,SM,A,122.bmp,-120,120,154538,148505,156555,150524,325381.0,319350.0,327397.0,321366.0,17
1,1,0,0,0,13,test,1,1,z,Fri Apr 11 2025 16:20:33 GMT-0500 (Central Daylight Time),341623.8000000715,O,z,1693,18,1,106.bmp,-120,-120,107.bmp,120,-120,108.bmp,-120,120,109.bmp,120,120,9737.700000047684,331886.10000002384,7107,yes,SM,A,106.bmp,-120,-120,154538,148505,156555,150524,335328.0,329306.0,337344.0,331313.0,18
2,0,1,0,0,14,test,1,1,z,Fri Apr 11 2025 16:20:33 GMT-0500 (Central Daylight Time),350671.5,O,z,994,19,1,126.bmp,-120,-120,127.bmp,120,-120,128.bmp,-120,120,129.bmp,120,120,9044.0,341627.5,7107,yes,SM,A,127.bmp,120,-120,154538,148505,156555,150524,345075.0,339047.0,347093.0,341059.0,19
3,0,0,1,0,15,test,1,1,z,Fri Apr 11 2025 16:20:33 GMT-0500 (Central Daylight Time),360168.5,O,z,1444,20,1,130.bmp,-120,-120,131.bmp,120,-120,132.bmp,-120,120,133.bmp,120,120,9482.599999904633,350685.90000009537,7107,yes,SM,A,132.bmp,-120,120,154538,148505,156555,150524,354122.0,348106.0,356139.0,350109.0,20
1,1,0,0,0,15,test,1,0,m,Fri Apr 11 2025 16:20:33 GMT-0500 (Central Daylight Time),370232.7000000477,O,None,2015,21,1,114.bmp,-120,-120,115.bmp,120,-120,116.bmp,-120,120,117.bmp,120,120,10050.5,360182.2000000477,7107,no,SM,A,116.bmp,-120,-120,154538,148505,156555,150524,363619.0,357602.0,365636.0,359605.0,21
4,0,0,0,1,16,test,1,1,z,Fri Apr 11 2025 16:20:33 GMT-0500 (Central Daylight Time),379562.0,O,z,1267,22,1,118.bmp,-120,-120,119.bmp,120,-120,120.bmp,-120,120,121.bmp,120,120,9316.5,370245.5,7107,yes,SM,A,121.bmp,120,120,154538,148505,156555,150524,373683.0,367665.0,375700.0,369668.0,22
1,1,0,0,0,16,test,1,0,m,Fri Apr 11 2025 16:20:33 GMT-0500 (Central Daylight Time),389608.7000000477,O,z,1985,23,1,134.bmp,-120,-120,135.bmp,120,-120,136.bmp,-120,120,137.bmp,120,120,10038.299999952316,379570.40000009537,7107,no,SM,A,137.bmp,-120,-120,154538,148505,156555,150524,383013.0,376990.0,385030.0,378999.0,23
2,0,1,0,0,17,test,1,1,z,Fri Apr 11 2025 16:20:33 GMT-0500 (Central Daylight Time),398556.0,O,z,873,24,1,142.bmp,-120,-120,143.bmp,120,-120,144.bmp,-120,120,145.bmp,120,120,8930.899999976158,389625.10000002384,7107,yes,SM,A,143.bmp,120,-120,154538,148505,156555,150524,393076.0,387045.0,395094.0,389062.0,24
4,0,0,0,1,18,test,1,1,m,Fri Apr 11 2025 16:20:33 GMT-0500 (Central Daylight Time),407819.5,O,m,1207,25,1,146.bmp,-120,-120,147.bmp,120,-120,148.bmp,-120,120,149.bmp,120,120,9249.199999928474,398570.3000000715,7107,no,SM,A,148.bmp,120,120,154538,148505,156555,150524,402007.0,395990.0,404024.0,397992.0,25
1,1,0,0,0,19,test,1,1,z,Fri Apr 11 2025 16:20:33 GMT-0500 (Central Daylight Time),417816.3000000715,O,z,1919,26,1,138.bmp,-120,-120,139.bmp,120,-120,140.bmp,-120,120,141.bmp,120,120,9982.800000071526,407833.5,7107,yes,SM,A,138.bmp,-120,-120,154538,148505,156555,150524,411287.0,405254.0,413304.0,407273.0,26
4,0,0,0,1,20,test,1,1,z,Fri Apr 11 2025 16:20:33 GMT-0500 (Central Daylight Time),426813.40000009537,O,z,939,27,1,150.bmp,-120,-120,111.bmp,120,-120,101.bmp,-120,120,102.bmp,120,120,8983.800000071526,417829.60000002384,7107,yes,SM,A,102.bmp,120,120,154538,148505,156555,150524,421267.0,415249.0,423284.0,417252.0,27
3,0,0,1,0,21,test,1,1,m,Fri Apr 11 2025 16:20:33 GMT-0500 (Central Daylight Time),435993.60000002384,O,m,1125,28,1,103.bmp,-120,-120,104.bmp,120,-120,105.bmp,-120,120,106.bmp,120,120,9166.5,426827.10000002384,7107,no,SM,A,103.bmp,-120,120,154538,148505,156555,150524,430264.0,424247.0,432282.0,426250.0,28
2,0,1,0,0,21,test,1,0,z,Fri Apr 11 2025 16:20:33 GMT-0500 (Central Daylight Time),446073.2000000477,O,None,2014,29,1,107.bmp,-120,-120,108.bmp,120,-120,109.bmp,-120,120,110.bmp,120,120,10065.200000047684,436008.0,7107,yes,SM,A,108.bmp,120,-120,154538,148505,156555,150524,439462.0,433428.0,441478.0,435447.0,29
3,0,0,1,0,22,test,1,1,z,Fri Apr 11 2025 16:20:33 GMT-0500 (Central Daylight Time),454987.3000000715,O,z,857,30,1,111.bmp,-120,-120,112.bmp,120,-120,113.bmp,-120,120,114.bmp,120,120,8905.300000071526,446082.0,7107,yes,SM,A,113.bmp,-120,120,154538,148505,156555,150524,449524.0,443502.0,451542.0,445510.0,30
1,1,0,0,0,23,test,1,1,z,Fri Apr 11 2025 16:20:33 GMT-0500 (Central Daylight Time),464051.10000002384,O,z,1008,31,1,115.bmp,-120,-120,116.bmp,120,-120,117.bmp,-120,120,118.bmp,120,120,9051.100000023842,455000.0,7107,yes,SM,A,115.bmp,-120,-120,154538,148505,156555,150524,458438.0,452420.0,460455.0,454424.0,31
2,0,1,0,0,24,test,1,1,m,Fri Apr 11 2025 16:20:33 GMT-0500 (Central Daylight Time),473048.2000000477,O,m,936,32,1,119.bmp,-120,-120,120.bmp,120,-120,121.bmp,-120,120,122.bmp,120,120,8983.5,464064.7000000477,7107,no,SM,A,119.bmp,120,-120,154538,148505,156555,150524,467502.0,461484.0,469519.0,463488.0,32
4,0,0,0,1,25,test,1,1,z,Fri Apr 11 2025 16:20:33 GMT-0500 (Central Daylight Time),482961.60000002384,O,z,1851,33,1,131.bmp,-120,-120,132.bmp,120,-120,133.bmp,-120,120,134.bmp,120,120,9899.799999952316,473061.8000000715,7107,yes,SM,A,134.bmp,120,120,154538,148505,156555,150524,476499.0,470482.0,478516.0,472484.0,33
2,0,1,0,0,26,test,1,1,z,Fri Apr 11 2025 16:20:33 GMT-0500 (Central Daylight Time),491741.90000009537,O,z,721,34,1,123.bmp,-120,-120,124.bmp,120,-120,125.bmp,-120,120,126.bmp,120,120,8767.800000071526,482974.10000002384,7107,yes,SM,A,124.bmp,120,-120,154538,148505,156555,150524,486412.0,480394.0,488430.0,482398.0,34
4,0,0,0,1,27,test,1,1,m,Fri Apr 11 2025 16:20:33 GMT-0500 (Central Daylight Time),500805.7000000477,O,m,1014,35,1,127.bmp,-120,-120,128.bmp,120,-120,129.bmp,-120,120,130.bmp,120,120,9049.799999952316,491755.90000009537,7107,no,SM,A,129.bmp,120,120,154538,148505,156555,150524,495193.0,489176.0,497210.0,491178.0,35
3,0,0,1,0,28,test,1,1,m,Fri Apr 11 2025 16:20:33 GMT-0500 (Central Daylight Time),509786.10000002384,O,m,926,36,1,135.bmp,-120,-120,136.bmp,120,-120,137.bmp,-120,120,138.bmp,120,120,8967.199999928474,500818.90000009537,7107,no,SM,A,135.bmp,-120,120,154538,148505,156555,150524,504257.0,498239.0,506273.0,500241.0,36
1,1,0,0,0,29,test,1,1,m,Fri Apr 11 2025 16:20:33 GMT-0500 (Central Daylight Time),519049.7000000477,O,m,1201,37,1,139.bmp,-120,-120,140.bmp,120,-120,141.bmp,-120,120,142.bmp,120,120,9251.399999976158,509798.3000000715,7107,no,SM,A,140.bmp,-120,-120,154538,148505,156555,150524,513237.0,507218.0,515254.0,509222.0,37
2,0,1,0,0,30,test,1,1,m,Fri Apr 11 2025 16:20:33 GMT-0500 (Central Daylight Time),527746.8000000715,O,m,641,38,1,143.bmp,-120,-120,144.bmp,120,-120,145.bmp,-120,120,146.bmp,120,120,8683.399999976158,519063.40000009537,7107,no,SM,A,145.bmp,120,-120,154538,148505,156555,150524,522500.0,516483.0,524517.0,518486.0,38
4,0,0,0,1,31,test,1,1,z,Fri Apr 11 2025 16:20:33 GMT-0500 (Central Daylight Time),536910.2000000477,O,z,1112,39,1,147.bmp,-120,-120,148.bmp,120,-120,149.bmp,-120,120,150.bmp,120,120,9150.100000023842,527760.1000000238,7107,yes,SM,A,150.bmp,120,120,154538,148505,156555,150524,531197.0,525180.0,533215.0,527183.0,39
3,0,0,1,0,31,test,1,0,m,Fri Apr 11 2025 16:20:33 GMT-0500 (Central Daylight Time),546973.7000000477,O,None,2015,40,1,104.bmp,-120,-120,105.bmp,120,-120,106.bmp,-120,120,107.bmp,120,120,10049.299999952316,536924.4000000954,7107,no,SM,A,105.bmp,-120,120,154538,148505,156555,150524,540361.0,534344.0,542378.0,536347.0,40
1,1,0,0,0,32,test,1,1,z,Fri Apr 11 2025 16:20:33 GMT-0500 (Central Daylight Time),556020.9000000954,O,z,989,41,1,108.bmp,-120,-120,109.bmp,120,-120,110.bmp,-120,120,111.bmp,120,120,9038.300000071526,546982.6000000238,7107,yes,SM,A,108.bmp,-120,-120,154538,148505,156555,150524,550424.0,544402.0,552442.0,546410.0,41
4,0,0,0,1,33,test,1,1,z,Fri Apr 11 2025 16:20:33 GMT-0500 (Central Daylight Time),565600.9000000954,O,z,1527,42,1,112.bmp,-120,-120,113.bmp,120,-120,114.bmp,-120,120,115.bmp,120,120,9567.300000071526,556033.6000000238,7107,yes,SM,A,115.bmp,120,120,154538,148505,156555,150524,559472.0,553453.0,561489.0,555458.0,42
1,1,0,0,0,34,test,1,1,z,Fri Apr 11 2025 16:20:33 GMT-0500 (Central Daylight Time),574498.0,O,z,842,43,1,116.bmp,-120,-120,117.bmp,120,-120,118.bmp,-120,120,119.bmp,120,120,8884.399999976158,565613.6000000238,7107,yes,SM,A,116.bmp,-120,-120,154538,148505,156555,150524,569052.0,563033.0,571069.0,565038.0,43
4,0,0,0,1,35,test,1,1,m,Fri Apr 11 2025 16:20:33 GMT-0500 (Central Daylight Time),583561.8000000715,O,m,1009,44,1,104.bmp,-120,-120,101.bmp,120,-120,102.bmp,-120,120,103.bmp,120,120,9051.5,574510.3000000715,7107,no,SM,A,104.bmp,120,120,154538,148505,156555,150524,577949.0,571930.0,579966.0,573934.0,44
1,1,0,0,0,36,test,1,1,m,Fri Apr 11 2025 16:20:33 GMT-0500 (Central Daylight Time),592409.0,O,m,800,45,1,128.bmp,-120,-120,129.bmp,120,-120,130.bmp,-120,120,131.bmp,120,120,8833.0,583576.0,7107,no,SM,A,131.bmp,-120,-120,154538,148505,156555,150524,587012.0,580996.0,589015.0,582998.0,45
1,1,0,0,0,37,test,1,1,m,Fri Apr 11 2025 16:20:33 GMT-0500 (Central Daylight Time),601705.9000000954,O,m,1242,46,1,120.bmp,-120,-120,121.bmp,120,-120,122.bmp,-120,120,123.bmp,120,120,9283.700000047684,592422.2000000477,7107,no,SM,A,121.bmp,-120,-120,154538,148505,156555,150524,595860.0,589842.0,597877.0,591845.0,46
3,0,0,1,0,37,test,1,0,z,Fri Apr 11 2025 16:20:33 GMT-0500 (Central Daylight Time),611502.6000000238,O,m,1745,47,1,124.bmp,-120,-120,125.bmp,120,-120,126.bmp,-120,120,127.bmp,120,120,9784.0,601718.6000000238,7107,yes,SM,A,126.bmp,-120,120,154538,148505,156555,150524,605157.0,599138.0,607174.0,601142.0,47
3,0,0,1,0,38,test,1,1,z,Fri Apr 11 2025 16:20:33 GMT-0500 (Central Daylight Time),620866.3000000715,O,z,1302,48,1,140.bmp,-120,-120,141.bmp,120,-120,142.bmp,-120,120,143.bmp,120,120,9351.700000047684,611514.6000000238,7107,yes,SM,A,142.bmp,-120,120,154538,148505,156555,150524,614953.0,608934.0,616970.0,610939.0,48
2,0,1,0,0,39,test,1,1,z,Fri Apr 11 2025 16:20:33 GMT-0500 (Central Daylight Time),629779.9000000954,O,z,840,49,1,136.bmp,-120,-120,137.bmp,120,-120,138.bmp,-120,120,139.bmp,120,120,8897.600000023842,620882.3000000715,7107,yes,SM,A,137.bmp,120,-120,154538,148505,156555,150524,624334.0,618302.0,626351.0,620320.0,49
3,0,0,1,0,40,test,1,1,m,Fri Apr 11 2025 16:20:33 GMT-0500 (Central Daylight Time),638643.3000000715,O,m,781,50,1,132.bmp,-120,-120,133.bmp,120,-120,134.bmp,-120,120,135.bmp,120,120,8848.200000047684,629795.1000000238,7107,no,SM,A,132.bmp,-120,120,154538,148505,156555,150524,633247.0,627215.0,635265.0,629233.0,50
2,0,1,0,0,41,test,1,1,z,Fri Apr 11 2025 16:20:33 GMT-0500 (Central Daylight Time),648240.7000000477,O,z,1536,51,1,144.bmp,-120,-120,145.bmp,120,-120,146.bmp,-120,120,147.bmp,120,120,9591.200000047684,638649.5,7107,yes,SM,A,145.bmp,120,-120,154538,148505,156555,150524,642095.0,636069.0,644111.0,638080.0,51
4,0,0,0,1,42,test,1,1,m,Fri Apr 11 2025 16:20:33 GMT-0500 (Central Daylight Time),657687.4000000954,O,m,1387,52,1,148.bmp,-120,-120,149.bmp,120,-120,150.bmp,-120,120,131.bmp,120,120,9433.800000071526,648253.6000000238,7107,no,SM,A,148.bmp,120,120,154538,148505,156555,150524,651691.0,645673.0,653708.0,647677.0,52
3,0,0,1,0,43,test,1,1,z,Fri Apr 11 2025 16:20:33 GMT-0500 (Central Daylight Time),666267.8000000715,O,z,524,53,1,101.bmp,-120,-120,102.bmp,120,-120,103.bmp,-120,120,104.bmp,120,120,8570.800000071526,657697.0,7107,yes,SM,A,103.bmp,-120,120,154538,148505,156555,150524,661137.0,655116.0,663155.0,657124.0,53
1,1,0,0,0,43,test,1,0,m,Fri Apr 11 2025 16:20:33 GMT-0500 (Central Daylight Time),676148.1000000238,O,z,1824,54,1,105.bmp,-120,-120,106.bmp,120,-120,107.bmp,-120,120,108.bmp,120,120,9870.799999952316,666277.3000000715,7107,no,SM,A,107.bmp,-120,-120,154538,148505,156555,150524,669719.0,663697.0,671736.0,665705.0,54
4,0,0,0,1,44,test,1,1,z,Fri Apr 11 2025 16:20:33 GMT-0500 (Central Daylight Time),685561.6000000238,O,z,1351,55,1,109.bmp,-120,-120,110.bmp,120,-120,111.bmp,-120,120,112.bmp,120,120,9401.100000023842,676160.5,7107,yes,SM,A,112.bmp,120,120,154538,148505,156555,150524,679599.0,673580.0,681616.0,675584.0,55
2,0,1,0,0,45,test,1,1,m,Fri Apr 11 2025 16:20:33 GMT-0500 (Central Daylight Time),694425.4000000954,O,m,801,56,1,113.bmp,-120,-120,114.bmp,120,-120,115.bmp,-120,120,116.bmp,120,120,8850.300000071526,685575.1000000238,7107,no,SM,A,113.bmp,120,-120,154538,148505,156555,150524,689013.0,682995.0,691030.0,684998.0,56
4,0,0,0,1,46,test,1,1,m,Fri Apr 11 2025 16:20:33 GMT-0500 (Central Daylight Time),704222.1000000238,O,m,1746,57,1,117.bmp,-120,-120,118.bmp,120,-120,119.bmp,-120,120,120.bmp,120,120,9784.0,694438.1000000238,7107,no,SM,A,118.bmp,120,120,154538,148505,156555,150524,697876.0,691858.0,699893.0,693862.0,57
3,0,0,1,0,47,test,1,1,z,Fri Apr 11 2025 16:20:33 GMT-0500 (Central Daylight Time),713918.9000000954,O,z,1638,58,1,121.bmp,-120,-120,122.bmp,120,-120,123.bmp,-120,120,124.bmp,120,120,9684.700000047684,704234.2000000477,7107,yes,SM,A,123.bmp,-120,120,154538,148505,156555,150524,707673.0,701654.0,709690.0,703658.0,58
2,0,1,0,0,47,test,1,0,m,Fri Apr 11 2025 16:20:33 GMT-0500 (Central Daylight Time),723049.3000000715,O,z,1068,59,1,125.bmp,-120,-120,126.bmp,120,-120,127.bmp,-120,120,128.bmp,120,120,9118.300000071526,713931.0,7107,no,SM,A,128.bmp,120,-120,154538,148505,156555,150524,717370.0,711351.0,719387.0,713355.0,59
1,1,0,0,0,48,test,1,1,z,Fri Apr 11 2025 16:20:33 GMT-0500 (Central Daylight Time),731579.4000000954,O,z,481,60,1,129.bmp,-120,-120,130.bmp,120,-120,131.bmp,-120,120,132.bmp,120,120,8517.300000071526,723062.1000000238,7107,yes,SM,A,129.bmp,-120,-120,154538,148505,156555,150524,726499.0,720482.0,728517.0,722486.0,60
2,0,1,0,0,49,test,1,1,z,Fri Apr 11 2025 16:20:33 GMT-0500 (Central Daylight Time),740426.6000000238,O,z,790,61,1,133.bmp,-120,-120,134.bmp,120,-120,135.bmp,-120,120,136.bmp,120,120,8842.5,731584.1000000238,7107,yes,SM,A,134.bmp,120,-120,154538,148505,156555,150524,735030.0,729004.0,737048.0,731016.0,61
4,0,0,0,1,50,test,1,1,z,Fri Apr 11 2025 16:20:33 GMT-0500 (Central Daylight Time),749823.9000000954,O,z,1336,62,1,141.bmp,-120,-120,142.bmp,120,-120,143.bmp,-120,120,144.bmp,120,120,9390.300000071526,740433.6000000238,7107,yes,SM,A,144.bmp,120,120,154538,148505,156555,150524,743878.0,737853.0,745895.0,739863.0,62
1,1,0,0,0,51,test,1,1,m,Fri Apr 11 2025 16:20:33 GMT-0500 (Central Daylight Time),759287.5,O,m,1411,63,1,145.bmp,-120,-120,146.bmp,120,-120,147.bmp,-120,120,148.bmp,120,120,9450.699999928474,749836.8000000715,7107,no,SM,A,145.bmp,-120,120,154538,148505,156555,150524,753275.0,747257.0,755292.0,749260.0,63
2,0,1,0,0,52,test,1,1,z,Fri Apr 11 2025 16:20:33 GMT-0500 (Central Daylight Time),767984.6000000238,O,z,637,64,1,149.bmp,-120,-120,150.bmp,120,-120,112.bmp,-120,120,101.bmp,120,120,8683.399999976158,759301.2000000477,7107,yes,SM,A,150.bmp,120,-120,154538,148505,156555,150524,762738.0,756721.0,764755.0,758724.0,64
4,0,0,0,1,52,test,1,0,m,Fri Apr 11 2025 16:20:33 GMT-0500 (Central Daylight Time),778048.2000000477,O,None,2014,65,1,102.bmp,-120,-120,103.bmp,120,-120,104.bmp,-120,120,105.bmp,120,120,10050.0,767998.2000000477,7107,no,SM,A,104.bmp,120,120,154538,148505,156555,150524,771435.0,765418.0,773453.0,767421.0,65
3,0,0,1,0,53,test,1,1,m,Fri Apr 11 2025 16:20:33 GMT-0500 (Central Daylight Time),787095.1000000238,O,m,970,66,1,106.bmp,-120,-120,107.bmp,120,-120,108.bmp,-120,120,109.bmp,120,120,9029.799999952316,778065.3000000715,7107,no,SM,A,109.bmp,-120,120,154538,148505,156555,150524,781515.0,775485.0,783533.0,777501.0,66
2,0,1,0,0,53,test,1,0,m,Fri Apr 11 2025 16:20:33 GMT-0500 (Central Daylight Time),796841.4000000954,O,z,1684,67,1,137.bmp,-120,-120,138.bmp,120,-120,139.bmp,-120,120,140.bmp,120,120,9734.0,787107.4000000954,7107,no,SM,A,139.bmp,120,-120,154538,148505,156555,150524,790546.0,784527.0,792563.0,786531.0,67
3,0,0,1,0,54,test,1,1,z,Fri Apr 11 2025 16:20:33 GMT-0500 (Central Daylight Time),805822.3000000715,O,z,921,68,1,110.bmp,-120,-120,111.bmp,120,-120,112.bmp,-120,120,113.bmp,120,120,8973.399999976158,796848.9000000954,7107,yes,SM,A,112.bmp,-120,120,154538,148505,156555,150524,800292.0,794268.0,802310.0,796278.0,68
1,1,0,0,0,55,test,1,1,m,Fri Apr 11 2025 16:20:33 GMT-0500 (Central Daylight Time),814719.4000000954,O,m,838,69,1,114.bmp,-120,-120,115.bmp,120,-120,116.bmp,-120,120,117.bmp,120,120,8883.900000095367,805835.5,7107,no,SM,A,115.bmp,-120,-120,154538,148505,156555,150524,809273.0,803255.0,811290.0,805259.0,69
2,0,1,0,0,56,test,1,1,m,Fri Apr 11 2025 16:20:33 GMT-0500 (Central Daylight Time),824216.0,O,m,1436,70,1,118.bmp,-120,-120,119.bmp,120,-120,120.bmp,-120,120,121.bmp,120,120,9484.299999952316,814731.7000000477,7107,no,SM,A,120.bmp,120,-120,154538,148505,156555,150524,818170.0,812151.0,820187.0,814156.0,70
4,0,0,0,1,57,test,1,1,z,Fri Apr 11 2025 16:20:33 GMT-0500 (Central Daylight Time),833413.4000000954,O,z,1148,71,1,122.bmp,-120,-120,123.bmp,120,-120,124.bmp,-120,120,125.bmp,120,120,9184.700000047684,824228.7000000477,7107,yes,SM,A,125.bmp,120,120,154538,148505,156555,150524,827667.0,821648.0,829684.0,823652.0,71
1,1,0,0,0,58,test,1,1,z,Fri Apr 11 2025 16:20:33 GMT-0500 (Central Daylight Time),842626.5,O,z,1158,72,1,126.bmp,-120,-120,127.bmp,120,-120,128.bmp,-120,120,129.bmp,120,120,9201.0,833425.5,7107,yes,SM,A,126.bmp,-120,-120,154538,148505,156555,150524,836864.0,830845.0,838881.0,832849.0,72
2,0,1,0,0,59,test,1,1,z,Fri Apr 11 2025 16:20:33 GMT-0500 (Central Daylight Time),851707.2000000477,O,z,1025,73,1,130.bmp,-120,-120,131.bmp,120,-120,132.bmp,-120,120,133.bmp,120,120,9073.600000023842,842633.6000000238,7107,yes,SM,A,131.bmp,120,-120,154538,148505,156555,150524,846077.0,840053.0,848095.0,842063.0,73
4,0,0,0,1,60,test,1,1,m,Fri Apr 11 2025 16:20:33 GMT-0500 (Central Daylight Time),860654.3000000715,O,m,896,74,1,134.bmp,-120,-120,135.bmp,120,-120,136.bmp,-120,120,137.bmp,120,120,8934.899999976158,851719.4000000954,7107,no,SM,A,136.bmp,120,120,154538,148505,156555,150524,855158.0,849139.0,857175.0,851144.0,74
2,0,1,0,0,60,test,1,0,m,Fri Apr 11 2025 16:20:33 GMT-0500 (Central Daylight Time),869801.3000000715,O,z,1094,75,1,138.bmp,-120,-120,139.bmp,120,-120,140.bmp,-120,120,141.bmp,120,120,9134.700000047684,860666.6000000238,7107,no,SM,A,141.bmp,120,-120,154538,148505,156555,150524,864105.0,858086.0,866122.0,860091.0,75
1,1,0,0,0,61,test,1,1,z,Fri Apr 11 2025 16:20:33 GMT-0500 (Central Daylight Time),878631.7000000477,O,z,778,76,1,142.bmp,-120,-120,143.bmp,120,-120,144.bmp,-120,120,145.bmp,120,120,8816.100000023842,869815.6000000238,7107,yes,SM,A,142.bmp,-120,-120,154538,148505,156555,150524,873252.0,867235.0,875269.0,869238.0,76
3,0,0,1,0,61,test,1,0,z,Fri Apr 11 2025 16:20:33 GMT-0500 (Central Daylight Time),888695.0,O,None,2014,77,1,150.bmp,-120,-120,111.bmp,120,-120,101.bmp,-120,120,102.bmp,120,120,10050.199999928474,878644.8000000715,7107,yes,SM,A,101.bmp,-120,120,154538,148505,156555,150524,882082.0,876065.0,884100.0,878068.0,77
1,1,0,0,0,61,test,1,0,m,Fri Apr 11 2025 16:20:33 GMT-0500 (Central Daylight Time),898258.6000000238,O,z,1492,78,1,146.bmp,-120,-120,147.bmp,120,-120,148.bmp,-120,120,149.bmp,120,120,9548.5,888710.1000000238,7107,no,SM,A,147.bmp,-120,-120,154538,148505,156555,150524,892162.0,886130.0,894179.0,888148.0,78
4,0,0,0,1,62,test,1,1,m,Fri Apr 11 2025 16:20:33 GMT-0500 (Central Daylight Time),907488.9000000954,O,m,1161,79,1,107.bmp,-120,-120,108.bmp,120,-120,109.bmp,-120,120,110.bmp,120,120,9213.700000047684,898275.2000000477,7107,no,SM,A,107.bmp,120,120,154538,148505,156555,150524,901726.0,895695.0,903743.0,897712.0,79
3,0,0,1,0,62,test,1,0,m,Fri Apr 11 2025 16:20:33 GMT-0500 (Central Daylight Time),916685.5,O,z,1138,80,1,103.bmp,-120,-120,104.bmp,120,-120,105.bmp,-120,120,106.bmp,120,120,9183.099999904633,907502.4000000954,7107,no,SM,A,106.bmp,-120,120,154538,148505,156555,150524,910940.0,904922.0,912957.0,906925.0,80
