Q,Q1,Q2,Q3,Q4,acc_sum,block,block_c,correct,correct_response,datetime,endtime,project,response,response_time,row_sel,session_number,squiggle1,squiggle1x,squiggle1y,squiggle2,squiggle2x,squiggle2y,squiggle3,squiggle3x,squiggle3y,squiggle4,squiggle4x,squiggle4y,start_end,starttime,subject_id,target_congruent,task,task_vers,testsquiggle,testsquigglex,testsquiggley,time_practice_delay,time_practice_fixation,time_practice_stimuli,time_practice_study,time_test_delay,time_test_fixation,time_test_stimuli,time_test_study,trial
1,1,0,0,0,1,prac,1,1,z,Wed Mar 12 2025 12:55:07 GMT-0500 (Central Daylight Time),135899.5,O,z,1105,1,1,116.bmp,-120,-120,117.bmp,120,-120,118.bmp,-120,120,119.bmp,120,120,9924.29999999702,125975.20000000298,7079,yes,SM,A,116.bmp,-120,-120,129109,123083,131125,125094,,,,,1
3,0,0,1,0,1,prac,1,0,m,Wed Mar 12 2025 12:55:07 GMT-0500 (Central Daylight Time),146728.90000000596,O,None,2017,2,1,120.bmp,-120,-120,121.bmp,120,-120,122.bmp,-120,120,123.bmp,120,120,10824.0,135904.90000000596,7079,no,SM,A,123.bmp,-120,120,139040,133013,141055,135024,,,,,2
4,0,0,0,1,1,prac,1,0,m,Wed Mar 12 2025 12:55:07 GMT-0500 (Central Daylight Time),156592.0,O,z,1039,3,1,124.bmp,-120,-120,125.bmp,120,-120,126.bmp,-120,120,127.bmp,120,120,9858.29999999702,146733.70000000298,7079,no,SM,A,124.bmp,120,120,149869,143842,151886,145854,,,,,3
2,0,1,0,0,2,prac,1,1,z,Wed Mar 12 2025 12:55:07 GMT-0500 (Central Daylight Time),166621.70000000298,O,z,1208,4,1,128.bmp,-120,-120,129.bmp,120,-120,130.bmp,-120,120,131.bmp,120,120,10025.90000000596,156595.79999999702,7079,yes,SM,A,129.bmp,120,-120,159731,153704,161750,155718,,,,,4
3,0,0,1,0,3,prac,1,1,z,Wed Mar 12 2025 12:55:07 GMT-0500 (Central Daylight Time),176416.40000000596,O,z,970,5,1,132.bmp,-120,-120,133.bmp,120,-120,134.bmp,-120,120,135.bmp,120,120,9789.800000011921,166626.59999999404,7079,yes,SM,A,134.bmp,-120,120,169763,163735,171780,165748,,,,,5
1,1,0,0,0,3,prac,1,0,m,Wed Mar 12 2025 12:55:07 GMT-0500 (Central Daylight Time),186250.0,O,z,1030,6,1,136.bmp,-120,-120,137.bmp,120,-120,138.bmp,-120,120,139.bmp,120,120,9831.09999999404,176418.90000000596,7079,no,SM,A,139.bmp,-120,-120,179543,173527,181560,175529,,,,,6
2,0,1,0,0,3,prac,1,0,m,Wed Mar 12 2025 12:55:07 GMT-0500 (Central Daylight Time),196262.90000000596,O,z,1181,7,1,140.bmp,-120,-120,141.bmp,120,-120,142.bmp,-120,120,143.bmp,120,120,10005.300000011921,186257.59999999404,7079,no,SM,A,140.bmp,120,-120,189389,183366,191407,185374,,,,,7
4,0,0,0,1,4,prac,1,1,z,Wed Mar 12 2025 12:55:07 GMT-0500 (Central Daylight Time),206309.59999999404,O,z,1218,8,1,144.bmp,-120,-120,145.bmp,120,-120,146.bmp,-120,120,147.bmp,120,120,10042.89999999106,196266.70000000298,7079,yes,SM,A,147.bmp,120,120,199403,193375,201419,195389,,,,,8
1,1,0,0,0,1,prac,2,1,z,Wed Mar 12 2025 12:55:07 GMT-0500 (Central Daylight Time),220387.70000000298,O,z,1194,1,1,116.bmp,-120,-120,117.bmp,120,-120,118.bmp,-120,120,119.bmp,120,120,10006.5,210381.20000000298,7079,yes,SM,A,116.bmp,-120,-120,213515,207490,215532,209500,,,,,1
3,0,0,1,0,2,prac,2,1,m,Wed Mar 12 2025 12:55:07 GMT-0500 (Central Daylight Time),230703.40000000596,O,m,1493,2,1,120.bmp,-120,-120,121.bmp,120,-120,122.bmp,-120,120,123.bmp,120,120,10310.40000000596,220393.0,7079,no,SM,A,123.bmp,-120,120,223528,217501,225545,219513,,,,,2
4,0,0,0,1,3,prac,2,1,m,Wed Mar 12 2025 12:55:07 GMT-0500 (Central Daylight Time),241399.70000000298,O,m,1876,3,1,124.bmp,-120,-120,125.bmp,120,-120,126.bmp,-120,120,127.bmp,120,120,10692.20000000298,230707.5,7079,no,SM,A,124.bmp,120,120,233841,227816,235858,229827,,,,,3
2,0,1,0,0,4,prac,2,1,z,Wed Mar 12 2025 12:55:07 GMT-0500 (Central Daylight Time),251394.90000000596,O,z,1173,4,1,128.bmp,-120,-120,129.bmp,120,-120,130.bmp,-120,120,131.bmp,120,120,9991.0,241403.90000000596,7079,yes,SM,A,129.bmp,120,-120,244538,238512,246554,240524,,,,,4
3,0,0,1,0,5,prac,2,1,z,Wed Mar 12 2025 12:55:07 GMT-0500 (Central Daylight Time),261125.40000000596,O,z,917,5,1,132.bmp,-120,-120,133.bmp,120,-120,134.bmp,-120,120,135.bmp,120,120,9725.5,251399.90000000596,7079,yes,SM,A,134.bmp,-120,120,254534,248508,256536,250520,,,,,5
1,1,0,0,0,6,prac,2,1,m,Wed Mar 12 2025 12:55:07 GMT-0500 (Central Daylight Time),271056.799999997,O,m,1107,6,1,136.bmp,-120,-120,137.bmp,120,-120,138.bmp,-120,120,139.bmp,120,120,9928.09999999404,261128.70000000298,7079,no,SM,A,139.bmp,-120,-120,264266,258237,266282,260251,,,,,6
2,0,1,0,0,7,prac,2,1,m,Wed Mar 12 2025 12:55:07 GMT-0500 (Central Daylight Time),281020.299999997,O,m,1146,7,1,140.bmp,-120,-120,141.bmp,120,-120,142.bmp,-120,120,143.bmp,120,120,9959.39999999106,271060.90000000596,7079,no,SM,A,140.bmp,120,-120,274195,268169,276212,270180,,,,,7
4,0,0,0,1,7,prac,2,0,z,Wed Mar 12 2025 12:55:07 GMT-0500 (Central Daylight Time),290965.700000003,O,m,1140,8,1,144.bmp,-120,-120,145.bmp,120,-120,146.bmp,-120,120,147.bmp,120,120,9937.90000000596,281027.799999997,7079,yes,SM,A,147.bmp,120,120,284158,278137,286161,280144,,,,,8
4,0,0,0,1,1,test,1,1,m,Wed Mar 12 2025 12:55:07 GMT-0500 (Central Daylight Time),315826.90000000596,O,m,1166,1,1,148.bmp,-120,-120,149.bmp,120,-120,150.bmp,-120,120,143.bmp,120,120,9210.20000000298,306616.700000003,7079,no,SM,A,150.bmp,120,120,284158,278137,286161,280144,309751.0,303725.0,311768.0,305736.0,1
2,0,1,0,0,2,test,1,1,m,Wed Mar 12 2025 12:55:07 GMT-0500 (Central Daylight Time),324837.700000003,O,m,978,2,1,101.bmp,-120,-120,102.bmp,120,-120,103.bmp,-120,120,104.bmp,120,120,9006.70000000298,315831.0,7079,no,SM,A,103.bmp,120,-120,284158,278137,286161,280144,318951.0,312939.0,320964.0,314949.0,2
1,1,0,0,0,3,test,1,1,z,Wed Mar 12 2025 12:55:07 GMT-0500 (Central Daylight Time),333635.299999997,O,z,765,3,1,105.bmp,-120,-120,106.bmp,120,-120,107.bmp,-120,120,108.bmp,120,120,8794.0,324841.299999997,7079,yes,SM,A,105.bmp,-120,-120,284158,278137,286161,280144,327965.0,321949.0,329978.0,323963.0,3
3,0,0,1,0,3,test,1,0,m,Wed Mar 12 2025 12:55:07 GMT-0500 (Central Daylight Time),343265.59999999404,O,z,1573,4,1,109.bmp,-120,-120,110.bmp,120,-120,111.bmp,-120,120,112.bmp,120,120,9626.79999999702,333638.799999997,7079,no,SM,A,109.bmp,-120,120,284158,278137,286161,280144,336776.0,330747.0,338792.0,332760.0,4
2,0,1,0,0,3,test,1,0,z,Wed Mar 12 2025 12:55:07 GMT-0500 (Central Daylight Time),352361.59999999404,O,m,1045,5,1,113.bmp,-120,-120,114.bmp,120,-120,115.bmp,-120,120,116.bmp,120,120,9092.89999999106,343268.700000003,7079,yes,SM,A,114.bmp,120,-120,284158,278137,286161,280144,346407.0,340377.0,348424.0,342392.0,5
3,0,0,1,0,4,test,1,1,z,Wed Mar 12 2025 12:55:07 GMT-0500 (Central Daylight Time),361810.09999999404,O,z,1407,6,1,117.bmp,-120,-120,118.bmp,120,-120,119.bmp,-120,120,120.bmp,120,120,9445.89999999106,352364.200000003,7079,yes,SM,A,119.bmp,-120,120,284158,278137,286161,280144,355487.0,349472.0,357503.0,351486.0,6
4,0,0,0,1,5,test,1,1,z,Wed Mar 12 2025 12:55:07 GMT-0500 (Central Daylight Time),371291.700000003,O,z,1432,7,1,121.bmp,-120,-120,122.bmp,120,-120,123.bmp,-120,120,124.bmp,120,120,9478.60000000894,361813.09999999404,7079,yes,SM,A,124.bmp,120,120,284158,278137,286161,280144,364951.0,358921.0,366968.0,360935.0,7
2,0,1,0,0,6,test,1,1,m,Wed Mar 12 2025 12:55:07 GMT-0500 (Central Daylight Time),380321.40000000596,O,m,966,8,1,125.bmp,-120,-120,126.bmp,120,-120,127.bmp,-120,120,128.bmp,120,120,9025.300000011921,371296.09999999404,7079,no,SM,A,125.bmp,120,-120,284158,278137,286161,280144,374432.0,368404.0,376448.0,370419.0,8
3,0,0,1,0,7,test,1,1,m,Wed Mar 12 2025 12:55:07 GMT-0500 (Central Daylight Time),389534.200000003,O,m,1151,9,1,129.bmp,-120,-120,130.bmp,120,-120,131.bmp,-120,120,132.bmp,120,120,9209.10000000894,380325.09999999404,7079,no,SM,A,130.bmp,-120,120,284158,278137,286161,280144,383461.0,377433.0,385478.0,379445.0,9
4,0,0,0,1,8,test,1,1,z,Wed Mar 12 2025 12:55:07 GMT-0500 (Central Daylight Time),398665.700000003,O,z,1081,10,1,137.bmp,-120,-120,138.bmp,120,-120,139.bmp,-120,120,140.bmp,120,120,9127.79999999702,389537.90000000596,7079,yes,SM,A,140.bmp,120,120,284158,278137,286161,280144,392674.0,386646.0,394692.0,388660.0,10
3,0,0,1,0,8,test,1,0,z,Wed Mar 12 2025 12:55:07 GMT-0500 (Central Daylight Time),407563.59999999404,O,m,850,11,1,133.bmp,-120,-120,134.bmp,120,-120,135.bmp,-120,120,136.bmp,120,120,8894.5,398669.09999999404,7079,yes,SM,A,135.bmp,-120,120,284158,278137,286161,280144,401805.0,395777.0,403821.0,397790.0,11
2,0,1,0,0,9,test,1,1,m,Wed Mar 12 2025 12:55:07 GMT-0500 (Central Daylight Time),416809.200000003,O,m,1196,12,1,141.bmp,-120,-120,142.bmp,120,-120,143.bmp,-120,120,144.bmp,120,120,9240.40000000596,407568.799999997,7079,no,SM,A,141.bmp,120,-120,284158,278137,286161,280144,410702.0,404677.0,412721.0,406688.0,12
3,0,0,1,0,10,test,1,1,m,Wed Mar 12 2025 12:55:07 GMT-0500 (Central Daylight Time),425956.59999999404,O,m,1097,13,1,145.bmp,-120,-120,146.bmp,120,-120,147.bmp,-120,120,148.bmp,120,120,9144.699999988079,416811.90000000596,7079,no,SM,A,146.bmp,-120,120,284158,278137,286161,280144,419949.0,413920.0,421965.0,415933.0,13
1,1,0,0,0,11,test,1,1,z,Wed Mar 12 2025 12:55:07 GMT-0500 (Central Daylight Time),435120.0,O,z,1102,14,1,149.bmp,-120,-120,150.bmp,120,-120,104.bmp,-120,120,101.bmp,120,120,9158.29999999702,425961.700000003,7079,yes,SM,A,149.bmp,-120,-120,284158,278137,286161,280144,429096.0,423070.0,431112.0,425084.0,14
4,0,0,0,1,12,test,1,1,m,Wed Mar 12 2025 12:55:07 GMT-0500 (Central Daylight Time),444916.90000000596,O,m,1736,15,1,110.bmp,-120,-120,111.bmp,120,-120,112.bmp,-120,120,113.bmp,120,120,9792.70000000298,435124.200000003,7079,no,SM,A,111.bmp,120,120,284158,278137,286161,280144,438260.0,432232.0,440277.0,434246.0,15
1,1,0,0,0,13,test,1,1,m,Wed Mar 12 2025 12:55:07 GMT-0500 (Central Daylight Time),453948.5,O,m,972,16,1,102.bmp,-120,-120,103.bmp,120,-120,104.bmp,-120,120,105.bmp,120,120,9028.20000000298,444920.299999997,7079,no,SM,A,105.bmp,-120,-120,284158,278137,286161,280144,448057.0,442029.0,450074.0,444042.0,16
3,0,0,1,0,14,test,1,1,m,Wed Mar 12 2025 12:55:07 GMT-0500 (Central Daylight Time),463878.09999999404,O,m,1870,17,1,122.bmp,-120,-120,123.bmp,120,-120,124.bmp,-120,120,125.bmp,120,120,9927.39999999106,453950.700000003,7079,no,SM,A,122.bmp,-120,120,284158,278137,286161,280144,457088.0,451059.0,459104.0,453073.0,17
1,1,0,0,0,15,test,1,1,z,Wed Mar 12 2025 12:55:07 GMT-0500 (Central Daylight Time),473591.299999997,O,z,1652,18,1,106.bmp,-120,-120,107.bmp,120,-120,108.bmp,-120,120,109.bmp,120,120,9709.29999999702,463882.0,7079,yes,SM,A,106.bmp,-120,-120,284158,278137,286161,280144,467018.0,460990.0,469034.0,463003.0,18
2,0,1,0,0,16,test,1,1,z,Wed Mar 12 2025 12:55:07 GMT-0500 (Central Daylight Time),482821.200000003,O,z,1169,19,1,126.bmp,-120,-120,127.bmp,120,-120,128.bmp,-120,120,129.bmp,120,120,9224.90000000596,473596.299999997,7079,yes,SM,A,127.bmp,120,-120,284158,278137,286161,280144,476732.0,470705.0,478748.0,472717.0,19
3,0,0,1,0,17,test,1,1,z,Wed Mar 12 2025 12:55:07 GMT-0500 (Central Daylight Time),492485.0,O,z,1606,20,1,130.bmp,-120,-120,131.bmp,120,-120,132.bmp,-120,120,133.bmp,120,120,9660.70000000298,482824.299999997,7079,yes,SM,A,132.bmp,-120,120,284158,278137,286161,280144,485961.0,479932.0,487976.0,481946.0,20
1,1,0,0,0,18,test,1,1,m,Wed Mar 12 2025 12:55:07 GMT-0500 (Central Daylight Time),501665.59999999404,O,m,1125,21,1,114.bmp,-120,-120,115.bmp,120,-120,116.bmp,-120,120,117.bmp,120,120,9177.39999999106,492488.200000003,7079,no,SM,A,116.bmp,-120,-120,284158,278137,286161,280144,495625.0,489596.0,497641.0,491612.0,21
4,0,0,0,1,19,test,1,1,z,Wed Mar 12 2025 12:55:07 GMT-0500 (Central Daylight Time),510662.5,O,z,943,22,1,118.bmp,-120,-120,119.bmp,120,-120,120.bmp,-120,120,121.bmp,120,120,8993.59999999404,501668.90000000596,7079,yes,SM,A,121.bmp,120,120,284158,278137,286161,280144,504806.0,498777.0,506823.0,500790.0,22
1,1,0,0,0,20,test,1,1,m,Wed Mar 12 2025 12:55:07 GMT-0500 (Central Daylight Time),519826.40000000596,O,m,1116,23,1,134.bmp,-120,-120,135.bmp,120,-120,136.bmp,-120,120,137.bmp,120,120,9160.800000011921,510665.59999999404,7079,no,SM,A,137.bmp,-120,-120,284158,278137,286161,280144,513803.0,507774.0,515818.0,509788.0,23
2,0,1,0,0,21,test,1,1,z,Wed Mar 12 2025 12:55:07 GMT-0500 (Central Daylight Time),529356.799999997,O,z,1479,24,1,142.bmp,-120,-120,143.bmp,120,-120,144.bmp,-120,120,145.bmp,120,120,9526.0,519830.799999997,7079,yes,SM,A,143.bmp,120,-120,284158,278137,286161,280144,522966.0,516939.0,524983.0,518952.0,24
4,0,0,0,1,21,test,1,0,m,Wed Mar 12 2025 12:55:07 GMT-0500 (Central Daylight Time),539387.700000003,O,z,1966,25,1,146.bmp,-120,-120,147.bmp,120,-120,148.bmp,-120,120,149.bmp,120,120,10026.70000000298,529361.0,7079,no,SM,A,148.bmp,120,120,284158,278137,286161,280144,532498.0,526469.0,534514.0,528481.0,25
1,1,0,0,0,22,test,1,1,z,Wed Mar 12 2025 12:55:07 GMT-0500 (Central Daylight Time),548251.5,O,z,805,26,1,138.bmp,-120,-120,139.bmp,120,-120,140.bmp,-120,120,141.bmp,120,120,8860.09999999404,539391.400000006,7079,yes,SM,A,138.bmp,-120,-120,284158,278137,286161,280144,542527.0,536500.0,544544.0,538513.0,26
4,0,0,0,1,23,test,1,1,z,Wed Mar 12 2025 12:55:07 GMT-0500 (Central Daylight Time),557881.299999997,O,z,1574,27,1,150.bmp,-120,-120,111.bmp,120,-120,101.bmp,-120,120,102.bmp,120,120,9626.20000000298,548255.099999994,7079,yes,SM,A,102.bmp,120,120,284158,278137,286161,280144,551392.0,545363.0,553408.0,547377.0,27
3,0,0,1,0,24,test,1,1,m,Wed Mar 12 2025 12:55:07 GMT-0500 (Central Daylight Time),566963.400000006,O,m,1033,28,1,103.bmp,-120,-120,104.bmp,120,-120,105.bmp,-120,120,106.bmp,120,120,9078.40000000596,557885.0,7079,no,SM,A,103.bmp,-120,120,284158,278137,286161,280144,561021.0,554993.0,563038.0,557007.0,28
2,0,1,0,0,25,test,1,1,z,Wed Mar 12 2025 12:55:07 GMT-0500 (Central Daylight Time),575792.0,O,z,774,29,1,107.bmp,-120,-120,108.bmp,120,-120,109.bmp,-120,120,110.bmp,120,120,8825.5,566966.5,7079,yes,SM,A,108.bmp,120,-120,284158,278137,286161,280144,570102.0,564075.0,572119.0,566086.0,29
3,0,0,1,0,26,test,1,1,z,Wed Mar 12 2025 12:55:07 GMT-0500 (Central Daylight Time),584891.900000006,O,z,1050,30,1,111.bmp,-120,-120,112.bmp,120,-120,113.bmp,-120,120,114.bmp,120,120,9096.20000000298,575795.700000003,7079,yes,SM,A,113.bmp,-120,120,284158,278137,286161,280144,578931.0,572904.0,580948.0,574917.0,30
1,1,0,0,0,27,test,1,1,z,Wed Mar 12 2025 12:55:07 GMT-0500 (Central Daylight Time),594153.200000003,O,z,1208,31,1,115.bmp,-120,-120,116.bmp,120,-120,117.bmp,-120,120,118.bmp,120,120,9259.0,584894.200000003,7079,yes,SM,A,115.bmp,-120,-120,284158,278137,286161,280144,588030.0,582002.0,590046.0,584014.0,31
2,0,1,0,0,28,test,1,1,m,Wed Mar 12 2025 12:55:07 GMT-0500 (Central Daylight Time),604100.0,O,m,1902,32,1,119.bmp,-120,-120,120.bmp,120,-120,121.bmp,-120,120,122.bmp,120,120,9943.5,594156.5,7079,no,SM,A,119.bmp,120,-120,284158,278137,286161,280144,597293.0,591265.0,599296.0,593278.0,32
4,0,0,0,1,28,test,1,0,z,Wed Mar 12 2025 12:55:07 GMT-0500 (Central Daylight Time),613379.900000006,O,m,1222,33,1,131.bmp,-120,-120,132.bmp,120,-120,133.bmp,-120,120,134.bmp,120,120,9276.300000011921,604103.599999994,7079,yes,SM,A,134.bmp,120,120,284158,278137,286161,280144,607239.0,601212.0,609256.0,603224.0,33
2,0,1,0,0,29,test,1,1,z,Wed Mar 12 2025 12:55:07 GMT-0500 (Central Daylight Time),622877.099999994,O,z,1437,34,1,123.bmp,-120,-120,124.bmp,120,-120,125.bmp,-120,120,126.bmp,120,120,9493.5,613383.599999994,7079,yes,SM,A,124.bmp,120,-120,284158,278137,286161,280144,616521.0,610492.0,618537.0,612506.0,34
4,0,0,0,1,29,test,1,0,m,Wed Mar 12 2025 12:55:07 GMT-0500 (Central Daylight Time),632641.299999997,O,z,1699,35,1,127.bmp,-120,-120,128.bmp,120,-120,129.bmp,-120,120,130.bmp,120,120,9760.5,622880.799999997,7079,no,SM,A,129.bmp,120,120,284158,278137,286161,280144,626016.0,619989.0,628034.0,622002.0,35
3,0,0,1,0,30,test,1,1,m,Wed Mar 12 2025 12:55:07 GMT-0500 (Central Daylight Time),641687.799999997,O,m,991,36,1,135.bmp,-120,-120,136.bmp,120,-120,137.bmp,-120,120,138.bmp,120,120,9042.0,632645.799999997,7079,no,SM,A,135.bmp,-120,120,284158,278137,286161,280144,635780.0,629754.0,637798.0,631767.0,36
1,1,0,0,0,31,test,1,1,m,Wed Mar 12 2025 12:55:07 GMT-0500 (Central Daylight Time),651050.900000006,O,m,1305,37,1,139.bmp,-120,-120,140.bmp,120,-120,141.bmp,-120,120,142.bmp,120,120,9359.90000000596,641691.0,7079,no,SM,A,140.bmp,-120,-120,284158,278137,286161,280144,644828.0,638799.0,646845.0,640814.0,37
2,0,1,0,0,32,test,1,1,m,Wed Mar 12 2025 12:55:07 GMT-0500 (Central Daylight Time),660298.099999994,O,m,1188,38,1,143.bmp,-120,-120,144.bmp,120,-120,145.bmp,-120,120,146.bmp,120,120,9243.59999999404,651054.5,7079,no,SM,A,145.bmp,120,-120,284158,278137,286161,280144,654191.0,648163.0,656209.0,650176.0,38
4,0,0,0,1,33,test,1,1,z,Wed Mar 12 2025 12:55:07 GMT-0500 (Central Daylight Time),669196.599999994,O,z,834,39,1,147.bmp,-120,-120,148.bmp,120,-120,149.bmp,-120,120,150.bmp,120,120,8894.39999999106,660302.200000003,7079,yes,SM,A,150.bmp,120,120,284158,278137,286161,280144,663439.0,657410.0,665455.0,659423.0,39
3,0,0,1,0,33,test,1,0,m,Wed Mar 12 2025 12:55:07 GMT-0500 (Central Daylight Time),678091.700000003,O,z,852,40,1,104.bmp,-120,-120,105.bmp,120,-120,106.bmp,-120,120,107.bmp,120,120,8892.40000000596,669199.299999997,7079,no,SM,A,105.bmp,-120,120,284158,278137,286161,280144,672335.0,666307.0,674337.0,668321.0,40
1,1,0,0,0,34,test,1,1,z,Wed Mar 12 2025 12:55:07 GMT-0500 (Central Daylight Time),686924.0,O,z,782,41,1,108.bmp,-120,-120,109.bmp,120,-120,110.bmp,-120,120,111.bmp,120,120,8828.29999999702,678095.700000003,7079,yes,SM,A,108.bmp,-120,-120,284158,278137,286161,280144,681233.0,675204.0,683248.0,677218.0,41
4,0,0,0,1,35,test,1,1,z,Wed Mar 12 2025 12:55:07 GMT-0500 (Central Daylight Time),695939.400000006,O,z,986,42,1,112.bmp,-120,-120,113.bmp,120,-120,114.bmp,-120,120,115.bmp,120,120,9011.10000000894,686928.299999997,7079,yes,SM,A,115.bmp,120,120,284158,278137,286161,280144,690050.0,684036.0,692061.0,686048.0,42
1,1,0,0,0,35,test,1,0,z,Wed Mar 12 2025 12:55:07 GMT-0500 (Central Daylight Time),705700.200000003,O,m,1703,43,1,116.bmp,-120,-120,117.bmp,120,-120,118.bmp,-120,120,119.bmp,120,120,9757.70000000298,695942.5,7079,yes,SM,A,116.bmp,-120,-120,284158,278137,286161,280144,699079.0,693051.0,701094.0,695062.0,43
4,0,0,0,1,36,test,1,1,m,Wed Mar 12 2025 12:55:07 GMT-0500 (Central Daylight Time),715349.099999994,O,m,1598,44,1,104.bmp,-120,-120,101.bmp,120,-120,102.bmp,-120,120,103.bmp,120,120,9646.0,705703.099999994,7079,no,SM,A,104.bmp,120,120,284158,278137,286161,280144,708840.0,702811.0,710858.0,704824.0,44
1,1,0,0,0,36,test,1,0,m,Wed Mar 12 2025 12:55:07 GMT-0500 (Central Daylight Time),724661.700000003,O,z,1255,45,1,128.bmp,-120,-120,129.bmp,120,-120,130.bmp,-120,120,131.bmp,120,120,9310.20000000298,715351.5,7079,no,SM,A,131.bmp,-120,-120,284158,278137,286161,280144,718488.0,712460.0,720504.0,714473.0,45
1,1,0,0,0,36,test,1,0,m,Wed Mar 12 2025 12:55:07 GMT-0500 (Central Daylight Time),733908.099999994,O,z,1188,46,1,120.bmp,-120,-120,121.bmp,120,-120,122.bmp,-120,120,123.bmp,120,120,9243.39999999106,724664.700000003,7079,no,SM,A,121.bmp,-120,-120,284158,278137,286161,280144,727801.0,721773.0,729818.0,723787.0,46
3,0,0,1,0,37,test,1,1,z,Wed Mar 12 2025 12:55:07 GMT-0500 (Central Daylight Time),742788.200000003,O,z,820,47,1,124.bmp,-120,-120,125.bmp,120,-120,126.bmp,-120,120,127.bmp,120,120,8876.20000000298,733912.0,7079,yes,SM,A,126.bmp,-120,120,284158,278137,286161,280144,737048.0,731020.0,739065.0,733033.0,47
3,0,0,1,0,38,test,1,1,z,Wed Mar 12 2025 12:55:07 GMT-0500 (Central Daylight Time),751769.599999994,O,z,925,48,1,140.bmp,-120,-120,141.bmp,120,-120,142.bmp,-120,120,143.bmp,120,120,8978.199999988079,742791.400000006,7079,yes,SM,A,142.bmp,-120,120,284158,278137,286161,280144,745928.0,739900.0,747945.0,741914.0,48
2,0,1,0,0,38,test,1,0,z,Wed Mar 12 2025 12:55:07 GMT-0500 (Central Daylight Time),761148.799999997,O,m,1320,49,1,136.bmp,-120,-120,137.bmp,120,-120,138.bmp,-120,120,139.bmp,120,120,9375.39999999106,751773.400000006,7079,yes,SM,A,137.bmp,120,-120,284158,278137,286161,280144,754910.0,748882.0,756926.0,750894.0,49
3,0,0,1,0,38,test,1,0,m,Wed Mar 12 2025 12:55:07 GMT-0500 (Central Daylight Time),770746.200000003,O,z,1529,50,1,132.bmp,-120,-120,133.bmp,120,-120,134.bmp,-120,120,135.bmp,120,120,9592.79999999702,761153.400000006,7079,no,SM,A,132.bmp,-120,120,284158,278137,286161,280144,764291.0,758262.0,766309.0,760276.0,50
2,0,1,0,0,38,test,1,0,z,Wed Mar 12 2025 12:55:07 GMT-0500 (Central Daylight Time),780126.599999994,O,m,1334,51,1,144.bmp,-120,-120,145.bmp,120,-120,146.bmp,-120,120,147.bmp,120,120,9375.79999999702,770750.799999997,7079,yes,SM,A,145.bmp,120,-120,284158,278137,286161,280144,773884.0,767859.0,775887.0,769872.0,51
4,0,0,0,1,38,test,1,0,m,Wed Mar 12 2025 12:55:07 GMT-0500 (Central Daylight Time),789123.900000006,O,z,937,52,1,148.bmp,-120,-120,149.bmp,120,-120,150.bmp,-120,120,131.bmp,120,120,8991.300000011921,780132.599999994,7079,no,SM,A,148.bmp,120,120,284158,278137,286161,280144,783268.0,777241.0,785284.0,779253.0,52
3,0,0,1,0,39,test,1,1,z,Wed Mar 12 2025 12:55:07 GMT-0500 (Central Daylight Time),797838.0,O,z,651,53,1,101.bmp,-120,-120,102.bmp,120,-120,103.bmp,-120,120,104.bmp,120,120,8707.40000000596,789130.599999994,7079,yes,SM,A,103.bmp,-120,120,284158,278137,286161,280144,792264.0,786239.0,794282.0,788249.0,53
1,1,0,0,0,39,test,1,0,m,Wed Mar 12 2025 12:55:07 GMT-0500 (Central Daylight Time),807435.400000006,O,z,1539,54,1,105.bmp,-120,-120,106.bmp,120,-120,107.bmp,-120,120,108.bmp,120,120,9593.40000000596,797842.0,7079,no,SM,A,107.bmp,-120,-120,284158,278137,286161,280144,800980.0,794950.0,802995.0,796964.0,54
4,0,0,0,1,40,test,1,1,z,Wed Mar 12 2025 12:55:07 GMT-0500 (Central Daylight Time),816332.900000006,O,z,837,55,1,109.bmp,-120,-120,110.bmp,120,-120,111.bmp,-120,120,112.bmp,120,120,8893.60000000894,807439.299999997,7079,yes,SM,A,112.bmp,120,120,284158,278137,286161,280144,810575.0,804548.0,812593.0,806560.0,55
2,0,1,0,0,41,test,1,1,m,Wed Mar 12 2025 12:55:07 GMT-0500 (Central Daylight Time),826147.700000003,O,m,1766,56,1,113.bmp,-120,-120,114.bmp,120,-120,115.bmp,-120,120,116.bmp,120,120,9811.10000000894,816336.599999994,7079,no,SM,A,113.bmp,120,-120,284158,278137,286161,280144,819472.0,813445.0,821489.0,815458.0,56
4,0,0,0,1,41,test,1,0,m,Wed Mar 12 2025 12:55:07 GMT-0500 (Central Daylight Time),835024.700000003,O,z,830,57,1,117.bmp,-120,-120,118.bmp,120,-120,119.bmp,-120,120,120.bmp,120,120,8873.10000000894,826151.599999994,7079,no,SM,A,118.bmp,120,120,284158,278137,286161,280144,829287.0,823260.0,831303.0,825270.0,57
3,0,0,1,0,41,test,1,0,z,Wed Mar 12 2025 12:55:07 GMT-0500 (Central Daylight Time),843957.299999997,O,m,879,58,1,121.bmp,-120,-120,122.bmp,120,-120,123.bmp,-120,120,124.bmp,120,120,8930.09999999404,835027.200000003,7079,yes,SM,A,123.bmp,-120,120,284158,278137,286161,280144,838167.0,832135.0,840183.0,834152.0,58
2,0,1,0,0,42,test,1,1,m,Wed Mar 12 2025 12:55:07 GMT-0500 (Central Daylight Time),853573.0,O,m,1551,59,1,125.bmp,-120,-120,126.bmp,120,-120,127.bmp,-120,120,128.bmp,120,120,9612.29999999702,843960.700000003,7079,no,SM,A,128.bmp,120,-120,284158,278137,286161,280144,847096.0,841069.0,849113.0,843082.0,59
1,1,0,0,0,42,test,1,0,z,Wed Mar 12 2025 12:55:07 GMT-0500 (Central Daylight Time),862734.299999997,O,m,1111,60,1,129.bmp,-120,-120,130.bmp,120,-120,131.bmp,-120,120,132.bmp,120,120,9158.0,853576.299999997,7079,yes,SM,A,129.bmp,-120,-120,284158,278137,286161,280144,856711.0,850685.0,858727.0,852695.0,60
2,0,1,0,0,42,test,1,0,z,Wed Mar 12 2025 12:55:07 GMT-0500 (Central Daylight Time),872447.900000006,O,m,1660,61,1,133.bmp,-120,-120,134.bmp,120,-120,135.bmp,-120,120,136.bmp,120,120,9709.40000000596,862738.5,7079,yes,SM,A,134.bmp,120,-120,284158,278137,286161,280144,865873.0,859847.0,867890.0,861859.0,61
4,0,0,0,1,42,test,1,0,z,Wed Mar 12 2025 12:55:07 GMT-0500 (Central Daylight Time),882011.799999997,O,m,1507,62,1,141.bmp,-120,-120,142.bmp,120,-120,143.bmp,-120,120,144.bmp,120,120,9561.09999999404,872450.700000003,7079,yes,SM,A,144.bmp,120,120,284158,278137,286161,280144,875587.0,869559.0,877603.0,871573.0,62
1,1,0,0,0,43,test,1,1,m,Wed Mar 12 2025 12:55:07 GMT-0500 (Central Daylight Time),891358.400000006,O,m,1297,63,1,145.bmp,-120,-120,146.bmp,120,-120,147.bmp,-120,120,148.bmp,120,120,9342.20000000298,882016.200000003,7079,no,SM,A,145.bmp,-120,120,284158,278137,286161,280144,885151.0,879124.0,887165.0,881137.0,63
2,0,1,0,0,44,test,1,1,z,Wed Mar 12 2025 12:55:07 GMT-0500 (Central Daylight Time),900089.799999997,O,z,686,64,1,149.bmp,-120,-120,150.bmp,120,-120,112.bmp,-120,120,101.bmp,120,120,8726.5,891363.299999997,7079,yes,SM,A,150.bmp,120,-120,284158,278137,286161,280144,894500.0,888472.0,896512.0,890485.0,64
4,0,0,0,1,45,test,1,1,m,Wed Mar 12 2025 12:55:07 GMT-0500 (Central Daylight Time),909136.200000003,O,m,982,65,1,102.bmp,-120,-120,103.bmp,120,-120,104.bmp,-120,120,105.bmp,120,120,9042.10000000894,900094.099999994,7079,no,SM,A,104.bmp,120,120,284158,278137,286161,280144,903230.0,897203.0,905247.0,899215.0,65
3,0,0,1,0,46,test,1,1,m,Wed Mar 12 2025 12:55:07 GMT-0500 (Central Daylight Time),918765.400000006,O,m,1577,66,1,106.bmp,-120,-120,107.bmp,120,-120,108.bmp,-120,120,109.bmp,120,120,9626.60000000894,909138.799999997,7079,no,SM,A,109.bmp,-120,120,284158,278137,286161,280144,912276.0,906247.0,914293.0,908259.0,66
2,0,1,0,0,47,test,1,1,m,Wed Mar 12 2025 12:55:07 GMT-0500 (Central Daylight Time),927929.200000003,O,m,1097,67,1,137.bmp,-120,-120,138.bmp,120,-120,139.bmp,-120,120,140.bmp,120,120,9159.10000000894,918770.099999994,7079,no,SM,A,139.bmp,120,-120,284158,278137,286161,280144,921906.0,915878.0,923924.0,917892.0,67
3,0,0,1,0,48,test,1,1,z,Wed Mar 12 2025 12:55:07 GMT-0500 (Central Daylight Time),936678.0,O,z,686,68,1,110.bmp,-120,-120,111.bmp,120,-120,112.bmp,-120,120,113.bmp,120,120,8745.0,927933.0,7079,yes,SM,A,112.bmp,-120,120,284158,278137,286161,280144,931070.0,925041.0,933087.0,927055.0,68
1,1,0,0,0,49,test,1,1,m,Wed Mar 12 2025 12:55:07 GMT-0500 (Central Daylight Time),946506.599999994,O,m,1773,69,1,114.bmp,-120,-120,115.bmp,120,-120,116.bmp,-120,120,117.bmp,120,120,9825.29999999702,936681.299999997,7079,no,SM,A,115.bmp,-120,-120,284158,278137,286161,280144,939817.0,933790.0,941833.0,935802.0,69
2,0,1,0,0,50,test,1,1,m,Wed Mar 12 2025 12:55:07 GMT-0500 (Central Daylight Time),955636.599999994,O,m,1085,70,1,118.bmp,-120,-120,119.bmp,120,-120,120.bmp,-120,120,121.bmp,120,120,9125.59999999404,946511.0,7079,no,SM,A,120.bmp,120,-120,284158,278137,286161,280144,949632.0,943619.0,951648.0,945631.0,70
4,0,0,0,1,50,test,1,0,z,Wed Mar 12 2025 12:55:07 GMT-0500 (Central Daylight Time),964567.400000006,O,m,867,71,1,122.bmp,-120,-120,123.bmp,120,-120,124.bmp,-120,120,125.bmp,120,120,8929.0,955638.400000006,7079,yes,SM,A,125.bmp,120,120,284158,278137,286161,280144,958779.0,952747.0,960795.0,954763.0,71
1,1,0,0,0,51,test,1,1,z,Wed Mar 12 2025 12:55:07 GMT-0500 (Central Daylight Time),973250.0,O,z,634,72,1,126.bmp,-120,-120,127.bmp,120,-120,128.bmp,-120,120,129.bmp,120,120,8679.09999999404,964570.900000006,7079,yes,SM,A,126.bmp,-120,-120,284158,278137,286161,280144,967709.0,961679.0,969724.0,963693.0,72
2,0,1,0,0,52,test,1,1,z,Wed Mar 12 2025 12:55:07 GMT-0500 (Central Daylight Time),982195.299999997,O,z,888,73,1,130.bmp,-120,-120,131.bmp,120,-120,132.bmp,-120,120,133.bmp,120,120,8941.20000000298,973254.099999994,7079,yes,SM,A,131.bmp,120,-120,284158,278137,286161,280144,976388.0,970362.0,978406.0,972375.0,73
4,0,0,0,1,53,test,1,1,m,Wed Mar 12 2025 12:55:07 GMT-0500 (Central Daylight Time),991076.900000006,O,m,822,74,1,134.bmp,-120,-120,135.bmp,120,-120,136.bmp,-120,120,137.bmp,120,120,8877.800000011921,982199.099999994,7079,no,SM,A,136.bmp,120,120,284158,278137,286161,280144,985337.0,979307.0,987352.0,981324.0,74
2,0,1,0,0,54,test,1,1,m,Wed Mar 12 2025 12:55:07 GMT-0500 (Central Daylight Time),1000259.0,O,m,1125,75,1,138.bmp,-120,-120,139.bmp,120,-120,140.bmp,-120,120,141.bmp,120,120,9178.79999999702,991080.200000003,7079,no,SM,A,141.bmp,120,-120,284158,278137,286161,280144,994216.0,988188.0,996233.0,990202.0,75
1,1,0,0,0,55,test,1,1,z,Wed Mar 12 2025 12:55:07 GMT-0500 (Central Daylight Time),1010237.0,O,z,1919,76,1,142.bmp,-120,-120,143.bmp,120,-120,144.bmp,-120,120,145.bmp,120,120,9974.59999999404,1000262.400000006,7079,yes,SM,A,142.bmp,-120,-120,284158,278137,286161,280144,1003398.0,997371.0,1005414.0,999383.0,76
3,0,0,1,0,56,test,1,1,z,Wed Mar 12 2025 12:55:07 GMT-0500 (Central Daylight Time),1019883.5,O,z,1589,77,1,150.bmp,-120,-120,111.bmp,120,-120,101.bmp,-120,120,102.bmp,120,120,9643.59999999404,1010239.900000006,7079,yes,SM,A,101.bmp,-120,120,284158,278137,286161,280144,1013377.0,1007348.0,1015393.0,1009361.0,77
1,1,0,0,0,56,test,1,0,m,Wed Mar 12 2025 12:55:07 GMT-0500 (Central Daylight Time),1028581.799999997,O,z,636,78,1,146.bmp,-120,-120,147.bmp,120,-120,148.bmp,-120,120,149.bmp,120,120,8695.0,1019886.799999997,7079,no,SM,A,147.bmp,-120,-120,284158,278137,286161,280144,1023024.0,1016995.0,1025041.0,1019009.0,78
4,0,0,0,1,57,test,1,1,m,Wed Mar 12 2025 12:55:07 GMT-0500 (Central Daylight Time),1037760.5,O,m,1123,79,1,107.bmp,-120,-120,108.bmp,120,-120,109.bmp,-120,120,110.bmp,120,120,9174.90000000596,1028585.599999994,7079,no,SM,A,107.bmp,120,120,284158,278137,286161,280144,1031723.0,1025694.0,1033738.0,1027706.0,79
3,0,0,1,0,58,test,1,1,m,Wed Mar 12 2025 12:55:07 GMT-0500 (Central Daylight Time),1046678.599999994,O,m,867,80,1,103.bmp,-120,-120,104.bmp,120,-120,105.bmp,-120,120,106.bmp,120,120,8914.39999999106,1037764.200000003,7079,no,SM,A,106.bmp,-120,120,284158,278137,286161,280144,1040903.0,1034872.0,1042919.0,1036887.0,80
