acc_sum,block,block_c,block_cond,con_img,correct,correct_response,datetime,endtime,face,jitter,line,project,response,response_time,row_sel,session_number,start_end,starttime,subject_id,task,task_vers,trial
0,prac,1,A,haborder.png,0,m,Thu Apr 10 2025 17:42:01 GMT-0500 (Central Daylight Time),53039.89999999991,CFD-WM-028-005-HC.jpg,1400,solid,O,None,1516,7,1,3698.399999999907,49341.5,7109,ATS,C,1
1,prac,1,A,haborder.png,1,z,Thu Apr 10 2025 17:42:01 GMT-0500 (Central Daylight Time),55640.10000000009,CFD-BF-031-020-A.jpg,1000,solid,O,z,817,4,1,6298.600000000093,49341.5,7109,ATS,C,2
2,prac,1,A,haborder.png,1,m,Thu Apr 10 2025 17:42:01 GMT-0500 (Central Daylight Time),58955.0,CFD-BM-034-035-HC.jpg,1700,solid,O,m,821,1,1,9613.5,49341.5,7109,ATS,C,3
3,prac,1,A,haborder.png,1,z,Thu Apr 10 2025 17:42:01 GMT-0500 (Central Daylight Time),61953.89999999991,CFD-WF-037-016-A.jpg,1600,solid,O,z,598,10,1,12612.399999999907,49341.5,7109,ATS,C,4
4,prac,1,A,haborder.png,1,m,Thu Apr 10 2025 17:42:01 GMT-0500 (Central Daylight Time),64987.299999999814,CFD-WF-013-009-HC.jpg,1500,solid,O,m,737,11,1,15645.799999999814,49341.5,7109,ATS,C,5
5,prac,1,A,haborder.png,1,z,Thu Apr 10 2025 17:42:01 GMT-0500 (Central Daylight Time),67869.70000000019,CFD-BM-043-014-A.jpg,1600,solid,O,z,493,2,1,18528.200000000186,49341.5,7109,ATS,C,6
6,prac,1,A,haborder.png,1,z,Thu Apr 10 2025 17:42:01 GMT-0500 (Central Daylight Time),70353.20000000019,CFD-WF-023-013-A.jpg,1000,solid,O,z,690,12,1,21011.700000000186,49341.5,7109,ATS,C,7
7,prac,1,A,haborder.png,1,m,Thu Apr 10 2025 17:42:01 GMT-0500 (Central Daylight Time),73785.6000000001,CFD-WM-035-036-HC.jpg,1700,solid,O,m,934,9,1,24444.100000000093,49341.5,7109,ATS,C,8
8,prac,1,A,haborder.png,1,m,Thu Apr 10 2025 17:42:01 GMT-0500 (Central Daylight Time),76684.70000000019,CFD-BM-022-004-HC.jpg,1500,solid,O,m,605,3,1,27343.200000000186,49341.5,7109,ATS,C,9
9,prac,1,A,haborder.png,1,z,Thu Apr 10 2025 17:42:01 GMT-0500 (Central Daylight Time),79314.8999999999,CFD-BF-002-018-A.jpg,1200,solid,O,z,659,6,1,29973.399999999907,49341.5,7109,ATS,C,10
10,prac,1,A,haborder.png,1,z,Thu Apr 10 2025 17:42:01 GMT-0500 (Central Daylight Time),82815.5,CFD-WM-036-018-A.jpg,1900,solid,O,z,800,8,1,33474.0,49341.5,7109,ATS,C,11
10,prac,1,A,haborder.png,0,m,Thu Apr 10 2025 17:42:01 GMT-0500 (Central Daylight Time),87113.0,CFD-BF-019-004-HC.jpg,2000,solid,O,None,1517,5,1,37771.5,49341.5,7109,ATS,C,12
1,prac,1,B,mfborder.png,1,z,Thu Apr 10 2025 17:42:01 GMT-0500 (Central Daylight Time),106641.1000000001,CFD-BF-042-031-HC.jpg,1500,3,O,z,957,dash,1,3234.399999999907,103406.70000000019,7109,ATS,C,1
2,prac,1,B,mfborder.png,1,m,Thu Apr 10 2025 17:42:01 GMT-0500 (Central Daylight Time),109374.0,CFD-WM-034-040-A.jpg,1200,6,O,m,743,dash,1,5967.299999999814,103406.70000000019,7109,ATS,C,2
3,prac,1,B,mfborder.png,1,m,Thu Apr 10 2025 17:42:01 GMT-0500 (Central Daylight Time),112605.79999999981,CFD-BM-022-004-HC.jpg,1700,1,O,m,751,dash,1,9199.099999999627,103406.70000000019,7109,ATS,C,3
4,prac,1,B,mfborder.png,1,z,Thu Apr 10 2025 17:42:01 GMT-0500 (Central Daylight Time),115371.0,CFD-WF-013-009-HC.jpg,1000,12,O,z,972,dash,1,11964.299999999814,103406.70000000019,7109,ATS,C,4
5,prac,1,B,mfborder.png,1,m,Thu Apr 10 2025 17:42:01 GMT-0500 (Central Daylight Time),118833.79999999981,CFD-WM-036-018-A.jpg,1700,9,O,m,954,dash,1,15427.099999999627,103406.70000000019,7109,ATS,C,5
6,prac,1,B,mfborder.png,1,z,Thu Apr 10 2025 17:42:01 GMT-0500 (Central Daylight Time),122219.20000000019,CFD-BF-019-004-HC.jpg,1400,7,O,z,1213,dash,1,18812.5,103406.70000000019,7109,ATS,C,6
7,prac,1,B,mfborder.png,1,z,Thu Apr 10 2025 17:42:01 GMT-0500 (Central Daylight Time),125848.5,CFD-WF-001-010-HC.jpg,1900,8,O,z,949,dash,1,22441.799999999814,103406.70000000019,7109,ATS,C,7
8,prac,1,B,mfborder.png,1,m,Thu Apr 10 2025 17:42:01 GMT-0500 (Central Daylight Time),129133.29999999981,CFD-WM-035-036-HC.jpg,1600,10,O,m,901,dash,1,25726.599999999627,103406.70000000019,7109,ATS,C,8
9,prac,1,B,mfborder.png,1,z,Thu Apr 10 2025 17:42:01 GMT-0500 (Central Daylight Time),132430.1000000001,CFD-WF-037-016-A.jpg,1500,11,O,z,998,dash,1,29023.399999999907,103406.70000000019,7109,ATS,C,9
10,prac,1,B,mfborder.png,1,m,Thu Apr 10 2025 17:42:01 GMT-0500 (Central Daylight Time),136048.7999999998,CFD-BM-043-014-A.jpg,2000,5,O,m,818,dash,1,32642.099999999627,103406.70000000019,7109,ATS,C,10
11,prac,1,B,mfborder.png,1,m,Thu Apr 10 2025 17:42:01 GMT-0500 (Central Daylight Time),139365.2999999998,CFD-BM-021-026-A.jpg,1600,2,O,m,914,dash,1,35958.59999999963,103406.70000000019,7109,ATS,C,11
12,prac,1,B,mfborder.png,1,z,Thu Apr 10 2025 17:42:01 GMT-0500 (Central Daylight Time),142011.5,CFD-BF-031-020-A.jpg,1000,4,O,z,853,dash,1,38604.799999999814,103406.70000000019,7109,ATS,C,12
1,test,1,A,haborder.png,1,z,Thu Apr 10 2025 17:42:01 GMT-0500 (Central Daylight Time),160606.2999999998,CFD-BF-031-020-A.jpg,1000,solid,O,z,759,4,1,1798.5,158807.7999999998,7109,ATS,C,1
2,test,1,A,haborder.png,1,z,Thu Apr 10 2025 17:42:01 GMT-0500 (Central Daylight Time),162522.0,CFD-WF-023-013-A.jpg,1000,solid,O,z,891,12,1,3714.2000000001863,158807.7999999998,7109,ATS,C,2
3,test,1,A,haborder.png,1,z,Thu Apr 10 2025 17:42:01 GMT-0500 (Central Daylight Time),164853.5,CFD-WF-037-016-A.jpg,1600,solid,O,z,710,10,1,6045.700000000186,158807.7999999998,7109,ATS,C,3
4,test,1,A,haborder.png,1,z,Thu Apr 10 2025 17:42:01 GMT-0500 (Central Daylight Time),166687.8999999999,CFD-BF-002-018-A.jpg,1200,solid,O,z,602,6,1,7880.100000000093,158807.7999999998,7109,ATS,C,4
5,test,1,A,haborder.png,1,z,Thu Apr 10 2025 17:42:01 GMT-0500 (Central Daylight Time),169037.3999999999,CFD-BM-043-014-A.jpg,1600,solid,O,z,716,2,1,10229.600000000093,158807.7999999998,7109,ATS,C,5
6,test,1,A,haborder.png,1,m,Thu Apr 10 2025 17:42:01 GMT-0500 (Central Daylight Time),171019.6000000001,CFD-WM-028-005-HC.jpg,1400,solid,O,m,556,7,1,12211.80000000028,158807.7999999998,7109,ATS,C,6
7,test,1,A,haborder.png,1,z,Thu Apr 10 2025 17:42:01 GMT-0500 (Central Daylight Time),172717.7000000002,CFD-BF-031-020-A.jpg,1000,solid,O,z,669,4,1,13909.900000000373,158807.7999999998,7109,ATS,C,7
8,test,1,A,haborder.png,1,m,Thu Apr 10 2025 17:42:01 GMT-0500 (Central Daylight Time),175099.8999999999,CFD-BM-034-035-HC.jpg,1700,solid,O,m,648,1,1,16292.100000000093,158807.7999999998,7109,ATS,C,8
9,test,1,A,haborder.png,1,m,Thu Apr 10 2025 17:42:01 GMT-0500 (Central Daylight Time),177299.7000000002,CFD-WM-028-005-HC.jpg,1400,solid,O,m,765,7,1,18491.900000000373,158807.7999999998,7109,ATS,C,9
10,test,1,A,haborder.png,1,z,Thu Apr 10 2025 17:42:01 GMT-0500 (Central Daylight Time),179550.2999999998,CFD-WF-037-016-A.jpg,1600,solid,O,z,618,10,1,20742.5,158807.7999999998,7109,ATS,C,10
11,test,1,A,haborder.png,1,m,Thu Apr 10 2025 17:42:01 GMT-0500 (Central Daylight Time),181715.0,CFD-BM-022-004-HC.jpg,1500,solid,O,m,648,3,1,22907.200000000186,158807.7999999998,7109,ATS,C,11
12,test,1,A,haborder.png,1,m,Thu Apr 10 2025 17:42:01 GMT-0500 (Central Daylight Time),183865.0,CFD-BM-022-004-HC.jpg,1500,solid,O,m,622,3,1,25057.200000000186,158807.7999999998,7109,ATS,C,12
13,test,1,A,haborder.png,1,m,Thu Apr 10 2025 17:42:01 GMT-0500 (Central Daylight Time),186049.1000000001,CFD-BM-034-035-HC.jpg,1700,solid,O,m,457,1,1,27241.30000000028,158807.7999999998,7109,ATS,C,13
14,test,1,A,haborder.png,1,z,Thu Apr 10 2025 17:42:01 GMT-0500 (Central Daylight Time),187830.3999999999,CFD-WF-023-013-A.jpg,1000,solid,O,z,760,12,1,29022.600000000093,158807.7999999998,7109,ATS,C,14
15,test,1,A,haborder.png,1,m,Thu Apr 10 2025 17:42:01 GMT-0500 (Central Daylight Time),190380.2000000002,CFD-WF-013-009-HC.jpg,1500,solid,O,m,1021,11,1,31572.400000000373,158807.7999999998,7109,ATS,C,15
16,test,1,A,haborder.png,1,m,Thu Apr 10 2025 17:42:01 GMT-0500 (Central Daylight Time),193179.0,CFD-BF-019-004-HC.jpg,2000,solid,O,m,776,5,1,34371.200000000186,158807.7999999998,7109,ATS,C,16
17,test,1,A,haborder.png,1,z,Thu Apr 10 2025 17:42:01 GMT-0500 (Central Daylight Time),195828.5,CFD-BM-043-014-A.jpg,1600,solid,O,z,1013,2,1,37020.700000000186,158807.7999999998,7109,ATS,C,17
18,test,1,A,haborder.png,1,z,Thu Apr 10 2025 17:42:01 GMT-0500 (Central Daylight Time),198326.6000000001,CFD-BF-002-018-A.jpg,1200,solid,O,z,1276,6,1,39518.80000000028,158807.7999999998,7109,ATS,C,18
19,test,1,A,haborder.png,1,m,Thu Apr 10 2025 17:42:01 GMT-0500 (Central Daylight Time),200492.5,CFD-WF-013-009-HC.jpg,1500,solid,O,m,647,11,1,41684.700000000186,158807.7999999998,7109,ATS,C,19
20,test,1,A,haborder.png,1,m,Thu Apr 10 2025 17:42:01 GMT-0500 (Central Daylight Time),202925.2000000002,CFD-WM-035-036-HC.jpg,1700,solid,O,m,712,9,1,44117.40000000037,158807.7999999998,7109,ATS,C,20
21,test,1,A,haborder.png,1,m,Thu Apr 10 2025 17:42:01 GMT-0500 (Central Daylight Time),205357.2000000002,CFD-WM-035-036-HC.jpg,1700,solid,O,m,703,9,1,46549.40000000037,158807.7999999998,7109,ATS,C,21
21,test,1,A,haborder.png,0,z,Thu Apr 10 2025 17:42:01 GMT-0500 (Central Daylight Time),208790.6000000001,CFD-WM-036-018-A.jpg,1900,solid,O,None,1514,8,1,49982.80000000028,158807.7999999998,7109,ATS,C,22
21,test,1,A,haborder.png,0,m,Thu Apr 10 2025 17:42:01 GMT-0500 (Central Daylight Time),211073.8999999999,CFD-BF-019-004-HC.jpg,2000,solid,O,z,258,5,1,52266.10000000009,158807.7999999998,7109,ATS,C,23
22,test,1,A,haborder.png,1,z,Thu Apr 10 2025 17:42:01 GMT-0500 (Central Daylight Time),213989.2999999998,CFD-WM-036-018-A.jpg,1900,solid,O,z,987,8,1,55181.5,158807.7999999998,7109,ATS,C,24
1,test,1,B,mfborder.png,1,m,Thu Apr 10 2025 17:42:01 GMT-0500 (Central Daylight Time),231916.0,CFD-WM-036-018-A.jpg,1700,dash,O,m,746,9,1,2482.100000000093,229433.8999999999,7109,ATS,C,1
2,test,1,B,mfborder.png,1,m,Thu Apr 10 2025 17:42:01 GMT-0500 (Central Daylight Time),234198.8999999999,CFD-BM-022-004-HC.jpg,1700,dash,O,m,559,1,1,4765.0,229433.8999999999,7109,ATS,C,2
3,test,1,B,mfborder.png,1,z,Thu Apr 10 2025 17:42:01 GMT-0500 (Central Daylight Time),236465.2000000002,CFD-BF-042-031-HC.jpg,1500,dash,O,z,741,3,1,7031.300000000279,229433.8999999999,7109,ATS,C,3
4,test,1,B,mfborder.png,1,m,Thu Apr 10 2025 17:42:01 GMT-0500 (Central Daylight Time),239114.1000000001,CFD-BM-043-014-A.jpg,2000,dash,O,m,622,5,1,9680.200000000186,229433.8999999999,7109,ATS,C,4
5,test,1,B,mfborder.png,1,m,Thu Apr 10 2025 17:42:01 GMT-0500 (Central Daylight Time),241263.7000000002,CFD-WM-035-036-HC.jpg,1600,dash,O,m,517,10,1,11829.80000000028,229433.8999999999,7109,ATS,C,5
6,test,1,B,mfborder.png,1,z,Thu Apr 10 2025 17:42:01 GMT-0500 (Central Daylight Time),243063.0,CFD-BF-031-020-A.jpg,1000,dash,O,z,768,4,1,13629.100000000093,229433.8999999999,7109,ATS,C,6
7,test,1,B,mfborder.png,1,z,Thu Apr 10 2025 17:42:01 GMT-0500 (Central Daylight Time),245962.8999999999,CFD-WF-001-010-HC.jpg,1900,dash,O,z,973,8,1,16529.0,229433.8999999999,7109,ATS,C,7
8,test,1,B,mfborder.png,1,m,Thu Apr 10 2025 17:42:01 GMT-0500 (Central Daylight Time),248144.6000000001,CFD-BM-021-026-A.jpg,1600,dash,O,m,549,2,1,18710.700000000186,229433.8999999999,7109,ATS,C,8
9,test,1,B,mfborder.png,1,z,Thu Apr 10 2025 17:42:01 GMT-0500 (Central Daylight Time),249745.2999999998,CFD-WF-013-009-HC.jpg,1000,dash,O,z,576,12,1,20311.399999999907,229433.8999999999,7109,ATS,C,9
10,test,1,B,mfborder.png,1,m,Thu Apr 10 2025 17:42:01 GMT-0500 (Central Daylight Time),252175.7999999998,CFD-WM-036-018-A.jpg,1700,dash,O,m,699,9,1,22741.899999999907,229433.8999999999,7109,ATS,C,10
11,test,1,B,mfborder.png,1,z,Thu Apr 10 2025 17:42:01 GMT-0500 (Central Daylight Time),254492.3999999999,CFD-BF-019-004-HC.jpg,1400,dash,O,z,896,7,1,25058.5,229433.8999999999,7109,ATS,C,11
12,test,1,B,mfborder.png,1,z,Thu Apr 10 2025 17:42:01 GMT-0500 (Central Daylight Time),257441.7999999998,CFD-WF-001-010-HC.jpg,1900,dash,O,z,1023,8,1,28007.899999999907,229433.8999999999,7109,ATS,C,12
13,test,1,B,mfborder.png,1,z,Thu Apr 10 2025 17:42:01 GMT-0500 (Central Daylight Time),259224.7000000002,CFD-BF-031-020-A.jpg,1000,dash,O,z,757,4,1,29790.80000000028,229433.8999999999,7109,ATS,C,13
14,test,1,B,mfborder.png,1,m,Thu Apr 10 2025 17:42:01 GMT-0500 (Central Daylight Time),261640.7000000002,CFD-BM-022-004-HC.jpg,1700,dash,O,m,682,1,1,32206.80000000028,229433.8999999999,7109,ATS,C,14
15,test,1,B,mfborder.png,1,z,Thu Apr 10 2025 17:42:01 GMT-0500 (Central Daylight Time),263909.0,CFD-BF-019-004-HC.jpg,1400,dash,O,z,850,7,1,34475.10000000009,229433.8999999999,7109,ATS,C,15
16,test,1,B,mfborder.png,1,m,Thu Apr 10 2025 17:42:01 GMT-0500 (Central Daylight Time),266056.5,CFD-BM-021-026-A.jpg,1600,dash,O,m,526,2,1,36622.60000000009,229433.8999999999,7109,ATS,C,16
17,test,1,B,mfborder.png,1,z,Thu Apr 10 2025 17:42:01 GMT-0500 (Central Daylight Time),268289.5,CFD-WF-037-016-A.jpg,1500,dash,O,z,709,11,1,38855.60000000009,229433.8999999999,7109,ATS,C,17
18,test,1,B,mfborder.png,1,m,Thu Apr 10 2025 17:42:01 GMT-0500 (Central Daylight Time),270054.2999999998,CFD-WM-034-040-A.jpg,1200,dash,O,m,535,6,1,40620.39999999991,229433.8999999999,7109,ATS,C,18
19,test,1,B,mfborder.png,1,z,Thu Apr 10 2025 17:42:01 GMT-0500 (Central Daylight Time),271921.5,CFD-WF-013-009-HC.jpg,1000,dash,O,z,841,12,1,42487.60000000009,229433.8999999999,7109,ATS,C,19
20,test,1,B,mfborder.png,1,m,Thu Apr 10 2025 17:42:01 GMT-0500 (Central Daylight Time),273653.0,CFD-WM-034-040-A.jpg,1200,dash,O,m,509,6,1,44219.10000000009,229433.8999999999,7109,ATS,C,20
21,test,1,B,mfborder.png,1,m,Thu Apr 10 2025 17:42:01 GMT-0500 (Central Daylight Time),276353.3999999999,CFD-BM-043-014-A.jpg,2000,dash,O,m,667,5,1,46919.5,229433.8999999999,7109,ATS,C,21
22,test,1,B,mfborder.png,1,z,Thu Apr 10 2025 17:42:01 GMT-0500 (Central Daylight Time),278519.2999999998,CFD-BF-042-031-HC.jpg,1500,dash,O,z,643,3,1,49085.39999999991,229433.8999999999,7109,ATS,C,22
23,test,1,B,mfborder.png,1,z,Thu Apr 10 2025 17:42:01 GMT-0500 (Central Daylight Time),280684.7999999998,CFD-WF-037-016-A.jpg,1500,dash,O,z,637,11,1,51250.89999999991,229433.8999999999,7109,ATS,C,23
24,test,1,B,mfborder.png,1,m,Thu Apr 10 2025 17:42:01 GMT-0500 (Central Daylight Time),282951.2999999998,CFD-WM-035-036-HC.jpg,1600,dash,O,m,643,10,1,53517.39999999991,229433.8999999999,7109,ATS,C,24
1,prac,1,C,mfborder.png,1,m,Thu Apr 10 2025 17:42:01 GMT-0500 (Central Daylight Time),308893.2999999998,CFD-BM-043-014-A.jpg,1200,dash,O,m,1318,10,1,3319.0,305574.2999999998,7109,ATS,C,1
1,prac,1,C,haborder.png,0,m,Thu Apr 10 2025 17:42:01 GMT-0500 (Central Daylight Time),312191.5,CFD-WM-028-005-HC.jpg,1000,dash,O,None,1514,10,1,6617.200000000186,305574.2999999998,7109,ATS,C,2
1,prac,1,C,haborder.png,0,z,Thu Apr 10 2025 17:42:01 GMT-0500 (Central Daylight Time),316388.6000000001,CFD-BF-031-020-A.jpg,1900,dash,O,None,1515,10,1,10814.30000000028,305574.2999999998,7109,ATS,C,3
2,prac,1,C,mfborder.png,1,z,Thu Apr 10 2025 17:42:01 GMT-0500 (Central Daylight Time),319738.6000000001,CFD-WF-013-009-HC.jpg,1600,dash,O,z,961,10,1,14164.30000000028,305574.2999999998,7109,ATS,C,4
3,prac,1,C,haborder.png,1,z,Thu Apr 10 2025 17:42:01 GMT-0500 (Central Daylight Time),323521.1000000001,CFD-WF-037-016-A.jpg,1600,dash,O,z,1401,10,1,17946.80000000028,305574.2999999998,7109,ATS,C,5
4,prac,1,C,haborder.png,1,m,Thu Apr 10 2025 17:42:01 GMT-0500 (Central Daylight Time),326769.6000000001,CFD-BM-022-004-HC.jpg,1500,solid,O,m,966,10,1,21195.30000000028,305574.2999999998,7109,ATS,C,6
5,prac,1,C,mfborder.png,1,z,Thu Apr 10 2025 17:42:01 GMT-0500 (Central Daylight Time),330386.6000000001,CFD-WF-023-013-A.jpg,1500,solid,O,z,1333,10,1,24812.30000000028,305574.2999999998,7109,ATS,C,7
5,prac,1,C,mfborder.png,0,m,Thu Apr 10 2025 17:42:01 GMT-0500 (Central Daylight Time),334667.2999999998,CFD-BM-034-035-HC.jpg,2000,solid,O,None,1514,10,1,29093.0,305574.2999999998,7109,ATS,C,8
6,prac,1,C,haborder.png,1,m,Thu Apr 10 2025 17:42:01 GMT-0500 (Central Daylight Time),337917.0,CFD-WM-028-005-HC.jpg,1400,solid,O,m,1053,10,1,32342.700000000186,305574.2999999998,7109,ATS,C,9
7,prac,1,C,haborder.png,1,z,Thu Apr 10 2025 17:42:01 GMT-0500 (Central Daylight Time),341482.8999999999,CFD-BF-002-018-A.jpg,1700,solid,O,z,1097,10,1,35908.60000000009,305574.2999999998,7109,ATS,C,10
8,prac,1,C,mfborder.png,1,z,Thu Apr 10 2025 17:42:01 GMT-0500 (Central Daylight Time),344480.8999999999,CFD-BF-019-004-HC.jpg,1000,dash,O,z,1206,10,1,38906.60000000009,305574.2999999998,7109,ATS,C,11
9,prac,1,C,mfborder.png,1,m,Thu Apr 10 2025 17:42:01 GMT-0500 (Central Daylight Time),347547.2999999998,CFD-WM-036-018-A.jpg,1700,solid,O,m,594,10,1,41973.0,305574.2999999998,7109,ATS,C,12
1,test,1,C,mfborder.png,1,z,Thu Apr 10 2025 17:42:01 GMT-0500 (Central Daylight Time),365190.8999999999,CFD-WF-037-016-A.jpg,1500,dash,O,z,1144,3,1,2665.2999999998137,362525.6000000001,7109,ATS,C,1
1,test,1,C,haborder.png,0,z,Thu Apr 10 2025 17:42:01 GMT-0500 (Central Daylight Time),368124.3999999999,CFD-WM-036-018-A.jpg,1400,solid,O,None,1509,7,1,5598.799999999814,362525.6000000001,7109,ATS,C,2
1,test,1,C,mfborder.png,0,m,Thu Apr 10 2025 17:42:01 GMT-0500 (Central Daylight Time),371656.0,CFD-WM-034-040-A.jpg,2000,dash,O,None,1516,5,1,9130.399999999907,362525.6000000001,7109,ATS,C,3
1,test,1,C,haborder.png,0,z,Thu Apr 10 2025 17:42:01 GMT-0500 (Central Daylight Time),374621.2000000002,CFD-BM-021-026-A.jpg,1700,solid,O,m,1236,9,1,12095.600000000093,362525.6000000001,7109,ATS,C,4
2,test,1,C,mfborder.png,1,z,Thu Apr 10 2025 17:42:01 GMT-0500 (Central Daylight Time),377370.0,CFD-BF-042-031-HC.jpg,1700,dash,O,z,1023,1,1,14844.399999999907,362525.6000000001,7109,ATS,C,5
2,test,1,C,haborder.png,0,m,Thu Apr 10 2025 17:42:01 GMT-0500 (Central Daylight Time),379885.3999999999,CFD-WF-001-010-HC.jpg,1500,solid,O,z,985,11,1,17359.799999999814,362525.6000000001,7109,ATS,C,6
2,test,1,C,mfborder.png,0,m,Thu Apr 10 2025 17:42:01 GMT-0500 (Central Daylight Time),382620.5,CFD-BM-022-004-HC.jpg,1200,dash,O,None,1517,6,1,20094.899999999907,362525.6000000001,7109,ATS,C,7
2,test,1,C,mfborder.png,0,m,Thu Apr 10 2025 17:42:01 GMT-0500 (Central Daylight Time),385151.3999999999,CFD-WM-035-036-HC.jpg,1000,dash,O,None,1515,4,1,22625.799999999814,362525.6000000001,7109,ATS,C,8
3,test,1,C,haborder.png,1,m,Thu Apr 10 2025 17:42:01 GMT-0500 (Central Daylight Time),386786.5,CFD-WF-013-009-HC.jpg,1000,solid,O,m,601,12,1,24260.899999999907,362525.6000000001,7109,ATS,C,9
4,test,1,C,mfborder.png,1,z,Thu Apr 10 2025 17:42:01 GMT-0500 (Central Daylight Time),389717.7000000002,CFD-BF-042-031-HC.jpg,1700,dash,O,z,1198,1,1,27192.100000000093,362525.6000000001,7109,ATS,C,10
5,test,1,C,mfborder.png,1,z,Thu Apr 10 2025 17:42:01 GMT-0500 (Central Daylight Time),392549.2999999998,CFD-BF-031-020-A.jpg,1600,dash,O,z,1203,2,1,30023.69999999972,362525.6000000001,7109,ATS,C,11
6,test,1,C,mfborder.png,1,z,Thu Apr 10 2025 17:42:01 GMT-0500 (Central Daylight Time),395047.6000000001,CFD-BF-031-020-A.jpg,1600,dash,O,z,868,2,1,32522.0,362525.6000000001,7109,ATS,C,12
7,test,1,C,mfborder.png,1,m,Thu Apr 10 2025 17:42:01 GMT-0500 (Central Daylight Time),398331.3999999999,CFD-WM-034-040-A.jpg,2000,dash,O,m,1266,5,1,35805.799999999814,362525.6000000001,7109,ATS,C,13
7,test,1,C,haborder.png,0,m,Thu Apr 10 2025 17:42:01 GMT-0500 (Central Daylight Time),401364.3999999999,CFD-WF-001-010-HC.jpg,1500,solid,O,None,1516,11,1,38838.799999999814,362525.6000000001,7109,ATS,C,14
8,test,1,C,haborder.png,1,m,Thu Apr 10 2025 17:42:01 GMT-0500 (Central Daylight Time),404160.6000000001,CFD-BF-019-004-HC.jpg,1600,solid,O,m,1181,10,1,41635.0,362525.6000000001,7109,ATS,C,15
8,test,1,C,mfborder.png,0,m,Thu Apr 10 2025 17:42:01 GMT-0500 (Central Daylight Time),406694.2999999998,CFD-WM-035-036-HC.jpg,1000,dash,O,None,1515,4,1,44168.69999999972,362525.6000000001,7109,ATS,C,16
9,test,1,C,haborder.png,1,m,Thu Apr 10 2025 17:42:01 GMT-0500 (Central Daylight Time),409093.3999999999,CFD-WF-013-009-HC.jpg,1000,solid,O,m,1381,12,1,46567.799999999814,362525.6000000001,7109,ATS,C,17
9,test,1,C,haborder.png,0,z,Thu Apr 10 2025 17:42:01 GMT-0500 (Central Daylight Time),412527.2000000002,CFD-BM-043-014-A.jpg,1900,solid,O,None,1516,8,1,50001.60000000009,362525.6000000001,7109,ATS,C,18
9,test,1,C,haborder.png,0,z,Thu Apr 10 2025 17:42:01 GMT-0500 (Central Daylight Time),415242.2999999998,CFD-BM-043-014-A.jpg,1900,solid,O,m,790,8,1,52716.69999999972,362525.6000000001,7109,ATS,C,19
10,test,1,C,mfborder.png,1,z,Thu Apr 10 2025 17:42:01 GMT-0500 (Central Daylight Time),417790.3999999999,CFD-WF-037-016-A.jpg,1500,dash,O,z,1027,3,1,55264.799999999814,362525.6000000001,7109,ATS,C,20
11,test,1,C,haborder.png,1,m,Thu Apr 10 2025 17:42:01 GMT-0500 (Central Daylight Time),420806.3999999999,CFD-BF-019-004-HC.jpg,1600,solid,O,m,1392,10,1,58280.799999999814,362525.6000000001,7109,ATS,C,21
11,test,1,C,mfborder.png,0,m,Thu Apr 10 2025 17:42:01 GMT-0500 (Central Daylight Time),423525.0,CFD-BM-022-004-HC.jpg,1200,dash,O,None,1501,6,1,60999.39999999991,362525.6000000001,7109,ATS,C,22
11,test,1,C,haborder.png,0,z,Thu Apr 10 2025 17:42:01 GMT-0500 (Central Daylight Time),426755.2000000002,CFD-BM-021-026-A.jpg,1700,solid,O,None,1516,9,1,64229.60000000009,362525.6000000001,7109,ATS,C,23
12,test,1,C,haborder.png,1,z,Thu Apr 10 2025 17:42:01 GMT-0500 (Central Daylight Time),429020.6000000001,CFD-WM-036-018-A.jpg,1400,solid,O,z,836,7,1,66495.0,362525.6000000001,7109,ATS,C,24
0,test,2,C,mfborder.png,0,z,Thu Apr 10 2025 17:42:01 GMT-0500 (Central Daylight Time),438201.2999999998,CFD-WF-023-013-A.jpg,1600,dash,O,None,1514,2,1,3131.7999999998137,435069.5,7109,ATS,C,1
1,test,2,C,haborder.png,1,z,Thu Apr 10 2025 17:42:01 GMT-0500 (Central Daylight Time),441184.1000000001,CFD-BF-002-018-A.jpg,1900,solid,O,z,1045,8,1,6114.600000000093,435069.5,7109,ATS,C,2
2,test,2,C,haborder.png,1,m,Thu Apr 10 2025 17:42:01 GMT-0500 (Central Daylight Time),443366.6000000001,CFD-WM-028-005-HC.jpg,1000,solid,O,m,1162,12,1,8297.100000000093,435069.5,7109,ATS,C,3
2,test,2,C,mfborder.png,0,m,Thu Apr 10 2025 17:42:01 GMT-0500 (Central Daylight Time),446098.7000000002,CFD-WM-036-018-A.jpg,1200,dash,O,None,1515,6,1,11029.200000000186,435069.5,7109,ATS,C,4
2,test,2,C,haborder.png,0,m,Thu Apr 10 2025 17:42:01 GMT-0500 (Central Daylight Time),449132.2000000002,CFD-WM-028-005-HC.jpg,1500,solid,O,None,1516,11,1,14062.700000000186,435069.5,7109,ATS,C,5
3,test,2,C,haborder.png,1,m,Thu Apr 10 2025 17:42:01 GMT-0500 (Central Daylight Time),451613.7000000002,CFD-BM-022-004-HC.jpg,1600,solid,O,m,862,10,1,16544.200000000186,435069.5,7109,ATS,C,6
4,test,2,C,mfborder.png,1,z,Thu Apr 10 2025 17:42:01 GMT-0500 (Central Daylight Time),454763.8999999999,CFD-WF-013-009-HC.jpg,1700,dash,O,z,1433,1,1,19694.399999999907,435069.5,7109,ATS,C,7
4,test,2,C,mfborder.png,0,z,Thu Apr 10 2025 17:42:01 GMT-0500 (Central Daylight Time),457795.7000000002,CFD-BF-019-004-HC.jpg,1500,dash,O,None,1507,3,1,22726.200000000186,435069.5,7109,ATS,C,8
5,test,2,C,haborder.png,1,m,Thu Apr 10 2025 17:42:01 GMT-0500 (Central Daylight Time),460162.0,CFD-WM-028-005-HC.jpg,1000,solid,O,m,1349,12,1,25092.5,435069.5,7109,ATS,C,9
6,test,2,C,haborder.png,1,z,Thu Apr 10 2025 17:42:01 GMT-0500 (Central Daylight Time),463075.3999999999,CFD-BF-031-020-A.jpg,1400,solid,O,z,1495,7,1,28005.899999999907,435069.5,7109,ATS,C,10
7,test,2,C,haborder.png,1,m,Thu Apr 10 2025 17:42:01 GMT-0500 (Central Daylight Time),465609.3999999999,CFD-WM-028-005-HC.jpg,1500,solid,O,m,999,11,1,30539.899999999907,435069.5,7109,ATS,C,11
7,test,2,C,haborder.png,0,z,Thu Apr 10 2025 17:42:01 GMT-0500 (Central Daylight Time),468843.0,CFD-BF-002-018-A.jpg,1900,solid,O,m,1316,8,1,33773.5,435069.5,7109,ATS,C,12
8,test,2,C,haborder.png,1,z,Thu Apr 10 2025 17:42:01 GMT-0500 (Central Daylight Time),471507.0,CFD-WF-037-016-A.jpg,1700,solid,O,z,939,9,1,36437.5,435069.5,7109,ATS,C,13
9,test,2,C,haborder.png,1,z,Thu Apr 10 2025 17:42:01 GMT-0500 (Central Daylight Time),473589.7999999998,CFD-BF-031-020-A.jpg,1400,solid,O,z,653,7,1,38520.299999999814,435069.5,7109,ATS,C,14
10,test,2,C,haborder.png,1,m,Thu Apr 10 2025 17:42:01 GMT-0500 (Central Daylight Time),475989.2999999998,CFD-BM-022-004-HC.jpg,1600,solid,O,m,771,10,1,40919.799999999814,435069.5,7109,ATS,C,15
11,test,2,C,mfborder.png,1,z,Thu Apr 10 2025 17:42:01 GMT-0500 (Central Daylight Time),479070.8999999999,CFD-WF-013-009-HC.jpg,1700,dash,O,z,1360,1,1,44001.39999999991,435069.5,7109,ATS,C,16
12,test,2,C,mfborder.png,1,m,Thu Apr 10 2025 17:42:01 GMT-0500 (Central Daylight Time),481504.0,CFD-BM-034-035-HC.jpg,1000,dash,O,m,1408,4,1,46434.5,435069.5,7109,ATS,C,17
13,test,2,C,mfborder.png,1,z,Thu Apr 10 2025 17:42:01 GMT-0500 (Central Daylight Time),484119.8999999999,CFD-WF-023-013-A.jpg,1600,dash,O,z,985,2,1,49050.39999999991,435069.5,7109,ATS,C,18
14,test,2,C,mfborder.png,1,m,Thu Apr 10 2025 17:42:01 GMT-0500 (Central Daylight Time),485834.0,CFD-BM-034-035-HC.jpg,1000,dash,O,m,689,4,1,50764.5,435069.5,7109,ATS,C,19
15,test,2,C,mfborder.png,1,m,Thu Apr 10 2025 17:42:01 GMT-0500 (Central Daylight Time),488385.7999999998,CFD-WM-036-018-A.jpg,1200,dash,O,m,1326,6,1,53316.299999999814,435069.5,7109,ATS,C,20
16,test,2,C,mfborder.png,1,z,Thu Apr 10 2025 17:42:01 GMT-0500 (Central Daylight Time),491101.2999999998,CFD-BF-019-004-HC.jpg,1500,dash,O,z,1189,3,1,56031.799999999814,435069.5,7109,ATS,C,21
17,test,2,C,mfborder.png,1,m,Thu Apr 10 2025 17:42:01 GMT-0500 (Central Daylight Time),493750.3999999999,CFD-BM-043-014-A.jpg,2000,dash,O,m,626,5,1,58680.89999999991,435069.5,7109,ATS,C,22
18,test,2,C,mfborder.png,1,m,Thu Apr 10 2025 17:42:01 GMT-0500 (Central Daylight Time),496499.5,CFD-BM-043-014-A.jpg,2000,dash,O,m,720,5,1,61430.0,435069.5,7109,ATS,C,23
18,test,2,C,haborder.png,0,z,Thu Apr 10 2025 17:42:01 GMT-0500 (Central Daylight Time),499715.7000000002,CFD-WF-037-016-A.jpg,1700,solid,O,None,1501,9,1,64646.200000000186,435069.5,7109,ATS,C,24
1,test,3,C,haborder.png,1,z,Thu Apr 10 2025 17:42:01 GMT-0500 (Central Daylight Time),507478.7999999998,CFD-BM-043-014-A.jpg,1900,solid,O,z,1236,8,1,3165.0999999996275,504313.7000000002,7109,ATS,C,1
1,test,3,C,mfborder.png,0,m,Thu Apr 10 2025 17:42:01 GMT-0500 (Central Daylight Time),510212.3999999999,CFD-BM-022-004-HC.jpg,1200,dash,O,None,1517,6,1,5898.699999999721,504313.7000000002,7109,ATS,C,2
1,test,3,C,haborder.png,0,z,Thu Apr 10 2025 17:42:01 GMT-0500 (Central Daylight Time),513444.8999999999,CFD-BM-021-026-A.jpg,1700,solid,O,None,1517,9,1,9131.19999999972,504313.7000000002,7109,ATS,C,3
2,test,3,C,haborder.png,1,m,Thu Apr 10 2025 17:42:01 GMT-0500 (Central Daylight Time),516126.5,CFD-BF-019-004-HC.jpg,1600,solid,O,m,1052,10,1,11812.799999999814,504313.7000000002,7109,ATS,C,4
3,test,3,C,mfborder.png,1,z,Thu Apr 10 2025 17:42:01 GMT-0500 (Central Daylight Time),519142.2999999998,CFD-BF-042-031-HC.jpg,1700,dash,O,z,1292,1,1,14828.599999999627,504313.7000000002,7109,ATS,C,5
4,test,3,C,haborder.png,1,m,Thu Apr 10 2025 17:42:01 GMT-0500 (Central Daylight Time),521793.6000000001,CFD-BF-019-004-HC.jpg,1600,solid,O,m,1034,10,1,17479.899999999907,504313.7000000002,7109,ATS,C,6
4,test,3,C,mfborder.png,0,m,Thu Apr 10 2025 17:42:01 GMT-0500 (Central Daylight Time),524323.5,CFD-WM-035-036-HC.jpg,1000,dash,O,None,1513,4,1,20009.799999999814,504313.7000000002,7109,ATS,C,7
4,test,3,C,mfborder.png,0,z,Thu Apr 10 2025 17:42:01 GMT-0500 (Central Daylight Time),527356.7000000002,CFD-WF-037-016-A.jpg,1500,dash,O,None,1518,3,1,23043.0,504313.7000000002,7109,ATS,C,8
5,test,3,C,mfborder.png,1,m,Thu Apr 10 2025 17:42:01 GMT-0500 (Central Daylight Time),530037.6000000001,CFD-BM-022-004-HC.jpg,1200,dash,O,m,1452,6,1,25723.899999999907,504313.7000000002,7109,ATS,C,9
6,test,3,C,mfborder.png,1,m,Thu Apr 10 2025 17:42:01 GMT-0500 (Central Daylight Time),531763.5,CFD-WM-035-036-HC.jpg,1000,dash,O,m,700,4,1,27449.799999999814,504313.7000000002,7109,ATS,C,10
6,test,3,C,haborder.png,0,m,Thu Apr 10 2025 17:42:01 GMT-0500 (Central Daylight Time),534288.0,CFD-WF-013-009-HC.jpg,1000,solid,O,None,1515,12,1,29974.299999999814,504313.7000000002,7109,ATS,C,11
7,test,3,C,haborder.png,1,m,Thu Apr 10 2025 17:42:01 GMT-0500 (Central Daylight Time),536103.5,CFD-WF-013-009-HC.jpg,1000,solid,O,m,784,12,1,31789.799999999814,504313.7000000002,7109,ATS,C,12
7,test,3,C,mfborder.png,0,z,Thu Apr 10 2025 17:42:01 GMT-0500 (Central Daylight Time),539134.3999999999,CFD-WF-037-016-A.jpg,1500,dash,O,None,1512,3,1,34820.69999999972,504313.7000000002,7109,ATS,C,13
7,test,3,C,haborder.png,0,z,Thu Apr 10 2025 17:42:01 GMT-0500 (Central Daylight Time),542569.1000000001,CFD-BM-043-014-A.jpg,1900,solid,O,None,1515,8,1,38255.39999999991,504313.7000000002,7109,ATS,C,14
7,test,3,C,mfborder.png,0,z,Thu Apr 10 2025 17:42:01 GMT-0500 (Central Daylight Time),545799.1000000001,CFD-BF-042-031-HC.jpg,1700,dash,O,None,1515,1,1,41485.39999999991,504313.7000000002,7109,ATS,C,15
8,test,3,C,haborder.png,1,m,Thu Apr 10 2025 17:42:01 GMT-0500 (Central Daylight Time),548482.8999999999,CFD-WF-001-010-HC.jpg,1500,solid,O,m,1156,11,1,44169.19999999972,504313.7000000002,7109,ATS,C,16
8,test,3,C,mfborder.png,0,m,Thu Apr 10 2025 17:42:01 GMT-0500 (Central Daylight Time),552014.3999999999,CFD-WM-034-040-A.jpg,2000,dash,O,None,1514,5,1,47700.69999999972,504313.7000000002,7109,ATS,C,17
8,test,3,C,haborder.png,0,z,Thu Apr 10 2025 17:42:01 GMT-0500 (Central Daylight Time),554946.2000000002,CFD-WM-036-018-A.jpg,1400,solid,O,None,1513,7,1,50632.5,504313.7000000002,7109,ATS,C,18
9,test,3,C,mfborder.png,1,m,Thu Apr 10 2025 17:42:01 GMT-0500 (Central Daylight Time),558462.6000000001,CFD-WM-034-040-A.jpg,2000,dash,O,m,1484,5,1,54148.89999999991,504313.7000000002,7109,ATS,C,19
10,test,3,C,mfborder.png,1,z,Thu Apr 10 2025 17:42:01 GMT-0500 (Central Daylight Time),560963.2000000002,CFD-BF-031-020-A.jpg,1600,dash,O,z,868,2,1,56649.5,504313.7000000002,7109,ATS,C,20
11,test,3,C,mfborder.png,1,z,Thu Apr 10 2025 17:42:01 GMT-0500 (Central Daylight Time),563260.7000000002,CFD-BF-031-020-A.jpg,1600,dash,O,z,671,2,1,58947.0,504313.7000000002,7109,ATS,C,21
11,test,3,C,haborder.png,0,z,Thu Apr 10 2025 17:42:01 GMT-0500 (Central Daylight Time),566195.1000000001,CFD-WM-036-018-A.jpg,1400,solid,O,None,1517,7,1,61881.39999999991,504313.7000000002,7109,ATS,C,22
12,test,3,C,haborder.png,1,z,Thu Apr 10 2025 17:42:01 GMT-0500 (Central Daylight Time),568798.7999999998,CFD-BM-021-026-A.jpg,1700,solid,O,z,874,9,1,64485.09999999963,504313.7000000002,7109,ATS,C,23
13,test,3,C,haborder.png,1,m,Thu Apr 10 2025 17:42:01 GMT-0500 (Central Daylight Time),571657.7999999998,CFD-WF-001-010-HC.jpg,1500,solid,O,m,1339,11,1,67344.09999999963,504313.7000000002,7109,ATS,C,24
0,test,4,C,mfborder.png,0,z,Thu Apr 10 2025 17:42:01 GMT-0500 (Central Daylight Time),577690.3999999999,CFD-WF-013-009-HC.jpg,1700,dash,O,None,1514,1,1,3231.5,574458.8999999999,7109,ATS,C,1
1,test,4,C,mfborder.png,1,z,Thu Apr 10 2025 17:42:01 GMT-0500 (Central Daylight Time),580241.6000000001,CFD-WF-023-013-A.jpg,1600,dash,O,z,926,2,1,5782.700000000186,574458.8999999999,7109,ATS,C,2
2,test,4,C,mfborder.png,1,z,Thu Apr 10 2025 17:42:01 GMT-0500 (Central Daylight Time),583028.3999999999,CFD-WF-013-009-HC.jpg,1700,dash,O,z,1063,1,1,8569.5,574458.8999999999,7109,ATS,C,3
3,test,4,C,mfborder.png,1,z,Thu Apr 10 2025 17:42:01 GMT-0500 (Central Daylight Time),585187.2000000002,CFD-BF-019-004-HC.jpg,1500,dash,O,z,638,3,1,10728.30000000028,574458.8999999999,7109,ATS,C,4
3,test,4,C,mfborder.png,0,m,Thu Apr 10 2025 17:42:01 GMT-0500 (Central Daylight Time),588704.8999999999,CFD-BM-043-014-A.jpg,2000,dash,O,None,1501,5,1,14246.0,574458.8999999999,7109,ATS,C,5
4,test,4,C,mfborder.png,1,z,Thu Apr 10 2025 17:42:01 GMT-0500 (Central Daylight Time),590919.1000000001,CFD-BF-019-004-HC.jpg,1500,dash,O,z,684,3,1,16460.200000000186,574458.8999999999,7109,ATS,C,6
5,test,4,C,mfborder.png,1,m,Thu Apr 10 2025 17:42:01 GMT-0500 (Central Daylight Time),592867.7000000002,CFD-WM-036-018-A.jpg,1200,dash,O,m,718,6,1,18408.80000000028,574458.8999999999,7109,ATS,C,7
5,test,4,C,haborder.png,0,m,Thu Apr 10 2025 17:42:01 GMT-0500 (Central Daylight Time),596000.7000000002,CFD-BM-022-004-HC.jpg,1600,solid,O,None,1514,10,1,21541.80000000028,574458.8999999999,7109,ATS,C,8
6,test,4,C,mfborder.png,1,m,Thu Apr 10 2025 17:42:01 GMT-0500 (Central Daylight Time),599381.5,CFD-BM-043-014-A.jpg,2000,dash,O,m,1352,5,1,24922.600000000093,574458.8999999999,7109,ATS,C,9
6,test,4,C,haborder.png,0,z,Thu Apr 10 2025 17:42:01 GMT-0500 (Central Daylight Time),602816.0,CFD-BF-002-018-A.jpg,1900,solid,O,None,1516,8,1,28357.100000000093,574458.8999999999,7109,ATS,C,10
7,test,4,C,haborder.png,1,z,Thu Apr 10 2025 17:42:01 GMT-0500 (Central Daylight Time),605863.7000000002,CFD-BF-002-018-A.jpg,1900,solid,O,z,1125,8,1,31404.80000000028,574458.8999999999,7109,ATS,C,11
7,test,4,C,haborder.png,0,z,Thu Apr 10 2025 17:42:01 GMT-0500 (Central Daylight Time),609099.1000000001,CFD-WF-037-016-A.jpg,1700,solid,O,None,1517,9,1,34640.200000000186,574458.8999999999,7109,ATS,C,12
8,test,4,C,haborder.png,1,m,Thu Apr 10 2025 17:42:01 GMT-0500 (Central Daylight Time),611564.3999999999,CFD-WM-028-005-HC.jpg,1500,solid,O,m,950,11,1,37105.5,574458.8999999999,7109,ATS,C,13
9,test,4,C,mfborder.png,1,m,Thu Apr 10 2025 17:42:01 GMT-0500 (Central Daylight Time),613895.6000000001,CFD-BM-034-035-HC.jpg,1000,dash,O,m,1308,4,1,39436.700000000186,574458.8999999999,7109,ATS,C,14
10,test,4,C,haborder.png,1,m,Thu Apr 10 2025 17:42:01 GMT-0500 (Central Daylight Time),616244.2999999998,CFD-WM-028-005-HC.jpg,1500,solid,O,m,832,11,1,41785.39999999991,574458.8999999999,7109,ATS,C,15
11,test,4,C,mfborder.png,1,m,Thu Apr 10 2025 17:42:01 GMT-0500 (Central Daylight Time),618744.6000000001,CFD-BM-034-035-HC.jpg,1000,dash,O,m,1468,4,1,44285.700000000186,574458.8999999999,7109,ATS,C,16
11,test,4,C,haborder.png,0,z,Thu Apr 10 2025 17:42:01 GMT-0500 (Central Daylight Time),621676.7000000002,CFD-BF-031-020-A.jpg,1400,solid,O,None,1515,7,1,47217.80000000028,574458.8999999999,7109,ATS,C,17
12,test,4,C,haborder.png,1,m,Thu Apr 10 2025 17:42:01 GMT-0500 (Central Daylight Time),623809.1000000001,CFD-WM-028-005-HC.jpg,1000,solid,O,m,1098,12,1,49350.200000000186,574458.8999999999,7109,ATS,C,18
13,test,4,C,haborder.png,1,z,Thu Apr 10 2025 17:42:01 GMT-0500 (Central Daylight Time),626491.2999999998,CFD-WF-037-016-A.jpg,1700,solid,O,z,956,9,1,52032.39999999991,574458.8999999999,7109,ATS,C,19
14,test,4,C,mfborder.png,1,m,Thu Apr 10 2025 17:42:01 GMT-0500 (Central Daylight Time),629108.2000000002,CFD-WM-036-018-A.jpg,1200,dash,O,m,1388,6,1,54649.30000000028,574458.8999999999,7109,ATS,C,20
15,test,4,C,mfborder.png,1,z,Thu Apr 10 2025 17:42:01 GMT-0500 (Central Daylight Time),632206.7000000002,CFD-WF-023-013-A.jpg,1600,dash,O,z,1469,2,1,57747.80000000028,574458.8999999999,7109,ATS,C,21
15,test,4,C,haborder.png,0,z,Thu Apr 10 2025 17:42:01 GMT-0500 (Central Daylight Time),635139.6000000001,CFD-BF-031-020-A.jpg,1400,solid,O,None,1515,7,1,60680.700000000186,574458.8999999999,7109,ATS,C,22
16,test,4,C,haborder.png,1,m,Thu Apr 10 2025 17:42:01 GMT-0500 (Central Daylight Time),637637.5,CFD-BM-022-004-HC.jpg,1600,solid,O,m,876,10,1,63178.60000000009,574458.8999999999,7109,ATS,C,23
17,test,4,C,haborder.png,1,m,Thu Apr 10 2025 17:42:01 GMT-0500 (Central Daylight Time),639390.1000000001,CFD-WM-028-005-HC.jpg,1000,solid,O,m,730,12,1,64931.200000000186,574458.8999999999,7109,ATS,C,24
