Number,acc_sum,block,block_c,block_cond,con_img,correct,correct_response,datetime,endtime,jitter,project,response,response_time,row_sel,session_number,start_end,starttime,subject_id,task,task_vers,trial
1,0,prac,1,A,circle.png,0,z,Fri Feb 28 2025 17:08:57 GMT-0600 (Central Standard Time),100645.30000001192,1000,O,None,1512,1,1,3277.399999976158,97367.90000003576,7064,NTS,A,1
3,0,prac,1,A,circle.png,0,z,Fri Feb 28 2025 17:08:57 GMT-0600 (Central Standard Time),104143.5,1200,O,None,1514,3,1,3488.599999964237,100654.90000003576,7064,NTS,A,2
4,0,prac,1,A,circle.png,0,z,Fri Feb 28 2025 17:08:57 GMT-0600 (Central Standard Time),107842.80000001192,1400,O,None,1514,4,1,3693.300000011921,104149.5,7064,NTS,A,3
4,0,prac,1,A,circle.png,0,z,Fri Feb 28 2025 17:08:57 GMT-0600 (Central Standard Time),111537.90000003576,1400,O,None,1512,4,1,3688.400000035763,107849.5,7064,NTS,A,4
6,0,prac,1,A,circle.png,0,m,Fri Feb 28 2025 17:08:57 GMT-0600 (Central Standard Time),115738.5,1900,O,None,1512,5,1,4188.5,111550.0,7064,NTS,A,5
6,0,prac,1,A,circle.png,0,m,Fri Feb 28 2025 17:08:57 GMT-0600 (Central Standard Time),119937.69999998808,1900,O,None,1514,5,1,4190.199999988079,115747.5,7064,NTS,A,6
8,0,prac,1,A,circle.png,0,m,Fri Feb 28 2025 17:08:57 GMT-0600 (Central Standard Time),123836.90000003576,1600,O,None,1516,7,1,3891.400000035763,119945.5,7064,NTS,A,7
3,0,prac,1,A,circle.png,0,z,Fri Feb 28 2025 17:08:57 GMT-0600 (Central Standard Time),127319.40000003576,1200,O,None,1513,3,1,3475.600000023842,123843.80000001192,7064,NTS,A,8
9,0,prac,1,A,circle.png,0,m,Fri Feb 28 2025 17:08:57 GMT-0600 (Central Standard Time),131118.40000003576,1500,O,None,1514,8,1,3791.0,127327.40000003576,7064,NTS,A,9
9,0,prac,1,A,circle.png,0,m,Fri Feb 28 2025 17:08:57 GMT-0600 (Central Standard Time),134916.60000002384,1500,O,None,1514,8,1,3791.600000023842,131125.0,7064,NTS,A,10
7,0,prac,1,A,circle.png,0,m,Fri Feb 28 2025 17:08:57 GMT-0600 (Central Standard Time),138917.0,1700,O,None,1514,6,1,3993.899999976158,134923.10000002384,7064,NTS,A,11
2,0,prac,1,A,circle.png,0,z,Fri Feb 28 2025 17:08:57 GMT-0600 (Central Standard Time),143215.90000003576,2000,O,None,1516,2,1,4291.800000011921,138924.10000002384,7064,NTS,A,12
3,0,prac,2,A,circle.png,0,z,Fri Feb 28 2025 17:08:57 GMT-0600 (Central Standard Time),192484.60000002384,1200,O,None,1515,3,1,3483.0,189001.60000002384,7064,NTS,A,1
2,1,prac,2,A,circle.png,1,z,Fri Feb 28 2025 17:08:57 GMT-0600 (Central Standard Time),195797.69999998808,2000,O,z,518,2,1,3307.0,192490.69999998808,7064,NTS,A,2
9,2,prac,2,A,circle.png,1,m,Fri Feb 28 2025 17:08:57 GMT-0600 (Central Standard Time),198830.10000002384,1500,O,m,759,8,1,3024.0,195806.10000002384,7064,NTS,A,3
7,3,prac,2,A,circle.png,1,m,Fri Feb 28 2025 17:08:57 GMT-0600 (Central Standard Time),202462.5,1700,O,m,1143,6,1,3627.199999988079,198835.30000001192,7064,NTS,A,4
7,4,prac,2,A,circle.png,1,m,Fri Feb 28 2025 17:08:57 GMT-0600 (Central Standard Time),205659.90000003576,1700,O,m,703,6,1,3190.2000000476837,202469.69999998808,7064,NTS,A,5
8,5,prac,2,A,circle.png,1,m,Fri Feb 28 2025 17:08:57 GMT-0600 (Central Standard Time),209026.10000002384,1600,O,m,981,7,1,3359.199999988079,205666.90000003576,7064,NTS,A,6
1,6,prac,2,A,circle.png,1,z,Fri Feb 28 2025 17:08:57 GMT-0600 (Central Standard Time),211694.60000002384,1000,O,z,894,1,1,2662.800000011921,209031.80000001192,7064,NTS,A,7
6,7,prac,2,A,circle.png,1,m,Fri Feb 28 2025 17:08:57 GMT-0600 (Central Standard Time),215574.60000002384,1900,O,m,1185,5,1,3872.600000023842,211702.0,7064,NTS,A,8
2,8,prac,2,A,circle.png,1,z,Fri Feb 28 2025 17:08:57 GMT-0600 (Central Standard Time),219257.30000001192,2000,O,z,898,2,1,3676.199999988079,215581.10000002384,7064,NTS,A,9
8,9,prac,2,A,circle.png,1,m,Fri Feb 28 2025 17:08:57 GMT-0600 (Central Standard Time),222689.19999998808,1600,O,m,1049,7,1,3424.2999999523163,219264.90000003576,7064,NTS,A,10
3,10,prac,2,A,circle.png,1,z,Fri Feb 28 2025 17:08:57 GMT-0600 (Central Standard Time),225604.80000001192,1200,O,z,931,3,1,2909.5,222695.30000001192,7064,NTS,A,11
4,10,prac,2,A,circle.png,0,z,Fri Feb 28 2025 17:08:57 GMT-0600 (Central Standard Time),229301.19999998808,1400,O,None,1515,4,1,3690.0,225611.19999998808,7064,NTS,A,12
2,1,prac,1,B,triangle.png,1,m,Fri Feb 28 2025 17:08:57 GMT-0600 (Central Standard Time),295632.5,1700,O,m,869,2,1,3358.699999988079,292273.8000000119,7064,NTS,A,1
6,2,prac,1,B,triangle.png,1,m,Fri Feb 28 2025 17:08:57 GMT-0600 (Central Standard Time),298100.10000002384,1000,O,m,698,5,1,2460.5,295639.60000002384,7064,NTS,A,2
2,3,prac,1,B,triangle.png,1,m,Fri Feb 28 2025 17:08:57 GMT-0600 (Central Standard Time),301295.6999999881,1700,O,m,706,2,1,3188.2999999523163,298107.40000003576,7064,NTS,A,3
9,4,prac,1,B,triangle.png,1,z,Fri Feb 28 2025 17:08:57 GMT-0600 (Central Standard Time),304745.90000003576,1400,O,z,1256,8,1,3446.400000035763,301299.5,7064,NTS,A,4
7,5,prac,1,B,triangle.png,1,z,Fri Feb 28 2025 17:08:57 GMT-0600 (Central Standard Time),308312.60000002384,2000,O,z,789,6,1,3558.699999988079,304753.90000003576,7064,NTS,A,5
4,6,prac,1,B,triangle.png,1,m,Fri Feb 28 2025 17:08:57 GMT-0600 (Central Standard Time),311311.60000002384,1500,O,m,717,4,1,2991.0,308320.60000002384,7064,NTS,A,6
8,7,prac,1,B,triangle.png,1,m,Fri Feb 28 2025 17:08:57 GMT-0600 (Central Standard Time),314475.1999999881,1200,O,m,1181,7,1,3159.7999999523163,311315.40000003576,7064,NTS,A,7
3,8,prac,1,B,triangle.png,1,z,Fri Feb 28 2025 17:08:57 GMT-0600 (Central Standard Time),317691.3000000119,1600,O,z,832,3,1,3208.699999988079,314482.60000002384,7064,NTS,A,8
6,8,prac,1,B,triangle.png,0,m,Fri Feb 28 2025 17:08:57 GMT-0600 (Central Standard Time),320974.40000003576,1000,O,None,1514,5,1,3276.900000035763,317697.5,7064,NTS,A,9
9,9,prac,1,B,triangle.png,1,z,Fri Feb 28 2025 17:08:57 GMT-0600 (Central Standard Time),324107.40000003576,1400,O,z,964,8,1,3125.900000035763,320981.5,7064,NTS,A,10
1,10,prac,1,B,triangle.png,1,z,Fri Feb 28 2025 17:08:57 GMT-0600 (Central Standard Time),327522.10000002384,1900,O,z,732,1,1,3408.800000011921,324113.3000000119,7064,NTS,A,11
7,11,prac,1,B,triangle.png,1,z,Fri Feb 28 2025 17:08:57 GMT-0600 (Central Standard Time),331354.5,2000,O,z,1038,6,1,3827.0,327527.5,7064,NTS,A,12
3,1,prac,2,B,triangle.png,1,z,Fri Feb 28 2025 17:08:57 GMT-0600 (Central Standard Time),343450.6999999881,1600,O,z,638,3,1,3013.199999988079,340437.5,7064,NTS,A,1
8,2,prac,2,B,triangle.png,1,m,Fri Feb 28 2025 17:08:57 GMT-0600 (Central Standard Time),346400.40000003576,1200,O,m,974,7,1,2943.600000023842,343456.8000000119,7064,NTS,A,2
9,3,prac,2,B,triangle.png,1,z,Fri Feb 28 2025 17:08:57 GMT-0600 (Central Standard Time),349449.3000000119,1400,O,z,849,8,1,3041.699999988079,346407.60000002384,7064,NTS,A,3
7,4,prac,2,B,triangle.png,1,z,Fri Feb 28 2025 17:08:57 GMT-0600 (Central Standard Time),353014.3000000119,2000,O,z,768,6,1,3559.0,349455.3000000119,7064,NTS,A,4
7,5,prac,2,B,triangle.png,1,z,Fri Feb 28 2025 17:08:57 GMT-0600 (Central Standard Time),356712.3000000119,2000,O,z,917,6,1,3690.699999988079,353021.60000002384,7064,NTS,A,5
6,6,prac,2,B,triangle.png,1,m,Fri Feb 28 2025 17:08:57 GMT-0600 (Central Standard Time),359261.90000003576,1000,O,m,759,5,1,2542.0,356719.90000003576,7064,NTS,A,6
2,7,prac,2,B,triangle.png,1,m,Fri Feb 28 2025 17:08:57 GMT-0600 (Central Standard Time),362627.1999999881,1700,O,m,880,2,1,3359.399999976158,359267.8000000119,7064,NTS,A,7
1,8,prac,2,B,triangle.png,1,z,Fri Feb 28 2025 17:08:57 GMT-0600 (Central Standard Time),366044.0,1900,O,z,723,1,1,3411.399999976158,362632.60000002384,7064,NTS,A,8
4,9,prac,2,B,triangle.png,1,m,Fri Feb 28 2025 17:08:57 GMT-0600 (Central Standard Time),369226.10000002384,1500,O,m,892,4,1,3174.600000023842,366051.5,7064,NTS,A,9
3,10,prac,2,B,triangle.png,1,z,Fri Feb 28 2025 17:08:57 GMT-0600 (Central Standard Time),372408.3000000119,1600,O,z,793,3,1,3175.100000023842,369233.1999999881,7064,NTS,A,10
8,11,prac,2,B,triangle.png,1,m,Fri Feb 28 2025 17:08:57 GMT-0600 (Central Standard Time),375423.40000003576,1200,O,m,1018,7,1,3008.5,372414.90000003576,7064,NTS,A,11
1,12,prac,2,B,triangle.png,1,z,Fri Feb 28 2025 17:08:57 GMT-0600 (Central Standard Time),378906.3000000119,1900,O,z,799,1,1,3476.399999976158,375429.90000003576,7064,NTS,A,12
7,1,test,1,A,circle.png,1,m,Fri Feb 28 2025 17:08:57 GMT-0600 (Central Standard Time),416143.40000003576,1700,O,m,1084,6,1,2812.0,413331.40000003576,7064,NTS,A,1
4,2,test,1,A,circle.png,1,z,Fri Feb 28 2025 17:08:57 GMT-0600 (Central Standard Time),418693.3000000119,1400,O,z,1131,4,1,2545.0,416148.3000000119,7064,NTS,A,2
3,3,test,1,A,circle.png,1,z,Fri Feb 28 2025 17:08:57 GMT-0600 (Central Standard Time),420758.1999999881,1200,O,z,844,3,1,2059.7999999523163,418698.40000003576,7064,NTS,A,3
7,4,test,1,A,circle.png,1,m,Fri Feb 28 2025 17:08:57 GMT-0600 (Central Standard Time),423540.60000002384,1700,O,m,1062,6,1,2777.400000035763,420763.1999999881,7064,NTS,A,4
1,5,test,1,A,circle.png,1,z,Fri Feb 28 2025 17:08:57 GMT-0600 (Central Standard Time),425956.40000003576,1000,O,z,1388,1,1,2410.2000000476837,423546.1999999881,7064,NTS,A,5
2,6,test,1,A,circle.png,1,z,Fri Feb 28 2025 17:08:57 GMT-0600 (Central Standard Time),428756.60000002384,2000,O,z,782,2,1,2796.199999988079,425960.40000003576,7064,NTS,A,6
3,7,test,1,A,circle.png,1,z,Fri Feb 28 2025 17:08:57 GMT-0600 (Central Standard Time),430671.8000000119,1200,O,z,693,3,1,1909.800000011921,428762.0,7064,NTS,A,7
7,8,test,1,A,circle.png,1,m,Fri Feb 28 2025 17:08:57 GMT-0600 (Central Standard Time),433123.90000003576,1700,O,m,733,6,1,2447.300000011921,430676.60000002384,7064,NTS,A,8
4,9,test,1,A,circle.png,1,z,Fri Feb 28 2025 17:08:57 GMT-0600 (Central Standard Time),435453.6999999881,1400,O,z,903,4,1,2324.0,433129.6999999881,7064,NTS,A,9
1,10,test,1,A,circle.png,1,z,Fri Feb 28 2025 17:08:57 GMT-0600 (Central Standard Time),437253.40000003576,1000,O,z,770,1,1,1795.6000000238419,435457.8000000119,7064,NTS,A,10
6,11,test,1,A,circle.png,1,m,Fri Feb 28 2025 17:08:57 GMT-0600 (Central Standard Time),440386.3000000119,1900,O,m,1208,5,1,3127.699999988079,437258.60000002384,7064,NTS,A,11
2,12,test,1,A,circle.png,1,z,Fri Feb 28 2025 17:08:57 GMT-0600 (Central Standard Time),443401.1999999881,2000,O,z,982,2,1,3009.7999999523163,440391.40000003576,7064,NTS,A,12
6,13,test,1,A,circle.png,1,m,Fri Feb 28 2025 17:08:57 GMT-0600 (Central Standard Time),446068.5,1900,O,m,749,5,1,2660.899999976158,443407.60000002384,7064,NTS,A,13
8,14,test,1,A,circle.png,1,m,Fri Feb 28 2025 17:08:57 GMT-0600 (Central Standard Time),448633.0,1600,O,m,933,7,1,2559.800000011921,446073.1999999881,7064,NTS,A,14
2,15,test,1,A,circle.png,1,z,Fri Feb 28 2025 17:08:57 GMT-0600 (Central Standard Time),451282.6999999881,2000,O,z,621,2,1,2644.699999988079,448638.0,7064,NTS,A,15
8,16,test,1,A,circle.png,1,m,Fri Feb 28 2025 17:08:57 GMT-0600 (Central Standard Time),454014.40000003576,1600,O,m,1102,7,1,2726.5,451287.90000003576,7064,NTS,A,16
3,17,test,1,A,circle.png,1,z,Fri Feb 28 2025 17:08:57 GMT-0600 (Central Standard Time),456581.8000000119,1200,O,z,1349,3,1,2562.300000011921,454019.5,7064,NTS,A,17
9,18,test,1,A,circle.png,1,m,Fri Feb 28 2025 17:08:57 GMT-0600 (Central Standard Time),458796.40000003576,1500,O,m,687,8,1,2209.2000000476837,456587.1999999881,7064,NTS,A,18
1,19,test,1,A,circle.png,1,z,Fri Feb 28 2025 17:08:57 GMT-0600 (Central Standard Time),460462.5,1000,O,z,635,1,1,1662.5999999642372,458799.90000003576,7064,NTS,A,19
3,20,test,1,A,circle.png,1,z,Fri Feb 28 2025 17:08:57 GMT-0600 (Central Standard Time),462311.6999999881,1200,O,z,624,3,1,1844.3999999761581,460467.3000000119,7064,NTS,A,20
9,21,test,1,A,circle.png,1,m,Fri Feb 28 2025 17:08:57 GMT-0600 (Central Standard Time),464527.5,1500,O,m,684,8,1,2211.599999964237,462315.90000003576,7064,NTS,A,21
6,22,test,1,A,circle.png,1,m,Fri Feb 28 2025 17:08:57 GMT-0600 (Central Standard Time),467276.1999999881,1900,O,m,829,5,1,2743.699999988079,464532.5,7064,NTS,A,22
6,23,test,1,A,circle.png,1,m,Fri Feb 28 2025 17:08:57 GMT-0600 (Central Standard Time),469876.3000000119,1900,O,m,672,5,1,2597.100000023842,467279.1999999881,7064,NTS,A,23
2,24,test,1,A,circle.png,1,z,Fri Feb 28 2025 17:08:57 GMT-0600 (Central Standard Time),472509.8000000119,2000,O,z,615,2,1,2628.100000023842,469881.6999999881,7064,NTS,A,24
1,1,test,1,B,triangle.png,1,z,Fri Feb 28 2025 17:08:57 GMT-0600 (Central Standard Time),499500.40000003576,1900,O,z,921,1,1,2844.300000011921,496656.10000002384,7064,NTS,A,1
3,2,test,1,B,triangle.png,1,z,Fri Feb 28 2025 17:08:57 GMT-0600 (Central Standard Time),501899.3000000119,1600,O,z,780,3,1,2394.399999976158,499504.90000003576,7064,NTS,A,2
3,3,test,1,B,triangle.png,1,z,Fri Feb 28 2025 17:08:57 GMT-0600 (Central Standard Time),504114.60000002384,1600,O,z,589,3,1,2209.300000011921,501905.3000000119,7064,NTS,A,3
2,4,test,1,B,triangle.png,1,m,Fri Feb 28 2025 17:08:57 GMT-0600 (Central Standard Time),506865.6999999881,1700,O,m,1025,2,1,2743.099999964237,504122.60000002384,7064,NTS,A,4
3,5,test,1,B,triangle.png,1,z,Fri Feb 28 2025 17:08:57 GMT-0600 (Central Standard Time),509514.6999999881,2000,O,z,631,11,1,2643.699999988079,506871.0,7064,NTS,A,5
7,6,test,1,B,triangle.png,1,z,Fri Feb 28 2025 17:08:57 GMT-0600 (Central Standard Time),512431.0,1600,O,z,1287,14,1,2912.599999964237,509518.40000003576,7064,NTS,A,6
1,7,test,1,B,triangle.png,1,z,Fri Feb 28 2025 17:08:57 GMT-0600 (Central Standard Time),514961.0,1900,O,z,606,1,1,2526.399999976158,512434.60000002384,7064,NTS,A,7
7,7,test,1,B,triangle.png,0,z,Fri Feb 28 2025 17:08:57 GMT-0600 (Central Standard Time),518494.1999999881,2000,O,None,1514,6,1,3528.0,514966.1999999881,7064,NTS,A,8
6,8,test,1,B,triangle.png,1,m,Fri Feb 28 2025 17:08:57 GMT-0600 (Central Standard Time),520728.8000000119,1500,O,m,703,13,1,2227.199999988079,518501.60000002384,7064,NTS,A,9
9,9,test,1,B,triangle.png,1,z,Fri Feb 28 2025 17:08:57 GMT-0600 (Central Standard Time),522943.6999999881,1400,O,z,787,8,1,2210.0,520733.6999999881,7064,NTS,A,10
6,10,test,1,B,triangle.png,1,m,Fri Feb 28 2025 17:08:57 GMT-0600 (Central Standard Time),525061.4000000358,1500,O,m,601,13,1,2112.5,522948.90000003576,7064,NTS,A,11
3,11,test,1,B,triangle.png,1,z,Fri Feb 28 2025 17:08:57 GMT-0600 (Central Standard Time),527641.1999999881,2000,O,z,557,11,1,2575.5,525065.6999999881,7064,NTS,A,12
4,12,test,1,B,triangle.png,1,m,Fri Feb 28 2025 17:08:57 GMT-0600 (Central Standard Time),529374.1000000238,1000,O,m,712,12,1,1728.300000011921,527645.8000000119,7064,NTS,A,13
6,13,test,1,B,triangle.png,1,m,Fri Feb 28 2025 17:08:57 GMT-0600 (Central Standard Time),530908.0,1000,O,m,517,5,1,1529.699999988079,529378.3000000119,7064,NTS,A,14
2,14,test,1,B,triangle.png,1,m,Fri Feb 28 2025 17:08:57 GMT-0600 (Central Standard Time),532923.8000000119,1200,O,m,784,10,1,2011.300000011921,530912.5,7064,NTS,A,15
9,15,test,1,B,triangle.png,1,z,Fri Feb 28 2025 17:08:57 GMT-0600 (Central Standard Time),535905.9000000358,1900,O,z,1049,16,1,2977.100000023842,532928.8000000119,7064,NTS,A,16
9,16,test,1,B,triangle.png,1,z,Fri Feb 28 2025 17:08:57 GMT-0600 (Central Standard Time),538571.4000000358,1900,O,z,748,16,1,2661.100000023842,535910.3000000119,7064,NTS,A,17
4,17,test,1,B,triangle.png,1,m,Fri Feb 28 2025 17:08:57 GMT-0600 (Central Standard Time),540937.1000000238,1500,O,m,842,4,1,2357.300000011921,538579.8000000119,7064,NTS,A,18
4,18,test,1,B,triangle.png,1,m,Fri Feb 28 2025 17:08:57 GMT-0600 (Central Standard Time),543038.3000000119,1500,O,m,583,4,1,2097.699999988079,540940.6000000238,7064,NTS,A,19
8,19,test,1,B,triangle.png,1,m,Fri Feb 28 2025 17:08:57 GMT-0600 (Central Standard Time),546084.1999999881,1700,O,m,1327,15,1,3040.899999976158,543043.3000000119,7064,NTS,A,20
8,20,test,1,B,triangle.png,1,m,Fri Feb 28 2025 17:08:57 GMT-0600 (Central Standard Time),547835.6000000238,1200,O,m,523,7,1,1748.4000000357628,546087.1999999881,7064,NTS,A,21
1,21,test,1,B,triangle.png,1,z,Fri Feb 28 2025 17:08:57 GMT-0600 (Central Standard Time),550101.6999999881,1400,O,z,837,9,1,2263.099999964237,547838.6000000238,7064,NTS,A,22
8,22,test,1,B,triangle.png,1,m,Fri Feb 28 2025 17:08:57 GMT-0600 (Central Standard Time),551950.6000000238,1200,O,m,630,7,1,1844.1000000238419,550106.5,7064,NTS,A,23
7,23,test,1,B,triangle.png,1,z,Fri Feb 28 2025 17:08:57 GMT-0600 (Central Standard Time),555116.1000000238,2000,O,z,1140,6,1,3161.5,551954.6000000238,7064,NTS,A,24
2,0,prac,1,C,triangle.png,0,m,Fri Feb 28 2025 17:08:57 GMT-0600 (Central Standard Time),652934.0,1600,O,None,1515,2,1,3889.800000011921,649044.1999999881,7064,NTS,A,1
4,0,prac,1,C,circle.png,0,z,Fri Feb 28 2025 17:08:57 GMT-0600 (Central Standard Time),656217.6000000238,1000,O,None,1501,4,1,3274.0,652943.6000000238,7064,NTS,A,2
8,1,prac,1,C,triangle.png,1,m,Fri Feb 28 2025 17:08:57 GMT-0600 (Central Standard Time),659499.0,1400,O,m,1095,7,1,3272.699999988079,656226.3000000119,7064,NTS,A,3
7,2,prac,1,C,triangle.png,1,z,Fri Feb 28 2025 17:08:57 GMT-0600 (Central Standard Time),662365.0,1200,O,z,869,6,1,2858.599999964237,659506.4000000358,7064,NTS,A,4
4,2,prac,1,C,circle.png,0,z,Fri Feb 28 2025 17:08:57 GMT-0600 (Central Standard Time),665199.1000000238,1000,O,m,1036,4,1,2826.800000011921,662372.3000000119,7064,NTS,A,5
8,2,prac,1,C,triangle.png,0,m,Fri Feb 28 2025 17:08:57 GMT-0600 (Central Standard Time),668880.9000000358,1400,O,None,1516,7,1,3674.900000035763,665206.0,7064,NTS,A,6
3,3,prac,1,C,triangle.png,1,z,Fri Feb 28 2025 17:08:57 GMT-0600 (Central Standard Time),672361.1999999881,1500,O,z,1181,3,1,3473.899999976158,668887.3000000119,7064,NTS,A,7
3,4,prac,1,C,triangle.png,1,z,Fri Feb 28 2025 17:08:57 GMT-0600 (Central Standard Time),675561.6000000238,1500,O,z,930,3,1,3193.199999988079,672368.4000000358,7064,NTS,A,8
9,4,prac,1,C,circle.png,0,m,Fri Feb 28 2025 17:08:57 GMT-0600 (Central Standard Time),679760.1999999881,1900,O,None,1517,8,1,4190.5,675569.6999999881,7064,NTS,A,9
1,5,prac,1,C,circle.png,1,z,Fri Feb 28 2025 17:08:57 GMT-0600 (Central Standard Time),683174.1000000238,1700,O,z,917,1,1,3407.300000011921,679766.8000000119,7064,NTS,A,10
6,6,prac,1,C,circle.png,1,m,Fri Feb 28 2025 17:08:57 GMT-0600 (Central Standard Time),686924.4000000358,2000,O,m,964,5,1,3744.2000000476837,683180.1999999881,7064,NTS,A,11
2,6,prac,1,C,triangle.png,0,m,Fri Feb 28 2025 17:08:57 GMT-0600 (Central Standard Time),690689.1999999881,1600,O,z,1373,2,1,3759.099999964237,686930.1000000238,7064,NTS,A,12
6,1,prac,2,C,circle.png,1,m,Fri Feb 28 2025 17:08:57 GMT-0600 (Central Standard Time),700520.9000000358,2000,O,m,1158,5,1,3926.600000023842,696594.3000000119,7064,NTS,A,1
4,2,prac,2,C,circle.png,1,z,Fri Feb 28 2025 17:08:57 GMT-0600 (Central Standard Time),703351.1000000238,1000,O,z,1041,4,1,2824.100000023842,700527.0,7064,NTS,A,2
2,2,prac,2,C,triangle.png,0,m,Fri Feb 28 2025 17:08:57 GMT-0600 (Central Standard Time),707252.3000000119,1600,O,None,1517,2,1,3893.399999976158,703358.9000000358,7064,NTS,A,3
9,3,prac,2,C,circle.png,1,m,Fri Feb 28 2025 17:08:57 GMT-0600 (Central Standard Time),711000.1000000238,1900,O,m,1050,8,1,3741.600000023842,707258.5,7064,NTS,A,4
8,4,prac,2,C,triangle.png,1,m,Fri Feb 28 2025 17:08:57 GMT-0600 (Central Standard Time),714231.6000000238,1400,O,m,1032,7,1,3224.699999988079,711006.9000000358,7064,NTS,A,5
2,4,prac,2,C,triangle.png,0,m,Fri Feb 28 2025 17:08:57 GMT-0600 (Central Standard Time),718130.6000000238,1600,O,None,1515,2,1,3893.199999988079,714237.4000000358,7064,NTS,A,6
8,5,prac,2,C,triangle.png,1,m,Fri Feb 28 2025 17:08:57 GMT-0600 (Central Standard Time),721746.0,1400,O,m,1431,7,1,3607.399999976158,718138.6000000238,7064,NTS,A,7
4,6,prac,2,C,circle.png,1,z,Fri Feb 28 2025 17:08:57 GMT-0600 (Central Standard Time),724297.1000000238,1000,O,z,750,4,1,2542.199999988079,721754.9000000358,7064,NTS,A,8
9,7,prac,2,C,circle.png,1,m,Fri Feb 28 2025 17:08:57 GMT-0600 (Central Standard Time),728410.6000000238,1900,O,m,1431,8,1,4106.5,724304.1000000238,7064,NTS,A,9
7,7,prac,2,C,triangle.png,0,z,Fri Feb 28 2025 17:08:57 GMT-0600 (Central Standard Time),731543.3000000119,1200,O,m,1132,6,1,3127.300000011921,728416.0,7064,NTS,A,10
3,8,prac,2,C,triangle.png,1,z,Fri Feb 28 2025 17:08:57 GMT-0600 (Central Standard Time),735175.0,1500,O,z,1343,3,1,3624.199999988079,731550.8000000119,7064,NTS,A,11
1,8,prac,2,C,circle.png,0,z,Fri Feb 28 2025 17:08:57 GMT-0600 (Central Standard Time),739173.6000000238,1700,O,None,1515,1,1,3992.699999988079,735180.9000000358,7064,NTS,A,12
4,0,test,1,C,circle.png,0,z,Fri Feb 28 2025 17:08:57 GMT-0600 (Central Standard Time),767533.4000000358,1400,O,None,1516,4,1,2928.0,764605.4000000358,7064,NTS,A,1
1,1,test,1,C,triangle.png,1,z,Fri Feb 28 2025 17:08:57 GMT-0600 (Central Standard Time),770247.5,1900,O,z,785,9,1,2704.099999964237,767543.4000000358,7064,NTS,A,2
4,2,test,1,C,triangle.png,1,m,Fri Feb 28 2025 17:08:57 GMT-0600 (Central Standard Time),773078.9000000358,1500,O,m,1310,12,1,2826.300000011921,770252.6000000238,7064,NTS,A,3
4,3,test,1,C,triangle.png,1,m,Fri Feb 28 2025 17:08:57 GMT-0600 (Central Standard Time),775929.1000000238,1500,O,m,1325,20,1,2846.199999988079,773082.9000000358,7064,NTS,A,4
7,4,test,1,C,triangle.png,1,z,Fri Feb 28 2025 17:08:57 GMT-0600 (Central Standard Time),778744.6999999881,1700,O,z,1083,22,1,2810.699999988079,775934.0,7064,NTS,A,5
2,4,test,1,C,triangle.png,0,m,Fri Feb 28 2025 17:08:57 GMT-0600 (Central Standard Time),782278.0,2000,O,None,1516,2,1,3528.5,778749.5,7064,NTS,A,6
2,5,test,1,C,circle.png,1,z,Fri Feb 28 2025 17:08:57 GMT-0600 (Central Standard Time),785159.9000000358,1700,O,z,1151,18,1,2877.5,782282.4000000358,7064,NTS,A,7
6,6,test,1,C,circle.png,1,m,Fri Feb 28 2025 17:08:57 GMT-0600 (Central Standard Time),788226.1999999881,1900,O,m,1134,5,1,3061.099999964237,785165.1000000238,7064,NTS,A,8
8,6,test,1,C,triangle.png,0,m,Fri Feb 28 2025 17:08:57 GMT-0600 (Central Standard Time),791357.9000000358,1600,O,None,1516,7,1,3127.400000035763,788230.5,7064,NTS,A,9
3,7,test,1,C,circle.png,1,z,Fri Feb 28 2025 17:08:57 GMT-0600 (Central Standard Time),794141.1999999881,1600,O,z,1165,11,1,2777.0,791364.1999999881,7064,NTS,A,10
6,8,test,1,C,triangle.png,1,m,Fri Feb 28 2025 17:08:57 GMT-0600 (Central Standard Time),796157.9000000358,1000,O,m,990,13,1,2011.4000000357628,794146.5,7064,NTS,A,11
1,9,test,1,C,triangle.png,1,z,Fri Feb 28 2025 17:08:57 GMT-0600 (Central Standard Time),798888.1000000238,1900,O,z,801,17,1,2725.600000023842,796162.5,7064,NTS,A,12
8,10,test,1,C,triangle.png,1,m,Fri Feb 28 2025 17:08:57 GMT-0600 (Central Standard Time),801538.0,1600,O,m,1033,23,1,2644.199999988079,798893.8000000119,7064,NTS,A,13
6,11,test,1,C,circle.png,1,m,Fri Feb 28 2025 17:08:57 GMT-0600 (Central Standard Time),804686.9000000358,1900,O,m,1220,21,1,3144.900000035763,801542.0,7064,NTS,A,14
7,11,test,1,C,circle.png,0,m,Fri Feb 28 2025 17:08:57 GMT-0600 (Central Standard Time),807868.0,2000,O,z,1156,14,1,3176.0,804692.0,7064,NTS,A,15
9,11,test,1,C,triangle.png,0,z,Fri Feb 28 2025 17:08:57 GMT-0600 (Central Standard Time),810802.1999999881,1400,O,None,1517,16,1,2928.2999999523163,807873.9000000358,7064,NTS,A,16
1,11,test,1,C,circle.png,0,z,Fri Feb 28 2025 17:08:57 GMT-0600 (Central Standard Time),813000.0,1000,O,m,1167,1,1,2192.699999988079,810807.3000000119,7064,NTS,A,17
8,12,test,1,C,circle.png,1,m,Fri Feb 28 2025 17:08:57 GMT-0600 (Central Standard Time),815334.0,1200,O,m,1114,15,1,2329.0,813005.0,7064,NTS,A,18
3,13,test,1,C,triangle.png,1,z,Fri Feb 28 2025 17:08:57 GMT-0600 (Central Standard Time),817665.4000000358,1200,O,z,1106,3,1,2325.400000035763,815340.0,7064,NTS,A,19
7,14,test,1,C,triangle.png,1,z,Fri Feb 28 2025 17:08:57 GMT-0600 (Central Standard Time),819997.8000000119,1700,O,z,602,6,1,2328.300000011921,817669.5,7064,NTS,A,20
3,14,test,1,C,circle.png,0,z,Fri Feb 28 2025 17:08:57 GMT-0600 (Central Standard Time),823131.4000000358,1600,O,None,1516,19,1,3126.300000011921,820005.1000000238,7064,NTS,A,21
9,15,test,1,C,circle.png,1,m,Fri Feb 28 2025 17:08:57 GMT-0600 (Central Standard Time),825745.6999999881,1500,O,m,1093,24,1,2609.2999999523163,823136.4000000358,7064,NTS,A,22
9,16,test,1,C,circle.png,1,m,Fri Feb 28 2025 17:08:57 GMT-0600 (Central Standard Time),828446.3000000119,1500,O,m,1165,8,1,2695.800000011921,825750.5,7064,NTS,A,23
2,17,test,1,C,circle.png,1,z,Fri Feb 28 2025 17:08:57 GMT-0600 (Central Standard Time),831127.6000000238,1700,O,z,951,10,1,2675.800000011921,828451.8000000119,7064,NTS,A,24
2,1,test,2,C,circle.png,1,z,Fri Feb 28 2025 17:08:57 GMT-0600 (Central Standard Time),840541.1999999881,1700,O,z,1004,18,1,2723.099999964237,837818.1000000238,7064,NTS,A,1
7,2,test,2,C,circle.png,1,m,Fri Feb 28 2025 17:08:57 GMT-0600 (Central Standard Time),843842.5,2000,O,m,1282,22,1,3295.899999976158,840546.6000000238,7064,NTS,A,2
4,3,test,2,C,triangle.png,1,m,Fri Feb 28 2025 17:08:57 GMT-0600 (Central Standard Time),846572.6000000238,1500,O,m,1205,20,1,2724.400000035763,843848.1999999881,7064,NTS,A,3
7,4,test,2,C,circle.png,1,m,Fri Feb 28 2025 17:08:57 GMT-0600 (Central Standard Time),849972.5,2000,O,m,1371,14,1,3395.199999988079,846577.3000000119,7064,NTS,A,4
6,5,test,2,C,circle.png,1,m,Fri Feb 28 2025 17:08:57 GMT-0600 (Central Standard Time),853070.9000000358,1900,O,m,1170,5,1,3094.7000000476837,849976.1999999881,7064,NTS,A,5
3,6,test,2,C,circle.png,1,z,Fri Feb 28 2025 17:08:57 GMT-0600 (Central Standard Time),855821.5,1600,O,z,1133,11,1,2745.800000011921,853075.6999999881,7064,NTS,A,6
1,7,test,2,C,triangle.png,1,z,Fri Feb 28 2025 17:08:57 GMT-0600 (Central Standard Time),858785.8000000119,1900,O,z,1043,9,1,2959.399999976158,855826.4000000358,7064,NTS,A,7
8,8,test,2,C,triangle.png,1,m,Fri Feb 28 2025 17:08:57 GMT-0600 (Central Standard Time),861267.9000000358,1600,O,m,849,7,1,2477.600000023842,858790.3000000119,7064,NTS,A,8
2,9,test,2,C,circle.png,1,z,Fri Feb 28 2025 17:08:57 GMT-0600 (Central Standard Time),863884.4000000358,1700,O,z,883,10,1,2609.900000035763,861274.5,7064,NTS,A,9
4,10,test,2,C,triangle.png,1,m,Fri Feb 28 2025 17:08:57 GMT-0600 (Central Standard Time),866783.0,1500,O,m,1370,12,1,2891.0,863892.0,7064,NTS,A,10
2,11,test,2,C,triangle.png,1,m,Fri Feb 28 2025 17:08:57 GMT-0600 (Central Standard Time),869483.1000000238,2000,O,m,665,2,1,2693.800000011921,866789.3000000119,7064,NTS,A,11
9,12,test,2,C,circle.png,1,m,Fri Feb 28 2025 17:08:57 GMT-0600 (Central Standard Time),872332.9000000358,1500,O,m,1334,8,1,2842.800000011921,869490.1000000238,7064,NTS,A,12
6,13,test,2,C,triangle.png,1,m,Fri Feb 28 2025 17:08:57 GMT-0600 (Central Standard Time),874781.1000000238,1000,O,m,1432,21,1,2442.900000035763,872338.1999999881,7064,NTS,A,13
6,14,test,2,C,triangle.png,1,m,Fri Feb 28 2025 17:08:57 GMT-0600 (Central Standard Time),876748.3000000119,1000,O,m,942,13,1,1964.199999988079,874784.1000000238,7064,NTS,A,14
4,15,test,2,C,circle.png,1,z,Fri Feb 28 2025 17:08:57 GMT-0600 (Central Standard Time),879263.3000000119,1400,O,z,1085,4,1,2510.399999976158,876752.9000000358,7064,NTS,A,15
1,16,test,2,C,circle.png,1,z,Fri Feb 28 2025 17:08:57 GMT-0600 (Central Standard Time),881131.1000000238,1000,O,z,851,1,1,1862.1000000238419,879269.0,7064,NTS,A,16
1,16,test,2,C,triangle.png,0,z,Fri Feb 28 2025 17:08:57 GMT-0600 (Central Standard Time),884129.0,1900,O,m,1078,17,1,2993.5,881135.5,7064,NTS,A,17
9,17,test,2,C,triangle.png,1,z,Fri Feb 28 2025 17:08:57 GMT-0600 (Central Standard Time),886876.6000000238,1400,O,z,1331,16,1,2743.0,884133.6000000238,7064,NTS,A,18
9,18,test,2,C,triangle.png,1,z,Fri Feb 28 2025 17:08:57 GMT-0600 (Central Standard Time),889509.3000000119,1400,O,z,1213,24,1,2626.300000011921,886883.0,7064,NTS,A,19
8,19,test,2,C,circle.png,1,m,Fri Feb 28 2025 17:08:57 GMT-0600 (Central Standard Time),891991.8000000119,1200,O,m,1252,23,1,2477.600000023842,889514.1999999881,7064,NTS,A,20
3,20,test,2,C,circle.png,1,z,Fri Feb 28 2025 17:08:57 GMT-0600 (Central Standard Time),894825.0,1600,O,z,1210,19,1,2829.199999988079,891995.8000000119,7064,NTS,A,21
7,21,test,2,C,triangle.png,1,z,Fri Feb 28 2025 17:08:57 GMT-0600 (Central Standard Time),897773.1000000238,1700,O,z,1221,6,1,2943.0,894830.1000000238,7064,NTS,A,22
8,22,test,2,C,circle.png,1,m,Fri Feb 28 2025 17:08:57 GMT-0600 (Central Standard Time),900023.0,1200,O,m,1019,15,1,2245.800000011921,897777.1999999881,7064,NTS,A,23
3,23,test,2,C,triangle.png,1,z,Fri Feb 28 2025 17:08:57 GMT-0600 (Central Standard Time),902354.4000000358,1200,O,z,1106,3,1,2327.0,900027.4000000358,7064,NTS,A,24
1,1,test,3,C,circle.png,1,z,Fri Feb 28 2025 17:08:57 GMT-0600 (Central Standard Time),908053.6000000238,1000,O,z,866,1,1,1876.5,906177.1000000238,7064,NTS,A,1
1,2,test,3,C,circle.png,1,z,Fri Feb 28 2025 17:08:57 GMT-0600 (Central Standard Time),910002.1999999881,1000,O,z,925,17,1,1944.699999988079,908057.5,7064,NTS,A,2
9,3,test,3,C,triangle.png,1,z,Fri Feb 28 2025 17:08:57 GMT-0600 (Central Standard Time),912735.0,1400,O,z,1309,16,1,2727.5,910007.5,7064,NTS,A,3
3,4,test,3,C,triangle.png,1,z,Fri Feb 28 2025 17:08:57 GMT-0600 (Central Standard Time),914951.0,1200,O,z,992,3,1,2212.0,912739.0,7064,NTS,A,4
2,4,test,3,C,triangle.png,0,m,Fri Feb 28 2025 17:08:57 GMT-0600 (Central Standard Time),918166.6999999881,2000,O,z,1194,18,1,3209.7999999523163,914956.9000000358,7064,NTS,A,5
6,5,test,3,C,circle.png,1,m,Fri Feb 28 2025 17:08:57 GMT-0600 (Central Standard Time),921032.5,1900,O,m,933,5,1,2860.5,918172.0,7064,NTS,A,6
3,6,test,3,C,circle.png,1,z,Fri Feb 28 2025 17:08:57 GMT-0600 (Central Standard Time),923432.1999999881,1600,O,z,775,11,1,2395.2999999523163,921036.9000000358,7064,NTS,A,7
7,7,test,3,C,triangle.png,1,z,Fri Feb 28 2025 17:08:57 GMT-0600 (Central Standard Time),926397.5,1700,O,z,1239,6,1,2960.800000011921,923436.6999999881,7064,NTS,A,8
8,8,test,3,C,triangle.png,1,m,Fri Feb 28 2025 17:08:57 GMT-0600 (Central Standard Time),928696.9000000358,1600,O,m,677,7,1,2295.900000035763,926401.0,7064,NTS,A,9
3,9,test,3,C,triangle.png,1,z,Fri Feb 28 2025 17:08:57 GMT-0600 (Central Standard Time),930962.1000000238,1200,O,z,1041,19,1,2260.199999988079,928701.9000000358,7064,NTS,A,10
2,10,test,3,C,triangle.png,1,m,Fri Feb 28 2025 17:08:57 GMT-0600 (Central Standard Time),934192.9000000358,2000,O,m,1204,2,1,3226.800000011921,930966.1000000238,7064,NTS,A,11
8,11,test,3,C,triangle.png,1,m,Fri Feb 28 2025 17:08:57 GMT-0600 (Central Standard Time),936595.8000000119,1600,O,m,779,23,1,2399.699999988079,934196.1000000238,7064,NTS,A,12
1,12,test,3,C,triangle.png,1,z,Fri Feb 28 2025 17:08:57 GMT-0600 (Central Standard Time),939475.5,1900,O,z,955,9,1,2875.0,936600.5,7064,NTS,A,13
9,13,test,3,C,circle.png,1,m,Fri Feb 28 2025 17:08:57 GMT-0600 (Central Standard Time),942125.6000000238,1500,O,m,1129,24,1,2647.5,939478.1000000238,7064,NTS,A,14
7,14,test,3,C,circle.png,1,m,Fri Feb 28 2025 17:08:57 GMT-0600 (Central Standard Time),945041.5,2000,O,m,892,14,1,2911.0,942130.5,7064,NTS,A,15
7,15,test,3,C,triangle.png,1,z,Fri Feb 28 2025 17:08:57 GMT-0600 (Central Standard Time),947875.8000000119,1700,O,z,1117,22,1,2830.199999988079,945045.6000000238,7064,NTS,A,16
2,16,test,3,C,circle.png,1,z,Fri Feb 28 2025 17:08:57 GMT-0600 (Central Standard Time),950525.3000000119,1700,O,z,934,10,1,2643.899999976158,947881.4000000358,7064,NTS,A,17
9,17,test,3,C,circle.png,1,m,Fri Feb 28 2025 17:08:57 GMT-0600 (Central Standard Time),953406.5,1500,O,m,1348,8,1,2876.099999964237,950530.4000000358,7064,NTS,A,18
4,18,test,3,C,circle.png,1,z,Fri Feb 28 2025 17:08:57 GMT-0600 (Central Standard Time),956123.1000000238,1400,O,z,1301,20,1,2709.199999988079,953413.9000000358,7064,NTS,A,19
6,19,test,3,C,triangle.png,1,m,Fri Feb 28 2025 17:08:57 GMT-0600 (Central Standard Time),958236.4000000358,1000,O,m,1089,13,1,2107.600000023842,956128.8000000119,7064,NTS,A,20
4,20,test,3,C,circle.png,1,z,Fri Feb 28 2025 17:08:57 GMT-0600 (Central Standard Time),960670.0,1400,O,z,1004,4,1,2431.099999964237,958238.9000000358,7064,NTS,A,21
6,21,test,3,C,circle.png,1,m,Fri Feb 28 2025 17:08:57 GMT-0600 (Central Standard Time),963736.1999999881,1900,O,m,1135,21,1,3062.099999964237,960674.1000000238,7064,NTS,A,22
8,22,test,3,C,circle.png,1,m,Fri Feb 28 2025 17:08:57 GMT-0600 (Central Standard Time),965901.3000000119,1200,O,m,937,15,1,2160.800000011921,963740.5,7064,NTS,A,23
4,23,test,3,C,triangle.png,1,m,Fri Feb 28 2025 17:08:57 GMT-0600 (Central Standard Time),968534.0,1500,O,m,1102,12,1,2628.099999964237,965905.9000000358,7064,NTS,A,24
6,1,test,4,C,triangle.png,1,m,Fri Feb 28 2025 17:08:57 GMT-0600 (Central Standard Time),973249.0,1000,O,m,1249,13,1,2275.800000011921,970973.1999999881,7064,NTS,A,1
2,2,test,4,C,circle.png,1,z,Fri Feb 28 2025 17:08:57 GMT-0600 (Central Standard Time),976049.0,1700,O,z,1066,10,1,2793.599999964237,973255.4000000358,7064,NTS,A,2
3,3,test,4,C,circle.png,1,z,Fri Feb 28 2025 17:08:57 GMT-0600 (Central Standard Time),978664.1999999881,1600,O,z,985,11,1,2609.599999964237,976054.6000000238,7064,NTS,A,3
2,4,test,4,C,triangle.png,1,m,Fri Feb 28 2025 17:08:57 GMT-0600 (Central Standard Time),981616.5,2000,O,m,935,18,1,2946.199999988079,978670.3000000119,7064,NTS,A,4
4,5,test,4,C,circle.png,1,z,Fri Feb 28 2025 17:08:57 GMT-0600 (Central Standard Time),984012.6999999881,1400,O,z,972,4,1,2391.899999976158,981620.8000000119,7064,NTS,A,5
8,6,test,4,C,circle.png,1,m,Fri Feb 28 2025 17:08:57 GMT-0600 (Central Standard Time),986345.4000000358,1200,O,m,1110,15,1,2326.900000035763,984018.5,7064,NTS,A,6
7,6,test,4,C,circle.png,0,m,Fri Feb 28 2025 17:08:57 GMT-0600 (Central Standard Time),989294.3000000119,2000,O,z,920,14,1,2944.800000011921,986349.5,7064,NTS,A,7
9,7,test,4,C,triangle.png,1,z,Fri Feb 28 2025 17:08:57 GMT-0600 (Central Standard Time),991876.6000000238,1400,O,z,1154,16,1,2578.400000035763,989298.1999999881,7064,NTS,A,8
8,8,test,4,C,triangle.png,1,m,Fri Feb 28 2025 17:08:57 GMT-0600 (Central Standard Time),994742.6000000238,1600,O,m,1244,23,1,2862.400000035763,991880.1999999881,7064,NTS,A,9
7,9,test,4,C,triangle.png,1,z,Fri Feb 28 2025 17:08:57 GMT-0600 (Central Standard Time),997625.8000000119,1700,O,z,1150,6,1,2877.399999976158,994748.4000000358,7064,NTS,A,10
3,10,test,4,C,triangle.png,1,z,Fri Feb 28 2025 17:08:57 GMT-0600 (Central Standard Time),999524.4000000358,1200,O,z,681,3,1,1894.5,997629.9000000358,7064,NTS,A,11
6,11,test,4,C,circle.png,1,m,Fri Feb 28 2025 17:08:57 GMT-0600 (Central Standard Time),1002707.3000000119,1900,O,m,1258,5,1,3176.399999976158,999530.9000000358,7064,NTS,A,12
9,12,test,4,C,circle.png,1,m,Fri Feb 28 2025 17:08:57 GMT-0600 (Central Standard Time),1005406.8000000119,1500,O,m,1168,24,1,2694.699999988079,1002712.1000000238,7064,NTS,A,13
4,13,test,4,C,triangle.png,1,m,Fri Feb 28 2025 17:08:57 GMT-0600 (Central Standard Time),1008271.4000000358,1500,O,m,1342,12,1,2859.0,1005412.4000000358,7064,NTS,A,14
4,14,test,4,C,circle.png,1,z,Fri Feb 28 2025 17:08:57 GMT-0600 (Central Standard Time),1010721.3000000119,1400,O,z,1017,20,1,2446.199999988079,1008275.1000000238,7064,NTS,A,15
8,15,test,4,C,triangle.png,1,m,Fri Feb 28 2025 17:08:57 GMT-0600 (Central Standard Time),1013386.8000000119,1600,O,m,1049,7,1,2659.800000011921,1010727.0,7064,NTS,A,16
3,16,test,4,C,triangle.png,1,z,Fri Feb 28 2025 17:08:57 GMT-0600 (Central Standard Time),1015502.6000000238,1200,O,z,895,19,1,2111.5,1013391.1000000238,7064,NTS,A,17
1,17,test,4,C,circle.png,1,z,Fri Feb 28 2025 17:08:57 GMT-0600 (Central Standard Time),1017485.8000000119,1000,O,z,953,1,1,1978.3999999761581,1015507.4000000358,7064,NTS,A,18
6,18,test,4,C,circle.png,1,m,Fri Feb 28 2025 17:08:57 GMT-0600 (Central Standard Time),1020518.3000000119,1900,O,m,1103,21,1,3026.600000023842,1017491.6999999881,7064,NTS,A,19
1,18,test,4,C,circle.png,0,z,Fri Feb 28 2025 17:08:57 GMT-0600 (Central Standard Time),1023050.8000000119,1000,O,None,1515,17,1,2528.300000011921,1020522.5,7064,NTS,A,20
2,18,test,4,C,triangle.png,0,m,Fri Feb 28 2025 17:08:57 GMT-0600 (Central Standard Time),1026082.6999999881,2000,O,z,1000,2,1,3027.899999976158,1023054.8000000119,7064,NTS,A,21
1,19,test,4,C,triangle.png,1,z,Fri Feb 28 2025 17:08:57 GMT-0600 (Central Standard Time),1028682.5,1900,O,z,682,9,1,2594.300000011921,1026088.1999999881,7064,NTS,A,22
7,20,test,4,C,triangle.png,1,z,Fri Feb 28 2025 17:08:57 GMT-0600 (Central Standard Time),1031531.3000000119,1700,O,z,1123,22,1,2843.399999976158,1028687.9000000358,7064,NTS,A,23
9,21,test,4,C,circle.png,1,m,Fri Feb 28 2025 17:08:57 GMT-0600 (Central Standard Time),1033765.6000000238,1500,O,m,718,8,1,2230.5,1031535.1000000238,7064,NTS,A,24
