block_c,block_dur,condition,countdown,datetime,endtime,list,multichar_response,project,response,response_time,session_number,start_end,starttime,subject_id,task,task_vers,trial
,,,,Mon Jan 20 2025 16:15:04 GMT-0600 (Central Standard Time),,,,O,space,640,1,,,7039,WL,C,
prac,,0,,Mon Jan 20 2025 16:15:04 GMT-0600 (Central Standard Time),,NA,b,O,b,157,1,,,7039,WL,C,1.0
prac,,0,,Mon Jan 20 2025 16:15:04 GMT-0600 (Central Standard Time),,NA,bo,O,o,1799,1,,,7039,WL,C,1.0
prac,,0,,Mon Jan 20 2025 16:15:04 GMT-0600 (Central Standard Time),,NA,boo,O,o,153,1,,,7039,WL,C,1.0
prac,,0,,Mon Jan 20 2025 16:15:04 GMT-0600 (Central Standard Time),,NA,boos,O,s,155,1,,,7039,WL,C,1.0
prac,,0,,Mon Jan 20 2025 16:15:04 GMT-0600 (Central Standard Time),,NA,boost,O,t,333,1,,,7039,WL,C,1.0
prac,,0,,Mon Jan 20 2025 16:15:04 GMT-0600 (Central Standard Time),,NA,boostenter,O,enter,2687,1,,,7039,WL,C,1.0
1,1.565999984741211,learn,58434.00001525879,Mon Jan 20 2025 16:15:04 GMT-0600 (Central Standard Time),139690.30000001192,A,t,O,t,1543,1,1566.5,138123.80000001192,7039,WL,C,1.0
1,2.065999984741211,learn,57934.00001525879,Mon Jan 20 2025 16:15:04 GMT-0600 (Central Standard Time),140190.0,A,to,O,o,487,1,2066.199999988079,138123.80000001192,7039,WL,C,1.0
1,2.365999937057495,learn,57634.000062942505,Mon Jan 20 2025 16:15:04 GMT-0600 (Central Standard Time),140489.60000002384,A,tow,O,w,276,1,2365.800000011921,138123.80000001192,7039,WL,C,1.0
1,2.6489999294281006,learn,57351.0000705719,Mon Jan 20 2025 16:15:04 GMT-0600 (Central Standard Time),140773.20000001788,A,towe,O,e,264,1,2649.4000000059605,138123.80000001192,7039,WL,C,1.0
1,2.9159998893737793,learn,57084.00011062622,Mon Jan 20 2025 16:15:04 GMT-0600 (Central Standard Time),141039.70000001788,A,tower,O,r,252,1,2915.9000000059605,138123.80000001192,7039,WL,C,1.0
1,4.164999961853027,learn,55835.00003814697,Mon Jan 20 2025 16:15:04 GMT-0600 (Central Standard Time),142289.10000002384,A,towerenter,O,enter,1235,1,4165.300000011921,138123.80000001192,7039,WL,C,1.0
1,5.865000009536743,learn,54134.99999046326,Mon Jan 20 2025 16:15:04 GMT-0600 (Central Standard Time),143988.60000002384,A,w,O,w,1689,1,1698.9000000059605,142289.70000001788,7039,WL,C,2.0
1,6.080999851226807,learn,53919.00014877319,Mon Jan 20 2025 16:15:04 GMT-0600 (Central Standard Time),144205.40000000596,A,wh,O,h,205,1,1915.699999988079,142289.70000001788,7039,WL,C,2.0
1,6.547999858856201,learn,53452.0001411438,Mon Jan 20 2025 16:15:04 GMT-0600 (Central Standard Time),144672.0,A,whe,O,e,445,1,2382.2999999821186,142289.70000001788,7039,WL,C,2.0
1,6.7149999141693115,learn,53285.00008583069,Mon Jan 20 2025 16:15:04 GMT-0600 (Central Standard Time),144838.5,A,whea,O,a,147,1,2548.7999999821186,142289.70000001788,7039,WL,C,2.0
1,7.063999891281128,learn,52936.00010871887,Mon Jan 20 2025 16:15:04 GMT-0600 (Central Standard Time),145188.30000001192,A,wheat,O,t,331,1,2898.5999999940395,142289.70000001788,7039,WL,C,2.0
1,8.280999898910522,learn,51719.00010108948,Mon Jan 20 2025 16:15:04 GMT-0600 (Central Standard Time),146404.60000002384,A,wheatenter,O,enter,1207,1,4114.9000000059605,142289.70000001788,7039,WL,C,2.0
1,10.013999938964844,learn,49986.000061035156,Mon Jan 20 2025 16:15:04 GMT-0600 (Central Standard Time),148137.5,A,b,O,b,1718,1,1732.3999999761581,146405.10000002384,7039,WL,C,3.0
1,10.312999963760376,learn,49687.000036239624,Mon Jan 20 2025 16:15:04 GMT-0600 (Central Standard Time),148437.20000001788,A,bo,O,o,288,1,2032.0999999940395,146405.10000002384,7039,WL,C,3.0
1,10.895999908447266,learn,49104.000091552734,Mon Jan 20 2025 16:15:04 GMT-0600 (Central Standard Time),149020.5,A,boy,O,y,574,1,2615.399999976158,146405.10000002384,7039,WL,C,3.0
1,12.178999900817871,learn,47821.00009918213,Mon Jan 20 2025 16:15:04 GMT-0600 (Central Standard Time),150303.20000001788,A,boyenter,O,enter,1270,1,3898.0999999940395,146405.10000002384,7039,WL,C,3.0
1,13.328999996185303,learn,46671.0000038147,Mon Jan 20 2025 16:15:04 GMT-0600 (Central Standard Time),151452.90000000596,A,b,O,b,1139,1,1149.4000000059605,150303.5,7039,WL,C,4.0
1,13.51199984550476,learn,46488.00015449524,Mon Jan 20 2025 16:15:04 GMT-0600 (Central Standard Time),151636.10000002384,A,bo,O,o,165,1,1332.6000000238419,150303.5,7039,WL,C,4.0
1,14.26199984550476,learn,45738.00015449524,Mon Jan 20 2025 16:15:04 GMT-0600 (Central Standard Time),152386.10000002384,A,bod,O,d,742,1,2082.600000023842,150303.5,7039,WL,C,4.0
1,14.428999900817871,learn,45571.00009918213,Mon Jan 20 2025 16:15:04 GMT-0600 (Central Standard Time),152552.60000002384,A,body,O,y,154,1,2249.100000023842,150303.5,7039,WL,C,4.0
1,15.827999830245972,learn,44172.00016975403,Mon Jan 20 2025 16:15:04 GMT-0600 (Central Standard Time),153952.10000002384,A,bodyenter,O,enter,1378,1,3648.600000023842,150303.5,7039,WL,C,4.0
1,23.95899987220764,learn,36041.00012779236,Mon Jan 20 2025 16:15:04 GMT-0600 (Central Standard Time),162082.60000002384,A,c,O,c,8122,1,8130.0,153952.60000002384,7039,WL,C,5.0
1,24.14199995994568,learn,35858.00004005432,Mon Jan 20 2025 16:15:04 GMT-0600 (Central Standard Time),162266.30000001192,A,ci,O,i,168,1,8313.699999988079,153952.60000002384,7039,WL,C,5.0
1,24.408999919891357,learn,35591.00008010864,Mon Jan 20 2025 16:15:04 GMT-0600 (Central Standard Time),162533.0,A,cir,O,r,248,1,8580.399999976158,153952.60000002384,7039,WL,C,5.0
1,25.125,learn,34875.0,Mon Jan 20 2025 16:15:04 GMT-0600 (Central Standard Time),163249.20000001788,A,circ,O,c,694,1,9296.59999999404,153952.60000002384,7039,WL,C,5.0
1,25.258999824523926,learn,34741.000175476074,Mon Jan 20 2025 16:15:04 GMT-0600 (Central Standard Time),163382.70000001788,A,circl,O,l,114,1,9430.09999999404,153952.60000002384,7039,WL,C,5.0
1,25.524999856948853,learn,34475.00014305115,Mon Jan 20 2025 16:15:04 GMT-0600 (Central Standard Time),163649.30000001192,A,circle,O,e,243,1,9696.699999988079,153952.60000002384,7039,WL,C,5.0
1,26.79099988937378,learn,33209.00011062622,Mon Jan 20 2025 16:15:04 GMT-0600 (Central Standard Time),164915.40000000596,A,circleenter,O,enter,1258,1,10962.799999982119,153952.60000002384,7039,WL,C,5.0
1,29.090999841690063,learn,30909.000158309937,Mon Jan 20 2025 16:15:04 GMT-0600 (Central Standard Time),167214.60000002384,A,t,O,t,2286,1,2298.9000000059605,164915.70000001788,7039,WL,C,6.0
1,29.35800004005432,learn,30641.99995994568,Mon Jan 20 2025 16:15:04 GMT-0600 (Central Standard Time),167481.5,A,ta,O,a,252,1,2565.7999999821186,164915.70000001788,7039,WL,C,6.0
1,29.62399983406067,learn,30376.00016593933,Mon Jan 20 2025 16:15:04 GMT-0600 (Central Standard Time),167747.90000000596,A,tas,O,s,257,1,2832.199999988079,164915.70000001788,7039,WL,C,6.0
1,29.83999991416931,learn,30160.00008583069,Mon Jan 20 2025 16:15:04 GMT-0600 (Central Standard Time),167964.30000001192,A,task,O,k,199,1,3048.5999999940395,164915.70000001788,7039,WL,C,6.0
1,30.60699987411499,learn,29393.00012588501,Mon Jan 20 2025 16:15:04 GMT-0600 (Central Standard Time),168730.70000001788,A,taskenter,O,enter,759,1,3815.0,164915.70000001788,7039,WL,C,6.0
1,33.621999979019165,learn,26378.000020980835,Mon Jan 20 2025 16:15:04 GMT-0600 (Central Standard Time),171746.40000000596,A,q,O,q,3008,1,3015.2999999821186,168731.10000002384,7039,WL,C,7.0
1,33.888999938964844,learn,26111.000061035156,Mon Jan 20 2025 16:15:04 GMT-0600 (Central Standard Time),172013.30000001192,A,qu,O,u,256,1,3282.199999988079,168731.10000002384,7039,WL,C,7.0
1,34.23899984359741,learn,25761.000156402588,Mon Jan 20 2025 16:15:04 GMT-0600 (Central Standard Time),172362.90000000596,A,que,O,e,342,1,3631.7999999821186,168731.10000002384,7039,WL,C,7.0
1,34.42199993133545,learn,25578.00006866455,Mon Jan 20 2025 16:15:04 GMT-0600 (Central Standard Time),172546.40000000596,A,quee,O,e,160,1,3815.2999999821186,168731.10000002384,7039,WL,C,7.0
1,34.60599994659424,learn,25394.00005340576,Mon Jan 20 2025 16:15:04 GMT-0600 (Central Standard Time),172729.70000001788,A,queen,O,n,169,1,3998.5999999940395,168731.10000002384,7039,WL,C,7.0
1,35.92199993133545,learn,24078.00006866455,Mon Jan 20 2025 16:15:04 GMT-0600 (Central Standard Time),174045.90000000596,A,queenenter,O,enter,1298,1,5314.799999982119,168731.10000002384,7039,WL,C,7.0
1,38.37100005149841,learn,21628.999948501587,Mon Jan 20 2025 16:15:04 GMT-0600 (Central Standard Time),176495.30000001192,A,f,O,f,2428,1,2449.0999999940395,174046.20000001788,7039,WL,C,8.0
1,38.62100005149841,learn,21378.999948501587,Mon Jan 20 2025 16:15:04 GMT-0600 (Central Standard Time),176745.0,A,fl,O,l,226,1,2698.7999999821186,174046.20000001788,7039,WL,C,8.0
1,38.80399990081787,learn,21196.00009918213,Mon Jan 20 2025 16:15:04 GMT-0600 (Central Standard Time),176928.40000000596,A,fla,O,a,170,1,2882.199999988079,174046.20000001788,7039,WL,C,8.0
1,39.519999980926514,learn,20480.000019073486,Mon Jan 20 2025 16:15:04 GMT-0600 (Central Standard Time),177644.90000000596,A,flag,O,g,698,1,3598.699999988079,174046.20000001788,7039,WL,C,8.0
1,40.23699998855591,learn,19763.00001144409,Mon Jan 20 2025 16:15:04 GMT-0600 (Central Standard Time),178361.10000002384,A,flagenter,O,enter,701,1,4314.9000000059605,174046.20000001788,7039,WL,C,8.0
1,60.013999938964844,learn,-13.99993896484375,Mon Jan 20 2025 16:15:04 GMT-0600 (Central Standard Time),198138.5,A,None,O,None,19770,1,19777.0,178361.5,7039,WL,C,9.0
2,2.066999912261963,learn,57933.00008773804,Mon Jan 20 2025 16:15:04 GMT-0600 (Central Standard Time),268233.2000000179,A,d,O,d,2045,1,2066.0,266167.2000000179,7039,WL,C,1.0
2,2.2159998416900635,learn,57784.00015830994,Mon Jan 20 2025 16:15:04 GMT-0600 (Central Standard Time),268383.0,A,do,O,o,131,1,2215.7999999821186,266167.2000000179,7039,WL,C,1.0
2,2.4499998092651367,learn,57550.00019073486,Mon Jan 20 2025 16:15:04 GMT-0600 (Central Standard Time),268616.40000000596,A,doc,O,c,211,1,2449.199999988079,266167.2000000179,7039,WL,C,1.0
2,2.7829999923706055,learn,57217.000007629395,Mon Jan 20 2025 16:15:04 GMT-0600 (Central Standard Time),268949.60000002384,A,doct,O,t,322,1,2782.4000000059605,266167.2000000179,7039,WL,C,1.0
2,2.9659998416900635,learn,57034.00015830994,Mon Jan 20 2025 16:15:04 GMT-0600 (Central Standard Time),269132.90000000596,A,docto,O,o,166,1,2965.699999988079,266167.2000000179,7039,WL,C,1.0
2,3.4659998416900635,learn,56534.00015830994,Mon Jan 20 2025 16:15:04 GMT-0600 (Central Standard Time),269632.90000000596,A,doctor,O,r,478,1,3465.699999988079,266167.2000000179,7039,WL,C,1.0
2,4.631999969482422,learn,55368.00003051758,Mon Jan 20 2025 16:15:04 GMT-0600 (Central Standard Time),270798.8000000119,A,doctorenter,O,enter,1154,1,4631.5999999940395,266167.2000000179,7039,WL,C,1.0
2,5.698999881744385,learn,54301.000118255615,Mon Jan 20 2025 16:15:04 GMT-0600 (Central Standard Time),271865.3000000119,A,c,O,c,1044,1,1066.0,270799.3000000119,7039,WL,C,2.0
2,5.8979997634887695,learn,54102.00023651123,Mon Jan 20 2025 16:15:04 GMT-0600 (Central Standard Time),272065.10000002384,A,ca,O,a,176,1,1265.800000011921,270799.3000000119,7039,WL,C,2.0
2,6.081999778747559,learn,53918.00022125244,Mon Jan 20 2025 16:15:04 GMT-0600 (Central Standard Time),272248.2000000179,A,can,O,n,170,1,1448.9000000059605,270799.3000000119,7039,WL,C,2.0
2,7.56499981880188,learn,52435.00018119812,Mon Jan 20 2025 16:15:04 GMT-0600 (Central Standard Time),273731.3000000119,A,ca,O,backspace,1475,1,2932.0,270799.3000000119,7039,WL,C,2.0
2,12.012999773025513,learn,47987.00022697449,Mon Jan 20 2025 16:15:04 GMT-0600 (Central Standard Time),278180.0,A,cam,O,m,4431,1,7380.699999988079,270799.3000000119,7039,WL,C,2.0
2,12.629999876022339,learn,47370.00012397766,Mon Jan 20 2025 16:15:04 GMT-0600 (Central Standard Time),278796.40000000596,A,camp,O,p,607,1,7997.0999999940395,270799.3000000119,7039,WL,C,2.0
2,13.712999820709229,learn,46287.00017929077,Mon Jan 20 2025 16:15:04 GMT-0600 (Central Standard Time),279879.60000002384,A,campenter,O,enter,1062,1,9080.300000011921,270799.3000000119,7039,WL,C,2.0
2,16.727999925613403,learn,43272.0000743866,Mon Jan 20 2025 16:15:04 GMT-0600 (Central Standard Time),282895.2000000179,A,n,O,n,2995,1,3015.300000011921,279879.90000000596,7039,WL,C,3.0
2,16.877999782562256,learn,43122.000217437744,Mon Jan 20 2025 16:15:04 GMT-0600 (Central Standard Time),283045.10000002384,A,na,O,a,132,1,3165.2000000178814,279879.90000000596,7039,WL,C,3.0
2,17.044999837875366,learn,42955.000162124634,Mon Jan 20 2025 16:15:04 GMT-0600 (Central Standard Time),283211.7000000179,A,nai,O,i,158,1,3331.800000011921,279879.90000000596,7039,WL,C,3.0
2,17.377999782562256,learn,42622.000217437744,Mon Jan 20 2025 16:15:04 GMT-0600 (Central Standard Time),283544.8000000119,A,nail,O,l,320,1,3664.9000000059605,279879.90000000596,7039,WL,C,3.0
2,20.426999807357788,learn,39573.00019264221,Mon Jan 20 2025 16:15:04 GMT-0600 (Central Standard Time),286593.90000000596,A,nailenter,O,enter,3026,1,6714.0,279879.90000000596,7039,WL,C,3.0
2,23.22599983215332,learn,36774.00016784668,Mon Jan 20 2025 16:15:04 GMT-0600 (Central Standard Time),289393.0,A,c,O,c,2777,1,2798.7999999821186,286594.2000000179,7039,WL,C,4.0
2,23.40999984741211,learn,36590.00015258789,Mon Jan 20 2025 16:15:04 GMT-0600 (Central Standard Time),289576.40000000596,A,ci,O,i,163,1,2982.199999988079,286594.2000000179,7039,WL,C,4.0
2,23.692999839782715,learn,36307.000160217285,Mon Jan 20 2025 16:15:04 GMT-0600 (Central Standard Time),289859.7000000179,A,cir,O,r,274,1,3265.5,286594.2000000179,7039,WL,C,4.0
2,24.109999895095825,learn,35890.000104904175,Mon Jan 20 2025 16:15:04 GMT-0600 (Central Standard Time),290276.3000000119,A,circ,O,c,408,1,3682.0999999940395,286594.2000000179,7039,WL,C,4.0
2,24.275999784469604,learn,35724.000215530396,Mon Jan 20 2025 16:15:04 GMT-0600 (Central Standard Time),290443.10000002384,A,circl,O,l,152,1,3848.9000000059605,286594.2000000179,7039,WL,C,4.0
2,24.442999839782715,learn,35557.000160217285,Mon Jan 20 2025 16:15:04 GMT-0600 (Central Standard Time),290609.3000000119,A,circle,O,e,152,1,4015.0999999940395,286594.2000000179,7039,WL,C,4.0
2,26.075999975204468,learn,33924.00002479553,Mon Jan 20 2025 16:15:04 GMT-0600 (Central Standard Time),292242.60000002384,A,circleenter,O,enter,1610,1,5648.4000000059605,286594.2000000179,7039,WL,C,4.0
2,27.424999952316284,learn,32575.000047683716,Mon Jan 20 2025 16:15:04 GMT-0600 (Central Standard Time),293592.0,A,w,O,w,1336,1,1349.0,292243.0,7039,WL,C,5.0
2,27.574999809265137,learn,32425.000190734863,Mon Jan 20 2025 16:15:04 GMT-0600 (Central Standard Time),293741.90000000596,A,wh,O,h,131,1,1498.9000000059605,292243.0,7039,WL,C,5.0
2,27.72499990463257,learn,32275.00009536743,Mon Jan 20 2025 16:15:04 GMT-0600 (Central Standard Time),293891.8000000119,A,wha,O,a,133,1,1648.800000011921,292243.0,7039,WL,C,5.0
2,29.240999937057495,learn,30759.000062942505,Mon Jan 20 2025 16:15:04 GMT-0600 (Central Standard Time),295408.0,A,wh,O,backspace,1496,1,3165.0,292243.0,7039,WL,C,5.0
2,29.473999977111816,learn,30526.000022888184,Mon Jan 20 2025 16:15:04 GMT-0600 (Central Standard Time),295641.2000000179,A,whe,O,e,219,1,3398.2000000178814,292243.0,7039,WL,C,5.0
2,29.70799994468689,learn,30292.00005531311,Mon Jan 20 2025 16:15:04 GMT-0600 (Central Standard Time),295874.40000000596,A,whea,O,a,210,1,3631.4000000059605,292243.0,7039,WL,C,5.0
2,30.590999841690063,learn,29409.000158309937,Mon Jan 20 2025 16:15:04 GMT-0600 (Central Standard Time),296757.5,A,wheat,O,t,865,1,4514.5,292243.0,7039,WL,C,5.0
2,31.19099998474121,learn,28809.00001525879,Mon Jan 20 2025 16:15:04 GMT-0600 (Central Standard Time),297357.60000002384,A,wheatenter,O,enter,582,1,5114.600000023842,292243.0,7039,WL,C,5.0
2,35.90599989891052,learn,24094.000101089478,Mon Jan 20 2025 16:15:04 GMT-0600 (Central Standard Time),302072.5,A,b,O,b,4694,1,4714.5999999940395,297357.90000000596,7039,WL,C,6.0
2,36.02199983596802,learn,23978.000164031982,Mon Jan 20 2025 16:15:04 GMT-0600 (Central Standard Time),302189.0,A,bo,O,o,106,1,4831.0999999940395,297357.90000000596,7039,WL,C,6.0
2,36.52199983596802,learn,23478.000164031982,Mon Jan 20 2025 16:15:04 GMT-0600 (Central Standard Time),302689.10000002384,A,boy,O,y,478,1,5331.200000017881,297357.90000000596,7039,WL,C,6.0
2,37.48799991607666,learn,22512.00008392334,Mon Jan 20 2025 16:15:04 GMT-0600 (Central Standard Time),303655.10000002384,A,boyenter,O,enter,954,1,6297.200000017881,297357.90000000596,7039,WL,C,6.0
2,38.620999813079834,learn,21379.000186920166,Mon Jan 20 2025 16:15:04 GMT-0600 (Central Standard Time),304788.5,A,b,O,b,1124,1,1133.0,303655.5,7039,WL,C,7.0
2,38.770999908447266,learn,21229.000091552734,Mon Jan 20 2025 16:15:04 GMT-0600 (Central Standard Time),304938.2000000179,A,bo,O,o,127,1,1282.7000000178814,303655.5,7039,WL,C,7.0
2,39.370999813079834,learn,20629.000186920166,Mon Jan 20 2025 16:15:04 GMT-0600 (Central Standard Time),305538.2000000179,A,bod,O,d,577,1,1882.7000000178814,303655.5,7039,WL,C,7.0
2,39.50399994850159,learn,20496.000051498413,Mon Jan 20 2025 16:15:04 GMT-0600 (Central Standard Time),305671.40000000596,A,body,O,y,121,1,2015.9000000059605,303655.5,7039,WL,C,7.0
2,40.520999908447266,learn,19479.000091552734,Mon Jan 20 2025 16:15:04 GMT-0600 (Central Standard Time),306687.7000000179,A,bodyenter,O,enter,996,1,3032.2000000178814,303655.5,7039,WL,C,7.0
2,48.16799998283386,learn,11832.000017166138,Mon Jan 20 2025 16:15:04 GMT-0600 (Central Standard Time),314335.10000002384,A,c,O,c,7638,1,7647.0,306688.10000002384,7039,WL,C,8.0
2,48.31399989128113,learn,11686.000108718872,Mon Jan 20 2025 16:15:04 GMT-0600 (Central Standard Time),314481.10000002384,A,ci,O,i,1,1,7793.0,306688.10000002384,7039,WL,C,8.0
2,48.55199980735779,learn,11448.000192642212,Mon Jan 20 2025 16:15:04 GMT-0600 (Central Standard Time),314718.60000002384,A,cir,O,r,216,1,8030.5,306688.10000002384,7039,WL,C,8.0
2,49.51799988746643,learn,10482.00011253357,Mon Jan 20 2025 16:15:04 GMT-0600 (Central Standard Time),315685.0,A,circ,O,c,957,1,8996.899999976158,306688.10000002384,7039,WL,C,8.0
2,49.650999784469604,learn,10349.000215530396,Mon Jan 20 2025 16:15:04 GMT-0600 (Central Standard Time),315818.3000000119,A,circl,O,l,126,1,9130.199999988079,306688.10000002384,7039,WL,C,8.0
2,49.85099983215332,learn,10149.00016784668,Mon Jan 20 2025 16:15:04 GMT-0600 (Central Standard Time),316018.10000002384,A,circle,O,e,185,1,9330.0,306688.10000002384,7039,WL,C,8.0
2,50.367999792099,learn,9632.000207901001,Mon Jan 20 2025 16:15:04 GMT-0600 (Central Standard Time),316534.8000000119,A,circleenter,O,enter,505,1,9846.699999988079,306688.10000002384,7039,WL,C,8.0
2,60.014999866485596,learn,-14.999866485595703,Mon Jan 20 2025 16:15:04 GMT-0600 (Central Standard Time),326181.7000000179,A,None,O,None,9640,1,9646.5,316535.2000000179,7039,WL,C,9.0
3,1.8659999370574951,learn,58134.000062942505,Mon Jan 20 2025 16:15:04 GMT-0600 (Central Standard Time),395060.10000002384,A,b,O,b,1848,1,1865.5,393194.60000002384,7039,WL,C,1.0
3,1.998999834060669,learn,58001.00016593933,Mon Jan 20 2025 16:15:04 GMT-0600 (Central Standard Time),395193.3000000119,A,bo,O,o,118,1,1998.699999988079,393194.60000002384,7039,WL,C,1.0
3,2.6489999294281006,learn,57351.0000705719,Mon Jan 20 2025 16:15:04 GMT-0600 (Central Standard Time),395843.2000000179,A,bod,O,d,634,1,2648.5999999940395,393194.60000002384,7039,WL,C,1.0
3,2.7660000324249268,learn,57233.99996757507,Mon Jan 20 2025 16:15:04 GMT-0600 (Central Standard Time),395959.8000000119,A,body,O,y,95,1,2765.199999988079,393194.60000002384,7039,WL,C,1.0
3,4.5980000495910645,learn,55401.999950408936,Mon Jan 20 2025 16:15:04 GMT-0600 (Central Standard Time),397792.40000000596,A,bodyenter,O,enter,1811,1,4597.799999982119,393194.60000002384,7039,WL,C,1.0
3,5.8480000495910645,learn,54151.999950408936,Mon Jan 20 2025 16:15:04 GMT-0600 (Central Standard Time),399042.40000000596,A,t,O,t,1227,1,1249.5999999940395,397792.8000000119,7039,WL,C,2.0
3,6.065999984741211,learn,53934.00001525879,Mon Jan 20 2025 16:15:04 GMT-0600 (Central Standard Time),399259.90000000596,A,to,O,o,209,1,1467.0999999940395,397792.8000000119,7039,WL,C,2.0
3,6.365000009536743,learn,53634.99999046326,Mon Jan 20 2025 16:15:04 GMT-0600 (Central Standard Time),399558.7000000179,A,tow,O,w,287,1,1765.9000000059605,397792.8000000119,7039,WL,C,2.0
3,6.63100004196167,learn,53368.99995803833,Mon Jan 20 2025 16:15:04 GMT-0600 (Central Standard Time),399825.60000002384,A,towe,O,e,253,1,2032.800000011921,397792.8000000119,7039,WL,C,2.0
3,6.914000034332275,learn,53085.999965667725,Mon Jan 20 2025 16:15:04 GMT-0600 (Central Standard Time),400108.60000002384,A,tower,O,r,265,1,2315.800000011921,397792.8000000119,7039,WL,C,2.0
3,7.363999843597412,learn,52636.00015640259,Mon Jan 20 2025 16:15:04 GMT-0600 (Central Standard Time),400558.2000000179,A,towerenter,O,enter,430,1,2765.4000000059605,397792.8000000119,7039,WL,C,2.0
3,7.664000034332275,learn,52335.999965667725,Mon Jan 20 2025 16:15:04 GMT-0600 (Central Standard Time),400858.40000000596,A,w,O,w,293,1,299.69999998807907,400558.7000000179,7039,WL,C,3.0
3,7.914000034332275,learn,52085.999965667725,Mon Jan 20 2025 16:15:04 GMT-0600 (Central Standard Time),401108.2000000179,A,wh,O,h,233,1,549.5,400558.7000000179,7039,WL,C,3.0
3,8.664000034332275,learn,51335.999965667725,Mon Jan 20 2025 16:15:04 GMT-0600 (Central Standard Time),401858.0,A,whe,O,e,743,1,1299.2999999821186,400558.7000000179,7039,WL,C,3.0
3,8.879999876022339,learn,51120.00012397766,Mon Jan 20 2025 16:15:04 GMT-0600 (Central Standard Time),402074.60000002384,A,whea,O,a,201,1,1515.9000000059605,400558.7000000179,7039,WL,C,3.0
3,9.146999835968018,learn,50853.00016403198,Mon Jan 20 2025 16:15:04 GMT-0600 (Central Standard Time),402341.10000002384,A,wheat,O,t,248,1,1782.4000000059605,400558.7000000179,7039,WL,C,3.0
3,11.062999963760376,learn,48937.000036239624,Mon Jan 20 2025 16:15:04 GMT-0600 (Central Standard Time),404257.2000000179,A,wheatenter,O,enter,1902,1,3698.5,400558.7000000179,7039,WL,C,3.0
3,11.812999963760376,learn,48187.000036239624,Mon Jan 20 2025 16:15:04 GMT-0600 (Central Standard Time),405007.0,A,s,O,s,738,1,749.5,404257.5,7039,WL,C,4.0
3,11.962999820709229,learn,48037.00017929077,Mon Jan 20 2025 16:15:04 GMT-0600 (Central Standard Time),405157.0,A,su,O,u,140,1,899.5,404257.5,7039,WL,C,4.0
3,12.296000003814697,learn,47703.9999961853,Mon Jan 20 2025 16:15:04 GMT-0600 (Central Standard Time),405490.2000000179,A,sug,O,g,310,1,1232.7000000178814,404257.5,7039,WL,C,4.0
3,12.628999948501587,learn,47371.00005149841,Mon Jan 20 2025 16:15:04 GMT-0600 (Central Standard Time),405823.40000000596,A,suga,O,a,313,1,1565.9000000059605,404257.5,7039,WL,C,4.0
3,13.078999996185303,learn,46921.0000038147,Mon Jan 20 2025 16:15:04 GMT-0600 (Central Standard Time),406273.10000002384,A,sugar,O,r,427,1,2015.6000000238419,404257.5,7039,WL,C,4.0
3,14.01199984550476,learn,45988.00015449524,Mon Jan 20 2025 16:15:04 GMT-0600 (Central Standard Time),407206.10000002384,A,sugarenter,O,enter,914,1,2948.600000023842,404257.5,7039,WL,C,4.0
3,14.327999830245972,learn,45672.00016975403,Mon Jan 20 2025 16:15:04 GMT-0600 (Central Standard Time),407522.5,A,c,O,c,309,1,316.0,407206.5,7039,WL,C,5.0
3,14.544999837875366,learn,45455.000162124634,Mon Jan 20 2025 16:15:04 GMT-0600 (Central Standard Time),407739.40000000596,A,ca,O,a,201,1,532.9000000059605,407206.5,7039,WL,C,5.0
3,14.845999956130981,learn,45154.00004386902,Mon Jan 20 2025 16:15:04 GMT-0600 (Central Standard Time),408040.60000002384,A,cat,O,t,280,1,834.1000000238419,407206.5,7039,WL,C,5.0
3,14.994999885559082,learn,45005.00011444092,Mon Jan 20 2025 16:15:04 GMT-0600 (Central Standard Time),408189.3000000119,A,catt,O,t,130,1,982.8000000119209,407206.5,7039,WL,C,5.0
3,15.128000020980835,learn,44871.999979019165,Mon Jan 20 2025 16:15:04 GMT-0600 (Central Standard Time),408322.40000000596,A,cattl,O,l,126,1,1115.9000000059605,407206.5,7039,WL,C,5.0
3,15.421000003814697,learn,44578.9999961853,Mon Jan 20 2025 16:15:04 GMT-0600 (Central Standard Time),408615.60000002384,A,cattle,O,e,287,1,1409.1000000238419,407206.5,7039,WL,C,5.0
3,15.860999822616577,learn,44139.00017738342,Mon Jan 20 2025 16:15:04 GMT-0600 (Central Standard Time),409055.60000002384,A,cattleenter,O,enter,419,1,1849.1000000238419,407206.5,7039,WL,C,5.0
3,16.92799997329712,learn,43072.00002670288,Mon Jan 20 2025 16:15:04 GMT-0600 (Central Standard Time),410122.3000000119,A,f,O,f,1059,1,1066.300000011921,409056.0,7039,WL,C,6.0
3,17.110999822616577,learn,42889.00017738342,Mon Jan 20 2025 16:15:04 GMT-0600 (Central Standard Time),410305.3000000119,A,fl,O,l,169,1,1249.300000011921,409056.0,7039,WL,C,6.0
3,17.32799983024597,learn,42672.00016975403,Mon Jan 20 2025 16:15:04 GMT-0600 (Central Standard Time),410522.0,A,fla,O,a,202,1,1466.0,409056.0,7039,WL,C,6.0
3,19.359999895095825,learn,40640.000104904175,Mon Jan 20 2025 16:15:04 GMT-0600 (Central Standard Time),412554.60000002384,A,flag,O,g,2010,1,3498.600000023842,409056.0,7039,WL,C,6.0
3,20.460000038146973,learn,39539.99996185303,Mon Jan 20 2025 16:15:04 GMT-0600 (Central Standard Time),413654.3000000119,A,flagenter,O,enter,1089,1,4598.300000011921,409056.0,7039,WL,C,6.0
3,23.342999935150146,learn,36657.00006484985,Mon Jan 20 2025 16:15:04 GMT-0600 (Central Standard Time),416536.8000000119,A,d,O,d,2869,1,2882.300000011921,413654.5,7039,WL,C,7.0
3,23.491999864578247,learn,36508.00013542175,Mon Jan 20 2025 16:15:04 GMT-0600 (Central Standard Time),416686.60000002384,A,do,O,o,138,1,3032.100000023842,413654.5,7039,WL,C,7.0
3,23.758999824523926,learn,36241.000175476074,Mon Jan 20 2025 16:15:04 GMT-0600 (Central Standard Time),416953.3000000119,A,doc,O,c,252,1,3298.800000011921,413654.5,7039,WL,C,7.0
3,24.075999975204468,learn,35924.00002479553,Mon Jan 20 2025 16:15:04 GMT-0600 (Central Standard Time),417269.90000000596,A,doct,O,t,306,1,3615.4000000059605,413654.5,7039,WL,C,7.0
3,24.241999864578247,learn,35758.00013542175,Mon Jan 20 2025 16:15:04 GMT-0600 (Central Standard Time),417436.40000000596,A,docto,O,o,157,1,3781.9000000059605,413654.5,7039,WL,C,7.0
3,24.47499990463257,learn,35525.00009536743,Mon Jan 20 2025 16:15:04 GMT-0600 (Central Standard Time),417669.7000000179,A,doctor,O,r,223,1,4015.2000000178814,413654.5,7039,WL,C,7.0
3,26.04199981689453,learn,33958.00018310547,Mon Jan 20 2025 16:15:04 GMT-0600 (Central Standard Time),419235.90000000596,A,doctorenter,O,enter,1549,1,5581.4000000059605,413654.5,7039,WL,C,7.0
3,37.63800001144409,learn,22361.99998855591,Mon Jan 20 2025 16:15:04 GMT-0600 (Central Standard Time),430832.10000002384,A,f,O,f,11575,1,11595.90000000596,419236.2000000179,7039,WL,C,8.0
3,37.787999868392944,learn,22212.000131607056,Mon Jan 20 2025 16:15:04 GMT-0600 (Central Standard Time),430982.10000002384,A,fl,O,l,139,1,11745.90000000596,419236.2000000179,7039,WL,C,8.0
3,38.00399994850159,learn,21996.000051498413,Mon Jan 20 2025 16:15:04 GMT-0600 (Central Standard Time),431198.90000000596,A,fla,O,a,196,1,11962.699999988079,419236.2000000179,7039,WL,C,8.0
3,38.603999853134155,learn,21396.000146865845,Mon Jan 20 2025 16:15:04 GMT-0600 (Central Standard Time),431798.5,A,flag,O,g,580,1,12562.299999982119,419236.2000000179,7039,WL,C,8.0
3,39.55399990081787,learn,20446.00009918213,Mon Jan 20 2025 16:15:04 GMT-0600 (Central Standard Time),432748.3000000119,A,flagenter,O,enter,941,1,13512.09999999404,419236.2000000179,7039,WL,C,8.0
3,46.30200004577637,learn,13697.999954223633,Mon Jan 20 2025 16:15:04 GMT-0600 (Central Standard Time),439496.0,A,n,O,n,6727,1,6747.399999976158,432748.60000002384,7039,WL,C,9.0
3,46.484999895095825,learn,13515.000104904175,Mon Jan 20 2025 16:15:04 GMT-0600 (Central Standard Time),439679.3000000119,A,na,O,a,163,1,6930.699999988079,432748.60000002384,7039,WL,C,9.0
3,46.63499999046326,learn,13365.000009536743,Mon Jan 20 2025 16:15:04 GMT-0600 (Central Standard Time),439829.40000000596,A,nai,O,i,139,1,7080.799999982119,432748.60000002384,7039,WL,C,9.0
3,46.901999950408936,learn,13098.000049591064,Mon Jan 20 2025 16:15:04 GMT-0600 (Central Standard Time),440096.0,A,nail,O,l,246,1,7347.399999976158,432748.60000002384,7039,WL,C,9.0
3,47.651000022888184,learn,12348.999977111816,Mon Jan 20 2025 16:15:04 GMT-0600 (Central Standard Time),440845.90000000596,A,nailenter,O,enter,732,1,8097.299999982119,432748.60000002384,7039,WL,C,9.0
3,60.013999938964844,learn,-13.99993896484375,Mon Jan 20 2025 16:15:04 GMT-0600 (Central Standard Time),453208.5,A,None,O,None,12355,1,12362.299999982119,440846.2000000179,7039,WL,C,10.0
4,1.2990000247955322,learn,58700.99997520447,Mon Jan 20 2025 16:15:04 GMT-0600 (Central Standard Time),521653.7000000179,A,t,O,t,1280,1,1298.800000011921,520354.90000000596,7039,WL,C,1.0
4,1.5989999771118164,learn,58401.00002288818,Mon Jan 20 2025 16:15:04 GMT-0600 (Central Standard Time),521953.8000000119,A,to,O,o,277,1,1598.9000000059605,520354.90000000596,7039,WL,C,1.0
4,1.8660001754760742,learn,58133.999824523926,Mon Jan 20 2025 16:15:04 GMT-0600 (Central Standard Time),522220.3000000119,A,tow,O,w,249,1,1865.4000000059605,520354.90000000596,7039,WL,C,1.0
4,2.1660001277923584,learn,57833.99987220764,Mon Jan 20 2025 16:15:04 GMT-0600 (Central Standard Time),522520.10000002384,A,towe,O,e,279,1,2165.2000000178814,520354.90000000596,7039,WL,C,1.0
4,2.4160001277923584,learn,57583.99987220764,Mon Jan 20 2025 16:15:04 GMT-0600 (Central Standard Time),522770.10000002384,A,tower,O,r,227,1,2415.2000000178814,520354.90000000596,7039,WL,C,1.0
4,2.865000009536743,learn,57134.99999046326,Mon Jan 20 2025 16:15:04 GMT-0600 (Central Standard Time),523220.10000002384,A,towerenter,O,enter,433,1,2865.2000000178814,520354.90000000596,7039,WL,C,1.0
4,3.249000072479248,learn,56750.99992752075,Mon Jan 20 2025 16:15:04 GMT-0600 (Central Standard Time),523603.2000000179,A,w,O,w,367,1,382.80000001192093,523220.40000000596,7039,WL,C,2.0
4,3.448000192642212,learn,56551.99980735779,Mon Jan 20 2025 16:15:04 GMT-0600 (Central Standard Time),523802.90000000596,A,wh,O,h,191,1,582.5,523220.40000000596,7039,WL,C,2.0
4,3.7820000648498535,learn,56217.99993515015,Mon Jan 20 2025 16:15:04 GMT-0600 (Central Standard Time),524136.40000000596,A,whe,O,e,313,1,916.0,523220.40000000596,7039,WL,C,2.0
4,3.9650001525878906,learn,56034.99984741211,Mon Jan 20 2025 16:15:04 GMT-0600 (Central Standard Time),524319.6000000238,A,whea,O,a,163,1,1099.2000000178814,523220.40000000596,7039,WL,C,2.0
4,4.232000112533569,learn,55767.99988746643,Mon Jan 20 2025 16:15:04 GMT-0600 (Central Standard Time),524586.3000000119,A,wheat,O,t,260,1,1365.9000000059605,523220.40000000596,7039,WL,C,2.0
4,5.514000177383423,learn,54485.99982261658,Mon Jan 20 2025 16:15:04 GMT-0600 (Central Standard Time),525869.1000000238,A,wheatenter,O,enter,1273,1,2648.7000000178814,523220.40000000596,7039,WL,C,2.0
4,9.297000169754028,learn,50702.99983024597,Mon Jan 20 2025 16:15:04 GMT-0600 (Central Standard Time),529651.2000000179,A,q,O,q,3774,1,3781.800000011921,525869.400000006,7039,WL,C,3.0
4,9.54800009727478,learn,50451.99990272522,Mon Jan 20 2025 16:15:04 GMT-0600 (Central Standard Time),529902.2000000179,A,qu,O,u,232,1,4032.800000011921,525869.400000006,7039,WL,C,3.0
4,9.77999997138977,learn,50220.00002861023,Mon Jan 20 2025 16:15:04 GMT-0600 (Central Standard Time),530134.6000000238,A,que,O,e,221,1,4265.200000017881,525869.400000006,7039,WL,C,3.0
4,9.980000019073486,learn,50019.999980926514,Mon Jan 20 2025 16:15:04 GMT-0600 (Central Standard Time),530334.5,A,quee,O,e,188,1,4465.0999999940395,525869.400000006,7039,WL,C,3.0
4,10.146000146865845,learn,49853.999853134155,Mon Jan 20 2025 16:15:04 GMT-0600 (Central Standard Time),530501.0,A,queen,O,n,157,1,4631.5999999940395,525869.400000006,7039,WL,C,3.0
4,12.078999996185303,learn,47921.0000038147,Mon Jan 20 2025 16:15:04 GMT-0600 (Central Standard Time),532434.0,A,queenenter,O,enter,1909,1,6564.5999999940395,525869.400000006,7039,WL,C,3.0
4,16.361000061035156,learn,43638.999938964844,Mon Jan 20 2025 16:15:04 GMT-0600 (Central Standard Time),536715.8000000119,A,c,O,c,4273,1,4281.5,532434.3000000119,7039,WL,C,4.0
4,16.611000061035156,learn,43388.999938964844,Mon Jan 20 2025 16:15:04 GMT-0600 (Central Standard Time),536965.7000000179,A,ca,O,a,239,1,4531.4000000059605,532434.3000000119,7039,WL,C,4.0
4,16.99400019645691,learn,43005.99980354309,Mon Jan 20 2025 16:15:04 GMT-0600 (Central Standard Time),537348.900000006,A,cat,O,t,374,1,4914.5999999940395,532434.3000000119,7039,WL,C,4.0
4,17.177000045776367,learn,42822.99995422363,Mon Jan 20 2025 16:15:04 GMT-0600 (Central Standard Time),537532.1000000238,A,catt,O,t,167,1,5097.800000011921,532434.3000000119,7039,WL,C,4.0
4,17.344000101089478,learn,42655.99989891052,Mon Jan 20 2025 16:15:04 GMT-0600 (Central Standard Time),537698.8000000119,A,cattl,O,l,151,1,5264.5,532434.3000000119,7039,WL,C,4.0
4,17.49400019645691,learn,42505.99980354309,Mon Jan 20 2025 16:15:04 GMT-0600 (Central Standard Time),537848.8000000119,A,cattle,O,e,128,1,5414.5,532434.3000000119,7039,WL,C,4.0
4,18.344000101089478,learn,41655.99989891052,Mon Jan 20 2025 16:15:04 GMT-0600 (Central Standard Time),538698.5,A,cattleenter,O,enter,834,1,6264.199999988079,532434.3000000119,7039,WL,C,4.0
4,19.259999990463257,learn,40740.00000953674,Mon Jan 20 2025 16:15:04 GMT-0600 (Central Standard Time),539615.0,A,f,O,f,897,1,916.0999999940395,538698.900000006,7039,WL,C,5.0
4,19.460000038146973,learn,40539.99996185303,Mon Jan 20 2025 16:15:04 GMT-0600 (Central Standard Time),539814.8000000119,A,fl,O,l,188,1,1115.9000000059605,538698.900000006,7039,WL,C,5.0
4,19.710000038146973,learn,40289.99996185303,Mon Jan 20 2025 16:15:04 GMT-0600 (Central Standard Time),540064.7000000179,A,fla,O,a,228,1,1365.800000011921,538698.900000006,7039,WL,C,5.0
4,20.12600016593933,learn,39873.99983406067,Mon Jan 20 2025 16:15:04 GMT-0600 (Central Standard Time),540481.1000000238,A,flag,O,g,394,1,1782.2000000178814,538698.900000006,7039,WL,C,5.0
4,21.176000118255615,learn,38823.999881744385,Mon Jan 20 2025 16:15:04 GMT-0600 (Central Standard Time),541531.0,A,flagenter,O,enter,1034,1,2832.0999999940395,538698.900000006,7039,WL,C,5.0
4,21.992000102996826,learn,38007.999897003174,Mon Jan 20 2025 16:15:04 GMT-0600 (Central Standard Time),542347.1000000238,A,s,O,s,808,1,815.6000000238419,541531.5,7039,WL,C,6.0
4,22.12600016593933,learn,37873.99983406067,Mon Jan 20 2025 16:15:04 GMT-0600 (Central Standard Time),542480.7000000179,A,sh,O,h,120,1,949.2000000178814,541531.5,7039,WL,C,6.0
4,22.358999967575073,learn,37641.00003242493,Mon Jan 20 2025 16:15:04 GMT-0600 (Central Standard Time),542714.0,A,sho,O,o,211,1,1182.5,541531.5,7039,WL,C,6.0
4,22.742000102996826,learn,37257.999897003174,Mon Jan 20 2025 16:15:04 GMT-0600 (Central Standard Time),543097.2000000179,A,shor,O,r,369,1,1565.7000000178814,541531.5,7039,WL,C,6.0
4,22.975000143051147,learn,37024.99985694885,Mon Jan 20 2025 16:15:04 GMT-0600 (Central Standard Time),543330.2000000179,A,shore,O,e,227,1,1798.7000000178814,541531.5,7039,WL,C,6.0
4,23.575000047683716,learn,36424.999952316284,Mon Jan 20 2025 16:15:04 GMT-0600 (Central Standard Time),543930.2000000179,A,shoreenter,O,enter,585,1,2398.7000000178814,541531.5,7039,WL,C,6.0
4,24.509000062942505,learn,35490.999937057495,Mon Jan 20 2025 16:15:04 GMT-0600 (Central Standard Time),544863.400000006,A,d,O,d,921,1,932.9000000059605,543930.5,7039,WL,C,7.0
4,24.79200005531311,learn,35207.99994468689,Mon Jan 20 2025 16:15:04 GMT-0600 (Central Standard Time),545146.5,A,do,O,o,276,1,1216.0,543930.5,7039,WL,C,7.0
4,25.008000135421753,learn,34991.99986457825,Mon Jan 20 2025 16:15:04 GMT-0600 (Central Standard Time),545362.900000006,A,doc,O,c,209,1,1432.4000000059605,543930.5,7039,WL,C,7.0
4,25.85800004005432,learn,34141.99995994568,Mon Jan 20 2025 16:15:04 GMT-0600 (Central Standard Time),546212.7000000179,A,doct,O,t,841,1,2282.2000000178814,543930.5,7039,WL,C,7.0
4,26.141000032424927,learn,33858.99996757507,Mon Jan 20 2025 16:15:04 GMT-0600 (Central Standard Time),546496.2000000179,A,docto,O,o,263,1,2565.7000000178814,543930.5,7039,WL,C,7.0
4,26.558000087738037,learn,33441.99991226196,Mon Jan 20 2025 16:15:04 GMT-0600 (Central Standard Time),546912.5,A,doctor,O,r,396,1,2982.0,543930.5,7039,WL,C,7.0
4,27.225000143051147,learn,32774.99985694885,Mon Jan 20 2025 16:15:04 GMT-0600 (Central Standard Time),547579.3000000119,A,doctorenter,O,enter,650,1,3648.800000011921,543930.5,7039,WL,C,7.0
4,28.973999977111816,learn,31026.000022888184,Mon Jan 20 2025 16:15:04 GMT-0600 (Central Standard Time),549328.400000006,A,b,O,b,1737,1,1748.7999999821186,547579.6000000238,7039,WL,C,8.0
4,29.091000080108643,learn,30908.999919891357,Mon Jan 20 2025 16:15:04 GMT-0600 (Central Standard Time),549445.3000000119,A,bo,O,o,106,1,1865.699999988079,547579.6000000238,7039,WL,C,8.0
4,29.61900019645691,learn,30380.99980354309,Mon Jan 20 2025 16:15:04 GMT-0600 (Central Standard Time),549973.3000000119,A,boy,O,y,521,1,2393.699999988079,547579.6000000238,7039,WL,C,8.0
4,30.19000005722046,learn,29809.99994277954,Mon Jan 20 2025 16:15:04 GMT-0600 (Central Standard Time),550544.8000000119,A,boyc,O,c,558,1,2965.199999988079,547579.6000000238,7039,WL,C,8.0
4,30.373000144958496,learn,29626.999855041504,Mon Jan 20 2025 16:15:04 GMT-0600 (Central Standard Time),550728.0,A,boyca,O,a,170,1,3148.399999976158,547579.6000000238,7039,WL,C,8.0
4,30.623000144958496,learn,29376.999855041504,Mon Jan 20 2025 16:15:04 GMT-0600 (Central Standard Time),550978.0,A,boycan,O,n,243,1,3398.399999976158,547579.6000000238,7039,WL,C,8.0
4,32.92300009727478,learn,27076.99990272522,Mon Jan 20 2025 16:15:04 GMT-0600 (Central Standard Time),553277.3000000119,A,boyca,O,backspace,2282,1,5697.699999988079,547579.6000000238,7039,WL,C,8.0
4,33.18900012969971,learn,26810.999870300293,Mon Jan 20 2025 16:15:04 GMT-0600 (Central Standard Time),553543.900000006,A,boyc,O,backspace,255,1,5964.299999982119,547579.6000000238,7039,WL,C,8.0
4,33.455000162124634,learn,26544.999837875366,Mon Jan 20 2025 16:15:04 GMT-0600 (Central Standard Time),553810.1000000238,A,boy,O,backspace,252,1,6230.5,547579.6000000238,7039,WL,C,8.0
4,34.42200016975403,learn,25577.99983024597,Mon Jan 20 2025 16:15:04 GMT-0600 (Central Standard Time),554776.900000006,A,boyenter,O,enter,954,1,7197.299999982119,547579.6000000238,7039,WL,C,8.0
4,34.955000162124634,learn,25044.999837875366,Mon Jan 20 2025 16:15:04 GMT-0600 (Central Standard Time),555310.0,A,c,O,c,522,1,532.6999999880791,554777.3000000119,7039,WL,C,9.0
4,35.205000162124634,learn,24794.999837875366,Mon Jan 20 2025 16:15:04 GMT-0600 (Central Standard Time),555559.900000006,A,ca,O,a,237,1,782.5999999940395,554777.3000000119,7039,WL,C,9.0
4,35.42200016975403,learn,24577.99983024597,Mon Jan 20 2025 16:15:04 GMT-0600 (Central Standard Time),555776.6000000238,A,cam,O,m,195,1,999.3000000119209,554777.3000000119,7039,WL,C,9.0
4,35.67300009727478,learn,24326.99990272522,Mon Jan 20 2025 16:15:04 GMT-0600 (Central Standard Time),556027.5,A,camp,O,p,228,1,1250.199999988079,554777.3000000119,7039,WL,C,9.0
4,36.48800015449524,learn,23511.99984550476,Mon Jan 20 2025 16:15:04 GMT-0600 (Central Standard Time),556842.900000006,A,campenter,O,enter,799,1,2065.5999999940395,554777.3000000119,7039,WL,C,9.0
4,43.85199999809265,learn,16148.000001907349,Mon Jan 20 2025 16:15:04 GMT-0600 (Central Standard Time),564207.2000000179,A,b,O,b,7344,1,7364.0,556843.2000000179,7039,WL,C,10.0
4,44.10199999809265,learn,15898.000001907349,Mon Jan 20 2025 16:15:04 GMT-0600 (Central Standard Time),564457.2000000179,A,bo,O,o,228,1,7614.0,556843.2000000179,7039,WL,C,10.0
4,44.85199999809265,learn,15148.000001907349,Mon Jan 20 2025 16:15:04 GMT-0600 (Central Standard Time),565206.900000006,A,bod,O,d,738,1,8363.699999988079,556843.2000000179,7039,WL,C,10.0
4,44.985000133514404,learn,15014.999866485596,Mon Jan 20 2025 16:15:04 GMT-0600 (Central Standard Time),565340.0,A,body,O,y,116,1,8496.799999982119,556843.2000000179,7039,WL,C,10.0
4,46.26800012588501,learn,13731.99987411499,Mon Jan 20 2025 16:15:04 GMT-0600 (Central Standard Time),566623.1000000238,A,bodyenter,O,enter,1263,1,9779.90000000596,556843.2000000179,7039,WL,C,10.0
4,56.33300018310547,learn,3666.9998168945312,Mon Jan 20 2025 16:15:04 GMT-0600 (Central Standard Time),576687.8000000119,A,f,O,f,10044,1,10064.300000011921,566623.5,7039,WL,C,11.0
4,56.665000200271606,learn,3334.9997997283936,Mon Jan 20 2025 16:15:04 GMT-0600 (Central Standard Time),577019.900000006,A,fl,O,l,322,1,10396.40000000596,566623.5,7039,WL,C,11.0
4,56.94800019264221,learn,3051.999807357788,Mon Jan 20 2025 16:15:04 GMT-0600 (Central Standard Time),577303.1000000238,A,fla,O,a,272,1,10679.600000023842,566623.5,7039,WL,C,11.0
4,57.96500015258789,learn,2034.9998474121094,Mon Jan 20 2025 16:15:04 GMT-0600 (Central Standard Time),578319.400000006,A,flag,O,g,997,1,11695.90000000596,566623.5,7039,WL,C,11.0
4,58.64800000190735,learn,1351.9999980926514,Mon Jan 20 2025 16:15:04 GMT-0600 (Central Standard Time),579002.5,A,flagenter,O,enter,660,1,12379.0,566623.5,7039,WL,C,11.0
4,60.01400017738342,learn,-14.000177383422852,Mon Jan 20 2025 16:15:04 GMT-0600 (Central Standard Time),580368.8000000119,A,None,O,None,1360,1,1366.0,579002.8000000119,7039,WL,C,12.0
5,2.2829999923706055,learn,60000.0,Mon Jan 20 2025 16:15:04 GMT-0600 (Central Standard Time),654828.900000006,A,t,O,t,2272,1,2282.7999999821186,652546.1000000238,7039,WL,C,1.0
5,2.866000175476074,learn,60000.0,Mon Jan 20 2025 16:15:04 GMT-0600 (Central Standard Time),655412.1000000238,A,to,O,o,565,1,2866.0,652546.1000000238,7039,WL,C,1.0
5,3.0490000247955322,learn,60000.0,Mon Jan 20 2025 16:15:04 GMT-0600 (Central Standard Time),655595.0,A,tow,O,w,175,1,3048.899999976158,652546.1000000238,7039,WL,C,1.0
5,3.3320000171661377,learn,60000.0,Mon Jan 20 2025 16:15:04 GMT-0600 (Central Standard Time),655878.6000000238,A,towe,O,e,270,1,3332.5,652546.1000000238,7039,WL,C,1.0
5,3.5990002155303955,learn,60000.0,Mon Jan 20 2025 16:15:04 GMT-0600 (Central Standard Time),656145.1000000238,A,tower,O,r,244,1,3599.0,652546.1000000238,7039,WL,C,1.0
5,4.880000114440918,learn,60000.0,Mon Jan 20 2025 16:15:04 GMT-0600 (Central Standard Time),657427.900000006,A,towerenter,O,enter,1275,1,4881.799999982119,652546.1000000238,7039,WL,C,1.0
5,6.064000129699707,learn,60000.0,Mon Jan 20 2025 16:15:04 GMT-0600 (Central Standard Time),658611.2000000179,A,w,O,w,1168,1,1183.0999999940395,657428.1000000238,7039,WL,C,2.0
5,6.447000026702881,learn,60000.0,Mon Jan 20 2025 16:15:04 GMT-0600 (Central Standard Time),658994.5,A,wh,O,h,367,1,1566.3999999761581,657428.1000000238,7039,WL,C,2.0
5,7.247000217437744,learn,60000.0,Mon Jan 20 2025 16:15:04 GMT-0600 (Central Standard Time),659794.0,A,whe,O,e,785,1,2365.899999976158,657428.1000000238,7039,WL,C,2.0
5,7.446000099182129,learn,60000.0,Mon Jan 20 2025 16:15:04 GMT-0600 (Central Standard Time),659993.8000000119,A,whea,O,a,177,1,2565.699999988079,657428.1000000238,7039,WL,C,2.0
5,7.713000059127808,learn,60000.0,Mon Jan 20 2025 16:15:04 GMT-0600 (Central Standard Time),660260.2000000179,A,wheat,O,t,248,1,2832.0999999940395,657428.1000000238,7039,WL,C,2.0
5,8.180000066757202,learn,60000.0,Mon Jan 20 2025 16:15:04 GMT-0600 (Central Standard Time),660727.1000000238,A,wheatenter,O,enter,455,1,3299.0,657428.1000000238,7039,WL,C,2.0
5,9.729000091552734,learn,60000.0,Mon Jan 20 2025 16:15:04 GMT-0600 (Central Standard Time),662276.5,A,q,O,q,1540,1,1549.0999999940395,660727.400000006,7039,WL,C,3.0
5,10.129000186920166,learn,60000.0,Mon Jan 20 2025 16:15:04 GMT-0600 (Central Standard Time),662676.400000006,A,qu,O,u,382,1,1949.0,660727.400000006,7039,WL,C,3.0
5,10.42900013923645,learn,60000.0,Mon Jan 20 2025 16:15:04 GMT-0600 (Central Standard Time),662976.3000000119,A,que,O,e,287,1,2248.9000000059605,660727.400000006,7039,WL,C,3.0
5,10.59600019454956,learn,60000.0,Mon Jan 20 2025 16:15:04 GMT-0600 (Central Standard Time),663143.1000000238,A,quee,O,e,155,1,2415.7000000178814,660727.400000006,7039,WL,C,3.0
5,11.479000091552734,learn,60000.0,Mon Jan 20 2025 16:15:04 GMT-0600 (Central Standard Time),664026.2000000179,A,queen,O,n,860,1,3298.800000011921,660727.400000006,7039,WL,C,3.0
5,12.144999980926514,learn,60000.0,Mon Jan 20 2025 16:15:04 GMT-0600 (Central Standard Time),664692.5,A,queenenter,O,enter,657,1,3965.0999999940395,660727.400000006,7039,WL,C,3.0
5,12.611999988555908,learn,60000.0,Mon Jan 20 2025 16:15:04 GMT-0600 (Central Standard Time),665159.0,A,s,O,s,447,1,466.09999999403954,664692.900000006,7039,WL,C,4.0
5,12.84500002861023,learn,60000.0,Mon Jan 20 2025 16:15:04 GMT-0600 (Central Standard Time),665392.2000000179,A,su,O,u,221,1,699.3000000119209,664692.900000006,7039,WL,C,4.0
5,13.245000123977661,learn,60000.0,Mon Jan 20 2025 16:15:04 GMT-0600 (Central Standard Time),665792.1000000238,A,sug,O,g,379,1,1099.2000000178814,664692.900000006,7039,WL,C,4.0
5,13.628000020980835,learn,60000.0,Mon Jan 20 2025 16:15:04 GMT-0600 (Central Standard Time),666175.3000000119,A,suga,O,a,371,1,1482.4000000059605,664692.900000006,7039,WL,C,4.0
5,14.644000053405762,learn,60000.0,Mon Jan 20 2025 16:15:04 GMT-0600 (Central Standard Time),667191.8000000119,A,sugar,O,r,1004,1,2498.9000000059605,664692.900000006,7039,WL,C,4.0
5,15.711000204086304,learn,60000.0,Mon Jan 20 2025 16:15:04 GMT-0600 (Central Standard Time),668258.0,A,sugarenter,O,enter,1051,1,3565.0999999940395,664692.900000006,7039,WL,C,4.0
5,16.81000018119812,learn,60000.0,Mon Jan 20 2025 16:15:04 GMT-0600 (Central Standard Time),669357.7000000179,A,b,O,b,1089,1,1099.4000000059605,668258.3000000119,7039,WL,C,5.0
5,16.960000038146973,learn,60000.0,Mon Jan 20 2025 16:15:04 GMT-0600 (Central Standard Time),669507.400000006,A,bo,O,o,133,1,1249.0999999940395,668258.3000000119,7039,WL,C,5.0
5,17.427000045776367,learn,60000.0,Mon Jan 20 2025 16:15:04 GMT-0600 (Central Standard Time),669974.0,A,boy,O,y,456,1,1715.699999988079,668258.3000000119,7039,WL,C,5.0
5,18.14300012588501,learn,60000.0,Mon Jan 20 2025 16:15:04 GMT-0600 (Central Standard Time),670690.5,A,boyenter,O,enter,710,1,2432.199999988079,668258.3000000119,7039,WL,C,5.0
5,18.776000022888184,learn,60000.0,Mon Jan 20 2025 16:15:04 GMT-0600 (Central Standard Time),671323.5,A,d,O,d,625,1,632.7999999821186,670690.7000000179,7039,WL,C,6.0
5,18.91000008583069,learn,60000.0,Mon Jan 20 2025 16:15:04 GMT-0600 (Central Standard Time),671457.0,A,do,O,o,120,1,766.2999999821186,670690.7000000179,7039,WL,C,6.0
5,19.159000158309937,learn,60000.0,Mon Jan 20 2025 16:15:04 GMT-0600 (Central Standard Time),671706.8000000119,A,doc,O,c,226,1,1016.0999999940395,670690.7000000179,7039,WL,C,6.0
5,19.693000078201294,learn,60000.0,Mon Jan 20 2025 16:15:04 GMT-0600 (Central Standard Time),672240.0,A,doct,O,t,521,1,1549.2999999821186,670690.7000000179,7039,WL,C,6.0
5,19.87600016593933,learn,60000.0,Mon Jan 20 2025 16:15:04 GMT-0600 (Central Standard Time),672423.3000000119,A,docto,O,o,164,1,1732.5999999940395,670690.7000000179,7039,WL,C,6.0
5,20.342000007629395,learn,60000.0,Mon Jan 20 2025 16:15:04 GMT-0600 (Central Standard Time),672889.900000006,A,doctor,O,r,452,1,2199.199999988079,670690.7000000179,7039,WL,C,6.0
5,21.175000190734863,learn,60000.0,Mon Jan 20 2025 16:15:04 GMT-0600 (Central Standard Time),673722.8000000119,A,doctorenter,O,enter,825,1,3032.0999999940395,670690.7000000179,7039,WL,C,6.0
5,21.892000198364258,learn,60000.0,Mon Jan 20 2025 16:15:04 GMT-0600 (Central Standard Time),674439.3000000119,A,c,O,c,696,1,716.1999999880791,673723.1000000238,7039,WL,C,7.0
5,22.175000190734863,learn,60000.0,Mon Jan 20 2025 16:15:04 GMT-0600 (Central Standard Time),674722.6000000238,A,ca,O,a,260,1,999.5,673723.1000000238,7039,WL,C,7.0
5,22.625,learn,60000.0,Mon Jan 20 2025 16:15:04 GMT-0600 (Central Standard Time),675172.400000006,A,cam,O,m,441,1,1449.2999999821186,673723.1000000238,7039,WL,C,7.0
5,23.075000047683716,learn,60000.0,Mon Jan 20 2025 16:15:04 GMT-0600 (Central Standard Time),675622.1000000238,A,camp,O,p,439,1,1899.0,673723.1000000238,7039,WL,C,7.0
5,23.891000032424927,learn,60000.0,Mon Jan 20 2025 16:15:04 GMT-0600 (Central Standard Time),676438.7000000179,A,campenter,O,enter,805,1,2715.5999999940395,673723.1000000238,7039,WL,C,7.0
5,24.741000175476074,learn,60000.0,Mon Jan 20 2025 16:15:04 GMT-0600 (Central Standard Time),677288.3000000119,A,f,O,f,837,1,849.3000000119209,676439.0,7039,WL,C,8.0
5,24.95800018310547,learn,60000.0,Mon Jan 20 2025 16:15:04 GMT-0600 (Central Standard Time),677505.1000000238,A,fl,O,l,203,1,1066.1000000238419,676439.0,7039,WL,C,8.0
5,25.20800018310547,learn,60000.0,Mon Jan 20 2025 16:15:04 GMT-0600 (Central Standard Time),677755.0,A,fla,O,a,227,1,1316.0,676439.0,7039,WL,C,8.0
5,26.52400016784668,learn,60000.0,Mon Jan 20 2025 16:15:04 GMT-0600 (Central Standard Time),679071.1000000238,A,flag,O,g,1305,1,2632.100000023842,676439.0,7039,WL,C,8.0
5,27.407000064849854,learn,60000.0,Mon Jan 20 2025 16:15:04 GMT-0600 (Central Standard Time),679954.3000000119,A,flagenter,O,enter,868,1,3515.300000011921,676439.0,7039,WL,C,8.0
5,28.77300000190735,learn,60000.0,Mon Jan 20 2025 16:15:04 GMT-0600 (Central Standard Time),681320.5,A,n,O,n,1353,1,1365.8999999761581,679954.6000000238,7039,WL,C,9.0
5,28.94000005722046,learn,60000.0,Mon Jan 20 2025 16:15:04 GMT-0600 (Central Standard Time),681487.1000000238,A,na,O,a,147,1,1532.5,679954.6000000238,7039,WL,C,9.0
5,29.09000015258789,learn,60000.0,Mon Jan 20 2025 16:15:04 GMT-0600 (Central Standard Time),681637.0,A,nai,O,i,132,1,1682.3999999761581,679954.6000000238,7039,WL,C,9.0
5,29.390000104904175,learn,60000.0,Mon Jan 20 2025 16:15:04 GMT-0600 (Central Standard Time),681937.0,A,nail,O,l,278,1,1982.3999999761581,679954.6000000238,7039,WL,C,9.0
5,30.77300000190735,learn,60000.0,Mon Jan 20 2025 16:15:04 GMT-0600 (Central Standard Time),683320.0,A,nailenter,O,enter,1362,1,3365.399999976158,679954.6000000238,7039,WL,C,9.0
5,31.639000177383423,learn,60000.0,Mon Jan 20 2025 16:15:04 GMT-0600 (Central Standard Time),684186.5,A,s,O,s,843,1,866.1999999880791,683320.3000000119,7039,WL,C,10.0
5,31.75600004196167,learn,60000.0,Mon Jan 20 2025 16:15:04 GMT-0600 (Central Standard Time),684302.900000006,A,sh,O,h,97,1,982.5999999940395,683320.3000000119,7039,WL,C,10.0
5,31.98900008201599,learn,60000.0,Mon Jan 20 2025 16:15:04 GMT-0600 (Central Standard Time),684536.0,A,sho,O,o,220,1,1215.699999988079,683320.3000000119,7039,WL,C,10.0
5,32.42200016975403,learn,60000.0,Mon Jan 20 2025 16:15:04 GMT-0600 (Central Standard Time),684969.2000000179,A,shor,O,r,419,1,1648.9000000059605,683320.3000000119,7039,WL,C,10.0
5,32.65500020980835,learn,60000.0,Mon Jan 20 2025 16:15:04 GMT-0600 (Central Standard Time),685202.5,A,shore,O,e,226,1,1882.199999988079,683320.3000000119,7039,WL,C,10.0
5,33.33800005912781,learn,60000.0,Mon Jan 20 2025 16:15:04 GMT-0600 (Central Standard Time),685885.6000000238,A,shoreenter,O,enter,674,1,2565.300000011921,683320.3000000119,7039,WL,C,10.0
5,34.03800010681152,learn,60000.0,Mon Jan 20 2025 16:15:04 GMT-0600 (Central Standard Time),686585.5,A,c,O,c,685,1,699.5999999940395,685885.900000006,7039,WL,C,11.0
5,34.23800015449524,learn,60000.0,Mon Jan 20 2025 16:15:04 GMT-0600 (Central Standard Time),686785.400000006,A,ca,O,a,178,1,899.5,685885.900000006,7039,WL,C,11.0
5,34.5550000667572,learn,60000.0,Mon Jan 20 2025 16:15:04 GMT-0600 (Central Standard Time),687102.0,A,cat,O,t,298,1,1216.0999999940395,685885.900000006,7039,WL,C,11.0
5,34.7039999961853,learn,60000.0,Mon Jan 20 2025 16:15:04 GMT-0600 (Central Standard Time),687251.8000000119,A,catt,O,t,134,1,1365.9000000059605,685885.900000006,7039,WL,C,11.0
5,34.87100005149841,learn,60000.0,Mon Jan 20 2025 16:15:04 GMT-0600 (Central Standard Time),687418.7000000179,A,cattl,O,l,144,1,1532.800000011921,685885.900000006,7039,WL,C,11.0
5,35.05400013923645,learn,60000.0,Mon Jan 20 2025 16:15:04 GMT-0600 (Central Standard Time),687601.8000000119,A,cattle,O,e,161,1,1715.9000000059605,685885.900000006,7039,WL,C,11.0
5,36.271000146865845,learn,60000.0,Mon Jan 20 2025 16:15:04 GMT-0600 (Central Standard Time),688818.2000000179,A,cattleenter,O,enter,1193,1,2932.300000011921,685885.900000006,7039,WL,C,11.0
5,37.087000131607056,learn,60000.0,Mon Jan 20 2025 16:15:04 GMT-0600 (Central Standard Time),689634.5,A,c,O,c,794,1,815.8999999761581,688818.6000000238,7039,WL,C,12.0
5,37.269999980926514,learn,60000.0,Mon Jan 20 2025 16:15:04 GMT-0600 (Central Standard Time),689817.8000000119,A,ca,O,a,161,1,999.1999999880791,688818.6000000238,7039,WL,C,12.0
5,37.854000091552734,learn,60000.0,Mon Jan 20 2025 16:15:04 GMT-0600 (Central Standard Time),690401.1000000238,A,cam,O,m,569,1,1582.5,688818.6000000238,7039,WL,C,12.0
5,38.254000186920166,learn,60000.0,Mon Jan 20 2025 16:15:04 GMT-0600 (Central Standard Time),690801.0,A,camp,O,p,378,1,1982.3999999761581,688818.6000000238,7039,WL,C,12.0
5,39.32000017166138,learn,60000.0,Mon Jan 20 2025 16:15:04 GMT-0600 (Central Standard Time),691867.0,A,campenter,O,enter,1050,1,3048.399999976158,688818.6000000238,7039,WL,C,12.0
5,41.63600015640259,learn,60000.0,Mon Jan 20 2025 16:15:04 GMT-0600 (Central Standard Time),694183.2000000179,A,b,O,b,2296,1,2315.800000011921,691867.400000006,7039,WL,C,13.0
5,41.76900005340576,learn,60000.0,Mon Jan 20 2025 16:15:04 GMT-0600 (Central Standard Time),694316.400000006,A,bo,O,o,116,1,2449.0,691867.400000006,7039,WL,C,13.0
5,43.47000002861023,learn,60000.0,Mon Jan 20 2025 16:15:04 GMT-0600 (Central Standard Time),696017.1000000238,A,bod,O,d,1679,1,4149.700000017881,691867.400000006,7039,WL,C,13.0
5,43.569000005722046,learn,60000.0,Mon Jan 20 2025 16:15:04 GMT-0600 (Central Standard Time),696116.0,A,body,O,y,82,1,4248.5999999940395,691867.400000006,7039,WL,C,13.0
5,44.93500018119812,learn,60000.0,Mon Jan 20 2025 16:15:04 GMT-0600 (Central Standard Time),697482.2000000179,A,bodyenter,O,enter,1343,1,5614.800000011921,691867.400000006,7039,WL,C,13.0
5,45.70100021362305,learn,60000.0,Mon Jan 20 2025 16:15:04 GMT-0600 (Central Standard Time),698248.400000006,A,s,O,s,754,1,765.9000000059605,697482.5,7039,WL,C,14.0
5,45.818000078201294,learn,60000.0,Mon Jan 20 2025 16:15:04 GMT-0600 (Central Standard Time),698365.3000000119,A,sh,O,h,99,1,882.8000000119209,697482.5,7039,WL,C,14.0
5,46.051000118255615,learn,60000.0,Mon Jan 20 2025 16:15:04 GMT-0600 (Central Standard Time),698598.5,A,sho,O,o,214,1,1116.0,697482.5,7039,WL,C,14.0
5,46.33400011062622,learn,60000.0,Mon Jan 20 2025 16:15:04 GMT-0600 (Central Standard Time),698881.6000000238,A,shor,O,r,269,1,1399.1000000238419,697482.5,7039,WL,C,14.0
5,46.6010000705719,learn,60000.0,Mon Jan 20 2025 16:15:04 GMT-0600 (Central Standard Time),699148.2000000179,A,shore,O,e,250,1,1665.7000000178814,697482.5,7039,WL,C,14.0
5,48.05000019073486,learn,60000.0,Mon Jan 20 2025 16:15:04 GMT-0600 (Central Standard Time),700597.8000000119,A,shoreenter,O,enter,1431,1,3115.300000011921,697482.5,7039,WL,C,14.0
5,50.43300008773804,learn,60000.0,Mon Jan 20 2025 16:15:04 GMT-0600 (Central Standard Time),702980.5,A,n,O,n,2365,1,2382.399999976158,700598.1000000238,7039,WL,C,15.0
5,50.58300018310547,learn,60000.0,Mon Jan 20 2025 16:15:04 GMT-0600 (Central Standard Time),703130.400000006,A,na,O,a,142,1,2532.2999999821186,700598.1000000238,7039,WL,C,15.0
5,50.68300008773804,learn,60000.0,Mon Jan 20 2025 16:15:04 GMT-0600 (Central Standard Time),703230.400000006,A,nai,O,i,90,1,2632.2999999821186,700598.1000000238,7039,WL,C,15.0
5,50.950000047683716,learn,60000.0,Mon Jan 20 2025 16:15:04 GMT-0600 (Central Standard Time),703497.0,A,nail,O,l,245,1,2898.899999976158,700598.1000000238,7039,WL,C,15.0
5,51.89900016784668,learn,60000.0,Mon Jan 20 2025 16:15:04 GMT-0600 (Central Standard Time),704446.6000000238,A,nailenter,O,enter,930,1,3848.5,700598.1000000238,7039,WL,C,15.0
6,1.4830000400543213,distr,58516.99995994568,Mon Jan 20 2025 16:15:04 GMT-0600 (Central Standard Time),780922.8000000119,B,h,O,h,1460,1,1482.9000000059605,779439.900000006,7039,WL,C,1.0
6,1.5989999771118164,distr,58401.00002288818,Mon Jan 20 2025 16:15:04 GMT-0600 (Central Standard Time),781039.400000006,B,ho,O,o,103,1,1599.5,779439.900000006,7039,WL,C,1.0
6,2.5989999771118164,distr,57401.00002288818,Mon Jan 20 2025 16:15:04 GMT-0600 (Central Standard Time),782039.1000000238,B,hot,O,t,987,1,2599.2000000178814,779439.900000006,7039,WL,C,1.0
6,3.0989999771118164,distr,56901.00002288818,Mon Jan 20 2025 16:15:04 GMT-0600 (Central Standard Time),782539.3000000119,B,hote,O,e,484,1,3099.4000000059605,779439.900000006,7039,WL,C,1.0
6,3.2320001125335693,distr,56767.99988746643,Mon Jan 20 2025 16:15:04 GMT-0600 (Central Standard Time),782672.2000000179,B,hotel,O,l,112,1,3232.300000011921,779439.900000006,7039,WL,C,1.0
6,4.365000009536743,distr,55634.99999046326,Mon Jan 20 2025 16:15:04 GMT-0600 (Central Standard Time),783805.1000000238,B,hotelenter,O,enter,1115,1,4365.200000017881,779439.900000006,7039,WL,C,1.0
6,6.614000082015991,distr,53385.99991798401,Mon Jan 20 2025 16:15:04 GMT-0600 (Central Standard Time),786054.5,B,s,O,s,2230,1,2249.0,783805.5,7039,WL,C,2.0
6,6.7149999141693115,distr,53285.00008583069,Mon Jan 20 2025 16:15:04 GMT-0600 (Central Standard Time),786154.7000000179,B,sk,O,k,85,1,2349.2000000178814,783805.5,7039,WL,C,2.0
6,7.04800009727478,distr,52951.99990272522,Mon Jan 20 2025 16:15:04 GMT-0600 (Central Standard Time),786487.5,B,sky,O,y,312,1,2682.0,783805.5,7039,WL,C,2.0
6,7.796999931335449,distr,52203.00006866455,Mon Jan 20 2025 16:15:04 GMT-0600 (Central Standard Time),787237.2000000179,B,skyenter,O,enter,740,1,3431.7000000178814,783805.5,7039,WL,C,2.0
6,8.530999898910522,distr,51469.00010108948,Mon Jan 20 2025 16:15:04 GMT-0600 (Central Standard Time),787970.6000000238,B,d,O,d,711,1,733.1000000238419,787237.5,7039,WL,C,3.0
6,8.730000019073486,distr,51269.999980926514,Mon Jan 20 2025 16:15:04 GMT-0600 (Central Standard Time),788170.400000006,B,do,O,o,184,1,932.9000000059605,787237.5,7039,WL,C,3.0
6,8.996999979019165,distr,51003.000020980835,Mon Jan 20 2025 16:15:04 GMT-0600 (Central Standard Time),788437.0,B,dol,O,l,257,1,1199.5,787237.5,7039,WL,C,3.0
6,10.430000066757202,distr,49569.9999332428,Mon Jan 20 2025 16:15:04 GMT-0600 (Central Standard Time),789870.0,B,doll,O,l,1414,1,2632.5,787237.5,7039,WL,C,3.0
6,11.213000059127808,distr,48786.99994087219,Mon Jan 20 2025 16:15:04 GMT-0600 (Central Standard Time),790653.1000000238,B,dolla,O,a,773,1,3415.600000023842,787237.5,7039,WL,C,3.0
6,11.61299991607666,distr,48387.00008392334,Mon Jan 20 2025 16:15:04 GMT-0600 (Central Standard Time),791052.900000006,B,dollar,O,r,390,1,3815.4000000059605,787237.5,7039,WL,C,3.0
6,12.095999956130981,distr,47904.00004386902,Mon Jan 20 2025 16:15:04 GMT-0600 (Central Standard Time),791536.1000000238,B,dollarenter,O,enter,471,1,4298.600000023842,787237.5,7039,WL,C,3.0
6,13.84500002861023,distr,46154.99997138977,Mon Jan 20 2025 16:15:04 GMT-0600 (Central Standard Time),793285.400000006,B,m,O,m,1732,1,1749.0,791536.400000006,7039,WL,C,4.0
6,14.09500002861023,distr,45904.99997138977,Mon Jan 20 2025 16:15:04 GMT-0600 (Central Standard Time),793535.5,B,mo,O,o,230,1,1999.0999999940395,791536.400000006,7039,WL,C,4.0
6,14.494999885559082,distr,45505.00011444092,Mon Jan 20 2025 16:15:04 GMT-0600 (Central Standard Time),793935.400000006,B,mon,O,n,388,1,2399.0,791536.400000006,7039,WL,C,4.0
6,15.111999988555908,distr,44888.00001144409,Mon Jan 20 2025 16:15:04 GMT-0600 (Central Standard Time),794551.7000000179,B,mone,O,e,604,1,3015.300000011921,791536.400000006,7039,WL,C,4.0
6,15.227999925613403,distr,44772.0000743866,Mon Jan 20 2025 16:15:04 GMT-0600 (Central Standard Time),794668.3000000119,B,money,O,y,99,1,3131.9000000059605,791536.400000006,7039,WL,C,4.0
6,16.51099991798401,distr,43489.00008201599,Mon Jan 20 2025 16:15:04 GMT-0600 (Central Standard Time),795951.3000000119,B,moneyenter,O,enter,1264,1,4414.9000000059605,791536.400000006,7039,WL,C,4.0
6,17.677000045776367,distr,42322.99995422363,Mon Jan 20 2025 16:15:04 GMT-0600 (Central Standard Time),797117.5,B,c,O,c,1148,1,1165.8999999761581,795951.6000000238,7039,WL,C,5.0
6,17.76099991798401,distr,42239.00008201599,Mon Jan 20 2025 16:15:04 GMT-0600 (Central Standard Time),797201.1000000238,B,ch,O,h,61,1,1249.5,795951.6000000238,7039,WL,C,5.0
6,18.043999910354614,distr,41956.000089645386,Mon Jan 20 2025 16:15:04 GMT-0600 (Central Standard Time),797484.3000000119,B,chr,O,r,266,1,1532.699999988079,795951.6000000238,7039,WL,C,5.0
6,18.210999965667725,distr,41789.000034332275,Mon Jan 20 2025 16:15:04 GMT-0600 (Central Standard Time),797651.0,B,chri,O,i,143,1,1699.3999999761581,795951.6000000238,7039,WL,C,5.0
6,18.344000101089478,distr,41655.99989891052,Mon Jan 20 2025 16:15:04 GMT-0600 (Central Standard Time),797784.1000000238,B,chris,O,s,121,1,1832.5,795951.6000000238,7039,WL,C,5.0
6,18.57800006866455,distr,41421.99993133545,Mon Jan 20 2025 16:15:04 GMT-0600 (Central Standard Time),798017.6000000238,B,christ,O,t,219,1,2066.0,795951.6000000238,7039,WL,C,5.0
6,18.89400005340576,distr,41105.99994659424,Mon Jan 20 2025 16:15:04 GMT-0600 (Central Standard Time),798333.8000000119,B,christn,O,n,298,1,2382.199999988079,795951.6000000238,7039,WL,C,5.0
6,19.927000045776367,distr,40072.99995422363,Mon Jan 20 2025 16:15:04 GMT-0600 (Central Standard Time),799367.0,B,christ,O,backspace,1013,1,3415.399999976158,795951.6000000238,7039,WL,C,5.0
6,20.359999895095825,distr,39640.000104904175,Mon Jan 20 2025 16:15:04 GMT-0600 (Central Standard Time),799800.2000000179,B,christm,O,m,421,1,3848.5999999940395,795951.6000000238,7039,WL,C,5.0
6,20.57699990272522,distr,39423.00009727478,Mon Jan 20 2025 16:15:04 GMT-0600 (Central Standard Time),800016.6000000238,B,christma,O,a,196,1,4065.0,795951.6000000238,7039,WL,C,5.0
6,20.943000078201294,distr,39056.999921798706,Mon Jan 20 2025 16:15:04 GMT-0600 (Central Standard Time),800383.3000000119,B,christmas,O,s,354,1,4431.699999988079,795951.6000000238,7039,WL,C,5.0
6,21.776000022888184,distr,38223.99997711182,Mon Jan 20 2025 16:15:04 GMT-0600 (Central Standard Time),801216.3000000119,B,christmasenter,O,enter,820,1,5264.699999988079,795951.6000000238,7039,WL,C,5.0
6,22.509000062942505,distr,37490.999937057495,Mon Jan 20 2025 16:15:04 GMT-0600 (Central Standard Time),801949.400000006,B,n,O,n,715,1,732.6999999880791,801216.7000000179,7039,WL,C,6.0
6,23.2260000705719,distr,36773.9999294281,Mon Jan 20 2025 16:15:04 GMT-0600 (Central Standard Time),802666.0,B,,O,backspace,693,1,1449.2999999821186,801216.7000000179,7039,WL,C,6.0
6,24.026000022888184,distr,35973.99997711182,Mon Jan 20 2025 16:15:04 GMT-0600 (Central Standard Time),803465.6000000238,B,m,O,m,785,1,2248.9000000059605,801216.7000000179,7039,WL,C,6.0
6,24.325000047683716,distr,35674.999952316284,Mon Jan 20 2025 16:15:04 GMT-0600 (Central Standard Time),803765.5,B,mo,O,o,282,1,2548.7999999821186,801216.7000000179,7039,WL,C,6.0
6,24.575000047683716,distr,35424.999952316284,Mon Jan 20 2025 16:15:04 GMT-0600 (Central Standard Time),804015.400000006,B,mot,O,t,238,1,2798.699999988079,801216.7000000179,7039,WL,C,6.0
6,24.70900011062622,distr,35290.99988937378,Mon Jan 20 2025 16:15:04 GMT-0600 (Central Standard Time),804148.7000000179,B,moth,O,h,116,1,2932.0,801216.7000000179,7039,WL,C,6.0
6,24.89199995994568,distr,35108.00004005432,Mon Jan 20 2025 16:15:04 GMT-0600 (Central Standard Time),804332.1000000238,B,mothe,O,e,174,1,3115.4000000059605,801216.7000000179,7039,WL,C,6.0
6,25.158999919891357,distr,34841.00008010864,Mon Jan 20 2025 16:15:04 GMT-0600 (Central Standard Time),804598.5,B,mother,O,r,255,1,3381.7999999821186,801216.7000000179,7039,WL,C,6.0
6,26.70799994468689,distr,33292.00005531311,Mon Jan 20 2025 16:15:04 GMT-0600 (Central Standard Time),806148.2000000179,B,motherenter,O,enter,1541,1,4931.5,801216.7000000179,7039,WL,C,6.0
6,34.92199993133545,distr,25078.00006866455,Mon Jan 20 2025 16:15:04 GMT-0600 (Central Standard Time),814362.2000000179,B,t,O,t,8199,1,8213.700000017881,806148.5,7039,WL,C,7.0
6,35.138999938964844,distr,24861.000061035156,Mon Jan 20 2025 16:15:04 GMT-0600 (Central Standard Time),814578.6000000238,B,to,O,o,209,1,8430.100000023842,806148.5,7039,WL,C,7.0
6,35.3050000667572,distr,24694.999933242798,Mon Jan 20 2025 16:15:04 GMT-0600 (Central Standard Time),814745.3000000119,B,too,O,o,152,1,8596.800000011921,806148.5,7039,WL,C,7.0
6,35.5220000743866,distr,24477.999925613403,Mon Jan 20 2025 16:15:04 GMT-0600 (Central Standard Time),814962.1000000238,B,tool,O,l,194,1,8813.600000023842,806148.5,7039,WL,C,7.0
6,36.621999979019165,distr,23378.000020980835,Mon Jan 20 2025 16:15:04 GMT-0600 (Central Standard Time),816061.6000000238,B,toolenter,O,enter,1090,1,9913.100000023842,806148.5,7039,WL,C,7.0
6,54.15000009536743,distr,5849.999904632568,Mon Jan 20 2025 16:15:04 GMT-0600 (Central Standard Time),833589.7000000179,B,enter,O,enter,17518,1,17527.70000001788,816062.0,7039,WL,C,8.0
6,55.04900002479553,distr,4950.999975204468,Mon Jan 20 2025 16:15:04 GMT-0600 (Central Standard Time),834489.3000000119,B,enter,O,enter,885,1,899.3000000119209,833590.0,7039,WL,C,9.0
6,55.54900002479553,distr,4450.999975204468,Mon Jan 20 2025 16:15:04 GMT-0600 (Central Standard Time),834989.2000000179,B,enter,O,enter,490,1,499.7000000178814,834489.5,7039,WL,C,10.0
6,55.98200011253357,distr,4017.9998874664307,Mon Jan 20 2025 16:15:04 GMT-0600 (Central Standard Time),835422.2000000179,B,enter,O,enter,422,1,432.59999999403954,834989.6000000238,7039,WL,C,11.0
6,56.41599988937378,distr,3584.0001106262207,Mon Jan 20 2025 16:15:04 GMT-0600 (Central Standard Time),835855.6000000238,B,enter,O,enter,413,1,432.90000000596046,835422.7000000179,7039,WL,C,12.0
6,56.86500000953674,distr,3134.999990463257,Mon Jan 20 2025 16:15:04 GMT-0600 (Central Standard Time),836305.400000006,B,enter,O,enter,428,1,449.2999999821186,835856.1000000238,7039,WL,C,13.0
6,57.265000104904175,distr,2734.999895095825,Mon Jan 20 2025 16:15:04 GMT-0600 (Central Standard Time),836705.3000000119,B,enter,O,enter,386,1,399.5,836305.8000000119,7039,WL,C,14.0
6,57.8989999294281,distr,2101.0000705718994,Mon Jan 20 2025 16:15:04 GMT-0600 (Central Standard Time),837338.6000000238,B,enter,O,enter,610,1,633.0,836705.6000000238,7039,WL,C,15.0
7,3.0460000038146973,immed,56953.9999961853,Mon Jan 20 2025 16:15:04 GMT-0600 (Central Standard Time),856229.7000000179,A,w,O,w,2902,1,3046.4000000059605,853183.3000000119,7039,WL,C,1.0
7,3.054999828338623,immed,56945.00017166138,Mon Jan 20 2025 16:15:04 GMT-0600 (Central Standard Time),856238.6000000238,A,wh,O,h,0,1,3055.300000011921,853183.3000000119,7039,WL,C,1.0
7,3.2819998264312744,immed,56718.000173568726,Mon Jan 20 2025 16:15:04 GMT-0600 (Central Standard Time),856465.6000000238,A,whe,O,e,204,1,3282.300000011921,853183.3000000119,7039,WL,C,1.0
7,3.482999801635742,immed,56517.00019836426,Mon Jan 20 2025 16:15:04 GMT-0600 (Central Standard Time),856665.900000006,A,whea,O,a,173,1,3482.5999999940395,853183.3000000119,7039,WL,C,1.0
7,3.8319997787475586,immed,56168.00022125244,Mon Jan 20 2025 16:15:04 GMT-0600 (Central Standard Time),857015.5,A,wheat,O,t,337,1,3832.199999988079,853183.3000000119,7039,WL,C,1.0
7,5.764999866485596,immed,54235.000133514404,Mon Jan 20 2025 16:15:04 GMT-0600 (Central Standard Time),858948.1000000238,A,whea,O,backspace,1915,1,5764.800000011921,853183.3000000119,7039,WL,C,1.0
7,8.680999994277954,immed,51319.000005722046,Mon Jan 20 2025 16:15:04 GMT-0600 (Central Standard Time),861864.0,A,wheat,O,t,2895,1,8680.699999988079,853183.3000000119,7039,WL,C,1.0
7,8.996999979019165,immed,51003.000020980835,Mon Jan 20 2025 16:15:04 GMT-0600 (Central Standard Time),862180.7000000179,A,wheatenter,O,enter,300,1,8997.40000000596,853183.3000000119,7039,WL,C,1.0
7,11.096999883651733,immed,48903.00011634827,Mon Jan 20 2025 16:15:04 GMT-0600 (Central Standard Time),864279.900000006,A,q,O,q,2079,1,2098.9000000059605,862181.0,7039,WL,C,2.0
7,11.245999813079834,immed,48754.000186920166,Mon Jan 20 2025 16:15:04 GMT-0600 (Central Standard Time),864429.7000000179,A,qu,O,u,139,1,2248.7000000178814,862181.0,7039,WL,C,2.0
7,11.52999997138977,immed,48470.00002861023,Mon Jan 20 2025 16:15:04 GMT-0600 (Central Standard Time),864713.2000000179,A,que,O,e,262,1,2532.2000000178814,862181.0,7039,WL,C,2.0
7,11.679999828338623,immed,48320.00017166138,Mon Jan 20 2025 16:15:04 GMT-0600 (Central Standard Time),864863.1000000238,A,quee,O,e,139,1,2682.100000023842,862181.0,7039,WL,C,2.0
7,12.429999828338623,immed,47570.00017166138,Mon Jan 20 2025 16:15:04 GMT-0600 (Central Standard Time),865612.8000000119,A,queen,O,n,732,1,3431.800000011921,862181.0,7039,WL,C,2.0
7,14.095999956130981,immed,45904.00004386902,Mon Jan 20 2025 16:15:04 GMT-0600 (Central Standard Time),867278.8000000119,A,queenenter,O,enter,1647,1,5097.800000011921,862181.0,7039,WL,C,2.0
7,16.244999885559082,immed,43755.00011444092,Mon Jan 20 2025 16:15:04 GMT-0600 (Central Standard Time),869428.5,A,d,O,d,2141,1,2149.5,867279.0,7039,WL,C,3.0
7,16.394999980926514,immed,43605.000019073486,Mon Jan 20 2025 16:15:04 GMT-0600 (Central Standard Time),869578.400000006,A,do,O,o,143,1,2299.4000000059605,867279.0,7039,WL,C,3.0
7,16.59499979019165,immed,43405.00020980835,Mon Jan 20 2025 16:15:04 GMT-0600 (Central Standard Time),869778.3000000119,A,doc,O,c,185,1,2499.300000011921,867279.0,7039,WL,C,3.0
7,16.84499979019165,immed,43155.00020980835,Mon Jan 20 2025 16:15:04 GMT-0600 (Central Standard Time),870027.900000006,A,doct,O,t,241,1,2748.9000000059605,867279.0,7039,WL,C,3.0
7,17.027999877929688,immed,42972.00012207031,Mon Jan 20 2025 16:15:04 GMT-0600 (Central Standard Time),870211.400000006,A,docto,O,o,167,1,2932.4000000059605,867279.0,7039,WL,C,3.0
7,17.294999837875366,immed,42705.000162124634,Mon Jan 20 2025 16:15:04 GMT-0600 (Central Standard Time),870478.2000000179,A,doctor,O,r,256,1,3199.2000000178814,867279.0,7039,WL,C,3.0
7,18.01099991798401,immed,41989.00008201599,Mon Jan 20 2025 16:15:04 GMT-0600 (Central Standard Time),871194.5,A,doctorenter,O,enter,709,1,3915.5,867279.0,7039,WL,C,3.0
7,18.94599986076355,immed,41054.00013923645,Mon Jan 20 2025 16:15:04 GMT-0600 (Central Standard Time),872129.2000000179,A,b,O,b,920,1,934.5,871194.7000000179,7039,WL,C,4.0
7,19.110999822616577,immed,40889.00017738342,Mon Jan 20 2025 16:15:04 GMT-0600 (Central Standard Time),872294.3000000119,A,bo,O,o,146,1,1099.5999999940395,871194.7000000179,7039,WL,C,4.0
7,19.66099977493286,immed,40339.00022506714,Mon Jan 20 2025 16:15:04 GMT-0600 (Central Standard Time),872843.8000000119,A,boy,O,y,533,1,1649.0999999940395,871194.7000000179,7039,WL,C,4.0
7,20.64299988746643,immed,39357.00011253357,Mon Jan 20 2025 16:15:04 GMT-0600 (Central Standard Time),873826.8000000119,A,boyenter,O,enter,976,1,2632.0999999940395,871194.7000000179,7039,WL,C,4.0
7,21.444000005722046,immed,38555.999994277954,Mon Jan 20 2025 16:15:04 GMT-0600 (Central Standard Time),874626.8000000119,A,b,O,b,776,1,799.8000000119209,873827.0,7039,WL,C,5.0
7,21.860999822616577,immed,38139.00017738342,Mon Jan 20 2025 16:15:04 GMT-0600 (Central Standard Time),875044.3000000119,A,bo,O,o,408,1,1217.300000011921,873827.0,7039,WL,C,5.0
7,22.32699990272522,immed,37673.00009727478,Mon Jan 20 2025 16:15:04 GMT-0600 (Central Standard Time),875509.8000000119,A,bod,O,d,447,1,1682.800000011921,873827.0,7039,WL,C,5.0
7,22.592999935150146,immed,37407.00006484985,Mon Jan 20 2025 16:15:04 GMT-0600 (Central Standard Time),875776.3000000119,A,body,O,y,245,1,1949.300000011921,873827.0,7039,WL,C,5.0
7,23.742999792099,immed,36257.000207901,Mon Jan 20 2025 16:15:04 GMT-0600 (Central Standard Time),876926.0,A,bodyenter,O,enter,1131,1,3099.0,873827.0,7039,WL,C,5.0
7,25.258999824523926,immed,34741.000175476074,Mon Jan 20 2025 16:15:04 GMT-0600 (Central Standard Time),878442.2000000179,A,c,O,c,1494,1,1515.9000000059605,876926.3000000119,7039,WL,C,6.0
7,25.45899987220764,immed,34541.00012779236,Mon Jan 20 2025 16:15:04 GMT-0600 (Central Standard Time),878642.2000000179,A,ca,O,a,185,1,1715.9000000059605,876926.3000000119,7039,WL,C,6.0
7,25.64199995994568,immed,34358.00004005432,Mon Jan 20 2025 16:15:04 GMT-0600 (Central Standard Time),878825.3000000119,A,cam,O,m,169,1,1899.0,876926.3000000119,7039,WL,C,6.0
7,26.074999809265137,immed,33925.00019073486,Mon Jan 20 2025 16:15:04 GMT-0600 (Central Standard Time),879258.400000006,A,camp,O,p,418,1,2332.0999999940395,876926.3000000119,7039,WL,C,6.0
7,27.174999952316284,immed,32825.000047683716,Mon Jan 20 2025 16:15:04 GMT-0600 (Central Standard Time),880358.2000000179,A,campenter,O,enter,1080,1,3431.9000000059605,876926.3000000119,7039,WL,C,6.0
7,27.97499990463257,immed,32025.00009536743,Mon Jan 20 2025 16:15:04 GMT-0600 (Central Standard Time),881158.0,A,f,O,f,781,1,799.5,880358.5,7039,WL,C,7.0
7,28.140999794006348,immed,31859.000205993652,Mon Jan 20 2025 16:15:04 GMT-0600 (Central Standard Time),881324.6000000238,A,fl,O,l,157,1,966.1000000238419,880358.5,7039,WL,C,7.0
7,28.29099988937378,immed,31709.00011062622,Mon Jan 20 2025 16:15:04 GMT-0600 (Central Standard Time),881474.6000000238,A,fla,O,a,136,1,1116.1000000238419,880358.5,7039,WL,C,7.0
7,28.823999881744385,immed,31176.000118255615,Mon Jan 20 2025 16:15:04 GMT-0600 (Central Standard Time),882007.7000000179,A,flag,O,g,512,1,1649.2000000178814,880358.5,7039,WL,C,7.0
7,30.306999921798706,immed,29693.000078201294,Mon Jan 20 2025 16:15:04 GMT-0600 (Central Standard Time),883490.6000000238,A,flagenter,O,enter,1461,1,3132.100000023842,880358.5,7039,WL,C,7.0
7,39.40399980545044,immed,20596.00019454956,Mon Jan 20 2025 16:15:04 GMT-0600 (Central Standard Time),892587.5,A,s,O,s,9089,1,9096.59999999404,883490.900000006,7039,WL,C,8.0
7,39.57099986076355,immed,20429.00013923645,Mon Jan 20 2025 16:15:04 GMT-0600 (Central Standard Time),892754.2000000179,A,sh,O,h,160,1,9263.300000011921,883490.900000006,7039,WL,C,8.0
7,39.870999813079834,immed,20129.000186920166,Mon Jan 20 2025 16:15:04 GMT-0600 (Central Standard Time),893054.2000000179,A,sho,O,o,282,1,9563.300000011921,883490.900000006,7039,WL,C,8.0
7,40.08799982070923,immed,19912.00017929077,Mon Jan 20 2025 16:15:04 GMT-0600 (Central Standard Time),893270.900000006,A,shor,O,r,205,1,9780.0,883490.900000006,7039,WL,C,8.0
7,40.28699994087219,immed,19713.000059127808,Mon Jan 20 2025 16:15:04 GMT-0600 (Central Standard Time),893470.400000006,A,shore,O,e,180,1,9979.5,883490.900000006,7039,WL,C,8.0
7,41.520999908447266,immed,18479.000091552734,Mon Jan 20 2025 16:15:04 GMT-0600 (Central Standard Time),894703.7000000179,A,shoreenter,O,enter,1220,1,11212.800000011921,883490.900000006,7039,WL,C,8.0
7,56.23099994659424,immed,3769.0000534057617,Mon Jan 20 2025 16:15:04 GMT-0600 (Central Standard Time),909415.8000000119,A,n,O,n,14692,1,14711.699999988079,894704.1000000238,7039,WL,C,9.0
7,56.38099980354309,immed,3619.000196456909,Mon Jan 20 2025 16:15:04 GMT-0600 (Central Standard Time),909565.6000000238,A,na,O,a,131,1,14861.5,894704.1000000238,7039,WL,C,9.0
7,56.597999811172485,immed,3402.0001888275146,Mon Jan 20 2025 16:15:04 GMT-0600 (Central Standard Time),909782.3000000119,A,nai,O,i,198,1,15078.199999988079,894704.1000000238,7039,WL,C,9.0
7,56.89800000190735,immed,3101.9999980926514,Mon Jan 20 2025 16:15:04 GMT-0600 (Central Standard Time),910082.400000006,A,nail,O,l,277,1,15378.299999982119,894704.1000000238,7039,WL,C,9.0
7,57.98099994659424,immed,2019.0000534057617,Mon Jan 20 2025 16:15:04 GMT-0600 (Central Standard Time),911165.400000006,A,nailenter,O,enter,1065,1,16461.29999998212,894704.1000000238,7039,WL,C,9.0
7,60.013999938964844,immed,-13.99993896484375,Mon Jan 20 2025 16:15:04 GMT-0600 (Central Standard Time),913198.0,A,None,O,None,2026,1,2032.199999988079,911165.8000000119,7039,WL,C,10.0
