acc_sum,block,block_c,condition,correct,correct_response,datetime,endtime,flanker,jitter,project,response,response_test_buffer_response,response_test_target_response,response_time,response_time_test_buffer_response,response_time_test_target_response,row_sel,session_number,start_end,starttime,subject_id,target,task,task_vers,time_test_buffer,time_test_buffer_response,time_test_constants,time_test_flanker,time_test_jitter,time_test_logger,time_test_target,time_test_target_response,time_test_variables,trial
0,prac,1,con,0,m,Wed Apr 16 2025 13:03:48 GMT-0400 (Eastern Daylight Time),153420.30000019073,bronze,800,I,None,,,1799,,,9,1,4857.300000190735,148563.0,9014,bronze,NF,C,,,,,,,,,,1
1,prac,1,con,1,z,Wed Apr 16 2025 13:03:48 GMT-0400 (Eastern Daylight Time),156220.60000038147,banana,800,I,z,,,691,,,1,1,2787.6000003814697,153433.0,9014,banana,NF,C,,,,,,,,,,2
1,prac,1,inc,0,z,Wed Apr 16 2025 13:03:48 GMT-0400 (Eastern Daylight Time),158887.0,iron,900,I,m,,,463,,,6,1,2656.5,156230.5,9014,pear,NF,C,,,,,,,,,,3
2,prac,1,con,1,z,Wed Apr 16 2025 13:03:48 GMT-0400 (Eastern Daylight Time),161653.60000038147,kiwi,1000,I,z,,,448,,,7,1,2748.3999996185303,158905.20000076294,9014,kiwi,NF,C,,,,,,,,,,4
3,prac,1,inc,1,m,Wed Apr 16 2025 13:03:48 GMT-0400 (Eastern Daylight Time),164503.70000076294,plum,1100,I,m,,,445,,,16,1,2839.4000005722046,161664.30000019073,9014,lead,NF,C,,,,,,,,,,5
3,prac,1,con,0,m,Wed Apr 16 2025 13:03:48 GMT-0400 (Eastern Daylight Time),167020.30000019073,gold,800,I,z,,,407,,,13,1,2504.699999809265,164515.60000038147,9014,gold,NF,C,,,,,,,,,,6
4,prac,1,con,1,m,Wed Apr 16 2025 13:03:48 GMT-0400 (Eastern Daylight Time),169920.30000019073,zinc,1000,I,m,,,586,,,15,1,2890.0999994277954,167030.20000076294,9014,zinc,NF,C,,,,,,,,,,7
5,prac,1,con,1,m,Wed Apr 16 2025 13:03:48 GMT-0400 (Eastern Daylight Time),172703.70000076294,silver,1000,I,m,,,471,,,11,1,2774.4000005722046,169929.30000019073,9014,silver,NF,C,,,,,,,,,,8
6,prac,1,inc,1,m,Wed Apr 16 2025 13:03:48 GMT-0400 (Eastern Daylight Time),175703.70000076294,raisin,1100,I,m,,,595,,,12,1,2989.7000007629395,172714.0,9014,cobalt,NF,C,,,,,,,,,,9
7,prac,1,con,1,z,Wed Apr 16 2025 13:03:48 GMT-0400 (Eastern Daylight Time),178420.5,orange,1000,I,z,,,414,,,3,1,2707.0999994277954,175713.4000005722,9014,orange,NF,C,,,,,,,,,,10
8,prac,1,inc,1,m,Wed Apr 16 2025 13:03:48 GMT-0400 (Eastern Daylight Time),181036.9000005722,pear,900,I,m,,,406,,,14,1,2607.1000003814697,178429.80000019073,9014,iron,NF,C,,,,,,,,,,11
9,prac,1,con,1,z,Wed Apr 16 2025 13:03:48 GMT-0400 (Eastern Daylight Time),183520.10000038147,lime,800,I,z,,,370,,,5,1,2472.300000190735,181047.80000019073,9014,lime,NF,C,,,,,,,,,,12
10,prac,1,inc,1,z,Wed Apr 16 2025 13:03:48 GMT-0400 (Eastern Daylight Time),186486.9000005722,lead,1100,I,z,,,563,,,8,1,2958.6000003814697,183528.30000019073,9014,plum,NF,C,,,,,,,,,,13
10,prac,1,inc,0,z,Wed Apr 16 2025 13:03:48 GMT-0400 (Eastern Daylight Time),189136.80000019073,copper,900,I,m,,,436,,,2,1,2640.300000190735,186496.5,9014,cherry,NF,C,,,,,,,,,,14
10,prac,1,inc,0,m,Wed Apr 16 2025 13:03:48 GMT-0400 (Eastern Daylight Time),191870.4000005722,cherry,900,I,z,,,522,,,10,1,2724.199999809265,189146.20000076294,9014,copper,NF,C,,,,,,,,,,15
11,prac,1,inc,1,z,Wed Apr 16 2025 13:03:48 GMT-0400 (Eastern Daylight Time),194936.9000005722,cobalt,1100,I,z,,,661,,,4,1,3057.300000190735,191879.60000038147,9014,raisin,NF,C,,,,,,,,,,16
1,prac,2,inc,1,m,Wed Apr 16 2025 13:03:48 GMT-0400 (Eastern Daylight Time),213236.9000005722,plum,1100,I,m,,,599,,,16,1,3007.800000190735,210229.10000038147,9014,lead,NF,C,,,,,,,,,,1
2,prac,2,con,1,z,Wed Apr 16 2025 13:03:48 GMT-0400 (Eastern Daylight Time),215836.9000005722,lime,800,I,z,,,490,,,5,1,2589.800000190735,213247.10000038147,9014,lime,NF,C,,,,,,,,,,2
3,prac,2,con,1,z,Wed Apr 16 2025 13:03:48 GMT-0400 (Eastern Daylight Time),218520.20000076294,kiwi,1000,I,z,,,378,,,7,1,2672.9000005722046,215847.30000019073,9014,kiwi,NF,C,,,,,,,,,,3
4,prac,2,inc,1,z,Wed Apr 16 2025 13:03:48 GMT-0400 (Eastern Daylight Time),221303.5,iron,900,I,z,,,579,,,6,1,2773.199999809265,218530.30000019073,9014,pear,NF,C,,,,,,,,,,4
5,prac,2,con,1,z,Wed Apr 16 2025 13:03:48 GMT-0400 (Eastern Daylight Time),224070.30000019073,banana,800,I,z,,,663,,,1,1,2756.5,221313.80000019073,9014,banana,NF,C,,,,,,,,,,5
6,prac,2,inc,1,z,Wed Apr 16 2025 13:03:48 GMT-0400 (Eastern Daylight Time),226870.30000019073,copper,900,I,z,,,597,,,2,1,2790.199999809265,224080.10000038147,9014,cherry,NF,C,,,,,,,,,,6
7,prac,2,con,1,z,Wed Apr 16 2025 13:03:48 GMT-0400 (Eastern Daylight Time),229736.9000005722,orange,1000,I,z,,,561,,,3,1,2857.4000005722046,226879.5,9014,orange,NF,C,,,,,,,,,,7
8,prac,2,con,1,m,Wed Apr 16 2025 13:03:48 GMT-0400 (Eastern Daylight Time),232470.10000038147,silver,1000,I,m,,,430,,,11,1,2724.1000003814697,229746.0,9014,silver,NF,C,,,,,,,,,,8
9,prac,2,con,1,m,Wed Apr 16 2025 13:03:48 GMT-0400 (Eastern Daylight Time),235236.9000005722,zinc,1000,I,m,,,465,,,15,1,2755.9000005722046,232481.0,9014,zinc,NF,C,,,,,,,,,,9
10,prac,2,con,1,m,Wed Apr 16 2025 13:03:48 GMT-0400 (Eastern Daylight Time),237803.60000038147,gold,800,I,m,,,457,,,13,1,2556.3999996185303,235247.20000076294,9014,gold,NF,C,,,,,,,,,,10
11,prac,2,con,1,m,Wed Apr 16 2025 13:03:48 GMT-0400 (Eastern Daylight Time),240370.30000019073,bronze,800,I,m,,,451,,,9,1,2557.3999996185303,237812.9000005722,9014,bronze,NF,C,,,,,,,,,,11
11,prac,2,inc,0,m,Wed Apr 16 2025 13:03:48 GMT-0400 (Eastern Daylight Time),243186.80000019073,cherry,900,I,z,,,600,,,10,1,2806.8999996185303,240379.9000005722,9014,copper,NF,C,,,,,,,,,,12
12,prac,2,inc,1,m,Wed Apr 16 2025 13:03:48 GMT-0400 (Eastern Daylight Time),246086.9000005722,pear,900,I,m,,,695,,,14,1,2891.5,243195.4000005722,9014,iron,NF,C,,,,,,,,,,13
13,prac,2,inc,1,m,Wed Apr 16 2025 13:03:48 GMT-0400 (Eastern Daylight Time),249020.30000019073,raisin,1100,I,m,,,523,,,12,1,2923.5999994277954,246096.70000076294,9014,cobalt,NF,C,,,,,,,,,,14
14,prac,2,inc,1,z,Wed Apr 16 2025 13:03:48 GMT-0400 (Eastern Daylight Time),252086.70000076294,lead,1100,I,z,,,662,,,8,1,3056.6000003814697,249030.10000038147,9014,plum,NF,C,,,,,,,,,,15
15,prac,2,inc,1,z,Wed Apr 16 2025 13:03:48 GMT-0400 (Eastern Daylight Time),255170.30000019073,cobalt,1100,I,z,,,668,,,4,1,3073.699999809265,252096.60000038147,9014,raisin,NF,C,,,,,,,,,,16
1,test,1,con,1,m,Wed Apr 16 2025 13:03:48 GMT-0400 (Eastern Daylight Time),269453.70000076294,iron,1000,I,m,m,None,574,359.0,215.0,107,1,2107.800000190735,267345.9000005722,9014,iron,NF,C,264872,264872,263131,264139,263131,265239,264656,264657,265238,1
2,test,1,con,1,m,Wed Apr 16 2025 13:03:48 GMT-0400 (Eastern Daylight Time),271436.70000076294,lead,800,I,m,m,None,642,443.0,199.0,121,1,1972.8000001907349,269463.9000005722,9014,lead,NF,C,266772,266772,265249,266056,265249,267222,266573,266573,267222,2
3,test,1,con,1,z,Wed Apr 16 2025 13:03:48 GMT-0400 (Eastern Daylight Time),273269.80000019073,orange,900,I,z,z,None,382,183.0,199.0,18,1,1821.5999994277954,271448.20000076294,9014,orange,NF,C,268856,268856,267233,268139,267234,269055,268656,268656,269055,3
4,test,1,inc,1,z,Wed Apr 16 2025 13:03:48 GMT-0400 (Eastern Daylight Time),275336.60000038147,copper,900,I,z,z,None,629,430.0,199.0,22,1,2057.6000003814697,273279.0,9014,orange,NF,C,270689,270689,269064,269972,269065,271122,270489,270489,271122,4
5,test,1,con,1,z,Wed Apr 16 2025 13:03:48 GMT-0400 (Eastern Daylight Time),277369.9000005722,lime,1100,I,z,z,None,394,195.0,199.0,36,1,2022.6999998092651,275347.20000076294,9014,lime,NF,C,272956,272956,271132,272239,271133,273155,272756,272756,273155,5
6,test,1,inc,1,m,Wed Apr 16 2025 13:03:48 GMT-0400 (Eastern Daylight Time),279136.70000076294,banana,800,I,m,m,None,420,221.0,199.0,77,1,1758.3000001907349,277378.4000005722,9014,copper,NF,C,274689,274689,273163,273972,273164,274922,274489,274489,274922,6
7,test,1,con,1,m,Wed Apr 16 2025 13:03:48 GMT-0400 (Eastern Daylight Time),280936.5,silver,800,I,m,m,None,445,246.0,199.0,81,1,1784.2999992370605,279152.20000076294,9014,silver,NF,C,276472,276472,274937,275756,274939,276722,276272,276273,276722,7
8,test,1,con,1,z,Wed Apr 16 2025 13:03:48 GMT-0400 (Eastern Daylight Time),282820.30000019073,banana,1000,I,z,z,None,333,134.0,199.0,3,1,1875.5,280944.80000019073,9014,banana,NF,C,278456,278456,276730,277739,276730,278605,278256,278256,278605,8
8,test,1,inc,0,m,Wed Apr 16 2025 13:03:48 GMT-0400 (Eastern Daylight Time),284786.5,cherry,900,I,z,z,None,518,319.0,199.0,78,1,1958.0999994277954,282828.4000005722,9014,copper,NF,C,280239,280239,278613,279522,278614,280572,280039,280039,280571,9
9,test,1,con,1,m,Wed Apr 16 2025 13:03:48 GMT-0400 (Eastern Daylight Time),286853.5,gold,1100,I,m,m,None,416,217.0,199.0,100,1,2059.2999992370605,284794.20000076294,9014,gold,NF,C,282406,282406,280579,281689,280580,282639,282206,282206,282638,10
10,test,1,inc,1,z,Wed Apr 16 2025 13:03:48 GMT-0400 (Eastern Daylight Time),288903.0,silver,1000,I,z,z,None,515,315.0,200.0,31,1,2041.3999996185303,286861.60000038147,9014,raisin,NF,C,284372,284372,282647,283656,282647,284688,284172,284172,284688,11
11,test,1,con,1,m,Wed Apr 16 2025 13:03:48 GMT-0400 (Eastern Daylight Time),290702.80000019073,bronze,800,I,m,m,None,454,255.0,199.0,65,1,1791.1999998092651,288911.60000038147,9014,bronze,NF,C,286221,286222,284697,285506,284697,286488,286022,286022,286488,12
12,test,1,inc,1,z,Wed Apr 16 2025 13:03:48 GMT-0400 (Eastern Daylight Time),292537.5,gold,800,I,z,z,None,496,296.0,200.0,45,1,1828.6999998092651,290708.80000019073,9014,pear,NF,C,288022,288022,286494,287305,286494,288323,287822,287822,288323,13
13,test,1,inc,1,z,Wed Apr 16 2025 13:03:48 GMT-0400 (Eastern Daylight Time),294436.70000076294,gold,800,I,z,z,None,550,351.0,199.0,53,1,1892.3000001907349,292544.4000005722,9014,kiwi,NF,C,289855,289855,288329,289139,288330,290222,289656,289656,290222,14
14,test,1,con,1,z,Wed Apr 16 2025 13:03:48 GMT-0400 (Eastern Daylight Time),296319.9000005722,kiwi,900,I,z,z,None,437,238.0,199.0,50,1,1873.9000005722046,294446.0,9014,kiwi,NF,C,291855,291856,290231,291139,290232,292105,291656,291656,292105,15
15,test,1,con,1,z,Wed Apr 16 2025 13:03:48 GMT-0400 (Eastern Daylight Time),298386.70000076294,pear,1100,I,z,z,None,418,219.0,199.0,44,1,2058.5,296328.20000076294,9014,pear,NF,C,293939,293939,292113,293222,292114,294172,293739,293739,294172,16
16,test,1,inc,1,z,Wed Apr 16 2025 13:03:48 GMT-0400 (Eastern Daylight Time),300470.0,iron,900,I,z,z,None,632,433.0,199.0,54,1,2074.2999992370605,298395.70000076294,9014,kiwi,NF,C,295806,295806,294181,295089,294181,296255,295606,295606,296255,17
17,test,1,con,1,m,Wed Apr 16 2025 13:03:48 GMT-0400 (Eastern Daylight Time),302686.70000076294,silver,1100,I,m,m,None,572,373.0,199.0,84,1,2207.5,300479.20000076294,9014,silver,NF,C,298089,298089,296264,297373,296265,298472,297889,297889,298472,18
18,test,1,con,1,m,Wed Apr 16 2025 13:03:48 GMT-0400 (Eastern Daylight Time),304453.4000005722,gold,800,I,m,m,None,415,216.0,199.0,97,1,1757.1999998092651,302696.20000076294,9014,gold,NF,C,300006,300006,298481,299289,298482,300239,299806,299806,300238,19
19,test,1,inc,1,z,Wed Apr 16 2025 13:03:48 GMT-0400 (Eastern Daylight Time),306553.30000019073,cobalt,1100,I,z,z,None,462,262.0,200.0,32,1,2091.3999996185303,304461.9000005722,9014,raisin,NF,C,302072,302072,300247,301356,300247,302338,301872,301872,302338,20
20,test,1,inc,1,m,Wed Apr 16 2025 13:03:48 GMT-0400 (Eastern Daylight Time),308686.80000019073,raisin,1100,I,m,m,None,489,290.0,199.0,80,1,2122.800000190735,306564.0,9014,copper,NF,C,304172,304172,302349,303456,302350,304472,303972,303973,304472,21
20,test,1,inc,0,m,Wed Apr 16 2025 13:03:48 GMT-0400 (Eastern Daylight Time),310653.30000019073,pear,900,I,z,z,None,524,325.0,199.0,102,1,1956.3000001907349,308697.0,9014,gold,NF,C,306105,306106,304482,305389,304482,306438,305906,305906,306438,22
21,test,1,inc,1,m,Wed Apr 16 2025 13:03:48 GMT-0400 (Eastern Daylight Time),312470.0,lime,800,I,m,m,None,465,250.0,215.0,117,1,1807.2999992370605,310662.70000076294,9014,zinc,NF,C,307989,307989,306448,307256,306448,308255,307772,307773,308255,23
22,test,1,inc,1,m,Wed Apr 16 2025 13:03:48 GMT-0400 (Eastern Daylight Time),314419.9000005722,banana,800,I,m,m,None,600,401.0,199.0,93,1,1941.0,312478.9000005722,9014,cobalt,NF,C,309789,309789,308264,309072,308264,310205,309589,309589,310205,24
23,test,1,con,1,m,Wed Apr 16 2025 13:03:48 GMT-0400 (Eastern Daylight Time),316386.30000019073,copper,900,I,m,m,None,518,319.0,199.0,74,1,1957.1999998092651,314429.10000038147,9014,copper,NF,C,311839,311839,310214,311122,310215,312171,311639,311639,312171,25
24,test,1,con,1,z,Wed Apr 16 2025 13:03:48 GMT-0400 (Eastern Daylight Time),318219.70000076294,banana,900,I,z,z,None,392,193.0,199.0,2,1,1828.3000001907349,316391.4000005722,9014,banana,NF,C,313805,313805,312176,313089,312177,314005,313606,313606,314005,26
25,test,1,inc,1,z,Wed Apr 16 2025 13:03:48 GMT-0400 (Eastern Daylight Time),320203.4000005722,iron,900,I,z,z,None,542,343.0,199.0,62,1,1976.1000003814697,318227.30000019073,9014,plum,NF,C,315639,315639,314012,314922,314013,315989,315439,315439,315988,27
26,test,1,inc,1,z,Wed Apr 16 2025 13:03:48 GMT-0400 (Eastern Daylight Time),322119.5,bronze,800,I,z,z,None,562,363.0,199.0,29,1,1900.8999996185303,320218.60000038147,9014,raisin,NF,C,317539,317539,316004,316822,316005,317905,317339,317339,317905,28
27,test,1,con,1,m,Wed Apr 16 2025 13:03:48 GMT-0400 (Eastern Daylight Time),324102.5,cobalt,800,I,m,m,None,646,431.0,215.0,89,1,1975.2999992370605,322127.20000076294,9014,cobalt,NF,C,319454,319454,317912,318721,317913,319888,319239,319239,319887,29
28,test,1,con,1,m,Wed Apr 16 2025 13:03:48 GMT-0400 (Eastern Daylight Time),326236.4000005722,cobalt,1000,I,m,m,None,592,393.0,199.0,91,1,2129.0,324107.4000005722,9014,cobalt,NF,C,321621,321621,319892,320906,319893,322021,321422,321422,322021,30
29,test,1,con,1,m,Wed Apr 16 2025 13:03:48 GMT-0400 (Eastern Daylight Time),328402.70000076294,copper,1000,I,m,m,None,618,419.0,199.0,75,1,2155.2000007629395,326247.5,9014,copper,NF,C,323755,323755,322033,323038,322033,324188,323556,323556,324188,31
30,test,1,con,1,z,Wed Apr 16 2025 13:03:48 GMT-0400 (Eastern Daylight Time),330552.4000005722,cherry,1000,I,z,z,None,609,395.0,214.0,11,1,2142.0,328410.4000005722,9014,cherry,NF,C,325938,325938,324195,325204,324196,326338,325723,325723,326337,32
31,test,1,inc,1,m,Wed Apr 16 2025 13:03:48 GMT-0400 (Eastern Daylight Time),332403.0,lime,800,I,m,m,None,502,303.0,199.0,109,1,1845.6999998092651,330557.30000019073,9014,iron,NF,C,327871,327871,326342,327155,326343,328188,327672,327672,328188,33
32,test,1,inc,1,z,Wed Apr 16 2025 13:03:48 GMT-0400 (Eastern Daylight Time),334502.80000019073,silver,1000,I,z,z,None,564,365.0,199.0,15,1,2092.0999994277954,332410.70000076294,9014,cherry,NF,C,329921,329921,328196,329206,328196,330288,329722,329722,330288,34
33,test,1,inc,1,m,Wed Apr 16 2025 13:03:48 GMT-0400 (Eastern Daylight Time),336402.5,cherry,900,I,m,m,None,451,250.0,201.0,70,1,1890.2999992370605,334512.20000076294,9014,bronze,NF,C,331923,331923,330297,331206,330298,332188,331722,331722,332188,35
34,test,1,con,1,z,Wed Apr 16 2025 13:03:48 GMT-0400 (Eastern Daylight Time),338186.60000038147,lime,800,I,z,z,None,444,243.0,201.0,33,1,1778.1000003814697,336408.5,9014,lime,NF,C,333723,333723,332194,333005,332194,333972,333522,333522,333972,36
35,test,1,con,1,z,Wed Apr 16 2025 13:03:48 GMT-0400 (Eastern Daylight Time),340219.5,raisin,1100,I,z,z,None,392,176.0,216.0,28,1,2018.7999992370605,338200.70000076294,9014,raisin,NF,C,335822,335822,333986,335088,333987,336005,335606,335606,336004,37
36,test,1,inc,1,m,Wed Apr 16 2025 13:03:48 GMT-0400 (Eastern Daylight Time),342253.20000076294,orange,1000,I,m,m,None,491,292.0,199.0,71,1,2026.4000005722046,340226.80000019073,9014,bronze,NF,C,337738,337738,336012,337021,336012,338038,337538,337538,338038,38
37,test,1,inc,1,z,Wed Apr 16 2025 13:03:48 GMT-0400 (Eastern Daylight Time),344386.4000005722,zinc,1000,I,z,z,None,586,387.0,199.0,39,1,2123.4000005722046,342263.0,9014,lime,NF,C,339771,339772,338048,339055,338048,340172,339572,339572,340171,39
38,test,1,con,1,z,Wed Apr 16 2025 13:03:48 GMT-0400 (Eastern Daylight Time),346519.9000005722,lime,1000,I,z,z,None,596,397.0,199.0,35,1,2124.0,344395.9000005722,9014,lime,NF,C,341905,341905,340181,341188,340181,342305,341704,341705,342305,40
39,test,1,con,1,m,Wed Apr 16 2025 13:03:48 GMT-0400 (Eastern Daylight Time),348788.0,lead,1100,I,m,m,None,619,404.0,215.0,124,1,2255.199999809265,346532.80000019073,9014,lead,NF,C,344154,344154,342318,343422,342319,344573,343939,343939,344573,41
40,test,1,inc,1,m,Wed Apr 16 2025 13:03:48 GMT-0400 (Eastern Daylight Time),350953.20000076294,raisin,1100,I,m,m,None,528,328.0,200.0,72,1,2159.5,348793.70000076294,9014,bronze,NF,C,346405,346406,344579,345689,344579,346738,346205,346205,346738,42
41,test,1,inc,1,z,Wed Apr 16 2025 13:03:48 GMT-0400 (Eastern Daylight Time),353152.4000005722,zinc,1000,I,z,z,None,654,454.0,200.0,47,1,2189.1000003814697,350963.30000019073,9014,pear,NF,C,348471,348471,346748,347755,346749,348937,348271,348271,348937,43
42,test,1,inc,1,m,Wed Apr 16 2025 13:03:48 GMT-0400 (Eastern Daylight Time),355053.0,banana,800,I,m,m,None,575,376.0,199.0,85,1,1894.5,353158.5,9014,silver,NF,C,350455,350455,348944,349754,348944,350838,350256,350256,350838,44
43,test,1,inc,1,z,Wed Apr 16 2025 13:03:48 GMT-0400 (Eastern Daylight Time),356870.0,bronze,800,I,z,z,None,482,282.0,200.0,5,1,1807.8999996185303,355062.10000038147,9014,banana,NF,C,352372,352372,350847,351656,350848,352655,352171,352171,352655,45
44,test,1,con,1,z,Wed Apr 16 2025 13:03:48 GMT-0400 (Eastern Daylight Time),358836.60000038147,raisin,800,I,z,z,None,616,417.0,199.0,25,1,1959.1000003814697,356877.5,9014,raisin,NF,C,354189,354189,352663,353472,352663,354622,353989,353989,354622,46
44,test,1,con,0,m,Wed Apr 16 2025 13:03:48 GMT-0400 (Eastern Daylight Time),360986.0,iron,1100,I,z,z,None,509,310.0,199.0,108,1,2135.199999809265,358850.80000019073,9014,iron,NF,C,356455,356455,354636,355738,354637,356771,356256,356256,356771,47
45,test,1,inc,1,m,Wed Apr 16 2025 13:03:48 GMT-0400 (Eastern Daylight Time),363103.20000076294,orange,1000,I,m,m,None,572,373.0,199.0,95,1,2110.7000007629395,360992.5,9014,cobalt,NF,C,358505,358505,356778,357789,356778,358888,358306,358306,358888,48
46,test,1,inc,1,z,Wed Apr 16 2025 13:03:48 GMT-0400 (Eastern Daylight Time),365236.60000038147,copper,900,I,z,z,None,683,484.0,199.0,30,1,2124.6000003814697,363112.0,9014,raisin,NF,C,360522,360522,358897,359805,358898,361022,360322,360322,361022,49
47,test,1,inc,1,z,Wed Apr 16 2025 13:03:48 GMT-0400 (Eastern Daylight Time),367420.0,iron,900,I,z,z,None,741,542.0,199.0,38,1,2175.0,365245.0,9014,lime,NF,C,362656,362656,361030,361939,361030,363205,362456,362456,363205,50
48,test,1,inc,1,m,Wed Apr 16 2025 13:03:48 GMT-0400 (Eastern Daylight Time),369636.60000038147,orange,1000,I,m,m,None,666,467.0,199.0,79,1,2206.8999996185303,367429.70000076294,9014,copper,NF,C,364939,364939,363215,364222,363215,365422,364739,364739,365422,51
49,test,1,con,1,z,Wed Apr 16 2025 13:03:48 GMT-0400 (Eastern Daylight Time),371686.20000076294,raisin,900,I,z,z,None,614,415.0,199.0,26,1,2040.6000003814697,369645.60000038147,9014,raisin,NF,C,367055,367055,365431,366339,365431,367471,366856,366856,367471,52
50,test,1,con,1,m,Wed Apr 16 2025 13:03:48 GMT-0400 (Eastern Daylight Time),373470.0,copper,800,I,m,m,None,440,241.0,199.0,73,1,1775.0,371695.0,9014,copper,NF,C,369005,369005,367480,368289,367480,369255,368806,368806,369255,53
51,test,1,con,1,z,Wed Apr 16 2025 13:03:48 GMT-0400 (Eastern Daylight Time),375553.20000076294,cherry,1100,I,z,z,None,437,238.0,199.0,12,1,2074.4000005722046,373478.80000019073,9014,cherry,NF,C,371089,371089,369264,370372,369264,371338,370889,370889,371338,54
52,test,1,con,1,m,Wed Apr 16 2025 13:03:48 GMT-0400 (Eastern Daylight Time),377453.4000005722,cobalt,900,I,m,m,None,458,259.0,199.0,90,1,1891.1000003814697,375562.30000019073,9014,cobalt,NF,C,372972,372972,371347,372255,371348,373239,372772,372772,373238,55
53,test,1,inc,1,m,Wed Apr 16 2025 13:03:48 GMT-0400 (Eastern Daylight Time),379636.60000038147,plum,1100,I,m,m,None,533,334.0,199.0,120,1,2174.1000003814697,377462.5,9014,zinc,NF,C,375072,375072,373248,374356,373248,375422,374872,374872,375422,56
54,test,1,con,1,z,Wed Apr 16 2025 13:03:48 GMT-0400 (Eastern Daylight Time),381936.60000038147,kiwi,1000,I,z,z,None,754,555.0,199.0,51,1,2291.300000190735,379645.30000019073,9014,kiwi,NF,C,377155,377155,375430,376439,375431,377722,376956,376956,377722,57
55,test,1,inc,1,m,Wed Apr 16 2025 13:03:48 GMT-0400 (Eastern Daylight Time),384036.70000076294,plum,1100,I,m,m,None,446,234.0,212.0,104,1,2089.4000005722046,381947.30000019073,9014,gold,NF,C,379572,379572,377732,378839,377733,379822,379359,379359,379822,58
56,test,1,inc,1,z,Wed Apr 16 2025 13:03:48 GMT-0400 (Eastern Daylight Time),386253.30000019073,lead,1100,I,z,z,None,575,376.0,199.0,48,1,2207.5,384045.80000019073,9014,pear,NF,C,381655,381655,379831,380939,379831,382038,381456,381456,382038,59
57,test,1,inc,1,z,Wed Apr 16 2025 13:03:48 GMT-0400 (Eastern Daylight Time),388136.20000076294,bronze,800,I,z,z,None,545,346.0,199.0,13,1,1874.4000005722046,386261.80000019073,9014,cherry,NF,C,383572,383572,382047,382855,382047,383921,383372,383372,383921,60
58,test,1,inc,1,z,Wed Apr 16 2025 13:03:48 GMT-0400 (Eastern Daylight Time),390336.70000076294,silver,1000,I,z,z,None,654,455.0,199.0,7,1,2193.2000007629395,388143.5,9014,banana,NF,C,385655,385655,383928,384939,383929,386122,385456,385456,386122,61
59,test,1,inc,1,m,Wed Apr 16 2025 13:03:48 GMT-0400 (Eastern Daylight Time),392669.80000019073,raisin,1100,I,m,m,None,690,491.0,199.0,88,1,2323.3999996185303,390346.4000005722,9014,silver,NF,C,387955,387955,386131,387239,386132,388455,387756,387756,388455,62
60,test,1,con,1,z,Wed Apr 16 2025 13:03:48 GMT-0400 (Eastern Daylight Time),394836.60000038147,plum,1000,I,z,z,None,617,418.0,199.0,59,1,2158.0,392678.60000038147,9014,plum,NF,C,390188,390188,388464,389472,388464,390622,389989,389989,390622,63
61,test,1,inc,1,z,Wed Apr 16 2025 13:03:48 GMT-0400 (Eastern Daylight Time),396903.10000038147,copper,900,I,z,z,None,632,432.0,200.0,6,1,2058.0,394845.10000038147,9014,banana,NF,C,392255,392255,390630,391539,390631,392688,392055,392055,392688,64
62,test,1,inc,1,m,Wed Apr 16 2025 13:03:48 GMT-0400 (Eastern Daylight Time),399186.5,plum,1100,I,m,m,None,636,436.0,200.0,112,1,2275.0999994277954,396911.4000005722,9014,iron,NF,C,394522,394522,392696,393805,392697,394972,394322,394322,394971,65
63,test,1,con,1,m,Wed Apr 16 2025 13:03:48 GMT-0400 (Eastern Daylight Time),401619.9000005722,bronze,1100,I,m,m,None,784,585.0,199.0,68,1,2424.699999809265,399195.20000076294,9014,bronze,NF,C,396805,396805,394980,396089,394981,397405,396606,396606,397405,66
64,test,1,inc,1,z,Wed Apr 16 2025 13:03:48 GMT-0400 (Eastern Daylight Time),403803.20000076294,lead,1100,I,z,z,None,542,343.0,199.0,40,1,2175.0,401628.20000076294,9014,lime,NF,C,399239,399239,397413,398522,397414,399588,399039,399039,399588,67
65,test,1,con,1,m,Wed Apr 16 2025 13:03:48 GMT-0400 (Eastern Daylight Time),406069.9000005722,iron,800,I,m,m,None,932,732.0,200.0,105,1,2256.300000190735,403813.60000038147,9014,iron,NF,C,401122,401122,399599,400406,399599,401855,400922,400922,401855,68
66,test,1,con,1,z,Wed Apr 16 2025 13:03:48 GMT-0400 (Eastern Daylight Time),408286.60000038147,orange,800,I,z,z,None,873,674.0,199.0,17,1,2209.199999809265,406077.4000005722,9014,orange,NF,C,403389,403389,401862,402672,401863,404072,403189,403189,404072,69
67,test,1,con,1,z,Wed Apr 16 2025 13:03:48 GMT-0400 (Eastern Daylight Time),410319.9000005722,cherry,800,I,z,z,None,688,489.0,199.0,9,1,2024.5,408295.4000005722,9014,cherry,NF,C,405605,405605,404080,404889,404081,406105,405406,405406,406105,70
68,test,1,con,1,m,Wed Apr 16 2025 13:03:48 GMT-0400 (Eastern Daylight Time),412569.80000019073,cobalt,1100,I,m,m,None,610,411.0,199.0,92,1,2240.5,410329.30000019073,9014,cobalt,NF,C,407938,407939,406114,407222,406115,408355,407739,407739,408355,71
69,test,1,inc,1,z,Wed Apr 16 2025 13:03:48 GMT-0400 (Eastern Daylight Time),414803.20000076294,lead,1100,I,z,z,None,584,385.0,199.0,56,1,2224.300000190735,412578.9000005722,9014,kiwi,NF,C,410189,410189,408364,409472,408364,410588,409989,409989,410588,72
70,test,1,con,1,z,Wed Apr 16 2025 13:03:48 GMT-0400 (Eastern Daylight Time),417236.60000038147,orange,1100,I,z,z,None,783,584.0,199.0,20,1,2424.5,414812.10000038147,9014,orange,NF,C,412422,412422,410597,411705,410598,413022,412222,412222,413022,73
71,test,1,inc,1,m,Wed Apr 16 2025 13:03:48 GMT-0400 (Eastern Daylight Time),419103.20000076294,lime,800,I,m,m,None,523,324.0,199.0,101,1,1856.5,417246.70000076294,9014,gold,NF,C,414555,414555,413032,413839,413032,414888,414356,414356,414888,74
72,test,1,con,1,m,Wed Apr 16 2025 13:03:48 GMT-0400 (Eastern Daylight Time),421269.80000019073,gold,1000,I,m,m,None,615,416.0,199.0,99,1,2158.0999994277954,419111.70000076294,9014,gold,NF,C,416622,416622,414897,415906,414897,417055,416422,416422,417055,75
73,test,1,con,1,z,Wed Apr 16 2025 13:03:48 GMT-0400 (Eastern Daylight Time),423319.70000076294,kiwi,1100,I,z,z,None,412,213.0,199.0,52,1,2040.6000003814697,421279.10000038147,9014,kiwi,NF,C,418889,418889,417064,418172,417064,419105,418689,418689,419105,76
74,test,1,inc,1,z,Wed Apr 16 2025 13:03:48 GMT-0400 (Eastern Daylight Time),425653.0,copper,900,I,z,z,None,882,683.0,199.0,14,1,2324.699999809265,423328.30000019073,9014,cherry,NF,C,420739,420739,419113,420022,419114,421438,420539,420539,421438,77
75,test,1,con,1,z,Wed Apr 16 2025 13:03:48 GMT-0400 (Eastern Daylight Time),427653.10000038147,pear,800,I,z,z,None,649,450.0,199.0,41,1,1992.1000003814697,425661.0,9014,pear,NF,C,422972,422972,421446,422256,421447,423438,422772,422772,423438,78
76,test,1,con,1,z,Wed Apr 16 2025 13:03:48 GMT-0400 (Eastern Daylight Time),429803.10000038147,plum,1100,I,z,z,None,510,311.0,199.0,60,1,2140.699999809265,427662.4000005722,9014,plum,NF,C,425272,425272,423447,424556,423448,425588,425072,425072,425588,79
77,test,1,con,1,z,Wed Apr 16 2025 13:03:48 GMT-0400 (Eastern Daylight Time),431853.20000076294,raisin,1000,I,z,z,None,507,308.0,199.0,27,1,2039.3000001907349,429813.9000005722,9014,raisin,NF,C,427322,427322,425599,426605,425599,427638,427122,427122,427638,80
78,test,1,inc,1,m,Wed Apr 16 2025 13:03:48 GMT-0400 (Eastern Daylight Time),433753.0,cherry,900,I,m,m,None,463,262.0,201.0,86,1,1890.5999994277954,431862.4000005722,9014,silver,NF,C,429272,429272,427647,428555,427648,429538,429071,429071,429538,81
79,test,1,inc,1,z,Wed Apr 16 2025 13:03:48 GMT-0400 (Eastern Daylight Time),435903.10000038147,cobalt,1100,I,z,z,None,505,306.0,199.0,24,1,2136.800000190735,433766.30000019073,9014,orange,NF,C,431372,431372,429551,430656,429552,431688,431172,431172,431688,82
80,test,1,con,1,z,Wed Apr 16 2025 13:03:48 GMT-0400 (Eastern Daylight Time),437903.10000038147,banana,800,I,z,z,None,655,456.0,199.0,1,1,1989.1999998092651,435913.9000005722,9014,banana,NF,C,433222,433222,431699,432505,431699,433688,433022,433022,433688,83
81,test,1,inc,1,z,Wed Apr 16 2025 13:03:48 GMT-0400 (Eastern Daylight Time),439803.10000038147,gold,800,I,z,z,None,559,360.0,199.0,37,1,1891.3000001907349,437911.80000019073,9014,lime,NF,C,435222,435222,433697,434505,433697,435588,435022,435022,435588,84
82,test,1,inc,1,m,Wed Apr 16 2025 13:03:48 GMT-0400 (Eastern Daylight Time),441819.80000019073,kiwi,1000,I,m,m,None,476,277.0,199.0,127,1,2007.5,439812.30000019073,9014,lead,NF,C,437322,437322,435597,436605,435598,437605,437122,437122,437605,85
83,test,1,con,1,m,Wed Apr 16 2025 13:03:48 GMT-0400 (Eastern Daylight Time),444053.10000038147,bronze,1000,I,m,m,None,682,483.0,199.0,67,1,2224.0,441829.10000038147,9014,bronze,NF,C,439338,439339,437614,438622,437614,439838,439139,439139,439838,86
84,test,1,con,1,m,Wed Apr 16 2025 13:03:48 GMT-0400 (Eastern Daylight Time),446086.10000038147,lead,1000,I,m,m,None,497,298.0,199.0,123,1,2021.1000003814697,444065.0,9014,lead,NF,C,441572,441572,439850,440855,439850,441871,441372,441372,441871,87
85,test,1,con,1,z,Wed Apr 16 2025 13:03:48 GMT-0400 (Eastern Daylight Time),448086.20000076294,plum,800,I,z,z,None,664,465.0,199.0,57,1,1992.9000005722046,446093.30000019073,9014,plum,NF,C,443405,443405,441878,442689,441879,443871,443206,443206,443871,88
86,test,1,con,1,z,Wed Apr 16 2025 13:03:48 GMT-0400 (Eastern Daylight Time),450069.60000038147,plum,900,I,z,z,None,533,333.0,200.0,58,1,1975.3000001907349,448094.30000019073,9014,plum,NF,C,445505,445505,443879,444789,443880,445855,445305,445305,445855,89
87,test,1,inc,1,z,Wed Apr 16 2025 13:03:48 GMT-0400 (Eastern Daylight Time),452253.30000019073,cobalt,1100,I,z,z,None,541,342.0,199.0,8,1,2174.800000190735,450078.5,9014,banana,NF,C,447688,447689,445864,446971,445864,448038,447489,447489,448038,90
88,test,1,inc,1,z,Wed Apr 16 2025 13:03:48 GMT-0400 (Eastern Daylight Time),454303.0,zinc,1000,I,z,z,None,505,306.0,199.0,63,1,2040.8999996185303,452262.10000038147,9014,plum,NF,C,449772,449772,448047,449055,448048,450088,449572,449572,450088,91
88,test,1,con,0,m,Wed Apr 16 2025 13:03:48 GMT-0400 (Eastern Daylight Time),456470.10000038147,copper,1100,I,z,z,None,531,332.0,199.0,76,1,2155.699999809265,454314.4000005722,9014,copper,NF,C,451922,451922,450099,451205,450100,452255,451722,451722,452255,92
89,test,1,inc,1,m,Wed Apr 16 2025 13:03:48 GMT-0400 (Eastern Daylight Time),458719.80000019073,raisin,1100,I,m,m,None,605,406.0,199.0,96,1,2242.0,456477.80000019073,9014,cobalt,NF,C,454088,454088,452263,453372,452263,454505,453889,453889,454505,93
90,test,1,inc,1,m,Wed Apr 16 2025 13:03:48 GMT-0400 (Eastern Daylight Time),460669.9000005722,pear,900,I,m,m,None,506,307.0,199.0,110,1,1939.9000005722046,458730.0,9014,iron,NF,C,456139,456139,454515,455422,454516,456455,455939,455939,456455,94
91,test,1,inc,1,m,Wed Apr 16 2025 13:03:48 GMT-0400 (Eastern Daylight Time),462769.80000019073,kiwi,1000,I,m,m,None,554,355.0,199.0,111,1,2090.699999809265,460679.10000038147,9014,iron,NF,C,458188,458188,456464,457472,456465,458555,457989,457989,458555,95
92,test,1,con,1,z,Wed Apr 16 2025 13:03:48 GMT-0400 (Eastern Daylight Time),464870.0,pear,900,I,z,z,None,664,465.0,199.0,42,1,2091.8999996185303,462778.10000038147,9014,pear,NF,C,460189,460189,458563,459472,458563,460655,459989,459989,460655,96
93,test,1,inc,1,m,Wed Apr 16 2025 13:03:48 GMT-0400 (Eastern Daylight Time),466953.0,cherry,900,I,m,m,None,644,445.0,199.0,94,1,2071.3999996185303,464881.60000038147,9014,cobalt,NF,C,462289,462289,460667,461572,460667,462738,462089,462089,462738,97
94,test,1,con,1,m,Wed Apr 16 2025 13:03:48 GMT-0400 (Eastern Daylight Time),468869.80000019073,zinc,800,I,m,m,None,565,366.0,199.0,113,1,1907.0999994277954,466962.70000076294,9014,zinc,NF,C,464272,464272,462748,463555,462748,464655,464072,464072,464655,98
95,test,1,inc,1,z,Wed Apr 16 2025 13:03:48 GMT-0400 (Eastern Daylight Time),471103.10000038147,cobalt,1100,I,z,z,None,589,390.0,199.0,16,1,2224.300000190735,468878.80000019073,9014,cherry,NF,C,466488,466488,464664,465772,464664,466888,466289,466289,466888,99
96,test,1,inc,1,m,Wed Apr 16 2025 13:03:48 GMT-0400 (Eastern Daylight Time),473286.10000038147,pear,900,I,m,m,None,748,549.0,199.0,118,1,2174.8999996185303,471111.20000076294,9014,zinc,NF,C,468522,468522,466896,467805,466897,469071,468322,468322,469071,100
97,test,1,inc,1,m,Wed Apr 16 2025 13:03:48 GMT-0400 (Eastern Daylight Time),475486.5,orange,1000,I,m,m,None,657,457.0,200.0,87,1,2191.2999992370605,473295.20000076294,9014,silver,NF,C,470805,470805,469080,470089,469081,471272,470605,470605,471271,101
98,test,1,inc,1,m,Wed Apr 16 2025 13:03:48 GMT-0400 (Eastern Daylight Time),477602.9000005722,kiwi,1000,I,m,m,None,567,352.0,215.0,119,1,2105.300000190735,475497.60000038147,9014,zinc,NF,C,473022,473022,471283,472289,471283,473388,472806,472806,473388,102
99,test,1,con,1,z,Wed Apr 16 2025 13:03:48 GMT-0400 (Eastern Daylight Time),479685.80000019073,cherry,900,I,z,z,None,647,448.0,199.0,10,1,2074.0,477611.80000019073,9014,cherry,NF,C,475022,475022,473397,474305,473397,475471,474822,474822,475471,103
100,test,1,inc,1,m,Wed Apr 16 2025 13:03:48 GMT-0400 (Eastern Daylight Time),482069.80000019073,plum,1100,I,m,m,None,748,549.0,199.0,128,1,2376.5999994277954,479693.20000076294,9014,lead,NF,C,477305,477305,475478,476590,475479,477855,477105,477105,477855,104
101,test,1,con,1,z,Wed Apr 16 2025 13:03:48 GMT-0400 (Eastern Daylight Time),484486.20000076294,lime,900,I,z,z,None,981,782.0,199.0,34,1,2408.800000190735,482077.4000005722,9014,lime,NF,C,479489,479489,477862,478772,477863,480271,479289,479289,480271,105
102,test,1,inc,1,z,Wed Apr 16 2025 13:03:48 GMT-0400 (Eastern Daylight Time),486470.30000019073,bronze,800,I,z,z,None,650,450.0,200.0,21,1,1977.0999994277954,484493.20000076294,9014,orange,NF,C,481805,481805,480278,481089,480279,482255,481605,481605,482255,106
103,test,1,con,1,z,Wed Apr 16 2025 13:03:48 GMT-0400 (Eastern Daylight Time),488553.0,orange,1000,I,z,z,None,544,345.0,199.0,19,1,2073.7999992370605,486479.20000076294,9014,orange,NF,C,483989,483989,482264,483272,482265,484338,483789,483789,484338,107
104,test,1,con,1,m,Wed Apr 16 2025 13:03:48 GMT-0400 (Eastern Daylight Time),490886.0,zinc,1100,I,m,m,None,697,498.0,199.0,116,1,2323.699999809265,488562.30000019073,9014,zinc,NF,C,486172,486172,484347,485456,484348,486671,485972,485972,486671,108
105,test,1,inc,1,z,Wed Apr 16 2025 13:03:48 GMT-0400 (Eastern Daylight Time),492786.5,gold,800,I,z,z,None,552,353.0,199.0,61,1,1890.5999994277954,490895.9000005722,9014,plum,NF,C,488205,488205,486681,487489,486681,488572,488006,488006,488572,109
106,test,1,con,1,m,Wed Apr 16 2025 13:03:48 GMT-0400 (Eastern Daylight Time),494919.4000005722,zinc,1000,I,m,m,None,596,397.0,199.0,115,1,2124.199999809265,492795.20000076294,9014,zinc,NF,C,490305,490305,488580,489589,488581,490704,490106,490106,490704,110
107,test,1,inc,1,z,Wed Apr 16 2025 13:03:48 GMT-0400 (Eastern Daylight Time),497086.30000019073,zinc,1000,I,z,z,None,623,424.0,199.0,55,1,2158.0,494928.30000019073,9014,kiwi,NF,C,492438,492438,490713,491722,490714,492871,492239,492239,492871,111
108,test,1,con,1,z,Wed Apr 16 2025 13:03:48 GMT-0400 (Eastern Daylight Time),499336.30000019073,pear,1000,I,z,z,None,712,513.0,199.0,43,1,2241.3999996185303,497094.9000005722,9014,pear,NF,C,494605,494605,492880,493889,492880,495121,494405,494405,495121,112
109,test,1,inc,1,m,Wed Apr 16 2025 13:03:48 GMT-0400 (Eastern Daylight Time),501286.0,banana,800,I,m,m,None,615,415.0,200.0,69,1,1941.0999994277954,499344.9000005722,9014,bronze,NF,C,496655,496655,495130,495939,495130,497071,496455,496455,497071,113
110,test,1,inc,1,m,Wed Apr 16 2025 13:03:48 GMT-0400 (Eastern Daylight Time),503369.70000076294,pear,900,I,m,m,None,645,445.0,200.0,126,1,2076.300000190735,501293.4000005722,9014,lead,NF,C,498705,498705,497078,497989,497079,499155,498505,498505,499155,114
110,test,1,con,0,m,Wed Apr 16 2025 13:03:48 GMT-0400 (Eastern Daylight Time),505502.9000005722,bronze,900,I,z,z,None,689,490.0,199.0,66,1,2123.6000003814697,503379.30000019073,9014,bronze,NF,C,500789,500789,499164,500072,499165,501288,500589,500589,501288,115
111,test,1,con,1,m,Wed Apr 16 2025 13:03:48 GMT-0400 (Eastern Daylight Time),507553.0,silver,900,I,m,m,None,603,404.0,199.0,82,1,2041.5,505511.5,9014,silver,NF,C,502922,502922,501297,502205,501297,503338,502722,502722,503338,116
112,test,1,inc,1,z,Wed Apr 16 2025 13:03:48 GMT-0400 (Eastern Daylight Time),509669.9000005722,silver,1000,I,z,z,None,581,382.0,199.0,23,1,2108.1000003814697,507561.80000019073,9014,orange,NF,C,505072,505072,503347,504355,503347,505455,504872,504872,505455,117
113,test,1,inc,1,z,Wed Apr 16 2025 13:03:48 GMT-0400 (Eastern Daylight Time),512053.4000005722,lead,1100,I,z,z,None,748,549.0,199.0,64,1,2376.0,509677.4000005722,9014,plum,NF,C,507289,507289,505462,506572,505463,507839,507089,507089,507838,118
114,test,1,con,1,m,Wed Apr 16 2025 13:03:48 GMT-0400 (Eastern Daylight Time),514353.0,silver,1000,I,m,m,None,753,554.0,199.0,83,1,2291.5999994277954,512061.4000005722,9014,silver,NF,C,509572,509572,507846,508855,507847,510138,509372,509372,510138,119
115,test,1,inc,1,z,Wed Apr 16 2025 13:03:48 GMT-0400 (Eastern Daylight Time),516369.70000076294,iron,900,I,z,z,None,569,370.0,199.0,46,1,2008.2000007629395,514361.5,9014,pear,NF,C,511772,511772,510147,511055,510147,512155,511572,511572,512155,120
116,test,1,con,1,m,Wed Apr 16 2025 13:03:48 GMT-0400 (Eastern Daylight Time),518253.0,gold,900,I,m,m,None,441,242.0,199.0,98,1,1872.2999992370605,516380.70000076294,9014,gold,NF,C,513788,513788,512166,513072,512166,514038,513589,513589,514038,121
117,test,1,con,1,m,Wed Apr 16 2025 13:03:48 GMT-0400 (Eastern Daylight Time),520136.10000038147,lead,900,I,m,m,None,446,246.0,200.0,122,1,1873.8000001907349,518262.30000019073,9014,lead,NF,C,515672,515672,514047,514955,514048,515921,515471,515471,515921,122
118,test,1,inc,1,m,Wed Apr 16 2025 13:03:48 GMT-0400 (Eastern Daylight Time),521953.10000038147,lime,800,I,m,m,None,471,271.0,200.0,125,1,1808.6000003814697,520144.5,9014,lead,NF,C,517455,517455,515930,516739,515930,517738,517255,517255,517738,123
119,test,1,inc,1,m,Wed Apr 16 2025 13:03:48 GMT-0400 (Eastern Daylight Time),524119.60000038147,kiwi,1000,I,m,m,None,629,430.0,199.0,103,1,2158.5,521961.10000038147,9014,gold,NF,C,519472,519472,517746,518755,517746,519905,519272,519272,519905,124
120,test,1,con,1,m,Wed Apr 16 2025 13:03:48 GMT-0400 (Eastern Daylight Time),526286.2000007629,iron,900,I,m,m,None,723,524.0,199.0,106,1,2157.6000003814697,524128.60000038147,9014,iron,NF,C,521538,521538,519914,520822,519914,522071,521339,521339,522071,125
121,test,1,con,1,z,Wed Apr 16 2025 13:03:48 GMT-0400 (Eastern Daylight Time),528070.2000007629,kiwi,800,I,z,z,None,450,250.0,200.0,49,1,1774.4000005722046,526295.8000001907,9014,kiwi,NF,C,523605,523605,522081,522889,522081,523855,523405,523405,523855,126
122,test,1,con,1,z,Wed Apr 16 2025 13:03:48 GMT-0400 (Eastern Daylight Time),530453.1000003815,banana,1100,I,z,z,None,733,534.0,199.0,4,1,2375.1000003814697,528078.0,9014,banana,NF,C,525688,525688,523863,524972,523864,526238,525489,525489,526238,127
123,test,1,con,1,m,Wed Apr 16 2025 13:03:48 GMT-0400 (Eastern Daylight Time),532302.8000001907,zinc,900,I,m,m,None,405,206.0,199.0,114,1,1841.1999998092651,530461.6000003815,9014,zinc,NF,C,527872,527872,526247,527155,526247,528088,527672,527672,528088,128
