acc_sum,block,block_c,change,condition,correct,correct_response,datetime,endtime,face,project,response,response_time,row_sel,session_number,start_end,starttime,subject_id,task,task_vers,trial
0,prac,1,,1-Back,,,Thu Mar 27 2025 09:59:00 GMT-0500 (Central Daylight Time),,124_o_f_d_a.png,O,space,6115,1,1,,,7102,VNB,A,0
0,prac,1,0.0,1-Back,0,m,Thu Mar 27 2025 09:59:00 GMT-0500 (Central Daylight Time),134801.79999999702,071_y_f_n_a.png,O,z,1380,2,1,2175.0,132626.79999999702,7102,VNB,A,1
0,prac,1,0.0,1-Back,0,m,Thu Mar 27 2025 09:59:00 GMT-0500 (Central Daylight Time),137617.3999999985,165_m_m_h_a.png,O,None,2016,3,1,2808.39999999851,134809.0,7102,VNB,A,2
1,prac,1,0.0,1-Back,1,m,Thu Mar 27 2025 09:59:00 GMT-0500 (Central Daylight Time),139783.5,109_y_m_d_a.png,O,m,1355,4,1,2158.8000000044703,137624.69999999553,7102,VNB,A,3
2,prac,1,0.0,1-Back,1,m,Thu Mar 27 2025 09:59:00 GMT-0500 (Central Daylight Time),142199.3999999985,124_o_f_n_a.png,O,m,1572,5,1,2408.60000000149,139790.79999999702,7102,VNB,A,4
2,prac,1,1.0,1-Back,0,z,Thu Mar 27 2025 09:59:00 GMT-0500 (Central Daylight Time),143898.79999999702,109_y_m_n_a.png,O,m,884,6,1,1692.0,142206.79999999702,7102,VNB,A,5
3,prac,1,0.0,1-Back,1,m,Thu Mar 27 2025 09:59:00 GMT-0500 (Central Daylight Time),146014.79999999702,039_o_m_h_a.png,O,m,1311,7,1,2108.10000000149,143906.69999999553,7102,VNB,A,6
4,prac,1,0.0,1-Back,1,m,Thu Mar 27 2025 09:59:00 GMT-0500 (Central Daylight Time),148697.3999999985,139_m_f_d_a.png,O,m,1874,8,1,2675.39999999851,146022.0,7102,VNB,A,7
5,prac,1,1.0,1-Back,1,z,Thu Mar 27 2025 09:59:00 GMT-0500 (Central Daylight Time),150296.79999999702,071_y_f_d_a.png,O,z,800,9,1,1591.8999999985099,148704.8999999985,7102,VNB,A,8
6,prac,1,0.0,1-Back,1,m,Thu Mar 27 2025 09:59:00 GMT-0500 (Central Daylight Time),151912.8999999985,165_m_m_n_a.png,O,m,808,10,1,1608.8000000044703,150304.09999999404,7102,VNB,A,9
6,prac,1,0.0,1-Back,0,m,Thu Mar 27 2025 09:59:00 GMT-0500 (Central Daylight Time),153878.8999999985,124_o_f_h_a.png,O,z,1134,11,1,1959.0,151919.8999999985,7102,VNB,A,10
7,prac,1,0.0,1-Back,1,m,Thu Mar 27 2025 09:59:00 GMT-0500 (Central Daylight Time),156178.5,109_y_m_d_a.png,O,m,1516,12,1,2292.4000000059605,153886.09999999404,7102,VNB,A,11
0,prac,2,0.0,1-Back,,,Thu Mar 27 2025 09:59:00 GMT-0500 (Central Daylight Time),156178.5,124_o_f_d_a.png,O,a,3523,1,1,2292.4000000059605,153886.09999999404,7102,VNB,A,0
0,prac,2,0.0,1-Back,0,m,Thu Mar 27 2025 09:59:00 GMT-0500 (Central Daylight Time),165558.59999999404,071_y_f_n_a.png,O,None,2014,2,1,2808.0,162750.59999999404,7102,VNB,A,1
0,prac,2,0.0,1-Back,0,m,Thu Mar 27 2025 09:59:00 GMT-0500 (Central Daylight Time),168374.29999999702,165_m_m_h_a.png,O,None,2015,3,1,2808.10000000149,165566.19999999553,7102,VNB,A,2
1,prac,2,0.0,1-Back,1,m,Thu Mar 27 2025 09:59:00 GMT-0500 (Central Daylight Time),170507.09999999404,109_y_m_d_a.png,O,m,1348,4,1,2125.7999999970198,168381.29999999702,7102,VNB,A,3
2,prac,2,0.0,1-Back,1,m,Thu Mar 27 2025 09:59:00 GMT-0500 (Central Daylight Time),172783.79999999702,124_o_f_n_a.png,O,m,1438,5,1,2268.89999999851,170514.8999999985,7102,VNB,A,4
3,prac,2,1.0,1-Back,1,z,Thu Mar 27 2025 09:59:00 GMT-0500 (Central Daylight Time),174539.19999999553,109_y_m_n_a.png,O,z,933,6,1,1744.8999999985099,172794.29999999702,7102,VNB,A,5
4,prac,2,0.0,1-Back,1,m,Thu Mar 27 2025 09:59:00 GMT-0500 (Central Daylight Time),176388.5,039_o_m_h_a.png,O,m,1040,7,1,1842.3000000044703,174546.19999999553,7102,VNB,A,6
5,prac,2,0.0,1-Back,1,m,Thu Mar 27 2025 09:59:00 GMT-0500 (Central Daylight Time),178254.8999999985,139_m_f_d_a.png,O,m,1061,8,1,1859.3000000044703,176395.59999999404,7102,VNB,A,7
6,prac,2,1.0,1-Back,1,z,Thu Mar 27 2025 09:59:00 GMT-0500 (Central Daylight Time),180687.19999999553,071_y_f_d_a.png,O,z,1627,9,1,2425.2999999970198,178261.8999999985,7102,VNB,A,8
7,prac,2,0.0,1-Back,1,m,Thu Mar 27 2025 09:59:00 GMT-0500 (Central Daylight Time),182503.3999999985,165_m_m_n_a.png,O,m,1009,10,1,1808.8000000044703,180694.59999999404,7102,VNB,A,9
8,prac,2,0.0,1-Back,1,m,Thu Mar 27 2025 09:59:00 GMT-0500 (Central Daylight Time),184536.19999999553,124_o_f_h_a.png,O,m,1187,11,1,2023.1999999955297,182513.0,7102,VNB,A,10
9,prac,2,0.0,1-Back,1,m,Thu Mar 27 2025 09:59:00 GMT-0500 (Central Daylight Time),186385.3999999985,109_y_m_d_a.png,O,m,1066,12,1,1842.0,184543.3999999985,7102,VNB,A,11
0,test,1,0.0,1-Back,,,Thu Mar 27 2025 09:59:00 GMT-0500 (Central Daylight Time),186385.3999999985,071_y_f_d_a.png,O,space,10420,1,1,1842.0,184543.3999999985,7102,VNB,A,0
1,test,1,0.0,1-Back,1,m,Thu Mar 27 2025 09:59:00 GMT-0500 (Central Daylight Time),206246.0,139_m_f_n_a.png,O,m,838,2,1,1859.3000000044703,204386.69999999553,7102,VNB,A,1
2,test,1,0.0,1-Back,1,m,Thu Mar 27 2025 09:59:00 GMT-0500 (Central Daylight Time),208378.59999999404,039_o_m_h_a.png,O,m,1115,3,1,2125.39999999851,206253.19999999553,7102,VNB,A,2
3,test,1,1.0,1-Back,1,z,Thu Mar 27 2025 09:59:00 GMT-0500 (Central Daylight Time),210028.09999999404,165_m_m_h_a.png,O,z,622,4,1,1643.0999999940395,208385.0,7102,VNB,A,3
4,test,1,0.0,1-Back,1,m,Thu Mar 27 2025 09:59:00 GMT-0500 (Central Daylight Time),211760.8999999985,124_o_f_n_a.png,O,m,701,5,1,1726.7000000029802,210034.19999999553,7102,VNB,A,4
5,test,1,0.0,1-Back,1,m,Thu Mar 27 2025 09:59:00 GMT-0500 (Central Daylight Time),213760.09999999404,109_y_m_d_a.png,O,m,975,6,1,1992.5999999940395,211767.5,7102,VNB,A,5
6,test,1,1.0,1-Back,1,z,Thu Mar 27 2025 09:59:00 GMT-0500 (Central Daylight Time),215626.3999999985,139_m_f_d_a.png,O,z,849,7,1,1860.1000000014901,213766.29999999702,7102,VNB,A,6
7,test,1,0.0,1-Back,1,m,Thu Mar 27 2025 09:59:00 GMT-0500 (Central Daylight Time),217842.29999999702,071_y_f_h_a.png,O,m,1183,8,1,2209.2999999970198,215633.0,7102,VNB,A,7
8,test,1,0.0,1-Back,1,m,Thu Mar 27 2025 09:59:00 GMT-0500 (Central Daylight Time),220243.0,039_o_m_n_a.png,O,m,1367,9,1,2394.5,217848.5,7102,VNB,A,8
9,test,1,0.0,1-Back,1,m,Thu Mar 27 2025 09:59:00 GMT-0500 (Central Daylight Time),222357.59999999404,109_y_m_h_a.png,O,m,1088,10,1,2108.1999999955297,220249.3999999985,7102,VNB,A,9
10,test,1,0.0,1-Back,1,m,Thu Mar 27 2025 09:59:00 GMT-0500 (Central Daylight Time),224207.0,039_o_m_d_a.png,O,m,820,11,1,1843.2000000029802,222363.79999999702,7102,VNB,A,10
11,test,1,1.0,1-Back,1,z,Thu Mar 27 2025 09:59:00 GMT-0500 (Central Daylight Time),226239.5,124_o_f_d_a.png,O,z,1002,12,1,2026.3000000044703,224213.19999999553,7102,VNB,A,11
12,test,1,0.0,1-Back,1,m,Thu Mar 27 2025 09:59:00 GMT-0500 (Central Daylight Time),228189.19999999553,165_m_m_n_a.png,O,m,929,13,1,1943.5,226245.69999999553,7102,VNB,A,12
13,test,1,1.0,1-Back,1,z,Thu Mar 27 2025 09:59:00 GMT-0500 (Central Daylight Time),230504.8999999985,071_y_f_n_a.png,O,z,1292,14,1,2309.10000000149,228195.79999999702,7102,VNB,A,13
14,test,1,0.0,1-Back,1,m,Thu Mar 27 2025 09:59:00 GMT-0500 (Central Daylight Time),232437.69999999553,139_m_f_h_a.png,O,m,912,15,1,1926.6000000014901,230511.09999999404,7102,VNB,A,14
15,test,1,0.0,1-Back,1,m,Thu Mar 27 2025 09:59:00 GMT-0500 (Central Daylight Time),234604.69999999553,165_m_m_d_a.png,O,m,1147,16,1,2160.5,232444.19999999553,7102,VNB,A,15
16,test,1,0.0,1-Back,1,m,Thu Mar 27 2025 09:59:00 GMT-0500 (Central Daylight Time),236986.29999999702,109_y_m_n_a.png,O,m,1351,17,1,2375.10000000149,234611.19999999553,7102,VNB,A,16
17,test,1,0.0,1-Back,1,m,Thu Mar 27 2025 09:59:00 GMT-0500 (Central Daylight Time),239036.69999999553,124_o_f_h_a.png,O,m,1031,18,1,2044.1999999955297,236992.5,7102,VNB,A,17
0,test,2,0.0,1-Back,,,Thu Mar 27 2025 09:59:00 GMT-0500 (Central Daylight Time),239036.69999999553,109_y_m_n_a.png,O,space,1589,1,1,2044.1999999955297,236992.5,7102,VNB,A,0
1,test,2,0.0,1-Back,1,m,Thu Mar 27 2025 09:59:00 GMT-0500 (Central Daylight Time),244567.29999999702,071_y_f_h_a.png,O,m,886,2,1,1909.8999999985099,242657.3999999985,7102,VNB,A,1
2,test,2,1.0,1-Back,1,m,Thu Mar 27 2025 09:59:00 GMT-0500 (Central Daylight Time),246383.5,039_o_m_n_a.png,O,m,793,3,1,1809.4000000059605,244574.09999999404,7102,VNB,A,2
3,test,2,0.0,1-Back,1,m,Thu Mar 27 2025 09:59:00 GMT-0500 (Central Daylight Time),249099.09999999404,139_m_f_d_a.png,O,m,1690,4,1,2708.89999999851,246390.19999999553,7102,VNB,A,3
4,test,2,0.0,1-Back,1,z,Thu Mar 27 2025 09:59:00 GMT-0500 (Central Daylight Time),250982.0,165_m_m_d_a.png,O,z,853,5,1,1874.9000000059605,249107.09999999404,7102,VNB,A,4
5,test,2,0.0,1-Back,1,m,Thu Mar 27 2025 09:59:00 GMT-0500 (Central Daylight Time),253364.29999999702,109_y_m_h_a.png,O,m,1363,6,1,2376.10000000149,250988.19999999553,7102,VNB,A,5
6,test,2,1.0,1-Back,1,z,Thu Mar 27 2025 09:59:00 GMT-0500 (Central Daylight Time),255413.5,124_o_f_h_a.png,O,z,1029,7,1,2043.0,253370.5,7102,VNB,A,6
7,test,2,0.0,1-Back,1,m,Thu Mar 27 2025 09:59:00 GMT-0500 (Central Daylight Time),257196.5,139_m_f_n_a.png,O,m,755,8,1,1776.3000000044703,255420.19999999553,7102,VNB,A,7
8,test,2,0.0,1-Back,1,m,Thu Mar 27 2025 09:59:00 GMT-0500 (Central Daylight Time),259329.29999999702,071_y_f_d_a.png,O,m,1100,9,1,2126.2000000029802,257203.09999999404,7102,VNB,A,8
9,test,2,0.0,1-Back,1,m,Thu Mar 27 2025 09:59:00 GMT-0500 (Central Daylight Time),261578.59999999404,165_m_m_n_a.png,O,m,1232,10,1,2242.6999999955297,259335.8999999985,7102,VNB,A,9
10,test,2,1.0,1-Back,1,m,Thu Mar 27 2025 09:59:00 GMT-0500 (Central Daylight Time),263727.8999999985,139_m_f_h_a.png,O,m,1119,11,1,2143.2000000029802,261584.69999999553,7102,VNB,A,10
11,test,2,0.0,1-Back,1,z,Thu Mar 27 2025 09:59:00 GMT-0500 (Central Daylight Time),265693.799999997,039_o_m_h_a.png,O,z,937,12,1,1959.7000000029802,263734.09999999404,7102,VNB,A,11
12,test,2,0.0,1-Back,1,m,Thu Mar 27 2025 09:59:00 GMT-0500 (Central Daylight Time),267626.5,109_y_m_d_a.png,O,m,810,13,1,1926.5,265700.0,7102,VNB,A,12
13,test,2,0.0,1-Back,1,m,Thu Mar 27 2025 09:59:00 GMT-0500 (Central Daylight Time),269409.59999999404,124_o_f_n_a.png,O,m,751,14,1,1776.7999999970198,267632.799999997,7102,VNB,A,13
14,test,2,0.0,1-Back,1,z,Thu Mar 27 2025 09:59:00 GMT-0500 (Central Daylight Time),271442.299999997,071_y_f_n_a.png,O,z,1016,15,1,2026.5,269415.799999997,7102,VNB,A,14
15,test,2,1.0,1-Back,1,m,Thu Mar 27 2025 09:59:00 GMT-0500 (Central Daylight Time),273474.799999997,165_m_m_h_a.png,O,m,999,16,1,2026.5,271448.299999997,7102,VNB,A,15
16,test,2,0.0,1-Back,1,m,Thu Mar 27 2025 09:59:00 GMT-0500 (Central Daylight Time),275407.5,124_o_f_d_a.png,O,m,910,17,1,1926.3000000044703,273481.19999999553,7102,VNB,A,16
16,test,2,1.0,1-Back,0,z,Thu Mar 27 2025 09:59:00 GMT-0500 (Central Daylight Time),277307.09999999404,039_o_m_d_a.png,O,m,874,18,1,1893.5,275413.59999999404,7102,VNB,A,17
0,test,3,1.0,1-Back,,,Thu Mar 27 2025 09:59:00 GMT-0500 (Central Daylight Time),277307.09999999404,124_o_f_h_a.png,O,space,1302,1,1,1893.5,275413.59999999404,7102,VNB,A,0
1,test,3,0.0,1-Back,1,m,Thu Mar 27 2025 09:59:00 GMT-0500 (Central Daylight Time),282505.5,139_m_f_d_a.png,O,m,809,2,1,1826.7000000029802,280678.799999997,7102,VNB,A,1
2,test,3,1.0,1-Back,1,m,Thu Mar 27 2025 09:59:00 GMT-0500 (Central Daylight Time),284554.69999999553,165_m_m_n_a.png,O,m,1032,3,1,2042.6999999955297,282512.0,7102,VNB,A,2
3,test,3,0.0,1-Back,1,z,Thu Mar 27 2025 09:59:00 GMT-0500 (Central Daylight Time),286470.799999997,124_o_f_n_a.png,O,z,894,4,1,1910.0,284560.799999997,7102,VNB,A,3
4,test,3,1.0,1-Back,1,m,Thu Mar 27 2025 09:59:00 GMT-0500 (Central Daylight Time),288769.8999999985,039_o_m_d_a.png,O,m,1266,5,1,2292.60000000149,286477.299999997,7102,VNB,A,4
5,test,3,0.0,1-Back,1,m,Thu Mar 27 2025 09:59:00 GMT-0500 (Central Daylight Time),290585.8999999985,071_y_f_h_a.png,O,m,791,6,1,1808.3999999985099,288777.5,7102,VNB,A,5
6,test,3,0.0,1-Back,1,z,Thu Mar 27 2025 09:59:00 GMT-0500 (Central Daylight Time),292568.8999999985,109_y_m_h_a.png,O,z,951,7,1,1972.5,290596.3999999985,7102,VNB,A,6
7,test,3,0.0,1-Back,1,m,Thu Mar 27 2025 09:59:00 GMT-0500 (Central Daylight Time),295101.299999997,139_m_f_n_a.png,O,m,1504,8,1,2526.2000000029802,292575.09999999404,7102,VNB,A,7
8,test,3,0.0,1-Back,1,m,Thu Mar 27 2025 09:59:00 GMT-0500 (Central Daylight Time),296984.19999999553,071_y_f_d_a.png,O,m,852,9,1,1876.6000000014901,295107.59999999404,7102,VNB,A,8
9,test,3,1.0,1-Back,1,m,Thu Mar 27 2025 09:59:00 GMT-0500 (Central Daylight Time),299017.0,039_o_m_n_a.png,O,m,1001,10,1,2026.5,296990.5,7102,VNB,A,9
10,test,3,0.0,1-Back,1,m,Thu Mar 27 2025 09:59:00 GMT-0500 (Central Daylight Time),301099.799999997,165_m_m_h_a.png,O,m,1056,11,1,2076.5,299023.299999997,7102,VNB,A,10
11,test,3,0.0,1-Back,1,z,Thu Mar 27 2025 09:59:00 GMT-0500 (Central Daylight Time),302998.799999997,139_m_f_h_a.png,O,z,869,12,1,1892.7999999970198,301106.0,7102,VNB,A,11
12,test,3,1.0,1-Back,1,m,Thu Mar 27 2025 09:59:00 GMT-0500 (Central Daylight Time),304831.799999997,124_o_f_d_a.png,O,m,810,13,1,1826.1000000014901,303005.69999999553,7102,VNB,A,12
13,test,3,0.0,1-Back,1,z,Thu Mar 27 2025 09:59:00 GMT-0500 (Central Daylight Time),306565.59999999404,165_m_m_d_a.png,O,z,713,14,1,1727.2999999970198,304838.299999997,7102,VNB,A,13
14,test,3,0.0,1-Back,1,m,Thu Mar 27 2025 09:59:00 GMT-0500 (Central Daylight Time),308581.69999999553,109_y_m_n_a.png,O,m,997,15,1,2010.0,306571.69999999553,7102,VNB,A,14
15,test,3,1.0,1-Back,1,m,Thu Mar 27 2025 09:59:00 GMT-0500 (Central Daylight Time),310896.5,039_o_m_h_a.png,O,m,1293,16,1,2308.5,308588.0,7102,VNB,A,15
16,test,3,0.0,1-Back,1,m,Thu Mar 27 2025 09:59:00 GMT-0500 (Central Daylight Time),312795.799999997,109_y_m_d_a.png,O,m,873,17,1,1893.2000000029802,310902.59999999404,7102,VNB,A,16
17,test,3,1.0,1-Back,1,m,Thu Mar 27 2025 09:59:00 GMT-0500 (Central Daylight Time),314645.5,071_y_f_n_a.png,O,m,710,18,1,1843.3000000044703,312802.19999999553,7102,VNB,A,17
0,test,4,1.0,1-Back,,,Thu Mar 27 2025 09:59:00 GMT-0500 (Central Daylight Time),314645.5,165_m_m_d_a.png,O,space,1324,1,1,1843.3000000044703,312802.19999999553,7102,VNB,A,0
1,test,4,0.0,1-Back,1,z,Thu Mar 27 2025 09:59:00 GMT-0500 (Central Daylight Time),320577.8999999985,039_o_m_d_a.png,O,z,1542,2,1,2560.7000000029802,318017.19999999553,7102,VNB,A,1
2,test,4,0.0,1-Back,1,m,Thu Mar 27 2025 09:59:00 GMT-0500 (Central Daylight Time),322476.3999999985,109_y_m_h_a.png,O,m,880,3,1,1891.8999999985099,320584.5,7102,VNB,A,2
3,test,4,0.0,1-Back,1,m,Thu Mar 27 2025 09:59:00 GMT-0500 (Central Daylight Time),324225.59999999404,139_m_f_n_a.png,O,m,717,4,1,1743.2999999970198,322482.299999997,7102,VNB,A,3
4,test,4,1.0,1-Back,1,m,Thu Mar 27 2025 09:59:00 GMT-0500 (Central Daylight Time),326308.09999999404,124_o_f_h_a.png,O,m,1055,5,1,2076.2999999970198,324231.799999997,7102,VNB,A,4
5,test,4,0.0,1-Back,1,m,Thu Mar 27 2025 09:59:00 GMT-0500 (Central Daylight Time),328040.799999997,165_m_m_n_a.png,O,m,701,6,1,1726.2000000029802,326314.59999999404,7102,VNB,A,5
6,test,4,0.0,1-Back,1,m,Thu Mar 27 2025 09:59:00 GMT-0500 (Central Daylight Time),330207.09999999404,109_y_m_d_a.png,O,m,1136,7,1,2158.89999999851,328048.19999999553,7102,VNB,A,6
7,test,4,1.0,1-Back,1,z,Thu Mar 27 2025 09:59:00 GMT-0500 (Central Daylight Time),332273.19999999553,071_y_f_d_a.png,O,z,1034,8,1,2059.6999999955297,330213.5,7102,VNB,A,7
8,test,4,0.0,1-Back,1,m,Thu Mar 27 2025 09:59:00 GMT-0500 (Central Daylight Time),334156.0,139_m_f_h_a.png,O,m,856,9,1,1876.0,332280.0,7102,VNB,A,8
9,test,4,0.0,1-Back,1,z,Thu Mar 27 2025 09:59:00 GMT-0500 (Central Daylight Time),336088.69999999553,039_o_m_h_a.png,O,z,901,10,1,1926.3999999985099,334162.299999997,7102,VNB,A,9
10,test,4,1.0,1-Back,1,m,Thu Mar 27 2025 09:59:00 GMT-0500 (Central Daylight Time),337871.19999999553,124_o_f_n_a.png,O,m,761,11,1,1776.0,336095.19999999553,7102,VNB,A,10
11,test,4,0.0,1-Back,1,m,Thu Mar 27 2025 09:59:00 GMT-0500 (Central Daylight Time),339904.09999999404,139_m_f_d_a.png,O,m,1010,12,1,2026.2999999970198,337877.799999997,7102,VNB,A,11
12,test,4,0.0,1-Back,1,m,Thu Mar 27 2025 09:59:00 GMT-0500 (Central Daylight Time),342120.0,071_y_f_n_a.png,O,m,1185,13,1,2209.7000000029802,339910.299999997,7102,VNB,A,12
13,test,4,0.0,1-Back,1,m,Thu Mar 27 2025 09:59:00 GMT-0500 (Central Daylight Time),343919.3999999985,124_o_f_d_a.png,O,m,769,14,1,1793.2000000029802,342126.19999999553,7102,VNB,A,13
14,test,4,0.0,1-Back,1,m,Thu Mar 27 2025 09:59:00 GMT-0500 (Central Daylight Time),345635.59999999404,071_y_f_h_a.png,O,m,690,15,1,1709.6999999955297,343925.8999999985,7102,VNB,A,14
15,test,4,1.0,1-Back,1,z,Thu Mar 27 2025 09:59:00 GMT-0500 (Central Daylight Time),347668.299999997,165_m_m_h_a.png,O,z,1006,16,1,2026.6000000014901,345641.69999999553,7102,VNB,A,15
16,test,4,0.0,1-Back,1,m,Thu Mar 27 2025 09:59:00 GMT-0500 (Central Daylight Time),349834.5,039_o_m_n_a.png,O,m,1149,17,1,2158.9000000059605,347675.59999999404,7102,VNB,A,16
17,test,4,1.0,1-Back,1,z,Thu Mar 27 2025 09:59:00 GMT-0500 (Central Daylight Time),351900.59999999404,109_y_m_n_a.png,O,z,1039,18,1,2059.5999999940395,349841.0,7102,VNB,A,17
0,test,5,1.0,1-Back,,,Thu Mar 27 2025 09:59:00 GMT-0500 (Central Daylight Time),351900.59999999404,039_o_m_n_a.png,O,space,1181,1,1,2059.5999999940395,349841.0,7102,VNB,A,0
1,test,5,1.0,1-Back,1,m,Thu Mar 27 2025 09:59:00 GMT-0500 (Central Daylight Time),357415.299999997,124_o_f_h_a.png,O,m,1286,2,1,2310.10000000149,355105.19999999553,7102,VNB,A,1
2,test,5,0.0,1-Back,1,m,Thu Mar 27 2025 09:59:00 GMT-0500 (Central Daylight Time),359248.0,109_y_m_d_a.png,O,m,802,3,1,1826.2000000029802,357421.799999997,7102,VNB,A,2
3,test,5,0.0,1-Back,1,z,Thu Mar 27 2025 09:59:00 GMT-0500 (Central Daylight Time),361247.09999999404,039_o_m_d_a.png,O,z,971,4,1,1993.0,359254.09999999404,7102,VNB,A,3
4,test,5,0.0,1-Back,1,m,Thu Mar 27 2025 09:59:00 GMT-0500 (Central Daylight Time),363196.799999997,139_m_f_h_a.png,O,m,922,5,1,1939.3999999985099,361257.3999999985,7102,VNB,A,4
5,test,5,0.0,1-Back,1,m,Thu Mar 27 2025 09:59:00 GMT-0500 (Central Daylight Time),364946.19999999553,071_y_f_n_a.png,O,m,724,6,1,1743.1000000014901,363203.09999999404,7102,VNB,A,5
6,test,5,1.0,1-Back,1,z,Thu Mar 27 2025 09:59:00 GMT-0500 (Central Daylight Time),366962.5,124_o_f_n_a.png,O,z,983,7,1,2009.9000000059605,364952.59999999404,7102,VNB,A,6
7,test,5,0.0,1-Back,1,m,Thu Mar 27 2025 09:59:00 GMT-0500 (Central Daylight Time),368794.69999999553,139_m_f_d_a.png,O,m,815,8,1,1826.1000000014901,366968.59999999404,7102,VNB,A,7
8,test,5,0.0,1-Back,1,m,Thu Mar 27 2025 09:59:00 GMT-0500 (Central Daylight Time),370611.0,109_y_m_h_a.png,O,m,798,9,1,1810.3000000044703,368800.69999999553,7102,VNB,A,8
8,test,5,0.0,1-Back,0,m,Thu Mar 27 2025 09:59:00 GMT-0500 (Central Daylight Time),372943.69999999553,071_y_f_d_a.png,O,z,1302,10,1,2326.60000000149,370617.09999999404,7102,VNB,A,9
9,test,5,0.0,1-Back,1,m,Thu Mar 27 2025 09:59:00 GMT-0500 (Central Daylight Time),375343.09999999404,165_m_m_n_a.png,O,m,1369,11,1,2393.0,372950.09999999404,7102,VNB,A,10
10,test,5,1.0,1-Back,1,z,Thu Mar 27 2025 09:59:00 GMT-0500 (Central Daylight Time),377558.8999999985,139_m_f_n_a.png,O,z,1194,12,1,2209.39999999851,375349.5,7102,VNB,A,11
11,test,5,0.0,1-Back,1,m,Thu Mar 27 2025 09:59:00 GMT-0500 (Central Daylight Time),379575.0,039_o_m_h_a.png,O,m,994,13,1,2009.8000000044703,377565.19999999553,7102,VNB,A,12
12,test,5,0.0,1-Back,1,z,Thu Mar 27 2025 09:59:00 GMT-0500 (Central Daylight Time),381274.299999997,165_m_m_h_a.png,O,z,674,14,1,1693.0,379581.299999997,7102,VNB,A,13
13,test,5,1.0,1-Back,1,m,Thu Mar 27 2025 09:59:00 GMT-0500 (Central Daylight Time),383357.09999999404,124_o_f_d_a.png,O,m,1055,15,1,2076.5999999940395,381280.5,7102,VNB,A,14
14,test,5,0.0,1-Back,1,m,Thu Mar 27 2025 09:59:00 GMT-0500 (Central Daylight Time),385639.799999997,109_y_m_n_a.png,O,m,1260,16,1,2276.10000000149,383363.69999999553,7102,VNB,A,15
15,test,5,0.0,1-Back,1,m,Thu Mar 27 2025 09:59:00 GMT-0500 (Central Daylight Time),387540.299999997,071_y_f_h_a.png,O,m,881,17,1,1894.2999999970198,385646.0,7102,VNB,A,16
16,test,5,0.0,1-Back,1,m,Thu Mar 27 2025 09:59:00 GMT-0500 (Central Daylight Time),389571.8999999985,165_m_m_d_a.png,O,m,1006,18,1,2025.3000000044703,387546.59999999404,7102,VNB,A,17
0,prac,1,0.0,2-Back,,,Thu Mar 27 2025 09:59:00 GMT-0500 (Central Daylight Time),389571.8999999985,139_m_f_n_a.png,O,space,6804,1,1,2025.3000000044703,387546.59999999404,7102,VNB,A,0
0,prac,1,0.0,2-Back,,,Thu Mar 27 2025 09:59:00 GMT-0500 (Central Daylight Time),389571.8999999985,124_o_f_h_a.png,O,space,6804,2,1,2025.3000000044703,387546.59999999404,7102,VNB,A,0
0,prac,1,0.0,2-Back,0,m,Thu Mar 27 2025 09:59:00 GMT-0500 (Central Daylight Time),496638.3999999985,039_o_m_d_a.png,O,None,2017,3,1,2808.39999999851,493830.0,7102,VNB,A,1
1,prac,1,1.0,2-Back,1,z,Thu Mar 27 2025 09:59:00 GMT-0500 (Central Daylight Time),499321.0,165_m_m_h_a.png,O,z,1868,4,1,2675.5,496645.5,7102,VNB,A,2
1,prac,1,0.0,2-Back,0,m,Thu Mar 27 2025 09:59:00 GMT-0500 (Central Daylight Time),502233.69999999553,071_y_f_n_a.png,O,None,2015,5,1,2905.0,499328.69999999553,7102,VNB,A,3
2,prac,1,1.0,2-Back,1,z,Thu Mar 27 2025 09:59:00 GMT-0500 (Central Daylight Time),504219.299999997,039_o_m_h_a.png,O,z,1177,6,1,1977.7999999970198,502241.5,7102,VNB,A,4
3,prac,1,1.0,2-Back,1,z,Thu Mar 27 2025 09:59:00 GMT-0500 (Central Daylight Time),506301.8999999985,109_y_m_n_a.png,O,z,1272,7,1,2075.39999999851,504226.5,7102,VNB,A,5
4,prac,1,0.0,2-Back,1,m,Thu Mar 27 2025 09:59:00 GMT-0500 (Central Daylight Time),508718.0,139_m_f_d_a.png,O,m,1611,8,1,2409.10000000149,506308.8999999985,7102,VNB,A,6
4,prac,1,0.0,2-Back,0,m,Thu Mar 27 2025 09:59:00 GMT-0500 (Central Daylight Time),511017.5,124_o_f_d_a.png,O,z,1448,9,1,2290.2000000029802,508727.299999997,7102,VNB,A,7
5,prac,1,0.0,2-Back,1,m,Thu Mar 27 2025 09:59:00 GMT-0500 (Central Daylight Time),513516.69999999553,165_m_m_h_a.png,O,m,1712,10,1,2491.5,511025.19999999553,7102,VNB,A,8
6,prac,1,1.0,2-Back,1,z,Thu Mar 27 2025 09:59:00 GMT-0500 (Central Daylight Time),515432.69999999553,071_y_f_d_a.png,O,z,1092,11,1,1908.6000000014901,513524.09999999404,7102,VNB,A,9
7,prac,1,0.0,2-Back,1,m,Thu Mar 27 2025 09:59:00 GMT-0500 (Central Daylight Time),518065.19999999553,039_o_m_n_a.png,O,m,1834,12,1,2625.1999999955297,515440.0,7102,VNB,A,10
0,test,1,0.0,2-Back,,,Thu Mar 27 2025 09:59:00 GMT-0500 (Central Daylight Time),518065.19999999553,109_y_m_h_a.png,O,space,3675,1,1,2625.1999999955297,515440.0,7102,VNB,A,0
0,test,1,0.0,2-Back,,,Thu Mar 27 2025 09:59:00 GMT-0500 (Central Daylight Time),518065.19999999553,124_o_f_n_a.png,O,space,3675,2,1,2625.1999999955297,515440.0,7102,VNB,A,0
1,test,1,0.0,2-Back,1,z,Thu Mar 27 2025 09:59:00 GMT-0500 (Central Daylight Time),534993.0,039_o_m_h_a.png,O,z,1101,3,1,2126.60000000149,532866.3999999985,7102,VNB,A,1
2,test,1,0.0,2-Back,1,m,Thu Mar 27 2025 09:59:00 GMT-0500 (Central Daylight Time),537342.3999999985,139_m_f_d_a.png,O,m,1328,4,1,2342.60000000149,534999.799999997,7102,VNB,A,2
3,test,1,1.0,2-Back,1,m,Thu Mar 27 2025 09:59:00 GMT-0500 (Central Daylight Time),540158.1999999955,109_y_m_n_a.png,O,m,1787,5,1,2808.89999999851,537349.299999997,7102,VNB,A,3
4,test,1,0.0,2-Back,1,z,Thu Mar 27 2025 09:59:00 GMT-0500 (Central Daylight Time),542940.6999999955,071_y_f_d_a.png,O,z,1764,6,1,2776.1999999955297,540164.5,7102,VNB,A,4
4,test,1,0.0,2-Back,0,m,Thu Mar 27 2025 09:59:00 GMT-0500 (Central Daylight Time),545973.0,165_m_m_h_a.png,O,None,2015,7,1,3025.5,542947.5,7102,VNB,A,5
4,test,1,1.0,2-Back,0,m,Thu Mar 27 2025 09:59:00 GMT-0500 (Central Daylight Time),548638.799999997,071_y_f_n_a.png,O,z,1644,8,1,2659.7000000029802,545979.099999994,7102,VNB,A,6
5,test,1,0.0,2-Back,1,z,Thu Mar 27 2025 09:59:00 GMT-0500 (Central Daylight Time),550854.799999997,124_o_f_h_a.png,O,z,1187,9,1,2209.7999999970198,548645.0,7102,VNB,A,7
6,test,1,0.0,2-Back,1,m,Thu Mar 27 2025 09:59:00 GMT-0500 (Central Daylight Time),552954.1999999955,039_o_m_d_a.png,O,m,1067,10,1,2092.60000000149,550861.599999994,7102,VNB,A,8
7,test,1,1.0,2-Back,1,m,Thu Mar 27 2025 09:59:00 GMT-0500 (Central Daylight Time),555769.8999999985,165_m_m_d_a.png,O,m,1791,11,1,2809.2000000029802,552960.6999999955,7102,VNB,A,9
7,test,1,0.0,2-Back,0,m,Thu Mar 27 2025 09:59:00 GMT-0500 (Central Daylight Time),557936.0,139_m_f_n_a.png,O,z,1135,12,1,2159.7000000029802,555776.299999997,7102,VNB,A,10
8,test,1,0.0,2-Back,1,m,Thu Mar 27 2025 09:59:00 GMT-0500 (Central Daylight Time),559869.5,071_y_f_h_a.png,O,m,905,13,1,1926.9000000059605,557942.599999994,7102,VNB,A,11
9,test,1,0.0,2-Back,1,z,Thu Mar 27 2025 09:59:00 GMT-0500 (Central Daylight Time),562651.099999994,165_m_m_n_a.png,O,z,1757,14,1,2774.6999999955297,559876.3999999985,7102,VNB,A,12
10,test,1,0.0,2-Back,1,m,Thu Mar 27 2025 09:59:00 GMT-0500 (Central Daylight Time),565017.0,109_y_m_d_a.png,O,m,1334,15,1,2359.3000000044703,562657.6999999955,7102,VNB,A,13
11,test,1,1.0,2-Back,1,m,Thu Mar 27 2025 09:59:00 GMT-0500 (Central Daylight Time),567832.799999997,139_m_f_h_a.png,O,m,1792,16,1,2809.10000000149,565023.6999999955,7102,VNB,A,14
11,test,1,0.0,2-Back,0,z,Thu Mar 27 2025 09:59:00 GMT-0500 (Central Daylight Time),570865.1999999955,124_o_f_d_a.png,O,None,2015,17,1,3025.89999999851,567839.299999997,7102,VNB,A,15
11,test,1,0.0,2-Back,0,m,Thu Mar 27 2025 09:59:00 GMT-0500 (Central Daylight Time),572877.099999994,039_o_m_n_a.png,O,z,995,18,1,2005.5,570871.599999994,7102,VNB,A,16
0,test,2,0.0,2-Back,,,Thu Mar 27 2025 09:59:00 GMT-0500 (Central Daylight Time),572877.099999994,165_m_m_h_a.png,O,space,1204,1,1,2005.5,570871.599999994,7102,VNB,A,0
0,test,2,0.0,2-Back,,,Thu Mar 27 2025 09:59:00 GMT-0500 (Central Daylight Time),572877.099999994,071_y_f_n_a.png,O,space,1204,2,1,2005.5,570871.599999994,7102,VNB,A,0
1,test,2,1.0,2-Back,1,z,Thu Mar 27 2025 09:59:00 GMT-0500 (Central Daylight Time),580895.5,124_o_f_h_a.png,O,z,669,3,1,1693.2000000029802,579202.299999997,7102,VNB,A,1
2,test,2,0.0,2-Back,1,m,Thu Mar 27 2025 09:59:00 GMT-0500 (Central Daylight Time),582878.0,039_o_m_d_a.png,O,m,962,4,1,1976.1000000014901,580901.8999999985,7102,VNB,A,2
3,test,2,0.0,2-Back,1,m,Thu Mar 27 2025 09:59:00 GMT-0500 (Central Daylight Time),585194.0,139_m_f_d_a.png,O,m,1283,5,1,2309.3000000044703,582884.6999999955,7102,VNB,A,3
4,test,2,0.0,2-Back,1,m,Thu Mar 27 2025 09:59:00 GMT-0500 (Central Daylight Time),587476.799999997,109_y_m_h_a.png,O,m,1263,6,1,2276.2999999970198,585200.5,7102,VNB,A,4
4,test,2,0.0,2-Back,0,m,Thu Mar 27 2025 09:59:00 GMT-0500 (Central Daylight Time),589825.8999999985,124_o_f_n_a.png,O,z,1317,7,1,2342.8000000044703,587483.099999994,7102,VNB,A,5
5,test,2,1.0,2-Back,1,z,Thu Mar 27 2025 09:59:00 GMT-0500 (Central Daylight Time),592025.3999999985,039_o_m_h_a.png,O,z,1175,8,1,2192.7000000029802,589832.6999999955,7102,VNB,A,6
6,test,2,0.0,2-Back,1,m,Thu Mar 27 2025 09:59:00 GMT-0500 (Central Daylight Time),594324.299999997,071_y_f_d_a.png,O,m,1272,9,1,2292.60000000149,592031.6999999955,7102,VNB,A,7
7,test,2,0.0,2-Back,1,m,Thu Mar 27 2025 09:59:00 GMT-0500 (Central Daylight Time),596990.599999994,109_y_m_d_a.png,O,m,1637,10,1,2659.39999999851,594331.1999999955,7102,VNB,A,8
7,test,2,0.0,2-Back,0,m,Thu Mar 27 2025 09:59:00 GMT-0500 (Central Daylight Time),599023.1999999955,165_m_m_n_a.png,O,z,1012,11,1,2025.7999999970198,596997.3999999985,7102,VNB,A,9
7,test,2,0.0,2-Back,0,m,Thu Mar 27 2025 09:59:00 GMT-0500 (Central Daylight Time),601638.8999999985,139_m_f_h_a.png,O,z,1594,12,1,2609.0,599029.8999999985,7102,VNB,A,10
7,test,2,1.0,2-Back,0,z,Thu Mar 27 2025 09:59:00 GMT-0500 (Central Daylight Time),603838.1999999955,039_o_m_n_a.png,O,m,1171,13,1,2192.89999999851,601645.299999997,7102,VNB,A,11
8,test,2,0.0,2-Back,1,m,Thu Mar 27 2025 09:59:00 GMT-0500 (Central Daylight Time),605820.799999997,124_o_f_d_a.png,O,m,956,14,1,1976.2000000029802,603844.599999994,7102,VNB,A,12
9,test,2,0.0,2-Back,1,m,Thu Mar 27 2025 09:59:00 GMT-0500 (Central Daylight Time),608403.6999999955,071_y_f_h_a.png,O,m,1557,15,1,2575.6999999955297,605828.0,7102,VNB,A,13
10,test,2,0.0,2-Back,1,z,Thu Mar 27 2025 09:59:00 GMT-0500 (Central Daylight Time),610769.299999997,165_m_m_d_a.png,O,z,1334,16,1,2358.7999999970198,608410.5,7102,VNB,A,14
11,test,2,0.0,2-Back,1,m,Thu Mar 27 2025 09:59:00 GMT-0500 (Central Daylight Time),612818.799999997,109_y_m_n_a.png,O,m,1017,17,1,2043.1000000014901,610775.6999999955,7102,VNB,A,15
12,test,2,1.0,2-Back,1,m,Thu Mar 27 2025 09:59:00 GMT-0500 (Central Daylight Time),615018.0,139_m_f_n_a.png,O,m,1175,18,1,2192.60000000149,612825.3999999985,7102,VNB,A,16
0,test,3,1.0,2-Back,,,Thu Mar 27 2025 09:59:00 GMT-0500 (Central Daylight Time),615018.0,039_o_m_n_a.png,O,space,1416,1,1,2192.60000000149,612825.3999999985,7102,VNB,A,0
0,test,3,1.0,2-Back,,,Thu Mar 27 2025 09:59:00 GMT-0500 (Central Daylight Time),615018.0,124_o_f_d_a.png,O,space,1416,2,1,2192.60000000149,612825.3999999985,7102,VNB,A,0
0,test,3,0.0,2-Back,0,m,Thu Mar 27 2025 09:59:00 GMT-0500 (Central Daylight Time),624598.0,071_y_f_h_a.png,O,None,2015,3,1,3025.0,621573.0,7102,VNB,A,1
1,test,3,0.0,2-Back,1,z,Thu Mar 27 2025 09:59:00 GMT-0500 (Central Daylight Time),627181.0,139_m_f_d_a.png,O,z,1563,4,1,2576.10000000149,624604.8999999985,7102,VNB,A,2
2,test,3,1.0,2-Back,1,m,Thu Mar 27 2025 09:59:00 GMT-0500 (Central Daylight Time),629246.6999999955,109_y_m_n_a.png,O,m,1044,5,1,2058.60000000149,627188.099999994,7102,VNB,A,3
3,test,3,0.0,2-Back,1,m,Thu Mar 27 2025 09:59:00 GMT-0500 (Central Daylight Time),631546.1999999955,039_o_m_h_a.png,O,m,1274,6,1,2292.39999999851,629253.799999997,7102,VNB,A,4
4,test,3,0.0,2-Back,1,z,Thu Mar 27 2025 09:59:00 GMT-0500 (Central Daylight Time),633696.599999994,071_y_f_n_a.png,O,z,1119,7,1,2144.0,631552.599999994,7102,VNB,A,5
5,test,3,1.0,2-Back,1,m,Thu Mar 27 2025 09:59:00 GMT-0500 (Central Daylight Time),636078.1999999955,165_m_m_d_a.png,O,m,1353,8,1,2375.10000000149,633703.099999994,7102,VNB,A,6
6,test,3,0.0,2-Back,1,m,Thu Mar 27 2025 09:59:00 GMT-0500 (Central Daylight Time),638094.1999999955,109_y_m_d_a.png,O,m,987,9,1,2009.6999999955297,636084.5,7102,VNB,A,7
6,test,3,0.0,2-Back,0,m,Thu Mar 27 2025 09:59:00 GMT-0500 (Central Daylight Time),640510.0,124_o_f_h_a.png,O,z,1395,10,1,2409.7000000029802,638100.299999997,7102,VNB,A,8
6,test,3,1.0,2-Back,0,m,Thu Mar 27 2025 09:59:00 GMT-0500 (Central Daylight Time),642775.799999997,139_m_f_n_a.png,O,z,1243,11,1,2259.2000000029802,640516.599999994,7102,VNB,A,9
6,test,3,1.0,2-Back,0,z,Thu Mar 27 2025 09:59:00 GMT-0500 (Central Daylight Time),645242.099999994,165_m_m_h_a.png,O,m,1434,12,1,2459.89999999851,642782.1999999955,7102,VNB,A,10
6,test,3,0.0,2-Back,0,m,Thu Mar 27 2025 09:59:00 GMT-0500 (Central Daylight Time),647740.8999999985,071_y_f_d_a.png,O,z,1471,13,1,2492.7000000029802,645248.1999999955,7102,VNB,A,11
7,test,3,0.0,2-Back,1,m,Thu Mar 27 2025 09:59:00 GMT-0500 (Central Daylight Time),650173.3999999985,124_o_f_n_a.png,O,m,1412,14,1,2426.2000000029802,647747.1999999955,7102,VNB,A,12
7,test,3,0.0,2-Back,0,z,Thu Mar 27 2025 09:59:00 GMT-0500 (Central Daylight Time),652389.599999994,039_o_m_d_a.png,O,m,1187,15,1,2208.5,650181.099999994,7102,VNB,A,13
7,test,3,1.0,2-Back,0,m,Thu Mar 27 2025 09:59:00 GMT-0500 (Central Daylight Time),654755.3999999985,139_m_f_h_a.png,O,z,1347,16,1,2359.7000000029802,652395.6999999955,7102,VNB,A,14
8,test,3,0.0,2-Back,1,m,Thu Mar 27 2025 09:59:00 GMT-0500 (Central Daylight Time),656821.5,165_m_m_n_a.png,O,m,1038,17,1,2059.8000000044703,654761.6999999955,7102,VNB,A,15
9,test,3,0.0,2-Back,1,z,Thu Mar 27 2025 09:59:00 GMT-0500 (Central Daylight Time),658954.5,109_y_m_h_a.png,O,z,1101,18,1,2126.7000000029802,656827.799999997,7102,VNB,A,16
0,test,4,0.0,2-Back,,,Thu Mar 27 2025 09:59:00 GMT-0500 (Central Daylight Time),658954.5,139_m_f_n_a.png,O,space,1056,1,1,2126.7000000029802,656827.799999997,7102,VNB,A,0
0,test,4,0.0,2-Back,,,Thu Mar 27 2025 09:59:00 GMT-0500 (Central Daylight Time),658954.5,039_o_m_n_a.png,O,space,1056,2,1,2126.7000000029802,656827.799999997,7102,VNB,A,0
0,test,4,1.0,2-Back,0,m,Thu Mar 27 2025 09:59:00 GMT-0500 (Central Daylight Time),666818.5,109_y_m_h_a.png,O,z,706,3,1,1726.8000000044703,665091.6999999955,7102,VNB,A,1
1,test,4,1.0,2-Back,1,m,Thu Mar 27 2025 09:59:00 GMT-0500 (Central Daylight Time),669417.599999994,124_o_f_d_a.png,O,m,1567,4,1,2592.6999999955297,666824.8999999985,7102,VNB,A,2
2,test,4,0.0,2-Back,1,z,Thu Mar 27 2025 09:59:00 GMT-0500 (Central Daylight Time),671283.6999999955,039_o_m_h_a.png,O,z,840,5,1,1859.5,669424.1999999955,7102,VNB,A,3
2,test,4,0.0,2-Back,0,m,Thu Mar 27 2025 09:59:00 GMT-0500 (Central Daylight Time),673449.6999999955,165_m_m_n_a.png,O,z,1141,6,1,2159.6999999955297,671290.0,7102,VNB,A,4
3,test,4,0.0,2-Back,1,m,Thu Mar 27 2025 09:59:00 GMT-0500 (Central Daylight Time),675832.3999999985,139_m_f_d_a.png,O,m,1351,7,1,2376.2000000029802,673456.1999999955,7102,VNB,A,5
3,test,4,0.0,2-Back,0,z,Thu Mar 27 2025 09:59:00 GMT-0500 (Central Daylight Time),678464.799999997,071_y_f_n_a.png,O,m,1609,8,1,2625.7000000029802,675839.099999994,7102,VNB,A,6
4,test,4,1.0,2-Back,1,m,Thu Mar 27 2025 09:59:00 GMT-0500 (Central Daylight Time),680814.0,124_o_f_h_a.png,O,m,1329,9,1,2343.0,678471.0,7102,VNB,A,7
4,test,4,0.0,2-Back,0,m,Thu Mar 27 2025 09:59:00 GMT-0500 (Central Daylight Time),683048.599999994,165_m_m_h_a.png,O,z,1204,10,1,2228.1999999955297,680820.3999999985,7102,VNB,A,8
5,test,4,0.0,2-Back,1,m,Thu Mar 27 2025 09:59:00 GMT-0500 (Central Daylight Time),685162.8999999985,071_y_f_d_a.png,O,m,1091,11,1,2106.8000000044703,683056.099999994,7102,VNB,A,9
6,test,4,0.0,2-Back,1,m,Thu Mar 27 2025 09:59:00 GMT-0500 (Central Daylight Time),687545.299999997,109_y_m_n_a.png,O,m,1358,12,1,2376.2000000029802,685169.099999994,7102,VNB,A,10
6,test,4,0.0,2-Back,0,z,Thu Mar 27 2025 09:59:00 GMT-0500 (Central Daylight Time),690094.599999994,039_o_m_d_a.png,O,m,1520,13,1,2542.7999999970198,687551.799999997,7102,VNB,A,11
6,test,4,1.0,2-Back,0,m,Thu Mar 27 2025 09:59:00 GMT-0500 (Central Daylight Time),692177.299999997,139_m_f_h_a.png,O,z,1051,14,1,2076.2999999970198,690101.0,7102,VNB,A,12
7,test,4,1.0,2-Back,1,m,Thu Mar 27 2025 09:59:00 GMT-0500 (Central Daylight Time),694076.599999994,071_y_f_h_a.png,O,m,872,15,1,1892.5999999940395,692184.0,7102,VNB,A,13
8,test,4,0.0,2-Back,1,m,Thu Mar 27 2025 09:59:00 GMT-0500 (Central Daylight Time),696342.5,124_o_f_n_a.png,O,m,1236,16,1,2259.5,694083.0,7102,VNB,A,14
9,test,4,0.0,2-Back,1,m,Thu Mar 27 2025 09:59:00 GMT-0500 (Central Daylight Time),698625.299999997,109_y_m_d_a.png,O,m,1251,17,1,2276.60000000149,696348.6999999955,7102,VNB,A,15
9,test,4,1.0,2-Back,0,m,Thu Mar 27 2025 09:59:00 GMT-0500 (Central Daylight Time),701090.8999999985,165_m_m_d_a.png,O,z,1448,18,1,2459.10000000149,698631.799999997,7102,VNB,A,16
0,test,5,1.0,2-Back,,,Thu Mar 27 2025 09:59:00 GMT-0500 (Central Daylight Time),701090.8999999985,071_y_f_d_a.png,O,space,1120,1,1,2459.10000000149,698631.799999997,7102,VNB,A,0
0,test,5,1.0,2-Back,,,Thu Mar 27 2025 09:59:00 GMT-0500 (Central Daylight Time),701090.8999999985,124_o_f_h_a.png,O,space,1120,2,1,2459.10000000149,698631.799999997,7102,VNB,A,0
1,test,5,1.0,2-Back,1,z,Thu Mar 27 2025 09:59:00 GMT-0500 (Central Daylight Time),709072.0,039_o_m_d_a.png,O,z,719,3,1,1741.6000000014901,707330.3999999985,7102,VNB,A,1
2,test,5,1.0,2-Back,1,m,Thu Mar 27 2025 09:59:00 GMT-0500 (Central Daylight Time),711121.299999997,139_m_f_n_a.png,O,m,1025,4,1,2043.1000000014901,709078.1999999955,7102,VNB,A,2
3,test,5,0.0,2-Back,1,m,Thu Mar 27 2025 09:59:00 GMT-0500 (Central Daylight Time),713354.0,165_m_m_h_a.png,O,m,1200,5,1,2226.4000000059605,711127.599999994,7102,VNB,A,3
4,test,5,0.0,2-Back,1,z,Thu Mar 27 2025 09:59:00 GMT-0500 (Central Daylight Time),715519.6999999955,071_y_f_n_a.png,O,z,1144,6,1,2159.2999999970198,713360.3999999985,7102,VNB,A,4
5,test,5,0.0,2-Back,1,m,Thu Mar 27 2025 09:59:00 GMT-0500 (Central Daylight Time),717602.5,124_o_f_d_a.png,O,m,1057,7,1,2076.3000000044703,715526.1999999955,7102,VNB,A,5
6,test,5,0.0,2-Back,1,m,Thu Mar 27 2025 09:59:00 GMT-0500 (Central Daylight Time),719851.8999999985,039_o_m_h_a.png,O,m,1222,8,1,2242.8000000044703,717609.099999994,7102,VNB,A,6
6,test,5,1.0,2-Back,0,z,Thu Mar 27 2025 09:59:00 GMT-0500 (Central Daylight Time),721951.0,139_m_f_d_a.png,O,m,1069,9,1,2092.8000000044703,719858.1999999955,7102,VNB,A,7
6,test,5,0.0,2-Back,0,m,Thu Mar 27 2025 09:59:00 GMT-0500 (Central Daylight Time),724083.8999999985,109_y_m_n_a.png,O,z,1106,10,1,2126.8000000044703,721957.099999994,7102,VNB,A,8
7,test,5,0.0,2-Back,1,m,Thu Mar 27 2025 09:59:00 GMT-0500 (Central Daylight Time),726099.599999994,165_m_m_n_a.png,O,m,997,11,1,2009.3999999985099,724090.1999999955,7102,VNB,A,9
8,test,5,0.0,2-Back,1,m,Thu Mar 27 2025 09:59:00 GMT-0500 (Central Daylight Time),727899.099999994,071_y_f_h_a.png,O,m,782,12,1,1793.1999999955297,726105.8999999985,7102,VNB,A,10
8,test,5,0.0,2-Back,0,m,Thu Mar 27 2025 09:59:00 GMT-0500 (Central Daylight Time),730331.8999999985,109_y_m_d_a.png,O,z,1406,13,1,2426.60000000149,727905.299999997,7102,VNB,A,11
9,test,5,1.0,2-Back,1,z,Thu Mar 27 2025 09:59:00 GMT-0500 (Central Daylight Time),732164.599999994,139_m_f_h_a.png,O,z,813,14,1,1825.5999999940395,730339.0,7102,VNB,A,12
10,test,5,0.0,2-Back,1,m,Thu Mar 27 2025 09:59:00 GMT-0500 (Central Daylight Time),734613.799999997,039_o_m_n_a.png,O,m,1421,15,1,2442.7999999970198,732171.0,7102,VNB,A,13
11,test,5,0.0,2-Back,1,m,Thu Mar 27 2025 09:59:00 GMT-0500 (Central Daylight Time),737163.1999999955,165_m_m_d_a.png,O,m,1523,16,1,2543.10000000149,734620.099999994,7102,VNB,A,14
11,test,5,0.0,2-Back,0,z,Thu Mar 27 2025 09:59:00 GMT-0500 (Central Daylight Time),739162.299999997,124_o_f_n_a.png,O,m,973,17,1,1992.7000000029802,737169.599999994,7102,VNB,A,15
12,test,5,1.0,2-Back,1,m,Thu Mar 27 2025 09:59:00 GMT-0500 (Central Daylight Time),741261.799999997,109_y_m_h_a.png,O,m,1072,18,1,2093.10000000149,739168.6999999955,7102,VNB,A,16
