acc_sum,block_c,block_dur,condition,correct,correct_response,countdown,datetime,endtime,project,response,response_time,response_time_test1_response,response_time_test2_response,row_sel,same,session_number,start_end,starttime,stim1,stim2,subject_id,task,task_vers,time_test1,time_test2,trial
1,1,0.0,prac,1,m,30000.0,Wed Jan 08 2025 11:56:45 GMT-0600 (Central Standard Time),33255.10000014305,I,m,1109,,,1,no,1,2628.5,30626.60000014305,RNV,FNV,8012,LC,A,,,1
2,1,0.0,prac,1,z,30000.0,Wed Jan 08 2025 11:56:45 GMT-0600 (Central Standard Time),35637.700000047684,I,z,869,,,4,yes,1,2377.5,33260.200000047684,RSM,RSM,8012,LC,A,,,2
3,1,0.0,prac,1,m,30000.0,Wed Jan 08 2025 11:56:45 GMT-0600 (Central Standard Time),38719.5,I,m,1564,,,3,no,1,3077.2999999523163,35642.200000047684,QHZXPC,QHZWPC,8012,LC,A,,,3
4,1,0.0,prac,1,m,30000.0,Wed Jan 08 2025 11:56:45 GMT-0600 (Central Standard Time),42218.800000190735,I,m,1971,,,5,no,1,3494.2000000476837,38724.60000014305,LNDPRSKQB,LNDPRSJQB,8012,LC,A,,,4
5,1,0.0,prac,1,z,30000.0,Wed Jan 08 2025 11:56:45 GMT-0600 (Central Standard Time),45451.10000014305,I,z,1705,,,6,yes,1,3228.4000000953674,42222.700000047684,CSDBFPHXZ,CSDBFPHXZ,8012,LC,A,,,5
6,1,0.0,prac,1,z,30000.0,Wed Jan 08 2025 11:56:45 GMT-0600 (Central Standard Time),48183.700000047684,I,z,1208,,,2,yes,1,2728.399999856949,45455.300000190735,NBGFSM,NBGFSM,8012,LC,A,,,6
1,1,1.0329999923706055,test,1,m,28967.000007629395,Wed Jan 08 2025 11:56:45 GMT-0600 (Central Standard Time),57130.60000014305,I,m,1027,1027,,1,no,1,1029.9000000953674,56100.700000047684,HCF,RCF,8012,LC,A,54596,,1
2,1,2.0490000247955322,test,1,m,27950.999975204468,Wed Jan 08 2025 11:56:45 GMT-0600 (Central Standard Time),58146.90000009537,I,m,1010,1010,,2,no,1,1012.9000000953674,57134.0,QTPRJX,QTPNJX,8012,LC,A,55629,,2
3,1,4.748000144958496,test,1,m,25251.999855041504,Wed Jan 08 2025 11:56:45 GMT-0600 (Central Standard Time),60846.300000190735,I,m,2690,2690,,3,no,1,2696.2000000476837,58150.10000014305,MZDYGVGKQ,MZDYGLBKQ,8012,LC,A,56645,,3
4,1,6.0980000495910645,test,1,m,23901.999950408936,Wed Jan 08 2025 11:56:45 GMT-0600 (Central Standard Time),62195.700000047684,I,m,1342,1342,,4,no,1,1345.7999999523163,60849.90000009537,FQTNMK,JQTNMK,8012,LC,A,59345,,4
5,1,7.198000192642212,test,1,z,22801.999807357788,Wed Jan 08 2025 11:56:45 GMT-0600 (Central Standard Time),63295.60000014305,I,z,1081,1081,,5,yes,1,1096.7999999523163,62198.800000190735,CLJ,CLJ,8012,LC,A,60694,,5
6,1,8.764000177383423,test,1,m,21235.999822616577,Wed Jan 08 2025 11:56:45 GMT-0600 (Central Standard Time),64861.800000190735,I,m,1557,1557,,6,no,1,1563.0,63298.800000190735,JGDMNSVPW,JGZMNSVPW,8012,LC,A,61794,,6
7,1,10.84600019454956,test,1,z,19153.99980545044,Wed Jan 08 2025 11:56:45 GMT-0600 (Central Standard Time),66944.20000004768,I,z,2071,2071,,7,yes,1,2079.0999999046326,64865.10000014305,FPTVHKCBJ,FPTVHKCBJ,8012,LC,A,63360,,7
8,1,11.913000106811523,test,1,m,18086.999893188477,Wed Jan 08 2025 11:56:45 GMT-0600 (Central Standard Time),68010.80000019073,I,m,1052,1052,,8,no,1,1063.4000000953674,66947.40000009537,XRPZBS,ZRPBDH,8012,LC,A,65443,,8
9,1,13.029000043869019,test,1,m,16970.99995613098,Wed Jan 08 2025 11:56:45 GMT-0600 (Central Standard Time),69127.0,I,m,1098,1098,,9,no,1,1113.0,68014.0,ZSQ,ZSP,8012,LC,A,66509,,9
10,1,14.479000091552734,test,1,z,15520.999908447266,Wed Jan 08 2025 11:56:45 GMT-0600 (Central Standard Time),70576.70000004768,I,z,1438,1438,,10,yes,1,1446.5,69130.20000004768,MPZRXL,MPZRXL,8012,LC,A,67625,,10
11,1,15.428000211715698,test,1,m,14571.999788284302,Wed Jan 08 2025 11:56:45 GMT-0600 (Central Standard Time),71526.40000009537,I,m,932,932,,11,no,1,946.5,70579.90000009537,KJH,KRH,8012,LC,A,69075,,11
12,1,18.527000188827515,test,1,z,11472.999811172485,Wed Jan 08 2025 11:56:45 GMT-0600 (Central Standard Time),74625.30000019073,I,z,3086,3086,,12,yes,1,3096.0,71529.30000019073,SMNHVTFCB,SMNHVTFCB,8012,LC,A,70024,,12
13,1,19.978000164031982,test,1,z,10021.999835968018,Wed Jan 08 2025 11:56:45 GMT-0600 (Central Standard Time),76076.0,I,z,1444,1444,,13,yes,1,1447.7999999523163,74628.20000004768,KJWTQF,KJWTQF,8012,LC,A,73123,,13
14,1,22.4760000705719,test,1,z,7523.999929428101,Wed Jan 08 2025 11:56:45 GMT-0600 (Central Standard Time),78574.10000014305,I,z,2489,2489,,14,yes,1,2494.7999999523163,76079.30000019073,CHDKQGLMB,CHDKQGLMB,8012,LC,A,74574,,14
15,1,23.509000062942505,test,1,z,6490.999937057495,Wed Jan 08 2025 11:56:45 GMT-0600 (Central Standard Time),79607.10000014305,I,z,1015,1015,,15,yes,1,1029.4000000953674,78577.70000004768,GHQ,GHQ,8012,LC,A,77072,,15
16,1,24.759000062942505,test,1,z,5240.999937057495,Wed Jan 08 2025 11:56:45 GMT-0600 (Central Standard Time),80856.80000019073,I,z,1230,1230,,16,yes,1,1246.7000000476837,79610.10000014305,GFVMRH,GFVMRH,8012,LC,A,78105,,16
17,1,25.692000150680542,test,1,z,4307.999849319458,Wed Jan 08 2025 11:56:45 GMT-0600 (Central Standard Time),81789.80000019073,I,z,916,916,,17,yes,1,929.8000001907349,80860.0,RSM,RSM,8012,LC,A,79355,,17
18,1,27.52400016784668,test,1,m,2475.9998321533203,Wed Jan 08 2025 11:56:45 GMT-0600 (Central Standard Time),83622.5,I,m,1814,1814,,18,no,1,1828.8999998569489,81793.60000014305,BSRJTRMLG,BSFJTRMLG,8012,LC,A,80289,,18
19,1,29.474000215530396,test,1,z,525.9997844696045,Wed Jan 08 2025 11:56:45 GMT-0600 (Central Standard Time),85571.60000014305,I,z,1941,1941,,19,yes,1,1944.7999999523163,83626.80000019073,NBGFSM,NBGFSM,8012,LC,A,82122,,19
19,1,30.007000207901,test,0,z,-7.000207901000977,Wed Jan 08 2025 11:56:45 GMT-0600 (Central Standard Time),86105.10000014305,I,None,529,529,,20,yes,1,530.5,85574.60000014305,JQKBPLXGY,JQKBPLXGY,8012,LC,A,84069,,20
1,2,3.049999952316284,test,1,z,26950.000047683716,Wed Jan 08 2025 11:56:45 GMT-0600 (Central Standard Time),91636.80000019073,I,z,3042,,3042.0,1,yes,1,6062.200000047684,85574.60000014305,PRDBZTYFN,PRDBZTYFN,8012,LC,A,,87085.0,1
2,2,4.58299994468689,test,1,m,25417.00005531311,Wed Jan 08 2025 11:56:45 GMT-0600 (Central Standard Time),93170.5,I,m,1527,,1527.0,2,no,1,7595.899999856949,85574.60000014305,NCWJDZ,NCMJDZ,8012,LC,A,,90136.0,2
3,2,5.666000127792358,test,1,m,24333.99987220764,Wed Jan 08 2025 11:56:45 GMT-0600 (Central Standard Time),94252.70000004768,I,m,1067,,1067.0,3,no,1,8678.099999904633,85574.60000014305,KHW,KBW,8012,LC,A,,91668.0,3
4,2,7.315000057220459,test,1,m,22684.99994277954,Wed Jan 08 2025 11:56:45 GMT-0600 (Central Standard Time),95901.90000009537,I,m,1640,,1640.0,4,no,1,10327.299999952316,85574.60000014305,ZRBGMF,ZRBCMF,8012,LC,A,,92751.0,4
5,2,8.515000104904175,test,1,m,21484.999895095825,Wed Jan 08 2025 11:56:45 GMT-0600 (Central Standard Time),97101.60000014305,I,m,1183,,1183.0,5,no,1,11527.0,85574.60000014305,BTH,BYH,8012,LC,A,,94400.0,5
6,2,11.52999997138977,test,1,z,18470.00002861023,Wed Jan 08 2025 11:56:45 GMT-0600 (Central Standard Time),100117.5,I,z,3007,,3007.0,6,yes,1,14542.899999856949,85574.60000014305,XWKQRYCNZ,XWKQRYCNZ,8012,LC,A,,95600.0,6
7,2,13.345999956130981,test,1,z,16654.00004386902,Wed Jan 08 2025 11:56:45 GMT-0600 (Central Standard Time),101933.5,I,z,1800,,1800.0,7,yes,1,16358.899999856949,85574.60000014305,HNPDLK,HNPDLK,8012,LC,A,,98615.0,7
8,2,15.163000106811523,test,1,m,14836.999893188477,Wed Jan 08 2025 11:56:45 GMT-0600 (Central Standard Time),103749.80000019073,I,m,1800,,1800.0,8,no,1,18175.200000047684,85574.60000014305,WMQTRSGLZ,WMQTRZGLZ,8012,LC,A,,100431.0,8
9,2,16.20799994468689,test,1,z,13792.00005531311,Wed Jan 08 2025 11:56:45 GMT-0600 (Central Standard Time),104795.30000019073,I,z,903,,903.0,9,yes,1,19220.700000047684,85574.60000014305,JPN,JPN,8012,LC,A,,102248.0,9
10,2,17.361999988555908,test,1,m,12638.000011444092,Wed Jan 08 2025 11:56:45 GMT-0600 (Central Standard Time),105948.70000004768,I,m,1137,,1137.0,10,no,1,20374.099999904633,85574.60000014305,QLXSVT,QLNSVT,8012,LC,A,,103294.0,10
11,2,20.444000005722046,test,1,z,9555.999994277954,Wed Jan 08 2025 11:56:45 GMT-0600 (Central Standard Time),109031.20000004768,I,z,3073,,3073.0,11,yes,1,23456.599999904633,85574.60000014305,YXHKZVFPB,YXHKZVFPD,8012,LC,A,,104446.0,11
12,2,22.610000133514404,test,1,z,7389.999866485596,Wed Jan 08 2025 11:56:45 GMT-0600 (Central Standard Time),111197.20000004768,I,z,2158,,2158.0,12,yes,1,25622.599999904633,85574.60000014305,RJZ,RJZ,8012,LC,A,,107529.0,12
13,2,24.509999990463257,test,1,z,5490.000009536743,Wed Jan 08 2025 11:56:45 GMT-0600 (Central Standard Time),113096.60000014305,I,z,1888,,1888.0,13,yes,1,27522.0,85574.60000014305,CLNPZD,CLNPZD,8012,LC,A,,109695.0,13
14,2,26.858999967575073,test,1,m,3141.0000324249268,Wed Jan 08 2025 11:56:45 GMT-0600 (Central Standard Time),115445.90000009537,I,m,2333,,2333.0,14,no,1,29871.299999952316,85574.60000014305,DCBPFHXYJ,DCBPFHLYJ,8012,LC,A,,111594.0,14
15,2,27.79100012779236,test,1,m,2208.9998722076416,Wed Jan 08 2025 11:56:45 GMT-0600 (Central Standard Time),116378.70000004768,I,m,927,,927.0,15,no,1,30804.099999904633,85574.60000014305,MWR,ZWR,8012,LC,A,,113944.0,15
15,2,30.006999969482422,test,0,z,-6.999969482421875,Wed Jan 08 2025 11:56:45 GMT-0600 (Central Standard Time),118594.70000004768,I,None,2211,,2211.0,16,yes,1,33020.09999990463,85574.60000014305,LPKXZW,LPKXZW,8012,LC,A,,114877.0,16
