Q,Q1,Q2,Q3,Q4,acc_sum,block,block_c,correct,correct_response,datetime,endtime,project,response,response_time,row_sel,session_number,squiggle1,squiggle1x,squiggle1y,squiggle2,squiggle2x,squiggle2y,squiggle3,squiggle3x,squiggle3y,squiggle4,squiggle4x,squiggle4y,start_end,starttime,subject_id,target_congruent,task,task_vers,testsquiggle,testsquigglex,testsquiggley,time_practice_delay,time_practice_fixation,time_practice_stimuli,time_practice_study,time_test_delay,time_test_fixation,time_test_stimuli,time_test_study,trial
1,1,0,0,0,1,prac,1,1,z,Mon Mar 03 2025 14:28:06 GMT-0600 (Central Standard Time),134389.89999997616,O,z,1570,1,1,116.bmp,-120,-120,117.bmp,120,-120,118.bmp,-120,120,119.bmp,120,120,10395.100000023842,123994.79999995232,7075,yes,SM,A,116.bmp,-120,-120,127956,121927,129972,123939,,,,,1
3,0,0,1,0,1,prac,1,0,m,Mon Mar 03 2025 14:28:06 GMT-0600 (Central Standard Time),144652.29999995232,O,z,1446,2,1,120.bmp,-120,-120,121.bmp,120,-120,122.bmp,-120,120,123.bmp,120,120,10256.899999976158,134395.39999997616,7075,no,SM,A,123.bmp,-120,120,138354,132328,140369,134337,,,,,2
4,0,0,0,1,1,prac,1,0,m,Mon Mar 03 2025 14:28:06 GMT-0600 (Central Standard Time),155115.5,O,z,1638,3,1,124.bmp,-120,-120,125.bmp,120,-120,126.bmp,-120,120,127.bmp,120,120,10458.899999976158,144656.60000002384,7075,no,SM,A,124.bmp,120,120,148615,142589,150632,144601,,,,,3
2,0,1,0,0,2,prac,1,1,z,Mon Mar 03 2025 14:28:06 GMT-0600 (Central Standard Time),164994.89999997616,O,z,1066,4,1,128.bmp,-120,-120,129.bmp,120,-120,130.bmp,-120,120,131.bmp,120,120,9874.700000047684,155120.19999992847,7075,yes,SM,A,129.bmp,120,-120,159080,153053,161095,155064,,,,,4
3,0,0,1,0,2,prac,1,0,z,Mon Mar 03 2025 14:28:06 GMT-0600 (Central Standard Time),175308.5,O,m,1481,5,1,132.bmp,-120,-120,133.bmp,120,-120,134.bmp,-120,120,135.bmp,120,120,10307.800000071526,165000.69999992847,7075,yes,SM,A,134.bmp,-120,120,168959,162933,170976,164944,,,,,5
1,1,0,0,0,3,prac,1,1,m,Mon Mar 03 2025 14:28:06 GMT-0600 (Central Standard Time),185387.69999992847,O,m,1254,6,1,136.bmp,-120,-120,137.bmp,120,-120,138.bmp,-120,120,139.bmp,120,120,10073.599999904633,175314.10000002384,7075,no,SM,A,139.bmp,-120,-120,179273,173246,181288,175257,,,,,6
2,0,1,0,0,4,prac,1,1,m,Mon Mar 03 2025 14:28:06 GMT-0600 (Central Standard Time),195552.89999997616,O,m,1332,7,1,140.bmp,-120,-120,141.bmp,120,-120,142.bmp,-120,120,143.bmp,120,120,10159.899999976158,185393.0,7075,no,SM,A,140.bmp,120,-120,189352,183325,191370,185337,,,,,7
4,0,0,0,1,5,prac,1,1,z,Mon Mar 03 2025 14:28:06 GMT-0600 (Central Standard Time),205599.0,O,z,1217,8,1,144.bmp,-120,-120,145.bmp,120,-120,146.bmp,-120,120,147.bmp,120,120,10040.600000023842,195558.39999997616,7075,yes,SM,A,147.bmp,120,120,199517,193491,201532,195502,,,,,8
4,0,0,0,1,0,test,1,0,m,Mon Mar 03 2025 14:28:06 GMT-0600 (Central Standard Time),230307.29999995232,O,None,2014,1,1,148.bmp,-120,-120,149.bmp,120,-120,150.bmp,-120,120,143.bmp,120,120,10059.699999928474,220247.60000002384,7075,no,SM,A,150.bmp,120,120,199517,193491,201532,195502,224208.0,218180.0,226224.0,220193.0,1
2,0,1,0,0,0,test,1,0,m,Mon Mar 03 2025 14:28:06 GMT-0600 (Central Standard Time),240373.39999997616,O,None,2016,2,1,101.bmp,-120,-120,102.bmp,120,-120,103.bmp,-120,120,104.bmp,120,120,10061.799999952316,230311.60000002384,7075,no,SM,A,103.bmp,120,-120,199517,193491,201532,195502,234272.0,228244.0,236289.0,230258.0,2
1,1,0,0,0,1,test,1,1,z,Mon Mar 03 2025 14:28:06 GMT-0600 (Central Standard Time),249884.89999997616,O,z,1455,3,1,105.bmp,-120,-120,106.bmp,120,-120,107.bmp,-120,120,108.bmp,120,120,9506.799999952316,240378.10000002384,7075,yes,SM,A,105.bmp,-120,-120,199517,193491,201532,195502,244335.0,238310.0,246351.0,240319.0,3
3,0,0,1,0,1,test,1,0,m,Mon Mar 03 2025 14:28:06 GMT-0600 (Central Standard Time),259414.39999997616,O,z,1478,4,1,109.bmp,-120,-120,110.bmp,120,-120,111.bmp,-120,120,112.bmp,120,120,9523.200000047684,249891.19999992847,7075,no,SM,A,109.bmp,-120,120,199517,193491,201532,195502,253847.0,247823.0,255864.0,249833.0,4
2,0,1,0,0,2,test,1,1,z,Mon Mar 03 2025 14:28:06 GMT-0600 (Central Standard Time),268812.1999999285,O,z,1347,5,1,113.bmp,-120,-120,114.bmp,120,-120,115.bmp,-120,120,116.bmp,120,120,9394.599999904633,259417.60000002384,7075,yes,SM,A,114.bmp,120,-120,199517,193491,201532,195502,263380.0,257350.0,265395.0,259363.0,5
3,0,0,1,0,3,test,1,1,z,Mon Mar 03 2025 14:28:06 GMT-0600 (Central Standard Time),278060.10000002384,O,z,1199,6,1,117.bmp,-120,-120,118.bmp,120,-120,119.bmp,-120,120,120.bmp,120,120,9245.300000071526,268814.7999999523,7075,yes,SM,A,119.bmp,-120,120,199517,193491,201532,195502,272777.0,266747.0,274793.0,268762.0,6
4,0,0,0,1,3,test,1,0,z,Mon Mar 03 2025 14:28:06 GMT-0600 (Central Standard Time),288123.7999999523,O,None,2016,7,1,121.bmp,-120,-120,122.bmp,120,-120,123.bmp,-120,120,124.bmp,120,120,10059.5,278064.2999999523,7075,yes,SM,A,124.bmp,120,120,199517,193491,201532,195502,282023.0,275997.0,284040.0,278009.0,7
2,0,1,0,0,4,test,1,1,m,Mon Mar 03 2025 14:28:06 GMT-0600 (Central Standard Time),297268.2999999523,O,m,1097,8,1,125.bmp,-120,-120,126.bmp,120,-120,127.bmp,-120,120,128.bmp,120,120,9140.0,288128.2999999523,7075,no,SM,A,125.bmp,120,-120,199517,193491,201532,195502,292086.0,286061.0,294103.0,288072.0,8
3,0,0,1,0,5,test,1,1,m,Mon Mar 03 2025 14:28:06 GMT-0600 (Central Standard Time),307067.39999997616,O,m,1741,9,1,129.bmp,-120,-120,130.bmp,120,-120,131.bmp,-120,120,132.bmp,120,120,9795.799999952316,297271.60000002384,7075,no,SM,A,130.bmp,-120,120,199517,193491,201532,195502,301233.0,295204.0,303250.0,297217.0,9
4,0,0,0,1,5,test,1,0,z,Mon Mar 03 2025 14:28:06 GMT-0600 (Central Standard Time),316698.39999997616,O,m,1598,10,1,137.bmp,-120,-120,138.bmp,120,-120,139.bmp,-120,120,140.bmp,120,120,9625.200000047684,307073.1999999285,7075,yes,SM,A,140.bmp,120,120,199517,193491,201532,195502,311030.0,305006.0,313032.0,307016.0,10
3,0,0,1,0,5,test,1,0,z,Mon Mar 03 2025 14:28:06 GMT-0600 (Central Standard Time),326408.89999997616,O,m,1674,11,1,133.bmp,-120,-120,134.bmp,120,-120,135.bmp,-120,120,136.bmp,120,120,9701.399999976158,316707.5,7075,yes,SM,A,135.bmp,-120,120,199517,193491,201532,195502,320644.0,314640.0,322660.0,316643.0,11
2,0,1,0,0,6,test,1,1,m,Mon Mar 03 2025 14:28:06 GMT-0600 (Central Standard Time),335423.6999999285,O,m,960,12,1,141.bmp,-120,-120,142.bmp,120,-120,143.bmp,-120,120,144.bmp,120,120,9012.5,326411.1999999285,7075,no,SM,A,141.bmp,120,-120,199517,193491,201532,195502,330376.0,324343.0,332390.0,326358.0,12
3,0,0,1,0,7,test,1,1,m,Mon Mar 03 2025 14:28:06 GMT-0600 (Central Standard Time),344571.6999999285,O,m,1090,13,1,145.bmp,-120,-120,146.bmp,120,-120,147.bmp,-120,120,148.bmp,120,120,9143.899999976158,335427.7999999523,7075,no,SM,A,146.bmp,-120,120,199517,193491,201532,195502,339389.0,333360.0,341405.0,335373.0,13
1,1,0,0,0,7,test,1,0,z,Mon Mar 03 2025 14:28:06 GMT-0600 (Central Standard Time),354632.6999999285,O,None,2013,14,1,149.bmp,-120,-120,150.bmp,120,-120,104.bmp,-120,120,101.bmp,120,120,10057.199999928474,344575.5,7075,yes,SM,A,149.bmp,-120,-120,199517,193491,201532,195502,348537.0,342508.0,350552.0,344520.0,14
4,0,0,0,1,7,test,1,0,m,Mon Mar 03 2025 14:28:06 GMT-0600 (Central Standard Time),364698.5,O,None,2016,15,1,110.bmp,-120,-120,111.bmp,120,-120,112.bmp,-120,120,113.bmp,120,120,10062.700000047684,354635.7999999523,7075,no,SM,A,111.bmp,120,120,199517,193491,201532,195502,358599.0,352568.0,360614.0,354581.0,15
1,1,0,0,0,8,test,1,1,m,Mon Mar 03 2025 14:28:06 GMT-0600 (Central Standard Time),373995.10000002384,O,m,1265,16,1,102.bmp,-120,-120,103.bmp,120,-120,104.bmp,-120,120,105.bmp,120,120,9291.700000047684,364703.39999997616,7075,no,SM,A,105.bmp,-120,-120,199517,193491,201532,195502,368648.0,362636.0,370662.0,364646.0,16
3,0,0,1,0,9,test,1,1,m,Mon Mar 03 2025 14:28:06 GMT-0600 (Central Standard Time),383975.7999999523,O,m,1927,17,1,122.bmp,-120,-120,123.bmp,120,-120,124.bmp,-120,120,125.bmp,120,120,9975.399999976158,374000.39999997616,7075,no,SM,A,122.bmp,-120,120,199517,193491,201532,195502,377959.0,371933.0,379975.0,373944.0,17
1,1,0,0,0,9,test,1,0,z,Mon Mar 03 2025 14:28:06 GMT-0600 (Central Standard Time),394039.0,O,None,2015,18,1,106.bmp,-120,-120,107.bmp,120,-120,108.bmp,-120,120,109.bmp,120,120,10060.0,383979.0,7075,yes,SM,A,106.bmp,-120,-120,199517,193491,201532,195502,387939.0,381911.0,389956.0,383924.0,18
2,0,1,0,0,10,test,1,1,z,Mon Mar 03 2025 14:28:06 GMT-0600 (Central Standard Time),403135.2999999523,O,z,1034,19,1,126.bmp,-120,-120,127.bmp,120,-120,128.bmp,-120,120,129.bmp,120,120,9091.699999928474,394043.60000002384,7075,yes,SM,A,127.bmp,120,-120,199517,193491,201532,195502,398003.0,391976.0,400020.0,393988.0,19
3,0,0,1,0,11,test,1,1,z,Mon Mar 03 2025 14:28:06 GMT-0600 (Central Standard Time),412633.39999997616,O,z,1444,20,1,130.bmp,-120,-120,131.bmp,120,-120,132.bmp,-120,120,133.bmp,120,120,9493.799999952316,403139.60000002384,7075,yes,SM,A,132.bmp,-120,120,199517,193491,201532,195502,407099.0,401072.0,409115.0,403085.0,20
1,1,0,0,0,12,test,1,1,m,Mon Mar 03 2025 14:28:06 GMT-0600 (Central Standard Time),422011.39999997616,O,m,1320,21,1,114.bmp,-120,-120,115.bmp,120,-120,116.bmp,-120,120,117.bmp,120,120,9374.399999976158,412637.0,7075,no,SM,A,116.bmp,-120,-120,199517,193491,201532,195502,416596.0,410569.0,418613.0,412582.0,21
4,0,0,0,1,13,test,1,1,z,Mon Mar 03 2025 14:28:06 GMT-0600 (Central Standard Time),431460.39999997616,O,z,1398,22,1,118.bmp,-120,-120,119.bmp,120,-120,120.bmp,-120,120,121.bmp,120,120,9447.100000023842,422013.2999999523,7075,yes,SM,A,121.bmp,120,120,199517,193491,201532,195502,425977.0,419945.0,427993.0,421962.0,22
1,1,0,0,0,14,test,1,1,m,Mon Mar 03 2025 14:28:06 GMT-0600 (Central Standard Time),440608.10000002384,O,m,1084,23,1,134.bmp,-120,-120,135.bmp,120,-120,136.bmp,-120,120,137.bmp,120,120,9144.0,431464.10000002384,7075,no,SM,A,137.bmp,-120,-120,199517,193491,201532,195502,435424.0,429396.0,437442.0,431409.0,23
2,0,1,0,0,14,test,1,0,z,Mon Mar 03 2025 14:28:06 GMT-0600 (Central Standard Time),450672.7999999523,O,None,2018,24,1,142.bmp,-120,-120,143.bmp,120,-120,144.bmp,-120,120,145.bmp,120,120,10059.299999952316,440613.5,7075,yes,SM,A,143.bmp,120,-120,199517,193491,201532,195502,444570.0,438546.0,446587.0,440556.0,24
4,0,0,0,1,15,test,1,1,m,Mon Mar 03 2025 14:28:06 GMT-0600 (Central Standard Time),460184.5,O,m,1458,25,1,146.bmp,-120,-120,147.bmp,120,-120,148.bmp,-120,120,149.bmp,120,120,9505.700000047684,450678.7999999523,7075,no,SM,A,148.bmp,120,120,199517,193491,201532,195502,454635.0,448611.0,456651.0,450619.0,25
1,1,0,0,0,16,test,1,1,z,Mon Mar 03 2025 14:28:06 GMT-0600 (Central Standard Time),469714.60000002384,O,z,1472,26,1,138.bmp,-120,-120,139.bmp,120,-120,140.bmp,-120,120,141.bmp,120,120,9527.900000095367,460186.6999999285,7075,yes,SM,A,138.bmp,-120,-120,199517,193491,201532,195502,464148.0,458119.0,466166.0,460133.0,26
4,0,0,0,1,17,test,1,1,z,Mon Mar 03 2025 14:28:06 GMT-0600 (Central Standard Time),479147.0,O,z,1374,27,1,150.bmp,-120,-120,111.bmp,120,-120,101.bmp,-120,120,102.bmp,120,120,9428.600000023842,469718.39999997616,7075,yes,SM,A,102.bmp,120,120,199517,193491,201532,195502,473679.0,467651.0,475696.0,469664.0,27
3,0,0,1,0,18,test,1,1,m,Mon Mar 03 2025 14:28:06 GMT-0600 (Central Standard Time),488941.60000002384,O,m,1748,28,1,103.bmp,-120,-120,104.bmp,120,-120,105.bmp,-120,120,106.bmp,120,120,9791.100000023842,479150.5,7075,no,SM,A,103.bmp,-120,120,199517,193491,201532,195502,483110.0,477083.0,485125.0,479094.0,28
2,0,1,0,0,19,test,1,1,z,Mon Mar 03 2025 14:28:06 GMT-0600 (Central Standard Time),498640.10000002384,O,z,1636,29,1,107.bmp,-120,-120,108.bmp,120,-120,109.bmp,-120,120,110.bmp,120,120,9694.400000095367,488945.6999999285,7075,yes,SM,A,108.bmp,120,-120,199517,193491,201532,195502,492906.0,486878.0,494921.0,488891.0,29
3,0,0,1,0,19,test,1,0,z,Mon Mar 03 2025 14:28:06 GMT-0600 (Central Standard Time),508085.39999997616,O,m,1382,30,1,111.bmp,-120,-120,112.bmp,120,-120,113.bmp,-120,120,114.bmp,120,120,9441.399999976158,498644.0,7075,yes,SM,A,113.bmp,-120,120,199517,193491,201532,195502,502602.0,496576.0,504620.0,498588.0,30
1,1,0,0,0,20,test,1,1,z,Mon Mar 03 2025 14:28:06 GMT-0600 (Central Standard Time),517149.6999999285,O,z,1004,31,1,115.bmp,-120,-120,116.bmp,120,-120,117.bmp,-120,120,118.bmp,120,120,9060.699999928474,508089.0,7075,yes,SM,A,115.bmp,-120,-120,199517,193491,201532,195502,512050.0,506021.0,514066.0,508036.0,31
2,0,1,0,0,20,test,1,0,m,Mon Mar 03 2025 14:28:06 GMT-0600 (Central Standard Time),526762.5,O,z,1557,32,1,119.bmp,-120,-120,120.bmp,120,-120,121.bmp,-120,120,122.bmp,120,120,9608.600000023842,517153.89999997616,7075,no,SM,A,119.bmp,120,-120,199517,193491,201532,195502,521112.0,515086.0,523129.0,517099.0,32
4,0,0,0,1,20,test,1,0,z,Mon Mar 03 2025 14:28:06 GMT-0600 (Central Standard Time),536826.7999999523,O,None,2014,33,1,131.bmp,-120,-120,132.bmp,120,-120,133.bmp,-120,120,134.bmp,120,120,10061.0,526765.7999999523,7075,yes,SM,A,134.bmp,120,120,199517,193491,201532,195502,530728.0,524698.0,532745.0,526713.0,33
2,0,1,0,0,21,test,1,1,z,Mon Mar 03 2025 14:28:06 GMT-0600 (Central Standard Time),546239.6000000238,O,z,1349,34,1,123.bmp,-120,-120,124.bmp,120,-120,125.bmp,-120,120,126.bmp,120,120,9407.0,536832.6000000238,7075,yes,SM,A,124.bmp,120,-120,199517,193491,201532,195502,540791.0,534765.0,542808.0,536776.0,34
4,0,0,0,1,21,test,1,0,m,Mon Mar 03 2025 14:28:06 GMT-0600 (Central Standard Time),555654.7999999523,O,z,1350,35,1,127.bmp,-120,-120,128.bmp,120,-120,129.bmp,-120,120,130.bmp,120,120,9411.899999976158,546242.8999999762,7075,no,SM,A,129.bmp,120,120,199517,193491,201532,195502,550205.0,544175.0,552219.0,546190.0,35
3,0,0,1,0,22,test,1,1,m,Mon Mar 03 2025 14:28:06 GMT-0600 (Central Standard Time),564936.2999999523,O,m,1227,36,1,135.bmp,-120,-120,136.bmp,120,-120,137.bmp,-120,120,138.bmp,120,120,9277.899999976158,555658.3999999762,7075,no,SM,A,135.bmp,-120,120,199517,193491,201532,195502,559618.0,553591.0,561635.0,555603.0,36
1,1,0,0,0,23,test,1,1,m,Mon Mar 03 2025 14:28:06 GMT-0600 (Central Standard Time),574481.7999999523,O,m,1483,37,1,139.bmp,-120,-120,140.bmp,120,-120,141.bmp,-120,120,142.bmp,120,120,9542.399999976158,564939.3999999762,7075,no,SM,A,140.bmp,-120,-120,199517,193491,201532,195502,568900.0,562872.0,570915.0,564884.0,37
2,0,1,0,0,23,test,1,0,m,Mon Mar 03 2025 14:28:06 GMT-0600 (Central Standard Time),583930.3999999762,O,z,1398,38,1,143.bmp,-120,-120,144.bmp,120,-120,145.bmp,-120,120,146.bmp,120,120,9442.399999976158,574488.0,7075,no,SM,A,145.bmp,120,-120,199517,193491,201532,195502,578445.0,572420.0,580464.0,574432.0,38
4,0,0,0,1,24,test,1,1,z,Mon Mar 03 2025 14:28:06 GMT-0600 (Central Standard Time),593026.3999999762,O,z,1041,39,1,147.bmp,-120,-120,148.bmp,120,-120,149.bmp,-120,120,150.bmp,120,120,9092.700000047684,583933.6999999285,7075,yes,SM,A,150.bmp,120,120,199517,193491,201532,195502,587893.0,581866.0,589909.0,583878.0,39
3,0,0,1,0,25,test,1,1,m,Mon Mar 03 2025 14:28:06 GMT-0600 (Central Standard Time),602638.3999999762,O,m,1552,40,1,104.bmp,-120,-120,105.bmp,120,-120,106.bmp,-120,120,107.bmp,120,120,9608.399999976158,593030.0,7075,no,SM,A,105.bmp,-120,120,199517,193491,201532,195502,596989.0,590962.0,599006.0,592975.0,40
1,1,0,0,0,26,test,1,1,z,Mon Mar 03 2025 14:28:06 GMT-0600 (Central Standard Time),611902.1000000238,O,z,1200,41,1,108.bmp,-120,-120,109.bmp,120,-120,110.bmp,-120,120,111.bmp,120,120,9260.100000023842,602642.0,7075,yes,SM,A,108.bmp,-120,-120,199517,193491,201532,195502,606603.0,600574.0,608621.0,602588.0,41
4,0,0,0,1,27,test,1,1,z,Mon Mar 03 2025 14:28:06 GMT-0600 (Central Standard Time),621232.8999999762,O,z,1281,42,1,112.bmp,-120,-120,113.bmp,120,-120,114.bmp,-120,120,115.bmp,120,120,9327.799999952316,611905.1000000238,7075,yes,SM,A,115.bmp,120,120,199517,193491,201532,195502,615866.0,609838.0,617867.0,611853.0,42
1,1,0,0,0,27,test,1,0,z,Mon Mar 03 2025 14:28:06 GMT-0600 (Central Standard Time),631046.7999999523,O,m,1751,43,1,116.bmp,-120,-120,117.bmp,120,-120,118.bmp,-120,120,119.bmp,120,120,9811.100000023842,621235.6999999285,7075,yes,SM,A,116.bmp,-120,-120,199517,193491,201532,195502,625198.0,619168.0,627214.0,621183.0,43
4,0,0,0,1,28,test,1,1,m,Mon Mar 03 2025 14:28:06 GMT-0600 (Central Standard Time),640144.2999999523,O,m,1044,44,1,104.bmp,-120,-120,101.bmp,120,-120,102.bmp,-120,120,103.bmp,120,120,9094.899999976158,631049.3999999762,7075,no,SM,A,104.bmp,120,120,199517,193491,201532,195502,635010.0,628982.0,637026.0,630997.0,44
1,1,0,0,0,29,test,1,1,m,Mon Mar 03 2025 14:28:06 GMT-0600 (Central Standard Time),650156.3999999762,O,m,1966,45,1,128.bmp,-120,-120,129.bmp,120,-120,130.bmp,-120,120,131.bmp,120,120,10009.100000023842,640147.2999999523,7075,no,SM,A,131.bmp,-120,-120,199517,193491,201532,195502,644106.0,638079.0,646108.0,640091.0,45
1,1,0,0,0,30,test,1,1,m,Mon Mar 03 2025 14:28:06 GMT-0600 (Central Standard Time),659436.5,O,m,1221,46,1,120.bmp,-120,-120,121.bmp,120,-120,122.bmp,-120,120,123.bmp,120,120,9277.100000023842,650159.3999999762,7075,no,SM,A,121.bmp,-120,-120,199517,193491,201532,195502,654120.0,648092.0,656137.0,650107.0,46
3,0,0,1,0,30,test,1,0,z,Mon Mar 03 2025 14:28:06 GMT-0600 (Central Standard Time),668819.0,O,m,1324,47,1,124.bmp,-120,-120,125.bmp,120,-120,126.bmp,-120,120,127.bmp,120,120,9379.300000071526,659439.6999999285,7075,yes,SM,A,126.bmp,-120,120,199517,193491,201532,195502,663402.0,657372.0,665419.0,659387.0,47
3,0,0,1,0,30,test,1,0,z,Mon Mar 03 2025 14:28:06 GMT-0600 (Central Standard Time),677947.6000000238,O,m,1078,48,1,140.bmp,-120,-120,141.bmp,120,-120,142.bmp,-120,120,143.bmp,120,120,9122.900000095367,668824.6999999285,7075,yes,SM,A,142.bmp,-120,120,199517,193491,201532,195502,672782.0,666757.0,674800.0,668766.0,48
2,0,1,0,0,31,test,1,1,z,Mon Mar 03 2025 14:28:06 GMT-0600 (Central Standard Time),687727.6000000238,O,z,1726,49,1,136.bmp,-120,-120,137.bmp,120,-120,138.bmp,-120,120,139.bmp,120,120,9774.600000023842,677953.0,7075,yes,SM,A,137.bmp,120,-120,199517,193491,201532,195502,681910.0,675885.0,683927.0,677896.0,49
3,0,0,1,0,31,test,1,0,m,Mon Mar 03 2025 14:28:06 GMT-0600 (Central Standard Time),697092.0,O,z,1304,50,1,132.bmp,-120,-120,133.bmp,120,-120,134.bmp,-120,120,135.bmp,120,120,9361.899999976158,687730.1000000238,7075,no,SM,A,132.bmp,-120,120,199517,193491,201532,195502,691694.0,685662.0,693708.0,687678.0,50
2,0,1,0,0,31,test,1,0,z,Mon Mar 03 2025 14:28:06 GMT-0600 (Central Standard Time),706389.0,O,m,1249,51,1,144.bmp,-120,-120,145.bmp,120,-120,146.bmp,-120,120,147.bmp,120,120,9294.100000023842,697094.8999999762,7075,yes,SM,A,145.bmp,120,-120,199517,193491,201532,195502,701056.0,695027.0,703070.0,697041.0,51
4,0,0,0,1,32,test,1,1,m,Mon Mar 03 2025 14:28:06 GMT-0600 (Central Standard Time),715821.3999999762,O,m,1372,52,1,148.bmp,-120,-120,149.bmp,120,-120,150.bmp,-120,120,131.bmp,120,120,9427.399999976158,706394.0,7075,no,SM,A,148.bmp,120,120,199517,193491,201532,195502,710353.0,704326.0,712370.0,706338.0,52
3,0,0,1,0,32,test,1,0,z,Mon Mar 03 2025 14:28:06 GMT-0600 (Central Standard Time),725869.1999999285,O,None,2001,53,1,101.bmp,-120,-120,102.bmp,120,-120,103.bmp,-120,120,104.bmp,120,120,10043.699999928474,715825.5,7075,yes,SM,A,103.bmp,-120,120,199517,193491,201532,195502,719784.0,713758.0,721800.0,715770.0,53
1,1,0,0,0,33,test,1,1,m,Mon Mar 03 2025 14:28:06 GMT-0600 (Central Standard Time),735113.5,O,m,1190,54,1,105.bmp,-120,-120,106.bmp,120,-120,107.bmp,-120,120,108.bmp,120,120,9240.899999976158,725872.6000000238,7075,no,SM,A,107.bmp,-120,-120,199517,193491,201532,195502,729832.0,723805.0,731848.0,725818.0,54
4,0,0,0,1,34,test,1,1,z,Mon Mar 03 2025 14:28:06 GMT-0600 (Central Standard Time),744560.5,O,z,1384,55,1,109.bmp,-120,-120,110.bmp,120,-120,111.bmp,-120,120,112.bmp,120,120,9443.600000023842,735116.8999999762,7075,yes,SM,A,112.bmp,120,120,199517,193491,201532,195502,739078.0,733049.0,741094.0,735062.0,55
2,0,1,0,0,35,test,1,1,m,Mon Mar 03 2025 14:28:06 GMT-0600 (Central Standard Time),753507.0,O,m,890,56,1,113.bmp,-120,-120,114.bmp,120,-120,115.bmp,-120,120,116.bmp,120,120,8942.700000047684,744564.2999999523,7075,no,SM,A,113.bmp,120,-120,199517,193491,201532,195502,748525.0,742497.0,750540.0,744510.0,56
4,0,0,0,1,35,test,1,0,m,Mon Mar 03 2025 14:28:06 GMT-0600 (Central Standard Time),763253.6999999285,O,z,1694,57,1,117.bmp,-120,-120,118.bmp,120,-120,119.bmp,-120,120,120.bmp,120,120,9742.099999904633,753511.6000000238,7075,no,SM,A,118.bmp,120,120,199517,193491,201532,195502,757472.0,751444.0,759488.0,753456.0,57
3,0,0,1,0,36,test,1,1,z,Mon Mar 03 2025 14:28:06 GMT-0600 (Central Standard Time),772768.6000000238,O,z,1460,58,1,121.bmp,-120,-120,122.bmp,120,-120,123.bmp,-120,120,124.bmp,120,120,9512.5,763256.1000000238,7075,yes,SM,A,123.bmp,-120,120,199517,193491,201532,195502,767218.0,761188.0,769234.0,763203.0,58
2,0,1,0,0,37,test,1,1,m,Mon Mar 03 2025 14:28:06 GMT-0600 (Central Standard Time),782198.1000000238,O,m,1368,59,1,125.bmp,-120,-120,126.bmp,120,-120,127.bmp,-120,120,128.bmp,120,120,9426.400000095367,772771.6999999285,7075,no,SM,A,128.bmp,120,-120,199517,193491,201532,195502,776733.0,770704.0,778750.0,772718.0,59
1,1,0,0,0,38,test,1,1,z,Mon Mar 03 2025 14:28:06 GMT-0600 (Central Standard Time),791446.0,O,z,1185,60,1,129.bmp,-120,-120,130.bmp,120,-120,131.bmp,-120,120,132.bmp,120,120,9245.300000071526,782200.6999999285,7075,yes,SM,A,129.bmp,-120,-120,199517,193491,201532,195502,786163.0,780133.0,788181.0,782149.0,60
2,0,1,0,0,38,test,1,0,z,Mon Mar 03 2025 14:28:06 GMT-0600 (Central Standard Time),800741.7999999523,O,m,1243,61,1,133.bmp,-120,-120,134.bmp,120,-120,135.bmp,-120,120,136.bmp,120,120,9291.699999928474,791450.1000000238,7075,yes,SM,A,134.bmp,120,-120,199517,193491,201532,195502,795408.0,789382.0,797427.0,791396.0,61
4,0,0,0,1,39,test,1,1,z,Mon Mar 03 2025 14:28:06 GMT-0600 (Central Standard Time),810605.1000000238,O,z,1802,62,1,141.bmp,-120,-120,142.bmp,120,-120,143.bmp,-120,120,144.bmp,120,120,9860.300000071526,800744.7999999523,7075,yes,SM,A,144.bmp,120,120,199517,193491,201532,195502,804707.0,798677.0,806723.0,800693.0,62
1,1,0,0,0,39,test,1,0,m,Mon Mar 03 2025 14:28:06 GMT-0600 (Central Standard Time),820252.1999999285,O,z,1604,63,1,145.bmp,-120,-120,146.bmp,120,-120,147.bmp,-120,120,148.bmp,120,120,9643.799999952316,810608.3999999762,7075,no,SM,A,145.bmp,-120,120,199517,193491,201532,195502,814569.0,808541.0,816570.0,810554.0,63
2,0,1,0,0,40,test,1,1,z,Mon Mar 03 2025 14:28:06 GMT-0600 (Central Standard Time),829999.6000000238,O,z,1707,64,1,149.bmp,-120,-120,150.bmp,120,-120,112.bmp,-120,120,101.bmp,120,120,9744.800000071526,820254.7999999523,7075,yes,SM,A,150.bmp,120,-120,199517,193491,201532,195502,824217.0,818187.0,826219.0,820202.0,64
4,0,0,0,1,41,test,1,1,m,Mon Mar 03 2025 14:28:06 GMT-0600 (Central Standard Time),839313.7999999523,O,m,1258,65,1,102.bmp,-120,-120,103.bmp,120,-120,104.bmp,-120,120,105.bmp,120,120,9311.100000023842,830002.6999999285,7075,no,SM,A,104.bmp,120,120,199517,193491,201532,195502,833964.0,827935.0,835980.0,829949.0,65
3,0,0,1,0,42,test,1,1,m,Mon Mar 03 2025 14:28:06 GMT-0600 (Central Standard Time),848346.1999999285,O,m,983,66,1,106.bmp,-120,-120,107.bmp,120,-120,108.bmp,-120,120,109.bmp,120,120,9028.5,839317.6999999285,7075,no,SM,A,109.bmp,-120,120,199517,193491,201532,195502,843277.0,837250.0,845295.0,839262.0,66
2,0,1,0,0,43,test,1,1,m,Mon Mar 03 2025 14:28:06 GMT-0600 (Central Standard Time),857607.2999999523,O,m,1210,67,1,137.bmp,-120,-120,138.bmp,120,-120,139.bmp,-120,120,140.bmp,120,120,9258.0,848349.2999999523,7075,no,SM,A,139.bmp,120,-120,199517,193491,201532,195502,852309.0,846281.0,854324.0,848292.0,67
3,0,0,1,0,44,test,1,1,z,Mon Mar 03 2025 14:28:06 GMT-0600 (Central Standard Time),866906.2999999523,O,z,1249,68,1,110.bmp,-120,-120,111.bmp,120,-120,112.bmp,-120,120,113.bmp,120,120,9295.199999928474,857611.1000000238,7075,yes,SM,A,112.bmp,-120,120,199517,193491,201532,195502,861572.0,855543.0,863589.0,857556.0,68
1,1,0,0,0,45,test,1,1,m,Mon Mar 03 2025 14:28:06 GMT-0600 (Central Standard Time),875969.0,O,m,1000,69,1,114.bmp,-120,-120,115.bmp,120,-120,116.bmp,-120,120,117.bmp,120,120,9059.0,866910.0,7075,no,SM,A,115.bmp,-120,-120,199517,193491,201532,195502,870869.0,864842.0,872886.0,866854.0,69
2,0,1,0,0,46,test,1,1,m,Mon Mar 03 2025 14:28:06 GMT-0600 (Central Standard Time),885316.3999999762,O,m,1299,70,1,118.bmp,-120,-120,119.bmp,120,-120,120.bmp,-120,120,121.bmp,120,120,9344.0,875972.3999999762,7075,no,SM,A,120.bmp,120,-120,199517,193491,201532,195502,879931.0,873905.0,881948.0,875916.0,70
4,0,0,0,1,46,test,1,0,z,Mon Mar 03 2025 14:28:06 GMT-0600 (Central Standard Time),895379.6999999285,O,None,2016,71,1,122.bmp,-120,-120,123.bmp,120,-120,124.bmp,-120,120,125.bmp,120,120,10058.599999904633,885321.1000000238,7075,yes,SM,A,125.bmp,120,120,199517,193491,201532,195502,889280.0,883253.0,891296.0,885265.0,71
1,1,0,0,0,47,test,1,1,z,Mon Mar 03 2025 14:28:06 GMT-0600 (Central Standard Time),904809.3999999762,O,z,1372,72,1,126.bmp,-120,-120,127.bmp,120,-120,128.bmp,-120,120,129.bmp,120,120,9424.600000023842,895384.7999999523,7075,yes,SM,A,126.bmp,-120,-120,199517,193491,201532,195502,899344.0,893317.0,901362.0,895328.0,72
2,0,1,0,0,48,test,1,1,z,Mon Mar 03 2025 14:28:06 GMT-0600 (Central Standard Time),913940.8999999762,O,z,1094,73,1,130.bmp,-120,-120,131.bmp,120,-120,132.bmp,-120,120,133.bmp,120,120,9127.700000047684,904813.1999999285,7075,yes,SM,A,131.bmp,120,-120,199517,193491,201532,195502,908773.0,902745.0,910776.0,904760.0,73
4,0,0,0,1,49,test,1,1,m,Mon Mar 03 2025 14:28:06 GMT-0600 (Central Standard Time),923670.6000000238,O,m,1683,74,1,134.bmp,-120,-120,135.bmp,120,-120,136.bmp,-120,120,137.bmp,120,120,9726.200000047684,913944.3999999762,7075,no,SM,A,136.bmp,120,120,199517,193491,201532,195502,917905.0,911877.0,919919.0,913889.0,74
2,0,1,0,0,50,test,1,1,m,Mon Mar 03 2025 14:28:06 GMT-0600 (Central Standard Time),933469.2999999523,O,m,1750,75,1,138.bmp,-120,-120,139.bmp,120,-120,140.bmp,-120,120,141.bmp,120,120,9795.0,923674.2999999523,7075,no,SM,A,141.bmp,120,-120,199517,193491,201532,195502,927635.0,921606.0,929651.0,923619.0,75
1,1,0,0,0,51,test,1,1,z,Mon Mar 03 2025 14:28:06 GMT-0600 (Central Standard Time),942813.8999999762,O,z,1294,76,1,142.bmp,-120,-120,143.bmp,120,-120,144.bmp,-120,120,145.bmp,120,120,9341.299999952316,933472.6000000238,7075,yes,SM,A,142.bmp,-120,-120,199517,193491,201532,195502,937431.0,931405.0,939448.0,933417.0,76
3,0,0,1,0,51,test,1,0,z,Mon Mar 03 2025 14:28:06 GMT-0600 (Central Standard Time),952878.0,O,None,2016,77,1,150.bmp,-120,-120,111.bmp,120,-120,101.bmp,-120,120,102.bmp,120,120,10060.800000071526,942817.1999999285,7075,yes,SM,A,101.bmp,-120,120,199517,193491,201532,195502,946779.0,940749.0,948794.0,942764.0,77
1,1,0,0,0,51,test,1,0,m,Mon Mar 03 2025 14:28:06 GMT-0600 (Central Standard Time),962075.3999999762,O,z,1150,78,1,146.bmp,-120,-120,147.bmp,120,-120,148.bmp,-120,120,149.bmp,120,120,9194.200000047684,952881.1999999285,7075,no,SM,A,147.bmp,-120,-120,199517,193491,201532,195502,956842.0,950813.0,958857.0,952826.0,78
4,0,0,0,1,51,test,1,0,m,Mon Mar 03 2025 14:28:06 GMT-0600 (Central Standard Time),971405.0,O,z,1266,79,1,107.bmp,-120,-120,108.bmp,120,-120,109.bmp,-120,120,110.bmp,120,120,9320.5,962084.5,7075,no,SM,A,107.bmp,120,120,199517,193491,201532,195502,966038.0,960017.0,968055.0,962025.0,79
3,0,0,1,0,52,test,1,1,m,Mon Mar 03 2025 14:28:06 GMT-0600 (Central Standard Time),980568.1000000238,O,m,1108,80,1,103.bmp,-120,-120,104.bmp,120,-120,105.bmp,-120,120,106.bmp,120,120,9159.600000023842,971408.5,7075,no,SM,A,106.bmp,-120,120,199517,193491,201532,195502,975369.0,969341.0,977385.0,971356.0,80
