acc_sum,block,block_c,condition,correct,correct_response,datetime,endtime,flanker,jitter,project,response,response_test_buffer_response,response_test_target_response,response_time,response_time_test_buffer_response,response_time_test_target_response,row_sel,session_number,start_end,starttime,subject_id,target,task,task_vers,time_test_buffer,time_test_buffer_response,time_test_constants,time_test_flanker,time_test_jitter,time_test_logger,time_test_target,time_test_target_response,time_test_variables,trial
0,prac,1,con,0,z,Mon Mar 24 2025 09:12:41 GMT-0500 (Central Daylight Time),157409.0,banana,800,I,None,,,1799,,,1,1,4861.0,152548.0,8036,banana,NF,C,,,,,,,,,,1
0,prac,1,inc,0,m,Mon Mar 24 2025 09:12:41 GMT-0500 (Central Daylight Time),160041.6000000001,cherry,900,I,z,,,431,,,10,1,2627.5,157414.1000000001,8036,copper,NF,C,,,,,,,,,,2
0,prac,1,inc,0,z,Mon Mar 24 2025 09:12:41 GMT-0500 (Central Daylight Time),165223.0,cobalt,1100,I,None,,,1815,,,4,1,5177.0,160046.0,8036,raisin,NF,C,,,,,,,,,,3
0,prac,1,con,0,m,Mon Mar 24 2025 09:12:41 GMT-0500 (Central Daylight Time),170288.3999999999,zinc,1000,I,None,,,1799,,,15,1,5060.699999999721,165227.7000000002,8036,zinc,NF,C,,,,,,,,,,4
0,prac,1,inc,0,m,Mon Mar 24 2025 09:12:41 GMT-0500 (Central Daylight Time),175453.2000000002,plum,1100,I,None,,,1800,,,16,1,5160.200000000186,170293.0,8036,lead,NF,C,,,,,,,,,,5
1,prac,1,inc,1,z,Mon Mar 24 2025 09:12:41 GMT-0500 (Central Daylight Time),179318.7000000002,lead,1100,I,z,,,1452,,,8,1,3860.3000000002794,175458.3999999999,8036,plum,NF,C,,,,,,,,,,6
2,prac,1,inc,1,m,Mon Mar 24 2025 09:12:41 GMT-0500 (Central Daylight Time),182351.2999999998,pear,900,I,m,,,817,,,14,1,3028.399999999907,179322.8999999999,8036,iron,NF,C,,,,,,,,,,7
3,prac,1,con,1,z,Mon Mar 24 2025 09:12:41 GMT-0500 (Central Daylight Time),185566.7999999998,kiwi,1000,I,z,,,910,,,7,1,3211.0999999996275,182355.7000000002,8036,kiwi,NF,C,,,,,,,,,,8
4,prac,1,con,1,m,Mon Mar 24 2025 09:12:41 GMT-0500 (Central Daylight Time),188765.7999999998,bronze,800,I,m,,,1086,,,9,1,3194.7999999998137,185571.0,8036,bronze,NF,C,,,,,,,,,,9
5,prac,1,con,1,m,Mon Mar 24 2025 09:12:41 GMT-0500 (Central Daylight Time),191715.0,gold,800,I,m,,,846,,,13,1,2944.5,188770.5,8036,gold,NF,C,,,,,,,,,,10
6,prac,1,inc,1,z,Mon Mar 24 2025 09:12:41 GMT-0500 (Central Daylight Time),194830.7999999998,iron,900,I,z,,,902,,,6,1,3111.0999999996275,191719.7000000002,8036,pear,NF,C,,,,,,,,,,11
7,prac,1,inc,1,z,Mon Mar 24 2025 09:12:41 GMT-0500 (Central Daylight Time),197946.2000000002,copper,900,I,z,,,913,,,2,1,3110.8000000002794,194835.3999999999,8036,cherry,NF,C,,,,,,,,,,12
8,prac,1,con,1,m,Mon Mar 24 2025 09:12:41 GMT-0500 (Central Daylight Time),201312.1000000001,silver,1000,I,m,,,1057,,,11,1,3361.399999999907,197950.7000000002,8036,silver,NF,C,,,,,,,,,,13
9,prac,1,inc,1,m,Mon Mar 24 2025 09:12:41 GMT-0500 (Central Daylight Time),204994.0,raisin,1100,I,m,,,1273,,,12,1,3677.5,201316.5,8036,cobalt,NF,C,,,,,,,,,,14
10,prac,1,con,1,z,Mon Mar 24 2025 09:12:41 GMT-0500 (Central Daylight Time),208059.7000000002,orange,1000,I,z,,,763,,,3,1,3061.100000000093,204998.6000000001,8036,orange,NF,C,,,,,,,,,,15
11,prac,1,con,1,z,Mon Mar 24 2025 09:12:41 GMT-0500 (Central Daylight Time),211025.2999999998,lime,800,I,z,,,865,,,5,1,2961.399999999907,208063.8999999999,8036,lime,NF,C,,,,,,,,,,16
0,prac,2,con,0,m,Mon Mar 24 2025 09:12:41 GMT-0500 (Central Daylight Time),229752.8999999999,bronze,800,I,None,,,1799,,,9,1,4861.399999999907,224891.5,8036,bronze,NF,C,,,,,,,,,,1
1,prac,2,con,1,z,Mon Mar 24 2025 09:12:41 GMT-0500 (Central Daylight Time),232768.7999999998,banana,800,I,z,,,908,,,1,1,3011.1999999997206,229757.6000000001,8036,banana,NF,C,,,,,,,,,,2
2,prac,2,con,1,m,Mon Mar 24 2025 09:12:41 GMT-0500 (Central Daylight Time),235900.8999999999,gold,800,I,m,,,1019,,,13,1,3127.899999999907,232773.0,8036,gold,NF,C,,,,,,,,,,3
3,prac,2,inc,1,m,Mon Mar 24 2025 09:12:41 GMT-0500 (Central Daylight Time),238783.7000000002,cherry,900,I,m,,,668,,,10,1,2878.5,235905.2000000002,8036,copper,NF,C,,,,,,,,,,4
4,prac,2,con,1,z,Mon Mar 24 2025 09:12:41 GMT-0500 (Central Daylight Time),241699.2999999998,kiwi,1000,I,z,,,605,,,7,1,2911.6999999997206,238787.6000000001,8036,kiwi,NF,C,,,,,,,,,,5
5,prac,2,con,1,m,Mon Mar 24 2025 09:12:41 GMT-0500 (Central Daylight Time),244565.0,silver,1000,I,m,,,553,,,11,1,2861.899999999907,241703.1000000001,8036,silver,NF,C,,,,,,,,,,6
6,prac,2,inc,1,m,Mon Mar 24 2025 09:12:41 GMT-0500 (Central Daylight Time),247526.1000000001,pear,900,I,m,,,652,,,14,1,2957.3000000002794,244568.7999999998,8036,iron,NF,C,,,,,,,,,,7
7,prac,2,inc,1,m,Mon Mar 24 2025 09:12:41 GMT-0500 (Central Daylight Time),250646.3999999999,plum,1100,I,m,,,709,,,16,1,3114.899999999907,247531.5,8036,lead,NF,C,,,,,,,,,,8
8,prac,2,con,1,z,Mon Mar 24 2025 09:12:41 GMT-0500 (Central Daylight Time),253495.7000000002,lime,800,I,z,,,733,,,5,1,2845.100000000093,250650.6000000001,8036,lime,NF,C,,,,,,,,,,9
9,prac,2,inc,1,z,Mon Mar 24 2025 09:12:41 GMT-0500 (Central Daylight Time),256611.2000000002,copper,900,I,z,,,913,,,2,1,3111.100000000093,253500.1000000001,8036,cherry,NF,C,,,,,,,,,,10
10,prac,2,inc,1,z,Mon Mar 24 2025 09:12:41 GMT-0500 (Central Daylight Time),260509.7999999998,cobalt,1100,I,z,,,1494,,,4,1,3894.5999999996275,256615.2000000002,8036,raisin,NF,C,,,,,,,,,,11
11,prac,2,con,1,m,Mon Mar 24 2025 09:12:41 GMT-0500 (Central Daylight Time),263542.6000000001,zinc,1000,I,m,,,727,,,15,1,3028.8000000002794,260513.7999999998,8036,zinc,NF,C,,,,,,,,,,12
12,prac,2,inc,1,z,Mon Mar 24 2025 09:12:41 GMT-0500 (Central Daylight Time),266508.0,iron,900,I,z,,,761,,,6,1,2961.100000000093,263546.8999999999,8036,pear,NF,C,,,,,,,,,,13
13,prac,2,con,1,z,Mon Mar 24 2025 09:12:41 GMT-0500 (Central Daylight Time),269557.2000000002,orange,1000,I,z,,,744,,,3,1,3044.9000000003725,266512.2999999998,8036,orange,NF,C,,,,,,,,,,14
13,prac,2,inc,0,m,Mon Mar 24 2025 09:12:41 GMT-0500 (Central Daylight Time),272539.7000000002,raisin,1100,I,z,,,594,,,12,1,2978.5,269561.2000000002,8036,cobalt,NF,C,,,,,,,,,,15
14,prac,2,inc,1,z,Mon Mar 24 2025 09:12:41 GMT-0500 (Central Daylight Time),275671.8999999999,lead,1100,I,z,,,716,,,8,1,3128.0,272543.8999999999,8036,plum,NF,C,,,,,,,,,,16
1,test,1,con,1,z,Mon Mar 24 2025 09:12:41 GMT-0500 (Central Daylight Time),297615.0,plum,1100,I,z,z,None,728,528.0,200.0,60,1,2362.600000000093,295252.3999999999,8036,plum,NF,C,293151,293151,291321,292435,291322,293684,292951,292951,293684,1
2,test,1,inc,1,m,Mon Mar 24 2025 09:12:41 GMT-0500 (Central Daylight Time),299831.0,orange,1000,I,m,m,None,670,470.0,200.0,71,1,2210.899999999907,297620.1000000001,8036,bronze,NF,C,295417,295417,293689,294701,293689,295900,295217,295217,295900,2
3,test,1,con,1,z,Mon Mar 24 2025 09:12:41 GMT-0500 (Central Daylight Time),302063.7999999998,pear,800,I,z,z,None,886,686.0,200.0,41,1,2227.5,299836.2999999998,8036,pear,NF,C,297433,297433,295905,296717,295906,298133,297233,297233,298133,3
4,test,1,inc,1,z,Mon Mar 24 2025 09:12:41 GMT-0500 (Central Daylight Time),304379.6000000001,zinc,1000,I,z,z,None,773,573.0,200.0,39,1,2312.0,302067.6000000001,8036,lime,NF,C,299866,299866,298137,299149,298137,300449,299666,299666,300449,4
5,test,1,con,1,m,Mon Mar 24 2025 09:12:41 GMT-0500 (Central Daylight Time),306795.5,cobalt,1100,I,m,m,None,772,573.0,199.0,92,1,2412.0,304383.5,8036,cobalt,NF,C,302282,302282,300453,301565,300453,302865,302082,302082,302864,5
6,test,1,inc,1,m,Mon Mar 24 2025 09:12:41 GMT-0500 (Central Daylight Time),309030.1000000001,cherry,900,I,m,m,None,788,589.0,199.0,70,1,2230.5,306799.6000000001,8036,bronze,NF,C,304498,304498,302869,303781,302869,305099,304298,304298,305099,6
7,test,1,inc,1,m,Mon Mar 24 2025 09:12:41 GMT-0500 (Central Daylight Time),311227.2000000002,lime,800,I,m,m,None,857,657.0,200.0,117,1,2193.0,309034.2000000002,8036,zinc,NF,C,306630,306630,305103,305914,305104,307296,306430,306430,307296,7
8,test,1,con,1,z,Mon Mar 24 2025 09:12:41 GMT-0500 (Central Daylight Time),313510.2000000002,pear,1100,I,z,z,None,644,445.0,199.0,44,1,2278.8000000002794,311231.3999999999,8036,pear,NF,C,309130,309130,307300,308413,307301,309579,308930,308930,309579,8
9,test,1,con,1,z,Mon Mar 24 2025 09:12:41 GMT-0500 (Central Daylight Time),315709.3999999999,kiwi,1100,I,z,z,None,563,363.0,200.0,52,1,2195.1999999997206,313514.2000000002,8036,kiwi,NF,C,311412,311412,309583,310696,309584,311778,311212,311212,311778,9
10,test,1,inc,1,m,Mon Mar 24 2025 09:12:41 GMT-0500 (Central Daylight Time),318137.0,orange,1000,I,m,m,None,894,695.0,199.0,79,1,2423.899999999907,315713.1000000001,8036,copper,NF,C,313511,313511,311782,312795,311782,314206,313312,313312,314206,10
11,test,1,con,1,z,Mon Mar 24 2025 09:12:41 GMT-0500 (Central Daylight Time),320291.3999999999,pear,900,I,z,z,None,707,507.0,200.0,42,1,2149.899999999907,318141.5,8036,pear,NF,C,315844,315844,314211,315128,314211,316361,315644,315644,316360,11
12,test,1,inc,1,z,Mon Mar 24 2025 09:12:41 GMT-0500 (Central Daylight Time),322557.2000000002,cobalt,1100,I,z,z,None,629,429.0,200.0,32,1,2261.8000000002794,320295.3999999999,8036,raisin,NF,C,318194,318194,316364,317477,316365,318626,317993,317993,318626,12
13,test,1,con,1,z,Mon Mar 24 2025 09:12:41 GMT-0500 (Central Daylight Time),325056.5,plum,800,I,z,z,None,1151,952.0,199.0,57,1,2495.399999999907,322561.1000000001,8036,plum,NF,C,320159,320159,318630,319443,318631,321126,319960,319960,321125,13
14,test,1,con,1,m,Mon Mar 24 2025 09:12:41 GMT-0500 (Central Daylight Time),327405.8999999999,silver,1000,I,m,m,None,811,612.0,199.0,83,1,2345.399999999907,325060.5,8036,silver,NF,C,322859,322859,321130,322142,321130,323475,322659,322659,323475,14
15,test,1,inc,1,z,Mon Mar 24 2025 09:12:41 GMT-0500 (Central Daylight Time),329588.2000000002,silver,1000,I,z,z,None,647,447.0,200.0,15,1,2178.4000000003725,327409.7999999998,8036,cherry,NF,C,325208,325208,323479,324491,323479,325657,325008,325008,325657,15
16,test,1,con,1,m,Mon Mar 24 2025 09:12:41 GMT-0500 (Central Daylight Time),331654.3999999999,gold,800,I,m,m,None,719,520.0,199.0,97,1,2062.5,329591.8999999999,8036,gold,NF,C,327190,327191,325661,326474,325661,327723,326991,326991,327723,16
17,test,1,con,1,m,Mon Mar 24 2025 09:12:41 GMT-0500 (Central Daylight Time),333803.7000000002,gold,900,I,m,m,None,705,506.0,199.0,98,1,2145.3000000002794,331658.3999999999,8036,gold,NF,C,329356,329357,327727,328640,327728,329873,329157,329157,329873,17
18,test,1,con,1,z,Mon Mar 24 2025 09:12:41 GMT-0500 (Central Daylight Time),335903.0,lime,800,I,z,z,None,760,561.0,199.0,33,1,2095.600000000093,333807.3999999999,8036,lime,NF,C,331406,331406,329876,330689,329877,331972,331206,331206,331972,18
19,test,1,con,1,m,Mon Mar 24 2025 09:12:41 GMT-0500 (Central Daylight Time),338152.3999999999,cobalt,1000,I,m,m,None,710,510.0,200.0,91,1,2245.600000000093,335906.7999999998,8036,cobalt,NF,C,333705,333705,331976,332989,331976,334221,333505,333505,334221,19
20,test,1,con,1,m,Mon Mar 24 2025 09:12:41 GMT-0500 (Central Daylight Time),340368.3999999999,lead,800,I,m,m,None,868,668.0,200.0,121,1,2212.2999999998137,338156.1000000001,8036,lead,NF,C,335755,335755,334225,335038,334225,336437,335554,335554,336437,20
21,test,1,con,1,m,Mon Mar 24 2025 09:12:41 GMT-0500 (Central Daylight Time),343034.2999999998,silver,1100,I,m,m,None,966,767.0,199.0,84,1,2661.5,340372.7999999998,8036,silver,NF,C,338320,338320,336442,337614,336442,339103,338121,338121,339103,21
22,test,1,con,1,z,Mon Mar 24 2025 09:12:41 GMT-0500 (Central Daylight Time),345150.1000000001,banana,1000,I,z,z,None,571,371.0,200.0,3,1,2111.600000000093,343038.5,8036,banana,NF,C,340836,340836,339108,340120,339108,341219,340636,340636,341219,22
23,test,1,con,1,z,Mon Mar 24 2025 09:12:41 GMT-0500 (Central Daylight Time),347366.1000000001,raisin,1100,I,z,z,None,579,379.0,200.0,28,1,2212.3000000002794,345153.7999999998,8036,raisin,NF,C,343052,343052,341223,342336,341223,343435,342852,342852,343435,23
24,test,1,inc,1,m,Mon Mar 24 2025 09:12:41 GMT-0500 (Central Daylight Time),349515.6000000001,pear,900,I,m,m,None,715,515.0,200.0,126,1,2145.600000000093,347370.0,8036,lead,NF,C,345068,345068,343439,344352,343439,345585,344868,344868,345584,24
25,test,1,inc,1,m,Mon Mar 24 2025 09:12:41 GMT-0500 (Central Daylight Time),351747.7999999998,raisin,1100,I,m,m,None,588,389.0,199.0,80,1,2228.5999999996275,349519.2000000002,8036,copper,NF,C,347418,347418,345588,346701,345589,347817,347218,347218,347817,25
26,test,1,con,1,m,Mon Mar 24 2025 09:12:41 GMT-0500 (Central Daylight Time),354047.3999999999,silver,900,I,m,m,None,853,652.0,201.0,82,1,2295.5,351751.8999999999,8036,silver,NF,C,349451,349451,347821,348734,347821,350117,349250,349250,350116,26
27,test,1,inc,1,z,Mon Mar 24 2025 09:12:41 GMT-0500 (Central Daylight Time),356229.7999999998,iron,900,I,z,z,None,737,538.0,199.0,38,1,2178.5999999996275,354051.2000000002,8036,lime,NF,C,351749,351749,350120,351033,350121,352299,351550,351550,352299,27
28,test,1,inc,1,m,Mon Mar 24 2025 09:12:41 GMT-0500 (Central Daylight Time),358462.7000000002,kiwi,1000,I,m,m,None,695,495.0,200.0,119,1,2228.7000000001863,356234.0,8036,zinc,NF,C,354032,354032,352303,353316,352303,354532,353832,353832,354532,28
29,test,1,inc,1,m,Mon Mar 24 2025 09:12:41 GMT-0500 (Central Daylight Time),360545.2999999998,pear,900,I,m,m,None,633,434.0,199.0,118,1,2078.6999999997206,358466.6000000001,8036,zinc,NF,C,356165,356165,354536,355448,354536,356614,355965,355965,356614,29
30,test,1,inc,1,z,Mon Mar 24 2025 09:12:41 GMT-0500 (Central Daylight Time),362778.1000000001,zinc,1000,I,z,z,None,699,500.0,199.0,63,1,2229.0,360549.1000000001,8036,plum,NF,C,358347,358347,356618,357631,356618,358847,358147,358148,358847,30
31,test,1,inc,1,z,Mon Mar 24 2025 09:12:41 GMT-0500 (Central Daylight Time),365222.6000000001,cobalt,1100,I,z,z,None,664,464.0,200.0,16,1,2440.8000000002794,362781.7999999998,8036,cherry,NF,C,360680,360680,358851,359964,358851,361292,360480,360480,361292,31
32,test,1,inc,1,z,Mon Mar 24 2025 09:12:41 GMT-0500 (Central Daylight Time),367411.0,zinc,1000,I,z,z,None,633,434.0,199.0,55,1,2183.7000000001863,365227.2999999998,8036,kiwi,NF,C,363029,363029,361296,362313,361297,363480,362830,362830,363480,32
33,test,1,con,1,m,Mon Mar 24 2025 09:12:41 GMT-0500 (Central Daylight Time),369425.7999999998,cobalt,800,I,m,m,None,675,475.0,200.0,89,1,2010.7999999998137,367415.0,8036,cobalt,NF,C,365012,365012,363484,364296,363484,365495,364812,364812,365495,33
34,test,1,inc,1,z,Mon Mar 24 2025 09:12:41 GMT-0500 (Central Daylight Time),371591.7999999998,silver,1000,I,z,z,None,619,419.0,200.0,31,1,2161.899999999907,369429.8999999999,8036,raisin,NF,C,367228,367228,365499,366512,365499,367661,367028,367028,367661,34
35,test,1,inc,1,z,Mon Mar 24 2025 09:12:41 GMT-0500 (Central Daylight Time),373674.2999999998,copper,900,I,z,z,None,649,449.0,200.0,14,1,2078.6999999997206,371595.6000000001,8036,cherry,NF,C,369294,369294,367665,368578,367665,369743,369094,369094,369743,35
36,test,1,con,1,z,Mon Mar 24 2025 09:12:41 GMT-0500 (Central Daylight Time),376223.7000000002,plum,1000,I,z,z,None,1002,803.0,199.0,59,1,2545.600000000093,373678.1000000001,8036,plum,NF,C,371476,371476,369747,370760,369747,372293,371277,371277,372293,36
37,test,1,inc,1,m,Mon Mar 24 2025 09:12:41 GMT-0500 (Central Daylight Time),378323.1000000001,lime,800,I,m,m,None,757,557.0,200.0,109,1,2095.600000000093,376227.5,8036,iron,NF,C,373826,373826,372297,373110,372297,374392,373626,373626,374392,37
38,test,1,con,1,z,Mon Mar 24 2025 09:12:41 GMT-0500 (Central Daylight Time),380439.0,plum,900,I,z,z,None,678,478.0,200.0,58,1,2112.0,378327.0,8036,plum,NF,C,376025,376025,374396,375309,374396,376508,375825,375825,376508,38
39,test,1,con,1,m,Mon Mar 24 2025 09:12:41 GMT-0500 (Central Daylight Time),382438.6000000001,zinc,900,I,m,m,None,562,362.0,200.0,114,1,1995.8000000002794,380442.7999999998,8036,zinc,NF,C,378141,378141,376512,377425,376512,378508,377941,377941,378507,39
40,test,1,con,1,z,Mon Mar 24 2025 09:12:41 GMT-0500 (Central Daylight Time),384338.0,banana,900,I,z,z,None,466,266.0,200.0,2,1,1895.5,382442.5,8036,banana,NF,C,380141,380141,378512,379424,378512,380407,379940,379940,380407,40
41,test,1,con,1,m,Mon Mar 24 2025 09:12:41 GMT-0500 (Central Daylight Time),386736.7000000002,iron,1100,I,m,m,None,750,550.0,200.0,108,1,2395.0,384341.7000000002,8036,iron,NF,C,382240,382240,380411,381523,380411,382806,382040,382040,382806,41
42,test,1,con,1,z,Mon Mar 24 2025 09:12:41 GMT-0500 (Central Daylight Time),388936.3999999999,orange,900,I,z,z,None,752,552.0,200.0,18,1,2195.600000000093,386740.7999999998,8036,orange,NF,C,384439,384439,382810,383723,382810,385005,384239,384239,385005,42
43,test,1,con,1,z,Mon Mar 24 2025 09:12:41 GMT-0500 (Central Daylight Time),391319.1000000001,lime,1100,I,z,z,None,735,536.0,199.0,36,1,2378.899999999907,388940.2000000002,8036,lime,NF,C,386839,386839,385009,386122,385010,387388,386639,386639,387388,43
44,test,1,inc,1,m,Mon Mar 24 2025 09:12:41 GMT-0500 (Central Daylight Time),393484.8999999999,banana,800,I,m,m,None,821,622.0,199.0,77,1,2162.0,391322.8999999999,8036,copper,NF,C,388921,388921,387392,388205,387392,389554,388722,388722,389554,44
45,test,1,con,1,m,Mon Mar 24 2025 09:12:41 GMT-0500 (Central Daylight Time),395634.2999999998,zinc,800,I,m,m,None,815,616.0,199.0,113,1,2145.0,393489.2999999998,8036,zinc,NF,C,391087,391087,389558,390371,389559,391703,390888,390888,391703,45
46,test,1,con,1,z,Mon Mar 24 2025 09:12:41 GMT-0500 (Central Daylight Time),397650.2000000002,lime,1000,I,z,z,None,466,267.0,199.0,35,1,2012.1000000000931,395638.1000000001,8036,lime,NF,C,393436,393436,391707,392720,391708,393719,393237,393237,393719,46
47,test,1,inc,1,z,Mon Mar 24 2025 09:12:41 GMT-0500 (Central Daylight Time),399966.2999999998,cobalt,1100,I,z,z,None,678,478.0,200.0,8,1,2312.1999999997206,397654.1000000001,8036,banana,NF,C,395553,395553,393723,394836,393723,396035,395352,395352,396035,47
48,test,1,con,1,z,Mon Mar 24 2025 09:12:41 GMT-0500 (Central Daylight Time),402149.1000000001,cherry,1100,I,z,z,None,538,339.0,199.0,12,1,2178.8000000002794,399970.2999999998,8036,cherry,NF,C,397868,397868,396039,397152,396040,398218,397669,397669,398218,48
49,test,1,inc,1,m,Mon Mar 24 2025 09:12:41 GMT-0500 (Central Daylight Time),404181.7999999998,cherry,900,I,m,m,None,588,387.0,201.0,94,1,2029.0,402152.7999999998,8036,cobalt,NF,C,399852,399852,398222,399135,398222,400251,399651,399651,400251,49
50,test,1,inc,1,z,Mon Mar 24 2025 09:12:41 GMT-0500 (Central Daylight Time),406114.2999999998,gold,800,I,z,z,None,599,399.0,200.0,61,1,1928.7999999998137,404185.5,8036,plum,NF,C,401784,401784,400255,401067,400255,402183,401584,401584,402183,50
51,test,1,con,1,m,Mon Mar 24 2025 09:12:41 GMT-0500 (Central Daylight Time),408248.2000000002,copper,900,I,m,m,None,685,486.0,199.0,74,1,2130.2000000001863,406118.0,8036,copper,NF,C,403816,403817,402187,403100,402187,404317,403617,403617,404317,51
52,test,1,con,1,z,Mon Mar 24 2025 09:12:41 GMT-0500 (Central Daylight Time),410147.6000000001,kiwi,800,I,z,z,None,566,366.0,200.0,49,1,1894.8000000002794,408252.7999999998,8036,kiwi,NF,C,405849,405849,404322,405133,404322,406217,405649,405649,406217,52
53,test,1,con,1,z,Mon Mar 24 2025 09:12:41 GMT-0500 (Central Daylight Time),412412.2000000002,orange,1100,I,z,z,None,628,429.0,199.0,20,1,2260.3000000002794,410151.8999999999,8036,orange,NF,C,408049,408049,406221,407332,406221,408481,407849,407849,408481,53
53,test,1,con,0,m,Mon Mar 24 2025 09:12:41 GMT-0500 (Central Daylight Time),414495.0,iron,1000,I,z,z,None,536,337.0,199.0,107,1,2079.100000000093,412415.8999999999,8036,iron,NF,C,410214,410214,408485,409498,408485,410564,410015,410015,410564,54
53,test,1,con,0,m,Mon Mar 24 2025 09:12:41 GMT-0500 (Central Daylight Time),416761.1000000001,iron,900,I,z,z,None,817,618.0,199.0,106,1,2262.100000000093,414499.0,8036,iron,NF,C,412197,412197,410568,411481,410568,412830,411998,411998,412830,55
54,test,1,con,1,m,Mon Mar 24 2025 09:12:41 GMT-0500 (Central Daylight Time),418827.2999999998,silver,800,I,m,m,None,723,523.0,200.0,81,1,2062.399999999907,416764.8999999999,8036,silver,NF,C,414364,414364,412834,413647,412834,414896,414163,414163,414896,56
54,test,1,con,0,z,Mon Mar 24 2025 09:12:41 GMT-0500 (Central Daylight Time),422259.3999999999,cherry,900,I,None,None,None,1799,1799.0,200.0,10,1,3428.1999999997206,418831.2000000002,8036,cherry,NF,C,416529,416529,414900,415813,414901,418328,416329,416329,418328,57
54,test,1,inc,0,z,Mon Mar 24 2025 09:12:41 GMT-0500 (Central Daylight Time),425591.3999999999,bronze,800,I,None,None,None,1799,1799.0,199.0,21,1,3328.399999999907,422263.0,8036,orange,NF,C,419861,419861,418332,419145,418332,421661,419662,419662,421660,58
54,test,1,inc,0,m,Mon Mar 24 2025 09:12:41 GMT-0500 (Central Daylight Time),429024.0,pear,900,I,None,None,None,1799,1799.0,200.0,110,1,3428.100000000093,425595.8999999999,8036,iron,NF,C,423294,423294,421665,422577,421665,425093,423094,423094,425093,59
54,test,1,con,0,z,Mon Mar 24 2025 09:12:41 GMT-0500 (Central Daylight Time),432373.0,orange,800,I,None,None,None,1800,1800.0,215.0,17,1,3344.2999999998137,429028.7000000002,8036,orange,NF,C,426642,426642,425098,425909,425098,428442,426427,426427,428442,60
55,test,1,con,1,z,Mon Mar 24 2025 09:12:41 GMT-0500 (Central Daylight Time),435254.8999999999,pear,1000,I,z,z,None,1335,1135.0,200.0,43,1,2878.0,432376.8999999999,8036,pear,NF,C,430175,430175,428446,429458,428446,431324,429975,429975,431324,61
56,test,1,inc,1,z,Mon Mar 24 2025 09:12:41 GMT-0500 (Central Daylight Time),437821.1000000001,lead,1100,I,z,z,None,921,722.0,199.0,64,1,2562.100000000093,435259.0,8036,plum,NF,C,433157,433157,431328,432441,431328,433890,432958,432958,433890,62
56,test,1,inc,0,m,Mon Mar 24 2025 09:12:41 GMT-0500 (Central Daylight Time),439703.8999999999,banana,800,I,z,z,None,543,344.0,199.0,93,1,1879.0,437824.8999999999,8036,cobalt,NF,C,435423,435423,433894,434707,433894,435773,435224,435224,435773,63
57,test,1,con,1,z,Mon Mar 24 2025 09:12:41 GMT-0500 (Central Daylight Time),441671.1000000001,cherry,800,I,z,z,None,621,421.0,200.0,9,1,1963.0,439708.1000000001,8036,cherry,NF,C,437306,437306,435777,436590,435777,437740,437106,437106,437740,64
58,test,1,con,1,m,Mon Mar 24 2025 09:12:41 GMT-0500 (Central Daylight Time),443802.3999999999,cobalt,900,I,m,m,None,699,499.0,200.0,90,1,2127.1999999997206,441675.2000000002,8036,cobalt,NF,C,439372,439372,437744,438656,437744,439871,439172,439172,439871,65
59,test,1,inc,1,z,Mon Mar 24 2025 09:12:41 GMT-0500 (Central Daylight Time),446068.2000000002,bronze,800,I,z,z,None,929,730.0,199.0,5,1,2262.4000000003725,443805.7999999998,8036,banana,NF,C,441405,441405,439875,440689,439875,442137,441205,441205,442137,66
60,test,1,con,1,m,Mon Mar 24 2025 09:12:41 GMT-0500 (Central Daylight Time),448234.5,bronze,800,I,m,m,None,823,624.0,199.0,65,1,2162.0,446072.5,8036,bronze,NF,C,443671,443671,442142,442955,442142,444304,443471,443471,444304,67
61,test,1,con,1,z,Mon Mar 24 2025 09:12:41 GMT-0500 (Central Daylight Time),450067.2999999998,raisin,800,I,z,z,None,489,290.0,199.0,25,1,1829.0,448238.2999999998,8036,raisin,NF,C,445837,445837,444307,445120,444308,446136,445637,445637,446136,68
62,test,1,inc,1,m,Mon Mar 24 2025 09:12:41 GMT-0500 (Central Daylight Time),452333.2999999998,orange,1000,I,m,m,None,721,522.0,199.0,95,1,2262.0999999996275,450071.2000000002,8036,cobalt,NF,C,447869,447869,446140,447153,446141,448402,447670,447670,448402,69
63,test,1,inc,1,m,Mon Mar 24 2025 09:12:41 GMT-0500 (Central Daylight Time),454499.0,banana,800,I,m,m,None,832,632.0,200.0,69,1,2162.100000000093,452336.8999999999,8036,bronze,NF,C,449935,449935,448406,449219,448406,450568,449735,449735,450568,70
64,test,1,con,1,m,Mon Mar 24 2025 09:12:41 GMT-0500 (Central Daylight Time),456865.2000000002,gold,1000,I,m,m,None,817,618.0,199.0,99,1,2362.4000000003725,454502.7999999998,8036,gold,NF,C,452301,452301,450572,451585,450572,452934,452102,452102,452934,71
65,test,1,inc,1,m,Mon Mar 24 2025 09:12:41 GMT-0500 (Central Daylight Time),458914.3999999999,banana,800,I,m,m,None,716,516.0,200.0,85,1,2045.1999999997206,456869.2000000002,8036,silver,NF,C,454467,454467,452938,453751,452938,454983,454267,454267,454983,72
66,test,1,con,1,z,Mon Mar 24 2025 09:12:41 GMT-0500 (Central Daylight Time),461213.7999999998,cherry,1000,I,z,z,None,753,554.0,199.0,11,1,2295.6999999997206,458918.1000000001,8036,cherry,NF,C,456717,456717,454987,456000,454987,457283,456517,456517,457283,73
67,test,1,inc,1,m,Mon Mar 24 2025 09:12:41 GMT-0500 (Central Daylight Time),463662.7000000002,kiwi,1000,I,m,m,None,911,711.0,200.0,111,1,2445.100000000093,461217.6000000001,8036,iron,NF,C,459016,459016,457287,458300,457287,459732,458816,458816,459732,74
68,test,1,con,1,z,Mon Mar 24 2025 09:12:41 GMT-0500 (Central Daylight Time),465595.7999999998,raisin,900,I,z,z,None,498,298.0,200.0,26,1,1929.0999999996275,463666.7000000002,8036,raisin,NF,C,461365,461365,459736,460649,459736,461665,461165,461165,461665,75
69,test,1,con,1,z,Mon Mar 24 2025 09:12:41 GMT-0500 (Central Daylight Time),467711.6000000001,banana,1100,I,z,z,None,477,277.0,200.0,4,1,2112.0,465599.6000000001,8036,banana,NF,C,463498,463498,461669,462782,461669,463781,463298,463298,463781,76
70,test,1,inc,1,m,Mon Mar 24 2025 09:12:41 GMT-0500 (Central Daylight Time),469794.6000000001,pear,900,I,m,m,None,633,433.0,200.0,102,1,2079.3000000002794,467715.2999999998,8036,gold,NF,C,465414,465414,463784,464697,463785,465864,465214,465214,465864,77
71,test,1,inc,1,m,Mon Mar 24 2025 09:12:41 GMT-0500 (Central Daylight Time),472077.1000000001,orange,1000,I,m,m,None,745,546.0,199.0,87,1,2278.7000000001863,469798.3999999999,8036,silver,NF,C,467597,467597,465867,466880,465868,468146,467397,467397,468146,78
72,test,1,con,1,m,Mon Mar 24 2025 09:12:41 GMT-0500 (Central Daylight Time),474444.1000000001,lead,900,I,m,m,None,931,732.0,199.0,122,1,2363.100000000093,472081.0,8036,lead,NF,C,469779,469779,468150,469063,468150,470513,469580,469580,470513,79
73,test,1,inc,1,m,Mon Mar 24 2025 09:12:41 GMT-0500 (Central Daylight Time),476592.2999999998,cherry,900,I,m,m,None,710,510.0,200.0,78,1,2144.399999999907,474447.8999999999,8036,copper,NF,C,472145,472145,470517,471429,470517,472661,471945,471945,472661,80
74,test,1,inc,1,m,Mon Mar 24 2025 09:12:41 GMT-0500 (Central Daylight Time),479075.0,plum,1100,I,m,m,None,839,640.0,199.0,120,1,2478.899999999907,476596.1000000001,8036,zinc,NF,C,474495,474495,472665,473778,472665,475144,474295,474295,475144,81
75,test,1,inc,1,m,Mon Mar 24 2025 09:12:41 GMT-0500 (Central Daylight Time),481773.7999999998,plum,1100,I,m,m,None,1061,861.0,200.0,104,1,2694.5999999996275,479079.2000000002,8036,gold,NF,C,476977,476977,475148,476260,475148,477843,476777,476777,477843,82
76,test,1,inc,1,m,Mon Mar 24 2025 09:12:41 GMT-0500 (Central Daylight Time),483873.3999999999,kiwi,1000,I,m,m,None,566,367.0,199.0,127,1,2095.600000000093,481777.7999999998,8036,lead,NF,C,479560,479560,477847,478855,477847,479942,479360,479360,479942,83
77,test,1,inc,1,m,Mon Mar 24 2025 09:12:41 GMT-0500 (Central Daylight Time),485773.1000000001,lime,800,I,m,m,None,556,356.0,200.0,101,1,1895.5,483877.6000000001,8036,gold,NF,C,481475,481475,479947,480759,479947,481842,481275,481275,481842,84
78,test,1,con,1,m,Mon Mar 24 2025 09:12:41 GMT-0500 (Central Daylight Time),487888.7999999998,lead,1000,I,m,m,None,568,368.0,200.0,123,1,2112.0,485776.7999999998,8036,lead,NF,C,483575,483575,481846,482859,481846,483958,483375,483375,483958,85
79,test,1,inc,1,m,Mon Mar 24 2025 09:12:41 GMT-0500 (Central Daylight Time),490121.3999999999,cherry,900,I,m,m,None,792,592.0,200.0,86,1,2228.7999999998137,487892.6000000001,8036,silver,NF,C,485591,485591,483962,484875,483962,486190,485391,485391,486190,86
80,test,1,con,1,m,Mon Mar 24 2025 09:12:41 GMT-0500 (Central Daylight Time),492437.3999999999,bronze,1100,I,m,m,None,671,472.0,199.0,68,1,2311.899999999907,490125.5,8036,bronze,NF,C,488023,488023,486195,487307,486195,488506,487824,487824,488506,87
81,test,1,con,1,m,Mon Mar 24 2025 09:12:41 GMT-0500 (Central Daylight Time),494420.2000000002,copper,800,I,m,m,None,639,440.0,199.0,73,1,1979.0,492441.2000000002,8036,copper,NF,C,490039,490039,488510,489323,488511,490489,489840,489840,490489,88
82,test,1,con,1,m,Mon Mar 24 2025 09:12:41 GMT-0500 (Central Daylight Time),496536.1000000001,zinc,1000,I,m,m,None,569,369.0,200.0,115,1,2111.899999999907,494424.2000000002,8036,zinc,NF,C,492222,492222,490493,491506,490494,492605,492022,492022,492605,89
83,test,1,inc,1,z,Mon Mar 24 2025 09:12:41 GMT-0500 (Central Daylight Time),498668.7999999998,copper,900,I,z,z,None,688,489.0,199.0,30,1,2128.5,496540.2999999998,8036,raisin,NF,C,494238,494238,492609,493522,492610,494738,494039,494039,494738,90
84,test,1,con,1,m,Mon Mar 24 2025 09:12:41 GMT-0500 (Central Daylight Time),501035.7999999998,bronze,1000,I,m,m,None,831,632.0,199.0,67,1,2363.399999999907,498672.3999999999,8036,bronze,NF,C,496471,496471,494741,495754,494742,497105,496271,496271,497105,91
85,test,1,con,1,z,Mon Mar 24 2025 09:12:41 GMT-0500 (Central Daylight Time),503367.2000000002,lime,900,I,z,z,None,886,686.0,200.0,34,1,2327.5,501039.7000000002,8036,lime,NF,C,498737,498737,497109,498020,497109,499436,498537,498537,499436,92
86,test,1,inc,1,z,Mon Mar 24 2025 09:12:41 GMT-0500 (Central Daylight Time),505566.6000000001,iron,900,I,z,z,None,761,561.0,200.0,46,1,2195.2000000001863,503371.3999999999,8036,pear,NF,C,501069,501070,499440,500353,499441,501636,500869,500869,501636,93
87,test,1,inc,1,m,Mon Mar 24 2025 09:12:41 GMT-0500 (Central Daylight Time),508299.1000000001,lime,800,I,m,m,None,1297,1098.0,199.0,125,1,2728.5,505570.6000000001,8036,lead,NF,C,503269,503269,501640,502561,501640,504368,503069,503069,504368,94
88,test,1,inc,1,z,Mon Mar 24 2025 09:12:41 GMT-0500 (Central Daylight Time),510615.0,zinc,1000,I,z,z,None,777,578.0,199.0,47,1,2311.899999999907,508303.1000000001,8036,pear,NF,C,506101,506101,504372,505385,504372,506684,505902,505902,506684,95
89,test,1,inc,1,z,Mon Mar 24 2025 09:12:41 GMT-0500 (Central Daylight Time),512797.7999999998,copper,900,I,z,z,None,738,538.0,200.0,6,1,2179.0,510618.7999999998,8036,banana,NF,C,508317,508317,506688,507601,506688,508867,508117,508117,508867,96
90,test,1,inc,1,z,Mon Mar 24 2025 09:12:41 GMT-0500 (Central Daylight Time),514863.8999999999,gold,800,I,z,z,None,727,526.0,201.0,45,1,2062.2999999998137,512801.6000000001,8036,pear,NF,C,510401,510401,508871,509683,508871,510933,510200,510200,510933,97
91,test,1,con,1,z,Mon Mar 24 2025 09:12:41 GMT-0500 (Central Daylight Time),517179.7000000002,orange,1000,I,z,z,None,772,573.0,199.0,19,1,2312.100000000093,514867.6000000001,8036,orange,NF,C,512666,512666,510937,511949,510937,513249,512466,512466,513249,98
92,test,1,con,1,m,Mon Mar 24 2025 09:12:41 GMT-0500 (Central Daylight Time),519962.0,zinc,1100,I,m,m,None,1132,933.0,199.0,116,1,2778.2999999998137,517183.7000000002,8036,zinc,NF,C,515082,515082,513253,514365,513253,516031,514882,514882,516031,99
93,test,1,inc,1,z,Mon Mar 24 2025 09:12:41 GMT-0500 (Central Daylight Time),522161.2000000002,iron,900,I,z,z,None,751,551.0,200.0,54,1,2195.3000000002794,519965.8999999999,8036,kiwi,NF,C,517664,517664,516035,516948,516035,518230,517464,517464,518230,100
94,test,1,inc,1,z,Mon Mar 24 2025 09:12:41 GMT-0500 (Central Daylight Time),524327.3999999999,iron,900,I,z,z,None,727,528.0,199.0,62,1,2162.399999999907,522165.0,8036,plum,NF,C,519863,519863,518234,519147,518234,520396,519664,519664,520396,101
95,test,1,inc,1,z,Mon Mar 24 2025 09:12:41 GMT-0500 (Central Daylight Time),526643.2999999998,silver,1000,I,z,z,None,781,582.0,199.0,7,1,2312.1999999997206,524331.1000000001,8036,banana,NF,C,522129,522129,520400,521413,520400,522712,521930,521930,522712,102
95,test,1,inc,0,m,Mon Mar 24 2025 09:12:41 GMT-0500 (Central Daylight Time),528725.8999999999,kiwi,1000,I,z,z,None,536,337.0,199.0,103,1,2078.399999999907,526647.5,8036,gold,NF,C,524446,524446,522717,523729,522717,524795,524246,524246,524795,103
96,test,1,con,1,m,Mon Mar 24 2025 09:12:41 GMT-0500 (Central Daylight Time),531191.8999999999,copper,1000,I,m,m,None,802,602.0,200.0,75,1,2461.7999999998137,528730.1000000001,8036,copper,NF,C,526645,526645,524799,525940,524799,527261,526445,526445,527261,104
97,test,1,inc,1,z,Mon Mar 24 2025 09:12:41 GMT-0500 (Central Daylight Time),533491.3999999999,lead,1100,I,z,z,None,657,457.0,200.0,56,1,2295.7999999998137,531195.6000000001,8036,kiwi,NF,C,529094,529094,527265,528378,527265,529561,528894,528894,529560,105
98,test,1,inc,1,z,Mon Mar 24 2025 09:12:41 GMT-0500 (Central Daylight Time),535690.7000000002,gold,800,I,z,z,None,873,674.0,199.0,53,1,2195.7000000001863,533495.0,8036,kiwi,NF,C,531077,531077,529564,530377,529564,531760,530878,530878,531760,106
99,test,1,inc,1,m,Mon Mar 24 2025 09:12:41 GMT-0500 (Central Daylight Time),537940.0,plum,1100,I,m,m,None,605,405.0,200.0,128,1,2245.7000000001863,535694.2999999998,8036,lead,NF,C,533594,533594,531763,532876,531764,534009,533393,533393,534009,107
100,test,1,inc,1,z,Mon Mar 24 2025 09:12:41 GMT-0500 (Central Daylight Time),540006.8999999999,gold,800,I,z,z,None,728,529.0,199.0,37,1,2063.100000000093,537943.7999999998,8036,lime,NF,C,535542,535542,534013,534826,534013,536076,535343,535343,536076,108
101,test,1,inc,1,m,Mon Mar 24 2025 09:12:41 GMT-0500 (Central Daylight Time),542721.8999999999,raisin,1100,I,m,m,None,1075,875.0,200.0,72,1,2711.0,540010.8999999999,8036,bronze,NF,C,537908,537908,536080,537191,536080,538791,537708,537708,538791,109
102,test,1,inc,1,m,Mon Mar 24 2025 09:12:41 GMT-0500 (Central Daylight Time),545187.6000000001,plum,1100,I,m,m,None,831,630.0,201.0,112,1,2462.0,542725.6000000001,8036,iron,NF,C,540625,540625,538795,539907,538795,541257,540424,540424,541257,110
103,test,1,inc,1,z,Mon Mar 24 2025 09:12:41 GMT-0500 (Central Daylight Time),547320.2999999998,bronze,800,I,z,z,None,784,585.0,199.0,13,1,2128.7999999998137,545191.5,8036,cherry,NF,C,542790,542790,541261,542073,541261,543389,542590,542590,543389,111
104,test,1,inc,1,m,Mon Mar 24 2025 09:12:41 GMT-0500 (Central Daylight Time),549636.2999999998,raisin,1100,I,m,m,None,681,481.0,200.0,88,1,2311.7999999998137,547324.5,8036,silver,NF,C,545222,545222,543394,544506,543394,545705,545022,545022,545705,112
104,test,1,con,0,m,Mon Mar 24 2025 09:12:41 GMT-0500 (Central Daylight Time),551852.1000000001,iron,800,I,z,z,None,872,673.0,199.0,105,1,2212.3000000002794,549639.7999999998,8036,iron,NF,C,547238,547238,545709,546522,545709,547921,547039,547039,547921,113
105,test,1,con,1,m,Mon Mar 24 2025 09:12:41 GMT-0500 (Central Daylight Time),554534.5,gold,1100,I,m,m,None,961,753.0,208.0,100,1,2678.2999999998137,551856.2000000002,8036,gold,NF,C,549837,549838,547925,549038,547926,550604,549629,549629,550603,114
106,test,1,inc,1,z,Mon Mar 24 2025 09:12:41 GMT-0500 (Central Daylight Time),557017.2000000002,cobalt,1100,I,z,z,None,833,634.0,199.0,24,1,2479.0,554538.2000000002,8036,orange,NF,C,552437,552437,550607,551720,550608,553086,552237,552237,553086,115
107,test,1,con,1,z,Mon Mar 24 2025 09:12:41 GMT-0500 (Central Daylight Time),559066.2999999998,raisin,1000,I,z,z,None,516,316.0,200.0,27,1,2044.6999999997206,557021.6000000001,8036,raisin,NF,C,554819,554819,553091,554103,553091,555135,554619,554619,555135,116
108,test,1,inc,1,z,Mon Mar 24 2025 09:12:41 GMT-0500 (Central Daylight Time),561498.7999999998,lead,1100,I,z,z,None,797,598.0,199.0,48,1,2428.5999999996275,559070.2000000002,8036,pear,NF,C,556969,556969,555139,556252,555140,557568,556769,556769,557568,117
109,test,1,inc,1,m,Mon Mar 24 2025 09:12:41 GMT-0500 (Central Daylight Time),563848.2999999998,raisin,1100,I,m,m,None,710,510.0,200.0,96,1,2345.7999999998137,561502.5,8036,cobalt,NF,C,559401,559401,557572,558685,557572,559917,559201,559201,559917,118
110,test,1,con,1,m,Mon Mar 24 2025 09:12:41 GMT-0500 (Central Daylight Time),565930.7000000002,bronze,900,I,m,m,None,648,449.0,199.0,66,1,2078.2000000001863,563852.5,8036,bronze,NF,C,561550,561550,559922,560834,559922,562000,561351,561351,562000,119
111,test,1,con,1,z,Mon Mar 24 2025 09:12:41 GMT-0500 (Central Daylight Time),568130.2999999998,kiwi,1000,I,z,z,None,666,466.0,200.0,51,1,2195.899999999907,565934.3999999999,8036,kiwi,NF,C,563733,563733,562003,563017,562004,564199,563533,563533,564199,120
112,test,1,inc,1,z,Mon Mar 24 2025 09:12:41 GMT-0500 (Central Daylight Time),570746.1000000001,copper,900,I,z,z,None,1181,966.0,215.0,22,1,2612.2000000001863,568133.8999999999,8036,orange,NF,C,565849,565849,564203,565116,564203,566815,565634,565634,566815,121
113,test,1,con,1,m,Mon Mar 24 2025 09:12:41 GMT-0500 (Central Daylight Time),573128.7000000002,lead,1100,I,m,m,None,743,543.0,200.0,124,1,2378.9000000003725,570749.7999999998,8036,lead,NF,C,568648,568648,566819,567932,566819,569198,568448,568448,569198,122
114,test,1,con,1,m,Mon Mar 24 2025 09:12:41 GMT-0500 (Central Daylight Time),575761.3999999999,copper,1100,I,m,m,None,984,784.0,200.0,76,1,2629.0,573132.3999999999,8036,copper,NF,C,571031,571031,569201,570315,569202,571830,570831,570831,571830,123
115,test,1,inc,1,z,Mon Mar 24 2025 09:12:41 GMT-0500 (Central Daylight Time),578160.6000000001,lead,1100,I,z,z,None,693,493.0,200.0,40,1,2395.5,575765.1000000001,8036,lime,NF,C,573730,573730,571834,573028,571835,574230,573530,573530,574230,124
116,test,1,inc,1,z,Mon Mar 24 2025 09:12:41 GMT-0500 (Central Daylight Time),580343.1000000001,silver,1000,I,z,z,None,643,444.0,199.0,23,1,2178.8000000002794,578164.2999999998,8036,orange,NF,C,575963,575963,574233,575246,574234,576412,575763,575763,576412,125
117,test,1,inc,1,z,Mon Mar 24 2025 09:12:41 GMT-0500 (Central Daylight Time),582342.6000000001,bronze,800,I,z,z,None,662,462.0,200.0,29,1,1995.3000000002794,580347.2999999998,8036,raisin,NF,C,577945,577945,576416,577229,576417,578412,577745,577745,578412,126
118,test,1,con,1,z,Mon Mar 24 2025 09:12:41 GMT-0500 (Central Daylight Time),584341.7999999998,banana,800,I,z,z,None,654,455.0,199.0,1,1,1995.2999999998137,582346.5,8036,banana,NF,C,579944,579944,578416,579228,578416,580411,579745,579745,580411,127
119,test,1,con,1,z,Mon Mar 24 2025 09:12:41 GMT-0500 (Central Daylight Time),586324.7000000002,kiwi,900,I,z,z,None,547,347.0,200.0,50,1,1979.3000000002794,584345.3999999999,8036,kiwi,NF,C,582044,582044,580414,581328,580415,582394,581844,581844,582394,128
