Q,Q1,Q2,Q3,Q4,acc_sum,block,block_c,correct,correct_response,datetime,endtime,project,response,response_time,row_sel,session_number,squiggle1,squiggle1x,squiggle1y,squiggle2,squiggle2x,squiggle2y,squiggle3,squiggle3x,squiggle3y,squiggle4,squiggle4x,squiggle4y,start_end,starttime,subject_id,target_congruent,task,task_vers,testsquiggle,testsquigglex,testsquiggley,time_practice_delay,time_practice_fixation,time_practice_stimuli,time_practice_study,time_test_delay,time_test_fixation,time_test_stimuli,time_test_study,trial
1,1,0,0,0,0,prac,1,0,z,Wed Apr 02 2025 17:38:17 GMT-0400 (Eastern Daylight Time),120868.7999997139,I,None,2015,1,1,66.bmp,-120,-120,67.bmp,120,-120,68.bmp,-120,120,69.bmp,120,120,10826.099999904633,110042.69999980927,9010,yes,SM,C,66.bmp,-120,-120,113298,107272,115316,109282,,,,,1
3,0,0,1,0,0,prac,1,0,m,Wed Apr 02 2025 17:38:17 GMT-0400 (Eastern Daylight Time),131185.90000009537,I,z,1499,2,1,70.bmp,-120,-120,71.bmp,120,-120,72.bmp,-120,120,73.bmp,120,120,10312.300000190735,120873.59999990463,9010,no,SM,C,73.bmp,-120,120,124132,118103,126149,120116,,,,,2
4,0,0,0,1,0,prac,1,0,m,Wed Apr 02 2025 17:38:17 GMT-0400 (Eastern Daylight Time),142019.09999990463,I,None,2014,3,1,74.bmp,-120,-120,75.bmp,120,-120,76.bmp,-120,120,77.bmp,120,120,10825.300000190735,131193.7999997139,9010,no,SM,C,74.bmp,120,120,134448,128423,136467,130433,,,,,3
2,0,1,0,0,1,prac,1,1,z,Wed Apr 02 2025 17:38:17 GMT-0400 (Eastern Daylight Time),152202.5,I,z,1356,4,1,78.bmp,-120,-120,79.bmp,120,-120,80.bmp,-120,120,81.bmp,120,120,10175.900000095367,142026.59999990463,9010,yes,SM,C,79.bmp,120,-120,145282,139256,147299,141266,,,,,4
3,0,0,1,0,2,prac,1,1,z,Wed Apr 02 2025 17:38:17 GMT-0400 (Eastern Daylight Time),162585.7999997139,I,z,1557,5,1,82.bmp,-120,-120,83.bmp,120,-120,84.bmp,-120,120,85.bmp,120,120,10374.699999809265,152211.09999990463,9010,yes,SM,C,84.bmp,-120,120,155465,149441,157482,151449,,,,,5
1,1,0,0,0,2,prac,1,0,m,Wed Apr 02 2025 17:38:17 GMT-0400 (Eastern Daylight Time),173418.90000009537,I,None,2015,6,1,86.bmp,-120,-120,87.bmp,120,-120,88.bmp,-120,120,89.bmp,120,120,10822.800000190735,162596.09999990463,9010,no,SM,C,89.bmp,-120,-120,165848,159825,167866,161833,,,,,6
2,0,1,0,0,3,prac,1,1,m,Wed Apr 02 2025 17:38:17 GMT-0400 (Eastern Daylight Time),183969.0,I,m,1716,7,1,90.bmp,-120,-120,91.bmp,120,-120,92.bmp,-120,120,93.bmp,120,120,10542.300000190735,173426.69999980927,9010,no,SM,C,90.bmp,120,-120,176681,170656,178699,172666,,,,,7
4,0,0,0,1,3,prac,1,0,z,Wed Apr 02 2025 17:38:17 GMT-0400 (Eastern Daylight Time),194135.69999980927,I,m,1342,8,1,94.bmp,-120,-120,95.bmp,120,-120,96.bmp,-120,120,97.bmp,120,120,10158.799999713898,183976.90000009537,9010,yes,SM,C,97.bmp,120,120,187232,181206,189249,183216,,,,,8
1,1,0,0,0,1,prac,2,1,z,Wed Apr 02 2025 17:38:17 GMT-0400 (Eastern Daylight Time),226852.59999990463,I,z,928,1,1,66.bmp,-120,-120,67.bmp,120,-120,68.bmp,-120,120,69.bmp,120,120,9744.0,217108.59999990463,9010,yes,SM,C,66.bmp,-120,-120,220365,214338,222383,216349,,,,,1
3,0,0,1,0,2,prac,2,1,m,Wed Apr 02 2025 17:38:17 GMT-0400 (Eastern Daylight Time),237435.69999980927,I,m,1755,2,1,70.bmp,-120,-120,71.bmp,120,-120,72.bmp,-120,120,73.bmp,120,120,10573.0,226862.69999980927,9010,no,SM,C,73.bmp,-120,120,230115,224092,232132,226099,,,,,2
4,0,0,0,1,3,prac,2,1,m,Wed Apr 02 2025 17:38:17 GMT-0400 (Eastern Daylight Time),248035.69999980927,I,m,1779,3,1,74.bmp,-120,-120,75.bmp,120,-120,76.bmp,-120,120,77.bmp,120,120,10590.699999809265,237445.0,9010,no,SM,C,74.bmp,120,120,240698,234674,242716,236682,,,,,3
2,0,1,0,0,4,prac,2,1,z,Wed Apr 02 2025 17:38:17 GMT-0400 (Eastern Daylight Time),257952.2999997139,I,z,1084,4,1,78.bmp,-120,-120,79.bmp,120,-120,80.bmp,-120,120,81.bmp,120,120,9907.299999713898,248045.0,9010,yes,SM,C,79.bmp,120,-120,251298,245274,253315,247282,,,,,4
3,0,0,1,0,5,prac,2,1,z,Wed Apr 02 2025 17:38:17 GMT-0400 (Eastern Daylight Time),268519.0,I,z,1743,5,1,82.bmp,-120,-120,83.bmp,120,-120,84.bmp,-120,120,85.bmp,120,120,10559.400000095367,257959.59999990463,9010,yes,SM,C,84.bmp,-120,120,261215,255189,263232,257199,,,,,5
1,1,0,0,0,6,prac,2,1,m,Wed Apr 02 2025 17:38:17 GMT-0400 (Eastern Daylight Time),279085.69999980927,I,m,1736,6,1,86.bmp,-120,-120,87.bmp,120,-120,88.bmp,-120,120,89.bmp,120,120,10559.599999904633,268526.09999990463,9010,no,SM,C,89.bmp,-120,-120,271782,265755,273799,267766,,,,,6
2,0,1,0,0,7,prac,2,1,m,Wed Apr 02 2025 17:38:17 GMT-0400 (Eastern Daylight Time),289035.59999990463,I,m,1121,7,1,90.bmp,-120,-120,91.bmp,120,-120,92.bmp,-120,120,93.bmp,120,120,9939.300000190735,279096.2999997139,9010,no,SM,C,90.bmp,120,-120,282348,276326,284366,278332,,,,,7
4,0,0,0,1,7,prac,2,0,z,Wed Apr 02 2025 17:38:17 GMT-0400 (Eastern Daylight Time),299868.69999980927,I,None,2015,8,1,94.bmp,-120,-120,95.bmp,120,-120,96.bmp,-120,120,97.bmp,120,120,10824.199999809265,289044.5,9010,yes,SM,C,97.bmp,120,120,292298,286274,294316,288282,,,,,8
4,0,0,0,1,1,test,1,1,m,Wed Apr 02 2025 17:38:17 GMT-0400 (Eastern Daylight Time),328935.69999980927,I,m,1727,1,1,98.bmp,-120,-120,99.bmp,120,-120,100.bmp,-120,120,93.bmp,120,120,9776.799999713898,319158.90000009537,9010,yes,SM,C,100.bmp,120,120,292298,286274,294316,288282,322415.0,316388.0,324432.0,318399.0,1
2,0,1,0,0,1,test,1,0,m,Wed Apr 02 2025 17:38:17 GMT-0400 (Eastern Daylight Time),338702.19999980927,I,z,1704,2,1,51.bmp,-120,-120,52.bmp,120,-120,53.bmp,-120,120,54.bmp,120,120,9760.099999904633,328942.09999990463,9010,yes,SM,C,53.bmp,120,-120,292298,286274,294316,288282,332198.0,326171.0,334215.0,328182.0,2
1,1,0,0,0,1,test,1,0,z,Wed Apr 02 2025 17:38:17 GMT-0400 (Eastern Daylight Time),348768.69999980927,I,None,2016,3,1,55.bmp,-120,-120,56.bmp,120,-120,57.bmp,-120,120,58.bmp,120,120,10057.400000095367,338711.2999997139,9010,yes,SM,C,55.bmp,-120,-120,292298,286274,294316,288282,341965.0,335941.0,343982.0,337949.0,3
3,0,0,1,0,1,test,1,0,m,Wed Apr 02 2025 17:38:17 GMT-0400 (Eastern Daylight Time),358835.40000009537,I,None,2015,4,1,59.bmp,-120,-120,60.bmp,120,-120,61.bmp,-120,120,62.bmp,120,120,10058.0,348777.40000009537,9010,yes,SM,C,59.bmp,-120,120,292298,286274,294316,288282,352031.0,346007.0,354049.0,348015.0,4
2,0,1,0,0,2,test,1,1,z,Wed Apr 02 2025 17:38:17 GMT-0400 (Eastern Daylight Time),368268.69999980927,I,z,1371,5,1,63.bmp,-120,-120,64.bmp,120,-120,65.bmp,-120,120,66.bmp,120,120,9423.299999713898,358845.40000009537,9010,yes,SM,C,64.bmp,120,-120,292298,286274,294316,288282,362098.0,356075.0,364116.0,358082.0,5
3,0,0,1,0,3,test,1,1,z,Wed Apr 02 2025 17:38:17 GMT-0400 (Eastern Daylight Time),378018.59999990463,I,z,1698,6,1,67.bmp,-120,-120,68.bmp,120,-120,69.bmp,-120,120,70.bmp,120,120,9740.699999809265,368277.90000009537,9010,yes,SM,C,69.bmp,-120,120,292298,286274,294316,288282,371531.0,365508.0,373549.0,367516.0,6
4,0,0,0,1,3,test,1,0,z,Wed Apr 02 2025 17:38:17 GMT-0400 (Eastern Daylight Time),387635.19999980927,I,m,1564,7,1,71.bmp,-120,-120,72.bmp,120,-120,73.bmp,-120,120,74.bmp,120,120,9610.0,378025.19999980927,9010,yes,SM,C,74.bmp,120,120,292298,286274,294316,288282,381281.0,375254.0,383299.0,377265.0,7
2,0,1,0,0,4,test,1,1,m,Wed Apr 02 2025 17:38:17 GMT-0400 (Eastern Daylight Time),396818.69999980927,I,m,1132,8,1,75.bmp,-120,-120,76.bmp,120,-120,77.bmp,-120,120,78.bmp,120,120,9176.0,387642.69999980927,9010,yes,SM,C,75.bmp,120,-120,292298,286274,294316,288282,390898.0,384872.0,392915.0,386882.0,8
3,0,0,1,0,4,test,1,0,m,Wed Apr 02 2025 17:38:17 GMT-0400 (Eastern Daylight Time),405751.2999997139,I,z,875,9,1,79.bmp,-120,-120,80.bmp,120,-120,81.bmp,-120,120,82.bmp,120,120,8924.5,396826.7999997139,9010,yes,SM,C,80.bmp,-120,120,292298,286274,294316,288282,400081.0,394056.0,402099.0,396065.0,9
4,0,0,0,1,4,test,1,0,z,Wed Apr 02 2025 17:38:17 GMT-0400 (Eastern Daylight Time),415235.09999990463,I,m,1431,10,1,87.bmp,-120,-120,88.bmp,120,-120,89.bmp,-120,120,90.bmp,120,120,9480.0,405755.09999990463,9010,yes,SM,C,90.bmp,120,120,292298,286274,294316,288282,409014.0,402984.0,411032.0,404999.0,10
3,0,0,1,0,5,test,1,1,z,Wed Apr 02 2025 17:38:17 GMT-0400 (Eastern Daylight Time),424802.19999980927,I,z,1516,11,1,83.bmp,-120,-120,84.bmp,120,-120,85.bmp,-120,120,86.bmp,120,120,9559.400000095367,415242.7999997139,9010,yes,SM,C,85.bmp,-120,120,292298,286274,294316,288282,418498.0,412472.0,420515.0,414482.0,11
2,0,1,0,0,5,test,1,0,m,Wed Apr 02 2025 17:38:17 GMT-0400 (Eastern Daylight Time),434868.69999980927,I,None,2015,12,1,91.bmp,-120,-120,92.bmp,120,-120,93.bmp,-120,120,94.bmp,120,120,10058.299999713898,424810.40000009537,9010,yes,SM,C,91.bmp,120,-120,292298,286274,294316,288282,428065.0,422040.0,430082.0,424048.0,12
3,0,0,1,0,5,test,1,0,m,Wed Apr 02 2025 17:38:17 GMT-0400 (Eastern Daylight Time),444935.19999980927,I,None,2015,13,1,95.bmp,-120,-120,96.bmp,120,-120,97.bmp,-120,120,98.bmp,120,120,10059.400000095367,434875.7999997139,9010,yes,SM,C,96.bmp,-120,120,292298,286274,294316,288282,438131.0,432105.0,440149.0,434115.0,13
1,1,0,0,0,6,test,1,1,z,Wed Apr 02 2025 17:38:17 GMT-0400 (Eastern Daylight Time),454701.7999997139,I,z,1704,14,1,99.bmp,-120,-120,100.bmp,120,-120,54.bmp,-120,120,51.bmp,120,120,9761.0,444940.7999997139,9010,yes,SM,C,99.bmp,-120,-120,292298,286274,294316,288282,448198.0,442170.0,450215.0,444182.0,14
4,0,0,0,1,7,test,1,1,m,Wed Apr 02 2025 17:38:17 GMT-0400 (Eastern Daylight Time),464568.59999990463,I,m,1809,15,1,60.bmp,-120,-120,61.bmp,120,-120,62.bmp,-120,120,63.bmp,120,120,9856.900000095367,454711.69999980927,9010,yes,SM,C,61.bmp,120,120,292298,286274,294316,288282,457964.0,451941.0,459982.0,453949.0,15
1,1,0,0,0,8,test,1,1,m,Wed Apr 02 2025 17:38:17 GMT-0400 (Eastern Daylight Time),474051.7999997139,I,m,1430,16,1,52.bmp,-120,-120,53.bmp,120,-120,54.bmp,-120,120,55.bmp,120,120,9476.599999904633,464575.19999980927,9010,yes,SM,C,55.bmp,-120,-120,292298,286274,294316,288282,467831.0,461804.0,469849.0,463815.0,16
3,0,0,1,0,9,test,1,1,m,Wed Apr 02 2025 17:38:17 GMT-0400 (Eastern Daylight Time),483168.59999990463,I,m,1049,17,1,72.bmp,-120,-120,73.bmp,120,-120,74.bmp,-120,120,75.bmp,120,120,9108.800000190735,474059.7999997139,9010,yes,SM,C,72.bmp,-120,120,292298,286274,294316,288282,477314.0,471289.0,479333.0,473299.0,17
1,1,0,0,0,9,test,1,0,z,Wed Apr 02 2025 17:38:17 GMT-0400 (Eastern Daylight Time),493234.7999997139,I,None,2015,18,1,56.bmp,-120,-120,57.bmp,120,-120,58.bmp,-120,120,59.bmp,120,120,10059.39999961853,483175.40000009537,9010,yes,SM,C,56.bmp,-120,-120,292298,286274,294316,288282,486431.0,480405.0,488449.0,482416.0,18
2,0,1,0,0,10,test,1,1,z,Wed Apr 02 2025 17:38:17 GMT-0400 (Eastern Daylight Time),503018.5,I,z,1725,19,1,76.bmp,-120,-120,77.bmp,120,-120,78.bmp,-120,120,79.bmp,120,120,9779.0,493239.5,9010,yes,SM,C,77.bmp,120,-120,292298,286274,294316,288282,496498.0,490469.0,498514.0,492482.0,19
3,0,0,1,0,10,test,1,0,z,Wed Apr 02 2025 17:38:17 GMT-0400 (Eastern Daylight Time),512451.7999997139,I,m,1380,20,1,80.bmp,-120,-120,81.bmp,120,-120,82.bmp,-120,120,83.bmp,120,120,9425.699999809265,503026.09999990463,9010,yes,SM,C,82.bmp,-120,120,292298,286274,294316,288282,506281.0,500255.0,508298.0,502265.0,20
1,1,0,0,0,10,test,1,0,m,Wed Apr 02 2025 17:38:17 GMT-0400 (Eastern Daylight Time),521634.7999997139,I,z,1131,21,1,64.bmp,-120,-120,65.bmp,120,-120,66.bmp,-120,120,67.bmp,120,120,9175.199999809265,512459.59999990463,9010,yes,SM,C,66.bmp,-120,-120,292298,286274,294316,288282,515715.0,509689.0,517732.0,511698.0,21
4,0,0,0,1,10,test,1,0,z,Wed Apr 02 2025 17:38:17 GMT-0400 (Eastern Daylight Time),531135.2999997139,I,m,1436,22,1,68.bmp,-120,-120,69.bmp,120,-120,70.bmp,-120,120,71.bmp,120,120,9493.199999809265,521642.09999990463,9010,yes,SM,C,71.bmp,120,120,292298,286274,294316,288282,524898.0,518871.0,526915.0,520882.0,22
1,1,0,0,0,10,test,1,0,m,Wed Apr 02 2025 17:38:17 GMT-0400 (Eastern Daylight Time),540985.2999997139,I,z,1792,23,1,84.bmp,-120,-120,85.bmp,120,-120,86.bmp,-120,120,87.bmp,120,120,9843.099999904633,531142.1999998093,9010,yes,SM,C,87.bmp,-120,-120,292298,286274,294316,288282,534398.0,528371.0,536415.0,530382.0,23
2,0,1,0,0,10,test,1,0,z,Wed Apr 02 2025 17:38:17 GMT-0400 (Eastern Daylight Time),550451.7999997139,I,m,1413,24,1,92.bmp,-120,-120,93.bmp,120,-120,94.bmp,-120,120,95.bmp,120,120,9456.699999809265,540995.0999999046,9010,yes,SM,C,93.bmp,120,-120,292298,286274,294316,288282,544248.0,538225.0,546265.0,540232.0,24
4,0,0,0,1,10,test,1,0,m,Wed Apr 02 2025 17:38:17 GMT-0400 (Eastern Daylight Time),560518.4000000954,I,None,2015,25,1,96.bmp,-120,-120,97.bmp,120,-120,98.bmp,-120,120,99.bmp,120,120,10059.0,550459.4000000954,9010,yes,SM,C,98.bmp,120,120,292298,286274,294316,288282,553714.0,547689.0,555732.0,549698.0,25
1,1,0,0,0,11,test,1,1,z,Wed Apr 02 2025 17:38:17 GMT-0400 (Eastern Daylight Time),570185.0,I,z,1608,26,1,88.bmp,-120,-120,89.bmp,120,-120,90.bmp,-120,120,91.bmp,120,120,9652.599999904633,560532.4000000954,9010,yes,SM,C,88.bmp,-120,-120,292298,286274,294316,288282,563781.0,557762.0,565799.0,559765.0,26
4,0,0,0,1,12,test,1,1,z,Wed Apr 02 2025 17:38:17 GMT-0400 (Eastern Daylight Time),579301.6999998093,I,z,1062,27,1,100.bmp,-120,-120,61.bmp,120,-120,51.bmp,-120,120,52.bmp,120,120,9107.400000095367,570194.2999997139,9010,yes,SM,C,52.bmp,120,120,292298,286274,294316,288282,573448.0,567424.0,575465.0,569432.0,27
3,0,0,1,0,12,test,1,0,m,Wed Apr 02 2025 17:38:17 GMT-0400 (Eastern Daylight Time),588351.7999997139,I,z,985,28,1,53.bmp,-120,-120,54.bmp,120,-120,55.bmp,-120,120,56.bmp,120,120,9043.199999809265,579308.5999999046,9010,yes,SM,C,53.bmp,-120,120,292298,286274,294316,288282,582564.0,576538.0,584582.0,578548.0,28
2,0,1,0,0,13,test,1,1,z,Wed Apr 02 2025 17:38:17 GMT-0400 (Eastern Daylight Time),598068.4000000954,I,z,1663,29,1,57.bmp,-120,-120,58.bmp,120,-120,59.bmp,-120,120,60.bmp,120,120,9708.10000038147,588360.2999997139,9010,yes,SM,C,58.bmp,120,-120,292298,286274,294316,288282,591614.0,585590.0,593632.0,587598.0,29
3,0,0,1,0,14,test,1,1,z,Wed Apr 02 2025 17:38:17 GMT-0400 (Eastern Daylight Time),607651.6999998093,I,z,1531,30,1,61.bmp,-120,-120,62.bmp,120,-120,63.bmp,-120,120,64.bmp,120,120,9576.900000095367,598074.7999997139,9010,yes,SM,C,63.bmp,-120,120,292298,286274,294316,288282,601331.0,595304.0,603348.0,597315.0,30
1,1,0,0,0,15,test,1,1,z,Wed Apr 02 2025 17:38:17 GMT-0400 (Eastern Daylight Time),616918.2999997139,I,z,1211,31,1,65.bmp,-120,-120,66.bmp,120,-120,67.bmp,-120,120,68.bmp,120,120,9259.799999713898,607658.5,9010,yes,SM,C,65.bmp,-120,-120,292298,286274,294316,288282,610914.0,604888.0,612932.0,606898.0,31
2,0,1,0,0,16,test,1,1,m,Wed Apr 02 2025 17:38:17 GMT-0400 (Eastern Daylight Time),626468.5,I,m,1496,32,1,69.bmp,-120,-120,70.bmp,120,-120,71.bmp,-120,120,72.bmp,120,120,9541.599999904633,616926.9000000954,9010,yes,SM,C,69.bmp,120,-120,292298,286274,294316,288282,620181.0,614156.0,622198.0,616165.0,32
4,0,0,0,1,16,test,1,0,z,Wed Apr 02 2025 17:38:17 GMT-0400 (Eastern Daylight Time),636534.7999997139,I,None,2016,33,1,81.bmp,-120,-120,82.bmp,120,-120,83.bmp,-120,120,84.bmp,120,120,10057.599999904633,626477.1999998093,9010,yes,SM,C,84.bmp,120,120,292298,286274,294316,288282,629731.0,623706.0,631748.0,625715.0,33
2,0,1,0,0,16,test,1,0,z,Wed Apr 02 2025 17:38:17 GMT-0400 (Eastern Daylight Time),646368.1999998093,I,m,1767,34,1,73.bmp,-120,-120,74.bmp,120,-120,75.bmp,-120,120,76.bmp,120,120,9824.699999809265,636543.5,9010,yes,SM,C,74.bmp,120,-120,292298,286274,294316,288282,639798.0,633773.0,641815.0,635782.0,34
4,0,0,0,1,16,test,1,0,m,Wed Apr 02 2025 17:38:17 GMT-0400 (Eastern Daylight Time),655551.5,I,z,1119,35,1,77.bmp,-120,-120,78.bmp,120,-120,79.bmp,-120,120,80.bmp,120,120,9175.599999904633,646375.9000000954,9010,yes,SM,C,79.bmp,120,120,292298,286274,294316,288282,649631.0,643605.0,651648.0,645615.0,35
3,0,0,1,0,17,test,1,1,m,Wed Apr 02 2025 17:38:17 GMT-0400 (Eastern Daylight Time),664868.1999998093,I,m,1262,36,1,85.bmp,-120,-120,86.bmp,120,-120,87.bmp,-120,120,88.bmp,120,120,9308.799999713898,655559.4000000954,9010,yes,SM,C,85.bmp,-120,120,292298,286274,294316,288282,658814.0,652789.0,660832.0,654798.0,36
1,1,0,0,0,17,test,1,0,m,Wed Apr 02 2025 17:38:17 GMT-0400 (Eastern Daylight Time),674734.9000000954,I,z,1803,37,1,89.bmp,-120,-120,90.bmp,120,-120,91.bmp,-120,120,92.bmp,120,120,9859.900000095367,664875.0,9010,yes,SM,C,90.bmp,-120,-120,292298,286274,294316,288282,668131.0,662104.0,670148.0,664115.0,37
2,0,1,0,0,18,test,1,1,m,Wed Apr 02 2025 17:38:17 GMT-0400 (Eastern Daylight Time),684084.9000000954,I,m,1295,38,1,93.bmp,-120,-120,94.bmp,120,-120,95.bmp,-120,120,96.bmp,120,120,9335.400000095367,674749.5,9010,yes,SM,C,95.bmp,120,-120,292298,286274,294316,288282,677997.0,671979.0,680015.0,673981.0,38
4,0,0,0,1,19,test,1,1,z,Wed Apr 02 2025 17:38:17 GMT-0400 (Eastern Daylight Time),693201.5,I,z,1050,39,1,97.bmp,-120,-120,98.bmp,120,-120,99.bmp,-120,120,100.bmp,120,120,9109.099999904633,684092.4000000954,9010,yes,SM,C,100.bmp,120,120,292298,286274,294316,288282,687347.0,681322.0,689365.0,683331.0,39
3,0,0,1,0,19,test,1,0,m,Wed Apr 02 2025 17:38:17 GMT-0400 (Eastern Daylight Time),702501.5999999046,I,z,1244,40,1,54.bmp,-120,-120,55.bmp,120,-120,56.bmp,-120,120,57.bmp,120,120,9292.699999809265,693208.9000000954,9010,yes,SM,C,55.bmp,-120,120,292298,286274,294316,288282,696464.0,690438.0,698482.0,692448.0,40
1,1,0,0,0,20,test,1,1,z,Wed Apr 02 2025 17:38:17 GMT-0400 (Eastern Daylight Time),711618.0999999046,I,z,1065,41,1,58.bmp,-120,-120,59.bmp,120,-120,60.bmp,-120,120,61.bmp,120,120,9109.699999809265,702508.4000000954,9010,yes,SM,C,58.bmp,-120,-120,292298,286274,294316,288282,705764.0,699738.0,707782.0,701748.0,41
4,0,0,0,1,21,test,1,1,z,Wed Apr 02 2025 17:38:17 GMT-0400 (Eastern Daylight Time),721268.0999999046,I,z,1596,42,1,62.bmp,-120,-120,63.bmp,120,-120,64.bmp,-120,120,65.bmp,120,120,9643.599999904633,711624.5,9010,yes,SM,C,65.bmp,120,120,292298,286274,294316,288282,714881.0,708854.0,716898.0,710865.0,42
1,1,0,0,0,21,test,1,0,z,Wed Apr 02 2025 17:38:17 GMT-0400 (Eastern Daylight Time),730901.5,I,m,1578,43,1,66.bmp,-120,-120,67.bmp,120,-120,68.bmp,-120,120,69.bmp,120,120,9625.0,721276.5,9010,yes,SM,C,66.bmp,-120,-120,292298,286274,294316,288282,724531.0,718506.0,726548.0,720515.0,43
4,0,0,0,1,22,test,1,1,m,Wed Apr 02 2025 17:38:17 GMT-0400 (Eastern Daylight Time),740718.1999998093,I,m,1752,44,1,54.bmp,-120,-120,51.bmp,120,-120,52.bmp,-120,120,53.bmp,120,120,9807.299999713898,730910.9000000954,9010,yes,SM,C,54.bmp,120,120,292298,286274,294316,288282,734164.0,728140.0,736181.0,730148.0,44
1,1,0,0,0,23,test,1,1,m,Wed Apr 02 2025 17:38:17 GMT-0400 (Eastern Daylight Time),750001.9000000954,I,m,1232,45,1,78.bmp,-120,-120,79.bmp,120,-120,80.bmp,-120,120,81.bmp,120,120,9276.300000190735,740725.5999999046,9010,yes,SM,C,81.bmp,-120,-120,292298,286274,294316,288282,743981.0,737955.0,745998.0,739965.0,45
1,1,0,0,0,24,test,1,1,m,Wed Apr 02 2025 17:38:17 GMT-0400 (Eastern Daylight Time),759784.7999997139,I,m,1725,46,1,70.bmp,-120,-120,71.bmp,120,-120,72.bmp,-120,120,73.bmp,120,120,9774.599999904633,750010.1999998093,9010,yes,SM,C,71.bmp,-120,-120,292298,286274,294316,288282,753264.0,747240.0,755281.0,749248.0,46
3,0,0,1,0,25,test,1,1,z,Wed Apr 02 2025 17:38:17 GMT-0400 (Eastern Daylight Time),768801.4000000954,I,z,950,47,1,74.bmp,-120,-120,75.bmp,120,-120,76.bmp,-120,120,77.bmp,120,120,9009.800000190735,759791.5999999046,9010,yes,SM,C,76.bmp,-120,120,292298,286274,294316,288282,763047.0,757021.0,765065.0,759031.0,47
3,0,0,1,0,26,test,1,1,z,Wed Apr 02 2025 17:38:17 GMT-0400 (Eastern Daylight Time),778151.5999999046,I,z,1292,48,1,90.bmp,-120,-120,91.bmp,120,-120,92.bmp,-120,120,93.bmp,120,120,9343.400000095367,768808.1999998093,9010,yes,SM,C,92.bmp,-120,120,292298,286274,294316,288282,772064.0,766037.0,774081.0,768048.0,48
2,0,1,0,0,26,test,1,0,z,Wed Apr 02 2025 17:38:17 GMT-0400 (Eastern Daylight Time),787401.5,I,m,1191,49,1,86.bmp,-120,-120,87.bmp,120,-120,88.bmp,-120,120,89.bmp,120,120,9241.200000286102,778160.2999997139,9010,yes,SM,C,87.bmp,120,-120,292298,286274,294316,288282,781414.0,775389.0,783431.0,777398.0,49
3,0,0,1,0,27,test,1,1,m,Wed Apr 02 2025 17:38:17 GMT-0400 (Eastern Daylight Time),796718.0999999046,I,m,1252,50,1,82.bmp,-120,-120,83.bmp,120,-120,84.bmp,-120,120,85.bmp,120,120,9308.5,787409.5999999046,9010,yes,SM,C,82.bmp,-120,120,292298,286274,294316,288282,790664.0,784639.0,792682.0,786648.0,50
2,0,1,0,0,28,test,1,1,z,Wed Apr 02 2025 17:38:17 GMT-0400 (Eastern Daylight Time),806318.1999998093,I,z,1537,51,1,94.bmp,-120,-120,95.bmp,120,-120,96.bmp,-120,120,97.bmp,120,120,9592.299999713898,796725.9000000954,9010,yes,SM,C,95.bmp,120,-120,292298,286274,294316,288282,799980.0,793955.0,801998.0,795965.0,51
4,0,0,0,1,29,test,1,1,m,Wed Apr 02 2025 17:38:17 GMT-0400 (Eastern Daylight Time),815984.6999998093,I,m,1600,52,1,98.bmp,-120,-120,99.bmp,120,-120,100.bmp,-120,120,81.bmp,120,120,9659.5,806325.1999998093,9010,yes,SM,C,98.bmp,120,120,292298,286274,294316,288282,809580.0,803554.0,811598.0,805565.0,52
3,0,0,1,0,30,test,1,1,z,Wed Apr 02 2025 17:38:17 GMT-0400 (Eastern Daylight Time),825184.9000000954,I,z,1133,53,1,51.bmp,-120,-120,52.bmp,120,-120,53.bmp,-120,120,54.bmp,120,120,9192.0,815992.9000000954,9010,yes,SM,C,53.bmp,-120,120,292298,286274,294316,288282,819247.0,813222.0,821265.0,815231.0,53
1,1,0,0,0,30,test,1,0,m,Wed Apr 02 2025 17:38:17 GMT-0400 (Eastern Daylight Time),834518.0999999046,I,z,1277,54,1,55.bmp,-120,-120,56.bmp,120,-120,57.bmp,-120,120,58.bmp,120,120,9326.599999904633,825191.5,9010,yes,SM,C,57.bmp,-120,-120,292298,286274,294316,288282,828447.0,822421.0,830465.0,824431.0,54
4,0,0,0,1,30,test,1,0,z,Wed Apr 02 2025 17:38:17 GMT-0400 (Eastern Daylight Time),844017.9000000954,I,m,1433,55,1,59.bmp,-120,-120,60.bmp,120,-120,61.bmp,-120,120,62.bmp,120,120,9491.400000095367,834526.5,9010,yes,SM,C,62.bmp,120,120,292298,286274,294316,288282,837781.0,831756.0,839798.0,833765.0,55
2,0,1,0,0,31,test,1,1,m,Wed Apr 02 2025 17:38:17 GMT-0400 (Eastern Daylight Time),853834.6999998093,I,m,1756,56,1,63.bmp,-120,-120,64.bmp,120,-120,65.bmp,-120,120,66.bmp,120,120,9809.599999904633,844025.0999999046,9010,yes,SM,C,63.bmp,120,-120,292298,286274,294316,288282,847280.0,841254.0,849298.0,843264.0,56
4,0,0,0,1,32,test,1,1,m,Wed Apr 02 2025 17:38:17 GMT-0400 (Eastern Daylight Time),863268.0,I,m,1379,57,1,67.bmp,-120,-120,68.bmp,120,-120,69.bmp,-120,120,70.bmp,120,120,9425.200000286102,853842.7999997139,9010,yes,SM,C,68.bmp,120,120,292298,286274,294316,288282,857097.0,851072.0,859115.0,853081.0,57
3,0,0,1,0,33,test,1,1,z,Wed Apr 02 2025 17:38:17 GMT-0400 (Eastern Daylight Time),872401.0999999046,I,z,1066,58,1,71.bmp,-120,-120,72.bmp,120,-120,73.bmp,-120,120,74.bmp,120,120,9123.699999809265,863277.4000000954,9010,yes,SM,C,73.bmp,-120,120,292298,286274,294316,288282,866531.0,860507.0,868548.0,862514.0,58
2,0,1,0,0,33,test,1,0,m,Wed Apr 02 2025 17:38:17 GMT-0400 (Eastern Daylight Time),881817.9000000954,I,z,1358,59,1,75.bmp,-120,-120,76.bmp,120,-120,77.bmp,-120,120,78.bmp,120,120,9409.700000286102,872408.1999998093,9010,yes,SM,C,78.bmp,120,-120,292298,286274,294316,288282,875664.0,869637.0,877681.0,871648.0,59
1,1,0,0,0,34,test,1,1,z,Wed Apr 02 2025 17:38:17 GMT-0400 (Eastern Daylight Time),891118.0,I,z,1236,60,1,79.bmp,-120,-120,80.bmp,120,-120,81.bmp,-120,120,82.bmp,120,120,9293.099999904633,881824.9000000954,9010,yes,SM,C,79.bmp,-120,-120,292298,286274,294316,288282,885080.0,879054.0,887098.0,881065.0,60
2,0,1,0,0,35,test,1,1,z,Wed Apr 02 2025 17:38:17 GMT-0400 (Eastern Daylight Time),900634.4000000954,I,z,1456,61,1,83.bmp,-120,-120,84.bmp,120,-120,85.bmp,-120,120,86.bmp,120,120,9509.0,891125.4000000954,9010,yes,SM,C,84.bmp,120,-120,292298,286274,294316,288282,894380.0,888355.0,896398.0,890365.0,61
4,0,0,0,1,36,test,1,1,z,Wed Apr 02 2025 17:38:17 GMT-0400 (Eastern Daylight Time),909634.2999997139,I,z,948,62,1,91.bmp,-120,-120,92.bmp,120,-120,93.bmp,-120,120,94.bmp,120,120,8992.799999713898,900641.5,9010,yes,SM,C,94.bmp,120,120,292298,286274,294316,288282,903897.0,897871.0,905914.0,899881.0,62
1,1,0,0,0,36,test,1,0,m,Wed Apr 02 2025 17:38:17 GMT-0400 (Eastern Daylight Time),919034.4000000954,I,z,1339,63,1,95.bmp,-120,-120,96.bmp,120,-120,97.bmp,-120,120,98.bmp,120,120,9390.900000095367,909643.5,9010,yes,SM,C,95.bmp,-120,120,292298,286274,294316,288282,912897.0,906873.0,914915.0,908882.0,63
2,0,1,0,0,37,test,1,1,z,Wed Apr 02 2025 17:38:17 GMT-0400 (Eastern Daylight Time),928384.4000000954,I,z,1283,64,1,99.bmp,-120,-120,100.bmp,120,-120,62.bmp,-120,120,51.bmp,120,120,9341.60000038147,919042.7999997139,9010,yes,SM,C,100.bmp,120,-120,292298,286274,294316,288282,922297.0,916272.0,924315.0,918281.0,64
4,0,0,0,1,38,test,1,1,m,Wed Apr 02 2025 17:38:17 GMT-0400 (Eastern Daylight Time),937868.0,I,m,1421,65,1,52.bmp,-120,-120,53.bmp,120,-120,54.bmp,-120,120,55.bmp,120,120,9475.800000190735,928392.1999998093,9010,yes,SM,C,54.bmp,120,120,292298,286274,294316,288282,931647.0,925621.0,933665.0,927631.0,65
3,0,0,1,0,39,test,1,1,m,Wed Apr 02 2025 17:38:17 GMT-0400 (Eastern Daylight Time),947050.4000000954,I,m,1121,66,1,56.bmp,-120,-120,57.bmp,120,-120,58.bmp,-120,120,59.bmp,120,120,9173.800000190735,937876.5999999046,9010,yes,SM,C,59.bmp,-120,120,292298,286274,294316,288282,941130.0,935106.0,943148.0,937114.0,66
2,0,1,0,0,40,test,1,1,m,Wed Apr 02 2025 17:38:17 GMT-0400 (Eastern Daylight Time),956201.0,I,m,1091,67,1,87.bmp,-120,-120,88.bmp,120,-120,89.bmp,-120,120,90.bmp,120,120,9145.800000190735,947055.1999998093,9010,yes,SM,C,89.bmp,120,-120,292298,286274,294316,288282,950314.0,944285.0,952331.0,946298.0,67
3,0,0,1,0,40,test,1,0,z,Wed Apr 02 2025 17:38:17 GMT-0400 (Eastern Daylight Time),966267.7999997139,I,None,2016,68,1,60.bmp,-120,-120,61.bmp,120,-120,62.bmp,-120,120,63.bmp,120,120,10059.099999904633,956208.6999998093,9010,yes,SM,C,62.bmp,-120,120,292298,286274,294316,288282,959464.0,953438.0,961481.0,955448.0,68
1,1,0,0,0,41,test,1,1,m,Wed Apr 02 2025 17:38:17 GMT-0400 (Eastern Daylight Time),975367.7999997139,I,m,1042,69,1,64.bmp,-120,-120,65.bmp,120,-120,66.bmp,-120,120,67.bmp,120,120,9092.89999961853,966274.9000000954,9010,yes,SM,C,65.bmp,-120,-120,292298,286274,294316,288282,969530.0,963504.0,971548.0,965514.0,69
2,0,1,0,0,42,test,1,1,m,Wed Apr 02 2025 17:38:17 GMT-0400 (Eastern Daylight Time),984767.7999997139,I,m,1334,70,1,68.bmp,-120,-120,69.bmp,120,-120,70.bmp,-120,120,71.bmp,120,120,9391.099999904633,975376.6999998093,9010,yes,SM,C,70.bmp,120,-120,292298,286274,294316,288282,978630.0,972606.0,980648.0,974614.0,70
4,0,0,0,1,43,test,1,1,z,Wed Apr 02 2025 17:38:17 GMT-0400 (Eastern Daylight Time),993951.0999999046,I,z,1118,71,1,72.bmp,-120,-120,73.bmp,120,-120,74.bmp,-120,120,75.bmp,120,120,9173.800000190735,984777.2999997139,9010,yes,SM,C,75.bmp,120,120,292298,286274,294316,288282,988030.0,982007.0,990048.0,984014.0,71
1,1,0,0,0,44,test,1,1,z,Wed Apr 02 2025 17:38:17 GMT-0400 (Eastern Daylight Time),1003767.7999997139,I,z,1759,72,1,76.bmp,-120,-120,77.bmp,120,-120,78.bmp,-120,120,79.bmp,120,120,9808.199999809265,993959.5999999046,9010,yes,SM,C,76.bmp,-120,-120,292298,286274,294316,288282,997214.0,991189.0,999231.0,993198.0,72
2,0,1,0,0,45,test,1,1,z,Wed Apr 02 2025 17:38:17 GMT-0400 (Eastern Daylight Time),1013384.4000000954,I,z,1558,73,1,80.bmp,-120,-120,81.bmp,120,-120,82.bmp,-120,120,83.bmp,120,120,9609.400000095367,1003775.0,9010,yes,SM,C,81.bmp,120,-120,292298,286274,294316,288282,1007030.0,1001004.0,1009048.0,1003013.0,73
4,0,0,0,1,46,test,1,1,m,Wed Apr 02 2025 17:38:17 GMT-0400 (Eastern Daylight Time),1022801.0999999046,I,m,1350,74,1,84.bmp,-120,-120,85.bmp,120,-120,86.bmp,-120,120,87.bmp,120,120,9409.900000095367,1013391.1999998093,9010,yes,SM,C,86.bmp,120,120,292298,286274,294316,288282,1016647.0,1010620.0,1018664.0,1012631.0,74
2,0,1,0,0,47,test,1,1,m,Wed Apr 02 2025 17:38:17 GMT-0400 (Eastern Daylight Time),1032584.5,I,m,1725,75,1,88.bmp,-120,-120,89.bmp,120,-120,90.bmp,-120,120,91.bmp,120,120,9773.400000095367,1022811.0999999046,9010,yes,SM,C,91.bmp,120,-120,292298,286274,294316,288282,1026063.0,1020040.0,1028081.0,1022048.0,75
1,1,0,0,0,47,test,1,0,z,Wed Apr 02 2025 17:38:17 GMT-0400 (Eastern Daylight Time),1042617.6999998093,I,m,1973,76,1,92.bmp,-120,-120,93.bmp,120,-120,94.bmp,-120,120,95.bmp,120,120,10025.900000095367,1032591.7999997139,9010,yes,SM,C,92.bmp,-120,-120,292298,286274,294316,288282,1035847.0,1029821.0,1037865.0,1031831.0,76
3,0,0,1,0,48,test,1,1,z,Wed Apr 02 2025 17:38:17 GMT-0400 (Eastern Daylight Time),1052301.0999999046,I,z,1620,77,1,100.bmp,-120,-120,61.bmp,120,-120,51.bmp,-120,120,52.bmp,120,120,9674.699999809265,1042626.4000000954,9010,yes,SM,C,51.bmp,-120,120,292298,286274,294316,288282,1045880.0,1039856.0,1047898.0,1041864.0,77
1,1,0,0,0,49,test,1,1,m,Wed Apr 02 2025 17:38:17 GMT-0400 (Eastern Daylight Time),1061317.6999998093,I,m,961,78,1,96.bmp,-120,-120,97.bmp,120,-120,98.bmp,-120,120,99.bmp,120,120,9009.099999904633,1052308.5999999046,9010,yes,SM,C,97.bmp,-120,-120,292298,286274,294316,288282,1055564.0,1049538.0,1057581.0,1051548.0,78
4,0,0,0,1,50,test,1,1,m,Wed Apr 02 2025 17:38:17 GMT-0400 (Eastern Daylight Time),1070401.0,I,m,1016,79,1,57.bmp,-120,-120,58.bmp,120,-120,59.bmp,-120,120,60.bmp,120,120,9076.200000286102,1061324.799999714,9010,yes,SM,C,57.bmp,120,120,292298,286274,294316,288282,1064580.0,1058554.0,1066598.0,1060564.0,79
3,0,0,1,0,51,test,1,1,m,Wed Apr 02 2025 17:38:17 GMT-0400 (Eastern Daylight Time),1079701.0,I,m,1245,80,1,53.bmp,-120,-120,54.bmp,120,-120,55.bmp,-120,120,56.bmp,120,120,9291.800000190735,1070409.1999998093,9010,yes,SM,C,56.bmp,-120,120,292298,286274,294316,288282,1073664.0,1067639.0,1075681.0,1069647.0,80
