Number,acc_sum,block,block_c,block_cond,con_img,correct,correct_response,datetime,endtime,jitter,project,response,response_time,row_sel,session_number,start_end,starttime,subject_id,task,task_vers,trial
1,0,prac,1,A,circle.png,0,z,Wed Mar 19 2025 16:22:50 GMT-0500 (Central Daylight Time),82661.8999999999,1000,O,None,1515,1,1,3293.0,79368.8999999999,7065,NTS,C,1
2,0,prac,1,A,circle.png,0,z,Wed Mar 19 2025 16:22:50 GMT-0500 (Central Daylight Time),86960.59999999986,2000,O,None,1515,2,1,4291.59999999986,82669.0,7065,NTS,C,2
7,1,prac,1,A,circle.png,1,m,Wed Mar 19 2025 16:22:50 GMT-0500 (Central Daylight Time),90576.09999999986,1700,O,m,1124,6,1,3610.0999999998603,86966.0,7065,NTS,C,3
8,2,prac,1,A,circle.png,1,m,Wed Mar 19 2025 16:22:50 GMT-0500 (Central Daylight Time),93991.80000000005,1600,O,m,1017,7,1,3409.600000000093,90582.19999999995,7065,NTS,C,4
3,3,prac,1,A,circle.png,1,z,Wed Mar 19 2025 16:22:50 GMT-0500 (Central Daylight Time),96774.3999999999,1200,O,z,793,3,1,2777.0,93997.3999999999,7065,NTS,C,5
9,4,prac,1,A,circle.png,1,m,Wed Mar 19 2025 16:22:50 GMT-0500 (Central Daylight Time),100023.5,1500,O,m,951,8,1,3243.600000000093,96779.8999999999,7065,NTS,C,6
3,5,prac,1,A,circle.png,1,z,Wed Mar 19 2025 16:22:50 GMT-0500 (Central Daylight Time),102839.09999999986,1200,O,z,826,3,1,2810.5,100028.59999999986,7065,NTS,C,7
7,6,prac,1,A,circle.png,1,m,Wed Mar 19 2025 16:22:50 GMT-0500 (Central Daylight Time),106254.59999999986,1700,O,m,917,6,1,3410.1999999999534,102844.3999999999,7065,NTS,C,8
4,7,prac,1,A,circle.png,1,z,Wed Mar 19 2025 16:22:50 GMT-0500 (Central Daylight Time),109270.3999999999,1400,O,z,818,4,1,3011.0,106259.3999999999,7065,NTS,C,9
6,8,prac,1,A,circle.png,1,m,Wed Mar 19 2025 16:22:50 GMT-0500 (Central Daylight Time),112935.59999999986,1900,O,m,983,5,1,3659.5,109276.09999999986,7065,NTS,C,10
9,9,prac,1,A,circle.png,1,m,Wed Mar 19 2025 16:22:50 GMT-0500 (Central Daylight Time),116068.19999999995,1500,O,m,837,8,1,3127.5,112940.69999999995,7065,NTS,C,11
1,10,prac,1,A,circle.png,1,z,Wed Mar 19 2025 16:22:50 GMT-0500 (Central Daylight Time),118700.80000000005,1000,O,z,836,1,1,2627.7000000001863,116073.09999999986,7065,NTS,C,12
6,1,prac,1,B,triangle.png,1,m,Wed Mar 19 2025 16:22:50 GMT-0500 (Central Daylight Time),154039.80000000005,1000,O,m,1184,5,1,2978.2000000001863,151061.59999999986,7065,NTS,C,1
3,2,prac,1,B,triangle.png,1,z,Wed Mar 19 2025 16:22:50 GMT-0500 (Central Daylight Time),157372.0,1600,O,z,946,3,1,3326.9000000001397,154045.09999999986,7065,NTS,C,2
4,3,prac,1,B,triangle.png,1,m,Wed Mar 19 2025 16:22:50 GMT-0500 (Central Daylight Time),160671.09999999986,1500,O,m,1001,4,1,3294.1999999999534,157376.8999999999,7065,NTS,C,3
7,4,prac,1,B,triangle.png,1,z,Wed Mar 19 2025 16:22:50 GMT-0500 (Central Daylight Time),164353.0,2000,O,z,913,6,1,3677.100000000093,160675.8999999999,7065,NTS,C,4
7,5,prac,1,B,triangle.png,1,z,Wed Mar 19 2025 16:22:50 GMT-0500 (Central Daylight Time),168085.30000000005,2000,O,z,944,6,1,3726.7000000001863,164358.59999999986,7065,NTS,C,5
2,6,prac,1,B,triangle.png,1,m,Wed Mar 19 2025 16:22:50 GMT-0500 (Central Daylight Time),171767.5,1700,O,m,1183,2,1,3677.3000000000466,168090.19999999995,7065,NTS,C,6
8,7,prac,1,B,triangle.png,1,m,Wed Mar 19 2025 16:22:50 GMT-0500 (Central Daylight Time),174749.80000000005,1200,O,m,986,7,1,2977.0,171772.80000000005,7065,NTS,C,7
2,8,prac,1,B,triangle.png,1,m,Wed Mar 19 2025 16:22:50 GMT-0500 (Central Daylight Time),178315.3999999999,1700,O,m,1071,2,1,3560.399999999907,174755.0,7065,NTS,C,8
1,9,prac,1,B,triangle.png,1,z,Wed Mar 19 2025 16:22:50 GMT-0500 (Central Daylight Time),181847.59999999986,1900,O,z,834,1,1,3527.399999999907,178320.19999999995,7065,NTS,C,9
8,10,prac,1,B,triangle.png,1,m,Wed Mar 19 2025 16:22:50 GMT-0500 (Central Daylight Time),184896.59999999986,1200,O,m,1066,7,1,3042.899999999907,181853.69999999995,7065,NTS,C,10
9,11,prac,1,B,triangle.png,1,z,Wed Mar 19 2025 16:22:50 GMT-0500 (Central Daylight Time),188029.09999999986,1400,O,z,957,8,1,3127.2999999998137,184901.80000000005,7065,NTS,C,11
3,12,prac,1,B,triangle.png,1,z,Wed Mar 19 2025 16:22:50 GMT-0500 (Central Daylight Time),191261.30000000005,1600,O,z,836,3,1,3227.600000000093,188033.69999999995,7065,NTS,C,12
7,1,test,1,A,circle.png,1,m,Wed Mar 19 2025 16:22:50 GMT-0500 (Central Daylight Time),210122.3999999999,1700,O,m,1116,6,1,2845.3000000000466,207277.09999999986,7065,NTS,C,1
8,2,test,1,A,circle.png,1,m,Wed Mar 19 2025 16:22:50 GMT-0500 (Central Daylight Time),212621.3999999999,1600,O,m,871,7,1,2495.0,210126.3999999999,7065,NTS,C,2
4,3,test,1,A,circle.png,1,z,Wed Mar 19 2025 16:22:50 GMT-0500 (Central Daylight Time),214837.19999999995,1400,O,z,788,4,1,2212.100000000093,212625.09999999986,7065,NTS,C,3
9,4,test,1,A,circle.png,1,m,Wed Mar 19 2025 16:22:50 GMT-0500 (Central Daylight Time),217236.3999999999,1500,O,m,879,8,1,2395.5999999998603,214840.80000000005,7065,NTS,C,4
1,5,test,1,A,circle.png,1,z,Wed Mar 19 2025 16:22:50 GMT-0500 (Central Daylight Time),219102.3999999999,1000,O,z,836,1,1,1862.3999999999069,217240.0,7065,NTS,C,5
6,6,test,1,A,circle.png,1,m,Wed Mar 19 2025 16:22:50 GMT-0500 (Central Daylight Time),221901.5,1900,O,m,878,5,1,2795.4000000001397,219106.09999999986,7065,NTS,C,6
1,7,test,1,A,circle.png,1,z,Wed Mar 19 2025 16:22:50 GMT-0500 (Central Daylight Time),223784.30000000005,1000,O,z,859,1,1,1878.9000000001397,221905.3999999999,7065,NTS,C,7
7,8,test,1,A,circle.png,1,m,Wed Mar 19 2025 16:22:50 GMT-0500 (Central Daylight Time),226350.09999999986,1700,O,m,845,6,1,2562.1999999999534,223787.8999999999,7065,NTS,C,8
2,9,test,1,A,circle.png,1,z,Wed Mar 19 2025 16:22:50 GMT-0500 (Central Daylight Time),229182.80000000005,2000,O,z,803,2,1,2829.2000000001863,226353.59999999986,7065,NTS,C,9
2,10,test,1,A,circle.png,1,z,Wed Mar 19 2025 16:22:50 GMT-0500 (Central Daylight Time),232048.59999999986,2000,O,z,835,2,1,2862.0999999998603,229186.5,7065,NTS,C,10
4,11,test,1,A,circle.png,1,z,Wed Mar 19 2025 16:22:50 GMT-0500 (Central Daylight Time),234464.09999999986,1400,O,z,986,4,1,2411.6999999999534,232052.3999999999,7065,NTS,C,11
1,12,test,1,A,circle.png,1,z,Wed Mar 19 2025 16:22:50 GMT-0500 (Central Daylight Time),236313.80000000005,1000,O,z,817,1,1,1846.2000000001863,234467.59999999986,7065,NTS,C,12
1,13,test,1,A,circle.png,1,z,Wed Mar 19 2025 16:22:50 GMT-0500 (Central Daylight Time),238179.8999999999,1000,O,z,839,1,1,1862.3999999999069,236317.5,7065,NTS,C,13
9,14,test,1,A,circle.png,1,m,Wed Mar 19 2025 16:22:50 GMT-0500 (Central Daylight Time),240596.0,1500,O,m,897,8,1,2412.100000000093,238183.8999999999,7065,NTS,C,14
8,15,test,1,A,circle.png,1,m,Wed Mar 19 2025 16:22:50 GMT-0500 (Central Daylight Time),243361.59999999986,1600,O,m,1133,7,1,2761.7999999998137,240599.80000000005,7065,NTS,C,15
3,16,test,1,A,circle.png,1,z,Wed Mar 19 2025 16:22:50 GMT-0500 (Central Daylight Time),245394.09999999986,1200,O,z,807,3,1,2028.7999999998137,243365.30000000005,7065,NTS,C,16
7,17,test,1,A,circle.png,1,m,Wed Mar 19 2025 16:22:50 GMT-0500 (Central Daylight Time),248060.19999999995,1700,O,m,939,6,1,2662.5,245397.69999999995,7065,NTS,C,17
6,18,test,1,A,circle.png,1,m,Wed Mar 19 2025 16:22:50 GMT-0500 (Central Daylight Time),250926.09999999986,1900,O,m,945,5,1,2862.2999999998137,248063.80000000005,7065,NTS,C,18
6,19,test,1,A,circle.png,1,m,Wed Mar 19 2025 16:22:50 GMT-0500 (Central Daylight Time),253724.8999999999,1900,O,m,879,5,1,2795.399999999907,250929.5,7065,NTS,C,19
9,20,test,1,A,circle.png,1,m,Wed Mar 19 2025 16:22:50 GMT-0500 (Central Daylight Time),256124.30000000005,1500,O,m,880,8,1,2395.8000000000466,253728.5,7065,NTS,C,20
6,21,test,1,A,circle.png,1,m,Wed Mar 19 2025 16:22:50 GMT-0500 (Central Daylight Time),258940.09999999986,1900,O,m,889,5,1,2812.0,256128.09999999986,7065,NTS,C,21
9,22,test,1,A,circle.png,1,m,Wed Mar 19 2025 16:22:50 GMT-0500 (Central Daylight Time),261373.8999999999,1500,O,m,905,8,1,2430.3000000000466,258943.59999999986,7065,NTS,C,22
3,23,test,1,A,circle.png,1,z,Wed Mar 19 2025 16:22:50 GMT-0500 (Central Daylight Time),263372.09999999986,1200,O,z,780,3,1,1994.6999999999534,261377.3999999999,7065,NTS,C,23
4,24,test,1,A,circle.png,1,z,Wed Mar 19 2025 16:22:50 GMT-0500 (Central Daylight Time),265821.30000000005,1400,O,z,1021,4,1,2445.7000000001863,263375.59999999986,7065,NTS,C,24
3,1,test,1,B,triangle.png,1,z,Wed Mar 19 2025 16:22:50 GMT-0500 (Central Daylight Time),284548.69999999995,1600,O,z,1005,3,1,2629.5,281919.19999999995,7065,NTS,C,1
3,2,test,1,B,triangle.png,1,z,Wed Mar 19 2025 16:22:50 GMT-0500 (Central Daylight Time),286764.69999999995,1600,O,z,597,3,1,2212.0,284552.69999999995,7065,NTS,C,2
4,3,test,1,B,triangle.png,1,m,Wed Mar 19 2025 16:22:50 GMT-0500 (Central Daylight Time),288847.30000000005,1000,O,m,1052,12,1,2079.3000000000466,286768.0,7065,NTS,C,3
2,3,test,1,B,triangle.png,0,m,Wed Mar 19 2025 16:22:50 GMT-0500 (Central Daylight Time),291863.09999999986,1700,O,z,1286,2,1,3011.7999999998137,288851.30000000005,7065,NTS,C,4
8,4,test,1,B,triangle.png,1,m,Wed Mar 19 2025 16:22:50 GMT-0500 (Central Daylight Time),294262.30000000005,1200,O,m,1178,7,1,2395.600000000093,291866.69999999995,7065,NTS,C,5
8,5,test,1,B,triangle.png,1,m,Wed Mar 19 2025 16:22:50 GMT-0500 (Central Daylight Time),296561.59999999986,1700,O,m,566,15,1,2295.7999999998137,294265.80000000005,7065,NTS,C,6
8,6,test,1,B,triangle.png,1,m,Wed Mar 19 2025 16:22:50 GMT-0500 (Central Daylight Time),298827.3999999999,1700,O,m,548,15,1,2262.0999999998603,296565.30000000005,7065,NTS,C,7
6,7,test,1,B,triangle.png,1,m,Wed Mar 19 2025 16:22:50 GMT-0500 (Central Daylight Time),300993.80000000005,1500,O,m,642,13,1,2162.8000000000466,298831.0,7065,NTS,C,8
9,8,test,1,B,triangle.png,1,z,Wed Mar 19 2025 16:22:50 GMT-0500 (Central Daylight Time),303909.19999999995,1900,O,z,996,16,1,2911.8000000000466,300997.3999999999,7065,NTS,C,9
4,9,test,1,B,triangle.png,1,m,Wed Mar 19 2025 16:22:50 GMT-0500 (Central Daylight Time),306508.30000000005,1500,O,m,1080,4,1,2595.3000000000466,303913.0,7065,NTS,C,10
2,10,test,1,B,triangle.png,1,m,Wed Mar 19 2025 16:22:50 GMT-0500 (Central Daylight Time),308974.19999999995,1200,O,m,1237,10,1,2462.1999999999534,306512.0,7065,NTS,C,11
3,11,test,1,B,triangle.png,1,z,Wed Mar 19 2025 16:22:50 GMT-0500 (Central Daylight Time),312023.19999999995,2000,O,z,1019,11,1,3045.100000000093,308978.09999999986,7065,NTS,C,12
8,12,test,1,B,triangle.png,1,m,Wed Mar 19 2025 16:22:50 GMT-0500 (Central Daylight Time),314222.69999999995,1200,O,m,970,7,1,2196.100000000093,312026.59999999986,7065,NTS,C,13
9,13,test,1,B,triangle.png,1,z,Wed Mar 19 2025 16:22:50 GMT-0500 (Central Daylight Time),316771.69999999995,1400,O,z,1130,8,1,2545.600000000093,314226.09999999986,7065,NTS,C,14
2,13,test,1,B,triangle.png,0,m,Wed Mar 19 2025 16:22:50 GMT-0500 (Central Daylight Time),320005.30000000005,1700,O,None,1516,2,1,3229.0,316776.30000000005,7065,NTS,C,15
7,14,test,1,B,triangle.png,1,z,Wed Mar 19 2025 16:22:50 GMT-0500 (Central Daylight Time),322570.0,1600,O,z,933,14,1,2560.5,320009.5,7065,NTS,C,16
2,15,test,1,B,triangle.png,1,m,Wed Mar 19 2025 16:22:50 GMT-0500 (Central Daylight Time),325002.3999999999,1200,O,m,1215,10,1,2428.8000000000466,322573.59999999986,7065,NTS,C,17
1,16,test,1,B,triangle.png,1,z,Wed Mar 19 2025 16:22:50 GMT-0500 (Central Daylight Time),327201.80000000005,1400,O,z,766,9,1,2196.0,325005.80000000005,7065,NTS,C,18
3,17,test,1,B,triangle.png,1,z,Wed Mar 19 2025 16:22:50 GMT-0500 (Central Daylight Time),330034.30000000005,2000,O,z,807,11,1,2829.0,327205.30000000005,7065,NTS,C,19
7,18,test,1,B,triangle.png,1,z,Wed Mar 19 2025 16:22:50 GMT-0500 (Central Daylight Time),332983.5,2000,O,z,919,6,1,2945.4000000001397,330038.09999999986,7065,NTS,C,20
1,19,test,1,B,triangle.png,1,z,Wed Mar 19 2025 16:22:50 GMT-0500 (Central Daylight Time),335700.3999999999,1900,O,z,798,1,1,2713.3000000000466,332987.09999999986,7065,NTS,C,21
9,20,test,1,B,triangle.png,1,z,Wed Mar 19 2025 16:22:50 GMT-0500 (Central Daylight Time),338048.80000000005,1400,O,z,918,8,1,2344.7000000001863,335704.09999999986,7065,NTS,C,22
4,21,test,1,B,triangle.png,1,m,Wed Mar 19 2025 16:22:50 GMT-0500 (Central Daylight Time),340314.59999999986,1000,O,m,1232,12,1,2262.399999999907,338052.19999999995,7065,NTS,C,23
6,22,test,1,B,triangle.png,1,m,Wed Mar 19 2025 16:22:50 GMT-0500 (Central Daylight Time),342730.19999999995,1000,O,m,1383,5,1,2411.899999999907,340318.30000000005,7065,NTS,C,24
8,0,prac,1,C,triangle.png,0,m,Wed Mar 19 2025 16:22:50 GMT-0500 (Central Daylight Time),389615.8999999999,1400,O,None,1515,7,1,3694.399999999907,385921.5,7065,NTS,C,1
6,0,prac,1,C,circle.png,0,m,Wed Mar 19 2025 16:22:50 GMT-0500 (Central Daylight Time),393914.3999999999,2000,O,None,1516,5,1,4293.300000000047,389621.09999999986,7065,NTS,C,2
4,0,prac,1,C,circle.png,0,z,Wed Mar 19 2025 16:22:50 GMT-0500 (Central Daylight Time),397213.30000000005,1000,O,None,1516,4,1,3294.3000000000466,393919.0,7065,NTS,C,3
4,1,prac,1,C,circle.png,1,z,Wed Mar 19 2025 16:22:50 GMT-0500 (Central Daylight Time),400345.80000000005,1000,O,z,1340,4,1,3127.9000000001397,397217.8999999999,7065,NTS,C,4
2,1,prac,1,C,triangle.png,0,m,Wed Mar 19 2025 16:22:50 GMT-0500 (Central Daylight Time),404244.69999999995,1600,O,None,1516,2,1,3893.899999999907,400350.80000000005,7065,NTS,C,5
7,1,prac,1,C,triangle.png,0,z,Wed Mar 19 2025 16:22:50 GMT-0500 (Central Daylight Time),407743.5,1200,O,None,1516,6,1,3493.6999999999534,404249.80000000005,7065,NTS,C,6
1,2,prac,1,C,circle.png,1,z,Wed Mar 19 2025 16:22:50 GMT-0500 (Central Daylight Time),411609.0,1700,O,z,1374,1,1,3860.6999999999534,407748.30000000005,7065,NTS,C,7
9,3,prac,1,C,circle.png,1,m,Wed Mar 19 2025 16:22:50 GMT-0500 (Central Daylight Time),415690.8999999999,1900,O,m,1389,8,1,4076.899999999907,411614.0,7065,NTS,C,8
2,3,prac,1,C,triangle.png,0,m,Wed Mar 19 2025 16:22:50 GMT-0500 (Central Daylight Time),419589.69999999995,1600,O,None,1515,2,1,3894.0,415695.69999999995,7065,NTS,C,9
3,4,prac,1,C,triangle.png,1,z,Wed Mar 19 2025 16:22:50 GMT-0500 (Central Daylight Time),423355.19999999995,1500,O,z,1346,3,1,3760.5,419594.69999999995,7065,NTS,C,10
1,5,prac,1,C,circle.png,1,z,Wed Mar 19 2025 16:22:50 GMT-0500 (Central Daylight Time),427154.09999999986,1700,O,z,1306,1,1,3793.1999999999534,423360.8999999999,7065,NTS,C,11
8,6,prac,1,C,triangle.png,1,m,Wed Mar 19 2025 16:22:50 GMT-0500 (Central Daylight Time),430636.19999999995,1400,O,m,1295,7,1,3477.1999999999534,427159.0,7065,NTS,C,12
9,1,prac,2,C,circle.png,1,m,Wed Mar 19 2025 16:22:50 GMT-0500 (Central Daylight Time),443749.09999999986,1900,O,m,1311,8,1,3994.2999999998137,439754.80000000005,7065,NTS,C,1
8,2,prac,2,C,triangle.png,1,m,Wed Mar 19 2025 16:22:50 GMT-0500 (Central Daylight Time),447214.69999999995,1400,O,m,1268,7,1,3460.399999999907,443754.30000000005,7065,NTS,C,2
2,2,prac,2,C,triangle.png,0,m,Wed Mar 19 2025 16:22:50 GMT-0500 (Central Daylight Time),451113.19999999995,1600,O,None,1515,2,1,3893.8000000000466,447219.3999999999,7065,NTS,C,3
2,2,prac,2,C,triangle.png,0,m,Wed Mar 19 2025 16:22:50 GMT-0500 (Central Daylight Time),455012.0,1600,O,None,1515,2,1,3894.0,451118.0,7065,NTS,C,4
4,3,prac,2,C,circle.png,1,z,Wed Mar 19 2025 16:22:50 GMT-0500 (Central Daylight Time),457877.8999999999,1000,O,z,1068,4,1,2860.899999999907,455017.0,7065,NTS,C,5
7,3,prac,2,C,triangle.png,0,z,Wed Mar 19 2025 16:22:50 GMT-0500 (Central Daylight Time),461359.8999999999,1200,O,None,1510,6,1,3477.5,457882.3999999999,7065,NTS,C,6
7,4,prac,2,C,triangle.png,1,z,Wed Mar 19 2025 16:22:50 GMT-0500 (Central Daylight Time),464608.8999999999,1200,O,z,1265,6,1,3244.1999999999534,461364.69999999995,7065,NTS,C,7
4,5,prac,2,C,circle.png,1,z,Wed Mar 19 2025 16:22:50 GMT-0500 (Central Daylight Time),467441.59999999986,1000,O,z,1040,4,1,2827.899999999907,464613.69999999995,7065,NTS,C,8
6,6,prac,2,C,circle.png,1,m,Wed Mar 19 2025 16:22:50 GMT-0500 (Central Daylight Time),471390.19999999995,2000,O,m,1076,5,1,3943.6999999999534,467446.5,7065,NTS,C,9
3,7,prac,2,C,triangle.png,1,z,Wed Mar 19 2025 16:22:50 GMT-0500 (Central Daylight Time),474839.30000000005,1500,O,z,1159,3,1,3444.3000000002794,471394.99999999977,7065,NTS,C,10
1,8,prac,2,C,circle.png,1,z,Wed Mar 19 2025 16:22:50 GMT-0500 (Central Daylight Time),478321.30000000005,1700,O,z,999,1,1,3476.2000000001863,474845.09999999986,7065,NTS,C,11
6,9,prac,2,C,circle.png,1,m,Wed Mar 19 2025 16:22:50 GMT-0500 (Central Daylight Time),482086.80000000005,2000,O,m,968,5,1,3760.3000000002794,478326.49999999977,7065,NTS,C,12
8,1,test,1,C,triangle.png,1,m,Wed Mar 19 2025 16:22:50 GMT-0500 (Central Daylight Time),508944.69999999995,1600,O,m,1059,7,1,2678.899999999907,506265.80000000005,7065,NTS,C,1
9,1,test,1,C,circle.png,0,m,Wed Mar 19 2025 16:22:50 GMT-0500 (Central Daylight Time),511977.19999999995,1500,O,None,1516,24,1,3028.399999999907,508948.80000000005,7065,NTS,C,2
4,1,test,1,C,triangle.png,0,m,Wed Mar 19 2025 16:22:50 GMT-0500 (Central Daylight Time),515009.99999999977,1500,O,None,1516,12,1,3028.5999999996275,511981.40000000014,7065,NTS,C,3
6,2,test,1,C,circle.png,1,m,Wed Mar 19 2025 16:22:50 GMT-0500 (Central Daylight Time),518241.80000000005,1900,O,m,1300,5,1,3228.399999999907,515013.40000000014,7065,NTS,C,4
4,2,test,1,C,triangle.png,0,m,Wed Mar 19 2025 16:22:50 GMT-0500 (Central Daylight Time),521057.49999999977,1500,O,z,1292,20,1,2811.7999999998137,518245.69999999995,7065,NTS,C,5
1,2,test,1,C,triangle.png,0,z,Wed Mar 19 2025 16:22:50 GMT-0500 (Central Daylight Time),524489.9999999998,1900,O,None,1516,9,1,3428.0999999996275,521061.90000000014,7065,NTS,C,6
9,3,test,1,C,circle.png,1,m,Wed Mar 19 2025 16:22:50 GMT-0500 (Central Daylight Time),527372.2,1500,O,m,1356,8,1,2878.600000000093,524493.5999999999,7065,NTS,C,7
7,3,test,1,C,triangle.png,0,z,Wed Mar 19 2025 16:22:50 GMT-0500 (Central Daylight Time),530338.3,1700,O,m,1249,22,1,2961.7000000001863,527376.5999999999,7065,NTS,C,8
2,3,test,1,C,triangle.png,0,m,Wed Mar 19 2025 16:22:50 GMT-0500 (Central Daylight Time),533870.5999999999,2000,O,None,1516,2,1,3528.0,530342.5999999999,7065,NTS,C,9
3,3,test,1,C,triangle.png,0,z,Wed Mar 19 2025 16:22:50 GMT-0500 (Central Daylight Time),536602.8,1200,O,None,1516,3,1,2728.3000000002794,533874.4999999998,7065,NTS,C,10
3,3,test,1,C,circle.png,0,z,Wed Mar 19 2025 16:22:50 GMT-0500 (Central Daylight Time),539734.9999999998,1600,O,None,1516,11,1,3127.399999999907,536607.5999999999,7065,NTS,C,11
9,3,test,1,C,triangle.png,0,z,Wed Mar 19 2025 16:22:50 GMT-0500 (Central Daylight Time),542667.5999999999,1400,O,None,1515,16,1,2928.6999999997206,539738.9000000001,7065,NTS,C,12
1,4,test,1,C,circle.png,1,z,Wed Mar 19 2025 16:22:50 GMT-0500 (Central Daylight Time),544833.4999999998,1000,O,z,1134,1,1,2160.1999999997206,542673.3,7065,NTS,C,13
8,5,test,1,C,triangle.png,1,m,Wed Mar 19 2025 16:22:50 GMT-0500 (Central Daylight Time),547565.9000000001,1600,O,m,1112,23,1,2728.100000000093,544837.8,7065,NTS,C,14
1,6,test,1,C,triangle.png,1,z,Wed Mar 19 2025 16:22:50 GMT-0500 (Central Daylight Time),550615.0999999999,1900,O,z,1119,17,1,3045.0,547570.0999999999,7065,NTS,C,15
6,6,test,1,C,circle.png,0,m,Wed Mar 19 2025 16:22:50 GMT-0500 (Central Daylight Time),554047.4000000001,1900,O,None,1516,21,1,3428.2000000001863,550619.2,7065,NTS,C,16
7,6,test,1,C,triangle.png,0,z,Wed Mar 19 2025 16:22:50 GMT-0500 (Central Daylight Time),557279.7,1700,O,None,1515,6,1,3228.7000000001863,554050.9999999998,7065,NTS,C,17
2,7,test,1,C,circle.png,1,z,Wed Mar 19 2025 16:22:50 GMT-0500 (Central Daylight Time),559862.7,1700,O,z,854,10,1,2578.899999999907,557283.8,7065,NTS,C,18
6,7,test,1,C,triangle.png,0,m,Wed Mar 19 2025 16:22:50 GMT-0500 (Central Daylight Time),562394.8,1000,O,None,1516,13,1,2528.399999999907,559866.4000000001,7065,NTS,C,19
7,8,test,1,C,circle.png,1,m,Wed Mar 19 2025 16:22:50 GMT-0500 (Central Daylight Time),565576.9000000001,2000,O,m,1151,14,1,3178.4000000003725,562398.4999999998,7065,NTS,C,20
2,9,test,1,C,circle.png,1,z,Wed Mar 19 2025 16:22:50 GMT-0500 (Central Daylight Time),568642.5999999999,1700,O,z,1348,18,1,3061.399999999907,565581.2,7065,NTS,C,21
4,10,test,1,C,circle.png,1,z,Wed Mar 19 2025 16:22:50 GMT-0500 (Central Daylight Time),571008.4000000001,1400,O,z,942,4,1,2362.100000000093,568646.3,7065,NTS,C,22
8,11,test,1,C,circle.png,1,m,Wed Mar 19 2025 16:22:50 GMT-0500 (Central Daylight Time),573257.8,1200,O,m,1025,15,1,2245.8000000002794,571011.9999999998,7065,NTS,C,23
3,12,test,1,C,circle.png,1,z,Wed Mar 19 2025 16:22:50 GMT-0500 (Central Daylight Time),575773.5999999999,1600,O,z,895,19,1,2512.100000000093,573261.4999999998,7065,NTS,C,24
7,0,test,2,C,circle.png,0,m,Wed Mar 19 2025 16:22:50 GMT-0500 (Central Daylight Time),594534.4999999998,2000,O,None,1515,22,1,3528.899999999907,591005.5999999999,7065,NTS,C,1
4,0,test,2,C,triangle.png,0,m,Wed Mar 19 2025 16:22:50 GMT-0500 (Central Daylight Time),596933.7,1500,O,z,879,12,1,2395.0,594538.7,7065,NTS,C,2
6,0,test,2,C,triangle.png,0,m,Wed Mar 19 2025 16:22:50 GMT-0500 (Central Daylight Time),599466.2,1000,O,None,1516,21,1,2528.7999999998137,596937.4000000001,7065,NTS,C,3
2,1,test,2,C,circle.png,1,z,Wed Mar 19 2025 16:22:50 GMT-0500 (Central Daylight Time),602048.8,1700,O,z,851,10,1,2578.600000000093,599470.2,7065,NTS,C,4
1,2,test,2,C,circle.png,1,z,Wed Mar 19 2025 16:22:50 GMT-0500 (Central Daylight Time),603931.5999999999,1000,O,z,865,1,1,1879.2999999998137,602052.3,7065,NTS,C,5
3,3,test,2,C,circle.png,1,z,Wed Mar 19 2025 16:22:50 GMT-0500 (Central Daylight Time),606530.7,1600,O,z,982,19,1,2595.5,603935.2,7065,NTS,C,6
3,4,test,2,C,triangle.png,1,z,Wed Mar 19 2025 16:22:50 GMT-0500 (Central Daylight Time),608663.4000000001,1200,O,z,903,3,1,2128.8000000002794,606534.5999999999,7065,NTS,C,7
8,5,test,2,C,circle.png,1,m,Wed Mar 19 2025 16:22:50 GMT-0500 (Central Daylight Time),610779.3,1200,O,m,898,23,1,2112.399999999907,608666.9000000001,7065,NTS,C,8
8,6,test,2,C,triangle.png,1,m,Wed Mar 19 2025 16:22:50 GMT-0500 (Central Daylight Time),613628.5999999999,1600,O,m,1230,7,1,2845.6999999997206,610782.9000000001,7065,NTS,C,9
4,6,test,2,C,triangle.png,0,m,Wed Mar 19 2025 16:22:50 GMT-0500 (Central Daylight Time),616078.3,1500,O,z,921,20,1,2446.100000000093,613632.2,7065,NTS,C,10
8,7,test,2,C,circle.png,1,m,Wed Mar 19 2025 16:22:50 GMT-0500 (Central Daylight Time),618443.7,1200,O,m,1147,15,1,2361.5,616082.2,7065,NTS,C,11
7,7,test,2,C,circle.png,0,m,Wed Mar 19 2025 16:22:50 GMT-0500 (Central Daylight Time),621976.4000000001,2000,O,None,1516,14,1,3528.7000000001863,618447.7,7065,NTS,C,12
3,8,test,2,C,circle.png,1,z,Wed Mar 19 2025 16:22:50 GMT-0500 (Central Daylight Time),624625.5999999999,1600,O,z,1025,11,1,2645.2999999998137,621980.3,7065,NTS,C,13
4,9,test,2,C,circle.png,1,z,Wed Mar 19 2025 16:22:50 GMT-0500 (Central Daylight Time),627007.9999999998,1400,O,z,960,4,1,2378.2999999998137,624629.7,7065,NTS,C,14
9,10,test,2,C,circle.png,1,m,Wed Mar 19 2025 16:22:50 GMT-0500 (Central Daylight Time),629856.9999999998,1500,O,m,1318,8,1,2845.1999999997206,627011.8,7065,NTS,C,15
9,11,test,2,C,triangle.png,1,z,Wed Mar 19 2025 16:22:50 GMT-0500 (Central Daylight Time),632606.0999999999,1400,O,z,1329,24,1,2745.0,629861.0999999999,7065,NTS,C,16
2,11,test,2,C,triangle.png,0,m,Wed Mar 19 2025 16:22:50 GMT-0500 (Central Daylight Time),635688.4999999998,2000,O,z,1024,2,1,3078.0,632610.4999999998,7065,NTS,C,17
6,12,test,2,C,circle.png,1,m,Wed Mar 19 2025 16:22:50 GMT-0500 (Central Daylight Time),638554.4000000001,1900,O,m,941,5,1,2861.9000000003725,635692.4999999998,7065,NTS,C,18
1,13,test,2,C,triangle.png,1,z,Wed Mar 19 2025 16:22:50 GMT-0500 (Central Daylight Time),641270.0999999999,1900,O,z,795,17,1,2711.1999999997206,638558.9000000001,7065,NTS,C,19
7,14,test,2,C,triangle.png,1,z,Wed Mar 19 2025 16:22:50 GMT-0500 (Central Daylight Time),644102.8,1700,O,z,1104,6,1,2828.3000000002794,641274.4999999998,7065,NTS,C,20
6,14,test,2,C,triangle.png,0,m,Wed Mar 19 2025 16:22:50 GMT-0500 (Central Daylight Time),646218.4999999998,1000,O,z,1083,13,1,2111.6999999997206,644106.8,7065,NTS,C,21
2,15,test,2,C,circle.png,1,z,Wed Mar 19 2025 16:22:50 GMT-0500 (Central Daylight Time),648917.8,1700,O,z,979,18,1,2695.399999999907,646222.4000000001,7065,NTS,C,22
1,16,test,2,C,triangle.png,1,z,Wed Mar 19 2025 16:22:50 GMT-0500 (Central Daylight Time),651633.9000000001,1900,O,z,792,9,1,2712.2000000001863,648921.7,7065,NTS,C,23
9,16,test,2,C,triangle.png,0,z,Wed Mar 19 2025 16:22:50 GMT-0500 (Central Daylight Time),654449.3,1400,O,m,1392,16,1,2811.5,651637.8,7065,NTS,C,24
8,0,test,3,C,triangle.png,0,m,Wed Mar 19 2025 16:22:50 GMT-0500 (Central Daylight Time),659181.0999999999,1600,O,None,1516,23,1,3128.899999999907,656052.2,7065,NTS,C,1
2,1,test,3,C,circle.png,1,z,Wed Mar 19 2025 16:22:50 GMT-0500 (Central Daylight Time),661913.9000000001,1700,O,z,1008,10,1,2729.3000000002794,659184.5999999999,7065,NTS,C,2
4,2,test,3,C,circle.png,1,z,Wed Mar 19 2025 16:22:50 GMT-0500 (Central Daylight Time),664212.9000000001,1400,O,z,880,4,1,2295.0,661917.9000000001,7065,NTS,C,3
7,3,test,3,C,triangle.png,1,z,Wed Mar 19 2025 16:22:50 GMT-0500 (Central Daylight Time),667262.2,1700,O,z,1320,22,1,3045.5,664216.7,7065,NTS,C,4
8,4,test,3,C,triangle.png,1,m,Wed Mar 19 2025 16:22:50 GMT-0500 (Central Daylight Time),669977.8,1600,O,m,1092,7,1,2712.0,667265.8,7065,NTS,C,5
4,5,test,3,C,circle.png,1,z,Wed Mar 19 2025 16:22:50 GMT-0500 (Central Daylight Time),672426.9000000001,1400,O,z,1031,20,1,2445.2000000001863,669981.7,7065,NTS,C,6
1,6,test,3,C,triangle.png,1,z,Wed Mar 19 2025 16:22:50 GMT-0500 (Central Daylight Time),675625.9999999998,1900,O,z,1274,9,1,3195.1999999997206,672430.8,7065,NTS,C,7
9,7,test,3,C,triangle.png,1,z,Wed Mar 19 2025 16:22:50 GMT-0500 (Central Daylight Time),678008.7,1400,O,z,951,16,1,2378.7999999998137,675629.9000000001,7065,NTS,C,8
2,7,test,3,C,triangle.png,0,m,Wed Mar 19 2025 16:22:50 GMT-0500 (Central Daylight Time),681057.9000000001,2000,O,z,1017,18,1,3045.5,678012.4000000001,7065,NTS,C,9
2,8,test,3,C,triangle.png,1,m,Wed Mar 19 2025 16:22:50 GMT-0500 (Central Daylight Time),684156.7,2000,O,m,1072,2,1,3095.2999999998137,681061.4000000001,7065,NTS,C,10
9,9,test,3,C,circle.png,1,m,Wed Mar 19 2025 16:22:50 GMT-0500 (Central Daylight Time),687039.0999999999,1500,O,m,1353,8,1,2877.5,684161.5999999999,7065,NTS,C,11
6,10,test,3,C,circle.png,1,m,Wed Mar 19 2025 16:22:50 GMT-0500 (Central Daylight Time),689988.2,1900,O,m,1022,21,1,2945.2000000001863,687042.9999999998,7065,NTS,C,12
8,11,test,3,C,circle.png,1,m,Wed Mar 19 2025 16:22:50 GMT-0500 (Central Daylight Time),692154.3,1200,O,m,933,15,1,2162.600000000093,689991.7,7065,NTS,C,13
3,12,test,3,C,triangle.png,1,z,Wed Mar 19 2025 16:22:50 GMT-0500 (Central Daylight Time),694270.2,1200,O,z,895,3,1,2112.2000000001863,692157.9999999998,7065,NTS,C,14
7,12,test,3,C,triangle.png,0,z,Wed Mar 19 2025 16:22:50 GMT-0500 (Central Daylight Time),697503.8,1700,O,None,1517,6,1,3230.0,694273.8,7065,NTS,C,15
3,12,test,3,C,circle.png,0,z,Wed Mar 19 2025 16:22:50 GMT-0500 (Central Daylight Time),700634.8,1600,O,None,1516,11,1,3126.899999999907,697507.9000000001,7065,NTS,C,16
3,12,test,3,C,triangle.png,0,z,Wed Mar 19 2025 16:22:50 GMT-0500 (Central Daylight Time),703367.4000000001,1200,O,None,1516,19,1,2729.3000000002794,700638.0999999999,7065,NTS,C,17
1,13,test,3,C,circle.png,1,z,Wed Mar 19 2025 16:22:50 GMT-0500 (Central Daylight Time),705749.9000000001,1000,O,z,1354,17,1,2378.7000000001863,703371.2,7065,NTS,C,18
6,14,test,3,C,circle.png,1,m,Wed Mar 19 2025 16:22:50 GMT-0500 (Central Daylight Time),708715.7,1900,O,m,1047,5,1,2961.7999999998137,705753.9000000001,7065,NTS,C,19
6,14,test,3,C,triangle.png,0,m,Wed Mar 19 2025 16:22:50 GMT-0500 (Central Daylight Time),711248.4000000001,1000,O,None,1515,13,1,2528.8000000002794,708719.5999999999,7065,NTS,C,20
9,15,test,3,C,circle.png,1,m,Wed Mar 19 2025 16:22:50 GMT-0500 (Central Daylight Time),714163.9000000001,1500,O,m,1389,24,1,2911.8000000002794,711252.0999999999,7065,NTS,C,21
4,16,test,3,C,triangle.png,1,m,Wed Mar 19 2025 16:22:50 GMT-0500 (Central Daylight Time),717046.3,1500,O,m,1361,12,1,2878.5,714167.8,7065,NTS,C,22
1,17,test,3,C,circle.png,1,z,Wed Mar 19 2025 16:22:50 GMT-0500 (Central Daylight Time),719212.4999999998,1000,O,z,1147,1,1,2162.1999999997206,717050.3,7065,NTS,C,23
7,18,test,3,C,circle.png,1,m,Wed Mar 19 2025 16:22:50 GMT-0500 (Central Daylight Time),722294.8,2000,O,m,1061,14,1,3078.5,719216.3,7065,NTS,C,24
4,1,test,4,C,circle.png,1,z,Wed Mar 19 2025 16:22:50 GMT-0500 (Central Daylight Time),726027.0999999999,1400,O,z,1107,20,1,2525.2999999998137,723501.8,7065,NTS,C,1
2,2,test,4,C,circle.png,1,z,Wed Mar 19 2025 16:22:50 GMT-0500 (Central Daylight Time),728753.9000000001,1700,O,z,867,10,1,2723.0,726030.9000000001,7065,NTS,C,2
8,2,test,4,C,triangle.png,0,m,Wed Mar 19 2025 16:22:50 GMT-0500 (Central Daylight Time),731891.5999999999,1600,O,None,1515,7,1,3133.2999999998137,728758.3,7065,NTS,C,3
6,3,test,4,C,circle.png,1,m,Wed Mar 19 2025 16:22:50 GMT-0500 (Central Daylight Time),735190.8,1900,O,m,1370,21,1,3295.3000000002794,731895.4999999998,7065,NTS,C,4
1,4,test,4,C,circle.png,1,z,Wed Mar 19 2025 16:22:50 GMT-0500 (Central Daylight Time),737373.3,1000,O,z,1155,17,1,2178.600000000093,735194.7,7065,NTS,C,5
9,5,test,4,C,triangle.png,1,z,Wed Mar 19 2025 16:22:50 GMT-0500 (Central Daylight Time),739822.4999999998,1400,O,z,1028,16,1,2445.2999999998137,737377.2,7065,NTS,C,6
8,6,test,4,C,triangle.png,1,m,Wed Mar 19 2025 16:22:50 GMT-0500 (Central Daylight Time),742538.5999999999,1600,O,m,1091,23,1,2711.7999999998137,739826.8,7065,NTS,C,7
3,7,test,4,C,triangle.png,1,z,Wed Mar 19 2025 16:22:50 GMT-0500 (Central Daylight Time),744687.8,1200,O,z,927,3,1,2145.600000000093,742542.2,7065,NTS,C,8
3,8,test,4,C,triangle.png,1,z,Wed Mar 19 2025 16:22:50 GMT-0500 (Central Daylight Time),747037.4999999998,1200,O,z,1130,19,1,2346.1999999997206,744691.3,7065,NTS,C,9
9,9,test,4,C,circle.png,1,m,Wed Mar 19 2025 16:22:50 GMT-0500 (Central Daylight Time),750036.2,1500,O,m,1480,24,1,2995.2999999998137,747040.9000000001,7065,NTS,C,10
9,10,test,4,C,circle.png,1,m,Wed Mar 19 2025 16:22:50 GMT-0500 (Central Daylight Time),752836.3,1500,O,m,1281,8,1,2796.3000000002794,750039.9999999998,7065,NTS,C,11
8,10,test,4,C,circle.png,0,m,Wed Mar 19 2025 16:22:50 GMT-0500 (Central Daylight Time),755567.5999999999,1200,O,None,1515,15,1,2727.7999999998137,752839.8,7065,NTS,C,12
6,11,test,4,C,circle.png,1,m,Wed Mar 19 2025 16:22:50 GMT-0500 (Central Daylight Time),758749.9999999998,1900,O,m,1262,5,1,3176.5999999996275,755573.4000000001,7065,NTS,C,13
3,12,test,4,C,circle.png,1,z,Wed Mar 19 2025 16:22:50 GMT-0500 (Central Daylight Time),761415.9000000001,1600,O,z,1043,11,1,2662.100000000093,758753.8,7065,NTS,C,14
1,13,test,4,C,circle.png,1,z,Wed Mar 19 2025 16:22:50 GMT-0500 (Central Daylight Time),763415.0999999999,1000,O,z,969,1,1,1995.1000000000931,761419.9999999998,7065,NTS,C,15
2,13,test,4,C,triangle.png,0,m,Wed Mar 19 2025 16:22:50 GMT-0500 (Central Daylight Time),766947.4000000001,2000,O,None,1516,2,1,3528.5,763418.9000000001,7065,NTS,C,16
7,13,test,4,C,circle.png,0,m,Wed Mar 19 2025 16:22:50 GMT-0500 (Central Daylight Time),770479.9000000001,2000,O,None,1516,14,1,3528.9000000003725,766950.9999999998,7065,NTS,C,17
6,13,test,4,C,triangle.png,0,m,Wed Mar 19 2025 16:22:50 GMT-0500 (Central Daylight Time),773012.0999999999,1000,O,None,1516,13,1,2528.899999999907,770483.2,7065,NTS,C,18
2,13,test,4,C,triangle.png,0,m,Wed Mar 19 2025 16:22:50 GMT-0500 (Central Daylight Time),776544.3,2000,O,None,1515,18,1,3528.600000000093,773015.7,7065,NTS,C,19
7,14,test,4,C,triangle.png,1,z,Wed Mar 19 2025 16:22:50 GMT-0500 (Central Daylight Time),779610.9000000001,1700,O,z,1333,6,1,3062.8000000002794,776548.0999999999,7065,NTS,C,20
1,15,test,4,C,triangle.png,1,z,Wed Mar 19 2025 16:22:50 GMT-0500 (Central Daylight Time),782359.4000000001,1900,O,z,827,9,1,2744.7000000001863,779614.7,7065,NTS,C,21
4,15,test,4,C,triangle.png,0,m,Wed Mar 19 2025 16:22:50 GMT-0500 (Central Daylight Time),785391.9000000001,1500,O,None,1516,12,1,3028.9000000003725,782362.9999999998,7065,NTS,C,22
7,16,test,4,C,triangle.png,1,z,Wed Mar 19 2025 16:22:50 GMT-0500 (Central Daylight Time),788090.5999999999,1700,O,z,982,22,1,2693.899999999907,785396.7,7065,NTS,C,23
4,16,test,4,C,circle.png,0,z,Wed Mar 19 2025 16:22:50 GMT-0500 (Central Daylight Time),791023.3,1400,O,None,1516,4,1,2927.7000000001863,788095.5999999999,7065,NTS,C,24
