acc_sum,block,block_c,condition,correct,correct_response,datetime,endtime,flanker,jitter,project,response,response_test_buffer_response,response_test_target_response,response_time,response_time_test_buffer_response,response_time_test_target_response,row_sel,session_number,start_end,starttime,subject_id,target,task,task_vers,time_test_buffer,time_test_buffer_response,time_test_constants,time_test_flanker,time_test_jitter,time_test_logger,time_test_target,time_test_target_response,time_test_variables,trial
1,prac,1,con,1,z,Tue Feb 18 2025 13:23:12 GMT-0500 (Eastern Standard Time),245479.0,lime,800,I,z,,,1120,,,5,1,3226.800000011921,242252.19999998808,9009,lime,NF,C,,,,,,,,,,1
2,prac,1,inc,1,m,Tue Feb 18 2025 13:23:12 GMT-0500 (Eastern Standard Time),248212.19999998808,cherry,900,I,m,,,524,,,10,1,2721.399999976158,245490.80000001192,9009,copper,NF,C,,,,,,,,,,2
3,prac,1,con,1,m,Tue Feb 18 2025 13:23:12 GMT-0500 (Eastern Standard Time),251328.60000002384,silver,1000,I,m,,,810,,,11,1,3107.2000000476837,248221.39999997616,9009,silver,NF,C,,,,,,,,,,3
4,prac,1,inc,1,z,Tue Feb 18 2025 13:23:12 GMT-0500 (Eastern Standard Time),254278.60000002384,lead,1100,I,z,,,539,,,8,1,2939.5,251339.10000002384,9009,plum,NF,C,,,,,,,,,,4
5,prac,1,inc,1,z,Tue Feb 18 2025 13:23:12 GMT-0500 (Eastern Standard Time),257378.80000001192,iron,900,I,z,,,892,,,6,1,3090.400000035763,254288.39999997616,9009,pear,NF,C,,,,,,,,,,5
6,prac,1,con,1,z,Tue Feb 18 2025 13:23:12 GMT-0500 (Eastern Standard Time),260561.89999997616,kiwi,1000,I,z,,,875,,,7,1,3172.7999999523163,257389.10000002384,9009,kiwi,NF,C,,,,,,,,,,6
7,prac,1,con,1,z,Tue Feb 18 2025 13:23:12 GMT-0500 (Eastern Standard Time),263361.8000000119,banana,800,I,z,,,693,,,1,1,2789.900000035763,260571.89999997616,9009,banana,NF,C,,,,,,,,,,7
8,prac,1,con,1,m,Tue Feb 18 2025 13:23:12 GMT-0500 (Eastern Standard Time),265961.8000000119,gold,800,I,m,,,483,,,13,1,2591.199999988079,263370.60000002384,9009,gold,NF,C,,,,,,,,,,8
9,prac,1,con,1,m,Tue Feb 18 2025 13:23:12 GMT-0500 (Eastern Standard Time),268995.39999997616,zinc,1000,I,m,,,724,,,15,1,3024.099999964237,265971.3000000119,9009,zinc,NF,C,,,,,,,,,,9
10,prac,1,inc,1,m,Tue Feb 18 2025 13:23:12 GMT-0500 (Eastern Standard Time),271878.6999999881,pear,900,I,m,,,671,,,14,1,2873.199999988079,269005.5,9009,iron,NF,C,,,,,,,,,,10
11,prac,1,con,1,z,Tue Feb 18 2025 13:23:12 GMT-0500 (Eastern Standard Time),274861.6999999881,orange,1000,I,z,,,679,,,3,1,2972.300000011921,271889.39999997616,9009,orange,NF,C,,,,,,,,,,11
12,prac,1,con,1,m,Tue Feb 18 2025 13:23:12 GMT-0500 (Eastern Standard Time),277461.5,bronze,800,I,m,,,489,,,9,1,2586.600000023842,274874.89999997616,9009,bronze,NF,C,,,,,,,,,,12
13,prac,1,inc,1,m,Tue Feb 18 2025 13:23:12 GMT-0500 (Eastern Standard Time),280511.5,raisin,1100,I,m,,,644,,,12,1,3039.699999988079,277471.8000000119,9009,cobalt,NF,C,,,,,,,,,,13
14,prac,1,inc,1,z,Tue Feb 18 2025 13:23:12 GMT-0500 (Eastern Standard Time),283461.8000000119,cobalt,1100,I,z,,,538,,,4,1,2943.900000035763,280517.89999997616,9009,raisin,NF,C,,,,,,,,,,14
15,prac,1,inc,1,z,Tue Feb 18 2025 13:23:12 GMT-0500 (Eastern Standard Time),286461.89999997616,copper,900,I,z,,,796,,,2,1,2990.0,283471.89999997616,9009,cherry,NF,C,,,,,,,,,,15
16,prac,1,inc,1,m,Tue Feb 18 2025 13:23:12 GMT-0500 (Eastern Standard Time),289545.1999999881,plum,1100,I,m,,,668,,,16,1,3074.199999988079,286471.0,9009,lead,NF,C,,,,,,,,,,16
1,test,1,con,1,m,Tue Feb 18 2025 13:23:12 GMT-0500 (Eastern Standard Time),325211.89999997616,zinc,1000,I,m,m,None,450,251.0,199.0,115,1,1992.2999999523163,323219.60000002384,9009,zinc,NF,C,311218,311219,309493,310502,309493,311485,311019,311019,311485,1
2,test,1,inc,1,z,Tue Feb 18 2025 13:23:12 GMT-0500 (Eastern Standard Time),327228.60000002384,silver,1000,I,z,z,None,466,267.0,199.0,31,1,2005.7000000476837,325222.89999997616,9009,raisin,NF,C,313219,313219,311496,312502,311497,313502,313019,313019,313501,2
3,test,1,con,1,z,Tue Feb 18 2025 13:23:12 GMT-0500 (Eastern Standard Time),329178.3000000119,banana,800,I,z,z,None,603,403.0,200.0,1,1,1940.1000000238419,327238.1999999881,9009,banana,NF,C,315035,315035,313511,314319,313512,315451,314835,314835,315451,3
4,test,1,con,1,z,Tue Feb 18 2025 13:23:12 GMT-0500 (Eastern Standard Time),331428.39999997616,cherry,1000,I,z,z,None,708,509.0,199.0,11,1,2241.0,329187.39999997616,9009,cherry,NF,C,317185,317185,315460,316469,315461,317701,316986,316986,317701,4
5,test,1,con,1,z,Tue Feb 18 2025 13:23:12 GMT-0500 (Eastern Standard Time),333744.6999999881,cherry,1100,I,z,z,None,678,479.0,199.0,12,1,2304.800000011921,331439.89999997616,9009,cherry,NF,C,319535,319535,317713,318819,317713,320018,319335,319336,320018,5
6,test,1,inc,1,z,Tue Feb 18 2025 13:23:12 GMT-0500 (Eastern Standard Time),336078.0,cobalt,1100,I,z,z,None,697,498.0,199.0,32,1,2327.199999988079,333750.8000000119,9009,raisin,NF,C,321852,321852,320024,321135,320024,322351,321652,321652,322351,6
7,test,1,con,1,z,Tue Feb 18 2025 13:23:12 GMT-0500 (Eastern Standard Time),338361.10000002384,banana,1000,I,z,z,None,736,537.0,199.0,3,1,2272.2000000476837,336088.89999997616,9009,banana,NF,C,324085,324085,322362,323369,322363,324634,323886,323886,324634,7
8,test,1,inc,1,z,Tue Feb 18 2025 13:23:12 GMT-0500 (Eastern Standard Time),340511.5,copper,900,I,z,z,None,713,514.0,199.0,22,1,2141.100000023842,338370.39999997616,9009,orange,NF,C,326268,326268,324643,325552,324644,326785,326069,326069,326784,8
9,test,1,inc,1,m,Tue Feb 18 2025 13:23:12 GMT-0500 (Eastern Standard Time),342528.10000002384,banana,800,I,m,m,None,679,480.0,199.0,69,1,2004.6000000238419,340523.5,9009,bronze,NF,C,328318,328318,326797,327602,326798,328801,328119,328119,328801,9
10,test,1,con,1,z,Tue Feb 18 2025 13:23:12 GMT-0500 (Eastern Standard Time),344861.6999999881,lime,1000,I,z,z,None,799,599.0,200.0,35,1,2327.300000011921,342534.39999997616,9009,lime,NF,C,330535,330535,328807,329819,328808,331135,330335,330335,331135,10
11,test,1,inc,1,m,Tue Feb 18 2025 13:23:12 GMT-0500 (Eastern Standard Time),346878.1999999881,banana,800,I,m,m,None,682,482.0,200.0,77,1,2007.5999999642372,344870.60000002384,9009,copper,NF,C,332668,332669,331144,331952,331144,333151,332468,332468,333151,11
12,test,1,inc,1,z,Tue Feb 18 2025 13:23:12 GMT-0500 (Eastern Standard Time),349028.3000000119,iron,900,I,z,z,None,708,509.0,199.0,62,1,2140.900000035763,346887.39999997616,9009,plum,NF,C,334785,334785,333160,334069,333161,335301,334585,334585,335301,12
13,test,1,inc,1,z,Tue Feb 18 2025 13:23:12 GMT-0500 (Eastern Standard Time),351211.6999999881,iron,900,I,z,z,None,734,535.0,199.0,38,1,2173.599999964237,349038.10000002384,9009,lime,NF,C,336935,336935,335311,336219,335312,337485,336736,336736,337485,13
14,test,1,con,1,m,Tue Feb 18 2025 13:23:12 GMT-0500 (Eastern Standard Time),353478.1999999881,iron,1000,I,m,m,None,723,524.0,199.0,107,1,2255.199999988079,351223.0,9009,iron,NF,C,339218,339218,337496,338502,337497,339751,339019,339019,339751,14
15,test,1,con,1,z,Tue Feb 18 2025 13:23:12 GMT-0500 (Eastern Standard Time),355561.8000000119,lime,800,I,z,z,None,736,537.0,199.0,33,1,2074.699999988079,353487.10000002384,9009,lime,NF,C,341285,341285,339760,340569,339761,341835,341086,341086,341835,15
16,test,1,con,1,z,Tue Feb 18 2025 13:23:12 GMT-0500 (Eastern Standard Time),357744.6999999881,kiwi,900,I,z,z,None,746,546.0,200.0,50,1,2171.699999988079,355573.0,9009,kiwi,NF,C,343469,343469,341846,342751,341846,344018,343268,343268,344018,16
17,test,1,con,1,z,Tue Feb 18 2025 13:23:12 GMT-0500 (Eastern Standard Time),359945.39999997616,raisin,900,I,z,z,None,754,554.0,200.0,26,1,2191.5,357753.89999997616,9009,raisin,NF,C,345652,345652,344027,344935,344027,346218,345452,345452,346218,17
18,test,1,con,1,m,Tue Feb 18 2025 13:23:12 GMT-0500 (Eastern Standard Time),362444.8000000119,bronze,1100,I,m,m,None,847,632.0,215.0,68,1,2492.199999988079,359952.60000002384,9009,bronze,NF,C,348069,348069,346226,347335,346226,348718,347852,347853,348718,18
19,test,1,con,1,m,Tue Feb 18 2025 13:23:12 GMT-0500 (Eastern Standard Time),364744.6999999881,bronze,1000,I,m,m,None,753,554.0,199.0,67,1,2288.199999988079,362456.5,9009,bronze,NF,C,350452,350452,348729,349735,348730,351018,350252,350252,351018,19
20,test,1,inc,1,m,Tue Feb 18 2025 13:23:12 GMT-0500 (Eastern Standard Time),367128.3000000119,raisin,1100,I,m,m,None,737,538.0,199.0,88,1,2378.0,364750.3000000119,9009,silver,NF,C,352852,352852,351023,352135,351024,353401,352652,352652,353401,20
21,test,1,con,1,z,Tue Feb 18 2025 13:23:12 GMT-0500 (Eastern Standard Time),369511.6999999881,lime,1100,I,z,z,None,737,522.0,215.0,36,1,2373.800000011921,367137.89999997616,9009,lime,NF,C,355252,355252,353411,354519,353412,355785,355036,355036,355785,21
22,test,1,con,1,m,Tue Feb 18 2025 13:23:12 GMT-0500 (Eastern Standard Time),371628.3000000119,copper,800,I,m,m,None,766,567.0,199.0,73,1,2104.800000011921,369523.5,9009,copper,NF,C,357319,357319,355797,356602,355797,357901,357119,357119,357901,22
23,test,1,inc,1,m,Tue Feb 18 2025 13:23:12 GMT-0500 (Eastern Standard Time),373694.8000000119,lime,800,I,m,m,None,730,531.0,199.0,109,1,2056.800000011921,371638.0,9009,iron,NF,C,359435,359435,357911,358719,357912,359968,359235,359236,359968,23
24,test,1,con,1,z,Tue Feb 18 2025 13:23:12 GMT-0500 (Eastern Standard Time),375644.6999999881,orange,900,I,z,z,None,514,315.0,199.0,18,1,1938.199999988079,373706.5,9009,orange,NF,C,361602,361602,359980,360885,359980,361918,361402,361402,361918,24
25,test,1,inc,1,z,Tue Feb 18 2025 13:23:12 GMT-0500 (Eastern Standard Time),377828.39999997616,iron,900,I,z,z,None,741,542.0,199.0,54,1,2176.199999988079,375652.1999999881,9009,kiwi,NF,C,363552,363552,361925,362835,361926,364102,363352,363352,364101,25
26,test,1,con,1,z,Tue Feb 18 2025 13:23:12 GMT-0500 (Eastern Standard Time),380161.3000000119,raisin,1000,I,z,z,None,795,595.0,200.0,27,1,2323.300000011921,377838.0,9009,raisin,NF,C,365835,365835,364111,365119,364111,366434,365635,365635,366434,26
27,test,1,con,1,m,Tue Feb 18 2025 13:23:12 GMT-0500 (Eastern Standard Time),382161.6999999881,gold,800,I,m,m,None,660,461.0,199.0,97,1,1993.800000011921,380167.89999997616,9009,gold,NF,C,367969,367969,366441,367252,366441,368435,367769,367769,368435,27
28,test,1,inc,1,z,Tue Feb 18 2025 13:23:12 GMT-0500 (Eastern Standard Time),384311.6999999881,gold,800,I,z,z,None,804,605.0,199.0,53,1,2136.899999976158,382174.8000000119,9009,kiwi,NF,C,369969,369969,368448,369252,368448,370585,369769,369769,370585,28
29,test,1,con,1,z,Tue Feb 18 2025 13:23:12 GMT-0500 (Eastern Standard Time),386561.6999999881,cherry,900,I,z,z,None,811,612.0,199.0,10,1,2241.300000011921,384320.39999997616,9009,cherry,NF,C,372218,372218,370593,371502,370594,372835,372019,372019,372835,29
30,test,1,inc,1,z,Tue Feb 18 2025 13:23:12 GMT-0500 (Eastern Standard Time),388845.0,silver,1000,I,z,z,None,733,533.0,200.0,23,1,2272.399999976158,386572.60000002384,9009,orange,NF,C,374568,374569,372846,373852,372846,375118,374368,374368,375118,30
31,test,1,inc,1,z,Tue Feb 18 2025 13:23:12 GMT-0500 (Eastern Standard Time),391261.6999999881,lead,1100,I,z,z,None,765,566.0,199.0,40,1,2408.099999964237,388853.60000002384,9009,lime,NF,C,376952,376952,375127,376235,375127,377535,376752,376752,377535,31
32,test,1,inc,1,z,Tue Feb 18 2025 13:23:12 GMT-0500 (Eastern Standard Time),393495.0,zinc,1000,I,z,z,None,673,473.0,200.0,63,1,2218.600000023842,391276.39999997616,9009,plum,NF,C,379285,379285,377549,378569,377551,379768,379085,379085,379768,32
33,test,1,inc,1,m,Tue Feb 18 2025 13:23:12 GMT-0500 (Eastern Standard Time),395761.1999999881,kiwi,1000,I,m,m,None,726,527.0,199.0,127,1,2255.899999976158,393505.3000000119,9009,lead,NF,C,381502,381502,379778,380785,379779,382034,381302,381302,382034,33
34,test,1,con,1,m,Tue Feb 18 2025 13:23:12 GMT-0500 (Eastern Standard Time),397961.39999997616,lead,900,I,m,m,None,752,553.0,199.0,122,1,2194.899999976158,395766.5,9009,lead,NF,C,383668,383669,382040,382952,382040,384235,383469,383469,384234,34
35,test,1,inc,1,m,Tue Feb 18 2025 13:23:12 GMT-0500 (Eastern Standard Time),400044.89999997616,lime,800,I,m,m,None,732,533.0,199.0,125,1,2074.699999988079,397970.1999999881,9009,lead,NF,C,385769,385769,384243,385052,384244,386318,385569,385569,386318,35
36,test,1,inc,1,m,Tue Feb 18 2025 13:23:12 GMT-0500 (Eastern Standard Time),402211.60000002384,cherry,900,I,m,m,None,726,526.0,200.0,94,1,2157.5,400054.10000002384,9009,cobalt,NF,C,387952,387952,386327,387235,386328,388485,387751,387751,388485,36
37,test,1,inc,1,m,Tue Feb 18 2025 13:23:12 GMT-0500 (Eastern Standard Time),404461.39999997616,orange,1000,I,m,m,None,714,515.0,199.0,95,1,2239.2999999523163,402222.10000002384,9009,cobalt,NF,C,390219,390219,388495,389502,388496,390735,390019,390019,390734,37
38,test,1,inc,1,z,Tue Feb 18 2025 13:23:12 GMT-0500 (Eastern Standard Time),406694.89999997616,copper,900,I,z,z,None,789,574.0,215.0,14,1,2223.099999964237,404471.8000000119,9009,cherry,NF,C,392384,392384,390745,391652,390745,392968,392169,392169,392968,38
39,test,1,con,1,z,Tue Feb 18 2025 13:23:12 GMT-0500 (Eastern Standard Time),408778.3000000119,cherry,800,I,z,z,None,735,536.0,199.0,9,1,2069.0,406709.3000000119,9009,cherry,NF,C,394502,394502,392982,393785,392983,395051,394302,394302,395051,39
40,test,1,inc,1,z,Tue Feb 18 2025 13:23:12 GMT-0500 (Eastern Standard Time),411228.1999999881,cobalt,1100,I,z,z,None,800,601.0,199.0,24,1,2440.199999988079,408788.0,9009,orange,NF,C,396885,396885,395061,396168,395061,397501,396685,396685,397501,40
41,test,1,inc,1,m,Tue Feb 18 2025 13:23:12 GMT-0500 (Eastern Standard Time),413311.3000000119,lime,800,I,m,m,None,748,548.0,200.0,101,1,2074.0,411237.3000000119,9009,gold,NF,C,399035,399035,397510,398319,397511,399585,398835,398835,399584,41
42,test,1,inc,1,m,Tue Feb 18 2025 13:23:12 GMT-0500 (Eastern Standard Time),415528.3000000119,kiwi,1000,I,m,m,None,671,472.0,199.0,111,1,2208.400000035763,413319.89999997616,9009,iron,NF,C,401318,401318,399593,400602,399593,401802,401119,401119,401801,42
43,test,1,inc,1,z,Tue Feb 18 2025 13:23:12 GMT-0500 (Eastern Standard Time),417745.0,copper,900,I,z,z,None,779,579.0,200.0,6,1,2206.800000011921,415538.1999999881,9009,banana,NF,C,403435,403435,401811,402718,401812,404018,403235,403235,404018,43
44,test,1,con,1,m,Tue Feb 18 2025 13:23:12 GMT-0500 (Eastern Standard Time),419994.8000000119,cobalt,900,I,m,m,None,801,602.0,199.0,90,1,2240.5,417754.3000000119,9009,cobalt,NF,C,405652,405652,404027,404935,404028,406268,405452,405452,406268,44
45,test,1,inc,1,m,Tue Feb 18 2025 13:23:12 GMT-0500 (Eastern Standard Time),422344.8000000119,kiwi,1000,I,m,m,None,803,604.0,199.0,119,1,2341.600000023842,420003.1999999881,9009,zinc,NF,C,408002,408002,406276,407285,406277,408618,407802,407802,408618,45
46,test,1,con,1,z,Tue Feb 18 2025 13:23:12 GMT-0500 (Eastern Standard Time),424461.89999997616,plum,800,I,z,z,None,780,565.0,215.0,57,1,2106.7999999523163,422355.10000002384,9009,plum,NF,C,410169,410169,408628,409434,408629,410735,409953,409953,410735,46
47,test,1,con,1,z,Tue Feb 18 2025 13:23:12 GMT-0500 (Eastern Standard Time),426728.3000000119,kiwi,1000,I,z,z,None,720,521.0,199.0,51,1,2257.300000011921,424471.0,9009,kiwi,NF,C,412469,412469,410744,411752,410744,413001,412269,412269,413001,47
48,test,1,inc,1,z,Tue Feb 18 2025 13:23:12 GMT-0500 (Eastern Standard Time),428862.3000000119,iron,900,I,z,z,None,697,498.0,199.0,46,1,2124.699999988079,426737.60000002384,9009,pear,NF,C,414635,414635,413011,413919,413011,415135,414435,414435,415135,48
49,test,1,con,1,z,Tue Feb 18 2025 13:23:12 GMT-0500 (Eastern Standard Time),430978.1999999881,lime,900,I,z,z,None,677,478.0,199.0,34,1,2109.399999976158,428868.8000000119,9009,lime,NF,C,416768,416768,415142,416052,415142,417251,416569,416569,417251,49
50,test,1,inc,1,m,Tue Feb 18 2025 13:23:12 GMT-0500 (Eastern Standard Time),433245.0,raisin,1100,I,m,m,None,616,417.0,199.0,96,1,2257.300000011921,430987.6999999881,9009,cobalt,NF,C,419085,419085,417261,418369,417261,419518,418885,418885,419518,50
51,test,1,con,1,m,Tue Feb 18 2025 13:23:12 GMT-0500 (Eastern Standard Time),435478.1999999881,zinc,800,I,m,m,None,889,690.0,199.0,113,1,2223.599999964237,433254.60000002384,9009,zinc,NF,C,421052,421052,419528,420335,419528,421751,420852,420852,421751,51
52,test,1,con,1,m,Tue Feb 18 2025 13:23:12 GMT-0500 (Eastern Standard Time),437811.60000002384,gold,900,I,m,m,None,893,694.0,199.0,98,1,2324.0,435487.60000002384,9009,gold,NF,C,423384,423384,421761,422668,421761,424085,423185,423185,424085,52
53,test,1,inc,1,m,Tue Feb 18 2025 13:23:12 GMT-0500 (Eastern Standard Time),440111.5,plum,1100,I,m,m,None,663,464.0,199.0,120,1,2285.5,437826.0,9009,zinc,NF,C,425918,425918,424099,425201,424100,426385,425719,425719,426385,53
54,test,1,con,1,m,Tue Feb 18 2025 13:23:12 GMT-0500 (Eastern Standard Time),442228.1999999881,copper,1000,I,m,m,None,575,376.0,199.0,75,1,2107.300000011921,440120.89999997616,9009,copper,NF,C,428118,428118,426394,427402,426394,428501,427919,427919,428501,54
55,test,1,con,1,m,Tue Feb 18 2025 13:23:12 GMT-0500 (Eastern Standard Time),444494.6999999881,lead,1100,I,m,m,None,630,431.0,199.0,124,1,2258.5,442236.1999999881,9009,lead,NF,C,430335,430335,428509,429618,428510,430768,430135,430135,430768,55
56,test,1,inc,1,m,Tue Feb 18 2025 13:23:12 GMT-0500 (Eastern Standard Time),446511.5,lime,800,I,m,m,None,679,480.0,199.0,117,1,2006.3999999761581,444505.10000002384,9009,zinc,NF,C,432302,432302,430778,431585,430779,432785,432102,432102,432785,56
57,test,1,inc,1,z,Tue Feb 18 2025 13:23:12 GMT-0500 (Eastern Standard Time),448528.10000002384,gold,800,I,z,z,None,679,479.0,200.0,45,1,2007.800000011921,446520.3000000119,9009,pear,NF,C,434318,434318,432793,433602,432794,434801,434118,434118,434801,57
58,test,1,inc,1,z,Tue Feb 18 2025 13:23:12 GMT-0500 (Eastern Standard Time),450678.3000000119,gold,800,I,z,z,None,806,607.0,199.0,61,1,2139.0,448539.3000000119,9009,plum,NF,C,436335,436335,434812,435619,434813,436951,436135,436135,436951,58
59,test,1,con,1,z,Tue Feb 18 2025 13:23:12 GMT-0500 (Eastern Standard Time),452928.1999999881,orange,1000,I,z,z,None,712,513.0,199.0,19,1,2241.399999976158,450686.8000000119,9009,orange,NF,C,438685,438685,436960,437968,436960,439201,438485,438485,439201,59
60,test,1,con,1,m,Tue Feb 18 2025 13:23:12 GMT-0500 (Eastern Standard Time),454944.89999997616,iron,900,I,m,m,None,578,379.0,199.0,106,1,2007.3999999761581,452937.5,9009,iron,NF,C,440835,440835,439211,440118,439211,441218,440635,440635,441218,60
61,test,1,con,1,z,Tue Feb 18 2025 13:23:12 GMT-0500 (Eastern Standard Time),457178.10000002384,banana,900,I,z,z,None,785,586.0,199.0,2,1,2224.0,454954.10000002384,9009,banana,NF,C,442852,442852,441227,442135,441228,443451,442652,442652,443451,61
62,test,1,inc,1,m,Tue Feb 18 2025 13:23:12 GMT-0500 (Eastern Standard Time),459677.89999997616,pear,900,I,m,m,None,1064,865.0,199.0,102,1,2491.2999999523163,457186.60000002384,9009,gold,NF,C,445084,445085,443460,444369,443460,445951,444885,444885,445951,62
63,test,1,inc,1,z,Tue Feb 18 2025 13:23:12 GMT-0500 (Eastern Standard Time),461661.60000002384,copper,900,I,z,z,None,532,333.0,199.0,30,1,1973.4000000357628,459688.1999999881,9009,raisin,NF,C,447585,447585,445961,446869,445962,447935,447385,447385,447935,63
64,test,1,con,1,m,Tue Feb 18 2025 13:23:12 GMT-0500 (Eastern Standard Time),464011.1999999881,gold,1100,I,m,m,None,700,485.0,215.0,100,1,2340.899999976158,461670.3000000119,9009,gold,NF,C,449784,449784,447943,449052,447944,450284,449569,449569,450284,64
65,test,1,con,1,m,Tue Feb 18 2025 13:23:12 GMT-0500 (Eastern Standard Time),466144.60000002384,bronze,900,I,m,m,None,695,496.0,199.0,66,1,2126.600000023842,464018.0,9009,bronze,NF,C,451918,451918,450291,451202,450292,452418,451719,451719,452418,65
66,test,1,con,1,z,Tue Feb 18 2025 13:23:12 GMT-0500 (Eastern Standard Time),468461.8000000119,plum,1000,I,z,z,None,781,582.0,199.0,59,1,2303.400000035763,466158.39999997616,9009,plum,NF,C,454151,454152,452431,453435,452432,454735,453952,453952,454735,66
67,test,1,inc,1,m,Tue Feb 18 2025 13:23:12 GMT-0500 (Eastern Standard Time),470611.5,pear,900,I,m,m,None,709,509.0,200.0,126,1,2140.399999976158,468471.10000002384,9009,lead,NF,C,456368,456369,454744,455652,454745,456885,456168,456168,456885,67
68,test,1,con,1,m,Tue Feb 18 2025 13:23:12 GMT-0500 (Eastern Standard Time),472911.39999997616,copper,1100,I,m,m,None,664,464.0,200.0,76,1,2290.899999976158,470620.5,9009,copper,NF,C,458718,458718,456893,458002,456894,459185,458518,458518,459184,68
69,test,1,inc,1,m,Tue Feb 18 2025 13:23:12 GMT-0500 (Eastern Standard Time),475044.8000000119,cherry,900,I,m,m,None,692,492.0,200.0,86,1,2123.400000035763,472921.39999997616,9009,silver,NF,C,460818,460818,459194,460101,459195,461318,460618,460618,461318,69
70,test,1,con,1,m,Tue Feb 18 2025 13:23:12 GMT-0500 (Eastern Standard Time),477228.10000002384,copper,900,I,m,m,None,733,534.0,199.0,74,1,2173.2000000476837,475054.89999997616,9009,copper,NF,C,462952,462952,461328,462235,461328,463501,462752,462752,463501,70
71,test,1,con,1,m,Tue Feb 18 2025 13:23:12 GMT-0500 (Eastern Standard Time),479527.89999997616,cobalt,1000,I,m,m,None,753,554.0,199.0,91,1,2291.599999964237,477236.3000000119,9009,cobalt,NF,C,465235,465235,463509,464519,463510,465801,465035,465035,465801,71
72,test,1,con,1,z,Tue Feb 18 2025 13:23:12 GMT-0500 (Eastern Standard Time),481894.8000000119,plum,1100,I,z,z,None,722,523.0,199.0,60,1,2357.900000035763,479536.89999997616,9009,plum,NF,C,467635,467635,465810,466918,465810,468168,467435,467435,468168,72
73,test,1,inc,1,m,Tue Feb 18 2025 13:23:12 GMT-0500 (Eastern Standard Time),484044.89999997616,raisin,1100,I,m,m,None,500,300.0,200.0,72,1,2140.5,481904.39999997616,9009,bronze,NF,C,470002,470002,468177,469285,468178,470318,469801,469801,470318,73
74,test,1,con,1,m,Tue Feb 18 2025 13:23:12 GMT-0500 (Eastern Standard Time),486344.5,iron,1100,I,m,m,None,653,454.0,199.0,108,1,2291.399999976158,484053.10000002384,9009,iron,NF,C,472152,472152,470326,471435,470327,472618,471952,471952,472618,74
75,test,1,con,1,m,Tue Feb 18 2025 13:23:12 GMT-0500 (Eastern Standard Time),488544.6999999881,cobalt,1100,I,m,m,None,561,362.0,199.0,92,1,2190.300000011921,486354.39999997616,9009,cobalt,NF,C,474452,474452,472627,473735,472628,474818,474252,474252,474818,75
76,test,1,con,1,m,Tue Feb 18 2025 13:23:12 GMT-0500 (Eastern Standard Time),490528.0,silver,800,I,m,m,None,647,447.0,200.0,81,1,1974.0,488554.0,9009,silver,NF,C,476351,476351,474827,475635,474827,476801,476151,476151,476801,76
77,test,1,inc,1,z,Tue Feb 18 2025 13:23:12 GMT-0500 (Eastern Standard Time),492711.60000002384,zinc,1000,I,z,z,None,638,439.0,199.0,55,1,2169.300000011921,490542.3000000119,9009,kiwi,NF,C,478535,478535,476815,477819,476816,478985,478335,478335,478985,77
78,test,1,con,1,z,Tue Feb 18 2025 13:23:12 GMT-0500 (Eastern Standard Time),494879.10000002384,pear,1000,I,z,z,None,631,431.0,200.0,43,1,2158.5,492720.60000002384,9009,pear,NF,C,480718,480719,478994,480002,478994,481152,480518,480518,481152,78
79,test,1,inc,1,z,Tue Feb 18 2025 13:23:12 GMT-0500 (Eastern Standard Time),496911.5,silver,1000,I,z,z,None,497,298.0,199.0,15,1,2022.5,494889.0,9009,cherry,NF,C,482884,482884,481162,482169,481163,483185,482685,482685,483184,79
80,test,1,con,1,z,Tue Feb 18 2025 13:23:12 GMT-0500 (Eastern Standard Time),499128.0,kiwi,1100,I,z,z,None,571,372.0,199.0,52,1,2207.300000011921,496920.6999999881,9009,kiwi,NF,C,485018,485018,483194,484302,483194,485401,484819,484819,485401,80
81,test,1,inc,1,m,Tue Feb 18 2025 13:23:12 GMT-0500 (Eastern Standard Time),501294.6999999881,raisin,1100,I,m,m,None,530,331.0,199.0,80,1,2157.300000011921,499137.39999997616,9009,copper,NF,C,487235,487235,485410,486518,485411,487568,487035,487035,487568,81
82,test,1,inc,1,m,Tue Feb 18 2025 13:23:12 GMT-0500 (Eastern Standard Time),503211.5,cherry,900,I,m,m,None,467,268.0,199.0,70,1,1907.8999999761581,501303.60000002384,9009,bronze,NF,C,489202,489202,487577,488485,487577,489485,489002,489002,489485,82
83,test,1,inc,1,z,Tue Feb 18 2025 13:23:12 GMT-0500 (Eastern Standard Time),505194.8000000119,silver,1000,I,z,z,None,435,235.0,200.0,7,1,1973.800000011921,503221.0,9009,banana,NF,C,491218,491219,489494,490501,489494,491468,491018,491018,491468,83
84,test,1,inc,1,z,Tue Feb 18 2025 13:23:12 GMT-0500 (Eastern Standard Time),507344.60000002384,zinc,1000,I,z,z,None,612,413.0,199.0,39,1,2141.600000023842,505203.0,9009,lime,NF,C,493201,493201,491476,492485,491477,493618,493002,493002,493618,84
85,test,1,con,1,z,Tue Feb 18 2025 13:23:12 GMT-0500 (Eastern Standard Time),509611.39999997616,raisin,1100,I,z,z,None,619,419.0,200.0,28,1,2257.399999976158,507354.0,9009,raisin,NF,C,495451,495451,493627,494734,493628,495885,495251,495251,495884,85
86,test,1,con,1,m,Tue Feb 18 2025 13:23:12 GMT-0500 (Eastern Standard Time),511794.8000000119,silver,1000,I,m,m,None,644,444.0,200.0,83,1,2174.100000023842,509620.6999999881,9009,silver,NF,C,497618,497618,495894,496902,495894,498068,497418,497418,498068,86
87,test,1,inc,1,m,Tue Feb 18 2025 13:23:12 GMT-0500 (Eastern Standard Time),514044.6999999881,orange,1000,I,m,m,None,700,501.0,199.0,71,1,2240.5,511804.1999999881,9009,bronze,NF,C,499801,499801,498077,499085,498078,500318,499602,499602,500318,87
88,test,1,inc,1,m,Tue Feb 18 2025 13:23:12 GMT-0500 (Eastern Standard Time),515928.0,banana,800,I,m,m,None,537,338.0,199.0,93,1,1874.699999988079,514053.3000000119,9009,cobalt,NF,C,501851,501852,500326,501135,500327,502201,501652,501652,502201,88
89,test,1,con,1,m,Tue Feb 18 2025 13:23:12 GMT-0500 (Eastern Standard Time),517828.10000002384,cobalt,800,I,m,m,None,559,359.0,200.0,89,1,1891.5,515936.60000002384,9009,cobalt,NF,C,503735,503735,502210,503018,502210,504101,503534,503534,504101,89
90,test,1,inc,1,z,Tue Feb 18 2025 13:23:12 GMT-0500 (Eastern Standard Time),520044.8000000119,cobalt,1100,I,z,z,None,566,367.0,199.0,16,1,2201.600000023842,517843.1999999881,9009,cherry,NF,C,505935,505935,504116,505218,504117,506318,505735,505735,506318,90
91,test,1,inc,1,z,Tue Feb 18 2025 13:23:12 GMT-0500 (Eastern Standard Time),522061.6999999881,bronze,800,I,z,z,None,681,482.0,199.0,29,1,2008.0,520053.6999999881,9009,raisin,NF,C,507852,507852,506327,507134,506327,508335,507652,507652,508335,91
92,test,1,con,1,z,Tue Feb 18 2025 13:23:12 GMT-0500 (Eastern Standard Time),524428.1999999881,orange,1100,I,z,z,None,718,518.0,200.0,20,1,2357.199999988079,522071.0,9009,orange,NF,C,510168,510168,508344,509452,508344,510701,509968,509968,510701,92
93,test,1,con,1,z,Tue Feb 18 2025 13:23:12 GMT-0500 (Eastern Standard Time),526561.1000000238,kiwi,800,I,z,z,None,793,594.0,199.0,49,1,2123.7000000476837,524437.3999999762,9009,kiwi,NF,C,512235,512235,510710,511518,510711,512834,512035,512035,512834,93
94,test,1,con,1,m,Tue Feb 18 2025 13:23:12 GMT-0500 (Eastern Standard Time),528578.1999999881,lead,800,I,m,m,None,677,478.0,199.0,121,1,2009.300000011921,526568.8999999762,9009,lead,NF,C,514368,514368,512842,513652,512843,514851,514169,514169,514851,94
95,test,1,con,1,z,Tue Feb 18 2025 13:23:12 GMT-0500 (Eastern Standard Time),530677.6999999881,pear,1100,I,z,z,None,455,256.0,199.0,44,1,2091.099999964237,528586.6000000238,9009,pear,NF,C,516685,516685,514860,515968,514860,516951,516485,516485,516951,95
96,test,1,inc,1,m,Tue Feb 18 2025 13:23:12 GMT-0500 (Eastern Standard Time),532761.1000000238,pear,900,I,m,m,None,635,436.0,199.0,110,1,2076.100000023842,530685.0,9009,iron,NF,C,518585,518585,516958,517868,516959,519034,518385,518385,519034,96
97,test,1,con,1,m,Tue Feb 18 2025 13:23:12 GMT-0500 (Eastern Standard Time),534761.3999999762,bronze,800,I,m,m,None,654,454.0,200.0,65,1,1992.8999999761581,532768.5,9009,bronze,NF,C,520568,520568,519042,519852,519042,521035,520368,520368,521034,97
98,test,1,inc,1,m,Tue Feb 18 2025 13:23:12 GMT-0500 (Eastern Standard Time),536927.8999999762,kiwi,1000,I,m,m,None,628,429.0,199.0,103,1,2157.699999988079,534770.1999999881,9009,gold,NF,C,522768,522768,521043,522052,521044,523201,522569,522569,523201,98
99,test,1,con,1,z,Tue Feb 18 2025 13:23:12 GMT-0500 (Eastern Standard Time),539061.5,banana,1100,I,z,z,None,489,274.0,215.0,4,1,2126.0,536935.5,9009,banana,NF,C,525052,525052,523209,524319,523209,525335,524835,524836,525335,99
100,test,1,con,1,z,Tue Feb 18 2025 13:23:12 GMT-0500 (Eastern Standard Time),541061.1000000238,raisin,800,I,z,z,None,657,457.0,200.0,25,1,1990.6000000238419,539070.5,9009,raisin,NF,C,526868,526868,525344,526152,525344,527334,526668,526668,527334,100
101,test,1,con,1,z,Tue Feb 18 2025 13:23:12 GMT-0500 (Eastern Standard Time),543228.1000000238,pear,900,I,z,z,None,718,518.0,200.0,42,1,2160.900000035763,541067.1999999881,9009,pear,NF,C,528968,528968,527340,528252,527341,529501,528768,528768,529501,101
102,test,1,inc,1,z,Tue Feb 18 2025 13:23:12 GMT-0500 (Eastern Standard Time),545277.8000000119,gold,800,I,z,z,None,714,515.0,199.0,37,1,2040.199999988079,543237.6000000238,9009,lime,NF,C,531035,531035,529511,530319,529511,531551,530835,530835,531551,102
103,test,1,inc,1,z,Tue Feb 18 2025 13:23:12 GMT-0500 (Eastern Standard Time),547528.1999999881,cobalt,1100,I,z,z,None,604,405.0,199.0,8,1,2237.099999964237,545291.1000000238,9009,banana,NF,C,533385,533385,531564,532668,531565,533801,533185,533185,533801,103
104,test,1,inc,1,z,Tue Feb 18 2025 13:23:12 GMT-0500 (Eastern Standard Time),549778.1000000238,lead,1100,I,z,z,None,610,411.0,199.0,48,1,2240.7000000476837,547537.3999999762,9009,pear,NF,C,535635,535635,533810,534918,533811,536051,535435,535435,536051,104
105,test,1,inc,1,m,Tue Feb 18 2025 13:23:12 GMT-0500 (Eastern Standard Time),552094.6999999881,plum,1100,I,m,m,None,680,481.0,199.0,128,1,2306.899999976158,549787.8000000119,9009,lead,NF,C,537885,537885,536061,537168,536061,538368,537685,537685,538368,105
106,test,1,inc,1,m,Tue Feb 18 2025 13:23:12 GMT-0500 (Eastern Standard Time),554245.0,orange,1000,I,m,m,None,608,409.0,199.0,79,1,2142.199999988079,552102.8000000119,9009,copper,NF,C,540101,540101,538376,539385,538376,540518,539902,539902,540518,106
107,test,1,con,1,m,Tue Feb 18 2025 13:23:12 GMT-0500 (Eastern Standard Time),556479.1000000238,silver,1100,I,m,m,None,597,398.0,199.0,84,1,2226.0,554253.1000000238,9009,silver,NF,C,542352,542352,540526,541635,540527,542752,542152,542152,542752,107
108,test,1,con,1,m,Tue Feb 18 2025 13:23:12 GMT-0500 (Eastern Standard Time),558444.6999999881,silver,900,I,m,m,None,517,318.0,199.0,82,1,1955.8999999761581,556488.8000000119,9009,silver,NF,C,544384,544384,542762,543668,542762,544718,544185,544185,544718,108
109,test,1,con,1,z,Tue Feb 18 2025 13:23:12 GMT-0500 (Eastern Standard Time),560311.3999999762,pear,800,I,z,z,None,521,322.0,199.0,41,1,1856.8999999761581,558454.5,9009,pear,NF,C,546252,546252,544728,545535,544728,546585,546052,546052,546584,109
110,test,1,con,1,m,Tue Feb 18 2025 13:23:12 GMT-0500 (Eastern Standard Time),562444.6000000238,iron,800,I,m,m,None,783,584.0,199.0,105,1,2124.7000000476837,560319.8999999762,9009,iron,NF,C,548118,548118,546593,547402,546594,548718,547919,547919,548718,110
111,test,1,con,1,z,Tue Feb 18 2025 13:23:12 GMT-0500 (Eastern Standard Time),564411.3999999762,plum,900,I,z,z,None,518,303.0,215.0,58,1,1957.5,562453.8999999762,9009,plum,NF,C,550367,550367,548727,549635,548727,550685,550151,550152,550684,111
112,test,1,inc,1,m,Tue Feb 18 2025 13:23:12 GMT-0500 (Eastern Standard Time),566361.0,cherry,900,I,m,m,None,503,303.0,200.0,78,1,1940.199999988079,564420.8000000119,9009,copper,NF,C,552318,552318,550694,551601,550694,552634,552118,552118,552634,112
113,test,1,inc,1,z,Tue Feb 18 2025 13:23:12 GMT-0500 (Eastern Standard Time),568694.5,zinc,1000,I,z,z,None,790,590.0,200.0,47,1,2324.300000011921,566370.1999999881,9009,pear,NF,C,554368,554368,552643,553651,552644,554968,554168,554168,554968,113
114,test,1,inc,1,m,Tue Feb 18 2025 13:23:12 GMT-0500 (Eastern Standard Time),570961.0,plum,1100,I,m,m,None,628,429.0,199.0,104,1,2257.300000011921,568703.6999999881,9009,gold,NF,C,556801,556801,554977,556085,554977,557234,556602,556602,557234,114
115,test,1,con,1,m,Tue Feb 18 2025 13:23:12 GMT-0500 (Eastern Standard Time),573378.1000000238,zinc,1100,I,m,m,None,778,578.0,200.0,116,1,2411.300000011921,570966.8000000119,9009,zinc,NF,C,559068,559068,557240,558352,557240,559651,558868,558868,559651,115
116,test,1,con,1,m,Tue Feb 18 2025 13:23:12 GMT-0500 (Eastern Standard Time),575461.3000000119,gold,1000,I,m,m,None,541,342.0,199.0,99,1,2073.900000035763,573387.3999999762,9009,gold,NF,C,561384,561384,559660,560668,559661,561734,561185,561185,561734,116
117,test,1,con,1,z,Tue Feb 18 2025 13:23:12 GMT-0500 (Eastern Standard Time),577444.6000000238,orange,800,I,z,z,None,642,442.0,200.0,17,1,1974.7000000476837,575469.8999999762,9009,orange,NF,C,563268,563268,561743,562552,561743,563718,563068,563068,563718,117
118,test,1,inc,1,m,Tue Feb 18 2025 13:23:12 GMT-0500 (Eastern Standard Time),579378.0,orange,1000,I,m,m,None,394,195.0,199.0,87,1,1924.6000000238419,577453.3999999762,9009,silver,NF,C,565451,565451,563726,564735,563727,565651,565252,565252,565651,118
119,test,1,inc,1,m,Tue Feb 18 2025 13:23:12 GMT-0500 (Eastern Standard Time),581578.1000000238,plum,1100,I,m,m,None,552,353.0,199.0,112,1,2191.100000023842,579387.0,9009,iron,NF,C,567485,567485,565660,566768,565660,567851,567285,567285,567851,119
120,test,1,inc,1,z,Tue Feb 18 2025 13:23:12 GMT-0500 (Eastern Standard Time),583461.5,bronze,800,I,z,z,None,540,341.0,199.0,5,1,1874.0,581587.5,9009,banana,NF,C,569385,569385,567861,568668,567861,569735,569185,569185,569734,120
121,test,1,inc,1,z,Tue Feb 18 2025 13:23:12 GMT-0500 (Eastern Standard Time),585477.8000000119,bronze,800,I,z,z,None,673,473.0,200.0,21,1,2007.199999988079,583470.6000000238,9009,orange,NF,C,571268,571268,569744,570552,569744,571751,571068,571068,571751,121
122,test,1,inc,1,z,Tue Feb 18 2025 13:23:12 GMT-0500 (Eastern Standard Time),587777.8999999762,lead,1100,I,z,z,None,660,461.0,199.0,64,1,2291.599999964237,585486.3000000119,9009,plum,NF,C,573585,573585,571759,572868,571760,574051,573385,573385,574051,122
123,test,1,con,1,m,Tue Feb 18 2025 13:23:12 GMT-0500 (Eastern Standard Time),589894.6000000238,lead,1000,I,m,m,None,572,373.0,199.0,123,1,2107.300000011921,587787.3000000119,9009,lead,NF,C,575785,575785,574060,575068,574061,576168,575585,575585,576168,123
124,test,1,inc,1,z,Tue Feb 18 2025 13:23:12 GMT-0500 (Eastern Standard Time),591677.5,bronze,800,I,z,z,None,447,248.0,199.0,13,1,1774.6000000238419,589902.8999999762,9009,cherry,NF,C,577701,577701,576176,576985,576176,577951,577502,577502,577950,124
125,test,1,inc,1,m,Tue Feb 18 2025 13:23:12 GMT-0500 (Eastern Standard Time),593778.0,pear,900,I,m,m,None,660,461.0,199.0,118,1,2094.800000011921,591683.1999999881,9009,zinc,NF,C,579585,579585,577956,578868,577957,580051,579385,579385,580051,125
126,test,1,con,1,m,Tue Feb 18 2025 13:23:12 GMT-0500 (Eastern Standard Time),595744.6000000238,zinc,900,I,m,m,None,528,329.0,199.0,114,1,1956.7000000476837,593787.8999999762,9009,zinc,NF,C,581685,581685,580061,580968,580061,582018,581485,581485,582018,126
127,test,1,inc,1,m,Tue Feb 18 2025 13:23:12 GMT-0500 (Eastern Standard Time),597661.3999999762,banana,800,I,m,m,None,565,366.0,199.0,85,1,1907.199999988079,595754.1999999881,9009,silver,NF,C,583552,583552,582027,582835,582028,583935,583352,583352,583934,127
128,test,1,inc,1,z,Tue Feb 18 2025 13:23:12 GMT-0500 (Eastern Standard Time),599761.3000000119,lead,1100,I,z,z,None,461,262.0,199.0,56,1,2091.800000011921,597669.5,9009,kiwi,NF,C,585768,585768,583943,585052,583943,586034,585568,585568,586034,128
