block_c,block_dur,condition,countdown,datetime,endtime,list,multichar_response,project,response,response_time,session_number,start_end,starttime,subject_id,task,task_vers,trial
,,,,Fri Apr 18 2025 12:11:16 GMT-0500 (Central Daylight Time),,,,O,space,331,1,,,7126,WL,B,
prac,,0,,Fri Apr 18 2025 12:11:16 GMT-0500 (Central Daylight Time),,NA,b,O,b,1588,1,,,7126,WL,B,1.0
prac,,0,,Fri Apr 18 2025 12:11:16 GMT-0500 (Central Daylight Time),,NA,bo,O,o,173,1,,,7126,WL,B,1.0
prac,,0,,Fri Apr 18 2025 12:11:16 GMT-0500 (Central Daylight Time),,NA,boo,O,o,118,1,,,7126,WL,B,1.0
prac,,0,,Fri Apr 18 2025 12:11:16 GMT-0500 (Central Daylight Time),,NA,boos,O,s,94,1,,,7126,WL,B,1.0
prac,,0,,Fri Apr 18 2025 12:11:16 GMT-0500 (Central Daylight Time),,NA,boost,O,t,75,1,,,7126,WL,B,1.0
prac,,0,,Fri Apr 18 2025 12:11:16 GMT-0500 (Central Daylight Time),,NA,boostenter,O,enter,1162,1,,,7126,WL,B,1.0
1,1.6660001277923584,learn,58333.99987220764,Fri Apr 18 2025 12:11:16 GMT-0500 (Central Daylight Time),131941.39999999106,A,s,O,s,1646,1,1665.0,130276.39999999106,7126,WL,B,1.0
1,1.8819999694824219,learn,58118.00003051758,Fri Apr 18 2025 12:11:16 GMT-0500 (Central Daylight Time),132157.69999998808,A,st,O,t,207,1,1881.2999999970198,130276.39999999106,7126,WL,B,1.0
1,2.0490000247955322,learn,57950.99997520447,Fri Apr 18 2025 12:11:16 GMT-0500 (Central Daylight Time),132325.19999998808,A,str,O,r,147,1,2048.7999999970198,130276.39999999106,7126,WL,B,1.0
1,2.1650002002716064,learn,57834.99979972839,Fri Apr 18 2025 12:11:16 GMT-0500 (Central Daylight Time),132441.0,A,stre,O,e,92,1,2164.6000000089407,130276.39999999106,7126,WL,B,1.0
1,2.2990000247955322,learn,57700.99997520447,Fri Apr 18 2025 12:11:16 GMT-0500 (Central Daylight Time),132574.5,A,stree,O,e,121,1,2298.1000000089407,130276.39999999106,7126,WL,B,1.0
1,2.5490000247955322,learn,57450.99997520447,Fri Apr 18 2025 12:11:16 GMT-0500 (Central Daylight Time),132824.5,A,street,O,t,237,1,2548.1000000089407,130276.39999999106,7126,WL,B,1.0
1,4.498000144958496,learn,55501.999855041504,Fri Apr 18 2025 12:11:16 GMT-0500 (Central Daylight Time),134773.5,A,streetenter,O,enter,1930,1,4497.100000008941,130276.39999999106,7126,WL,B,1.0
1,5.198000192642212,learn,54801.99980735779,Fri Apr 18 2025 12:11:16 GMT-0500 (Central Daylight Time),135473.39999999106,A,d,O,d,687,1,699.2999999970198,134774.09999999404,7126,WL,B,2.0
1,5.380000114440918,learn,54619.99988555908,Fri Apr 18 2025 12:11:16 GMT-0500 (Central Daylight Time),135656.19999998808,A,do,O,o,171,1,882.0999999940395,134774.09999999404,7126,WL,B,2.0
1,5.5299999713897705,learn,54470.00002861023,Fri Apr 18 2025 12:11:16 GMT-0500 (Central Daylight Time),135806.19999998808,A,doo,O,o,141,1,1032.0999999940395,134774.09999999404,7126,WL,B,2.0
1,5.64900016784668,learn,54350.99983215332,Fri Apr 18 2025 12:11:16 GMT-0500 (Central Daylight Time),135924.89999999106,A,door,O,r,112,1,1150.7999999970198,134774.09999999404,7126,WL,B,2.0
1,5.996999979019165,learn,54003.000020980835,Fri Apr 18 2025 12:11:16 GMT-0500 (Central Daylight Time),136272.89999999106,A,doorenter,O,enter,325,1,1498.7999999970198,134774.09999999404,7126,WL,B,2.0
1,6.38100004196167,learn,53618.99995803833,Fri Apr 18 2025 12:11:16 GMT-0500 (Central Daylight Time),136657.29999999702,A,s,O,s,363,1,384.1000000089407,136273.19999998808,7126,WL,B,3.0
1,6.447000026702881,learn,53552.99997329712,Fri Apr 18 2025 12:11:16 GMT-0500 (Central Daylight Time),136722.29999999702,A,st,O,t,49,1,449.1000000089407,136273.19999998808,7126,WL,B,3.0
1,6.547000169754028,learn,53452.99983024597,Fri Apr 18 2025 12:11:16 GMT-0500 (Central Daylight Time),136822.79999999702,A,sta,O,a,91,1,549.6000000089407,136273.19999998808,7126,WL,B,3.0
1,6.664000034332275,learn,53335.999965667725,Fri Apr 18 2025 12:11:16 GMT-0500 (Central Daylight Time),136939.39999999106,A,star,O,r,101,1,666.2000000029802,136273.19999998808,7126,WL,B,3.0
1,7.114000082015991,learn,52885.99991798401,Fri Apr 18 2025 12:11:16 GMT-0500 (Central Daylight Time),137389.59999999404,A,starenter,O,enter,431,1,1116.4000000059605,136273.19999998808,7126,WL,B,3.0
1,7.680999994277954,learn,52319.000005722046,Fri Apr 18 2025 12:11:16 GMT-0500 (Central Daylight Time),137956.5,A,a,O,a,550,1,566.5,137390.0,7126,WL,B,4.0
1,7.814000129699707,learn,52185.99987030029,Fri Apr 18 2025 12:11:16 GMT-0500 (Central Daylight Time),138090.09999999404,A,ar,O,r,109,1,700.0999999940395,137390.0,7126,WL,B,4.0
1,7.96399998664856,learn,52036.00001335144,Fri Apr 18 2025 12:11:16 GMT-0500 (Central Daylight Time),138240.19999998808,A,arm,O,m,128,1,850.1999999880791,137390.0,7126,WL,B,4.0
1,8.296000003814697,learn,51703.9999961853,Fri Apr 18 2025 12:11:16 GMT-0500 (Central Daylight Time),138572.29999999702,A,armenter,O,enter,323,1,1182.2999999970198,137390.0,7126,WL,B,4.0
1,8.680999994277954,learn,51319.000005722046,Fri Apr 18 2025 12:11:16 GMT-0500 (Central Daylight Time),138957.0,A,w,O,w,378,1,384.40000000596046,138572.59999999404,7126,WL,B,5.0
1,8.746000051498413,learn,51253.99994850159,Fri Apr 18 2025 12:11:16 GMT-0500 (Central Daylight Time),139021.79999999702,A,wi,O,i,45,1,449.20000000298023,138572.59999999404,7126,WL,B,5.0
1,8.913000106811523,learn,51086.99989318848,Fri Apr 18 2025 12:11:16 GMT-0500 (Central Daylight Time),139189.19999998808,A,win,O,n,160,1,616.5999999940395,138572.59999999404,7126,WL,B,5.0
1,8.996999979019165,learn,51003.000020980835,Fri Apr 18 2025 12:11:16 GMT-0500 (Central Daylight Time),139272.39999999106,A,wind,O,d,70,1,699.7999999970198,138572.59999999404,7126,WL,B,5.0
1,9.11300015449524,learn,50886.99984550476,Fri Apr 18 2025 12:11:16 GMT-0500 (Central Daylight Time),139389.09999999404,A,windo,O,o,99,1,816.5,138572.59999999404,7126,WL,B,5.0
1,9.547000169754028,learn,50452.99983024597,Fri Apr 18 2025 12:11:16 GMT-0500 (Central Daylight Time),139823.09999999404,A,window,O,w,424,1,1250.5,138572.59999999404,7126,WL,B,5.0
1,9.813000202178955,learn,50186.999797821045,Fri Apr 18 2025 12:11:16 GMT-0500 (Central Daylight Time),140088.69999998808,A,windowenter,O,enter,251,1,1516.0999999940395,138572.59999999404,7126,WL,B,5.0
1,10.097000122070312,learn,49902.99987792969,Fri Apr 18 2025 12:11:16 GMT-0500 (Central Daylight Time),140372.69999998808,A,g,O,g,278,1,283.69999998807907,140089.0,7126,WL,B,6.0
1,10.263000011444092,learn,49736.99998855591,Fri Apr 18 2025 12:11:16 GMT-0500 (Central Daylight Time),140538.59999999404,A,gr,O,r,147,1,449.59999999403954,140089.0,7126,WL,B,6.0
1,10.311000108718872,learn,49688.99989128113,Fri Apr 18 2025 12:11:16 GMT-0500 (Central Daylight Time),140586.39999999106,A,gra,O,a,40,1,497.3999999910593,140089.0,7126,WL,B,6.0
1,10.446000099182129,learn,49553.99990081787,Fri Apr 18 2025 12:11:16 GMT-0500 (Central Daylight Time),140721.89999999106,A,gras,O,s,114,1,632.8999999910593,140089.0,7126,WL,B,6.0
1,10.59600019454956,learn,49403.99980545044,Fri Apr 18 2025 12:11:16 GMT-0500 (Central Daylight Time),140871.59999999404,A,grass,O,s,128,1,782.5999999940395,140089.0,7126,WL,B,6.0
1,10.946000099182129,learn,49053.99990081787,Fri Apr 18 2025 12:11:16 GMT-0500 (Central Daylight Time),141221.59999999404,A,grassenter,O,enter,331,1,1132.5999999940395,140089.0,7126,WL,B,6.0
1,14.245000123977661,learn,45754.99987602234,Fri Apr 18 2025 12:11:16 GMT-0500 (Central Daylight Time),144520.69999998808,A,d,O,d,3278,1,3298.7999999970198,141221.89999999106,7126,WL,B,7.0
1,14.361000061035156,learn,45638.999938964844,Fri Apr 18 2025 12:11:16 GMT-0500 (Central Daylight Time),144636.69999998808,A,do,O,o,94,1,3414.7999999970198,141221.89999999106,7126,WL,B,7.0
1,14.511000156402588,learn,45488.99984359741,Fri Apr 18 2025 12:11:16 GMT-0500 (Central Daylight Time),144786.69999998808,A,doo,O,o,134,1,3564.7999999970198,141221.89999999106,7126,WL,B,7.0
1,14.59600019454956,learn,45403.99980545044,Fri Apr 18 2025 12:11:16 GMT-0500 (Central Daylight Time),144871.5,A,door,O,r,66,1,3649.6000000089407,141221.89999999106,7126,WL,B,7.0
1,14.894999980926514,learn,45105.000019073486,Fri Apr 18 2025 12:11:16 GMT-0500 (Central Daylight Time),145171.19999998808,A,doorenter,O,enter,284,1,3949.2999999970198,141221.89999999106,7126,WL,B,7.0
1,17.49500012397766,learn,42504.99987602234,Fri Apr 18 2025 12:11:16 GMT-0500 (Central Daylight Time),147770.69999998808,A,a,O,a,2577,1,2599.0999999940395,145171.59999999404,7126,WL,B,8.0
1,17.593000173568726,learn,42406.999826431274,Fri Apr 18 2025 12:11:16 GMT-0500 (Central Daylight Time),147868.89999999106,A,ar,O,r,87,1,2697.2999999970198,145171.59999999404,7126,WL,B,8.0
1,17.694000005722046,learn,42305.999994277954,Fri Apr 18 2025 12:11:16 GMT-0500 (Central Daylight Time),147970.39999999106,A,arm,O,m,86,1,2798.7999999970198,145171.59999999404,7126,WL,B,8.0
1,17.926000118255615,learn,42073.999881744385,Fri Apr 18 2025 12:11:16 GMT-0500 (Central Daylight Time),148202.29999999702,A,armenter,O,enter,224,1,3030.7000000029802,145171.59999999404,7126,WL,B,8.0
1,21.008000135421753,learn,38991.99986457825,Fri Apr 18 2025 12:11:16 GMT-0500 (Central Daylight Time),151284.09999999404,A,s,O,s,3062,1,3081.2000000029802,148202.89999999106,7126,WL,B,9.0
1,21.544000148773193,learn,38455.99985122681,Fri Apr 18 2025 12:11:16 GMT-0500 (Central Daylight Time),151819.79999999702,A,,O,backspace,527,1,3616.9000000059605,148202.89999999106,7126,WL,B,9.0
1,25.290000200271606,learn,34709.99979972839,Fri Apr 18 2025 12:11:16 GMT-0500 (Central Daylight Time),155566.29999999702,A,s,O,s,3736,1,7363.4000000059605,148202.89999999106,7126,WL,B,9.0
1,25.60700011253357,learn,34392.99988746643,Fri Apr 18 2025 12:11:16 GMT-0500 (Central Daylight Time),155883.29999999702,A,st,O,t,302,1,7680.4000000059605,148202.89999999106,7126,WL,B,9.0
1,25.776000022888184,learn,34223.99997711182,Fri Apr 18 2025 12:11:16 GMT-0500 (Central Daylight Time),156051.5,A,str,O,r,152,1,7848.600000008941,148202.89999999106,7126,WL,B,9.0
1,25.873000144958496,learn,34126.999855041504,Fri Apr 18 2025 12:11:16 GMT-0500 (Central Daylight Time),156149.0,A,stre,O,e,88,1,7946.100000008941,148202.89999999106,7126,WL,B,9.0
1,26.058000087738037,learn,33941.99991226196,Fri Apr 18 2025 12:11:16 GMT-0500 (Central Daylight Time),156333.5,A,stree,O,e,163,1,8130.600000008941,148202.89999999106,7126,WL,B,9.0
1,26.45800018310547,learn,33541.99981689453,Fri Apr 18 2025 12:11:16 GMT-0500 (Central Daylight Time),156733.79999999702,A,street,O,t,390,1,8530.90000000596,148202.89999999106,7126,WL,B,9.0
1,26.758000135421753,learn,33241.99986457825,Fri Apr 18 2025 12:11:16 GMT-0500 (Central Daylight Time),157034.19999998808,A,streetenter,O,enter,286,1,8831.29999999702,148202.89999999106,7126,WL,B,9.0
1,60.01400017738342,learn,-14.000177383422852,Fri Apr 18 2025 12:11:16 GMT-0500 (Central Daylight Time),190290.59999999404,A,None,O,None,33250,1,33256.09999999404,157034.5,7126,WL,B,10.0
2,1.4160001277923584,learn,58583.99987220764,Fri Apr 18 2025 12:11:16 GMT-0500 (Central Daylight Time),260834.59999999404,A,s,O,s,1391,1,1415.0,259419.59999999404,7126,WL,B,1.0
2,1.7150001525878906,learn,58284.99984741211,Fri Apr 18 2025 12:11:16 GMT-0500 (Central Daylight Time),261133.89999999106,A,st,O,t,293,1,1714.2999999970198,259419.59999999404,7126,WL,B,1.0
2,1.930999994277954,learn,58069.000005722046,Fri Apr 18 2025 12:11:16 GMT-0500 (Central Daylight Time),261349.89999999106,A,str,O,r,209,1,1930.2999999970198,259419.59999999404,7126,WL,B,1.0
2,2.13100004196167,learn,57868.99995803833,Fri Apr 18 2025 12:11:16 GMT-0500 (Central Daylight Time),261549.19999998808,A,stre,O,e,180,1,2129.5999999940395,259419.59999999404,7126,WL,B,1.0
2,2.265000104904175,learn,57734.999895095825,Fri Apr 18 2025 12:11:16 GMT-0500 (Central Daylight Time),261683.89999999106,A,stree,O,e,124,1,2264.2999999970198,259419.59999999404,7126,WL,B,1.0
2,2.447999954223633,learn,57552.00004577637,Fri Apr 18 2025 12:11:16 GMT-0500 (Central Daylight Time),261866.39999999106,A,street,O,t,175,1,2446.7999999970198,259419.59999999404,7126,WL,B,1.0
2,2.9650001525878906,learn,57034.99984741211,Fri Apr 18 2025 12:11:16 GMT-0500 (Central Daylight Time),262383.799999997,A,streetenter,O,enter,505,1,2964.2000000029802,259419.59999999404,7126,WL,B,1.0
2,4.281000137329102,learn,55718.9998626709,Fri Apr 18 2025 12:11:16 GMT-0500 (Central Daylight Time),263699.6999999881,A,d,O,d,1310,1,1315.5999999940395,262384.09999999404,7126,WL,B,2.0
2,4.531000137329102,learn,55468.9998626709,Fri Apr 18 2025 12:11:16 GMT-0500 (Central Daylight Time),263949.39999999106,A,do,O,o,243,1,1565.2999999970198,262384.09999999404,7126,WL,B,2.0
2,4.680000066757202,learn,55319.9999332428,Fri Apr 18 2025 12:11:16 GMT-0500 (Central Daylight Time),264099.0,A,doo,O,o,136,1,1714.9000000059605,262384.09999999404,7126,WL,B,2.0
2,5.049000024795532,learn,54950.99997520447,Fri Apr 18 2025 12:11:16 GMT-0500 (Central Daylight Time),264467.799999997,A,door,O,r,362,1,2083.7000000029802,262384.09999999404,7126,WL,B,2.0
2,5.496999979019165,learn,54503.000020980835,Fri Apr 18 2025 12:11:16 GMT-0500 (Central Daylight Time),264915.299999997,A,doorenter,O,enter,434,1,2531.2000000029802,262384.09999999404,7126,WL,B,2.0
2,5.947000026702881,learn,54052.99997329712,Fri Apr 18 2025 12:11:16 GMT-0500 (Central Daylight Time),265365.39999999106,A,a,O,a,441,1,449.8999999910593,264915.5,7126,WL,B,3.0
2,6.197000026702881,learn,53802.99997329712,Fri Apr 18 2025 12:11:16 GMT-0500 (Central Daylight Time),265615.1999999881,A,ar,O,r,241,1,699.6999999880791,264915.5,7126,WL,B,3.0
2,6.432000160217285,learn,53567.999839782715,Fri Apr 18 2025 12:11:16 GMT-0500 (Central Daylight Time),265850.89999999106,A,arm,O,m,230,1,935.3999999910593,264915.5,7126,WL,B,3.0
2,6.861999988555908,learn,53138.00001144409,Fri Apr 18 2025 12:11:16 GMT-0500 (Central Daylight Time),266280.39999999106,A,armenter,O,enter,408,1,1364.8999999910593,264915.5,7126,WL,B,3.0
2,7.513000011444092,learn,52486.99998855591,Fri Apr 18 2025 12:11:16 GMT-0500 (Central Daylight Time),266931.39999999106,A,s,O,s,645,1,650.7000000029802,266280.6999999881,7126,WL,B,4.0
2,7.863000154495239,learn,52136.99984550476,Fri Apr 18 2025 12:11:16 GMT-0500 (Central Daylight Time),267281.1999999881,A,st,O,t,330,1,1000.5,266280.6999999881,7126,WL,B,4.0
2,7.979000091552734,learn,52020.999908447266,Fri Apr 18 2025 12:11:16 GMT-0500 (Central Daylight Time),267397.39999999106,A,sta,O,a,109,1,1116.7000000029802,266280.6999999881,7126,WL,B,4.0
2,8.17900013923645,learn,51820.99986076355,Fri Apr 18 2025 12:11:16 GMT-0500 (Central Daylight Time),267597.1999999881,A,star,O,r,190,1,1316.5,266280.6999999881,7126,WL,B,4.0
2,8.545000076293945,learn,51454.999923706055,Fri Apr 18 2025 12:11:16 GMT-0500 (Central Daylight Time),267963.6999999881,A,starenter,O,enter,362,1,1683.0,266280.6999999881,7126,WL,B,4.0
2,8.861999988555908,learn,51138.00001144409,Fri Apr 18 2025 12:11:16 GMT-0500 (Central Daylight Time),268280.39999999106,A,w,O,w,296,1,316.5,267963.89999999106,7126,WL,B,5.0
2,9.061000108718872,learn,50938.99989128113,Fri Apr 18 2025 12:11:16 GMT-0500 (Central Daylight Time),268479.799999997,A,wi,O,i,186,1,515.9000000059605,267963.89999999106,7126,WL,B,5.0
2,9.693000078201294,learn,50306.999921798706,Fri Apr 18 2025 12:11:16 GMT-0500 (Central Daylight Time),269111.6999999881,A,wif,O,f,622,1,1147.7999999970198,267963.89999999106,7126,WL,B,5.0
2,9.945000171661377,learn,50054.99982833862,Fri Apr 18 2025 12:11:16 GMT-0500 (Central Daylight Time),269363.5,A,wife,O,e,246,1,1399.6000000089407,267963.89999999106,7126,WL,B,5.0
2,10.67900013923645,learn,49320.99986076355,Fri Apr 18 2025 12:11:16 GMT-0500 (Central Daylight Time),270097.5,A,wifeenter,O,enter,712,1,2133.6000000089407,267963.89999999106,7126,WL,B,5.0
2,11.42799997329712,learn,48572.00002670288,Fri Apr 18 2025 12:11:16 GMT-0500 (Central Daylight Time),270846.5,A,p,O,p,739,1,748.6000000089407,270097.89999999106,7126,WL,B,6.0
2,11.712000131607056,learn,48287.999868392944,Fri Apr 18 2025 12:11:16 GMT-0500 (Central Daylight Time),271130.1999999881,A,pu,O,u,264,1,1032.2999999970198,270097.89999999106,7126,WL,B,6.0
2,11.978000164031982,learn,48021.99983596802,Fri Apr 18 2025 12:11:16 GMT-0500 (Central Daylight Time),271397.0,A,pup,O,p,255,1,1299.1000000089407,270097.89999999106,7126,WL,B,6.0
2,12.210999965667725,learn,47789.000034332275,Fri Apr 18 2025 12:11:16 GMT-0500 (Central Daylight Time),271629.6999999881,A,pupi,O,i,215,1,1531.7999999970198,270097.89999999106,7126,WL,B,6.0
2,12.562000036239624,learn,47437.999963760376,Fri Apr 18 2025 12:11:16 GMT-0500 (Central Daylight Time),271981.0,A,pupil,O,l,335,1,1883.1000000089407,270097.89999999106,7126,WL,B,6.0
2,12.92799997329712,learn,47072.00002670288,Fri Apr 18 2025 12:11:16 GMT-0500 (Central Daylight Time),272346.299999997,A,pupilenter,O,enter,358,1,2248.4000000059605,270097.89999999106,7126,WL,B,6.0
2,13.42799997329712,learn,46572.00002670288,Fri Apr 18 2025 12:11:16 GMT-0500 (Central Daylight Time),272846.39999999106,A,p,O,p,490,1,500.0,272346.39999999106,7126,WL,B,7.0
2,13.712000131607056,learn,46287.999868392944,Fri Apr 18 2025 12:11:16 GMT-0500 (Central Daylight Time),273130.89999999106,A,pi,O,i,268,1,784.5,272346.39999999106,7126,WL,B,7.0
2,13.945000171661377,learn,46054.99982833862,Fri Apr 18 2025 12:11:16 GMT-0500 (Central Daylight Time),273363.59999999404,A,pip,O,p,219,1,1017.2000000029802,272346.39999999106,7126,WL,B,7.0
2,14.246000051498413,learn,45753.99994850159,Fri Apr 18 2025 12:11:16 GMT-0500 (Central Daylight Time),273664.299999997,A,pipe,O,e,290,1,1317.9000000059605,272346.39999999106,7126,WL,B,7.0
2,15.009999990463257,learn,44990.00000953674,Fri Apr 18 2025 12:11:16 GMT-0500 (Central Daylight Time),274428.299999997,A,pipeenter,O,enter,757,1,2081.9000000059605,272346.39999999106,7126,WL,B,7.0
2,23.555000066757202,learn,36444.9999332428,Fri Apr 18 2025 12:11:16 GMT-0500 (Central Daylight Time),282974.09999999404,A,d,O,d,8528,1,8545.5,274428.59999999404,7126,WL,B,8.0
2,23.707000017166138,learn,36292.99998283386,Fri Apr 18 2025 12:11:16 GMT-0500 (Central Daylight Time),283125.1999999881,A,do,O,o,143,1,8696.59999999404,274428.59999999404,7126,WL,B,8.0
2,23.85700011253357,learn,36142.99988746643,Fri Apr 18 2025 12:11:16 GMT-0500 (Central Daylight Time),283276.09999999404,A,doo,O,o,147,1,8847.5,274428.59999999404,7126,WL,B,8.0
2,23.975000143051147,learn,36024.99985694885,Fri Apr 18 2025 12:11:16 GMT-0500 (Central Daylight Time),283393.09999999404,A,door,O,r,104,1,8964.5,274428.59999999404,7126,WL,B,8.0
2,24.35800004005432,learn,35641.99995994568,Fri Apr 18 2025 12:11:16 GMT-0500 (Central Daylight Time),283776.39999999106,A,doorenter,O,enter,369,1,9347.79999999702,274428.59999999404,7126,WL,B,8.0
2,29.42300009727478,learn,30576.99990272522,Fri Apr 18 2025 12:11:16 GMT-0500 (Central Daylight Time),288842.0,A,l,O,l,5053,1,5065.4000000059605,283776.59999999404,7126,WL,B,9.0
2,29.505000114440918,learn,30494.999885559082,Fri Apr 18 2025 12:11:16 GMT-0500 (Central Daylight Time),288923.299999997,A,la,O,a,65,1,5146.70000000298,283776.59999999404,7126,WL,B,9.0
2,29.824000120162964,learn,30175.999879837036,Fri Apr 18 2025 12:11:16 GMT-0500 (Central Daylight Time),289242.799999997,A,lak,O,k,305,1,5466.20000000298,283776.59999999404,7126,WL,B,9.0
2,29.92200016975403,learn,30077.99983024597,Fri Apr 18 2025 12:11:16 GMT-0500 (Central Daylight Time),289340.5,A,lake,O,e,80,1,5563.9000000059605,283776.59999999404,7126,WL,B,9.0
2,30.240000009536743,learn,29759.999990463257,Fri Apr 18 2025 12:11:16 GMT-0500 (Central Daylight Time),289658.299999997,A,lakeenter,O,enter,303,1,5881.70000000298,283776.59999999404,7126,WL,B,9.0
2,42.00100016593933,learn,17998.99983406067,Fri Apr 18 2025 12:11:16 GMT-0500 (Central Daylight Time),301421.0,A,c,O,c,11747,1,11762.5,289658.5,7126,WL,B,10.0
2,42.15300011634827,learn,17846.999883651733,Fri Apr 18 2025 12:11:16 GMT-0500 (Central Daylight Time),301572.39999999106,A,ca,O,a,135,1,11913.89999999106,289658.5,7126,WL,B,10.0
2,42.35199999809265,learn,17648.00000190735,Fri Apr 18 2025 12:11:16 GMT-0500 (Central Daylight Time),301771.299999997,A,cab,O,b,176,1,12112.79999999702,289658.5,7126,WL,B,10.0
2,42.467000007629395,learn,17532.999992370605,Fri Apr 18 2025 12:11:16 GMT-0500 (Central Daylight Time),301886.1999999881,A,cabi,O,i,95,1,12227.699999988079,289658.5,7126,WL,B,10.0
2,42.61800003051758,learn,17381.999969482422,Fri Apr 18 2025 12:11:16 GMT-0500 (Central Daylight Time),302037.39999999106,A,cabin,O,n,133,1,12378.89999999106,289658.5,7126,WL,B,10.0
2,42.91700005531311,learn,17082.99994468689,Fri Apr 18 2025 12:11:16 GMT-0500 (Central Daylight Time),302336.1999999881,A,cabinenter,O,enter,277,1,12677.699999988079,289658.5,7126,WL,B,10.0
2,60.01300001144409,learn,-13.000011444091797,Fri Apr 18 2025 12:11:16 GMT-0500 (Central Daylight Time),319432.6999999881,A,None,O,None,17092,1,17096.19999998808,302336.5,7126,WL,B,11.0
3,0.9169998168945312,learn,59083.00018310547,Fri Apr 18 2025 12:11:16 GMT-0500 (Central Daylight Time),398207.59999999404,A,f,O,f,898,1,917.2999999970198,397290.299999997,7126,WL,B,1.0
3,1.065999984741211,learn,58934.00001525879,Fri Apr 18 2025 12:11:16 GMT-0500 (Central Daylight Time),398356.5,A,fi,O,i,133,1,1066.2000000029802,397290.299999997,7126,WL,B,1.0
3,1.2149999141693115,learn,58785.00008583069,Fri Apr 18 2025 12:11:16 GMT-0500 (Central Daylight Time),398505.89999999106,A,fir,O,r,137,1,1215.5999999940395,397290.299999997,7126,WL,B,1.0
3,1.246999979019165,learn,58753.000020980835,Fri Apr 18 2025 12:11:16 GMT-0500 (Central Daylight Time),398537.59999999404,A,fire,O,e,26,1,1247.2999999970198,397290.299999997,7126,WL,B,1.0
3,1.8320000171661377,learn,58167.99998283386,Fri Apr 18 2025 12:11:16 GMT-0500 (Central Daylight Time),399122.59999999404,A,fireenter,O,enter,572,1,1832.2999999970198,397290.299999997,7126,WL,B,1.0
3,2.2660000324249268,learn,57733.99996757507,Fri Apr 18 2025 12:11:16 GMT-0500 (Central Daylight Time),399556.39999999106,A,s,O,s,428,1,433.3999999910593,399123.0,7126,WL,B,2.0
3,2.366999864578247,learn,57633.00013542175,Fri Apr 18 2025 12:11:16 GMT-0500 (Central Daylight Time),399657.89999999106,A,sk,O,k,87,1,534.8999999910593,399123.0,7126,WL,B,2.0
3,2.56499981880188,learn,57435.00018119812,Fri Apr 18 2025 12:11:16 GMT-0500 (Central Daylight Time),399855.299999997,A,ski,O,i,185,1,732.2999999970198,399123.0,7126,WL,B,2.0
3,2.7660000324249268,learn,57233.99996757507,Fri Apr 18 2025 12:11:16 GMT-0500 (Central Daylight Time),400056.09999999404,A,skin,O,n,189,1,933.0999999940395,399123.0,7126,WL,B,2.0
3,3.2809998989105225,learn,56719.00010108948,Fri Apr 18 2025 12:11:16 GMT-0500 (Central Daylight Time),400571.6999999881,A,skinenter,O,enter,510,1,1448.699999988079,399123.0,7126,WL,B,2.0
3,4.398999929428101,learn,55601.0000705719,Fri Apr 18 2025 12:11:16 GMT-0500 (Central Daylight Time),401689.09999999404,A,c,O,c,1105,1,1117.0999999940395,400572.0,7126,WL,B,3.0
3,4.56499981880188,learn,55435.00018119812,Fri Apr 18 2025 12:11:16 GMT-0500 (Central Daylight Time),401855.6999999881,A,ca,O,a,156,1,1283.699999988079,400572.0,7126,WL,B,3.0
3,4.730999946594238,learn,55269.00005340576,Fri Apr 18 2025 12:11:16 GMT-0500 (Central Daylight Time),402021.799999997,A,cab,O,b,148,1,1449.7999999970198,400572.0,7126,WL,B,3.0
3,4.832000017166138,learn,55167.99998283386,Fri Apr 18 2025 12:11:16 GMT-0500 (Central Daylight Time),402122.1999999881,A,cabi,O,i,85,1,1550.199999988079,400572.0,7126,WL,B,3.0
3,5.016999959945679,learn,54983.00004005432,Fri Apr 18 2025 12:11:16 GMT-0500 (Central Daylight Time),402307.59999999404,A,cabin,O,n,169,1,1735.5999999940395,400572.0,7126,WL,B,3.0
3,5.348999977111816,learn,54651.00002288818,Fri Apr 18 2025 12:11:16 GMT-0500 (Central Daylight Time),402639.0,A,cabinenter,O,enter,311,1,2067.0,400572.0,7126,WL,B,3.0
3,6.096999883651733,learn,53903.00011634827,Fri Apr 18 2025 12:11:16 GMT-0500 (Central Daylight Time),403387.09999999404,A,d,O,d,742,1,747.7999999970198,402639.299999997,7126,WL,B,4.0
3,6.330999851226807,learn,53669.00014877319,Fri Apr 18 2025 12:11:16 GMT-0500 (Central Daylight Time),403621.6999999881,A,do,O,o,214,1,982.3999999910593,402639.299999997,7126,WL,B,4.0
3,6.496999979019165,learn,53503.000020980835,Fri Apr 18 2025 12:11:16 GMT-0500 (Central Daylight Time),403787.1999999881,A,doo,O,o,148,1,1147.8999999910593,402639.299999997,7126,WL,B,4.0
3,6.628999948501587,learn,53371.00005149841,Fri Apr 18 2025 12:11:16 GMT-0500 (Central Daylight Time),403919.39999999106,A,door,O,r,122,1,1280.0999999940395,402639.299999997,7126,WL,B,4.0
3,6.9629998207092285,learn,53037.00017929077,Fri Apr 18 2025 12:11:16 GMT-0500 (Central Daylight Time),404253.799999997,A,doorenter,O,enter,327,1,1614.5,402639.299999997,7126,WL,B,4.0
3,7.4649999141693115,learn,52535.00008583069,Fri Apr 18 2025 12:11:16 GMT-0500 (Central Daylight Time),404755.799999997,A,s,O,s,487,1,501.6000000089407,404254.1999999881,7126,WL,B,5.0
3,7.648000001907349,learn,52351.99999809265,Fri Apr 18 2025 12:11:16 GMT-0500 (Central Daylight Time),404938.39999999106,A,st,O,t,169,1,684.2000000029802,404254.1999999881,7126,WL,B,5.0
3,7.980000019073486,learn,52019.999980926514,Fri Apr 18 2025 12:11:16 GMT-0500 (Central Daylight Time),405270.299999997,A,str,O,r,322,1,1016.1000000089407,404254.1999999881,7126,WL,B,5.0
3,8.346999883651733,learn,51653.00011634827,Fri Apr 18 2025 12:11:16 GMT-0500 (Central Daylight Time),405637.39999999106,A,stre,O,e,350,1,1383.2000000029802,404254.1999999881,7126,WL,B,5.0
3,8.514999866485596,learn,51485.000133514404,Fri Apr 18 2025 12:11:16 GMT-0500 (Central Daylight Time),405805.6999999881,A,stree,O,e,162,1,1551.5,404254.1999999881,7126,WL,B,5.0
3,8.698999881744385,learn,51301.000118255615,Fri Apr 18 2025 12:11:16 GMT-0500 (Central Daylight Time),405989.5,A,street,O,t,179,1,1735.300000011921,404254.1999999881,7126,WL,B,5.0
3,9.079999923706055,learn,50920.000076293945,Fri Apr 18 2025 12:11:16 GMT-0500 (Central Daylight Time),406370.5,A,streetenter,O,enter,367,1,2116.300000011921,404254.1999999881,7126,WL,B,5.0
3,9.46399998664856,learn,50536.00001335144,Fri Apr 18 2025 12:11:16 GMT-0500 (Central Daylight Time),406755.0,A,g,O,g,362,1,384.20000000298023,406370.799999997,7126,WL,B,6.0
3,9.69700002670288,learn,50302.99997329712,Fri Apr 18 2025 12:11:16 GMT-0500 (Central Daylight Time),406987.5,A,gr,O,r,216,1,616.7000000029802,406370.799999997,7126,WL,B,6.0
3,9.779000043869019,learn,50220.99995613098,Fri Apr 18 2025 12:11:16 GMT-0500 (Central Daylight Time),407069.299999997,A,gra,O,a,72,1,698.5,406370.799999997,7126,WL,B,6.0
3,9.912999868392944,learn,50087.000131607056,Fri Apr 18 2025 12:11:16 GMT-0500 (Central Daylight Time),407203.6999999881,A,gras,O,s,128,1,832.8999999910593,406370.799999997,7126,WL,B,6.0
3,10.096999883651733,learn,49903.00011634827,Fri Apr 18 2025 12:11:16 GMT-0500 (Central Daylight Time),407387.59999999404,A,grass,O,s,169,1,1016.7999999970198,406370.799999997,7126,WL,B,6.0
3,10.52999997138977,learn,49470.00002861023,Fri Apr 18 2025 12:11:16 GMT-0500 (Central Daylight Time),407820.89999999106,A,grassenter,O,enter,415,1,1450.0999999940395,406370.799999997,7126,WL,B,6.0
3,10.929999828338623,learn,49070.00017166138,Fri Apr 18 2025 12:11:16 GMT-0500 (Central Daylight Time),408220.5,A,d,O,d,382,1,399.40000000596046,407821.09999999404,7126,WL,B,7.0
3,11.078999996185303,learn,48921.0000038147,Fri Apr 18 2025 12:11:16 GMT-0500 (Central Daylight Time),408369.59999999404,A,do,O,o,137,1,548.5,407821.09999999404,7126,WL,B,7.0
3,11.246999979019165,learn,48753.000020980835,Fri Apr 18 2025 12:11:16 GMT-0500 (Central Daylight Time),408537.799999997,A,doo,O,o,146,1,716.7000000029802,407821.09999999404,7126,WL,B,7.0
3,11.412999868392944,learn,48587.000131607056,Fri Apr 18 2025 12:11:16 GMT-0500 (Central Daylight Time),408703.39999999106,A,door,O,r,154,1,882.2999999970198,407821.09999999404,7126,WL,B,7.0
3,11.895999908447266,learn,48104.000091552734,Fri Apr 18 2025 12:11:16 GMT-0500 (Central Daylight Time),409186.299999997,A,doorenter,O,enter,463,1,1365.2000000029802,407821.09999999404,7126,WL,B,7.0
3,12.244999885559082,learn,47755.00011444092,Fri Apr 18 2025 12:11:16 GMT-0500 (Central Daylight Time),409535.5,A,a,O,a,339,1,348.90000000596046,409186.59999999404,7126,WL,B,8.0
3,12.462999820709229,learn,47537.00017929077,Fri Apr 18 2025 12:11:16 GMT-0500 (Central Daylight Time),409753.1999999881,A,ar,O,r,213,1,566.5999999940395,409186.59999999404,7126,WL,B,8.0
3,12.679999828338623,learn,47320.00017166138,Fri Apr 18 2025 12:11:16 GMT-0500 (Central Daylight Time),409970.299999997,A,arm,O,m,196,1,783.7000000029802,409186.59999999404,7126,WL,B,8.0
3,13.244999885559082,learn,46755.00011444092,Fri Apr 18 2025 12:11:16 GMT-0500 (Central Daylight Time),410535.5,A,armenter,O,enter,546,1,1348.9000000059605,409186.59999999404,7126,WL,B,8.0
3,13.678999900817871,learn,46321.00009918213,Fri Apr 18 2025 12:11:16 GMT-0500 (Central Daylight Time),410969.6999999881,A,p,O,p,412,1,433.8999999910593,410535.799999997,7126,WL,B,9.0
3,13.894999980926514,learn,46105.000019073486,Fri Apr 18 2025 12:11:16 GMT-0500 (Central Daylight Time),411185.799999997,A,pu,O,u,194,1,650.0,410535.799999997,7126,WL,B,9.0
3,14.044999837875366,learn,45955.000162124634,Fri Apr 18 2025 12:11:16 GMT-0500 (Central Daylight Time),411335.5,A,pup,O,p,139,1,799.7000000029802,410535.799999997,7126,WL,B,9.0
3,14.544999837875366,learn,45455.000162124634,Fri Apr 18 2025 12:11:16 GMT-0500 (Central Daylight Time),411835.59999999404,A,pupi,O,i,485,1,1299.7999999970198,410535.799999997,7126,WL,B,9.0
3,14.810999870300293,learn,45189.00012969971,Fri Apr 18 2025 12:11:16 GMT-0500 (Central Daylight Time),412101.5,A,pupil,O,l,258,1,1565.7000000029802,410535.799999997,7126,WL,B,9.0
3,15.878000020980835,learn,44121.999979019165,Fri Apr 18 2025 12:11:16 GMT-0500 (Central Daylight Time),413168.299999997,A,pupilenter,O,enter,1055,1,2632.5,410535.799999997,7126,WL,B,9.0
3,20.45899987220764,learn,39541.00012779236,Fri Apr 18 2025 12:11:16 GMT-0500 (Central Daylight Time),417750.1999999881,A,w,O,w,4564,1,4581.5999999940395,413168.59999999404,7126,WL,B,10.0
3,20.542999982833862,learn,39457.00001716614,Fri Apr 18 2025 12:11:16 GMT-0500 (Central Daylight Time),417834.1999999881,A,wi,O,i,60,1,4665.5999999940395,413168.59999999404,7126,WL,B,10.0
3,20.692999839782715,learn,39307.000160217285,Fri Apr 18 2025 12:11:16 GMT-0500 (Central Daylight Time),417984.1999999881,A,win,O,n,138,1,4815.5999999940395,413168.59999999404,7126,WL,B,10.0
3,20.792999982833862,learn,39207.00001716614,Fri Apr 18 2025 12:11:16 GMT-0500 (Central Daylight Time),418084.299999997,A,wind,O,d,85,1,4915.70000000298,413168.59999999404,7126,WL,B,10.0
3,20.90999984741211,learn,39090.00015258789,Fri Apr 18 2025 12:11:16 GMT-0500 (Central Daylight Time),418201.09999999404,A,windo,O,o,104,1,5032.5,413168.59999999404,7126,WL,B,10.0
3,21.092999935150146,learn,38907.00006484985,Fri Apr 18 2025 12:11:16 GMT-0500 (Central Daylight Time),418384.0,A,window,O,w,161,1,5215.4000000059605,413168.59999999404,7126,WL,B,10.0
3,21.473999977111816,learn,38526.00002288818,Fri Apr 18 2025 12:11:16 GMT-0500 (Central Daylight Time),418765.799999997,A,windowenter,O,enter,372,1,5597.20000000298,413168.59999999404,7126,WL,B,10.0
3,27.68999981880188,learn,32310.00018119812,Fri Apr 18 2025 12:11:16 GMT-0500 (Central Daylight Time),424981.799999997,A,p,O,p,6199,1,6215.79999999702,418766.0,7126,WL,B,11.0
3,27.807999849319458,learn,32192.000150680542,Fri Apr 18 2025 12:11:16 GMT-0500 (Central Daylight Time),425099.1999999881,A,pi,O,i,102,1,6333.199999988079,418766.0,7126,WL,B,11.0
3,27.95799994468689,learn,32042.00005531311,Fri Apr 18 2025 12:11:16 GMT-0500 (Central Daylight Time),425249.299999997,A,pip,O,p,130,1,6483.29999999702,418766.0,7126,WL,B,11.0
3,28.27300000190735,learn,31726.99999809265,Fri Apr 18 2025 12:11:16 GMT-0500 (Central Daylight Time),425564.0,A,pipe,O,e,295,1,6798.0,418766.0,7126,WL,B,11.0
3,28.674000024795532,learn,31325.999975204468,Fri Apr 18 2025 12:11:16 GMT-0500 (Central Daylight Time),425965.0,A,pipeenter,O,enter,384,1,7199.0,418766.0,7126,WL,B,11.0
3,29.52300000190735,learn,30476.99999809265,Fri Apr 18 2025 12:11:16 GMT-0500 (Central Daylight Time),426814.09999999404,A,c,O,c,831,1,848.7000000029802,425965.39999999106,7126,WL,B,12.0
3,29.60699987411499,learn,30393.00012588501,Fri Apr 18 2025 12:11:16 GMT-0500 (Central Daylight Time),426898.0,A,ci,O,i,78,1,932.6000000089407,425965.39999999106,7126,WL,B,12.0
3,29.722999811172485,learn,30277.000188827515,Fri Apr 18 2025 12:11:16 GMT-0500 (Central Daylight Time),427014.89999999106,A,cit,O,t,97,1,1049.5,425965.39999999106,7126,WL,B,12.0
3,29.83999991416931,learn,30160.00008583069,Fri Apr 18 2025 12:11:16 GMT-0500 (Central Daylight Time),427131.09999999404,A,city,O,y,108,1,1165.7000000029802,425965.39999999106,7126,WL,B,12.0
3,30.240999937057495,learn,29759.000062942505,Fri Apr 18 2025 12:11:16 GMT-0500 (Central Daylight Time),427532.6999999881,A,cityenter,O,enter,393,1,1567.2999999970198,425965.39999999106,7126,WL,B,12.0
3,40.36899995803833,learn,19631.00004196167,Fri Apr 18 2025 12:11:16 GMT-0500 (Central Daylight Time),437660.5,A,f,O,f,10112,1,10127.5,427533.0,7126,WL,B,13.0
3,40.50399994850159,learn,19496.000051498413,Fri Apr 18 2025 12:11:16 GMT-0500 (Central Daylight Time),437794.89999999106,A,fi,O,i,130,1,10261.89999999106,427533.0,7126,WL,B,13.0
3,40.585999965667725,learn,19414.000034332275,Fri Apr 18 2025 12:11:16 GMT-0500 (Central Daylight Time),437877.39999999106,A,fir,O,r,63,1,10344.39999999106,427533.0,7126,WL,B,13.0
3,40.668999910354614,learn,19331.000089645386,Fri Apr 18 2025 12:11:16 GMT-0500 (Central Daylight Time),437960.1999999881,A,fire,O,e,69,1,10427.199999988079,427533.0,7126,WL,B,13.0
3,41.103999853134155,learn,18896.000146865845,Fri Apr 18 2025 12:11:16 GMT-0500 (Central Daylight Time),438394.89999999106,A,fireenter,O,enter,430,1,10861.89999999106,427533.0,7126,WL,B,13.0
3,56.08099985122681,learn,3919.0001487731934,Fri Apr 18 2025 12:11:16 GMT-0500 (Central Daylight Time),453372.0,A,s,O,s,14970,1,14976.90000000596,438395.09999999404,7126,WL,B,14.0
3,56.49799990653992,learn,3502.000093460083,Fri Apr 18 2025 12:11:16 GMT-0500 (Central Daylight Time),453789.299999997,A,st,O,t,399,1,15394.20000000298,438395.09999999404,7126,WL,B,14.0
3,56.64800000190735,learn,3351.9999980926514,Fri Apr 18 2025 12:11:16 GMT-0500 (Central Daylight Time),453939.5,A,str,O,r,136,1,15544.40000000596,438395.09999999404,7126,WL,B,14.0
3,56.74799990653992,learn,3252.000093460083,Fri Apr 18 2025 12:11:16 GMT-0500 (Central Daylight Time),454039.39999999106,A,stra,O,a,79,1,15644.29999999702,438395.09999999404,7126,WL,B,14.0
3,56.88199996948242,learn,3118.000030517578,Fri Apr 18 2025 12:11:16 GMT-0500 (Central Daylight Time),454173.5,A,straw,O,w,115,1,15778.40000000596,438395.09999999404,7126,WL,B,14.0
3,57.312999963760376,learn,2687.000036239624,Fri Apr 18 2025 12:11:16 GMT-0500 (Central Daylight Time),454604.39999999106,A,stra,O,backspace,422,1,16209.29999999702,438395.09999999404,7126,WL,B,14.0
3,57.48199987411499,learn,2518.0001258850098,Fri Apr 18 2025 12:11:16 GMT-0500 (Central Daylight Time),454773.09999999404,A,str,O,backspace,151,1,16378.0,438395.09999999404,7126,WL,B,14.0
3,57.63100004196167,learn,2368.99995803833,Fri Apr 18 2025 12:11:16 GMT-0500 (Central Daylight Time),454922.5,A,st,O,backspace,133,1,16527.40000000596,438395.09999999404,7126,WL,B,14.0
3,57.71399998664856,learn,2286.0000133514404,Fri Apr 18 2025 12:11:16 GMT-0500 (Central Daylight Time),455005.09999999404,A,sta,O,a,59,1,16610.0,438395.09999999404,7126,WL,B,14.0
3,57.81399989128113,learn,2186.000108718872,Fri Apr 18 2025 12:11:16 GMT-0500 (Central Daylight Time),455105.6999999881,A,star,O,r,86,1,16710.59999999404,438395.09999999404,7126,WL,B,14.0
3,58.09599995613098,learn,1904.0000438690186,Fri Apr 18 2025 12:11:16 GMT-0500 (Central Daylight Time),455387.5,A,starenter,O,enter,265,1,16992.40000000596,438395.09999999404,7126,WL,B,14.0
3,60.01300001144409,learn,-13.000011444091797,Fri Apr 18 2025 12:11:16 GMT-0500 (Central Daylight Time),457304.1999999881,A,None,O,None,1911,1,1916.3999999910593,455387.799999997,7126,WL,B,15.0
4,0.6659998893737793,learn,59334.00011062622,Fri Apr 18 2025 12:11:16 GMT-0500 (Central Daylight Time),541076.6999999881,A,s,O,s,656,1,665.0,540411.6999999881,7126,WL,B,1.0
4,0.9009997844696045,learn,59099.000215530396,Fri Apr 18 2025 12:11:16 GMT-0500 (Central Daylight Time),541311.6999999881,A,st,O,t,214,1,900.0,540411.6999999881,7126,WL,B,1.0
4,1.065999984741211,learn,58934.00001525879,Fri Apr 18 2025 12:11:16 GMT-0500 (Central Daylight Time),541476.6999999881,A,str,O,r,156,1,1065.0,540411.6999999881,7126,WL,B,1.0
4,1.1669998168945312,learn,58833.00018310547,Fri Apr 18 2025 12:11:16 GMT-0500 (Central Daylight Time),541577.599999994,A,stre,O,e,87,1,1165.9000000059605,540411.6999999881,7126,WL,B,1.0
4,1.316999912261963,learn,58683.00008773804,Fri Apr 18 2025 12:11:16 GMT-0500 (Central Daylight Time),541728.5,A,stree,O,e,131,1,1316.800000011921,540411.6999999881,7126,WL,B,1.0
4,1.6009998321533203,learn,58399.00016784668,Fri Apr 18 2025 12:11:16 GMT-0500 (Central Daylight Time),542011.599999994,A,street,O,t,268,1,1599.9000000059605,540411.6999999881,7126,WL,B,1.0
4,2.2170000076293945,learn,57782.999992370605,Fri Apr 18 2025 12:11:16 GMT-0500 (Central Daylight Time),542628.0,A,streetenter,O,enter,607,1,2216.300000011921,540411.6999999881,7126,WL,B,1.0
4,2.817999839782715,learn,57182.000160217285,Fri Apr 18 2025 12:11:16 GMT-0500 (Central Daylight Time),543228.799999997,A,d,O,d,595,1,600.4000000059605,542628.3999999911,7126,WL,B,2.0
4,3.2339999675750732,learn,56766.00003242493,Fri Apr 18 2025 12:11:16 GMT-0500 (Central Daylight Time),543644.599999994,A,do,O,o,409,1,1016.2000000029802,542628.3999999911,7126,WL,B,2.0
4,3.382999897003174,learn,56617.000102996826,Fri Apr 18 2025 12:11:16 GMT-0500 (Central Daylight Time),543793.599999994,A,doo,O,o,135,1,1165.2000000029802,542628.3999999911,7126,WL,B,2.0
4,3.566999912261963,learn,56433.00008773804,Fri Apr 18 2025 12:11:16 GMT-0500 (Central Daylight Time),543978.3999999911,A,door,O,r,162,1,1350.0,542628.3999999911,7126,WL,B,2.0
4,4.164999961853027,learn,55835.00003814697,Fri Apr 18 2025 12:11:16 GMT-0500 (Central Daylight Time),544576.1999999881,A,doorenter,O,enter,585,1,1947.7999999970198,542628.3999999911,7126,WL,B,2.0
4,4.665999889373779,learn,55334.00011062622,Fri Apr 18 2025 12:11:16 GMT-0500 (Central Daylight Time),545077.5,A,a,O,a,496,1,501.0,544576.5,7126,WL,B,3.0
4,4.983999967575073,learn,55016.00003242493,Fri Apr 18 2025 12:11:16 GMT-0500 (Central Daylight Time),545395.099999994,A,ar,O,r,301,1,818.5999999940395,544576.5,7126,WL,B,3.0
4,5.248999834060669,learn,54751.00016593933,Fri Apr 18 2025 12:11:16 GMT-0500 (Central Daylight Time),545659.799999997,A,arm,O,m,251,1,1083.2999999970198,544576.5,7126,WL,B,3.0
4,5.766999959945679,learn,54233.00004005432,Fri Apr 18 2025 12:11:16 GMT-0500 (Central Daylight Time),546177.6999999881,A,armenter,O,enter,512,1,1601.199999988079,544576.5,7126,WL,B,3.0
4,6.082000017166138,learn,53917.99998283386,Fri Apr 18 2025 12:11:16 GMT-0500 (Central Daylight Time),546493.3999999911,A,g,O,g,307,1,315.3999999910593,546178.0,7126,WL,B,4.0
4,6.281999826431274,learn,53718.000173568726,Fri Apr 18 2025 12:11:16 GMT-0500 (Central Daylight Time),546693.1999999881,A,gr,O,r,178,1,515.1999999880791,546178.0,7126,WL,B,4.0
4,6.347999811172485,learn,53652.000188827515,Fri Apr 18 2025 12:11:16 GMT-0500 (Central Daylight Time),546759.5,A,gra,O,a,44,1,581.5,546178.0,7126,WL,B,4.0
4,6.448999881744385,learn,53551.000118255615,Fri Apr 18 2025 12:11:16 GMT-0500 (Central Daylight Time),546860.3999999911,A,gras,O,s,93,1,682.3999999910593,546178.0,7126,WL,B,4.0
4,6.648999929428101,learn,53351.0000705719,Fri Apr 18 2025 12:11:16 GMT-0500 (Central Daylight Time),547059.6999999881,A,grass,O,s,183,1,881.6999999880791,546178.0,7126,WL,B,4.0
4,7.048999786376953,learn,52951.00021362305,Fri Apr 18 2025 12:11:16 GMT-0500 (Central Daylight Time),547459.599999994,A,grassenter,O,enter,385,1,1281.5999999940395,546178.0,7126,WL,B,4.0
4,7.330999851226807,learn,52669.00014877319,Fri Apr 18 2025 12:11:16 GMT-0500 (Central Daylight Time),547742.099999994,A,s,O,s,273,1,282.20000000298023,547459.8999999911,7126,WL,B,5.0
4,7.497999906539917,learn,52502.00009346008,Fri Apr 18 2025 12:11:16 GMT-0500 (Central Daylight Time),547909.0,A,st,O,t,151,1,449.1000000089407,547459.8999999911,7126,WL,B,5.0
4,7.596999883651733,learn,52403.00011634827,Fri Apr 18 2025 12:11:16 GMT-0500 (Central Daylight Time),548008.299999997,A,sta,O,a,79,1,548.4000000059605,547459.8999999911,7126,WL,B,5.0
4,7.7129998207092285,learn,52287.00017929077,Fri Apr 18 2025 12:11:16 GMT-0500 (Central Daylight Time),548124.299999997,A,star,O,r,99,1,664.4000000059605,547459.8999999911,7126,WL,B,5.0
4,8.530999898910522,learn,51469.00010108948,Fri Apr 18 2025 12:11:16 GMT-0500 (Central Daylight Time),548942.0,A,starenter,O,enter,807,1,1482.1000000089407,547459.8999999911,7126,WL,B,5.0
4,9.597999811172485,learn,50402.000188827515,Fri Apr 18 2025 12:11:16 GMT-0500 (Central Daylight Time),550009.099999994,A,c,O,c,1046,1,1066.9000000059605,548942.1999999881,7126,WL,B,6.0
4,9.712999820709229,learn,50287.00017929077,Fri Apr 18 2025 12:11:16 GMT-0500 (Central Daylight Time),550124.3999999911,A,ci,O,i,107,1,1182.2000000029802,548942.1999999881,7126,WL,B,6.0
4,9.848999977111816,learn,50151.00002288818,Fri Apr 18 2025 12:11:16 GMT-0500 (Central Daylight Time),550259.799999997,A,cit,O,t,129,1,1317.6000000089407,548942.1999999881,7126,WL,B,6.0
4,9.996999979019165,learn,50003.000020980835,Fri Apr 18 2025 12:11:16 GMT-0500 (Central Daylight Time),550408.1999999881,A,city,O,y,136,1,1466.0,548942.1999999881,7126,WL,B,6.0
4,10.413999795913696,learn,49586.000204086304,Fri Apr 18 2025 12:11:16 GMT-0500 (Central Daylight Time),550825.1999999881,A,cityenter,O,enter,404,1,1883.0,548942.1999999881,7126,WL,B,6.0
4,11.063999891281128,learn,48936.00010871887,Fri Apr 18 2025 12:11:16 GMT-0500 (Central Daylight Time),551474.6999999881,A,c,O,c,637,1,649.1999999880791,550825.5,7126,WL,B,7.0
4,11.196999788284302,learn,48803.0002117157,Fri Apr 18 2025 12:11:16 GMT-0500 (Central Daylight Time),551608.3999999911,A,ca,O,a,122,1,782.8999999910593,550825.5,7126,WL,B,7.0
4,11.38099980354309,learn,48619.00019645691,Fri Apr 18 2025 12:11:16 GMT-0500 (Central Daylight Time),551791.799999997,A,cab,O,b,174,1,966.2999999970198,550825.5,7126,WL,B,7.0
4,11.480999946594238,learn,48519.00005340576,Fri Apr 18 2025 12:11:16 GMT-0500 (Central Daylight Time),551892.0,A,cabi,O,i,95,1,1066.5,550825.5,7126,WL,B,7.0
4,11.69599986076355,learn,48304.00013923645,Fri Apr 18 2025 12:11:16 GMT-0500 (Central Daylight Time),552107.099999994,A,cabin,O,n,198,1,1281.5999999940395,550825.5,7126,WL,B,7.0
4,12.328999996185303,learn,47671.0000038147,Fri Apr 18 2025 12:11:16 GMT-0500 (Central Daylight Time),552739.8999999911,A,cabinenter,O,enter,616,1,1914.3999999910593,550825.5,7126,WL,B,7.0
4,12.829999923706055,learn,47170.000076293945,Fri Apr 18 2025 12:11:16 GMT-0500 (Central Daylight Time),553240.599999994,A,p,O,p,480,1,500.5,552740.099999994,7126,WL,B,8.0
4,13.02899980545044,learn,46971.00019454956,Fri Apr 18 2025 12:11:16 GMT-0500 (Central Daylight Time),553440.3999999911,A,pu,O,u,179,1,700.2999999970198,552740.099999994,7126,WL,B,8.0
4,13.178999900817871,learn,46821.00009918213,Fri Apr 18 2025 12:11:16 GMT-0500 (Central Daylight Time),553589.799999997,A,pup,O,p,132,1,849.7000000029802,552740.099999994,7126,WL,B,8.0
4,13.345999956130981,learn,46654.00004386902,Fri Apr 18 2025 12:11:16 GMT-0500 (Central Daylight Time),553756.799999997,A,pupi,O,i,145,1,1016.7000000029802,552740.099999994,7126,WL,B,8.0
4,13.729999780654907,learn,46270.00021934509,Fri Apr 18 2025 12:11:16 GMT-0500 (Central Daylight Time),554140.799999997,A,pupil,O,l,373,1,1400.7000000029802,552740.099999994,7126,WL,B,8.0
4,14.328999996185303,learn,45671.0000038147,Fri Apr 18 2025 12:11:16 GMT-0500 (Central Daylight Time),554740.0,A,pupilenter,O,enter,582,1,1999.9000000059605,552740.099999994,7126,WL,B,8.0
4,14.828999996185303,learn,45171.0000038147,Fri Apr 18 2025 12:11:16 GMT-0500 (Central Daylight Time),555239.599999994,A,l,O,l,489,1,499.29999999701977,554740.299999997,7126,WL,B,9.0
4,14.978999853134155,learn,45021.000146865845,Fri Apr 18 2025 12:11:16 GMT-0500 (Central Daylight Time),555390.299999997,A,la,O,a,133,1,650.0,554740.299999997,7126,WL,B,9.0
4,15.144999980926514,learn,44855.000019073486,Fri Apr 18 2025 12:11:16 GMT-0500 (Central Daylight Time),555556.3999999911,A,lak,O,k,150,1,816.0999999940395,554740.299999997,7126,WL,B,9.0
4,15.312999963760376,learn,44687.000036239624,Fri Apr 18 2025 12:11:16 GMT-0500 (Central Daylight Time),555723.6999999881,A,lakw,O,w,162,1,983.3999999910593,554740.299999997,7126,WL,B,9.0
4,15.94599986076355,learn,44054.00013923645,Fri Apr 18 2025 12:11:16 GMT-0500 (Central Daylight Time),556356.6999999881,A,lak,O,backspace,616,1,1616.3999999910593,554740.299999997,7126,WL,B,9.0
4,16.111999988555908,learn,43888.00001144409,Fri Apr 18 2025 12:11:16 GMT-0500 (Central Daylight Time),556523.299999997,A,lake,O,e,152,1,1783.0,554740.299999997,7126,WL,B,9.0
4,16.42799997329712,learn,43572.00002670288,Fri Apr 18 2025 12:11:16 GMT-0500 (Central Daylight Time),556839.599999994,A,lakeenter,O,enter,296,1,2099.2999999970198,554740.299999997,7126,WL,B,9.0
4,16.97699999809265,learn,43023.00000190735,Fri Apr 18 2025 12:11:16 GMT-0500 (Central Daylight Time),557388.5,A,w,O,w,544,1,548.7000000029802,556839.799999997,7126,WL,B,10.0
4,17.111999988555908,learn,42888.00001144409,Fri Apr 18 2025 12:11:16 GMT-0500 (Central Daylight Time),557522.6999999881,A,wi,O,i,119,1,682.8999999910593,556839.799999997,7126,WL,B,10.0
4,17.310999870300293,learn,42689.00012969971,Fri Apr 18 2025 12:11:16 GMT-0500 (Central Daylight Time),557722.5,A,win,O,n,185,1,882.7000000029802,556839.799999997,7126,WL,B,10.0
4,17.76199984550476,learn,42238.00015449524,Fri Apr 18 2025 12:11:16 GMT-0500 (Central Daylight Time),558172.799999997,A,wind,O,d,428,1,1333.0,556839.799999997,7126,WL,B,10.0
4,17.877999782562256,learn,42122.000217437744,Fri Apr 18 2025 12:11:16 GMT-0500 (Central Daylight Time),558289.5,A,windo,O,o,102,1,1449.7000000029802,556839.799999997,7126,WL,B,10.0
4,18.01099991798401,learn,41989.00008201599,Fri Apr 18 2025 12:11:16 GMT-0500 (Central Daylight Time),558421.799999997,A,window,O,w,122,1,1582.0,556839.799999997,7126,WL,B,10.0
4,18.294999837875366,learn,41705.000162124634,Fri Apr 18 2025 12:11:16 GMT-0500 (Central Daylight Time),558705.599999994,A,windowenter,O,enter,264,1,1865.7999999970198,556839.799999997,7126,WL,B,10.0
4,18.8439998626709,learn,41156.0001373291,Fri Apr 18 2025 12:11:16 GMT-0500 (Central Daylight Time),559255.1999999881,A,p,O,p,531,1,549.2999999970198,558705.8999999911,7126,WL,B,11.0
4,19.060999870300293,learn,40939.00012969971,Fri Apr 18 2025 12:11:16 GMT-0500 (Central Daylight Time),559472.3999999911,A,pi,O,i,207,1,766.5,558705.8999999911,7126,WL,B,11.0
4,19.209999799728394,learn,40790.00020027161,Fri Apr 18 2025 12:11:16 GMT-0500 (Central Daylight Time),559621.5,A,pip,O,p,140,1,915.6000000089407,558705.8999999911,7126,WL,B,11.0
4,19.694999933242798,learn,40305.0000667572,Fri Apr 18 2025 12:11:16 GMT-0500 (Central Daylight Time),560106.099999994,A,pipe,O,e,479,1,1400.2000000029802,558705.8999999911,7126,WL,B,11.0
4,21.20899987220764,learn,38791.00012779236,Fri Apr 18 2025 12:11:16 GMT-0500 (Central Daylight Time),561620.3999999911,A,pipeenter,O,enter,1498,1,2914.5,558705.8999999911,7126,WL,B,11.0
4,21.727999925613403,learn,38272.0000743866,Fri Apr 18 2025 12:11:16 GMT-0500 (Central Daylight Time),562138.6999999881,A,f,O,f,512,1,518.0999999940395,561620.599999994,7126,WL,B,12.0
4,21.859999895095825,learn,38140.000104904175,Fri Apr 18 2025 12:11:16 GMT-0500 (Central Daylight Time),562270.6999999881,A,fi,O,i,113,1,650.0999999940395,561620.599999994,7126,WL,B,12.0
4,21.960999965667725,learn,38039.000034332275,Fri Apr 18 2025 12:11:16 GMT-0500 (Central Daylight Time),562372.1999999881,A,fir,O,r,95,1,751.5999999940395,561620.599999994,7126,WL,B,12.0
4,22.05900001525879,learn,37940.99998474121,Fri Apr 18 2025 12:11:16 GMT-0500 (Central Daylight Time),562470.099999994,A,fire,O,e,78,1,849.5,561620.599999994,7126,WL,B,12.0
4,22.625999927520752,learn,37374.00007247925,Fri Apr 18 2025 12:11:16 GMT-0500 (Central Daylight Time),563036.8999999911,A,fireenter,O,enter,549,1,1416.2999999970198,561620.599999994,7126,WL,B,12.0
4,60.013999938964844,learn,-13.99993896484375,Fri Apr 18 2025 12:11:16 GMT-0500 (Central Daylight Time),600426.099999994,A,None,O,None,37384,1,37388.90000000596,563037.1999999881,7126,WL,B,13.0
5,0.46399998664855957,learn,60000.0,Fri Apr 18 2025 12:11:16 GMT-0500 (Central Daylight Time),675467.5,A,s,O,s,449,1,463.6000000089407,675003.8999999911,7126,WL,B,1.0
5,0.6490001678466797,learn,60000.0,Fri Apr 18 2025 12:11:16 GMT-0500 (Central Daylight Time),675652.6999999881,A,st,O,t,177,1,648.7999999970198,675003.8999999911,7126,WL,B,1.0
5,0.814000129699707,learn,60000.0,Fri Apr 18 2025 12:11:16 GMT-0500 (Central Daylight Time),675817.5,A,str,O,r,151,1,813.6000000089407,675003.8999999911,7126,WL,B,1.0
5,0.9140000343322754,learn,60000.0,Fri Apr 18 2025 12:11:16 GMT-0500 (Central Daylight Time),675917.599999994,A,stre,O,e,89,1,913.7000000029802,675003.8999999911,7126,WL,B,1.0
5,1.065000057220459,learn,60000.0,Fri Apr 18 2025 12:11:16 GMT-0500 (Central Daylight Time),676068.799999997,A,stree,O,e,144,1,1064.9000000059605,675003.8999999911,7126,WL,B,1.0
5,1.248000144958496,learn,60000.0,Fri Apr 18 2025 12:11:16 GMT-0500 (Central Daylight Time),676251.8999999911,A,street,O,t,175,1,1248.0,675003.8999999911,7126,WL,B,1.0
5,1.7139999866485596,learn,60000.0,Fri Apr 18 2025 12:11:16 GMT-0500 (Central Daylight Time),676717.299999997,A,streetenter,O,enter,449,1,1713.4000000059605,675003.8999999911,7126,WL,B,1.0
5,2.199000120162964,learn,60000.0,Fri Apr 18 2025 12:11:16 GMT-0500 (Central Daylight Time),677202.5,A,d,O,d,473,1,484.90000000596046,676717.599999994,7126,WL,B,2.0
5,2.364000082015991,learn,60000.0,Fri Apr 18 2025 12:11:16 GMT-0500 (Central Daylight Time),677367.799999997,A,do,O,o,146,1,650.2000000029802,676717.599999994,7126,WL,B,2.0
5,2.5310001373291016,learn,60000.0,Fri Apr 18 2025 12:11:16 GMT-0500 (Central Daylight Time),677535.0,A,dor,O,r,147,1,817.4000000059605,676717.599999994,7126,WL,B,2.0
5,2.680999994277954,learn,60000.0,Fri Apr 18 2025 12:11:16 GMT-0500 (Central Daylight Time),677684.6999999881,A,dorr,O,r,132,1,967.0999999940395,676717.599999994,7126,WL,B,2.0
5,3.2970001697540283,learn,60000.0,Fri Apr 18 2025 12:11:16 GMT-0500 (Central Daylight Time),678300.799999997,A,dor,O,backspace,608,1,1583.2000000029802,676717.599999994,7126,WL,B,2.0
5,3.4639999866485596,learn,60000.0,Fri Apr 18 2025 12:11:16 GMT-0500 (Central Daylight Time),678468.099999994,A,do,O,backspace,150,1,1750.5,676717.599999994,7126,WL,B,2.0
5,3.6640000343322754,learn,60000.0,Fri Apr 18 2025 12:11:16 GMT-0500 (Central Daylight Time),678667.5,A,doo,O,o,189,1,1949.9000000059605,676717.599999994,7126,WL,B,2.0
5,3.7810001373291016,learn,60000.0,Fri Apr 18 2025 12:11:16 GMT-0500 (Central Daylight Time),678784.8999999911,A,door,O,r,96,1,2067.2999999970198,676717.599999994,7126,WL,B,2.0
5,4.130000114440918,learn,60000.0,Fri Apr 18 2025 12:11:16 GMT-0500 (Central Daylight Time),679133.6999999881,A,doorenter,O,enter,339,1,2416.0999999940395,676717.599999994,7126,WL,B,2.0
5,4.397000074386597,learn,60000.0,Fri Apr 18 2025 12:11:16 GMT-0500 (Central Daylight Time),679400.8999999911,A,a,O,a,256,1,267.0,679133.8999999911,7126,WL,B,3.0
5,4.562999963760376,learn,60000.0,Fri Apr 18 2025 12:11:16 GMT-0500 (Central Daylight Time),679566.6999999881,A,ar,O,r,148,1,432.79999999701977,679133.8999999911,7126,WL,B,3.0
5,4.730000019073486,learn,60000.0,Fri Apr 18 2025 12:11:16 GMT-0500 (Central Daylight Time),679734.1999999881,A,arm,O,m,158,1,600.2999999970198,679133.8999999911,7126,WL,B,3.0
5,5.546000003814697,learn,60000.0,Fri Apr 18 2025 12:11:16 GMT-0500 (Central Daylight Time),680549.799999997,A,armenter,O,enter,796,1,1415.9000000059605,679133.8999999911,7126,WL,B,3.0
5,5.811000108718872,learn,60000.0,Fri Apr 18 2025 12:11:16 GMT-0500 (Central Daylight Time),680814.6999999881,A,s,O,s,246,1,264.69999998807907,680550.0,7126,WL,B,4.0
5,5.962000131607056,learn,60000.0,Fri Apr 18 2025 12:11:16 GMT-0500 (Central Daylight Time),680965.599999994,A,st,O,t,135,1,415.59999999403954,680550.0,7126,WL,B,4.0
5,6.113000154495239,learn,60000.0,Fri Apr 18 2025 12:11:16 GMT-0500 (Central Daylight Time),681116.599999994,A,sta,O,a,138,1,566.5999999940395,680550.0,7126,WL,B,4.0
5,6.3459999561309814,learn,60000.0,Fri Apr 18 2025 12:11:16 GMT-0500 (Central Daylight Time),681350.0,A,star,O,r,224,1,800.0,680550.0,7126,WL,B,4.0
5,7.161999940872192,learn,60000.0,Fri Apr 18 2025 12:11:16 GMT-0500 (Central Daylight Time),682166.1999999881,A,starg,O,g,804,1,1616.199999988079,680550.0,7126,WL,B,4.0
5,7.3459999561309814,learn,60000.0,Fri Apr 18 2025 12:11:16 GMT-0500 (Central Daylight Time),682349.299999997,A,stargr,O,r,177,1,1799.2999999970198,680550.0,7126,WL,B,4.0
5,7.479000091552734,learn,60000.0,Fri Apr 18 2025 12:11:16 GMT-0500 (Central Daylight Time),682483.1999999881,A,stargra,O,a,118,1,1933.199999988079,680550.0,7126,WL,B,4.0
5,7.729000091552734,learn,60000.0,Fri Apr 18 2025 12:11:16 GMT-0500 (Central Daylight Time),682732.8999999911,A,stargr,O,backspace,242,1,2182.8999999910593,680550.0,7126,WL,B,4.0
5,7.911999940872192,learn,60000.0,Fri Apr 18 2025 12:11:16 GMT-0500 (Central Daylight Time),682915.799999997,A,starg,O,backspace,168,1,2365.7999999970198,680550.0,7126,WL,B,4.0
5,8.095999956130981,learn,60000.0,Fri Apr 18 2025 12:11:16 GMT-0500 (Central Daylight Time),683100.0,A,star,O,backspace,160,1,2550.0,680550.0,7126,WL,B,4.0
5,8.545000076293945,learn,60000.0,Fri Apr 18 2025 12:11:16 GMT-0500 (Central Daylight Time),683548.8999999911,A,starenter,O,enter,425,1,2998.8999999910593,680550.0,7126,WL,B,4.0
5,8.913000106811523,learn,60000.0,Fri Apr 18 2025 12:11:16 GMT-0500 (Central Daylight Time),683916.3999999911,A,g,O,g,362,1,367.20000000298023,683549.1999999881,7126,WL,B,5.0
5,9.128000020980835,learn,60000.0,Fri Apr 18 2025 12:11:16 GMT-0500 (Central Daylight Time),684131.6999999881,A,gr,O,r,209,1,582.5,683549.1999999881,7126,WL,B,5.0
5,9.212000131607056,learn,60000.0,Fri Apr 18 2025 12:11:16 GMT-0500 (Central Daylight Time),684216.099999994,A,gra,O,a,62,1,666.9000000059605,683549.1999999881,7126,WL,B,5.0
5,9.32800006866455,learn,60000.0,Fri Apr 18 2025 12:11:16 GMT-0500 (Central Daylight Time),684332.0,A,gras,O,s,108,1,782.8000000119209,683549.1999999881,7126,WL,B,5.0
5,9.529000043869019,learn,60000.0,Fri Apr 18 2025 12:11:16 GMT-0500 (Central Daylight Time),684533.299999997,A,grass,O,s,193,1,984.1000000089407,683549.1999999881,7126,WL,B,5.0
5,10.194000005722046,learn,60000.0,Fri Apr 18 2025 12:11:16 GMT-0500 (Central Daylight Time),685197.6999999881,A,grassenter,O,enter,653,1,1648.5,683549.1999999881,7126,WL,B,5.0
5,12.062000036239624,learn,60000.0,Fri Apr 18 2025 12:11:16 GMT-0500 (Central Daylight Time),687065.8999999911,A,w,O,w,1847,1,1868.0,685197.8999999911,7126,WL,B,6.0
5,12.14300012588501,learn,60000.0,Fri Apr 18 2025 12:11:16 GMT-0500 (Central Daylight Time),687147.1999999881,A,wi,O,i,74,1,1949.2999999970198,685197.8999999911,7126,WL,B,6.0
5,12.343000173568726,learn,60000.0,Fri Apr 18 2025 12:11:16 GMT-0500 (Central Daylight Time),687346.3999999911,A,win,O,n,183,1,2148.5,685197.8999999911,7126,WL,B,6.0
5,12.478000164031982,learn,60000.0,Fri Apr 18 2025 12:11:16 GMT-0500 (Central Daylight Time),687481.6999999881,A,wind,O,d,114,1,2283.7999999970198,685197.8999999911,7126,WL,B,6.0
5,12.577000141143799,learn,60000.0,Fri Apr 18 2025 12:11:16 GMT-0500 (Central Daylight Time),687581.299999997,A,windo,O,o,93,1,2383.4000000059605,685197.8999999911,7126,WL,B,6.0
5,12.696000099182129,learn,60000.0,Fri Apr 18 2025 12:11:16 GMT-0500 (Central Daylight Time),687700.0,A,window,O,w,108,1,2502.1000000089407,685197.8999999911,7126,WL,B,6.0
5,13.127000093460083,learn,60000.0,Fri Apr 18 2025 12:11:16 GMT-0500 (Central Daylight Time),688130.8999999911,A,windowenter,O,enter,425,1,2933.0,685197.8999999911,7126,WL,B,6.0
5,13.493000030517578,learn,60000.0,Fri Apr 18 2025 12:11:16 GMT-0500 (Central Daylight Time),688496.6999999881,A,c,O,c,354,1,365.5,688131.1999999881,7126,WL,B,7.0
5,13.610000133514404,learn,60000.0,Fri Apr 18 2025 12:11:16 GMT-0500 (Central Daylight Time),688614.0,A,ci,O,i,99,1,482.80000001192093,688131.1999999881,7126,WL,B,7.0
5,13.745000123977661,learn,60000.0,Fri Apr 18 2025 12:11:16 GMT-0500 (Central Daylight Time),688748.3999999911,A,cit,O,t,129,1,617.2000000029802,688131.1999999881,7126,WL,B,7.0
5,13.860000133514404,learn,60000.0,Fri Apr 18 2025 12:11:16 GMT-0500 (Central Daylight Time),688863.3999999911,A,city,O,y,102,1,732.2000000029802,688131.1999999881,7126,WL,B,7.0
5,14.210000038146973,learn,60000.0,Fri Apr 18 2025 12:11:16 GMT-0500 (Central Daylight Time),689214.0,A,cityenter,O,enter,341,1,1082.800000011921,688131.1999999881,7126,WL,B,7.0
5,14.443000078201294,learn,60000.0,Fri Apr 18 2025 12:11:16 GMT-0500 (Central Daylight Time),689447.0,A,c,O,c,226,1,232.70000000298023,689214.299999997,7126,WL,B,8.0
5,14.544000148773193,learn,60000.0,Fri Apr 18 2025 12:11:16 GMT-0500 (Central Daylight Time),689547.599999994,A,ca,O,a,96,1,333.29999999701977,689214.299999997,7126,WL,B,8.0
5,14.710999965667725,learn,60000.0,Fri Apr 18 2025 12:11:16 GMT-0500 (Central Daylight Time),689714.799999997,A,cab,O,b,158,1,500.5,689214.299999997,7126,WL,B,8.0
5,14.843000173568726,learn,60000.0,Fri Apr 18 2025 12:11:16 GMT-0500 (Central Daylight Time),689847.099999994,A,cabi,O,i,115,1,632.7999999970198,689214.299999997,7126,WL,B,8.0
5,15.026999950408936,learn,60000.0,Fri Apr 18 2025 12:11:16 GMT-0500 (Central Daylight Time),690031.0,A,cabin,O,n,165,1,816.7000000029802,689214.299999997,7126,WL,B,8.0
5,15.325999975204468,learn,60000.0,Fri Apr 18 2025 12:11:16 GMT-0500 (Central Daylight Time),690330.1999999881,A,cabinenter,O,enter,292,1,1115.8999999910593,689214.299999997,7126,WL,B,8.0
5,15.660000085830688,learn,60000.0,Fri Apr 18 2025 12:11:16 GMT-0500 (Central Daylight Time),690663.6999999881,A,s,O,s,314,1,333.29999999701977,690330.3999999911,7126,WL,B,9.0
5,15.7260000705719,learn,60000.0,Fri Apr 18 2025 12:11:16 GMT-0500 (Central Daylight Time),690729.599999994,A,sk,O,k,51,1,399.20000000298023,690330.3999999911,7126,WL,B,9.0
5,15.910000085830688,learn,60000.0,Fri Apr 18 2025 12:11:16 GMT-0500 (Central Daylight Time),690914.0,A,ski,O,i,179,1,583.6000000089407,690330.3999999911,7126,WL,B,9.0
5,16.093000173568726,learn,60000.0,Fri Apr 18 2025 12:11:16 GMT-0500 (Central Daylight Time),691096.8999999911,A,skin,O,n,171,1,766.5,690330.3999999911,7126,WL,B,9.0
5,16.361000061035156,learn,60000.0,Fri Apr 18 2025 12:11:16 GMT-0500 (Central Daylight Time),691364.6999999881,A,skinenter,O,enter,260,1,1034.2999999970198,690330.3999999911,7126,WL,B,9.0
5,16.66000008583069,learn,60000.0,Fri Apr 18 2025 12:11:16 GMT-0500 (Central Daylight Time),691663.5,A,f,O,f,280,1,298.5,691365.0,7126,WL,B,10.0
5,16.743000030517578,learn,60000.0,Fri Apr 18 2025 12:11:16 GMT-0500 (Central Daylight Time),691746.3999999911,A,fi,O,i,69,1,381.3999999910593,691365.0,7126,WL,B,10.0
5,16.844000101089478,learn,60000.0,Fri Apr 18 2025 12:11:16 GMT-0500 (Central Daylight Time),691847.3999999911,A,fir,O,r,81,1,482.3999999910593,691365.0,7126,WL,B,10.0
5,16.943000078201294,learn,60000.0,Fri Apr 18 2025 12:11:16 GMT-0500 (Central Daylight Time),691946.5,A,fire,O,e,84,1,581.5,691365.0,7126,WL,B,10.0
5,17.544000148773193,learn,60000.0,Fri Apr 18 2025 12:11:16 GMT-0500 (Central Daylight Time),692547.3999999911,A,fireenter,O,enter,595,1,1182.3999999910593,691365.0,7126,WL,B,10.0
5,17.843000173568726,learn,60000.0,Fri Apr 18 2025 12:11:16 GMT-0500 (Central Daylight Time),692846.299999997,A,w,O,w,290,1,298.70000000298023,692547.599999994,7126,WL,B,11.0
5,17.95900011062622,learn,60000.0,Fri Apr 18 2025 12:11:16 GMT-0500 (Central Daylight Time),692963.1999999881,A,wi,O,i,102,1,415.59999999403954,692547.599999994,7126,WL,B,11.0
5,18.091000080108643,learn,60000.0,Fri Apr 18 2025 12:11:16 GMT-0500 (Central Daylight Time),693095.1999999881,A,wif,O,f,110,1,547.5999999940395,692547.599999994,7126,WL,B,11.0
5,18.243000030517578,learn,60000.0,Fri Apr 18 2025 12:11:16 GMT-0500 (Central Daylight Time),693246.3999999911,A,wife,O,e,138,1,698.7999999970198,692547.599999994,7126,WL,B,11.0
5,18.693000078201294,learn,60000.0,Fri Apr 18 2025 12:11:16 GMT-0500 (Central Daylight Time),693696.299999997,A,wifeenter,O,enter,429,1,1148.7000000029802,692547.599999994,7126,WL,B,11.0
5,24.157000064849854,learn,60000.0,Fri Apr 18 2025 12:11:16 GMT-0500 (Central Daylight Time),699160.299999997,A,p,O,p,5453,1,5463.70000000298,693696.599999994,7126,WL,B,12.0
5,24.27300000190735,learn,60000.0,Fri Apr 18 2025 12:11:16 GMT-0500 (Central Daylight Time),699276.8999999911,A,pi,O,i,100,1,5580.29999999702,693696.599999994,7126,WL,B,12.0
5,24.41000008583069,learn,60000.0,Fri Apr 18 2025 12:11:16 GMT-0500 (Central Daylight Time),699413.6999999881,A,pip,O,p,130,1,5717.0999999940395,693696.599999994,7126,WL,B,12.0
5,24.625,learn,60000.0,Fri Apr 18 2025 12:11:16 GMT-0500 (Central Daylight Time),699628.8999999911,A,pipe,O,e,209,1,5932.29999999702,693696.599999994,7126,WL,B,12.0
5,25.138000011444092,learn,60000.0,Fri Apr 18 2025 12:11:16 GMT-0500 (Central Daylight Time),700142.1999999881,A,pipeenter,O,enter,493,1,6445.5999999940395,693696.599999994,7126,WL,B,12.0
5,38.32100009918213,learn,60000.0,Fri Apr 18 2025 12:11:16 GMT-0500 (Central Daylight Time),713324.799999997,A,p,O,p,13177,1,13182.40000000596,700142.3999999911,7126,WL,B,13.0
5,38.4520001411438,learn,60000.0,Fri Apr 18 2025 12:11:16 GMT-0500 (Central Daylight Time),713455.799999997,A,pu,O,u,116,1,13313.40000000596,700142.3999999911,7126,WL,B,13.0
5,38.60300016403198,learn,60000.0,Fri Apr 18 2025 12:11:16 GMT-0500 (Central Daylight Time),713606.6999999881,A,pup,O,p,131,1,13464.29999999702,700142.3999999911,7126,WL,B,13.0
5,39.01800012588501,learn,60000.0,Fri Apr 18 2025 12:11:16 GMT-0500 (Central Daylight Time),714022.0,A,pupi,O,i,404,1,13879.60000000894,700142.3999999911,7126,WL,B,13.0
5,39.21900010108948,learn,60000.0,Fri Apr 18 2025 12:11:16 GMT-0500 (Central Daylight Time),714222.8999999911,A,pupil,O,l,182,1,14080.5,700142.3999999911,7126,WL,B,13.0
5,39.55200004577637,learn,60000.0,Fri Apr 18 2025 12:11:16 GMT-0500 (Central Daylight Time),714555.8999999911,A,pupilenter,O,enter,328,1,14413.5,700142.3999999911,7126,WL,B,13.0
5,99.56700015068054,learn,60000.0,Fri Apr 18 2025 12:11:16 GMT-0500 (Central Daylight Time),774571.099999994,A,None,O,None,60010,1,60015.0,714556.099999994,7126,WL,B,14.0
6,0.8020000457763672,distr,59197.99995422363,Fri Apr 18 2025 12:11:16 GMT-0500 (Central Daylight Time),851330.8999999911,B,b,O,b,779,1,801.7999999970198,850529.099999994,7126,WL,B,1.0
6,0.9330000877380371,distr,59066.99991226196,Fri Apr 18 2025 12:11:16 GMT-0500 (Central Daylight Time),851462.299999997,B,ba,O,a,121,1,933.2000000029802,850529.099999994,7126,WL,B,1.0
6,1.0490000247955322,distr,58950.99997520447,Fri Apr 18 2025 12:11:16 GMT-0500 (Central Daylight Time),851578.299999997,B,bab,O,b,101,1,1049.2000000029802,850529.099999994,7126,WL,B,1.0
6,1.2840001583099365,distr,58715.99984169006,Fri Apr 18 2025 12:11:16 GMT-0500 (Central Daylight Time),851813.299999997,B,baby,O,y,229,1,1284.2000000029802,850529.099999994,7126,WL,B,1.0
6,2.25,distr,57750.0,Fri Apr 18 2025 12:11:16 GMT-0500 (Central Daylight Time),852778.799999997,B,babyenter,O,enter,942,1,2249.7000000029802,850529.099999994,7126,WL,B,1.0
6,2.5329999923706055,distr,57467.000007629395,Fri Apr 18 2025 12:11:16 GMT-0500 (Central Daylight Time),853062.5,B,o,O,o,266,1,283.40000000596046,852779.099999994,7126,WL,B,2.0
6,2.7160000801086426,distr,57283.99991989136,Fri Apr 18 2025 12:11:16 GMT-0500 (Central Daylight Time),853245.099999994,B,oc,O,c,176,1,466.0,852779.099999994,7126,WL,B,2.0
6,2.884000062942505,distr,57115.999937057495,Fri Apr 18 2025 12:11:16 GMT-0500 (Central Daylight Time),853412.799999997,B,oci,O,i,160,1,633.7000000029802,852779.099999994,7126,WL,B,2.0
6,3.265000104904175,distr,56734.999895095825,Fri Apr 18 2025 12:11:16 GMT-0500 (Central Daylight Time),853794.3999999911,B,ocie,O,e,368,1,1015.2999999970198,852779.099999994,7126,WL,B,2.0
6,3.565999984741211,distr,56434.00001525879,Fri Apr 18 2025 12:11:16 GMT-0500 (Central Daylight Time),854095.6999999881,B,oci,O,backspace,288,1,1316.5999999940395,852779.099999994,7126,WL,B,2.0
6,3.7170000076293945,distr,56282.999992370605,Fri Apr 18 2025 12:11:16 GMT-0500 (Central Daylight Time),854246.299999997,B,oc,O,backspace,145,1,1467.2000000029802,852779.099999994,7126,WL,B,2.0
6,3.8990001678466797,distr,56100.99983215332,Fri Apr 18 2025 12:11:16 GMT-0500 (Central Daylight Time),854428.6999999881,B,oce,O,e,166,1,1649.5999999940395,852779.099999994,7126,WL,B,2.0
6,3.9639999866485596,distr,56036.00001335144,Fri Apr 18 2025 12:11:16 GMT-0500 (Central Daylight Time),854493.3999999911,B,ocea,O,a,45,1,1714.2999999970198,852779.099999994,7126,WL,B,2.0
6,4.065000057220459,distr,55934.99994277954,Fri Apr 18 2025 12:11:16 GMT-0500 (Central Daylight Time),854594.599999994,B,ocear,O,r,87,1,1815.5,852779.099999994,7126,WL,B,2.0
6,4.381999969482422,distr,55618.00003051758,Fri Apr 18 2025 12:11:16 GMT-0500 (Central Daylight Time),854910.799999997,B,ocearn,O,n,306,1,2131.7000000029802,852779.099999994,7126,WL,B,2.0
6,4.982000112533569,distr,55017.99988746643,Fri Apr 18 2025 12:11:16 GMT-0500 (Central Daylight Time),855510.8999999911,B,ocear,O,backspace,588,1,2731.7999999970198,852779.099999994,7126,WL,B,2.0
6,5.148000001907349,distr,54851.99999809265,Fri Apr 18 2025 12:11:16 GMT-0500 (Central Daylight Time),855677.099999994,B,ocea,O,backspace,151,1,2898.0,852779.099999994,7126,WL,B,2.0
6,5.365999937057495,distr,54634.000062942505,Fri Apr 18 2025 12:11:16 GMT-0500 (Central Daylight Time),855895.3999999911,B,ocean,O,n,200,1,3116.2999999970198,852779.099999994,7126,WL,B,2.0
6,5.781000137329102,distr,54218.9998626709,Fri Apr 18 2025 12:11:16 GMT-0500 (Central Daylight Time),856310.5,B,oceanenter,O,enter,398,1,3531.4000000059605,852779.099999994,7126,WL,B,2.0
6,6.197999954223633,distr,53802.00004577637,Fri Apr 18 2025 12:11:16 GMT-0500 (Central Daylight Time),856727.599999994,B,l,O,l,407,1,416.59999999403954,856311.0,7126,WL,B,3.0
6,6.365000009536743,distr,53634.99999046326,Fri Apr 18 2025 12:11:16 GMT-0500 (Central Daylight Time),856894.0,B,li,O,i,149,1,583.0,856311.0,7126,WL,B,3.0
6,6.482000112533569,distr,53517.99988746643,Fri Apr 18 2025 12:11:16 GMT-0500 (Central Daylight Time),857011.299999997,B,lip,O,p,102,1,700.2999999970198,856311.0,7126,WL,B,3.0
6,6.848999977111816,distr,53151.00002288818,Fri Apr 18 2025 12:11:16 GMT-0500 (Central Daylight Time),857378.0,B,lipenter,O,enter,353,1,1067.0,856311.0,7126,WL,B,3.0
6,7.131999969482422,distr,52868.00003051758,Fri Apr 18 2025 12:11:16 GMT-0500 (Central Daylight Time),857660.6999999881,B,b,O,b,267,1,282.5,857378.1999999881,7126,WL,B,4.0
6,7.266000032424927,distr,52733.99996757507,Fri Apr 18 2025 12:11:16 GMT-0500 (Central Daylight Time),857795.299999997,B,ba,O,a,128,1,417.1000000089407,857378.1999999881,7126,WL,B,4.0
6,7.450999975204468,distr,52549.00002479553,Fri Apr 18 2025 12:11:16 GMT-0500 (Central Daylight Time),857979.6999999881,B,bar,O,r,176,1,601.5,857378.1999999881,7126,WL,B,4.0
6,8.032000064849854,distr,51967.99993515015,Fri Apr 18 2025 12:11:16 GMT-0500 (Central Daylight Time),858560.6999999881,B,barenter,O,enter,561,1,1182.5,857378.1999999881,7126,WL,B,4.0
6,8.348000049591064,distr,51651.999950408936,Fri Apr 18 2025 12:11:16 GMT-0500 (Central Daylight Time),858876.6999999881,B,d,O,d,300,1,315.79999999701977,858560.8999999911,7126,WL,B,5.0
6,8.513999938964844,distr,51486.000061035156,Fri Apr 18 2025 12:11:16 GMT-0500 (Central Daylight Time),859043.0,B,dr,O,r,151,1,482.1000000089407,858560.8999999911,7126,WL,B,5.0
6,8.61300015449524,distr,51386.99984550476,Fri Apr 18 2025 12:11:16 GMT-0500 (Central Daylight Time),859142.6999999881,B,dre,O,e,81,1,581.7999999970198,858560.8999999911,7126,WL,B,5.0
6,9.314000129699707,distr,50685.99987030029,Fri Apr 18 2025 12:11:16 GMT-0500 (Central Daylight Time),859843.3999999911,B,dres,O,s,695,1,1282.5,858560.8999999911,7126,WL,B,5.0
6,9.480999946594238,distr,50519.00005340576,Fri Apr 18 2025 12:11:16 GMT-0500 (Central Daylight Time),860010.599999994,B,dress,O,s,151,1,1449.7000000029802,858560.8999999911,7126,WL,B,5.0
6,10.064000129699707,distr,49935.99987030029,Fri Apr 18 2025 12:11:16 GMT-0500 (Central Daylight Time),860592.799999997,B,dresss,O,s,572,1,2031.9000000059605,858560.8999999911,7126,WL,B,5.0
6,10.496999979019165,distr,49503.000020980835,Fri Apr 18 2025 12:11:16 GMT-0500 (Central Daylight Time),861026.1999999881,B,dress,O,backspace,427,1,2465.2999999970198,858560.8999999911,7126,WL,B,5.0
6,10.830000162124634,distr,49169.999837875366,Fri Apr 18 2025 12:11:16 GMT-0500 (Central Daylight Time),861358.799999997,B,dressenter,O,enter,314,1,2797.9000000059605,858560.8999999911,7126,WL,B,5.0
6,11.031000137329102,distr,48968.9998626709,Fri Apr 18 2025 12:11:16 GMT-0500 (Central Daylight Time),861560.3999999911,B,s,O,s,190,1,201.29999999701977,861359.099999994,7126,WL,B,6.0
6,11.114000082015991,distr,48885.99991798401,Fri Apr 18 2025 12:11:16 GMT-0500 (Central Daylight Time),861643.299999997,B,st,O,t,76,1,284.20000000298023,861359.099999994,7126,WL,B,6.0
6,11.230000019073486,distr,48769.999980926514,Fri Apr 18 2025 12:11:16 GMT-0500 (Central Daylight Time),861759.5,B,ste,O,e,97,1,400.40000000596046,861359.099999994,7126,WL,B,6.0
6,11.296000003814697,distr,48703.9999961853,Fri Apr 18 2025 12:11:16 GMT-0500 (Central Daylight Time),861825.099999994,B,stea,O,a,51,1,466.0,861359.099999994,7126,WL,B,6.0
6,11.63100004196167,distr,48368.99995803833,Fri Apr 18 2025 12:11:16 GMT-0500 (Central Daylight Time),862159.8999999911,B,steam,O,m,315,1,800.7999999970198,861359.099999994,7126,WL,B,6.0
6,12.411999940872192,distr,47588.00005912781,Fri Apr 18 2025 12:11:16 GMT-0500 (Central Daylight Time),862941.5,B,steamenter,O,enter,765,1,1582.4000000059605,861359.099999994,7126,WL,B,6.0
6,28.641000032424927,distr,31358.999967575073,Fri Apr 18 2025 12:11:16 GMT-0500 (Central Daylight Time),879169.799999997,B,b,O,b,16217,1,16228.10000000894,862941.6999999881,7126,WL,B,7.0
6,28.890000104904175,distr,31109.999895095825,Fri Apr 18 2025 12:11:16 GMT-0500 (Central Daylight Time),879419.1999999881,B,br,O,r,234,1,16477.5,862941.6999999881,7126,WL,B,7.0
6,29.02500009536743,distr,30974.99990463257,Fri Apr 18 2025 12:11:16 GMT-0500 (Central Daylight Time),879553.799999997,B,bra,O,a,122,1,16612.10000000894,862941.6999999881,7126,WL,B,7.0
6,29.242000102996826,distr,30757.999897003174,Fri Apr 18 2025 12:11:16 GMT-0500 (Central Daylight Time),879771.6999999881,B,bran,O,n,212,1,16830.0,862941.6999999881,7126,WL,B,7.0
6,29.558000087738037,distr,30441.999912261963,Fri Apr 18 2025 12:11:16 GMT-0500 (Central Daylight Time),880087.5,B,bra,O,backspace,303,1,17145.80000001192,862941.6999999881,7126,WL,B,7.0
6,29.723999977111816,distr,30276.000022888184,Fri Apr 18 2025 12:11:16 GMT-0500 (Central Daylight Time),880252.8999999911,B,br,O,backspace,149,1,17311.20000000298,862941.6999999881,7126,WL,B,7.0
6,29.87600016593933,distr,30123.99983406067,Fri Apr 18 2025 12:11:16 GMT-0500 (Central Daylight Time),880405.5,B,b,O,backspace,137,1,17463.80000001192,862941.6999999881,7126,WL,B,7.0
6,29.92200016975403,distr,30077.99983024597,Fri Apr 18 2025 12:11:16 GMT-0500 (Central Daylight Time),880451.5,B,ba,O,a,39,1,17509.80000001192,862941.6999999881,7126,WL,B,7.0
6,30.02400016784668,distr,29975.99983215332,Fri Apr 18 2025 12:11:16 GMT-0500 (Central Daylight Time),880553.6999999881,B,bar,O,r,91,1,17612.0,862941.6999999881,7126,WL,B,7.0
6,30.123000144958496,distr,29876.999855041504,Fri Apr 18 2025 12:11:16 GMT-0500 (Central Daylight Time),880652.299999997,B,barn,O,n,83,1,17710.60000000894,862941.6999999881,7126,WL,B,7.0
6,30.555999994277954,distr,29444.000005722046,Fri Apr 18 2025 12:11:16 GMT-0500 (Central Daylight Time),881085.299999997,B,barnenter,O,enter,424,1,18143.60000000894,862941.6999999881,7126,WL,B,7.0
6,60.015000104904175,distr,-15.000104904174805,Fri Apr 18 2025 12:11:16 GMT-0500 (Central Daylight Time),910544.6999999881,B,None,O,None,29455,1,29459.09999999404,881085.599999994,7126,WL,B,8.0
7,12.913999795913696,immed,47086.000204086304,Fri Apr 18 2025 12:11:16 GMT-0500 (Central Daylight Time),929270.8999999911,A,b,O,b,12896,1,12913.29999999702,916357.599999994,7126,WL,B,1.0
7,13.014999866485596,immed,46985.000133514404,Fri Apr 18 2025 12:11:16 GMT-0500 (Central Daylight Time),929371.799999997,A,ba,O,a,95,1,13014.20000000298,916357.599999994,7126,WL,B,1.0
7,13.146999835968018,immed,46853.00016403198,Fri Apr 18 2025 12:11:16 GMT-0500 (Central Daylight Time),929504.0,A,bab,O,b,111,1,13146.40000000596,916357.599999994,7126,WL,B,1.0
7,13.347999811172485,immed,46652.000188827515,Fri Apr 18 2025 12:11:16 GMT-0500 (Central Daylight Time),929704.6999999881,A,baby,O,y,180,1,13347.09999999404,916357.599999994,7126,WL,B,1.0
7,13.697999954223633,immed,46302.00004577637,Fri Apr 18 2025 12:11:16 GMT-0500 (Central Daylight Time),930054.5,A,babyenter,O,enter,331,1,13696.90000000596,916357.599999994,7126,WL,B,1.0
7,14.079999923706055,immed,45920.000076293945,Fri Apr 18 2025 12:11:16 GMT-0500 (Central Daylight Time),930436.799999997,A,l,O,l,365,1,381.90000000596046,930054.8999999911,7126,WL,B,2.0
7,14.245999813079834,immed,45754.000186920166,Fri Apr 18 2025 12:11:16 GMT-0500 (Central Daylight Time),930603.3999999911,A,li,O,i,160,1,548.5,930054.8999999911,7126,WL,B,2.0
7,14.36299991607666,immed,45637.00008392334,Fri Apr 18 2025 12:11:16 GMT-0500 (Central Daylight Time),930719.6999999881,A,lip,O,p,106,1,664.7999999970198,930054.8999999911,7126,WL,B,2.0
7,14.928999900817871,immed,45071.00009918213,Fri Apr 18 2025 12:11:16 GMT-0500 (Central Daylight Time),931286.3999999911,A,lipenter,O,enter,557,1,1231.5,930054.8999999911,7126,WL,B,2.0
7,15.561999797821045,immed,44438.000202178955,Fri Apr 18 2025 12:11:16 GMT-0500 (Central Daylight Time),931919.5,A,o,O,o,613,1,632.7000000029802,931286.799999997,7126,WL,B,3.0
7,15.76199984550476,immed,44238.00015449524,Fri Apr 18 2025 12:11:16 GMT-0500 (Central Daylight Time),932119.299999997,A,oc,O,c,188,1,832.5,931286.799999997,7126,WL,B,3.0
7,16.145999908447266,immed,43854.000091552734,Fri Apr 18 2025 12:11:16 GMT-0500 (Central Daylight Time),932503.3999999911,A,oce,O,e,373,1,1216.5999999940395,931286.799999997,7126,WL,B,3.0
7,16.245999813079834,immed,43754.000186920166,Fri Apr 18 2025 12:11:16 GMT-0500 (Central Daylight Time),932602.599999994,A,ocea,O,a,86,1,1315.7999999970198,931286.799999997,7126,WL,B,3.0
7,16.378999948501587,immed,43621.00005149841,Fri Apr 18 2025 12:11:16 GMT-0500 (Central Daylight Time),932735.8999999911,A,ocean,O,n,111,1,1449.0999999940395,931286.799999997,7126,WL,B,3.0
7,16.67899990081787,immed,43321.00009918213,Fri Apr 18 2025 12:11:16 GMT-0500 (Central Daylight Time),933036.0,A,oceanenter,O,enter,284,1,1749.2000000029802,931286.799999997,7126,WL,B,3.0
7,17.046000003814697,immed,42953.9999961853,Fri Apr 18 2025 12:11:16 GMT-0500 (Central Daylight Time),933403.099999994,A,b,O,b,353,1,366.90000000596046,933036.1999999881,7126,WL,B,4.0
7,17.245999813079834,immed,42754.000186920166,Fri Apr 18 2025 12:11:16 GMT-0500 (Central Daylight Time),933603.299999997,A,ba,O,a,185,1,567.1000000089407,933036.1999999881,7126,WL,B,4.0
7,17.447999954223633,immed,42552.00004577637,Fri Apr 18 2025 12:11:16 GMT-0500 (Central Daylight Time),933805.5,A,bar,O,r,196,1,769.3000000119209,933036.1999999881,7126,WL,B,4.0
7,17.645999908447266,immed,42354.000091552734,Fri Apr 18 2025 12:11:16 GMT-0500 (Central Daylight Time),934003.099999994,A,barn,O,n,183,1,966.9000000059605,933036.1999999881,7126,WL,B,4.0
7,18.145999908447266,immed,41854.000091552734,Fri Apr 18 2025 12:11:16 GMT-0500 (Central Daylight Time),934502.5,A,barnenter,O,enter,482,1,1466.300000011921,933036.1999999881,7126,WL,B,4.0
7,18.628999948501587,immed,41371.00005149841,Fri Apr 18 2025 12:11:16 GMT-0500 (Central Daylight Time),934986.5,A,w,O,w,462,1,483.70000000298023,934502.799999997,7126,WL,B,5.0
7,18.710999965667725,immed,41289.000034332275,Fri Apr 18 2025 12:11:16 GMT-0500 (Central Daylight Time),935067.6999999881,A,wi,O,i,64,1,564.8999999910593,934502.799999997,7126,WL,B,5.0
7,18.87999987602234,immed,41120.00012397766,Fri Apr 18 2025 12:11:16 GMT-0500 (Central Daylight Time),935236.6999999881,A,win,O,n,162,1,733.8999999910593,934502.799999997,7126,WL,B,5.0
7,18.978999853134155,immed,41021.000146865845,Fri Apr 18 2025 12:11:16 GMT-0500 (Central Daylight Time),935335.799999997,A,wind,O,d,87,1,833.0,934502.799999997,7126,WL,B,5.0
7,19.111999988555908,immed,40888.00001144409,Fri Apr 18 2025 12:11:16 GMT-0500 (Central Daylight Time),935469.299999997,A,windo,O,o,115,1,966.5,934502.799999997,7126,WL,B,5.0
7,19.21299982070923,immed,40787.00017929077,Fri Apr 18 2025 12:11:16 GMT-0500 (Central Daylight Time),935570.1999999881,A,window,O,w,87,1,1067.3999999910593,934502.799999997,7126,WL,B,5.0
7,19.57799983024597,immed,40422.00016975403,Fri Apr 18 2025 12:11:16 GMT-0500 (Central Daylight Time),935934.5,A,windowenter,O,enter,345,1,1431.7000000029802,934502.799999997,7126,WL,B,5.0
7,27.991999864578247,immed,32008.000135421753,Fri Apr 18 2025 12:11:16 GMT-0500 (Central Daylight Time),944349.3999999911,A,s,O,s,8408,1,8414.70000000298,935934.6999999881,7126,WL,B,6.0
7,28.109999895095825,immed,31890.000104904175,Fri Apr 18 2025 12:11:16 GMT-0500 (Central Daylight Time),944466.6999999881,A,st,O,t,103,1,8532.0,935934.6999999881,7126,WL,B,6.0
7,28.174000024795532,immed,31825.999975204468,Fri Apr 18 2025 12:11:16 GMT-0500 (Central Daylight Time),944531.299999997,A,sta,O,a,54,1,8596.60000000894,935934.6999999881,7126,WL,B,6.0
7,28.29199981689453,immed,31708.00018310547,Fri Apr 18 2025 12:11:16 GMT-0500 (Central Daylight Time),944649.1999999881,A,star,O,r,104,1,8714.5,935934.6999999881,7126,WL,B,6.0
7,28.774999856948853,immed,31225.000143051147,Fri Apr 18 2025 12:11:16 GMT-0500 (Central Daylight Time),945131.6999999881,A,starenter,O,enter,466,1,9197.0,935934.6999999881,7126,WL,B,6.0
7,30.556999921798706,immed,29443.000078201294,Fri Apr 18 2025 12:11:16 GMT-0500 (Central Daylight Time),946914.299999997,A,g,O,g,1768,1,1782.4000000059605,945131.8999999911,7126,WL,B,7.0
7,30.72599983215332,immed,29274.00016784668,Fri Apr 18 2025 12:11:16 GMT-0500 (Central Daylight Time),947082.6999999881,A,gr,O,r,165,1,1950.7999999970198,945131.8999999911,7126,WL,B,7.0
7,30.79099988937378,immed,29209.00011062622,Fri Apr 18 2025 12:11:16 GMT-0500 (Central Daylight Time),947148.5,A,gra,O,a,48,1,2016.6000000089407,945131.8999999911,7126,WL,B,7.0
7,30.842000007629395,immed,29157.999992370605,Fri Apr 18 2025 12:11:16 GMT-0500 (Central Daylight Time),947199.299999997,A,gras,O,s,38,1,2067.4000000059605,945131.8999999911,7126,WL,B,7.0
7,31.075999975204468,immed,28924.000024795532,Fri Apr 18 2025 12:11:16 GMT-0500 (Central Daylight Time),947433.0,A,grass,O,s,211,1,2301.1000000089407,945131.8999999911,7126,WL,B,7.0
7,31.657999992370605,immed,28342.000007629395,Fri Apr 18 2025 12:11:16 GMT-0500 (Central Daylight Time),948014.599999994,A,grassenter,O,enter,570,1,2882.7000000029802,945131.8999999911,7126,WL,B,7.0
7,31.97599983215332,immed,28024.00016784668,Fri Apr 18 2025 12:11:16 GMT-0500 (Central Daylight Time),948332.6999999881,A,c,O,c,302,1,317.8999999910593,948014.799999997,7126,WL,B,8.0
7,32.03999996185303,immed,27960.000038146973,Fri Apr 18 2025 12:11:16 GMT-0500 (Central Daylight Time),948396.8999999911,A,ci,O,i,44,1,382.09999999403954,948014.799999997,7126,WL,B,8.0
7,32.125,immed,27875.0,Fri Apr 18 2025 12:11:16 GMT-0500 (Central Daylight Time),948482.3999999911,A,cit,O,t,69,1,467.59999999403954,948014.799999997,7126,WL,B,8.0
7,32.24000000953674,immed,27759.999990463257,Fri Apr 18 2025 12:11:16 GMT-0500 (Central Daylight Time),948597.3999999911,A,city,O,y,106,1,582.5999999940395,948014.799999997,7126,WL,B,8.0
7,32.60699987411499,immed,27393.00012588501,Fri Apr 18 2025 12:11:16 GMT-0500 (Central Daylight Time),948964.0,A,cityenter,O,enter,341,1,949.2000000029802,948014.799999997,7126,WL,B,8.0
7,32.84099984169006,immed,27159.000158309937,Fri Apr 18 2025 12:11:16 GMT-0500 (Central Daylight Time),949198.1999999881,A,w,O,w,225,1,234.0,948964.1999999881,7126,WL,B,9.0
7,32.906999826431274,immed,27093.000173568726,Fri Apr 18 2025 12:11:16 GMT-0500 (Central Daylight Time),949263.599999994,A,wi,O,i,53,1,299.40000000596046,948964.1999999881,7126,WL,B,9.0
7,33.05799984931946,immed,26942.000150680542,Fri Apr 18 2025 12:11:16 GMT-0500 (Central Daylight Time),949414.6999999881,A,win,O,n,138,1,450.5,948964.1999999881,7126,WL,B,9.0
7,33.139999866485596,immed,26860.000133514404,Fri Apr 18 2025 12:11:16 GMT-0500 (Central Daylight Time),949497.099999994,A,wind,O,d,69,1,532.9000000059605,948964.1999999881,7126,WL,B,9.0
7,33.27300000190735,immed,26726.99999809265,Fri Apr 18 2025 12:11:16 GMT-0500 (Central Daylight Time),949630.299999997,A,windo,O,o,115,1,666.1000000089407,948964.1999999881,7126,WL,B,9.0
7,33.32299995422363,immed,26677.000045776367,Fri Apr 18 2025 12:11:16 GMT-0500 (Central Daylight Time),949679.599999994,A,window,O,w,28,1,715.4000000059605,948964.1999999881,7126,WL,B,9.0
7,33.639999866485596,immed,26360.000133514404,Fri Apr 18 2025 12:11:16 GMT-0500 (Central Daylight Time),949997.099999994,A,windowenter,O,enter,300,1,1032.9000000059605,948964.1999999881,7126,WL,B,9.0
7,36.78999996185303,immed,23210.000038146973,Fri Apr 18 2025 12:11:16 GMT-0500 (Central Daylight Time),953147.1999999881,A,p,O,p,3136,1,3149.8999999910593,949997.299999997,7126,WL,B,10.0
7,36.99000000953674,immed,23009.999990463257,Fri Apr 18 2025 12:11:16 GMT-0500 (Central Daylight Time),953346.6999999881,A,pu,O,u,192,1,3349.3999999910593,949997.299999997,7126,WL,B,10.0
7,37.121999979019165,immed,22878.000020980835,Fri Apr 18 2025 12:11:16 GMT-0500 (Central Daylight Time),953479.3999999911,A,pup,O,p,113,1,3482.0999999940395,949997.299999997,7126,WL,B,10.0
7,37.20599985122681,immed,22794.000148773193,Fri Apr 18 2025 12:11:16 GMT-0500 (Central Daylight Time),953562.5,A,pupi,O,i,77,1,3565.2000000029802,949997.299999997,7126,WL,B,10.0
7,37.78999996185303,immed,22210.000038146973,Fri Apr 18 2025 12:11:16 GMT-0500 (Central Daylight Time),954146.6999999881,A,pupil,O,l,571,1,4149.399999991059,949997.299999997,7126,WL,B,10.0
7,38.22199988365173,immed,21778.000116348267,Fri Apr 18 2025 12:11:16 GMT-0500 (Central Daylight Time),954579.1999999881,A,pupilenter,O,enter,425,1,4581.899999991059,949997.299999997,7126,WL,B,10.0
7,42.98699998855591,immed,17013.00001144409,Fri Apr 18 2025 12:11:16 GMT-0500 (Central Daylight Time),959345.1999999881,A,s,O,s,4753,1,4765.79999999702,954579.3999999911,7126,WL,B,11.0
7,43.085999965667725,immed,16914.000034332275,Fri Apr 18 2025 12:11:16 GMT-0500 (Central Daylight Time),959443.6999999881,A,sk,O,k,83,1,4864.29999999702,954579.3999999911,7126,WL,B,11.0
7,43.25399994850159,immed,16746.000051498413,Fri Apr 18 2025 12:11:16 GMT-0500 (Central Daylight Time),959611.599999994,A,ski,O,i,145,1,5032.20000000298,954579.3999999911,7126,WL,B,11.0
7,43.40399980545044,immed,16596.00019454956,Fri Apr 18 2025 12:11:16 GMT-0500 (Central Daylight Time),959762.3999999911,A,skin,O,n,143,1,5183.0,954579.3999999911,7126,WL,B,11.0
7,43.65299987792969,immed,16347.000122070312,Fri Apr 18 2025 12:11:16 GMT-0500 (Central Daylight Time),960011.0,A,skinenter,O,enter,230,1,5431.600000008941,954579.3999999911,7126,WL,B,11.0
7,44.069000005722046,immed,15930.999994277954,Fri Apr 18 2025 12:11:16 GMT-0500 (Central Daylight Time),960427.1999999881,A,f,O,f,410,1,416.0,960011.1999999881,7126,WL,B,12.0
7,44.15399980545044,immed,15846.00019454956,Fri Apr 18 2025 12:11:16 GMT-0500 (Central Daylight Time),960512.099999994,A,fi,O,i,72,1,500.90000000596046,960011.1999999881,7126,WL,B,12.0
7,44.269999980926514,immed,15730.000019073486,Fri Apr 18 2025 12:11:16 GMT-0500 (Central Daylight Time),960628.099999994,A,fir,O,r,100,1,616.9000000059605,960011.1999999881,7126,WL,B,12.0
7,44.353999853134155,immed,15646.000146865845,Fri Apr 18 2025 12:11:16 GMT-0500 (Central Daylight Time),960711.6999999881,A,fire,O,e,62,1,700.5,960011.1999999881,7126,WL,B,12.0
7,44.6029999256134,immed,15397.000074386597,Fri Apr 18 2025 12:11:16 GMT-0500 (Central Daylight Time),960961.0,A,fireenter,O,enter,226,1,949.8000000119209,960011.1999999881,7126,WL,B,12.0
7,56.91799998283386,immed,3082.0000171661377,Fri Apr 18 2025 12:11:16 GMT-0500 (Central Daylight Time),973276.299999997,A,g,O,g,12292,1,12315.10000000894,960961.1999999881,7126,WL,B,13.0
7,57.16599988937378,immed,2834.0001106262207,Fri Apr 18 2025 12:11:16 GMT-0500 (Central Daylight Time),973524.099999994,A,gr,O,r,223,1,12562.90000000596,960961.1999999881,7126,WL,B,13.0
7,57.264999866485596,immed,2735.0001335144043,Fri Apr 18 2025 12:11:16 GMT-0500 (Central Daylight Time),973622.6999999881,A,gra,O,a,89,1,12661.5,960961.1999999881,7126,WL,B,13.0
7,57.36500000953674,immed,2634.999990463257,Fri Apr 18 2025 12:11:16 GMT-0500 (Central Daylight Time),973723.099999994,A,gras,O,s,95,1,12761.90000000596,960961.1999999881,7126,WL,B,13.0
7,57.54900002479553,immed,2450.999975204468,Fri Apr 18 2025 12:11:16 GMT-0500 (Central Daylight Time),973907.0,A,grass,O,s,167,1,12945.800000011921,960961.1999999881,7126,WL,B,13.0
7,59.2979998588562,immed,702.0001411437988,Fri Apr 18 2025 12:11:16 GMT-0500 (Central Daylight Time),975655.6999999881,A,grassenter,O,enter,1730,1,14694.5,960961.1999999881,7126,WL,B,13.0
7,60.01699995994568,immed,-16.99995994567871,Fri Apr 18 2025 12:11:16 GMT-0500 (Central Daylight Time),976374.299999997,A,None,O,None,713,1,718.2999999970198,975656.0,7126,WL,B,14.0
