acc_sum,block_c,block_dur,condition,correct,correct_response,countdown,datetime,endtime,project,response,response_time,response_time_test1_response,response_time_test2_response,row_sel,same,session_number,start_end,starttime,stim1,stim2,subject_id,task,task_vers,time_test1,time_test2,trial
1,1,0.0,prac,1,z,30000.0,Mon Apr 07 2025 10:27:28 GMT-0500 (Central Daylight Time),30578.5,O,z,2231,,,4,yes,1,3760.399999976158,26818.100000023842,RSM,RSM,7118,LC,A,,,1
2,1,0.0,prac,1,m,30000.0,Mon Apr 07 2025 10:27:28 GMT-0500 (Central Daylight Time),33660.5,O,m,1528,,,3,no,1,3058.8000000715256,30601.699999928474,QHZXPC,QHZWPC,7118,LC,A,,,2
3,1,0.0,prac,1,z,30000.0,Mon Apr 07 2025 10:27:28 GMT-0500 (Central Daylight Time),39261.10000002384,O,z,4072,,,6,yes,1,5580.0,33681.10000002384,CSDBFPHXZ,CSDBFPHXZ,7118,LC,A,,,3
4,1,0.0,prac,1,m,30000.0,Mon Apr 07 2025 10:27:28 GMT-0500 (Central Daylight Time),42107.60000002384,O,m,1295,,,1,no,1,2820.3000000715256,39287.299999952316,RNV,FNV,7118,LC,A,,,4
5,1,0.0,prac,1,m,30000.0,Mon Apr 07 2025 10:27:28 GMT-0500 (Central Daylight Time),45556.299999952316,O,m,1900,,,5,no,1,3425.100000023842,42131.199999928474,LNDPRSKQB,LNDPRSJQB,7118,LC,A,,,5
6,1,0.0,prac,1,z,30000.0,Mon Apr 07 2025 10:27:28 GMT-0500 (Central Daylight Time),48888.60000002384,O,z,1782,,,2,yes,1,3310.7000000476837,45577.89999997616,NBGFSM,NBGFSM,7118,LC,A,,,6
1,1,1.367999792098999,test,1,m,28632.000207901,Mon Apr 07 2025 10:27:28 GMT-0500 (Central Daylight Time),57186.5,O,m,1346,1346,,1,no,1,1353.5,55833.0,HCF,RCF,7118,LC,A,52989,,1
2,1,3.633999824523926,test,1,m,26366.000175476074,Mon Apr 07 2025 10:27:28 GMT-0500 (Central Daylight Time),59452.299999952316,O,m,2228,2228,,2,no,1,2248.0,57204.299999952316,QTPRJX,QTPNJX,7118,LC,A,54363,,2
3,1,6.33299994468689,test,1,m,23667.00005531311,Mon Apr 07 2025 10:27:28 GMT-0500 (Central Daylight Time),62151.199999928474,O,m,2677,2677,,3,no,1,2683.7999999523163,59467.39999997616,MZDYGVGKQ,MZDYGLBKQ,7118,LC,A,56627,,3
4,1,8.3989999294281,test,1,m,21601.0000705719,Mon Apr 07 2025 10:27:28 GMT-0500 (Central Daylight Time),64217.10000002384,O,m,2033,2033,,4,no,1,2049.9000000953674,62167.199999928474,FQTNMK,JQTNMK,7118,LC,A,59326,,4
5,1,9.514999866485596,test,1,z,20485.000133514404,Mon Apr 07 2025 10:27:28 GMT-0500 (Central Daylight Time),65333.39999997616,O,z,1089,1089,,5,yes,1,1101.5,64231.89999997616,CLJ,CLJ,7118,LC,A,61390,,5
6,1,11.496999979019165,test,1,m,18503.000020980835,Mon Apr 07 2025 10:27:28 GMT-0500 (Central Daylight Time),67315.10000002384,O,m,1963,1963,,6,no,1,1966.8000000715256,65348.299999952316,JGDMNSVPW,JGZMNSVPW,7118,LC,A,62507,,6
7,1,15.36299991607666,test,1,z,14637.00008392334,Mon Apr 07 2025 10:27:28 GMT-0500 (Central Daylight Time),71181.39999997616,O,z,3851,3851,,7,yes,1,3861.600000023842,67319.79999995232,FPTVHKCBJ,FPTVHKCBJ,7118,LC,A,64476,,7
8,1,17.395999908447266,test,1,m,12604.000091552734,Mon Apr 07 2025 10:27:28 GMT-0500 (Central Daylight Time),73214.19999992847,O,m,2005,2005,,8,no,1,2018.0999999046326,71196.10000002384,XRPZBS,ZRPBDH,7118,LC,A,68355,,8
9,1,18.878999948501587,test,1,m,11121.000051498413,Mon Apr 07 2025 10:27:28 GMT-0500 (Central Daylight Time),74696.69999992847,O,m,1460,1460,,9,no,1,1466.6999999284744,73230.0,ZSQ,ZSP,7118,LC,A,70387,,9
10,1,21.393999814987183,test,1,z,8606.000185012817,Mon Apr 07 2025 10:27:28 GMT-0500 (Central Daylight Time),77212.69999992847,O,z,2489,2489,,10,yes,1,2501.0999999046326,74711.60000002384,MPZRXL,MPZRXL,7118,LC,A,71870,,10
11,1,22.527999877929688,test,1,m,7472.0001220703125,Mon Apr 07 2025 10:27:28 GMT-0500 (Central Daylight Time),78345.79999995232,O,m,1109,1109,,11,no,1,1117.7999999523163,77228.0,KJH,KRH,7118,LC,A,74386,,11
12,1,26.275999784469604,test,1,z,3724.0002155303955,Mon Apr 07 2025 10:27:28 GMT-0500 (Central Daylight Time),82094.0,O,z,3730,3730,,12,yes,1,3733.7000000476837,78360.29999995232,SMNHVTFCB,SMNHVTFCB,7118,LC,A,75517,,12
13,1,27.942999839782715,test,1,z,2057.000160217285,Mon Apr 07 2025 10:27:28 GMT-0500 (Central Daylight Time),83760.69999992847,O,z,1646,1646,,13,yes,1,1652.1999999284744,82108.5,KJWTQF,KJWTQF,7118,LC,A,79266,,13
13,1,30.024999856948853,test,0,z,-24.99985694885254,Mon Apr 07 2025 10:27:28 GMT-0500 (Central Daylight Time),85843.60000002384,O,None,2064,2064,,14,yes,1,2068.100000023842,83775.5,CHDKQGLMB,CHDKQGLMB,7118,LC,A,80934,,14
1,2,3.8980000019073486,test,1,z,26101.99999809265,Mon Apr 07 2025 10:27:28 GMT-0500 (Central Daylight Time),91741.60000002384,O,z,3872,,3872.0,1,yes,1,7966.100000023842,83775.5,PRDBZTYFN,PRDBZTYFN,7118,LC,A,,85016.0,1
2,2,5.430999994277954,test,1,m,24569.000005722046,Mon Apr 07 2025 10:27:28 GMT-0500 (Central Daylight Time),93274.0,O,m,1509,,1509.0,2,no,1,9498.5,83775.5,NCWJDZ,NCMJDZ,7118,LC,A,,88914.0,2
3,2,6.746999979019165,test,1,m,23253.000020980835,Mon Apr 07 2025 10:27:28 GMT-0500 (Central Daylight Time),94590.29999995232,O,m,1289,,1289.0,3,no,1,10814.799999952316,83775.5,KHW,KBW,7118,LC,A,,90447.0,3
4,2,9.279000043869019,test,1,m,20720.99995613098,Mon Apr 07 2025 10:27:28 GMT-0500 (Central Daylight Time),97122.60000002384,O,m,2505,,2505.0,4,no,1,13347.100000023842,83775.5,ZRBGMF,ZRBCMF,7118,LC,A,,91766.0,4
5,2,10.328999996185303,test,1,m,19671.000003814697,Mon Apr 07 2025 10:27:28 GMT-0500 (Central Daylight Time),98172.60000002384,O,m,1024,,1024.0,5,no,1,14397.100000023842,83775.5,BTH,BYH,7118,LC,A,,94295.0,5
6,2,12.51200008392334,test,1,z,17487.99991607666,Mon Apr 07 2025 10:27:28 GMT-0500 (Central Daylight Time),100355.10000002384,O,z,2148,,2148.0,6,yes,1,16579.600000023842,83775.5,XWKQRYCNZ,XWKQRYCNZ,7118,LC,A,,95346.0,6
7,2,14.32800006866455,test,1,z,15671.99993133545,Mon Apr 07 2025 10:27:28 GMT-0500 (Central Daylight Time),102171.29999995232,O,z,1791,,1791.0,7,yes,1,18395.799999952316,83775.5,HNPDLK,HNPDLK,7118,LC,A,,97528.0,7
8,2,17.39400005340576,test,1,m,12605.999946594238,Mon Apr 07 2025 10:27:28 GMT-0500 (Central Daylight Time),105237.10000002384,O,m,3031,,3031.0,8,no,1,21461.600000023842,83775.5,WMQTRSGLZ,WMQTRZGLZ,7118,LC,A,,99345.0,8
9,2,18.5770001411438,test,1,z,11422.999858856201,Mon Apr 07 2025 10:27:28 GMT-0500 (Central Daylight Time),106419.79999995232,O,z,1151,,1151.0,9,yes,1,22644.299999952316,83775.5,JPN,JPN,7118,LC,A,,102408.0,9
10,2,20.79200005531311,test,1,m,9207.99994468689,Mon Apr 07 2025 10:27:28 GMT-0500 (Central Daylight Time),108634.79999995232,O,m,2182,,2182.0,10,no,1,24859.299999952316,83775.5,QLXSVT,QLNSVT,7118,LC,A,,103592.0,10
10,2,24.157999992370605,test,0,z,5842.0000076293945,Mon Apr 07 2025 10:27:28 GMT-0500 (Central Daylight Time),112001.60000002384,O,m,3349,,3349.0,11,yes,1,28226.100000023842,83775.5,YXHKZVFPB,YXHKZVFPD,7118,LC,A,,105794.0,11
11,2,25.624000072479248,test,1,z,4375.999927520752,Mon Apr 07 2025 10:27:28 GMT-0500 (Central Daylight Time),113467.5,O,z,1434,,1434.0,12,yes,1,29692.0,83775.5,RJZ,RJZ,7118,LC,A,,109173.0,12
12,2,27.990000009536743,test,1,z,2009.9999904632568,Mon Apr 07 2025 10:27:28 GMT-0500 (Central Daylight Time),115833.5,O,z,2344,,2344.0,13,yes,1,32058.0,83775.5,CLNPZD,CLNPZD,7118,LC,A,,110640.0,13
12,2,30.02500009536743,test,0,m,-25.00009536743164,Mon Apr 07 2025 10:27:28 GMT-0500 (Central Daylight Time),117866.39999997616,O,None,2016,,2016.0,14,no,1,34090.89999997616,83775.5,DCBPFHXYJ,DCBPFHLYJ,7118,LC,A,,113005.0,14
