Q,Q1,Q2,Q3,Q4,acc_sum,block,block_c,correct,correct_response,datetime,endtime,project,response,response_time,row_sel,session_number,squiggle1,squiggle1x,squiggle1y,squiggle2,squiggle2x,squiggle2y,squiggle3,squiggle3x,squiggle3y,squiggle4,squiggle4x,squiggle4y,start_end,starttime,subject_id,target_congruent,task,task_vers,testsquiggle,testsquigglex,testsquiggley,time_practice_delay,time_practice_fixation,time_practice_stimuli,time_practice_study,time_test_delay,time_test_fixation,time_test_stimuli,time_test_study,trial
1,1,0,0,0,1,prac,1,1,z,Wed Apr 09 2025 13:10:26 GMT-0500 (Central Daylight Time),142993.80000001192,O,z,1840,1,1,116.bmp,-120,-120,117.bmp,120,-120,118.bmp,-120,120,119.bmp,120,120,10626.400000035763,132367.39999997616,7125,yes,SM,A,116.bmp,-120,-120,130645,124622,132647,126633,,,,,1
3,0,0,1,0,1,prac,1,0,m,Wed Apr 09 2025 13:10:26 GMT-0500 (Central Daylight Time),153822.69999998808,O,None,2017,2,1,120.bmp,-120,-120,121.bmp,120,-120,122.bmp,-120,120,123.bmp,120,120,10826.100000023842,142996.59999996424,7125,no,SM,A,123.bmp,-120,120,141277,135251,143293,137264,,,,,2
4,0,0,0,1,2,prac,1,1,m,Wed Apr 09 2025 13:10:26 GMT-0500 (Central Daylight Time),164102.59999996424,O,m,1453,3,1,124.bmp,-120,-120,125.bmp,120,-120,126.bmp,-120,120,127.bmp,120,120,10273.699999988079,153828.89999997616,7125,no,SM,A,124.bmp,120,120,152108,146083,154122,148092,,,,,3
2,0,1,0,0,3,prac,1,1,z,Wed Apr 09 2025 13:10:26 GMT-0500 (Central Daylight Time),174915.30000001192,O,z,1997,4,1,128.bmp,-120,-120,129.bmp,120,-120,130.bmp,-120,120,131.bmp,120,120,10804.5,164110.80000001192,7125,yes,SM,A,129.bmp,120,-120,162387,156365,164405,158372,,,,,4
3,0,0,1,0,4,prac,1,1,z,Wed Apr 09 2025 13:10:26 GMT-0500 (Central Daylight Time),185628.69999998808,O,z,1894,5,1,132.bmp,-120,-120,133.bmp,120,-120,134.bmp,-120,120,135.bmp,120,120,10709.100000023842,174919.59999996424,7125,yes,SM,A,134.bmp,-120,120,173201,167174,175218,169186,,,,,5
1,1,0,0,0,4,prac,1,0,m,Wed Apr 09 2025 13:10:26 GMT-0500 (Central Daylight Time),196440.80000001192,O,None,2001,6,1,136.bmp,-120,-120,137.bmp,120,-120,138.bmp,-120,120,139.bmp,120,120,10807.900000035763,185632.89999997616,7125,no,SM,A,139.bmp,-120,-120,183913,177887,185929,179899,,,,,6
2,0,1,0,0,5,prac,1,1,m,Wed Apr 09 2025 13:10:26 GMT-0500 (Central Daylight Time),207020.89999997616,O,m,1753,7,1,140.bmp,-120,-120,141.bmp,120,-120,142.bmp,-120,120,143.bmp,120,120,10576.899999976158,196444.0,7125,no,SM,A,140.bmp,120,-120,194726,188698,196742,190712,,,,,7
4,0,0,0,1,5,prac,1,0,z,Wed Apr 09 2025 13:10:26 GMT-0500 (Central Daylight Time),217035.59999996424,O,m,1189,8,1,144.bmp,-120,-120,145.bmp,120,-120,146.bmp,-120,120,147.bmp,120,120,10011.0,207024.59999996424,7125,yes,SM,A,147.bmp,120,120,205307,199279,207323,201291,,,,,8
4,0,0,0,1,0,test,1,0,m,Wed Apr 09 2025 13:10:26 GMT-0500 (Central Daylight Time),237261.30000001192,O,None,2014,1,1,148.bmp,-120,-120,149.bmp,120,-120,150.bmp,-120,120,143.bmp,120,120,10042.800000011921,227218.5,7125,no,SM,A,150.bmp,120,120,205307,199279,207323,201291,225500.0,219473.0,227501.0,221486.0,1
2,0,1,0,0,0,test,1,0,m,Wed Apr 09 2025 13:10:26 GMT-0500 (Central Daylight Time),247324.30000001192,O,None,2014,2,1,101.bmp,-120,-120,102.bmp,120,-120,103.bmp,-120,120,104.bmp,120,120,10058.900000035763,237265.39999997616,7125,no,SM,A,103.bmp,120,-120,205307,199279,207323,201291,235546.0,229520.0,237564.0,231532.0,2
1,1,0,0,0,0,test,1,0,z,Wed Apr 09 2025 13:10:26 GMT-0500 (Central Daylight Time),257388.89999997616,O,None,2014,3,1,105.bmp,-120,-120,106.bmp,120,-120,107.bmp,-120,120,108.bmp,120,120,10058.399999976158,247330.5,7125,yes,SM,A,105.bmp,-120,-120,205307,199279,207323,201291,245610.0,239585.0,247628.0,241595.0,3
3,0,0,1,0,1,test,1,1,m,Wed Apr 09 2025 13:10:26 GMT-0500 (Central Daylight Time),267184.6999999881,O,m,1748,4,1,109.bmp,-120,-120,110.bmp,120,-120,111.bmp,-120,120,112.bmp,120,120,9788.0,257396.69999998808,7125,no,SM,A,109.bmp,-120,120,205307,199279,207323,201291,255672.0,249651.0,257676.0,251660.0,4
2,0,1,0,0,1,test,1,0,z,Wed Apr 09 2025 13:10:26 GMT-0500 (Central Daylight Time),277164.6999999881,O,m,1919,5,1,113.bmp,-120,-120,114.bmp,120,-120,115.bmp,-120,120,116.bmp,120,120,9975.300000011921,267189.39999997616,7125,yes,SM,A,114.bmp,120,-120,205307,199279,207323,201291,265471.0,259444.0,267488.0,261456.0,5
3,0,0,1,0,2,test,1,1,z,Wed Apr 09 2025 13:10:26 GMT-0500 (Central Daylight Time),286245.59999996424,O,z,1015,6,1,117.bmp,-120,-120,118.bmp,120,-120,119.bmp,-120,120,120.bmp,120,120,9078.199999988079,277167.39999997616,7125,yes,SM,A,119.bmp,-120,120,205307,199279,207323,201291,275452.0,269422.0,277468.0,271437.0,6
4,0,0,0,1,2,test,1,0,z,Wed Apr 09 2025 13:10:26 GMT-0500 (Central Daylight Time),296310.09999996424,O,None,2015,7,1,121.bmp,-120,-120,122.bmp,120,-120,123.bmp,-120,120,124.bmp,120,120,10059.899999976158,286250.1999999881,7125,yes,SM,A,124.bmp,120,120,205307,199279,207323,201291,284532.0,278504.0,286549.0,280517.0,7
2,0,1,0,0,3,test,1,1,m,Wed Apr 09 2025 13:10:26 GMT-0500 (Central Daylight Time),305723.5,O,m,1365,8,1,125.bmp,-120,-120,126.bmp,120,-120,127.bmp,-120,120,128.bmp,120,120,9408.600000023842,296314.89999997616,7125,no,SM,A,125.bmp,120,-120,205307,199279,207323,201291,294596.0,288569.0,296612.0,290581.0,8
3,0,0,1,0,4,test,1,1,m,Wed Apr 09 2025 13:10:26 GMT-0500 (Central Daylight Time),315286.8000000119,O,m,1502,9,1,129.bmp,-120,-120,130.bmp,120,-120,131.bmp,-120,120,132.bmp,120,120,9557.900000035763,305728.89999997616,7125,no,SM,A,130.bmp,-120,120,205307,199279,207323,201291,304009.0,297983.0,306025.0,299994.0,9
4,0,0,0,1,4,test,1,0,z,Wed Apr 09 2025 13:10:26 GMT-0500 (Central Daylight Time),325350.39999997616,O,None,2015,10,1,137.bmp,-120,-120,138.bmp,120,-120,139.bmp,-120,120,140.bmp,120,120,10059.800000011921,315290.59999996424,7125,yes,SM,A,140.bmp,120,120,205307,199279,207323,201291,313573.0,307545.0,315589.0,309557.0,10
3,0,0,1,0,5,test,1,1,z,Wed Apr 09 2025 13:10:26 GMT-0500 (Central Daylight Time),334715.1999999881,O,z,1316,11,1,133.bmp,-120,-120,134.bmp,120,-120,135.bmp,-120,120,136.bmp,120,120,9361.100000023842,325354.09999996424,7125,yes,SM,A,135.bmp,-120,120,205307,199279,207323,201291,323636.0,317608.0,325653.0,319622.0,11
2,0,1,0,0,6,test,1,1,m,Wed Apr 09 2025 13:10:26 GMT-0500 (Central Daylight Time),344461.0,O,m,1688,12,1,141.bmp,-120,-120,142.bmp,120,-120,143.bmp,-120,120,144.bmp,120,120,9741.100000023842,334719.89999997616,7125,no,SM,A,141.bmp,120,-120,205307,199279,207323,201291,333000.0,326974.0,335016.0,328985.0,12
3,0,0,1,0,7,test,1,1,m,Wed Apr 09 2025 13:10:26 GMT-0500 (Central Daylight Time),353792.0,O,m,1268,13,1,145.bmp,-120,-120,146.bmp,120,-120,147.bmp,-120,120,148.bmp,120,120,9327.100000023842,344464.89999997616,7125,no,SM,A,146.bmp,-120,120,205307,199279,207323,201291,342746.0,336719.0,344763.0,338731.0,13
1,1,0,0,0,8,test,1,1,z,Wed Apr 09 2025 13:10:26 GMT-0500 (Central Daylight Time),362905.59999996424,O,z,1081,14,1,149.bmp,-120,-120,150.bmp,120,-120,104.bmp,-120,120,101.bmp,120,120,9110.099999964237,353795.5,7125,yes,SM,A,149.bmp,-120,-120,205307,199279,207323,201291,352076.0,346050.0,354078.0,348062.0,14
4,0,0,0,1,9,test,1,1,m,Wed Apr 09 2025 13:10:26 GMT-0500 (Central Daylight Time),372169.0,O,m,1208,15,1,110.bmp,-120,-120,111.bmp,120,-120,112.bmp,-120,120,113.bmp,120,120,9260.300000011921,362908.6999999881,7125,no,SM,A,111.bmp,120,120,205307,199279,207323,201291,361192.0,355163.0,363208.0,357178.0,15
1,1,0,0,0,10,test,1,1,m,Wed Apr 09 2025 13:10:26 GMT-0500 (Central Daylight Time),381165.8000000119,O,m,960,16,1,102.bmp,-120,-120,103.bmp,120,-120,104.bmp,-120,120,105.bmp,120,120,8991.900000035763,372173.89999997616,7125,no,SM,A,105.bmp,-120,-120,205307,199279,207323,201291,370455.0,364428.0,372457.0,366440.0,16
3,0,0,1,0,10,test,1,0,m,Wed Apr 09 2025 13:10:26 GMT-0500 (Central Daylight Time),391228.8000000119,O,None,2014,17,1,122.bmp,-120,-120,123.bmp,120,-120,124.bmp,-120,120,125.bmp,120,120,10058.200000047684,381170.59999996424,7125,no,SM,A,122.bmp,-120,120,205307,199279,207323,201291,379454.0,373425.0,381469.0,375438.0,17
1,1,0,0,0,10,test,1,0,z,Wed Apr 09 2025 13:10:26 GMT-0500 (Central Daylight Time),400910.59999996424,O,m,1631,18,1,106.bmp,-120,-120,107.bmp,120,-120,108.bmp,-120,120,109.bmp,120,120,9675.099999964237,391235.5,7125,yes,SM,A,106.bmp,-120,-120,205307,199279,207323,201291,389516.0,383490.0,391532.0,385497.0,18
2,0,1,0,0,10,test,1,0,z,Wed Apr 09 2025 13:10:26 GMT-0500 (Central Daylight Time),409790.89999997616,O,m,819,19,1,126.bmp,-120,-120,127.bmp,120,-120,128.bmp,-120,120,129.bmp,120,120,8877.099999964237,400913.8000000119,7125,yes,SM,A,127.bmp,120,-120,205307,199279,207323,201291,399195.0,393168.0,401213.0,395180.0,19
3,0,0,1,0,11,test,1,1,z,Wed Apr 09 2025 13:10:26 GMT-0500 (Central Daylight Time),419138.8000000119,O,z,1299,20,1,130.bmp,-120,-120,131.bmp,120,-120,132.bmp,-120,120,133.bmp,120,120,9344.100000023842,409794.6999999881,7125,yes,SM,A,132.bmp,-120,120,205307,199279,207323,201291,408076.0,402049.0,410093.0,404061.0,20
1,1,0,0,0,12,test,1,1,m,Wed Apr 09 2025 13:10:26 GMT-0500 (Central Daylight Time),428283.8000000119,O,m,1089,21,1,114.bmp,-120,-120,115.bmp,120,-120,116.bmp,-120,120,117.bmp,120,120,9140.400000035763,419143.39999997616,7125,no,SM,A,116.bmp,-120,-120,205307,199279,207323,201291,417427.0,411398.0,419439.0,413408.0,21
4,0,0,0,1,12,test,1,0,z,Wed Apr 09 2025 13:10:26 GMT-0500 (Central Daylight Time),437847.0,O,m,1508,22,1,118.bmp,-120,-120,119.bmp,120,-120,120.bmp,-120,120,121.bmp,120,120,9560.199999988079,428286.8000000119,7125,yes,SM,A,121.bmp,120,120,205307,199279,207323,201291,426572.0,420541.0,428587.0,422555.0,22
1,1,0,0,0,13,test,1,1,m,Wed Apr 09 2025 13:10:26 GMT-0500 (Central Daylight Time),447011.5,O,m,1104,23,1,134.bmp,-120,-120,135.bmp,120,-120,136.bmp,-120,120,137.bmp,120,120,9161.600000023842,437849.89999997616,7125,no,SM,A,137.bmp,-120,-120,205307,199279,207323,201291,436135.0,430104.0,438150.0,432119.0,23
2,0,1,0,0,13,test,1,0,z,Wed Apr 09 2025 13:10:26 GMT-0500 (Central Daylight Time),456774.89999997616,O,m,1725,24,1,142.bmp,-120,-120,143.bmp,120,-120,144.bmp,-120,120,145.bmp,120,120,9760.300000011921,447014.59999996424,7125,yes,SM,A,143.bmp,120,-120,205307,199279,207323,201291,445296.0,439269.0,447299.0,441282.0,24
4,0,0,0,1,14,test,1,1,m,Wed Apr 09 2025 13:10:26 GMT-0500 (Central Daylight Time),466439.5,O,m,1601,25,1,146.bmp,-120,-120,147.bmp,120,-120,148.bmp,-120,120,149.bmp,120,120,9660.900000035763,456778.59999996424,7125,no,SM,A,148.bmp,120,120,205307,199279,207323,201291,455061.0,449033.0,457079.0,451046.0,25
1,1,0,0,0,14,test,1,0,z,Wed Apr 09 2025 13:10:26 GMT-0500 (Central Daylight Time),476502.39999997616,O,None,2013,26,1,138.bmp,-120,-120,139.bmp,120,-120,140.bmp,-120,120,141.bmp,120,120,10059.599999964237,466442.8000000119,7125,yes,SM,A,138.bmp,-120,-120,205307,199279,207323,201291,464725.0,458697.0,466743.0,460711.0,26
4,0,0,0,1,14,test,1,0,z,Wed Apr 09 2025 13:10:26 GMT-0500 (Central Daylight Time),486132.89999997616,O,m,1585,27,1,150.bmp,-120,-120,111.bmp,120,-120,101.bmp,-120,120,102.bmp,120,120,9626.5,476506.39999997616,7125,yes,SM,A,102.bmp,120,120,205307,199279,207323,201291,474787.0,468761.0,476790.0,470774.0,27
3,0,0,1,0,15,test,1,1,m,Wed Apr 09 2025 13:10:26 GMT-0500 (Central Daylight Time),496080.1999999881,O,m,1883,28,1,103.bmp,-120,-120,104.bmp,120,-120,105.bmp,-120,120,106.bmp,120,120,9941.800000011921,486138.39999997616,7125,no,SM,A,103.bmp,-120,120,205307,199279,207323,201291,484418.0,478393.0,486437.0,480404.0,28
2,0,1,0,0,15,test,1,0,z,Wed Apr 09 2025 13:10:26 GMT-0500 (Central Daylight Time),505527.3000000119,O,m,1386,29,1,107.bmp,-120,-120,108.bmp,120,-120,109.bmp,-120,120,110.bmp,120,120,9443.100000023842,496084.1999999881,7125,yes,SM,A,108.bmp,120,-120,205307,199279,207323,201291,494366.0,488338.0,496381.0,490352.0,29
3,0,0,1,0,16,test,1,1,z,Wed Apr 09 2025 13:10:26 GMT-0500 (Central Daylight Time),514906.59999996424,O,z,1323,30,1,111.bmp,-120,-120,112.bmp,120,-120,113.bmp,-120,120,114.bmp,120,120,9375.899999976158,505530.6999999881,7125,yes,SM,A,113.bmp,-120,120,205307,199279,207323,201291,503813.0,497785.0,505829.0,499798.0,30
1,1,0,0,0,17,test,1,1,z,Wed Apr 09 2025 13:10:26 GMT-0500 (Central Daylight Time),524721.5,O,z,1758,31,1,115.bmp,-120,-120,116.bmp,120,-120,117.bmp,-120,120,118.bmp,120,120,9811.5,514910.0,7125,yes,SM,A,115.bmp,-120,-120,205307,199279,207323,201291,513193.0,507164.0,515210.0,509177.0,31
2,0,1,0,0,17,test,1,0,m,Wed Apr 09 2025 13:10:26 GMT-0500 (Central Daylight Time),534768.1999999881,O,None,2001,32,1,119.bmp,-120,-120,120.bmp,120,-120,121.bmp,-120,120,122.bmp,120,120,10043.399999976158,524724.8000000119,7125,no,SM,A,119.bmp,120,-120,205307,199279,207323,201291,523007.0,516979.0,525021.0,518992.0,32
4,0,0,0,1,17,test,1,0,z,Wed Apr 09 2025 13:10:26 GMT-0500 (Central Daylight Time),544048.8000000119,O,m,1230,33,1,131.bmp,-120,-120,132.bmp,120,-120,133.bmp,-120,120,134.bmp,120,120,9276.800000011921,534772.0,7125,yes,SM,A,134.bmp,120,120,205307,199279,207323,201291,533053.0,527026.0,535057.0,529039.0,33
2,0,1,0,0,17,test,1,0,z,Wed Apr 09 2025 13:10:26 GMT-0500 (Central Daylight Time),554093.3000000119,O,None,2012,34,1,123.bmp,-120,-120,124.bmp,120,-120,125.bmp,-120,120,126.bmp,120,120,10040.900000035763,544052.3999999762,7125,yes,SM,A,124.bmp,120,-120,205307,199279,207323,201291,542333.0,536307.0,544335.0,538319.0,34
4,0,0,0,1,18,test,1,1,m,Wed Apr 09 2025 13:10:26 GMT-0500 (Central Daylight Time),563274.3000000119,O,m,1124,35,1,127.bmp,-120,-120,128.bmp,120,-120,129.bmp,-120,120,130.bmp,120,120,9176.900000035763,554097.3999999762,7125,no,SM,A,129.bmp,120,120,205307,199279,207323,201291,552380.0,546352.0,554395.0,548364.0,35
3,0,0,1,0,19,test,1,1,m,Wed Apr 09 2025 13:10:26 GMT-0500 (Central Daylight Time),572455.0,O,m,1126,36,1,135.bmp,-120,-120,136.bmp,120,-120,137.bmp,-120,120,138.bmp,120,120,9177.900000035763,563277.0999999642,7125,no,SM,A,135.bmp,-120,120,205307,199279,207323,201291,561561.0,555531.0,563578.0,557546.0,36
1,1,0,0,0,20,test,1,1,m,Wed Apr 09 2025 13:10:26 GMT-0500 (Central Daylight Time),581602.0999999642,O,m,1082,37,1,139.bmp,-120,-120,140.bmp,120,-120,141.bmp,-120,120,142.bmp,120,120,9144.199999988079,572457.8999999762,7125,no,SM,A,140.bmp,-120,-120,205307,199279,207323,201291,570742.0,564712.0,572758.0,566726.0,37
2,0,1,0,0,21,test,1,1,m,Wed Apr 09 2025 13:10:26 GMT-0500 (Central Daylight Time),590849.0999999642,O,m,1182,38,1,143.bmp,-120,-120,144.bmp,120,-120,145.bmp,-120,120,146.bmp,120,120,9242.899999976158,581606.1999999881,7125,no,SM,A,145.bmp,120,-120,205307,199279,207323,201291,579889.0,573860.0,581907.0,575872.0,38
4,0,0,0,1,21,test,1,0,z,Wed Apr 09 2025 13:10:26 GMT-0500 (Central Daylight Time),600913.3000000119,O,None,2015,39,1,147.bmp,-120,-120,148.bmp,120,-120,149.bmp,-120,120,150.bmp,120,120,10059.900000035763,590853.3999999762,7125,yes,SM,A,150.bmp,120,120,205307,199279,207323,201291,589136.0,583108.0,591152.0,585121.0,39
3,0,0,1,0,21,test,1,0,m,Wed Apr 09 2025 13:10:26 GMT-0500 (Central Daylight Time),610110.3000000119,O,z,1149,40,1,104.bmp,-120,-120,105.bmp,120,-120,106.bmp,-120,120,107.bmp,120,120,9192.600000023842,600917.6999999881,7125,no,SM,A,105.bmp,-120,120,205307,199279,207323,201291,599199.0,593172.0,601215.0,595182.0,40
1,1,0,0,0,21,test,1,0,z,Wed Apr 09 2025 13:10:26 GMT-0500 (Central Daylight Time),619874.0999999642,O,m,1699,41,1,108.bmp,-120,-120,109.bmp,120,-120,110.bmp,-120,120,111.bmp,120,120,9759.5,610114.5999999642,7125,yes,SM,A,108.bmp,-120,-120,205307,199279,207323,201291,608396.0,602369.0,610413.0,604382.0,41
4,0,0,0,1,21,test,1,0,z,Wed Apr 09 2025 13:10:26 GMT-0500 (Central Daylight Time),629937.5999999642,O,None,2015,42,1,112.bmp,-120,-120,113.bmp,120,-120,114.bmp,-120,120,115.bmp,120,120,10053.599999964237,619884.0,7125,yes,SM,A,115.bmp,120,120,205307,199279,207323,201291,618159.0,612139.0,620176.0,614146.0,42
1,1,0,0,0,22,test,1,1,z,Wed Apr 09 2025 13:10:26 GMT-0500 (Central Daylight Time),639218.0,O,z,1224,43,1,116.bmp,-120,-120,117.bmp,120,-120,118.bmp,-120,120,119.bmp,120,120,9274.900000035763,629943.0999999642,7125,yes,SM,A,116.bmp,-120,-120,205307,199279,207323,201291,628224.0,622198.0,630240.0,624210.0,43
4,0,0,0,1,22,test,1,0,m,Wed Apr 09 2025 13:10:26 GMT-0500 (Central Daylight Time),648331.3000000119,O,z,1073,44,1,104.bmp,-120,-120,101.bmp,120,-120,102.bmp,-120,120,103.bmp,120,120,9108.300000011921,639223.0,7125,no,SM,A,104.bmp,120,120,205307,199279,207323,201291,637487.0,631477.0,639503.0,633486.0,44
1,1,0,0,0,23,test,1,1,m,Wed Apr 09 2025 13:10:26 GMT-0500 (Central Daylight Time),657795.0999999642,O,m,1407,45,1,128.bmp,-120,-120,129.bmp,120,-120,130.bmp,-120,120,131.bmp,120,120,9460.599999964237,648334.5,7125,no,SM,A,131.bmp,-120,-120,205307,199279,207323,201291,646617.0,640589.0,648634.0,642604.0,45
1,1,0,0,0,24,test,1,1,m,Wed Apr 09 2025 13:10:26 GMT-0500 (Central Daylight Time),666941.8999999762,O,m,1087,46,1,120.bmp,-120,-120,121.bmp,120,-120,122.bmp,-120,120,123.bmp,120,120,9143.599999964237,657798.3000000119,7125,no,SM,A,121.bmp,-120,-120,205307,199279,207323,201291,656080.0,650053.0,658098.0,652066.0,46
3,0,0,1,0,25,test,1,1,z,Wed Apr 09 2025 13:10:26 GMT-0500 (Central Daylight Time),676373.3000000119,O,z,1382,47,1,124.bmp,-120,-120,125.bmp,120,-120,126.bmp,-120,120,127.bmp,120,120,9428.100000023842,666945.1999999881,7125,yes,SM,A,126.bmp,-120,120,205307,199279,207323,201291,665228.0,659199.0,667245.0,661213.0,47
3,0,0,1,0,26,test,1,1,z,Wed Apr 09 2025 13:10:26 GMT-0500 (Central Daylight Time),685519.1999999881,O,z,1085,48,1,140.bmp,-120,-120,141.bmp,120,-120,142.bmp,-120,120,143.bmp,120,120,9142.300000011921,676376.8999999762,7125,yes,SM,A,142.bmp,-120,120,205307,199279,207323,201291,674659.0,668631.0,676674.0,670643.0,48
2,0,1,0,0,26,test,1,0,z,Wed Apr 09 2025 13:10:26 GMT-0500 (Central Daylight Time),695568.0999999642,O,None,2002,49,1,136.bmp,-120,-120,137.bmp,120,-120,138.bmp,-120,120,139.bmp,120,120,10045.0,685523.0999999642,7125,yes,SM,A,137.bmp,120,-120,205307,199279,207323,201291,683804.0,677777.0,685820.0,679791.0,49
3,0,0,1,0,26,test,1,0,m,Wed Apr 09 2025 13:10:26 GMT-0500 (Central Daylight Time),705629.8999999762,O,None,2014,50,1,132.bmp,-120,-120,133.bmp,120,-120,134.bmp,-120,120,135.bmp,120,120,10058.399999976158,695571.5,7125,no,SM,A,132.bmp,-120,120,205307,199279,207323,201291,693850.0,687826.0,695869.0,689839.0,50
2,0,1,0,0,26,test,1,0,z,Wed Apr 09 2025 13:10:26 GMT-0500 (Central Daylight Time),715360.8999999762,O,m,1677,51,1,144.bmp,-120,-120,145.bmp,120,-120,146.bmp,-120,120,147.bmp,120,120,9727.5,705633.3999999762,7125,yes,SM,A,145.bmp,120,-120,205307,199279,207323,201291,703915.0,697888.0,705931.0,699902.0,51
4,0,0,0,1,27,test,1,1,m,Wed Apr 09 2025 13:10:26 GMT-0500 (Central Daylight Time),724907.5,O,m,1490,52,1,148.bmp,-120,-120,149.bmp,120,-120,150.bmp,-120,120,131.bmp,120,120,9543.600000023842,715363.8999999762,7125,no,SM,A,148.bmp,120,120,205307,199279,207323,201291,713646.0,707618.0,715662.0,709630.0,52
3,0,0,1,0,28,test,1,1,z,Wed Apr 09 2025 13:10:26 GMT-0500 (Central Daylight Time),734854.0999999642,O,z,1899,53,1,101.bmp,-120,-120,102.bmp,120,-120,103.bmp,-120,120,104.bmp,120,120,9942.199999988079,724911.8999999762,7125,yes,SM,A,103.bmp,-120,120,205307,199279,207323,201291,723179.0,717166.0,725193.0,719177.0,53
1,1,0,0,0,29,test,1,1,m,Wed Apr 09 2025 13:10:26 GMT-0500 (Central Daylight Time),744567.3000000119,O,m,1651,54,1,105.bmp,-120,-120,106.bmp,120,-120,107.bmp,-120,120,108.bmp,120,120,9706.900000035763,734860.3999999762,7125,no,SM,A,107.bmp,-120,-120,205307,199279,207323,201291,733139.0,727115.0,735157.0,729126.0,54
4,0,0,0,1,29,test,1,0,z,Wed Apr 09 2025 13:10:26 GMT-0500 (Central Daylight Time),754081.8000000119,O,m,1457,55,1,109.bmp,-120,-120,110.bmp,120,-120,111.bmp,-120,120,112.bmp,120,120,9508.300000011921,744573.5,7125,yes,SM,A,112.bmp,120,120,205307,199279,207323,201291,742854.0,736828.0,744871.0,738838.0,55
2,0,1,0,0,30,test,1,1,m,Wed Apr 09 2025 13:10:26 GMT-0500 (Central Daylight Time),763944.5,O,m,1810,56,1,113.bmp,-120,-120,114.bmp,120,-120,115.bmp,-120,120,116.bmp,120,120,9857.199999988079,754087.3000000119,7125,no,SM,A,113.bmp,120,-120,205307,199279,207323,201291,752366.0,746342.0,754383.0,748351.0,56
4,0,0,0,1,31,test,1,1,m,Wed Apr 09 2025 13:10:26 GMT-0500 (Central Daylight Time),773141.8999999762,O,m,1131,57,1,117.bmp,-120,-120,118.bmp,120,-120,119.bmp,-120,120,120.bmp,120,120,9194.699999988079,763947.1999999881,7125,no,SM,A,118.bmp,120,120,205307,199279,207323,201291,762231.0,756201.0,764248.0,758216.0,57
3,0,0,1,0,31,test,1,0,z,Wed Apr 09 2025 13:10:26 GMT-0500 (Central Daylight Time),783204.8000000119,O,None,2016,58,1,121.bmp,-120,-120,122.bmp,120,-120,123.bmp,-120,120,124.bmp,120,120,10058.900000035763,773145.8999999762,7125,yes,SM,A,123.bmp,-120,120,205307,199279,207323,201291,771428.0,765400.0,773443.0,767413.0,58
2,0,1,0,0,32,test,1,1,m,Wed Apr 09 2025 13:10:26 GMT-0500 (Central Daylight Time),792186.5,O,m,933,59,1,125.bmp,-120,-120,126.bmp,120,-120,127.bmp,-120,120,128.bmp,120,120,8977.0,783209.5,7125,no,SM,A,128.bmp,120,-120,205307,199279,207323,201291,781490.0,775464.0,783507.0,777475.0,59
1,1,0,0,0,33,test,1,1,z,Wed Apr 09 2025 13:10:26 GMT-0500 (Central Daylight Time),801514.8999999762,O,z,1263,60,1,129.bmp,-120,-120,130.bmp,120,-120,131.bmp,-120,120,132.bmp,120,120,9324.399999976158,792190.5,7125,yes,SM,A,129.bmp,-120,-120,205307,199279,207323,201291,790472.0,784445.0,792489.0,786457.0,60
2,0,1,0,0,34,test,1,1,z,Wed Apr 09 2025 13:10:26 GMT-0500 (Central Daylight Time),810697.8999999762,O,z,1133,61,1,133.bmp,-120,-120,134.bmp,120,-120,135.bmp,-120,120,136.bmp,120,120,9180.0,801517.8999999762,7125,yes,SM,A,134.bmp,120,-120,205307,199279,207323,201291,799803.0,793772.0,801819.0,795788.0,61
4,0,0,0,1,34,test,1,0,z,Wed Apr 09 2025 13:10:26 GMT-0500 (Central Daylight Time),820758.6999999881,O,None,2014,62,1,141.bmp,-120,-120,142.bmp,120,-120,143.bmp,-120,120,144.bmp,120,120,10057.699999988079,810701.0,7125,yes,SM,A,144.bmp,120,120,205307,199279,207323,201291,808982.0,802955.0,810999.0,804967.0,62
1,1,0,0,0,35,test,1,1,m,Wed Apr 09 2025 13:10:26 GMT-0500 (Central Daylight Time),830540.6999999881,O,m,1731,63,1,145.bmp,-120,-120,146.bmp,120,-120,147.bmp,-120,120,148.bmp,120,120,9776.899999976158,820763.8000000119,7125,no,SM,A,145.bmp,-120,120,205307,199279,207323,201291,819045.0,813018.0,821063.0,815030.0,63
2,0,1,0,0,36,test,1,1,z,Wed Apr 09 2025 13:10:26 GMT-0500 (Central Daylight Time),839870.3999999762,O,z,1270,64,1,149.bmp,-120,-120,150.bmp,120,-120,112.bmp,-120,120,101.bmp,120,120,9325.5,830544.8999999762,7125,yes,SM,A,150.bmp,120,-120,205307,199279,207323,201291,828826.0,822799.0,830842.0,824811.0,64
4,0,0,0,1,36,test,1,0,m,Wed Apr 09 2025 13:10:26 GMT-0500 (Central Daylight Time),849932.1999999881,O,None,2014,65,1,102.bmp,-120,-120,103.bmp,120,-120,104.bmp,-120,120,105.bmp,120,120,10058.100000023842,839874.0999999642,7125,no,SM,A,104.bmp,120,120,205307,199279,207323,201291,838159.0,832128.0,840172.0,834141.0,65
3,0,0,1,0,37,test,1,1,m,Wed Apr 09 2025 13:10:26 GMT-0500 (Central Daylight Time),859712.8000000119,O,m,1741,66,1,106.bmp,-120,-120,107.bmp,120,-120,108.bmp,-120,120,109.bmp,120,120,9777.5,849935.3000000119,7125,no,SM,A,109.bmp,-120,120,205307,199279,207323,201291,848204.0,842190.0,850219.0,844203.0,66
2,0,1,0,0,38,test,1,1,m,Wed Apr 09 2025 13:10:26 GMT-0500 (Central Daylight Time),868958.8000000119,O,m,1182,67,1,137.bmp,-120,-120,138.bmp,120,-120,139.bmp,-120,120,140.bmp,120,120,9242.900000035763,859715.8999999762,7125,no,SM,A,139.bmp,120,-120,205307,199279,207323,201291,857997.0,851970.0,860016.0,853982.0,67
3,0,0,1,0,38,test,1,0,z,Wed Apr 09 2025 13:10:26 GMT-0500 (Central Daylight Time),878773.8000000119,O,m,1763,68,1,110.bmp,-120,-120,111.bmp,120,-120,112.bmp,-120,120,113.bmp,120,120,9812.300000011921,868961.5,7125,yes,SM,A,112.bmp,-120,120,205307,199279,207323,201291,867245.0,861216.0,869261.0,863229.0,68
1,1,0,0,0,38,test,1,0,m,Wed Apr 09 2025 13:10:26 GMT-0500 (Central Daylight Time),887802.3999999762,O,z,981,69,1,114.bmp,-120,-120,115.bmp,120,-120,116.bmp,-120,120,117.bmp,120,120,9025.300000011921,878777.0999999642,7125,no,SM,A,115.bmp,-120,-120,205307,199279,207323,201291,877058.0,871031.0,879074.0,873045.0,69
2,0,1,0,0,39,test,1,1,m,Wed Apr 09 2025 13:10:26 GMT-0500 (Central Daylight Time),897117.1999999881,O,m,1262,70,1,118.bmp,-120,-120,119.bmp,120,-120,120.bmp,-120,120,121.bmp,120,120,9312.199999988079,887805.0,7125,no,SM,A,120.bmp,120,-120,205307,199279,207323,201291,886088.0,880059.0,888105.0,882073.0,70
4,0,0,0,1,40,test,1,1,z,Wed Apr 09 2025 13:10:26 GMT-0500 (Central Daylight Time),906530.8999999762,O,z,1367,71,1,122.bmp,-120,-120,123.bmp,120,-120,124.bmp,-120,120,125.bmp,120,120,9411.5,897119.3999999762,7125,yes,SM,A,125.bmp,120,120,205307,199279,207323,201291,895403.0,889374.0,897418.0,891387.0,71
1,1,0,0,0,40,test,1,0,z,Wed Apr 09 2025 13:10:26 GMT-0500 (Central Daylight Time),916362.0,O,m,1776,72,1,126.bmp,-120,-120,127.bmp,120,-120,128.bmp,-120,120,129.bmp,120,120,9828.400000035763,906533.5999999642,7125,yes,SM,A,126.bmp,-120,-120,205307,199279,207323,201291,904817.0,898788.0,906832.0,900801.0,72
2,0,1,0,0,41,test,1,1,z,Wed Apr 09 2025 13:10:26 GMT-0500 (Central Daylight Time),926123.6999999881,O,z,1713,73,1,130.bmp,-120,-120,131.bmp,120,-120,132.bmp,-120,120,133.bmp,120,120,9759.600000023842,916364.0999999642,7125,yes,SM,A,131.bmp,120,-120,205307,199279,207323,201291,914647.0,908618.0,916662.0,910632.0,73
4,0,0,0,1,42,test,1,1,m,Wed Apr 09 2025 13:10:26 GMT-0500 (Central Daylight Time),936087.5,O,m,1917,74,1,134.bmp,-120,-120,135.bmp,120,-120,136.bmp,-120,120,137.bmp,120,120,9961.400000035763,926126.0999999642,7125,no,SM,A,136.bmp,120,120,205307,199279,207323,201291,924409.0,918380.0,926410.0,920394.0,74
2,0,1,0,0,43,test,1,1,m,Wed Apr 09 2025 13:10:26 GMT-0500 (Central Daylight Time),945117.8999999762,O,m,978,75,1,138.bmp,-120,-120,139.bmp,120,-120,140.bmp,-120,120,141.bmp,120,120,9028.0,936089.8999999762,7125,no,SM,A,141.bmp,120,-120,205307,199279,207323,201291,934373.0,928344.0,936389.0,930358.0,75
1,1,0,0,0,43,test,1,0,z,Wed Apr 09 2025 13:10:26 GMT-0500 (Central Daylight Time),954831.3999999762,O,m,1650,76,1,142.bmp,-120,-120,143.bmp,120,-120,144.bmp,-120,120,145.bmp,120,120,9711.199999988079,945120.1999999881,7125,yes,SM,A,142.bmp,-120,-120,205307,199279,207323,201291,943404.0,937374.0,945421.0,939389.0,76
3,0,0,1,0,44,test,1,1,z,Wed Apr 09 2025 13:10:26 GMT-0500 (Central Daylight Time),964495.0,O,z,1609,77,1,150.bmp,-120,-120,111.bmp,120,-120,101.bmp,-120,120,102.bmp,120,120,9661.300000011921,954833.6999999881,7125,yes,SM,A,101.bmp,-120,120,205307,199279,207323,201291,953117.0,947088.0,955133.0,949103.0,77
1,1,0,0,0,45,test,1,1,m,Wed Apr 09 2025 13:10:26 GMT-0500 (Central Daylight Time),973675.5,O,m,1146,78,1,146.bmp,-120,-120,147.bmp,120,-120,148.bmp,-120,120,149.bmp,120,120,9177.300000011921,964498.1999999881,7125,no,SM,A,147.bmp,-120,-120,205307,199279,207323,201291,962766.0,956752.0,964781.0,958765.0,78
4,0,0,0,1,45,test,1,0,m,Wed Apr 09 2025 13:10:26 GMT-0500 (Central Daylight Time),983739.0,O,None,2015,79,1,107.bmp,-120,-120,108.bmp,120,-120,109.bmp,-120,120,110.bmp,120,120,10060.699999988079,973678.3000000119,7125,no,SM,A,107.bmp,120,120,205307,199279,207323,201291,971961.0,965933.0,973978.0,967947.0,79
3,0,0,1,0,45,test,1,0,m,Wed Apr 09 2025 13:10:26 GMT-0500 (Central Daylight Time),993803.3000000119,O,None,2016,80,1,103.bmp,-120,-120,104.bmp,120,-120,105.bmp,-120,120,106.bmp,120,120,10061.800000011921,983741.5,7125,no,SM,A,106.bmp,-120,120,205307,199279,207323,201291,982025.0,975996.0,984041.0,978009.0,80
