Q,Q1,Q2,Q3,Q4,acc_sum,block,block_c,correct,correct_response,datetime,endtime,project,response,response_time,row_sel,session_number,squiggle1,squiggle1x,squiggle1y,squiggle2,squiggle2x,squiggle2y,squiggle3,squiggle3x,squiggle3y,squiggle4,squiggle4x,squiggle4y,start_end,starttime,subject_id,target_congruent,task,task_vers,testsquiggle,testsquigglex,testsquiggley,time_practice_delay,time_practice_fixation,time_practice_stimuli,time_practice_study,time_test_delay,time_test_fixation,time_test_stimuli,time_test_study,trial
1,1,0,0,0,1,prac,1,1,z,Tue Jan 14 2025 15:38:22 GMT-0600 (Central Standard Time),142247.80000001192,I,z,1603,1,1,116.bmp,-120,-120,117.bmp,120,-120,118.bmp,-120,120,119.bmp,120,120,10427.0,131820.80000001192,8014,yes,SM,A,116.bmp,-120,-120,135129,129101,137147,131115,,,,,1
3,0,0,1,0,1,prac,1,0,m,Tue Jan 14 2025 15:38:22 GMT-0600 (Central Standard Time),153077.80000001192,I,None,2014,2,1,120.bmp,-120,-120,121.bmp,120,-120,122.bmp,-120,120,123.bmp,120,120,10825.699999988079,142252.10000002384,8014,no,SM,A,123.bmp,-120,120,145559,139532,147577,141545,,,,,2
4,0,0,0,1,2,prac,1,1,m,Tue Jan 14 2025 15:38:22 GMT-0600 (Central Standard Time),163524.5,I,m,1615,3,1,124.bmp,-120,-120,125.bmp,120,-120,126.bmp,-120,120,127.bmp,120,120,10443.0,153081.5,8014,no,SM,A,124.bmp,120,120,156389,150362,158407,152375,,,,,3
2,0,1,0,0,3,prac,1,1,z,Tue Jan 14 2025 15:38:22 GMT-0600 (Central Standard Time),173804.90000003576,I,z,1455,4,1,128.bmp,-120,-120,129.bmp,120,-120,130.bmp,-120,120,131.bmp,120,120,10276.900000035763,163528.0,8014,yes,SM,A,129.bmp,120,-120,166836,160808,168854,162822,,,,,4
3,0,0,1,0,4,prac,1,1,z,Tue Jan 14 2025 15:38:22 GMT-0600 (Central Standard Time),184268.10000002384,I,z,1632,5,1,132.bmp,-120,-120,133.bmp,120,-120,134.bmp,-120,120,135.bmp,120,120,10459.699999988079,173808.40000003576,8014,yes,SM,A,134.bmp,-120,120,177116,171089,179134,173102,,,,,5
1,1,0,0,0,5,prac,1,1,m,Tue Jan 14 2025 15:38:22 GMT-0600 (Central Standard Time),194764.69999998808,I,m,1673,6,1,136.bmp,-120,-120,137.bmp,120,-120,138.bmp,-120,120,139.bmp,120,120,10492.299999952316,184272.40000003576,8014,no,SM,A,139.bmp,-120,-120,187579,181553,189597,183565,,,,,6
2,0,1,0,0,6,prac,1,1,m,Tue Jan 14 2025 15:38:22 GMT-0600 (Central Standard Time),205061.30000001192,I,m,1480,7,1,140.bmp,-120,-120,141.bmp,120,-120,142.bmp,-120,120,143.bmp,120,120,10293.199999988079,194768.10000002384,8014,no,SM,A,140.bmp,120,-120,198076,192048,200094,194062,,,,,7
4,0,0,0,1,6,prac,1,0,z,Tue Jan 14 2025 15:38:22 GMT-0600 (Central Standard Time),215324.90000003576,I,m,1447,8,1,144.bmp,-120,-120,145.bmp,120,-120,146.bmp,-120,120,147.bmp,120,120,10260.0,205064.90000003576,8014,yes,SM,A,147.bmp,120,120,208373,202345,210391,204359,,,,,8
4,0,0,0,1,1,test,1,1,m,Tue Jan 14 2025 15:38:22 GMT-0600 (Central Standard Time),241733.30000001192,I,m,1507,1,1,148.bmp,-120,-120,149.bmp,120,-120,150.bmp,-120,120,143.bmp,120,120,9561.300000011921,232172.0,8014,no,SM,A,150.bmp,120,120,208373,202345,210391,204359,235481.0,229452.0,237499.0,231467.0,1
2,0,1,0,0,2,test,1,1,m,Tue Jan 14 2025 15:38:22 GMT-0600 (Central Standard Time),251147.10000002384,I,m,1252,2,1,101.bmp,-120,-120,102.bmp,120,-120,103.bmp,-120,120,104.bmp,120,120,9410.800000011921,241736.30000001192,8014,no,SM,A,103.bmp,120,-120,208373,202345,210391,204359,245145.0,239017.0,247162.0,241135.0,2
1,1,0,0,0,2,test,1,0,z,Tue Jan 14 2025 15:38:22 GMT-0600 (Central Standard Time),260527.0,I,m,1322,3,1,105.bmp,-120,-120,106.bmp,120,-120,107.bmp,-120,120,108.bmp,120,120,9376.399999976158,251150.60000002384,8014,yes,SM,A,105.bmp,-120,-120,208373,202345,210391,204359,254459.0,248431.0,256476.0,250444.0,3
3,0,0,1,0,3,test,1,1,m,Tue Jan 14 2025 15:38:22 GMT-0600 (Central Standard Time),269774.60000002384,I,m,1182,4,1,109.bmp,-120,-120,110.bmp,120,-120,111.bmp,-120,120,112.bmp,120,120,9243.400000035763,260531.19999998808,8014,no,SM,A,109.bmp,-120,120,208373,202345,210391,204359,263839.0,257812.0,265857.0,259825.0,4
2,0,1,0,0,4,test,1,1,z,Tue Jan 14 2025 15:38:22 GMT-0600 (Central Standard Time),279371.5,I,z,1543,5,1,113.bmp,-120,-120,114.bmp,120,-120,115.bmp,-120,120,116.bmp,120,120,9593.0,269778.5,8014,yes,SM,A,114.bmp,120,-120,208373,202345,210391,204359,273086.0,267059.0,275104.0,269072.0,5
3,0,0,1,0,5,test,1,1,z,Tue Jan 14 2025 15:38:22 GMT-0600 (Central Standard Time),289235.10000002384,I,z,1809,6,1,117.bmp,-120,-120,118.bmp,120,-120,119.bmp,-120,120,120.bmp,120,120,9860.5,279374.60000002384,8014,yes,SM,A,119.bmp,-120,120,208373,202345,210391,204359,282683.0,276655.0,284701.0,278669.0,6
4,0,0,0,1,6,test,1,1,z,Tue Jan 14 2025 15:38:22 GMT-0600 (Central Standard Time),298748.60000002384,I,z,1458,7,1,121.bmp,-120,-120,122.bmp,120,-120,123.bmp,-120,120,124.bmp,120,120,9510.400000035763,289238.1999999881,8014,yes,SM,A,124.bmp,120,120,208373,202345,210391,204359,292547.0,286518.0,294564.0,288532.0,7
2,0,1,0,0,7,test,1,1,m,Tue Jan 14 2025 15:38:22 GMT-0600 (Central Standard Time),308262.60000002384,I,m,1464,8,1,125.bmp,-120,-120,126.bmp,120,-120,127.bmp,-120,120,128.bmp,120,120,9510.699999988079,298751.90000003576,8014,no,SM,A,125.bmp,120,-120,208373,202345,210391,204359,302060.0,296032.0,304078.0,298046.0,8
3,0,0,1,0,7,test,1,0,m,Tue Jan 14 2025 15:38:22 GMT-0600 (Central Standard Time),318342.6999999881,I,None,2015,9,1,129.bmp,-120,-120,130.bmp,120,-120,131.bmp,-120,120,132.bmp,120,120,10076.399999976158,308266.3000000119,8014,no,SM,A,130.bmp,-120,120,208373,202345,210391,204359,311599.0,305547.0,313608.0,307560.0,9
4,0,0,0,1,7,test,1,0,z,Tue Jan 14 2025 15:38:22 GMT-0600 (Central Standard Time),328406.10000002384,I,None,2014,10,1,137.bmp,-120,-120,138.bmp,120,-120,139.bmp,-120,120,140.bmp,120,120,10059.800000011921,318346.3000000119,8014,yes,SM,A,140.bmp,120,120,208373,202345,210391,204359,321654.0,315626.0,323672.0,317640.0,10
3,0,0,1,0,8,test,1,1,z,Tue Jan 14 2025 15:38:22 GMT-0600 (Central Standard Time),338022.3000000119,I,z,1566,11,1,133.bmp,-120,-120,134.bmp,120,-120,135.bmp,-120,120,136.bmp,120,120,9612.399999976158,328409.90000003576,8014,yes,SM,A,135.bmp,-120,120,208373,202345,210391,204359,331717.0,325690.0,333736.0,327704.0,11
2,0,1,0,0,9,test,1,1,m,Tue Jan 14 2025 15:38:22 GMT-0600 (Central Standard Time),347216.60000002384,I,m,1145,12,1,141.bmp,-120,-120,142.bmp,120,-120,143.bmp,-120,120,144.bmp,120,120,9190.900000035763,338025.6999999881,8014,no,SM,A,141.bmp,120,-120,208373,202345,210391,204359,341331.0,335306.0,343349.0,337317.0,12
3,0,0,1,0,10,test,1,1,m,Tue Jan 14 2025 15:38:22 GMT-0600 (Central Standard Time),356530.40000003576,I,m,1260,13,1,145.bmp,-120,-120,146.bmp,120,-120,147.bmp,-120,120,148.bmp,120,120,9310.300000011921,347220.10000002384,8014,no,SM,A,146.bmp,-120,120,208373,202345,210391,204359,350528.0,344500.0,352546.0,346514.0,13
1,1,0,0,0,11,test,1,1,z,Tue Jan 14 2025 15:38:22 GMT-0600 (Central Standard Time),365661.1999999881,I,z,1074,14,1,149.bmp,-120,-120,150.bmp,120,-120,104.bmp,-120,120,101.bmp,120,120,9127.399999976158,356533.8000000119,8014,yes,SM,A,149.bmp,-120,-120,208373,202345,210391,204359,359843.0,353814.0,361860.0,355828.0,14
4,0,0,0,1,11,test,1,0,m,Tue Jan 14 2025 15:38:22 GMT-0600 (Central Standard Time),375308.10000002384,I,z,1592,15,1,110.bmp,-120,-120,111.bmp,120,-120,112.bmp,-120,120,113.bmp,120,120,9643.900000035763,365664.1999999881,8014,no,SM,A,111.bmp,120,120,208373,202345,210391,204359,368973.0,362944.0,370990.0,364959.0,15
1,1,0,0,0,12,test,1,1,m,Tue Jan 14 2025 15:38:22 GMT-0600 (Central Standard Time),384978.8000000119,I,m,1622,16,1,102.bmp,-120,-120,103.bmp,120,-120,104.bmp,-120,120,105.bmp,120,120,9667.300000011921,375311.5,8014,no,SM,A,105.bmp,-120,-120,208373,202345,210391,204359,378620.0,372592.0,380637.0,374606.0,16
3,0,0,1,0,13,test,1,1,m,Tue Jan 14 2025 15:38:22 GMT-0600 (Central Standard Time),394835.1999999881,I,m,1801,17,1,122.bmp,-120,-120,123.bmp,120,-120,124.bmp,-120,120,125.bmp,120,120,9853.299999952316,384981.90000003576,8014,no,SM,A,122.bmp,-120,120,208373,202345,210391,204359,388283.0,382262.0,390301.0,384269.0,17
1,1,0,0,0,14,test,1,1,z,Tue Jan 14 2025 15:38:22 GMT-0600 (Central Standard Time),404066.90000003576,I,z,1169,18,1,106.bmp,-120,-120,107.bmp,120,-120,108.bmp,-120,120,109.bmp,120,120,9229.0,394837.90000003576,8014,yes,SM,A,106.bmp,-120,-120,208373,202345,210391,204359,398147.0,392118.0,400164.0,394133.0,18
2,0,1,0,0,15,test,1,1,z,Tue Jan 14 2025 15:38:22 GMT-0600 (Central Standard Time),413562.60000002384,I,z,1435,19,1,126.bmp,-120,-120,127.bmp,120,-120,128.bmp,-120,120,129.bmp,120,120,9492.300000011921,404070.3000000119,8014,yes,SM,A,127.bmp,120,-120,208373,202345,210391,204359,407377.0,401351.0,409395.0,403363.0,19
3,0,0,1,0,16,test,1,1,z,Tue Jan 14 2025 15:38:22 GMT-0600 (Central Standard Time),422959.60000002384,I,z,1338,20,1,130.bmp,-120,-120,131.bmp,120,-120,132.bmp,-120,120,133.bmp,120,120,9393.699999988079,413565.90000003576,8014,yes,SM,A,132.bmp,-120,120,208373,202345,210391,204359,416874.0,410846.0,418892.0,412860.0,20
1,1,0,0,0,17,test,1,1,m,Tue Jan 14 2025 15:38:22 GMT-0600 (Central Standard Time),432906.60000002384,I,m,1893,21,1,114.bmp,-120,-120,115.bmp,120,-120,116.bmp,-120,120,117.bmp,120,120,9943.400000035763,422963.1999999881,8014,no,SM,A,116.bmp,-120,-120,208373,202345,210391,204359,426271.0,420243.0,428289.0,422257.0,21
4,0,0,0,1,17,test,1,0,z,Tue Jan 14 2025 15:38:22 GMT-0600 (Central Standard Time),442953.40000003576,I,None,2013,22,1,118.bmp,-120,-120,119.bmp,120,-120,120.bmp,-120,120,121.bmp,120,120,10042.5,432910.90000003576,8014,yes,SM,A,121.bmp,120,120,208373,202345,210391,204359,436218.0,430191.0,438220.0,432204.0,22
1,1,0,0,0,18,test,1,1,m,Tue Jan 14 2025 15:38:22 GMT-0600 (Central Standard Time),452367.0,I,m,1363,23,1,134.bmp,-120,-120,135.bmp,120,-120,136.bmp,-120,120,137.bmp,120,120,9410.399999976158,442956.60000002384,8014,no,SM,A,137.bmp,-120,-120,208373,202345,210391,204359,446265.0,440237.0,448283.0,442251.0,23
2,0,1,0,0,19,test,1,1,z,Tue Jan 14 2025 15:38:22 GMT-0600 (Central Standard Time),462014.40000003576,I,z,1598,24,1,142.bmp,-120,-120,143.bmp,120,-120,144.bmp,-120,120,145.bmp,120,120,9644.700000047684,452369.6999999881,8014,yes,SM,A,143.bmp,120,-120,208373,202345,210391,204359,455679.0,449650.0,457696.0,451665.0,24
4,0,0,0,1,19,test,1,0,m,Tue Jan 14 2025 15:38:22 GMT-0600 (Central Standard Time),471727.8000000119,I,z,1663,25,1,146.bmp,-120,-120,147.bmp,120,-120,148.bmp,-120,120,149.bmp,120,120,9710.600000023842,462017.1999999881,8014,no,SM,A,148.bmp,120,120,208373,202345,210391,204359,465326.0,459297.0,467343.0,461312.0,25
1,1,0,0,0,20,test,1,1,z,Tue Jan 14 2025 15:38:22 GMT-0600 (Central Standard Time),480758.1999999881,I,z,973,26,1,138.bmp,-120,-120,139.bmp,120,-120,140.bmp,-120,120,141.bmp,120,120,9027.199999988079,471731.0,8014,yes,SM,A,138.bmp,-120,-120,208373,202345,210391,204359,475039.0,469011.0,477057.0,471025.0,26
4,0,0,0,1,20,test,1,0,z,Tue Jan 14 2025 15:38:22 GMT-0600 (Central Standard Time),490821.90000003576,I,None,2015,27,1,150.bmp,-120,-120,111.bmp,120,-120,101.bmp,-120,120,102.bmp,120,120,10060.300000011921,480761.60000002384,8014,yes,SM,A,102.bmp,120,120,208373,202345,210391,204359,484070.0,478042.0,486087.0,480056.0,27
3,0,0,1,0,21,test,1,1,m,Tue Jan 14 2025 15:38:22 GMT-0600 (Central Standard Time),500218.6999999881,I,m,1335,28,1,103.bmp,-120,-120,104.bmp,120,-120,105.bmp,-120,120,106.bmp,120,120,9393.199999988079,490825.5,8014,no,SM,A,103.bmp,-120,120,208373,202345,210391,204359,494135.0,488106.0,496151.0,490119.0,28
2,0,1,0,0,22,test,1,1,z,Tue Jan 14 2025 15:38:22 GMT-0600 (Central Standard Time),509732.5,I,z,1449,29,1,107.bmp,-120,-120,108.bmp,120,-120,109.bmp,-120,120,110.bmp,120,120,9510.5,500222.0,8014,yes,SM,A,108.bmp,120,-120,208373,202345,210391,204359,503530.0,497502.0,505549.0,499516.0,29
3,0,0,1,0,23,test,1,1,z,Tue Jan 14 2025 15:38:22 GMT-0600 (Central Standard Time),518896.1999999881,I,z,1112,30,1,111.bmp,-120,-120,112.bmp,120,-120,113.bmp,-120,120,114.bmp,120,120,9160.199999988079,509736.0,8014,yes,SM,A,113.bmp,-120,120,208373,202345,210391,204359,513044.0,507016.0,515062.0,509030.0,30
1,1,0,0,0,24,test,1,1,z,Tue Jan 14 2025 15:38:22 GMT-0600 (Central Standard Time),528243.4000000358,I,z,1285,31,1,115.bmp,-120,-120,116.bmp,120,-120,117.bmp,-120,120,118.bmp,120,120,9344.100000023842,518899.3000000119,8014,yes,SM,A,115.bmp,-120,-120,208373,202345,210391,204359,522208.0,516180.0,524225.0,518194.0,31
2,0,1,0,0,24,test,1,0,m,Tue Jan 14 2025 15:38:22 GMT-0600 (Central Standard Time),537523.8000000119,I,z,1217,32,1,119.bmp,-120,-120,120.bmp,120,-120,121.bmp,-120,120,122.bmp,120,120,9277.699999988079,528246.1000000238,8014,no,SM,A,119.bmp,120,-120,208373,202345,210391,204359,531555.0,525526.0,533573.0,527541.0,32
4,0,0,0,1,25,test,1,1,z,Tue Jan 14 2025 15:38:22 GMT-0600 (Central Standard Time),547020.6999999881,I,z,1433,33,1,131.bmp,-120,-120,132.bmp,120,-120,133.bmp,-120,120,134.bmp,120,120,9493.599999964237,537527.1000000238,8014,yes,SM,A,134.bmp,120,120,208373,202345,210391,204359,540836.0,534807.0,542853.0,536821.0,33
2,0,1,0,0,26,test,1,1,z,Tue Jan 14 2025 15:38:22 GMT-0600 (Central Standard Time),556001.1999999881,I,z,928,34,1,123.bmp,-120,-120,124.bmp,120,-120,125.bmp,-120,120,126.bmp,120,120,8977.099999964237,547024.1000000238,8014,yes,SM,A,124.bmp,120,-120,208373,202345,210391,204359,550332.0,544304.0,552350.0,546318.0,34
4,0,0,0,1,26,test,1,0,m,Tue Jan 14 2025 15:38:22 GMT-0600 (Central Standard Time),566065.1000000238,I,None,2014,35,1,127.bmp,-120,-120,128.bmp,120,-120,129.bmp,-120,120,130.bmp,120,120,10060.600000023842,556004.5,8014,no,SM,A,129.bmp,120,120,208373,202345,210391,204359,559313.0,553285.0,561331.0,555299.0,35
3,0,0,1,0,26,test,1,0,m,Tue Jan 14 2025 15:38:22 GMT-0600 (Central Standard Time),575245.1999999881,I,z,1116,36,1,135.bmp,-120,-120,136.bmp,120,-120,137.bmp,-120,120,138.bmp,120,120,9176.699999988079,566068.5,8014,no,SM,A,135.bmp,-120,120,208373,202345,210391,204359,569376.0,563349.0,571394.0,565363.0,36
1,1,0,0,0,26,test,1,0,m,Tue Jan 14 2025 15:38:22 GMT-0600 (Central Standard Time),584509.1000000238,I,z,1207,37,1,139.bmp,-120,-120,140.bmp,120,-120,141.bmp,-120,120,142.bmp,120,120,9260.900000035763,575248.1999999881,8014,no,SM,A,140.bmp,-120,-120,208373,202345,210391,204359,578557.0,572528.0,580575.0,574543.0,37
2,0,1,0,0,26,test,1,0,m,Tue Jan 14 2025 15:38:22 GMT-0600 (Central Standard Time),593856.1999999881,I,z,1288,38,1,143.bmp,-120,-120,144.bmp,120,-120,145.bmp,-120,120,146.bmp,120,120,9343.899999976158,584512.3000000119,8014,no,SM,A,145.bmp,120,-120,208373,202345,210391,204359,587821.0,581793.0,589838.0,583807.0,38
4,0,0,0,1,27,test,1,1,z,Tue Jan 14 2025 15:38:22 GMT-0600 (Central Standard Time),603120.0,I,z,1212,39,1,147.bmp,-120,-120,148.bmp,120,-120,149.bmp,-120,120,150.bmp,120,120,9260.899999976158,593859.1000000238,8014,yes,SM,A,150.bmp,120,120,208373,202345,210391,204359,597168.0,591139.0,599186.0,593153.0,39
3,0,0,1,0,27,test,1,0,m,Tue Jan 14 2025 15:38:22 GMT-0600 (Central Standard Time),612550.5,I,z,1381,40,1,104.bmp,-120,-120,105.bmp,120,-120,106.bmp,-120,120,107.bmp,120,120,9427.599999964237,603122.9000000358,8014,no,SM,A,105.bmp,-120,120,208373,202345,210391,204359,606432.0,600403.0,608449.0,602418.0,40
1,1,0,0,0,28,test,1,1,z,Tue Jan 14 2025 15:38:22 GMT-0600 (Central Standard Time),621480.8000000119,I,z,882,41,1,108.bmp,-120,-120,109.bmp,120,-120,110.bmp,-120,120,111.bmp,120,120,8927.600000023842,612553.1999999881,8014,yes,SM,A,108.bmp,-120,-120,208373,202345,210391,204359,615862.0,609833.0,617868.0,611848.0,41
4,0,0,0,1,29,test,1,1,z,Tue Jan 14 2025 15:38:22 GMT-0600 (Central Standard Time),630794.8000000119,I,z,1260,42,1,112.bmp,-120,-120,113.bmp,120,-120,114.bmp,-120,120,115.bmp,120,120,9311.0,621483.8000000119,8014,yes,SM,A,115.bmp,120,120,208373,202345,210391,204359,624793.0,618764.0,626810.0,620778.0,42
1,1,0,0,0,30,test,1,1,z,Tue Jan 14 2025 15:38:22 GMT-0600 (Central Standard Time),639791.8000000119,I,z,938,43,1,116.bmp,-120,-120,117.bmp,120,-120,118.bmp,-120,120,119.bmp,120,120,8994.100000023842,630797.6999999881,8014,yes,SM,A,116.bmp,-120,-120,208373,202345,210391,204359,634106.0,628078.0,636124.0,630092.0,43
4,0,0,0,1,31,test,1,1,m,Tue Jan 14 2025 15:38:22 GMT-0600 (Central Standard Time),649372.3000000119,I,m,1517,44,1,104.bmp,-120,-120,101.bmp,120,-120,102.bmp,-120,120,103.bmp,120,120,9577.699999988079,639794.6000000238,8014,no,SM,A,104.bmp,120,120,208373,202345,210391,204359,643103.0,637075.0,645121.0,639089.0,44
1,1,0,0,0,32,test,1,1,m,Tue Jan 14 2025 15:38:22 GMT-0600 (Central Standard Time),659002.1000000238,I,m,1577,45,1,128.bmp,-120,-120,129.bmp,120,-120,130.bmp,-120,120,131.bmp,120,120,9626.5,649375.6000000238,8014,no,SM,A,131.bmp,-120,-120,208373,202345,210391,204359,652684.0,646656.0,654701.0,648670.0,45
1,1,0,0,0,33,test,1,1,m,Tue Jan 14 2025 15:38:22 GMT-0600 (Central Standard Time),668466.1000000238,I,m,1411,46,1,120.bmp,-120,-120,121.bmp,120,-120,122.bmp,-120,120,123.bmp,120,120,9461.300000011921,659004.8000000119,8014,no,SM,A,121.bmp,-120,-120,208373,202345,210391,204359,662314.0,656285.0,664332.0,658300.0,46
3,0,0,1,0,34,test,1,1,z,Tue Jan 14 2025 15:38:22 GMT-0600 (Central Standard Time),678379.6999999881,I,z,1850,47,1,124.bmp,-120,-120,125.bmp,120,-120,126.bmp,-120,120,127.bmp,120,120,9910.199999988079,668469.5,8014,yes,SM,A,126.bmp,-120,120,208373,202345,210391,204359,671778.0,665750.0,673795.0,667764.0,47
3,0,0,1,0,35,test,1,1,z,Tue Jan 14 2025 15:38:22 GMT-0600 (Central Standard Time),687776.5,I,z,1337,48,1,140.bmp,-120,-120,141.bmp,120,-120,142.bmp,-120,120,143.bmp,120,120,9393.800000011921,678382.6999999881,8014,yes,SM,A,142.bmp,-120,120,208373,202345,210391,204359,681691.0,675663.0,683709.0,677677.0,48
2,0,1,0,0,36,test,1,1,z,Tue Jan 14 2025 15:38:22 GMT-0600 (Central Standard Time),697190.4000000358,I,z,1356,49,1,136.bmp,-120,-120,137.bmp,120,-120,138.bmp,-120,120,139.bmp,120,120,9410.0,687780.4000000358,8014,yes,SM,A,137.bmp,120,-120,208373,202345,210391,204359,691088.0,685061.0,693106.0,687074.0,49
3,0,0,1,0,36,test,1,0,m,Tue Jan 14 2025 15:38:22 GMT-0600 (Central Standard Time),706620.8000000119,I,z,1366,50,1,132.bmp,-120,-120,133.bmp,120,-120,134.bmp,-120,120,135.bmp,120,120,9427.300000011921,697193.5,8014,no,SM,A,132.bmp,-120,120,208373,202345,210391,204359,700502.0,694474.0,702520.0,696488.0,50
2,0,1,0,0,36,test,1,0,z,Tue Jan 14 2025 15:38:22 GMT-0600 (Central Standard Time),716267.6999999881,I,m,1583,51,1,144.bmp,-120,-120,145.bmp,120,-120,146.bmp,-120,120,147.bmp,120,120,9643.599999964237,706624.1000000238,8014,yes,SM,A,145.bmp,120,-120,208373,202345,210391,204359,709933.0,703904.0,711951.0,705918.0,51
4,0,0,0,1,37,test,1,1,m,Tue Jan 14 2025 15:38:22 GMT-0600 (Central Standard Time),725848.1999999881,I,m,1529,52,1,148.bmp,-120,-120,149.bmp,120,-120,150.bmp,-120,120,131.bmp,120,120,9577.099999964237,716271.1000000238,8014,no,SM,A,148.bmp,120,120,208373,202345,210391,204359,719579.0,713551.0,721597.0,715565.0,52
3,0,0,1,0,37,test,1,0,z,Tue Jan 14 2025 15:38:22 GMT-0600 (Central Standard Time),735911.5,I,None,2015,53,1,101.bmp,-120,-120,102.bmp,120,-120,103.bmp,-120,120,104.bmp,120,120,10060.199999988079,725851.3000000119,8014,yes,SM,A,103.bmp,-120,120,208373,202345,210391,204359,729160.0,723132.0,731177.0,725146.0,53
1,1,0,0,0,38,test,1,1,m,Tue Jan 14 2025 15:38:22 GMT-0600 (Central Standard Time),745558.5,I,m,1582,54,1,105.bmp,-120,-120,106.bmp,120,-120,107.bmp,-120,120,108.bmp,120,120,9643.899999976158,735914.6000000238,8014,no,SM,A,107.bmp,-120,-120,208373,202345,210391,204359,739223.0,733195.0,741241.0,735209.0,54
4,0,0,0,1,39,test,1,1,z,Tue Jan 14 2025 15:38:22 GMT-0600 (Central Standard Time),754955.6000000238,I,z,1342,55,1,109.bmp,-120,-120,110.bmp,120,-120,111.bmp,-120,120,112.bmp,120,120,9394.199999988079,745561.4000000358,8014,yes,SM,A,112.bmp,120,120,208373,202345,210391,204359,748870.0,742842.0,750888.0,744856.0,55
2,0,1,0,0,40,test,1,1,m,Tue Jan 14 2025 15:38:22 GMT-0600 (Central Standard Time),764119.5,I,m,1105,56,1,113.bmp,-120,-120,114.bmp,120,-120,115.bmp,-120,120,116.bmp,120,120,9160.800000011921,754958.6999999881,8014,no,SM,A,113.bmp,120,-120,208373,202345,210391,204359,758267.0,752239.0,760285.0,754253.0,56
4,0,0,0,1,40,test,1,0,m,Tue Jan 14 2025 15:38:22 GMT-0600 (Central Standard Time),774183.1999999881,I,None,2014,57,1,117.bmp,-120,-120,118.bmp,120,-120,119.bmp,-120,120,120.bmp,120,120,10060.299999952316,764122.9000000358,8014,no,SM,A,118.bmp,120,120,208373,202345,210391,204359,767431.0,761403.0,769449.0,763417.0,57
3,0,0,1,0,41,test,1,1,z,Tue Jan 14 2025 15:38:22 GMT-0600 (Central Standard Time),783813.5,I,z,1573,58,1,121.bmp,-120,-120,122.bmp,120,-120,123.bmp,-120,120,124.bmp,120,120,9627.300000011921,774186.1999999881,8014,yes,SM,A,123.bmp,-120,120,208373,202345,210391,204359,777495.0,771466.0,779513.0,773481.0,58
2,0,1,0,0,41,test,1,0,m,Tue Jan 14 2025 15:38:22 GMT-0600 (Central Standard Time),793393.5,I,z,1519,59,1,125.bmp,-120,-120,126.bmp,120,-120,127.bmp,-120,120,128.bmp,120,120,9577.300000011921,783816.1999999881,8014,no,SM,A,128.bmp,120,-120,208373,202345,210391,204359,787125.0,781096.0,789143.0,783111.0,59
1,1,0,0,0,42,test,1,1,z,Tue Jan 14 2025 15:38:22 GMT-0600 (Central Standard Time),802824.1000000238,I,z,1379,60,1,129.bmp,-120,-120,130.bmp,120,-120,131.bmp,-120,120,132.bmp,120,120,9427.300000011921,793396.8000000119,8014,yes,SM,A,129.bmp,-120,-120,208373,202345,210391,204359,796705.0,790677.0,798723.0,792691.0,60
2,0,1,0,0,42,test,1,0,z,Tue Jan 14 2025 15:38:22 GMT-0600 (Central Standard Time),812337.5,I,m,1336,61,1,133.bmp,-120,-120,134.bmp,120,-120,135.bmp,-120,120,136.bmp,120,120,9510.099999964237,802827.4000000358,8014,yes,SM,A,134.bmp,120,-120,208373,202345,210391,204359,806257.0,800108.0,808270.0,802121.0,61
4,0,0,0,1,42,test,1,0,z,Tue Jan 14 2025 15:38:22 GMT-0600 (Central Standard Time),822401.1999999881,I,None,2014,62,1,141.bmp,-120,-120,142.bmp,120,-120,143.bmp,-120,120,144.bmp,120,120,10060.299999952316,812340.9000000358,8014,yes,SM,A,144.bmp,120,120,208373,202345,210391,204359,815650.0,809621.0,817667.0,811635.0,62
1,1,0,0,0,43,test,1,1,m,Tue Jan 14 2025 15:38:22 GMT-0600 (Central Standard Time),831548.3000000119,I,m,1084,63,1,145.bmp,-120,-120,146.bmp,120,-120,147.bmp,-120,120,148.bmp,120,120,9143.899999976158,822404.4000000358,8014,no,SM,A,145.bmp,-120,120,208373,202345,210391,204359,825713.0,819685.0,827730.0,821699.0,63
2,0,1,0,0,44,test,1,1,z,Tue Jan 14 2025 15:38:22 GMT-0600 (Central Standard Time),840678.8000000119,I,z,1064,64,1,149.bmp,-120,-120,150.bmp,120,-120,112.bmp,-120,120,101.bmp,120,120,9127.5,831551.3000000119,8014,yes,SM,A,150.bmp,120,-120,208373,202345,210391,204359,834860.0,828832.0,836878.0,830846.0,64
4,0,0,0,1,45,test,1,1,m,Tue Jan 14 2025 15:38:22 GMT-0600 (Central Standard Time),849709.3000000119,I,m,974,65,1,102.bmp,-120,-120,103.bmp,120,-120,104.bmp,-120,120,105.bmp,120,120,9027.300000011921,840682.0,8014,no,SM,A,104.bmp,120,120,208373,202345,210391,204359,843990.0,837962.0,846008.0,839976.0,65
3,0,0,1,0,45,test,1,0,m,Tue Jan 14 2025 15:38:22 GMT-0600 (Central Standard Time),859022.8000000119,I,z,1264,66,1,106.bmp,-120,-120,107.bmp,120,-120,108.bmp,-120,120,109.bmp,120,120,9310.699999988079,849712.1000000238,8014,no,SM,A,109.bmp,-120,120,208373,202345,210391,204359,853021.0,846992.0,855038.0,849007.0,66
2,0,1,0,0,46,test,1,1,m,Tue Jan 14 2025 15:38:22 GMT-0600 (Central Standard Time),868620.3000000119,I,m,1540,67,1,137.bmp,-120,-120,138.bmp,120,-120,139.bmp,-120,120,140.bmp,120,120,9594.600000023842,859025.6999999881,8014,no,SM,A,139.bmp,120,-120,208373,202345,210391,204359,862336.0,856306.0,864354.0,858320.0,67
3,0,0,1,0,47,test,1,1,z,Tue Jan 14 2025 15:38:22 GMT-0600 (Central Standard Time),877683.9000000358,I,z,1001,68,1,110.bmp,-120,-120,111.bmp,120,-120,112.bmp,-120,120,113.bmp,120,120,9060.600000023842,868623.3000000119,8014,yes,SM,A,112.bmp,-120,120,208373,202345,210391,204359,871932.0,865904.0,873949.0,867917.0,68
1,1,0,0,0,48,test,1,1,m,Tue Jan 14 2025 15:38:22 GMT-0600 (Central Standard Time),887197.5,I,m,1457,69,1,114.bmp,-120,-120,115.bmp,120,-120,116.bmp,-120,120,117.bmp,120,120,9509.899999976158,877687.6000000238,8014,no,SM,A,115.bmp,-120,-120,208373,202345,210391,204359,880995.0,874968.0,883013.0,876981.0,69
2,0,1,0,0,49,test,1,1,m,Tue Jan 14 2025 15:38:22 GMT-0600 (Central Standard Time),896644.5,I,m,1391,70,1,118.bmp,-120,-120,119.bmp,120,-120,120.bmp,-120,120,121.bmp,120,120,9444.099999964237,887200.4000000358,8014,no,SM,A,120.bmp,120,-120,208373,202345,210391,204359,890509.0,884481.0,892527.0,886495.0,70
4,0,0,0,1,50,test,1,1,z,Tue Jan 14 2025 15:38:22 GMT-0600 (Central Standard Time),906091.5,I,z,1384,71,1,122.bmp,-120,-120,123.bmp,120,-120,124.bmp,-120,120,125.bmp,120,120,9444.0,896647.5,8014,yes,SM,A,125.bmp,120,120,208373,202345,210391,204359,899956.0,893928.0,901974.0,895942.0,71
1,1,0,0,0,51,test,1,1,z,Tue Jan 14 2025 15:38:22 GMT-0600 (Central Standard Time),915438.6000000238,I,z,1297,72,1,126.bmp,-120,-120,127.bmp,120,-120,128.bmp,-120,120,129.bmp,120,120,9344.300000011921,906094.3000000119,8014,yes,SM,A,126.bmp,-120,-120,208373,202345,210391,204359,909403.0,903375.0,911421.0,905389.0,72
2,0,1,0,0,52,test,1,1,z,Tue Jan 14 2025 15:38:22 GMT-0600 (Central Standard Time),925135.6999999881,I,z,1646,73,1,130.bmp,-120,-120,131.bmp,120,-120,132.bmp,-120,120,133.bmp,120,120,9694.399999976158,915441.3000000119,8014,yes,SM,A,131.bmp,120,-120,208373,202345,210391,204359,918750.0,912722.0,920768.0,914736.0,73
4,0,0,0,1,53,test,1,1,m,Tue Jan 14 2025 15:38:22 GMT-0600 (Central Standard Time),934982.4000000358,I,m,1789,74,1,134.bmp,-120,-120,135.bmp,120,-120,136.bmp,-120,120,137.bmp,120,120,9844.0,925138.4000000358,8014,no,SM,A,136.bmp,120,120,208373,202345,210391,204359,928447.0,922419.0,930466.0,924433.0,74
2,0,1,0,0,54,test,1,1,m,Tue Jan 14 2025 15:38:22 GMT-0600 (Central Standard Time),944879.4000000358,I,m,1838,75,1,138.bmp,-120,-120,139.bmp,120,-120,140.bmp,-120,120,141.bmp,120,120,9893.900000035763,934985.5,8014,no,SM,A,141.bmp,120,-120,208373,202345,210391,204359,938294.0,932266.0,940312.0,934280.0,75
1,1,0,0,0,55,test,1,1,z,Tue Jan 14 2025 15:38:22 GMT-0600 (Central Standard Time),953993.1999999881,I,z,1061,76,1,142.bmp,-120,-120,143.bmp,120,-120,144.bmp,-120,120,145.bmp,120,120,9109.299999952316,944883.9000000358,8014,yes,SM,A,142.bmp,-120,-120,208373,202345,210391,204359,948191.0,942164.0,950209.0,944177.0,76
3,0,0,1,0,56,test,1,1,z,Tue Jan 14 2025 15:38:22 GMT-0600 (Central Standard Time),963423.6000000238,I,z,1372,77,1,150.bmp,-120,-120,111.bmp,120,-120,101.bmp,-120,120,102.bmp,120,120,9427.0,953996.6000000238,8014,yes,SM,A,101.bmp,-120,120,208373,202345,210391,204359,957306.0,951277.0,959322.0,953291.0,77
1,1,0,0,0,57,test,1,1,m,Tue Jan 14 2025 15:38:22 GMT-0600 (Central Standard Time),972787.3000000119,I,m,1301,78,1,146.bmp,-120,-120,147.bmp,120,-120,148.bmp,-120,120,149.bmp,120,120,9360.699999988079,963426.6000000238,8014,no,SM,A,147.bmp,-120,-120,208373,202345,210391,204359,966735.0,960707.0,968753.0,962721.0,78
4,0,0,0,1,58,test,1,1,m,Tue Jan 14 2025 15:38:22 GMT-0600 (Central Standard Time),981851.1000000238,I,m,1001,79,1,107.bmp,-120,-120,108.bmp,120,-120,109.bmp,-120,120,110.bmp,120,120,9059.300000011921,972791.8000000119,8014,no,SM,A,107.bmp,120,120,208373,202345,210391,204359,976099.0,970072.0,978117.0,972084.0,79
3,0,0,1,0,59,test,1,1,m,Tue Jan 14 2025 15:38:22 GMT-0600 (Central Standard Time),991714.9000000358,I,m,1802,80,1,103.bmp,-120,-120,104.bmp,120,-120,105.bmp,-120,120,106.bmp,120,120,9860.600000023842,981854.3000000119,8014,no,SM,A,106.bmp,-120,120,208373,202345,210391,204359,985163.0,979134.0,987180.0,981149.0,80
