acc_sum,block,block_c,block_cond,con_img,correct,correct_response,datetime,endtime,face,jitter,line,project,response,response_time,row_sel,session_number,start_end,starttime,subject_id,task,task_vers,trial
1,prac,1,A,haborder.png,1,m,Thu Oct 24 2024 12:54:24 GMT-0500 (Central Daylight Time),50287.69999998808,CFD-WM-012-007-HC.jpg,1700,solid,O,m,936,9,1,3466.099999964237,46821.60000002384,7026,ATS,B,1
2,prac,1,A,haborder.png,1,z,Thu Oct 24 2024 12:54:24 GMT-0500 (Central Daylight Time),52853.5,CFD-WF-013-015-A.jpg,1000,solid,O,z,738,12,1,6031.899999976158,46821.60000002384,7026,ATS,B,2
2,prac,1,A,haborder.png,0,m,Thu Oct 24 2024 12:54:24 GMT-0500 (Central Daylight Time),56635.0,CFD-BM-015-017-HC.jpg,1700,solid,O,z,1263,1,1,9813.399999976158,46821.60000002384,7026,ATS,B,3
3,prac,1,A,haborder.png,1,z,Thu Oct 24 2024 12:54:24 GMT-0500 (Central Daylight Time),59084.40000003576,CFD-BF-051-043-A.jpg,1000,solid,O,z,622,4,1,12262.800000011921,46821.60000002384,7026,ATS,B,4
4,prac,1,A,haborder.png,1,m,Thu Oct 24 2024 12:54:24 GMT-0500 (Central Daylight Time),62116.80000001192,CFD-WF-011-006-HC.jpg,1500,solid,O,m,705,11,1,15295.199999988079,46821.60000002384,7026,ATS,B,5
5,prac,1,A,haborder.png,1,m,Thu Oct 24 2024 12:54:24 GMT-0500 (Central Daylight Time),65848.90000003576,CFD-BF-035-007-HC.jpg,2000,solid,O,m,901,5,1,19027.30000001192,46821.60000002384,7026,ATS,B,6
6,prac,1,A,haborder.png,1,z,Thu Oct 24 2024 12:54:24 GMT-0500 (Central Daylight Time),68947.69999998808,CFD-WF-026-008-A.jpg,1600,solid,O,z,681,10,1,22126.099999964237,46821.60000002384,7026,ATS,B,7
7,prac,1,A,haborder.png,1,m,Thu Oct 24 2024 12:54:24 GMT-0500 (Central Daylight Time),71813.5,CFD-WM-011-006-HC.jpg,1400,solid,O,m,638,7,1,24991.899999976158,46821.60000002384,7026,ATS,B,8
8,prac,1,A,haborder.png,1,z,Thu Oct 24 2024 12:54:24 GMT-0500 (Central Daylight Time),75529.10000002384,CFD-WM-009-009-A.jpg,1900,solid,O,z,991,8,1,28707.5,46821.60000002384,7026,ATS,B,9
9,prac,1,A,haborder.png,1,m,Thu Oct 24 2024 12:54:24 GMT-0500 (Central Daylight Time),78894.60000002384,CFD-BM-020-024-HC.jpg,1500,solid,O,m,1037,3,1,32073.0,46821.60000002384,7026,ATS,B,10
10,prac,1,A,haborder.png,1,z,Thu Oct 24 2024 12:54:24 GMT-0500 (Central Daylight Time),81960.40000003576,CFD-BF-050-012-A.jpg,1200,solid,O,z,1043,6,1,35138.80000001192,46821.60000002384,7026,ATS,B,11
11,prac,1,A,haborder.png,1,z,Thu Oct 24 2024 12:54:24 GMT-0500 (Central Daylight Time),85409.30000001192,CFD-BM-037-041-A.jpg,1600,solid,O,z,1025,2,1,38587.69999998808,46821.60000002384,7026,ATS,B,12
0,prac,1,B,mfborder.png,0,m,Thu Oct 24 2024 12:54:24 GMT-0500 (Central Daylight Time),108018.0,CFD-BM-041-048-A.jpg,1600,dash,O,None,1515,2,1,3932.0,104086.0,7026,ATS,B,1
1,prac,1,B,mfborder.png,1,m,Thu Oct 24 2024 12:54:24 GMT-0500 (Central Daylight Time),111650.30000001192,CFD-BM-037-041-A.jpg,2000,dash,O,m,815,5,1,7564.300000011921,104086.0,7026,ATS,B,2
2,prac,1,B,mfborder.png,1,m,Thu Oct 24 2024 12:54:24 GMT-0500 (Central Daylight Time),114799.5,CFD-WM-012-007-HC.jpg,1600,dash,O,m,719,10,1,10713.5,104086.0,7026,ATS,B,3
3,prac,1,B,mfborder.png,1,m,Thu Oct 24 2024 12:54:24 GMT-0500 (Central Daylight Time),117948.5,CFD-BM-020-024-HC.jpg,1700,dash,O,m,630,1,1,13862.5,104086.0,7026,ATS,B,4
4,prac,1,B,mfborder.png,1,z,Thu Oct 24 2024 12:54:24 GMT-0500 (Central Daylight Time),120414.10000002384,CFD-BF-051-043-A.jpg,1000,dash,O,z,636,4,1,16328.100000023842,104086.0,7026,ATS,B,5
5,prac,1,B,mfborder.png,1,z,Thu Oct 24 2024 12:54:24 GMT-0500 (Central Daylight Time),123113.40000003576,CFD-WF-011-006-HC.jpg,1000,dash,O,z,875,12,1,19027.400000035763,104086.0,7026,ATS,B,6
6,prac,1,B,mfborder.png,1,z,Thu Oct 24 2024 12:54:24 GMT-0500 (Central Daylight Time),126462.30000001192,CFD-WF-027-007-HC.jpg,1900,dash,O,z,636,8,1,22376.30000001192,104086.0,7026,ATS,B,7
7,prac,1,B,mfborder.png,1,m,Thu Oct 24 2024 12:54:24 GMT-0500 (Central Daylight Time),129644.60000002384,CFD-WM-009-009-A.jpg,1700,dash,O,m,663,9,1,25558.600000023842,104086.0,7026,ATS,B,8
8,prac,1,B,mfborder.png,1,z,Thu Oct 24 2024 12:54:24 GMT-0500 (Central Daylight Time),132877.0,CFD-WF-026-008-A.jpg,1500,dash,O,z,905,11,1,28791.0,104086.0,7026,ATS,B,9
9,prac,1,B,mfborder.png,1,z,Thu Oct 24 2024 12:54:24 GMT-0500 (Central Daylight Time),135909.10000002384,CFD-BF-027-013-HC.jpg,1500,dash,O,z,712,3,1,31823.100000023842,104086.0,7026,ATS,B,10
10,prac,1,B,mfborder.png,1,m,Thu Oct 24 2024 12:54:24 GMT-0500 (Central Daylight Time),138924.30000001192,CFD-WM-037-060-A.jpg,1200,dash,O,m,987,6,1,34838.30000001192,104086.0,7026,ATS,B,11
11,prac,1,B,mfborder.png,1,z,Thu Oct 24 2024 12:54:24 GMT-0500 (Central Daylight Time),142274.19999998808,CFD-BF-035-007-HC.jpg,1400,dash,O,z,1132,7,1,38188.19999998808,104086.0,7026,ATS,B,12
1,test,1,A,haborder.png,1,m,Thu Oct 24 2024 12:54:24 GMT-0500 (Central Daylight Time),160534.30000001192,CFD-WM-011-006-HC.jpg,1400,solid,O,m,838,7,1,2282.5,158251.80000001192,7026,ATS,B,1
2,test,1,A,haborder.png,1,z,Thu Oct 24 2024 12:54:24 GMT-0500 (Central Daylight Time),162283.80000001192,CFD-BF-051-043-A.jpg,1000,solid,O,z,700,4,1,4032.0,158251.80000001192,7026,ATS,B,2
3,test,1,A,haborder.png,1,z,Thu Oct 24 2024 12:54:24 GMT-0500 (Central Daylight Time),164199.69999998808,CFD-WF-013-015-A.jpg,1000,solid,O,z,870,12,1,5947.899999976158,158251.80000001192,7026,ATS,B,3
4,test,1,A,haborder.png,1,m,Thu Oct 24 2024 12:54:24 GMT-0500 (Central Daylight Time),166415.60000002384,CFD-WF-011-006-HC.jpg,1500,solid,O,m,670,11,1,8163.800000011921,158251.80000001192,7026,ATS,B,4
5,test,1,A,haborder.png,1,m,Thu Oct 24 2024 12:54:24 GMT-0500 (Central Daylight Time),168947.69999998808,CFD-WM-011-006-HC.jpg,1400,solid,O,m,1081,7,1,10695.899999976158,158251.80000001192,7026,ATS,B,5
6,test,1,A,haborder.png,1,m,Thu Oct 24 2024 12:54:24 GMT-0500 (Central Daylight Time),171564.30000001192,CFD-BM-015-017-HC.jpg,1700,solid,O,m,899,1,1,13312.5,158251.80000001192,7026,ATS,B,6
7,test,1,A,haborder.png,1,z,Thu Oct 24 2024 12:54:24 GMT-0500 (Central Daylight Time),174063.0,CFD-BM-037-041-A.jpg,1600,solid,O,z,862,2,1,15811.199999988079,158251.80000001192,7026,ATS,B,7
8,test,1,A,haborder.png,1,m,Thu Oct 24 2024 12:54:24 GMT-0500 (Central Daylight Time),176529.10000002384,CFD-BM-015-017-HC.jpg,1700,solid,O,m,727,1,1,18277.30000001192,158251.80000001192,7026,ATS,B,8
9,test,1,A,haborder.png,1,m,Thu Oct 24 2024 12:54:24 GMT-0500 (Central Daylight Time),178844.80000001192,CFD-WF-011-006-HC.jpg,1500,solid,O,m,781,11,1,20593.0,158251.80000001192,7026,ATS,B,9
10,test,1,A,haborder.png,1,z,Thu Oct 24 2024 12:54:24 GMT-0500 (Central Daylight Time),180527.60000002384,CFD-WF-013-015-A.jpg,1000,solid,O,z,645,12,1,22275.80000001192,158251.80000001192,7026,ATS,B,10
11,test,1,A,haborder.png,1,z,Thu Oct 24 2024 12:54:24 GMT-0500 (Central Daylight Time),182660.40000003576,CFD-BF-050-012-A.jpg,1200,solid,O,z,882,6,1,24408.600000023842,158251.80000001192,7026,ATS,B,11
12,test,1,A,haborder.png,1,z,Thu Oct 24 2024 12:54:24 GMT-0500 (Central Daylight Time),185292.69999998808,CFD-WM-009-009-A.jpg,1900,solid,O,z,690,8,1,27040.899999976158,158251.80000001192,7026,ATS,B,12
13,test,1,A,haborder.png,1,m,Thu Oct 24 2024 12:54:24 GMT-0500 (Central Daylight Time),187892.30000001192,CFD-WM-012-007-HC.jpg,1700,solid,O,m,865,9,1,29640.5,158251.80000001192,7026,ATS,B,13
14,test,1,A,haborder.png,1,z,Thu Oct 24 2024 12:54:24 GMT-0500 (Central Daylight Time),189841.19999998808,CFD-BF-050-012-A.jpg,1200,solid,O,z,710,6,1,31589.399999976158,158251.80000001192,7026,ATS,B,14
15,test,1,A,haborder.png,1,m,Thu Oct 24 2024 12:54:24 GMT-0500 (Central Daylight Time),192341.0,CFD-BM-020-024-HC.jpg,1500,solid,O,m,965,3,1,34089.19999998808,158251.80000001192,7026,ATS,B,15
16,test,1,A,haborder.png,1,z,Thu Oct 24 2024 12:54:24 GMT-0500 (Central Daylight Time),194756.40000003576,CFD-WF-026-008-A.jpg,1600,solid,O,z,765,10,1,36504.60000002384,158251.80000001192,7026,ATS,B,16
17,test,1,A,haborder.png,1,m,Thu Oct 24 2024 12:54:24 GMT-0500 (Central Daylight Time),197238.69999998808,CFD-WM-012-007-HC.jpg,1700,solid,O,m,738,9,1,38986.89999997616,158251.80000001192,7026,ATS,B,17
18,test,1,A,haborder.png,1,z,Thu Oct 24 2024 12:54:24 GMT-0500 (Central Daylight Time),199871.19999998808,CFD-BM-037-041-A.jpg,1600,solid,O,z,988,2,1,41619.39999997616,158251.80000001192,7026,ATS,B,18
19,test,1,A,haborder.png,1,m,Thu Oct 24 2024 12:54:24 GMT-0500 (Central Daylight Time),202753.80000001192,CFD-BF-035-007-HC.jpg,2000,solid,O,m,843,5,1,44502.0,158251.80000001192,7026,ATS,B,19
20,test,1,A,haborder.png,1,z,Thu Oct 24 2024 12:54:24 GMT-0500 (Central Daylight Time),205519.19999998808,CFD-WM-009-009-A.jpg,1900,solid,O,z,828,8,1,47267.39999997616,158251.80000001192,7026,ATS,B,20
21,test,1,A,haborder.png,1,m,Thu Oct 24 2024 12:54:24 GMT-0500 (Central Daylight Time),207802.60000002384,CFD-BM-020-024-HC.jpg,1500,solid,O,m,743,3,1,49550.80000001192,158251.80000001192,7026,ATS,B,21
22,test,1,A,haborder.png,1,z,Thu Oct 24 2024 12:54:24 GMT-0500 (Central Daylight Time),210201.19999998808,CFD-WF-026-008-A.jpg,1600,solid,O,z,735,10,1,51949.39999997616,158251.80000001192,7026,ATS,B,22
23,test,1,A,haborder.png,1,m,Thu Oct 24 2024 12:54:24 GMT-0500 (Central Daylight Time),213083.60000002384,CFD-BF-035-007-HC.jpg,2000,solid,O,m,816,5,1,54831.80000001192,158251.80000001192,7026,ATS,B,23
24,test,1,A,haborder.png,1,z,Thu Oct 24 2024 12:54:24 GMT-0500 (Central Daylight Time),214816.30000001192,CFD-BF-051-043-A.jpg,1000,solid,O,z,687,4,1,56564.5,158251.80000001192,7026,ATS,B,24
1,test,1,B,mfborder.png,1,m,Thu Oct 24 2024 12:54:24 GMT-0500 (Central Daylight Time),231044.40000003576,CFD-WM-012-007-HC.jpg,1600,dash,O,m,715,10,1,2365.900000035763,228678.5,7026,ATS,B,1
2,test,1,B,mfborder.png,1,z,Thu Oct 24 2024 12:54:24 GMT-0500 (Central Daylight Time),233260.69999998808,CFD-BF-035-007-HC.jpg,1400,dash,O,z,781,7,1,4582.199999988079,228678.5,7026,ATS,B,2
3,test,1,B,mfborder.png,1,z,Thu Oct 24 2024 12:54:24 GMT-0500 (Central Daylight Time),235892.69999998808,CFD-WF-027-007-HC.jpg,1900,dash,O,z,690,8,1,7214.199999988079,228678.5,7026,ATS,B,3
4,test,1,B,mfborder.png,1,z,Thu Oct 24 2024 12:54:24 GMT-0500 (Central Daylight Time),237642.10000002384,CFD-WF-011-006-HC.jpg,1000,dash,O,z,709,12,1,8963.600000023842,228678.5,7026,ATS,B,4
5,test,1,B,mfborder.png,1,m,Thu Oct 24 2024 12:54:24 GMT-0500 (Central Daylight Time),240107.90000003576,CFD-WM-009-009-A.jpg,1700,dash,O,m,707,9,1,11429.400000035763,228678.5,7026,ATS,B,5
6,test,1,B,mfborder.png,1,z,Thu Oct 24 2024 12:54:24 GMT-0500 (Central Daylight Time),242340.60000002384,CFD-BF-027-013-HC.jpg,1500,dash,O,z,698,3,1,13662.100000023842,228678.5,7026,ATS,B,6
7,test,1,B,mfborder.png,1,m,Thu Oct 24 2024 12:54:24 GMT-0500 (Central Daylight Time),244756.60000002384,CFD-WM-012-007-HC.jpg,1600,dash,O,m,765,10,1,16078.100000023842,228678.5,7026,ATS,B,7
8,test,1,B,mfborder.png,1,z,Thu Oct 24 2024 12:54:24 GMT-0500 (Central Daylight Time),246972.69999998808,CFD-BF-027-013-HC.jpg,1500,dash,O,z,681,3,1,18294.19999998808,228678.5,7026,ATS,B,8
9,test,1,B,mfborder.png,1,z,Thu Oct 24 2024 12:54:24 GMT-0500 (Central Daylight Time),249571.60000002384,CFD-WF-027-007-HC.jpg,1900,dash,O,z,658,8,1,20893.100000023842,228678.5,7026,ATS,B,9
10,test,1,B,mfborder.png,1,z,Thu Oct 24 2024 12:54:24 GMT-0500 (Central Daylight Time),251704.10000002384,CFD-WF-011-006-HC.jpg,1000,dash,O,z,1094,12,1,23025.600000023842,228678.5,7026,ATS,B,10
11,test,1,B,mfborder.png,1,m,Thu Oct 24 2024 12:54:24 GMT-0500 (Central Daylight Time),254736.40000003576,CFD-WM-009-009-A.jpg,1700,dash,O,m,1285,9,1,26057.900000035763,228678.5,7026,ATS,B,11
12,test,1,B,mfborder.png,1,z,Thu Oct 24 2024 12:54:24 GMT-0500 (Central Daylight Time),257369.0,CFD-WF-026-008-A.jpg,1500,dash,O,z,1093,11,1,28690.5,228678.5,7026,ATS,B,12
13,test,1,B,mfborder.png,1,z,Thu Oct 24 2024 12:54:24 GMT-0500 (Central Daylight Time),259135.19999998808,CFD-BF-051-043-A.jpg,1000,dash,O,z,728,4,1,30456.69999998808,228678.5,7026,ATS,B,13
14,test,1,B,mfborder.png,1,m,Thu Oct 24 2024 12:54:24 GMT-0500 (Central Daylight Time),261551.0,CFD-BM-020-024-HC.jpg,1700,dash,O,m,671,1,1,32872.5,228678.5,7026,ATS,B,14
15,test,1,B,mfborder.png,1,m,Thu Oct 24 2024 12:54:24 GMT-0500 (Central Daylight Time),263500.3000000119,CFD-WM-037-060-A.jpg,1200,dash,O,m,707,6,1,34821.80000001192,228678.5,7026,ATS,B,15
16,test,1,B,mfborder.png,1,m,Thu Oct 24 2024 12:54:24 GMT-0500 (Central Daylight Time),266316.10000002384,CFD-BM-037-041-A.jpg,2000,dash,O,m,766,5,1,37637.60000002384,228678.5,7026,ATS,B,16
17,test,1,B,mfborder.png,1,m,Thu Oct 24 2024 12:54:24 GMT-0500 (Central Daylight Time),269215.10000002384,CFD-BM-037-041-A.jpg,2000,dash,O,m,854,5,1,40536.60000002384,228678.5,7026,ATS,B,17
18,test,1,B,mfborder.png,1,z,Thu Oct 24 2024 12:54:24 GMT-0500 (Central Daylight Time),271614.5,CFD-WF-026-008-A.jpg,1500,dash,O,z,855,11,1,42936.0,228678.5,7026,ATS,B,18
19,test,1,B,mfborder.png,1,m,Thu Oct 24 2024 12:54:24 GMT-0500 (Central Daylight Time),273797.1999999881,CFD-WM-037-060-A.jpg,1200,dash,O,m,947,6,1,45118.69999998808,228678.5,7026,ATS,B,19
20,test,1,B,mfborder.png,1,z,Thu Oct 24 2024 12:54:24 GMT-0500 (Central Daylight Time),276180.60000002384,CFD-BF-035-007-HC.jpg,1400,dash,O,z,948,7,1,47502.10000002384,228678.5,7026,ATS,B,20
21,test,1,B,mfborder.png,1,z,Thu Oct 24 2024 12:54:24 GMT-0500 (Central Daylight Time),278112.10000002384,CFD-BF-051-043-A.jpg,1000,dash,O,z,886,4,1,49433.60000002384,228678.5,7026,ATS,B,21
22,test,1,B,mfborder.png,1,m,Thu Oct 24 2024 12:54:24 GMT-0500 (Central Daylight Time),280561.1999999881,CFD-BM-041-048-A.jpg,1600,dash,O,m,827,2,1,51882.69999998808,228678.5,7026,ATS,B,22
23,test,1,B,mfborder.png,1,m,Thu Oct 24 2024 12:54:24 GMT-0500 (Central Daylight Time),283027.1999999881,CFD-BM-041-048-A.jpg,1600,dash,O,m,825,2,1,54348.69999998808,228678.5,7026,ATS,B,23
24,test,1,B,mfborder.png,1,m,Thu Oct 24 2024 12:54:24 GMT-0500 (Central Daylight Time),285493.0,CFD-BM-020-024-HC.jpg,1700,dash,O,m,731,1,1,56814.5,228678.5,7026,ATS,B,24
1,8,1,C,haborder.png,1,z,Thu Oct 24 2024 12:54:24 GMT-0500 (Central Daylight Time),317066.1999999881,CFD-BF-050-012-A.jpg,1700,solid,O,z,991,prac,1,3515.599999964237,313550.60000002384,7026,ATS,B,1
2,5,1,C,mfborder.png,1,m,Thu Oct 24 2024 12:54:24 GMT-0500 (Central Daylight Time),319865.5,CFD-BM-037-041-A.jpg,1200,dash,O,m,768,prac,1,6314.899999976158,313550.60000002384,7026,ATS,B,2
3,7,1,C,haborder.png,1,z,Thu Oct 24 2024 12:54:24 GMT-0500 (Central Daylight Time),323780.90000003576,CFD-BF-051-043-A.jpg,1900,dash,O,z,1213,prac,1,10230.300000011921,313550.60000002384,7026,ATS,B,3
4,11,1,C,haborder.png,1,m,Thu Oct 24 2024 12:54:24 GMT-0500 (Central Daylight Time),326546.40000003576,CFD-WM-011-006-HC.jpg,1000,dash,O,m,941,prac,1,12995.800000011921,313550.60000002384,7026,ATS,B,4
4,12,1,C,haborder.png,0,m,Thu Oct 24 2024 12:54:24 GMT-0500 (Central Daylight Time),330278.1999999881,CFD-WM-011-006-HC.jpg,1400,solid,O,None,1515,prac,1,16727.599999964237,313550.60000002384,7026,ATS,B,5
5,1,1,C,mfborder.png,1,z,Thu Oct 24 2024 12:54:24 GMT-0500 (Central Daylight Time),333610.8000000119,CFD-WF-011-006-HC.jpg,1600,dash,O,z,915,prac,1,20060.19999998808,313550.60000002384,7026,ATS,B,6
6,3,1,C,mfborder.png,1,z,Thu Oct 24 2024 12:54:24 GMT-0500 (Central Daylight Time),336293.10000002384,CFD-BF-035-007-HC.jpg,1000,dash,O,z,871,prac,1,22742.5,313550.60000002384,7026,ATS,B,7
7,10,1,C,haborder.png,1,m,Thu Oct 24 2024 12:54:24 GMT-0500 (Central Daylight Time),339492.10000002384,CFD-BM-020-024-HC.jpg,1500,solid,O,m,897,prac,1,25941.5,313550.60000002384,7026,ATS,B,8
8,6,1,C,mfborder.png,1,m,Thu Oct 24 2024 12:54:24 GMT-0500 (Central Daylight Time),343057.6999999881,CFD-WM-009-009-A.jpg,1700,solid,O,m,1041,prac,1,29507.099999964237,313550.60000002384,7026,ATS,B,9
9,2,1,C,mfborder.png,1,z,Thu Oct 24 2024 12:54:24 GMT-0500 (Central Daylight Time),346523.10000002384,CFD-WF-013-015-A.jpg,1500,solid,O,z,1132,prac,1,32972.5,313550.60000002384,7026,ATS,B,10
10,4,1,C,mfborder.png,1,m,Thu Oct 24 2024 12:54:24 GMT-0500 (Central Daylight Time),350088.8000000119,CFD-BM-015-017-HC.jpg,2000,solid,O,m,735,prac,1,36538.19999998808,313550.60000002384,7026,ATS,B,11
11,9,1,C,haborder.png,1,z,Thu Oct 24 2024 12:54:24 GMT-0500 (Central Daylight Time),353404.1999999881,CFD-WF-026-008-A.jpg,1600,dash,O,z,889,prac,1,39853.59999996424,313550.60000002384,7026,ATS,B,12
0,test,1,C,haborder.png,0,m,Thu Oct 24 2024 12:54:24 GMT-0500 (Central Daylight Time),368332.8000000119,CFD-WF-027-007-HC.jpg,1500,solid,O,None,1515,11,1,3049.199999988079,365283.60000002384,7026,ATS,B,1
1,test,1,C,haborder.png,1,z,Thu Oct 24 2024 12:54:24 GMT-0500 (Central Daylight Time),371431.6999999881,CFD-BM-041-048-A.jpg,1700,solid,O,z,1354,9,1,6148.099999964237,365283.60000002384,7026,ATS,B,2
2,test,1,C,haborder.png,1,z,Thu Oct 24 2024 12:54:24 GMT-0500 (Central Daylight Time),374430.40000003576,CFD-BM-037-041-A.jpg,1900,solid,O,z,1055,8,1,9146.800000011921,365283.60000002384,7026,ATS,B,3
3,test,1,C,mfborder.png,1,m,Thu Oct 24 2024 12:54:24 GMT-0500 (Central Daylight Time),376446.5,CFD-WM-012-007-HC.jpg,1000,dash,O,m,972,4,1,11162.899999976158,365283.60000002384,7026,ATS,B,4
4,test,1,C,mfborder.png,1,m,Thu Oct 24 2024 12:54:24 GMT-0500 (Central Daylight Time),379412.0,CFD-WM-037-060-A.jpg,2000,dash,O,m,897,5,1,14128.399999976158,365283.60000002384,7026,ATS,B,5
5,test,1,C,haborder.png,1,m,Thu Oct 24 2024 12:54:24 GMT-0500 (Central Daylight Time),382427.6999999881,CFD-BF-035-007-HC.jpg,1600,solid,O,m,1374,10,1,17144.099999964237,365283.60000002384,7026,ATS,B,6
6,test,1,C,haborder.png,1,z,Thu Oct 24 2024 12:54:24 GMT-0500 (Central Daylight Time),385376.90000003576,CFD-BM-041-048-A.jpg,1700,solid,O,z,1202,9,1,20093.30000001192,365283.60000002384,7026,ATS,B,7
7,test,1,C,haborder.png,1,m,Thu Oct 24 2024 12:54:24 GMT-0500 (Central Daylight Time),387476.10000002384,CFD-WF-011-006-HC.jpg,1000,solid,O,m,1057,12,1,22192.5,365283.60000002384,7026,ATS,B,8
8,test,1,C,mfborder.png,1,z,Thu Oct 24 2024 12:54:24 GMT-0500 (Central Daylight Time),390208.6999999881,CFD-BF-027-013-HC.jpg,1700,dash,O,z,978,1,1,24925.099999964237,365283.60000002384,7026,ATS,B,9
9,test,1,C,haborder.png,1,m,Thu Oct 24 2024 12:54:24 GMT-0500 (Central Daylight Time),392891.0,CFD-WF-027-007-HC.jpg,1500,solid,O,m,1142,11,1,27607.399999976158,365283.60000002384,7026,ATS,B,10
10,test,1,C,haborder.png,1,m,Thu Oct 24 2024 12:54:24 GMT-0500 (Central Daylight Time),395423.6999999881,CFD-BF-035-007-HC.jpg,1600,solid,O,m,887,10,1,30140.099999964237,365283.60000002384,7026,ATS,B,11
10,test,1,C,haborder.png,0,z,Thu Oct 24 2024 12:54:24 GMT-0500 (Central Daylight Time),398773.10000002384,CFD-BM-037-041-A.jpg,1900,solid,O,m,1414,8,1,33489.5,365283.60000002384,7026,ATS,B,12
11,test,1,C,mfborder.png,1,z,Thu Oct 24 2024 12:54:24 GMT-0500 (Central Daylight Time),401371.60000002384,CFD-WF-026-008-A.jpg,1500,dash,O,z,1050,3,1,36088.0,365283.60000002384,7026,ATS,B,13
11,test,1,C,haborder.png,0,m,Thu Oct 24 2024 12:54:24 GMT-0500 (Central Daylight Time),403537.60000002384,CFD-WF-011-006-HC.jpg,1000,solid,O,z,1127,12,1,38254.0,365283.60000002384,7026,ATS,B,14
12,test,1,C,mfborder.png,1,z,Thu Oct 24 2024 12:54:24 GMT-0500 (Central Daylight Time),406586.1999999881,CFD-BF-051-043-A.jpg,1600,dash,O,z,1400,2,1,41302.59999996424,365283.60000002384,7026,ATS,B,15
13,test,1,C,mfborder.png,1,z,Thu Oct 24 2024 12:54:24 GMT-0500 (Central Daylight Time),408919.8000000119,CFD-BF-051-043-A.jpg,1600,dash,O,z,713,2,1,43636.19999998808,365283.60000002384,7026,ATS,B,16
14,test,1,C,mfborder.png,1,z,Thu Oct 24 2024 12:54:24 GMT-0500 (Central Daylight Time),411534.90000003576,CFD-BF-027-013-HC.jpg,1700,dash,O,z,854,1,1,46251.30000001192,365283.60000002384,7026,ATS,B,17
15,test,1,C,mfborder.png,1,z,Thu Oct 24 2024 12:54:24 GMT-0500 (Central Daylight Time),413834.10000002384,CFD-WF-026-008-A.jpg,1500,dash,O,z,759,3,1,48550.5,365283.60000002384,7026,ATS,B,18
16,test,1,C,mfborder.png,1,m,Thu Oct 24 2024 12:54:24 GMT-0500 (Central Daylight Time),416716.8000000119,CFD-WM-037-060-A.jpg,2000,dash,O,m,848,5,1,51433.19999998808,365283.60000002384,7026,ATS,B,19
17,test,1,C,mfborder.png,1,m,Thu Oct 24 2024 12:54:24 GMT-0500 (Central Daylight Time),418832.40000003576,CFD-BM-020-024-HC.jpg,1200,dash,O,m,878,6,1,53548.80000001192,365283.60000002384,7026,ATS,B,20
18,test,1,C,mfborder.png,1,m,Thu Oct 24 2024 12:54:24 GMT-0500 (Central Daylight Time),420898.6999999881,CFD-BM-020-024-HC.jpg,1200,dash,O,m,801,6,1,55615.09999996424,365283.60000002384,7026,ATS,B,21
19,test,1,C,haborder.png,1,z,Thu Oct 24 2024 12:54:24 GMT-0500 (Central Daylight Time),423447.6999999881,CFD-WM-009-009-A.jpg,1400,solid,O,z,1104,7,1,58164.09999996424,365283.60000002384,7026,ATS,B,22
20,test,1,C,mfborder.png,1,m,Thu Oct 24 2024 12:54:24 GMT-0500 (Central Daylight Time),425630.40000003576,CFD-WM-012-007-HC.jpg,1000,dash,O,m,1122,4,1,60346.80000001192,365283.60000002384,7026,ATS,B,23
21,test,1,C,haborder.png,1,z,Thu Oct 24 2024 12:54:24 GMT-0500 (Central Daylight Time),427962.6999999881,CFD-WM-009-009-A.jpg,1400,solid,O,z,884,7,1,62679.09999996424,365283.60000002384,7026,ATS,B,24
1,test,2,C,mfborder.png,1,m,Thu Oct 24 2024 12:54:24 GMT-0500 (Central Daylight Time),432211.6999999881,CFD-BM-015-017-HC.jpg,1000,dash,O,m,1483,4,1,2532.699999988079,429679.0,7026,ATS,B,1
2,test,2,C,mfborder.png,1,z,Thu Oct 24 2024 12:54:24 GMT-0500 (Central Daylight Time),434561.0,CFD-WF-013-015-A.jpg,1600,dash,O,z,711,2,1,4882.0,429679.0,7026,ATS,B,2
3,test,2,C,haborder.png,1,z,Thu Oct 24 2024 12:54:24 GMT-0500 (Central Daylight Time),437243.0,CFD-WF-026-008-A.jpg,1700,solid,O,z,942,9,1,7564.0,429679.0,7026,ATS,B,3
4,test,2,C,haborder.png,1,z,Thu Oct 24 2024 12:54:24 GMT-0500 (Central Daylight Time),439625.8000000119,CFD-BF-051-043-A.jpg,1400,solid,O,z,943,7,1,9946.800000011921,429679.0,7026,ATS,B,4
5,test,2,C,mfborder.png,1,z,Thu Oct 24 2024 12:54:24 GMT-0500 (Central Daylight Time),442324.90000003576,CFD-WF-011-006-HC.jpg,1700,dash,O,z,949,1,1,12645.900000035763,429679.0,7026,ATS,B,5
6,test,2,C,haborder.png,1,m,Thu Oct 24 2024 12:54:24 GMT-0500 (Central Daylight Time),444540.8000000119,CFD-WM-011-006-HC.jpg,1000,solid,O,m,1181,12,1,14861.800000011921,429679.0,7026,ATS,B,6
7,test,2,C,haborder.png,1,m,Thu Oct 24 2024 12:54:24 GMT-0500 (Central Daylight Time),446940.0,CFD-BM-020-024-HC.jpg,1600,solid,O,m,758,10,1,17261.0,429679.0,7026,ATS,B,7
8,test,2,C,mfborder.png,1,z,Thu Oct 24 2024 12:54:24 GMT-0500 (Central Daylight Time),449905.60000002384,CFD-BF-035-007-HC.jpg,1500,dash,O,z,1426,3,1,20226.600000023842,429679.0,7026,ATS,B,8
9,test,2,C,mfborder.png,1,m,Thu Oct 24 2024 12:54:24 GMT-0500 (Central Daylight Time),452588.10000002384,CFD-WM-009-009-A.jpg,1200,dash,O,m,1441,6,1,22909.100000023842,429679.0,7026,ATS,B,9
10,test,2,C,haborder.png,1,z,Thu Oct 24 2024 12:54:24 GMT-0500 (Central Daylight Time),455570.3000000119,CFD-BF-050-012-A.jpg,1900,solid,O,z,1034,8,1,25891.30000001192,429679.0,7026,ATS,B,10
11,test,2,C,haborder.png,1,z,Thu Oct 24 2024 12:54:24 GMT-0500 (Central Daylight Time),457869.6999999881,CFD-BF-051-043-A.jpg,1400,solid,O,z,856,7,1,28190.69999998808,429679.0,7026,ATS,B,11
12,test,2,C,haborder.png,1,z,Thu Oct 24 2024 12:54:24 GMT-0500 (Central Daylight Time),460635.6999999881,CFD-BF-050-012-A.jpg,1900,solid,O,z,817,8,1,30956.69999998808,429679.0,7026,ATS,B,12
13,test,2,C,mfborder.png,1,z,Thu Oct 24 2024 12:54:24 GMT-0500 (Central Daylight Time),463101.5,CFD-WF-011-006-HC.jpg,1700,dash,O,z,731,1,1,33422.5,429679.0,7026,ATS,B,13
14,test,2,C,mfborder.png,1,z,Thu Oct 24 2024 12:54:24 GMT-0500 (Central Daylight Time),465932.90000003576,CFD-WF-013-015-A.jpg,1600,dash,O,z,1188,2,1,36253.90000003576,429679.0,7026,ATS,B,14
15,test,2,C,haborder.png,1,m,Thu Oct 24 2024 12:54:24 GMT-0500 (Central Daylight Time),468532.90000003576,CFD-BM-020-024-HC.jpg,1600,solid,O,m,973,10,1,38853.90000003576,429679.0,7026,ATS,B,15
16,test,2,C,haborder.png,1,z,Thu Oct 24 2024 12:54:24 GMT-0500 (Central Daylight Time),471282.10000002384,CFD-WF-026-008-A.jpg,1700,solid,O,z,1010,9,1,41603.10000002384,429679.0,7026,ATS,B,16
17,test,2,C,mfborder.png,1,z,Thu Oct 24 2024 12:54:24 GMT-0500 (Central Daylight Time),474031.10000002384,CFD-BF-035-007-HC.jpg,1500,dash,O,z,1204,3,1,44352.10000002384,429679.0,7026,ATS,B,17
18,test,2,C,mfborder.png,1,m,Thu Oct 24 2024 12:54:24 GMT-0500 (Central Daylight Time),477146.6999999881,CFD-BM-037-041-A.jpg,2000,dash,O,m,1075,5,1,47467.69999998808,429679.0,7026,ATS,B,18
19,test,2,C,haborder.png,1,m,Thu Oct 24 2024 12:54:24 GMT-0500 (Central Daylight Time),479162.8000000119,CFD-WM-011-006-HC.jpg,1000,solid,O,m,967,12,1,49483.80000001192,429679.0,7026,ATS,B,19
20,test,2,C,mfborder.png,1,m,Thu Oct 24 2024 12:54:24 GMT-0500 (Central Daylight Time),481362.0,CFD-WM-009-009-A.jpg,1200,dash,O,m,952,6,1,51683.0,429679.0,7026,ATS,B,20
21,test,2,C,mfborder.png,1,m,Thu Oct 24 2024 12:54:24 GMT-0500 (Central Daylight Time),483244.60000002384,CFD-BM-015-017-HC.jpg,1000,dash,O,m,832,4,1,53565.60000002384,429679.0,7026,ATS,B,21
22,test,2,C,mfborder.png,1,m,Thu Oct 24 2024 12:54:24 GMT-0500 (Central Daylight Time),485960.1999999881,CFD-BM-037-041-A.jpg,2000,dash,O,m,678,5,1,56281.19999998808,429679.0,7026,ATS,B,22
23,test,2,C,haborder.png,1,m,Thu Oct 24 2024 12:54:24 GMT-0500 (Central Daylight Time),488343.0,CFD-WM-011-006-HC.jpg,1500,solid,O,m,845,11,1,58664.0,429679.0,7026,ATS,B,23
24,test,2,C,haborder.png,1,m,Thu Oct 24 2024 12:54:24 GMT-0500 (Central Daylight Time),490708.8000000119,CFD-WM-011-006-HC.jpg,1500,solid,O,m,831,11,1,61029.80000001192,429679.0,7026,ATS,B,24
1,test,3,C,mfborder.png,1,z,Thu Oct 24 2024 12:54:24 GMT-0500 (Central Daylight Time),494274.6999999881,CFD-BF-027-013-HC.jpg,1700,dash,O,z,984,1,1,2732.699999988079,491542.0,7026,ATS,B,1
2,test,3,C,mfborder.png,1,z,Thu Oct 24 2024 12:54:24 GMT-0500 (Central Daylight Time),496541.0,CFD-WF-026-008-A.jpg,1500,dash,O,z,732,3,1,4999.0,491542.0,7026,ATS,B,2
3,test,3,C,haborder.png,1,m,Thu Oct 24 2024 12:54:24 GMT-0500 (Central Daylight Time),498506.10000002384,CFD-WF-011-006-HC.jpg,1000,solid,O,m,926,12,1,6964.100000023842,491542.0,7026,ATS,B,3
4,test,3,C,mfborder.png,1,m,Thu Oct 24 2024 12:54:24 GMT-0500 (Central Daylight Time),501472.10000002384,CFD-WM-037-060-A.jpg,2000,dash,O,m,904,5,1,9930.100000023842,491542.0,7026,ATS,B,4
5,test,3,C,mfborder.png,1,m,Thu Oct 24 2024 12:54:24 GMT-0500 (Central Daylight Time),504321.10000002384,CFD-WM-037-060-A.jpg,2000,dash,O,m,810,5,1,12779.100000023842,491542.0,7026,ATS,B,5
6,test,3,C,haborder.png,1,z,Thu Oct 24 2024 12:54:24 GMT-0500 (Central Daylight Time),507120.10000002384,CFD-WM-009-009-A.jpg,1400,solid,O,z,1362,7,1,15578.100000023842,491542.0,7026,ATS,B,6
7,test,3,C,mfborder.png,1,z,Thu Oct 24 2024 12:54:24 GMT-0500 (Central Daylight Time),509636.0,CFD-BF-051-043-A.jpg,1600,dash,O,z,874,2,1,18094.0,491542.0,7026,ATS,B,7
8,test,3,C,haborder.png,1,z,Thu Oct 24 2024 12:54:24 GMT-0500 (Central Daylight Time),512568.40000003576,CFD-BM-037-041-A.jpg,1900,solid,O,z,986,8,1,21026.400000035763,491542.0,7026,ATS,B,8
9,test,3,C,mfborder.png,1,z,Thu Oct 24 2024 12:54:24 GMT-0500 (Central Daylight Time),515217.60000002384,CFD-BF-027-013-HC.jpg,1700,dash,O,z,902,1,1,23675.600000023842,491542.0,7026,ATS,B,9
10,test,3,C,haborder.png,1,m,Thu Oct 24 2024 12:54:24 GMT-0500 (Central Daylight Time),518016.60000002384,CFD-WF-027-007-HC.jpg,1500,solid,O,m,1262,11,1,26474.600000023842,491542.0,7026,ATS,B,10
11,test,3,C,mfborder.png,1,z,Thu Oct 24 2024 12:54:24 GMT-0500 (Central Daylight Time),520349.1999999881,CFD-BF-051-043-A.jpg,1600,dash,O,z,690,2,1,28807.19999998808,491542.0,7026,ATS,B,11
11,test,3,C,haborder.png,0,z,Thu Oct 24 2024 12:54:24 GMT-0500 (Central Daylight Time),523164.90000003576,CFD-WM-009-009-A.jpg,1400,solid,O,m,1381,7,1,31622.900000035763,491542.0,7026,ATS,B,12
12,test,3,C,mfborder.png,1,m,Thu Oct 24 2024 12:54:24 GMT-0500 (Central Daylight Time),525097.1000000238,CFD-WM-012-007-HC.jpg,1000,dash,O,m,876,4,1,33555.10000002384,491542.0,7026,ATS,B,13
13,test,3,C,haborder.png,1,z,Thu Oct 24 2024 12:54:24 GMT-0500 (Central Daylight Time),528029.6999999881,CFD-BM-041-048-A.jpg,1700,solid,O,z,1214,9,1,36487.69999998808,491542.0,7026,ATS,B,14
14,test,3,C,haborder.png,1,m,Thu Oct 24 2024 12:54:24 GMT-0500 (Central Daylight Time),530879.0,CFD-BF-035-007-HC.jpg,1600,solid,O,m,1213,10,1,39337.0,491542.0,7026,ATS,B,15
15,test,3,C,mfborder.png,1,z,Thu Oct 24 2024 12:54:24 GMT-0500 (Central Daylight Time),533161.5,CFD-WF-026-008-A.jpg,1500,dash,O,z,718,3,1,41619.5,491542.0,7026,ATS,B,16
16,test,3,C,haborder.png,1,z,Thu Oct 24 2024 12:54:24 GMT-0500 (Central Daylight Time),536327.1999999881,CFD-BM-037-041-A.jpg,1900,solid,O,z,1221,8,1,44785.19999998808,491542.0,7026,ATS,B,17
17,test,3,C,haborder.png,1,m,Thu Oct 24 2024 12:54:24 GMT-0500 (Central Daylight Time),539009.6999999881,CFD-WF-027-007-HC.jpg,1500,solid,O,m,1143,11,1,47467.69999998808,491542.0,7026,ATS,B,18
18,test,3,C,haborder.png,1,z,Thu Oct 24 2024 12:54:24 GMT-0500 (Central Daylight Time),541658.5,CFD-BM-041-048-A.jpg,1700,solid,O,z,909,9,1,50116.5,491542.0,7026,ATS,B,19
19,test,3,C,haborder.png,1,m,Thu Oct 24 2024 12:54:24 GMT-0500 (Central Daylight Time),544308.4000000358,CFD-BF-035-007-HC.jpg,1600,solid,O,m,1016,10,1,52766.40000003576,491542.0,7026,ATS,B,20
20,test,3,C,mfborder.png,1,m,Thu Oct 24 2024 12:54:24 GMT-0500 (Central Daylight Time),546623.8000000119,CFD-BM-020-024-HC.jpg,1200,dash,O,m,1078,6,1,55081.80000001192,491542.0,7026,ATS,B,21
21,test,3,C,mfborder.png,1,m,Thu Oct 24 2024 12:54:24 GMT-0500 (Central Daylight Time),548589.9000000358,CFD-BM-020-024-HC.jpg,1200,dash,O,m,722,6,1,57047.90000003576,491542.0,7026,ATS,B,22
22,test,3,C,mfborder.png,1,m,Thu Oct 24 2024 12:54:24 GMT-0500 (Central Daylight Time),550439.1999999881,CFD-WM-012-007-HC.jpg,1000,dash,O,m,812,4,1,58897.19999998808,491542.0,7026,ATS,B,23
23,test,3,C,haborder.png,1,m,Thu Oct 24 2024 12:54:24 GMT-0500 (Central Daylight Time),552505.3000000119,CFD-WF-011-006-HC.jpg,1000,solid,O,m,1019,12,1,60963.30000001192,491542.0,7026,ATS,B,24
1,test,4,C,haborder.png,1,m,Thu Oct 24 2024 12:54:24 GMT-0500 (Central Daylight Time),555871.0,CFD-WM-011-006-HC.jpg,1500,solid,O,m,971,11,1,2516.0,553355.0,7026,ATS,B,1
2,test,4,C,haborder.png,1,z,Thu Oct 24 2024 12:54:24 GMT-0500 (Central Daylight Time),558786.6999999881,CFD-BF-050-012-A.jpg,1900,solid,O,z,967,8,1,5431.699999988079,553355.0,7026,ATS,B,2
3,test,4,C,mfborder.png,1,m,Thu Oct 24 2024 12:54:24 GMT-0500 (Central Daylight Time),561585.6000000238,CFD-BM-037-041-A.jpg,2000,dash,O,m,760,5,1,8230.600000023842,553355.0,7026,ATS,B,3
4,test,4,C,mfborder.png,1,z,Thu Oct 24 2024 12:54:24 GMT-0500 (Central Daylight Time),564051.4000000358,CFD-BF-035-007-HC.jpg,1500,dash,O,z,925,3,1,10696.400000035763,553355.0,7026,ATS,B,4
5,test,4,C,haborder.png,1,z,Thu Oct 24 2024 12:54:24 GMT-0500 (Central Daylight Time),567083.6999999881,CFD-WF-026-008-A.jpg,1700,solid,O,z,1290,9,1,13728.699999988079,553355.0,7026,ATS,B,5
6,test,4,C,mfborder.png,1,m,Thu Oct 24 2024 12:54:24 GMT-0500 (Central Daylight Time),570249.6000000238,CFD-BM-037-041-A.jpg,2000,dash,O,m,1119,5,1,16894.600000023842,553355.0,7026,ATS,B,6
7,test,4,C,haborder.png,1,m,Thu Oct 24 2024 12:54:24 GMT-0500 (Central Daylight Time),572765.1000000238,CFD-BM-020-024-HC.jpg,1600,solid,O,m,881,10,1,19410.100000023842,553355.0,7026,ATS,B,7
8,test,4,C,mfborder.png,1,m,Thu Oct 24 2024 12:54:24 GMT-0500 (Central Daylight Time),574914.5,CFD-WM-009-009-A.jpg,1200,dash,O,m,909,6,1,21559.5,553355.0,7026,ATS,B,8
9,test,4,C,mfborder.png,1,z,Thu Oct 24 2024 12:54:24 GMT-0500 (Central Daylight Time),577630.3000000119,CFD-WF-013-015-A.jpg,1600,dash,O,z,1080,2,1,24275.30000001192,553355.0,7026,ATS,B,9
10,test,4,C,haborder.png,1,m,Thu Oct 24 2024 12:54:24 GMT-0500 (Central Daylight Time),579596.3000000119,CFD-WM-011-006-HC.jpg,1000,solid,O,m,916,12,1,26241.30000001192,553355.0,7026,ATS,B,10
11,test,4,C,haborder.png,1,m,Thu Oct 24 2024 12:54:24 GMT-0500 (Central Daylight Time),582195.6000000238,CFD-WM-011-006-HC.jpg,1500,solid,O,m,1050,11,1,28840.600000023842,553355.0,7026,ATS,B,11
12,test,4,C,haborder.png,1,m,Thu Oct 24 2024 12:54:24 GMT-0500 (Central Daylight Time),584845.1000000238,CFD-BM-020-024-HC.jpg,1600,solid,O,m,999,10,1,31490.100000023842,553355.0,7026,ATS,B,12
13,test,4,C,haborder.png,1,z,Thu Oct 24 2024 12:54:24 GMT-0500 (Central Daylight Time),587710.3000000119,CFD-BF-051-043-A.jpg,1400,solid,O,z,1429,7,1,34355.30000001192,553355.0,7026,ATS,B,13
14,test,4,C,haborder.png,1,z,Thu Oct 24 2024 12:54:24 GMT-0500 (Central Daylight Time),590642.6000000238,CFD-BF-050-012-A.jpg,1900,solid,O,z,984,8,1,37287.60000002384,553355.0,7026,ATS,B,14
15,test,4,C,mfborder.png,1,z,Thu Oct 24 2024 12:54:24 GMT-0500 (Central Daylight Time),593208.6000000238,CFD-BF-035-007-HC.jpg,1500,dash,O,z,1028,3,1,39853.60000002384,553355.0,7026,ATS,B,15
16,test,4,C,mfborder.png,1,m,Thu Oct 24 2024 12:54:24 GMT-0500 (Central Daylight Time),595257.6999999881,CFD-WM-009-009-A.jpg,1200,dash,O,m,802,6,1,41902.69999998808,553355.0,7026,ATS,B,16
17,test,4,C,mfborder.png,1,z,Thu Oct 24 2024 12:54:24 GMT-0500 (Central Daylight Time),598340.6000000238,CFD-WF-013-015-A.jpg,1600,dash,O,z,1432,2,1,44985.60000002384,553355.0,7026,ATS,B,17
18,test,4,C,mfborder.png,1,z,Thu Oct 24 2024 12:54:24 GMT-0500 (Central Daylight Time),601188.9000000358,CFD-WF-011-006-HC.jpg,1700,dash,O,z,1114,1,1,47833.90000003576,553355.0,7026,ATS,B,18
19,test,4,C,haborder.png,1,z,Thu Oct 24 2024 12:54:24 GMT-0500 (Central Daylight Time),603721.8000000119,CFD-BF-051-043-A.jpg,1400,solid,O,z,1085,7,1,50366.80000001192,553355.0,7026,ATS,B,19
20,test,4,C,mfborder.png,1,z,Thu Oct 24 2024 12:54:24 GMT-0500 (Central Daylight Time),606120.9000000358,CFD-WF-011-006-HC.jpg,1700,dash,O,z,661,1,1,52765.90000003576,553355.0,7026,ATS,B,20
21,test,4,C,haborder.png,1,m,Thu Oct 24 2024 12:54:24 GMT-0500 (Central Daylight Time),608103.5,CFD-WM-011-006-HC.jpg,1000,solid,O,m,945,12,1,54748.5,553355.0,7026,ATS,B,21
22,test,4,C,haborder.png,1,z,Thu Oct 24 2024 12:54:24 GMT-0500 (Central Daylight Time),610619.5,CFD-WF-026-008-A.jpg,1700,solid,O,z,774,9,1,57264.5,553355.0,7026,ATS,B,22
23,test,4,C,mfborder.png,1,m,Thu Oct 24 2024 12:54:24 GMT-0500 (Central Daylight Time),612585.6000000238,CFD-BM-015-017-HC.jpg,1000,dash,O,m,919,4,1,59230.60000002384,553355.0,7026,ATS,B,23
24,test,4,C,mfborder.png,1,m,Thu Oct 24 2024 12:54:24 GMT-0500 (Central Daylight Time),614285.0,CFD-BM-015-017-HC.jpg,1000,dash,O,m,657,4,1,60930.0,553355.0,7026,ATS,B,24
