acc_sum,block,block_c,change,condition,correct,correct_response,datetime,endtime,face,project,response,response_time,row_sel,session_number,start_end,starttime,subject_id,task,task_vers,trial
0,prac,1,,1-Back,,,Tue Apr 22 2025 18:12:22 GMT-0500 (Central Daylight Time),,012_o_f_d_a.png,I,space,8166,1,2,,,8019,VNB,C,0
1,prac,1,0.0,1-Back,1,m,Tue Apr 22 2025 18:12:22 GMT-0500 (Central Daylight Time),114678.5,022_y_f_n_a.png,I,m,1732,2,2,2624.5999999940395,112053.90000000596,8019,VNB,C,1
2,prac,1,0.0,1-Back,1,m,Tue Apr 22 2025 18:12:22 GMT-0500 (Central Daylight Time),116744.5,014_m_m_h_a.png,I,m,1177,3,2,2043.5999999940395,114700.90000000596,8019,VNB,C,2
3,prac,1,0.0,1-Back,1,m,Tue Apr 22 2025 18:12:22 GMT-0500 (Central Daylight Time),118377.40000000596,025_y_m_d_a.png,I,m,737,4,2,1610.9000000059605,116766.5,8019,VNB,C,3
4,prac,1,0.0,1-Back,1,m,Tue Apr 22 2025 18:12:22 GMT-0500 (Central Daylight Time),120310.10000002384,012_o_f_n_a.png,I,m,1027,5,2,1907.5,118402.60000002384,8019,VNB,C,4
5,prac,1,1.0,1-Back,1,z,Tue Apr 22 2025 18:12:22 GMT-0500 (Central Daylight Time),122959.20000001788,025_y_m_n_a.png,I,z,1757,6,2,2626.5,120332.70000001788,8019,VNB,C,5
6,prac,1,0.0,1-Back,1,m,Tue Apr 22 2025 18:12:22 GMT-0500 (Central Daylight Time),125008.5,015_o_m_h_a.png,I,m,1136,7,2,2026.3999999761581,122982.10000002384,8019,VNB,C,6
7,prac,1,0.0,1-Back,1,m,Tue Apr 22 2025 18:12:22 GMT-0500 (Central Daylight Time),126824.70000001788,019_m_f_d_a.png,I,m,895,8,2,1793.4000000059605,125031.30000001192,8019,VNB,C,7
8,prac,1,1.0,1-Back,1,z,Tue Apr 22 2025 18:12:22 GMT-0500 (Central Daylight Time),128557.60000002384,022_y_f_d_a.png,I,z,825,9,2,1710.0,126847.60000002384,8019,VNB,C,8
9,prac,1,0.0,1-Back,1,m,Tue Apr 22 2025 18:12:22 GMT-0500 (Central Daylight Time),130473.5,014_m_m_n_a.png,I,m,1025,10,2,1892.3999999761581,128581.10000002384,8019,VNB,C,9
10,prac,1,0.0,1-Back,1,m,Tue Apr 22 2025 18:12:22 GMT-0500 (Central Daylight Time),132223.0,012_o_f_h_a.png,I,m,846,11,2,1726.5999999940395,130496.40000000596,8019,VNB,C,10
11,prac,1,0.0,1-Back,1,m,Tue Apr 22 2025 18:12:22 GMT-0500 (Central Daylight Time),134339.10000002384,025_y_m_d_a.png,I,m,1220,12,2,2093.300000011921,132245.80000001192,8019,VNB,C,11
0,test,1,0.0,1-Back,,,Tue Apr 22 2025 18:12:22 GMT-0500 (Central Daylight Time),134339.10000002384,022_y_f_d_a.png,I,space,2998,1,2,2093.300000011921,132245.80000001192,8019,VNB,C,0
1,test,1,0.0,1-Back,1,m,Tue Apr 22 2025 18:12:22 GMT-0500 (Central Daylight Time),145285.20000001788,019_m_f_n_a.png,I,m,1150,2,2,2177.300000011921,143107.90000000596,8019,VNB,C,1
2,test,1,0.0,1-Back,1,m,Tue Apr 22 2025 18:12:22 GMT-0500 (Central Daylight Time),147319.30000001192,015_o_m_h_a.png,I,m,991,3,2,2012.199999988079,145307.10000002384,8019,VNB,C,2
3,test,1,1.0,1-Back,1,z,Tue Apr 22 2025 18:12:22 GMT-0500 (Central Daylight Time),149284.30000001192,014_m_m_h_a.png,I,z,926,4,2,1943.300000011921,147341.0,8019,VNB,C,3
4,test,1,0.0,1-Back,1,m,Tue Apr 22 2025 18:12:22 GMT-0500 (Central Daylight Time),151333.60000002384,012_o_f_n_a.png,I,m,1000,5,2,2027.5,149306.10000002384,8019,VNB,C,4
5,test,1,0.0,1-Back,1,m,Tue Apr 22 2025 18:12:22 GMT-0500 (Central Daylight Time),153699.5,025_y_m_d_a.png,I,m,1319,6,2,2344.699999988079,151354.80000001192,8019,VNB,C,5
6,test,1,1.0,1-Back,1,z,Tue Apr 22 2025 18:12:22 GMT-0500 (Central Daylight Time),155732.30000001192,019_m_f_d_a.png,I,z,993,7,2,2008.0999999940395,153724.20000001788,8019,VNB,C,6
7,test,1,0.0,1-Back,1,m,Tue Apr 22 2025 18:12:22 GMT-0500 (Central Daylight Time),157798.5,022_y_f_h_a.png,I,m,1032,8,2,2043.8999999761581,155754.60000002384,8019,VNB,C,7
8,test,1,0.0,1-Back,1,m,Tue Apr 22 2025 18:12:22 GMT-0500 (Central Daylight Time),159714.40000000596,015_o_m_n_a.png,I,m,878,9,2,1894.9000000059605,157819.5,8019,VNB,C,8
9,test,1,0.0,1-Back,1,m,Tue Apr 22 2025 18:12:22 GMT-0500 (Central Daylight Time),161631.30000001192,025_y_m_h_a.png,I,m,882,10,2,1895.5999999940395,159735.70000001788,8019,VNB,C,9
10,test,1,0.0,1-Back,1,m,Tue Apr 22 2025 18:12:22 GMT-0500 (Central Daylight Time),163779.70000001788,015_o_m_d_a.png,I,m,1102,11,2,2126.2000000178814,161653.5,8019,VNB,C,10
10,test,1,1.0,1-Back,0,z,Tue Apr 22 2025 18:12:22 GMT-0500 (Central Daylight Time),166079.10000002384,012_o_f_d_a.png,I,m,1257,12,2,2277.800000011921,163801.30000001192,8019,VNB,C,11
11,test,1,0.0,1-Back,1,m,Tue Apr 22 2025 18:12:22 GMT-0500 (Central Daylight Time),168028.30000001192,014_m_m_n_a.png,I,m,902,13,2,1927.5999999940395,166100.70000001788,8019,VNB,C,12
12,test,1,1.0,1-Back,1,z,Tue Apr 22 2025 18:12:22 GMT-0500 (Central Daylight Time),170310.90000000596,022_y_f_n_a.png,I,z,1240,14,2,2262.5,168048.40000000596,8019,VNB,C,13
13,test,1,0.0,1-Back,1,m,Tue Apr 22 2025 18:12:22 GMT-0500 (Central Daylight Time),172410.20000001788,019_m_f_h_a.png,I,m,1062,15,2,2078.0999999940395,170332.10000002384,8019,VNB,C,14
14,test,1,0.0,1-Back,1,m,Tue Apr 22 2025 18:12:22 GMT-0500 (Central Daylight Time),174193.10000002384,014_m_m_d_a.png,I,m,746,16,2,1761.800000011921,172431.30000001192,8019,VNB,C,15
15,test,1,0.0,1-Back,1,m,Tue Apr 22 2025 18:12:22 GMT-0500 (Central Daylight Time),176159.10000002384,025_y_m_n_a.png,I,m,923,17,2,1944.2000000178814,174214.90000000596,8019,VNB,C,16
16,test,1,0.0,1-Back,1,m,Tue Apr 22 2025 18:12:22 GMT-0500 (Central Daylight Time),178425.30000001192,012_o_f_h_a.png,I,m,1229,18,2,2243.0999999940395,176182.20000001788,8019,VNB,C,17
0,test,2,0.0,1-Back,,,Tue Apr 22 2025 18:12:22 GMT-0500 (Central Daylight Time),178425.30000001192,025_y_m_n_a.png,I,space,1716,1,2,2243.0999999940395,176182.20000001788,8019,VNB,C,0
1,test,2,0.0,1-Back,1,m,Tue Apr 22 2025 18:12:22 GMT-0500 (Central Daylight Time),184306.70000001788,022_y_f_h_a.png,I,m,1094,2,2,2110.4000000059605,182196.30000001192,8019,VNB,C,1
2,test,2,1.0,1-Back,1,m,Tue Apr 22 2025 18:12:22 GMT-0500 (Central Daylight Time),186206.10000002384,015_o_m_n_a.png,I,m,866,3,2,1877.7000000178814,184328.40000000596,8019,VNB,C,2
3,test,2,0.0,1-Back,1,m,Tue Apr 22 2025 18:12:22 GMT-0500 (Central Daylight Time),188205.5,019_m_f_d_a.png,I,m,950,4,2,1977.3999999761581,186228.10000002384,8019,VNB,C,3
4,test,2,0.0,1-Back,1,z,Tue Apr 22 2025 18:12:22 GMT-0500 (Central Daylight Time),190304.70000001788,014_m_m_d_a.png,I,z,1055,5,2,2077.2000000178814,188227.5,8019,VNB,C,4
5,test,2,0.0,1-Back,1,m,Tue Apr 22 2025 18:12:22 GMT-0500 (Central Daylight Time),192953.80000001192,025_y_m_h_a.png,I,m,1612,6,2,2626.9000000059605,190326.90000000596,8019,VNB,C,5
6,test,2,1.0,1-Back,1,z,Tue Apr 22 2025 18:12:22 GMT-0500 (Central Daylight Time),195786.40000000596,012_o_f_h_a.png,I,z,1787,7,2,2811.5999999940395,192974.80000001192,8019,VNB,C,6
7,test,2,0.0,1-Back,1,m,Tue Apr 22 2025 18:12:22 GMT-0500 (Central Daylight Time),198152.30000001192,019_m_f_n_a.png,I,m,1322,8,2,2342.699999988079,195809.60000002384,8019,VNB,C,7
8,test,2,0.0,1-Back,1,m,Tue Apr 22 2025 18:12:22 GMT-0500 (Central Daylight Time),200268.30000001192,022_y_f_d_a.png,I,m,1076,9,2,2093.9000000059605,198174.40000000596,8019,VNB,C,8
9,test,2,0.0,1-Back,1,m,Tue Apr 22 2025 18:12:22 GMT-0500 (Central Daylight Time),202667.60000002384,014_m_m_n_a.png,I,m,1360,10,2,2377.5,200290.10000002384,8019,VNB,C,9
10,test,2,1.0,1-Back,1,m,Tue Apr 22 2025 18:12:22 GMT-0500 (Central Daylight Time),204578.5,019_m_f_h_a.png,I,m,877,11,2,1888.7999999821186,202689.70000001788,8019,VNB,C,10
11,test,2,0.0,1-Back,1,z,Tue Apr 22 2025 18:12:22 GMT-0500 (Central Daylight Time),206483.10000002384,015_o_m_h_a.png,I,z,853,12,2,1874.800000011921,204608.30000001192,8019,VNB,C,11
12,test,2,0.0,1-Back,1,m,Tue Apr 22 2025 18:12:22 GMT-0500 (Central Daylight Time),208598.80000001192,025_y_m_d_a.png,I,m,1081,13,2,2092.800000011921,206506.0,8019,VNB,C,12
13,test,2,0.0,1-Back,1,m,Tue Apr 22 2025 18:12:22 GMT-0500 (Central Daylight Time),210781.70000001788,012_o_f_n_a.png,I,m,1133,14,2,2160.9000000059605,208620.80000001192,8019,VNB,C,13
14,test,2,0.0,1-Back,1,z,Tue Apr 22 2025 18:12:22 GMT-0500 (Central Daylight Time),213314.10000002384,022_y_f_n_a.png,I,z,1487,15,2,2510.5,210803.60000002384,8019,VNB,C,14
15,test,2,1.0,1-Back,1,m,Tue Apr 22 2025 18:12:22 GMT-0500 (Central Daylight Time),215246.80000001192,014_m_m_h_a.png,I,m,890,16,2,1910.699999988079,213336.10000002384,8019,VNB,C,15
16,test,2,0.0,1-Back,1,m,Tue Apr 22 2025 18:12:22 GMT-0500 (Central Daylight Time),217246.40000000596,012_o_f_d_a.png,I,m,949,17,2,1978.0999999940395,215268.30000001192,8019,VNB,C,16
17,test,2,1.0,1-Back,1,z,Tue Apr 22 2025 18:12:22 GMT-0500 (Central Daylight Time),219246.0,015_o_m_d_a.png,I,z,958,18,2,1975.0,217271.0,8019,VNB,C,17
0,test,3,1.0,1-Back,,,Tue Apr 22 2025 18:12:22 GMT-0500 (Central Daylight Time),219246.0,012_o_f_h_a.png,I,space,1207,1,2,1975.0,217271.0,8019,VNB,C,0
1,test,3,0.0,1-Back,1,m,Tue Apr 22 2025 18:12:22 GMT-0500 (Central Daylight Time),224910.30000001192,019_m_f_d_a.png,I,m,1281,2,2,2293.800000011921,222616.5,8019,VNB,C,1
2,test,3,1.0,1-Back,1,m,Tue Apr 22 2025 18:12:22 GMT-0500 (Central Daylight Time),227509.80000001192,014_m_m_n_a.png,I,m,1566,3,2,2574.5,224935.30000001192,8019,VNB,C,2
3,test,3,0.0,1-Back,1,z,Tue Apr 22 2025 18:12:22 GMT-0500 (Central Daylight Time),229492.20000001788,012_o_f_n_a.png,I,z,934,4,2,1959.5,227532.70000001788,8019,VNB,C,3
4,test,3,1.0,1-Back,1,m,Tue Apr 22 2025 18:12:22 GMT-0500 (Central Daylight Time),231541.5,015_o_m_d_a.png,I,m,1008,5,2,2024.8999999761581,229516.60000002384,8019,VNB,C,4
5,test,3,0.0,1-Back,1,m,Tue Apr 22 2025 18:12:22 GMT-0500 (Central Daylight Time),233524.40000000596,022_y_f_h_a.png,I,m,943,6,2,1959.0,231565.40000000596,8019,VNB,C,5
6,test,3,0.0,1-Back,1,z,Tue Apr 22 2025 18:12:22 GMT-0500 (Central Daylight Time),235473.70000001788,025_y_m_h_a.png,I,z,903,7,2,1926.5,233547.20000001788,8019,VNB,C,6
7,test,3,0.0,1-Back,1,m,Tue Apr 22 2025 18:12:22 GMT-0500 (Central Daylight Time),237189.90000000596,019_m_f_n_a.png,I,m,682,8,2,1692.5999999940395,235497.30000001192,8019,VNB,C,7
8,test,3,0.0,1-Back,1,m,Tue Apr 22 2025 18:12:22 GMT-0500 (Central Daylight Time),239139.20000001788,022_y_f_d_a.png,I,m,911,9,2,1926.0,237213.20000001788,8019,VNB,C,8
9,test,3,1.0,1-Back,1,m,Tue Apr 22 2025 18:12:22 GMT-0500 (Central Daylight Time),241555.0,015_o_m_n_a.png,I,m,1377,10,2,2392.399999976158,239162.60000002384,8019,VNB,C,9
10,test,3,0.0,1-Back,1,m,Tue Apr 22 2025 18:12:22 GMT-0500 (Central Daylight Time),243571.10000002384,014_m_m_h_a.png,I,m,977,11,2,1989.1000000238419,241582.0,8019,VNB,C,10
11,test,3,0.0,1-Back,1,z,Tue Apr 22 2025 18:12:22 GMT-0500 (Central Daylight Time),245387.30000001192,019_m_f_h_a.png,I,z,776,12,2,1793.199999988079,243594.10000002384,8019,VNB,C,11
12,test,3,1.0,1-Back,1,m,Tue Apr 22 2025 18:12:22 GMT-0500 (Central Daylight Time),247369.90000000596,012_o_f_d_a.png,I,m,936,13,2,1960.2999999821186,245409.60000002384,8019,VNB,C,12
13,test,3,0.0,1-Back,1,z,Tue Apr 22 2025 18:12:22 GMT-0500 (Central Daylight Time),249269.30000001192,014_m_m_d_a.png,I,z,859,14,2,1874.0,247395.30000001192,8019,VNB,C,13
14,test,3,0.0,1-Back,1,m,Tue Apr 22 2025 18:12:22 GMT-0500 (Central Daylight Time),251152.0,025_y_m_n_a.png,I,m,846,15,2,1857.199999988079,249294.80000001192,8019,VNB,C,14
14,test,3,1.0,1-Back,0,m,Tue Apr 22 2025 18:12:22 GMT-0500 (Central Daylight Time),253051.60000002384,015_o_m_h_a.png,I,z,852,16,2,1872.300000011921,251179.30000001192,8019,VNB,C,15
15,test,3,0.0,1-Back,1,m,Tue Apr 22 2025 18:12:22 GMT-0500 (Central Daylight Time),255167.5,025_y_m_d_a.png,I,m,1080,17,2,2088.399999976158,253079.10000002384,8019,VNB,C,16
16,test,3,1.0,1-Back,1,m,Tue Apr 22 2025 18:12:22 GMT-0500 (Central Daylight Time),257467.0,022_y_f_n_a.png,I,m,1261,18,2,2277.7999999821186,255189.20000001788,8019,VNB,C,17
0,test,4,1.0,1-Back,,,Tue Apr 22 2025 18:12:22 GMT-0500 (Central Daylight Time),257467.0,014_m_m_d_a.png,I,space,1098,1,2,2277.7999999821186,255189.20000001788,8019,VNB,C,0
1,test,4,0.0,1-Back,1,z,Tue Apr 22 2025 18:12:22 GMT-0500 (Central Daylight Time),262615.10000002384,015_o_m_d_a.png,I,z,997,2,2,2009.800000011921,260605.30000001192,8019,VNB,C,1
2,test,4,0.0,1-Back,1,m,Tue Apr 22 2025 18:12:22 GMT-0500 (Central Daylight Time),264731.2000000179,025_y_m_h_a.png,I,m,1076,3,2,2094.0,262637.2000000179,8019,VNB,C,2
3,test,4,0.0,1-Back,1,m,Tue Apr 22 2025 18:12:22 GMT-0500 (Central Daylight Time),266880.90000000596,019_m_f_n_a.png,I,m,1105,4,2,2128.0,264752.90000000596,8019,VNB,C,3
4,test,4,1.0,1-Back,1,m,Tue Apr 22 2025 18:12:22 GMT-0500 (Central Daylight Time),268646.60000002384,012_o_f_h_a.png,I,m,732,5,2,1743.9000000059605,266902.7000000179,8019,VNB,C,4
5,test,4,0.0,1-Back,1,m,Tue Apr 22 2025 18:12:22 GMT-0500 (Central Daylight Time),270796.3000000119,014_m_m_n_a.png,I,m,1110,6,2,2127.300000011921,268669.0,8019,VNB,C,5
6,test,4,0.0,1-Back,1,m,Tue Apr 22 2025 18:12:22 GMT-0500 (Central Daylight Time),272595.60000002384,025_y_m_d_a.png,I,m,760,7,2,1777.7000000178814,270817.90000000596,8019,VNB,C,6
7,test,4,1.0,1-Back,1,z,Tue Apr 22 2025 18:12:22 GMT-0500 (Central Daylight Time),274228.5,022_y_f_d_a.png,I,z,585,8,2,1610.2999999821186,272618.2000000179,8019,VNB,C,7
8,test,4,0.0,1-Back,1,m,Tue Apr 22 2025 18:12:22 GMT-0500 (Central Daylight Time),276244.3000000119,019_m_f_h_a.png,I,m,940,9,2,1993.4000000059605,274250.90000000596,8019,VNB,C,8
9,test,4,0.0,1-Back,1,z,Tue Apr 22 2025 18:12:22 GMT-0500 (Central Daylight Time),277927.3000000119,015_o_m_h_a.png,I,z,640,10,2,1659.800000011921,276267.5,8019,VNB,C,9
10,test,4,1.0,1-Back,1,m,Tue Apr 22 2025 18:12:22 GMT-0500 (Central Daylight Time),279660.10000002384,012_o_f_n_a.png,I,m,685,11,2,1710.5,277949.60000002384,8019,VNB,C,10
11,test,4,0.0,1-Back,1,m,Tue Apr 22 2025 18:12:22 GMT-0500 (Central Daylight Time),281476.3000000119,019_m_f_d_a.png,I,m,776,12,2,1794.0999999940395,279682.2000000179,8019,VNB,C,11
12,test,4,0.0,1-Back,1,m,Tue Apr 22 2025 18:12:22 GMT-0500 (Central Daylight Time),283042.5,022_y_f_n_a.png,I,m,529,13,2,1544.5999999940395,281497.90000000596,8019,VNB,C,12
13,test,4,0.0,1-Back,1,m,Tue Apr 22 2025 18:12:22 GMT-0500 (Central Daylight Time),285091.8000000119,012_o_f_d_a.png,I,m,1002,14,2,2027.5,283064.3000000119,8019,VNB,C,13
14,test,4,0.0,1-Back,1,m,Tue Apr 22 2025 18:12:22 GMT-0500 (Central Daylight Time),286924.60000002384,022_y_f_h_a.png,I,m,785,15,2,1810.5,285114.10000002384,8019,VNB,C,14
15,test,4,1.0,1-Back,1,z,Tue Apr 22 2025 18:12:22 GMT-0500 (Central Daylight Time),288974.10000002384,014_m_m_h_a.png,I,z,1008,16,2,2028.1000000238419,286946.0,8019,VNB,C,15
16,test,4,0.0,1-Back,1,m,Tue Apr 22 2025 18:12:22 GMT-0500 (Central Daylight Time),290806.5,015_o_m_n_a.png,I,m,799,17,2,1805.5999999940395,289000.90000000596,8019,VNB,C,16
16,test,4,1.0,1-Back,0,z,Tue Apr 22 2025 18:12:22 GMT-0500 (Central Daylight Time),292622.8000000119,025_y_m_n_a.png,I,m,774,18,2,1794.4000000059605,290828.40000000596,8019,VNB,C,17
0,test,5,1.0,1-Back,,,Tue Apr 22 2025 18:12:22 GMT-0500 (Central Daylight Time),292622.8000000119,015_o_m_n_a.png,I,space,1366,1,2,1794.4000000059605,290828.40000000596,8019,VNB,C,0
1,test,5,1.0,1-Back,1,m,Tue Apr 22 2025 18:12:22 GMT-0500 (Central Daylight Time),298420.90000000596,012_o_f_h_a.png,I,m,1350,2,2,2378.5999999940395,296042.3000000119,8019,VNB,C,1
2,test,5,0.0,1-Back,1,m,Tue Apr 22 2025 18:12:22 GMT-0500 (Central Daylight Time),300070.3000000119,025_y_m_d_a.png,I,m,600,3,2,1627.300000011921,298443.0,8019,VNB,C,2
3,test,5,0.0,1-Back,1,z,Tue Apr 22 2025 18:12:22 GMT-0500 (Central Daylight Time),302136.40000000596,015_o_m_d_a.png,I,z,1022,4,2,2040.0,300096.40000000596,8019,VNB,C,3
4,test,5,0.0,1-Back,1,m,Tue Apr 22 2025 18:12:22 GMT-0500 (Central Daylight Time),303835.90000000596,019_m_f_h_a.png,I,m,660,5,2,1677.5999999940395,302158.3000000119,8019,VNB,C,4
5,test,5,0.0,1-Back,1,m,Tue Apr 22 2025 18:12:22 GMT-0500 (Central Daylight Time),305818.60000002384,022_y_f_n_a.png,I,m,937,6,2,1960.4000000059605,303858.2000000179,8019,VNB,C,5
6,test,5,1.0,1-Back,1,z,Tue Apr 22 2025 18:12:22 GMT-0500 (Central Daylight Time),307668.0,012_o_f_n_a.png,I,z,810,7,2,1827.3999999761581,305840.60000002384,8019,VNB,C,6
7,test,5,0.0,1-Back,1,m,Tue Apr 22 2025 18:12:22 GMT-0500 (Central Daylight Time),309334.2000000179,019_m_f_d_a.png,I,m,624,8,2,1644.300000011921,307689.90000000596,8019,VNB,C,7
8,test,5,0.0,1-Back,1,m,Tue Apr 22 2025 18:12:22 GMT-0500 (Central Daylight Time),311150.3000000119,025_y_m_h_a.png,I,m,766,9,2,1794.0999999940395,309356.2000000179,8019,VNB,C,8
9,test,5,0.0,1-Back,1,m,Tue Apr 22 2025 18:12:22 GMT-0500 (Central Daylight Time),313299.7000000179,022_y_f_d_a.png,I,m,1102,10,2,2127.7000000178814,311172.0,8019,VNB,C,9
10,test,5,0.0,1-Back,1,m,Tue Apr 22 2025 18:12:22 GMT-0500 (Central Daylight Time),315349.10000002384,014_m_m_n_a.png,I,m,1001,11,2,2027.6000000238419,313321.5,8019,VNB,C,10
11,test,5,1.0,1-Back,1,z,Tue Apr 22 2025 18:12:22 GMT-0500 (Central Daylight Time),316981.90000000596,019_m_f_n_a.png,I,z,592,12,2,1610.4000000059605,315371.5,8019,VNB,C,11
12,test,5,0.0,1-Back,1,m,Tue Apr 22 2025 18:12:22 GMT-0500 (Central Daylight Time),318714.60000002384,015_o_m_h_a.png,I,m,686,13,2,1709.5,317005.10000002384,8019,VNB,C,12
13,test,5,0.0,1-Back,1,z,Tue Apr 22 2025 18:12:22 GMT-0500 (Central Daylight Time),320847.0,014_m_m_h_a.png,I,z,1098,14,2,2110.399999976158,318736.60000002384,8019,VNB,C,13
14,test,5,1.0,1-Back,1,m,Tue Apr 22 2025 18:12:22 GMT-0500 (Central Daylight Time),322630.2000000179,012_o_f_d_a.png,I,m,733,15,2,1762.0999999940395,320868.10000002384,8019,VNB,C,14
15,test,5,0.0,1-Back,1,m,Tue Apr 22 2025 18:12:22 GMT-0500 (Central Daylight Time),324912.8000000119,025_y_m_n_a.png,I,m,1238,16,2,2261.300000011921,322651.5,8019,VNB,C,15
16,test,5,0.0,1-Back,1,m,Tue Apr 22 2025 18:12:22 GMT-0500 (Central Daylight Time),326712.10000002384,022_y_f_h_a.png,I,m,756,17,2,1777.6000000238419,324934.5,8019,VNB,C,16
17,test,5,0.0,1-Back,1,m,Tue Apr 22 2025 18:12:22 GMT-0500 (Central Daylight Time),328511.2000000179,014_m_m_d_a.png,I,m,765,18,2,1777.7000000178814,326733.5,8019,VNB,C,17
0,prac,1,0.0,2-Back,,,Tue Apr 22 2025 18:12:22 GMT-0500 (Central Daylight Time),328511.2000000179,019_m_f_n_a.png,I,space,2121,1,2,1777.7000000178814,326733.5,8019,VNB,C,0
0,prac,1,0.0,2-Back,,,Tue Apr 22 2025 18:12:22 GMT-0500 (Central Daylight Time),328511.2000000179,012_o_f_h_a.png,I,space,2121,2,2,1777.7000000178814,326733.5,8019,VNB,C,0
1,prac,1,0.0,2-Back,1,m,Tue Apr 22 2025 18:12:22 GMT-0500 (Central Daylight Time),399456.10000002384,015_o_m_d_a.png,I,m,1227,3,2,2123.7000000178814,397332.40000000596,8019,VNB,C,1
1,prac,1,1.0,2-Back,0,z,Tue Apr 22 2025 18:12:22 GMT-0500 (Central Daylight Time),402205.3000000119,014_m_m_h_a.png,I,m,1855,4,2,2725.800000011921,399479.5,8019,VNB,C,2
2,prac,1,0.0,2-Back,1,m,Tue Apr 22 2025 18:12:22 GMT-0500 (Central Daylight Time),404704.40000000596,022_y_f_n_a.png,I,m,1581,5,2,2476.199999988079,402228.2000000179,8019,VNB,C,3
2,prac,1,1.0,2-Back,0,z,Tue Apr 22 2025 18:12:22 GMT-0500 (Central Daylight Time),407103.7000000179,015_o_m_h_a.png,I,m,1598,6,2,2376.0,404727.7000000179,8019,VNB,C,4
3,prac,1,1.0,2-Back,1,z,Tue Apr 22 2025 18:12:22 GMT-0500 (Central Daylight Time),409653.10000002384,025_y_m_n_a.png,I,z,1656,7,2,2522.4000000059605,407130.7000000179,8019,VNB,C,5
4,prac,1,0.0,2-Back,1,m,Tue Apr 22 2025 18:12:22 GMT-0500 (Central Daylight Time),412185.2000000179,019_m_f_d_a.png,I,m,1620,8,2,2508.5,409676.7000000179,8019,VNB,C,6
5,prac,1,0.0,2-Back,1,m,Tue Apr 22 2025 18:12:22 GMT-0500 (Central Daylight Time),415034.5,012_o_f_d_a.png,I,m,1931,9,2,2823.7999999821186,412210.7000000179,8019,VNB,C,7
5,prac,1,0.0,2-Back,0,m,Tue Apr 22 2025 18:12:22 GMT-0500 (Central Daylight Time),417667.10000002384,014_m_m_h_a.png,I,z,1828,10,2,2609.4000000059605,415057.7000000179,8019,VNB,C,8
5,prac,1,1.0,2-Back,0,z,Tue Apr 22 2025 18:12:22 GMT-0500 (Central Daylight Time),420299.5,022_y_f_d_a.png,I,m,1709,11,2,2607.699999988079,417691.8000000119,8019,VNB,C,9
5,prac,1,0.0,2-Back,0,m,Tue Apr 22 2025 18:12:22 GMT-0500 (Central Daylight Time),422865.40000000596,015_o_m_n_a.png,I,z,1652,12,2,2541.7999999821186,420323.60000002384,8019,VNB,C,10
0,prac,2,0.0,2-Back,,,Tue Apr 22 2025 18:12:22 GMT-0500 (Central Daylight Time),422865.40000000596,019_m_f_n_a.png,I,a,3185,1,2,2541.7999999821186,420323.60000002384,8019,VNB,C,0
0,prac,2,0.0,2-Back,,,Tue Apr 22 2025 18:12:22 GMT-0500 (Central Daylight Time),422865.40000000596,012_o_f_h_a.png,I,a,3185,2,2,2541.7999999821186,420323.60000002384,8019,VNB,C,0
0,prac,2,0.0,2-Back,0,m,Tue Apr 22 2025 18:12:22 GMT-0500 (Central Daylight Time),434278.5,015_o_m_d_a.png,I,None,2013,3,2,2908.399999976158,431370.10000002384,8019,VNB,C,1
1,prac,2,1.0,2-Back,1,z,Tue Apr 22 2025 18:12:22 GMT-0500 (Central Daylight Time),436344.40000000596,014_m_m_h_a.png,I,z,1263,4,2,2041.4000000059605,434303.0,8019,VNB,C,2
1,prac,2,0.0,2-Back,0,m,Tue Apr 22 2025 18:12:22 GMT-0500 (Central Daylight Time),439127.2000000179,022_y_f_n_a.png,I,z,1867,5,2,2760.2000000178814,436367.0,8019,VNB,C,3
2,prac,2,1.0,2-Back,1,z,Tue Apr 22 2025 18:12:22 GMT-0500 (Central Daylight Time),441376.5,015_o_m_h_a.png,I,z,1337,6,2,2226.199999988079,439150.3000000119,8019,VNB,C,4
2,prac,2,1.0,2-Back,0,z,Tue Apr 22 2025 18:12:22 GMT-0500 (Central Daylight Time),444275.3000000119,025_y_m_n_a.png,I,None,2016,7,2,2873.9000000059605,441401.40000000596,8019,VNB,C,5
3,prac,2,0.0,2-Back,1,m,Tue Apr 22 2025 18:12:22 GMT-0500 (Central Daylight Time),446574.60000002384,019_m_f_d_a.png,I,m,1390,8,2,2276.2000000178814,444298.40000000596,8019,VNB,C,6
3,prac,2,0.0,2-Back,0,m,Tue Apr 22 2025 18:12:22 GMT-0500 (Central Daylight Time),449490.0,012_o_f_d_a.png,I,None,2013,9,2,2892.0,446598.0,8019,VNB,C,7
4,prac,2,0.0,2-Back,1,m,Tue Apr 22 2025 18:12:22 GMT-0500 (Central Daylight Time),452222.7000000179,014_m_m_h_a.png,I,m,1940,10,2,2708.800000011921,449513.90000000596,8019,VNB,C,8
4,prac,2,1.0,2-Back,0,z,Tue Apr 22 2025 18:12:22 GMT-0500 (Central Daylight Time),454239.0,022_y_f_d_a.png,I,m,1099,11,2,1993.699999988079,452245.3000000119,8019,VNB,C,9
5,prac,2,0.0,2-Back,1,m,Tue Apr 22 2025 18:12:22 GMT-0500 (Central Daylight Time),456621.5,015_o_m_n_a.png,I,m,1464,12,2,2358.5999999940395,454262.90000000596,8019,VNB,C,10
0,test,1,0.0,2-Back,,,Tue Apr 22 2025 18:12:22 GMT-0500 (Central Daylight Time),456621.5,025_y_m_h_a.png,I,space,7290,1,2,2358.5999999940395,454262.90000000596,8019,VNB,C,0
0,test,1,0.0,2-Back,,,Tue Apr 22 2025 18:12:22 GMT-0500 (Central Daylight Time),456621.5,012_o_f_n_a.png,I,space,7290,2,2,2358.5999999940395,454262.90000000596,8019,VNB,C,0
1,test,1,0.0,2-Back,1,z,Tue Apr 22 2025 18:12:22 GMT-0500 (Central Daylight Time),475582.3000000119,015_o_m_h_a.png,I,z,981,3,2,1991.0999999940395,473591.2000000179,8019,VNB,C,1
2,test,1,0.0,2-Back,1,m,Tue Apr 22 2025 18:12:22 GMT-0500 (Central Daylight Time),477814.90000000596,019_m_f_d_a.png,I,m,1199,4,2,2212.0999999940395,475602.8000000119,8019,VNB,C,2
3,test,1,1.0,2-Back,1,m,Tue Apr 22 2025 18:12:22 GMT-0500 (Central Daylight Time),479897.5,025_y_m_n_a.png,I,m,1046,5,2,2060.7999999821186,477836.7000000179,8019,VNB,C,3
4,test,1,0.0,2-Back,1,z,Tue Apr 22 2025 18:12:22 GMT-0500 (Central Daylight Time),481697.10000002384,022_y_f_d_a.png,I,z,763,6,2,1778.2000000178814,479918.90000000596,8019,VNB,C,4
5,test,1,0.0,2-Back,1,m,Tue Apr 22 2025 18:12:22 GMT-0500 (Central Daylight Time),483563.10000002384,014_m_m_h_a.png,I,m,827,7,2,1844.4000000059605,481718.7000000179,8019,VNB,C,5
6,test,1,1.0,2-Back,1,m,Tue Apr 22 2025 18:12:22 GMT-0500 (Central Daylight Time),485362.5,022_y_f_n_a.png,I,m,754,8,2,1777.199999988079,483585.3000000119,8019,VNB,C,6
7,test,1,0.0,2-Back,1,z,Tue Apr 22 2025 18:12:22 GMT-0500 (Central Daylight Time),487628.2000000179,012_o_f_h_a.png,I,z,1226,9,2,2244.7000000178814,485383.5,8019,VNB,C,7
7,test,1,0.0,2-Back,0,m,Tue Apr 22 2025 18:12:22 GMT-0500 (Central Daylight Time),490677.5,015_o_m_d_a.png,I,None,2015,10,2,3027.699999988079,487649.8000000119,8019,VNB,C,8
7,test,1,1.0,2-Back,0,m,Tue Apr 22 2025 18:12:22 GMT-0500 (Central Daylight Time),492693.60000002384,014_m_m_d_a.png,I,z,975,11,2,1994.800000011921,490698.8000000119,8019,VNB,C,9
8,test,1,0.0,2-Back,1,m,Tue Apr 22 2025 18:12:22 GMT-0500 (Central Daylight Time),495459.40000000596,019_m_f_n_a.png,I,m,1719,12,2,2743.699999988079,492715.7000000179,8019,VNB,C,10
9,test,1,0.0,2-Back,1,m,Tue Apr 22 2025 18:12:22 GMT-0500 (Central Daylight Time),497458.60000002384,022_y_f_h_a.png,I,m,961,13,2,1977.0,495481.60000002384,8019,VNB,C,11
10,test,1,0.0,2-Back,1,z,Tue Apr 22 2025 18:12:22 GMT-0500 (Central Daylight Time),500324.5,014_m_m_n_a.png,I,z,1826,14,2,2844.0,497480.5,8019,VNB,C,12
11,test,1,0.0,2-Back,1,m,Tue Apr 22 2025 18:12:22 GMT-0500 (Central Daylight Time),502907.0,025_y_m_d_a.png,I,m,1536,15,2,2561.199999988079,500345.8000000119,8019,VNB,C,13
12,test,1,1.0,2-Back,1,m,Tue Apr 22 2025 18:12:22 GMT-0500 (Central Daylight Time),505373.0,019_m_f_h_a.png,I,m,1426,16,2,2443.7999999821186,502929.2000000179,8019,VNB,C,14
13,test,1,0.0,2-Back,1,z,Tue Apr 22 2025 18:12:22 GMT-0500 (Central Daylight Time),507205.5,012_o_f_d_a.png,I,z,792,17,2,1810.0999999940395,505395.40000000596,8019,VNB,C,15
14,test,1,0.0,2-Back,1,m,Tue Apr 22 2025 18:12:22 GMT-0500 (Central Daylight Time),510221.40000000596,015_o_m_n_a.png,I,m,1966,18,2,2993.699999988079,507227.7000000179,8019,VNB,C,16
0,test,2,0.0,2-Back,,,Tue Apr 22 2025 18:12:22 GMT-0500 (Central Daylight Time),510221.40000000596,014_m_m_h_a.png,I,space,1112,1,2,2993.699999988079,507227.7000000179,8019,VNB,C,0
0,test,2,0.0,2-Back,,,Tue Apr 22 2025 18:12:22 GMT-0500 (Central Daylight Time),510221.40000000596,022_y_f_n_a.png,I,space,1112,2,2,2993.699999988079,507227.7000000179,8019,VNB,C,0
1,test,2,1.0,2-Back,1,z,Tue Apr 22 2025 18:12:22 GMT-0500 (Central Daylight Time),518535.40000000596,012_o_f_h_a.png,I,z,906,3,2,1927.0,516608.40000000596,8019,VNB,C,1
2,test,2,0.0,2-Back,1,m,Tue Apr 22 2025 18:12:22 GMT-0500 (Central Daylight Time),521018.10000002384,015_o_m_d_a.png,I,m,1445,4,2,2460.800000011921,518557.3000000119,8019,VNB,C,2
3,test,2,0.0,2-Back,1,m,Tue Apr 22 2025 18:12:22 GMT-0500 (Central Daylight Time),523650.40000000596,019_m_f_d_a.png,I,m,1587,5,2,2609.0999999940395,521041.3000000119,8019,VNB,C,3
4,test,2,0.0,2-Back,1,m,Tue Apr 22 2025 18:12:22 GMT-0500 (Central Daylight Time),525516.6000000238,025_y_m_h_a.png,I,m,826,6,2,1843.5,523673.10000002384,8019,VNB,C,4
5,test,2,0.0,2-Back,1,m,Tue Apr 22 2025 18:12:22 GMT-0500 (Central Daylight Time),528482.1000000238,012_o_f_n_a.png,I,m,1928,7,2,2943.5,525538.6000000238,8019,VNB,C,5
6,test,2,1.0,2-Back,1,z,Tue Apr 22 2025 18:12:22 GMT-0500 (Central Daylight Time),530381.5,015_o_m_h_a.png,I,z,858,8,2,1876.0999999940395,528505.400000006,8019,VNB,C,6
7,test,2,0.0,2-Back,1,m,Tue Apr 22 2025 18:12:22 GMT-0500 (Central Daylight Time),533230.900000006,022_y_f_d_a.png,I,m,1806,9,2,2827.699999988079,530403.2000000179,8019,VNB,C,7
7,test,2,0.0,2-Back,0,m,Tue Apr 22 2025 18:12:22 GMT-0500 (Central Daylight Time),536296.5,025_y_m_d_a.png,I,None,2005,10,2,3041.199999988079,533255.3000000119,8019,VNB,C,8
8,test,2,0.0,2-Back,1,m,Tue Apr 22 2025 18:12:22 GMT-0500 (Central Daylight Time),539062.5,014_m_m_n_a.png,I,m,1716,11,2,2744.399999976158,536318.1000000238,8019,VNB,C,9
8,test,2,0.0,2-Back,0,m,Tue Apr 22 2025 18:12:22 GMT-0500 (Central Daylight Time),540895.2000000179,019_m_f_h_a.png,I,z,789,12,2,1809.7000000178814,539085.5,8019,VNB,C,10
8,test,2,1.0,2-Back,0,z,Tue Apr 22 2025 18:12:22 GMT-0500 (Central Daylight Time),543461.0,015_o_m_n_a.png,I,m,1525,13,2,2541.699999988079,540919.3000000119,8019,VNB,C,11
9,test,2,0.0,2-Back,1,m,Tue Apr 22 2025 18:12:22 GMT-0500 (Central Daylight Time),546126.900000006,012_o_f_d_a.png,I,m,1632,14,2,2642.7999999821186,543484.1000000238,8019,VNB,C,12
9,test,2,0.0,2-Back,0,m,Tue Apr 22 2025 18:12:22 GMT-0500 (Central Daylight Time),548526.1000000238,022_y_f_h_a.png,I,z,1350,15,2,2375.5,546150.6000000238,8019,VNB,C,13
10,test,2,0.0,2-Back,1,z,Tue Apr 22 2025 18:12:22 GMT-0500 (Central Daylight Time),551275.3000000119,014_m_m_d_a.png,I,z,1702,16,2,2727.199999988079,548548.1000000238,8019,VNB,C,14
10,test,2,0.0,2-Back,0,m,Tue Apr 22 2025 18:12:22 GMT-0500 (Central Daylight Time),553990.8000000119,025_y_m_n_a.png,I,z,1681,17,2,2695.199999988079,551295.6000000238,8019,VNB,C,15
10,test,2,1.0,2-Back,0,m,Tue Apr 22 2025 18:12:22 GMT-0500 (Central Daylight Time),557056.7000000179,019_m_f_n_a.png,I,None,2016,18,2,3021.0999999940395,554035.6000000238,8019,VNB,C,16
0,test,3,1.0,2-Back,,,Tue Apr 22 2025 18:12:22 GMT-0500 (Central Daylight Time),557056.7000000179,015_o_m_n_a.png,I,space,1253,1,2,3021.0999999940395,554035.6000000238,8019,VNB,C,0
0,test,3,1.0,2-Back,,,Tue Apr 22 2025 18:12:22 GMT-0500 (Central Daylight Time),557056.7000000179,012_o_f_d_a.png,I,space,1253,2,2,3021.0999999940395,554035.6000000238,8019,VNB,C,0
1,test,3,0.0,2-Back,1,m,Tue Apr 22 2025 18:12:22 GMT-0500 (Central Daylight Time),565537.3000000119,022_y_f_h_a.png,I,m,1146,3,2,2152.5999999940395,563384.7000000179,8019,VNB,C,1
2,test,3,0.0,2-Back,1,z,Tue Apr 22 2025 18:12:22 GMT-0500 (Central Daylight Time),567586.8000000119,019_m_f_d_a.png,I,z,1028,4,2,2033.9000000059605,565552.900000006,8019,VNB,C,2
3,test,3,1.0,2-Back,1,m,Tue Apr 22 2025 18:12:22 GMT-0500 (Central Daylight Time),569619.0,025_y_m_n_a.png,I,m,986,5,2,2015.3999999761581,567603.6000000238,8019,VNB,C,3
3,test,3,0.0,2-Back,0,m,Tue Apr 22 2025 18:12:22 GMT-0500 (Central Daylight Time),571452.5,015_o_m_h_a.png,I,z,810,6,2,1818.5,569634.0,8019,VNB,C,4
4,test,3,0.0,2-Back,1,z,Tue Apr 22 2025 18:12:22 GMT-0500 (Central Daylight Time),573568.0,022_y_f_n_a.png,I,z,1080,7,2,2098.699999988079,571469.3000000119,8019,VNB,C,5
5,test,3,1.0,2-Back,1,m,Tue Apr 22 2025 18:12:22 GMT-0500 (Central Daylight Time),576084.0,014_m_m_d_a.png,I,m,1476,8,2,2497.7999999821186,573586.2000000179,8019,VNB,C,6
6,test,3,0.0,2-Back,1,m,Tue Apr 22 2025 18:12:22 GMT-0500 (Central Daylight Time),578083.400000006,025_y_m_d_a.png,I,m,952,9,2,1982.4000000059605,576101.0,8019,VNB,C,7
7,test,3,0.0,2-Back,1,m,Tue Apr 22 2025 18:12:22 GMT-0500 (Central Daylight Time),580116.0,012_o_f_h_a.png,I,m,993,10,2,2014.2999999821186,578101.7000000179,8019,VNB,C,8
8,test,3,1.0,2-Back,1,m,Tue Apr 22 2025 18:12:22 GMT-0500 (Central Daylight Time),582598.7000000179,019_m_f_n_a.png,I,m,1440,11,2,2466.4000000059605,580132.3000000119,8019,VNB,C,9
9,test,3,1.0,2-Back,1,z,Tue Apr 22 2025 18:12:22 GMT-0500 (Central Daylight Time),584798.0,014_m_m_h_a.png,I,z,1158,12,2,2182.399999976158,582615.6000000238,8019,VNB,C,10
10,test,3,0.0,2-Back,1,m,Tue Apr 22 2025 18:12:22 GMT-0500 (Central Daylight Time),586964.1000000238,022_y_f_d_a.png,I,m,1127,13,2,2148.5,584815.6000000238,8019,VNB,C,11
10,test,3,0.0,2-Back,0,m,Tue Apr 22 2025 18:12:22 GMT-0500 (Central Daylight Time),588846.5,012_o_f_n_a.png,I,z,848,14,2,1867.0999999940395,586979.400000006,8019,VNB,C,12
10,test,3,0.0,2-Back,0,z,Tue Apr 22 2025 18:12:22 GMT-0500 (Central Daylight Time),591445.900000006,015_o_m_d_a.png,I,m,1575,15,2,2584.5999999940395,588861.3000000119,8019,VNB,C,13
11,test,3,1.0,2-Back,1,m,Tue Apr 22 2025 18:12:22 GMT-0500 (Central Daylight Time),593694.900000006,019_m_f_h_a.png,I,m,1215,16,2,2232.2999999821186,591462.6000000238,8019,VNB,C,14
12,test,3,0.0,2-Back,1,m,Tue Apr 22 2025 18:12:22 GMT-0500 (Central Daylight Time),596661.0,014_m_m_n_a.png,I,m,1917,17,2,2949.699999988079,593711.3000000119,8019,VNB,C,15
13,test,3,0.0,2-Back,1,z,Tue Apr 22 2025 18:12:22 GMT-0500 (Central Daylight Time),599110.6000000238,025_y_m_h_a.png,I,z,1416,18,2,2433.0,596677.6000000238,8019,VNB,C,16
0,test,4,0.0,2-Back,,,Tue Apr 22 2025 18:12:22 GMT-0500 (Central Daylight Time),599110.6000000238,019_m_f_n_a.png,I,space,1039,1,2,2433.0,596677.6000000238,8019,VNB,C,0
0,test,4,0.0,2-Back,,,Tue Apr 22 2025 18:12:22 GMT-0500 (Central Daylight Time),599110.6000000238,015_o_m_n_a.png,I,space,1039,2,2,2433.0,596677.6000000238,8019,VNB,C,0
1,test,4,1.0,2-Back,1,m,Tue Apr 22 2025 18:12:22 GMT-0500 (Central Daylight Time),607374.3000000119,025_y_m_h_a.png,I,m,883,3,2,1915.4000000059605,605458.900000006,8019,VNB,C,1
2,test,4,1.0,2-Back,1,m,Tue Apr 22 2025 18:12:22 GMT-0500 (Central Daylight Time),609340.2000000179,012_o_f_d_a.png,I,m,919,4,2,1948.800000011921,607391.400000006,8019,VNB,C,2
3,test,4,0.0,2-Back,1,z,Tue Apr 22 2025 18:12:22 GMT-0500 (Central Daylight Time),611023.2000000179,015_o_m_h_a.png,I,z,640,5,2,1664.300000011921,609358.900000006,8019,VNB,C,3
4,test,4,0.0,2-Back,1,m,Tue Apr 22 2025 18:12:22 GMT-0500 (Central Daylight Time),613172.5,014_m_m_n_a.png,I,m,1109,6,2,2131.2999999821186,611041.2000000179,8019,VNB,C,4
4,test,4,0.0,2-Back,0,m,Tue Apr 22 2025 18:12:22 GMT-0500 (Central Daylight Time),615021.8000000119,019_m_f_d_a.png,I,z,808,7,2,1830.4000000059605,613191.400000006,8019,VNB,C,5
4,test,4,0.0,2-Back,0,z,Tue Apr 22 2025 18:12:22 GMT-0500 (Central Daylight Time),617621.0,022_y_f_n_a.png,I,m,1551,8,2,2583.5999999940395,615037.400000006,8019,VNB,C,6
5,test,4,1.0,2-Back,1,m,Tue Apr 22 2025 18:12:22 GMT-0500 (Central Daylight Time),619653.6000000238,012_o_f_h_a.png,I,m,984,9,2,2016.4000000059605,617637.2000000179,8019,VNB,C,7
6,test,4,0.0,2-Back,1,m,Tue Apr 22 2025 18:12:22 GMT-0500 (Central Daylight Time),622602.900000006,014_m_m_h_a.png,I,m,1926,10,2,2933.0999999940395,619669.8000000119,8019,VNB,C,8
7,test,4,0.0,2-Back,1,m,Tue Apr 22 2025 18:12:22 GMT-0500 (Central Daylight Time),624452.1000000238,022_y_f_d_a.png,I,m,810,11,2,1833.5,622618.6000000238,8019,VNB,C,9
8,test,4,0.0,2-Back,1,m,Tue Apr 22 2025 18:12:22 GMT-0500 (Central Daylight Time),626868.1000000238,025_y_m_n_a.png,I,m,1368,12,2,2399.800000011921,624468.3000000119,8019,VNB,C,10
8,test,4,0.0,2-Back,0,z,Tue Apr 22 2025 18:12:22 GMT-0500 (Central Daylight Time),628734.2000000179,015_o_m_d_a.png,I,m,832,13,2,1847.4000000059605,626886.8000000119,8019,VNB,C,11
9,test,4,1.0,2-Back,1,m,Tue Apr 22 2025 18:12:22 GMT-0500 (Central Daylight Time),631000.2000000179,019_m_f_h_a.png,I,m,1231,14,2,2241.0999999940395,628759.1000000238,8019,VNB,C,12
10,test,4,1.0,2-Back,1,m,Tue Apr 22 2025 18:12:22 GMT-0500 (Central Daylight Time),633432.8000000119,022_y_f_h_a.png,I,m,1388,15,2,2413.5999999940395,631019.2000000179,8019,VNB,C,13
11,test,4,0.0,2-Back,1,m,Tue Apr 22 2025 18:12:22 GMT-0500 (Central Daylight Time),635698.7000000179,012_o_f_n_a.png,I,m,1220,16,2,2245.0999999940395,633453.6000000238,8019,VNB,C,14
12,test,4,0.0,2-Back,1,m,Tue Apr 22 2025 18:12:22 GMT-0500 (Central Daylight Time),637481.6000000238,025_y_m_d_a.png,I,m,738,17,2,1767.1000000238419,635714.5,8019,VNB,C,15
13,test,4,1.0,2-Back,1,m,Tue Apr 22 2025 18:12:22 GMT-0500 (Central Daylight Time),640480.5,014_m_m_d_a.png,I,m,1963,18,2,2978.2999999821186,637502.2000000179,8019,VNB,C,16
0,test,5,1.0,2-Back,,,Tue Apr 22 2025 18:12:22 GMT-0500 (Central Daylight Time),640480.5,022_y_f_d_a.png,I,space,1053,1,2,2978.2999999821186,637502.2000000179,8019,VNB,C,0
0,test,5,1.0,2-Back,,,Tue Apr 22 2025 18:12:22 GMT-0500 (Central Daylight Time),640480.5,012_o_f_h_a.png,I,space,1053,2,2,2978.2999999821186,637502.2000000179,8019,VNB,C,0
1,test,5,1.0,2-Back,1,z,Tue Apr 22 2025 18:12:22 GMT-0500 (Central Daylight Time),648478.0,015_o_m_d_a.png,I,z,608,3,2,1630.7999999821186,646847.2000000179,8019,VNB,C,1
2,test,5,1.0,2-Back,1,m,Tue Apr 22 2025 18:12:22 GMT-0500 (Central Daylight Time),650377.6000000238,019_m_f_n_a.png,I,m,879,4,2,1884.4000000059605,648493.2000000179,8019,VNB,C,2
3,test,5,0.0,2-Back,1,m,Tue Apr 22 2025 18:12:22 GMT-0500 (Central Daylight Time),652427.0,014_m_m_h_a.png,I,m,1003,5,2,2032.8999999761581,650394.1000000238,8019,VNB,C,3
4,test,5,0.0,2-Back,1,z,Tue Apr 22 2025 18:12:22 GMT-0500 (Central Daylight Time),655159.2000000179,022_y_f_n_a.png,I,z,1689,6,2,2716.0999999940395,652443.1000000238,8019,VNB,C,4
5,test,5,0.0,2-Back,1,m,Tue Apr 22 2025 18:12:22 GMT-0500 (Central Daylight Time),657875.3000000119,012_o_f_d_a.png,I,m,1677,7,2,2698.800000011921,655176.5,8019,VNB,C,5
5,test,5,0.0,2-Back,0,m,Tue Apr 22 2025 18:12:22 GMT-0500 (Central Daylight Time),660041.2000000179,015_o_m_h_a.png,I,z,1130,8,2,2149.300000011921,657891.900000006,8019,VNB,C,6
5,test,5,1.0,2-Back,0,z,Tue Apr 22 2025 18:12:22 GMT-0500 (Central Daylight Time),662273.8000000119,019_m_f_d_a.png,I,m,1196,9,2,2215.0,660058.8000000119,8019,VNB,C,7
6,test,5,0.0,2-Back,1,m,Tue Apr 22 2025 18:12:22 GMT-0500 (Central Daylight Time),665289.400000006,025_y_m_n_a.png,I,m,1971,10,2,2998.0,662291.400000006,8019,VNB,C,8
7,test,5,0.0,2-Back,1,m,Tue Apr 22 2025 18:12:22 GMT-0500 (Central Daylight Time),667905.2000000179,014_m_m_n_a.png,I,m,1571,11,2,2599.0999999940395,665306.1000000238,8019,VNB,C,9
8,test,5,0.0,2-Back,1,m,Tue Apr 22 2025 18:12:22 GMT-0500 (Central Daylight Time),670537.8000000119,022_y_f_h_a.png,I,m,1587,12,2,2613.5999999940395,667924.2000000179,8019,VNB,C,10
9,test,5,0.0,2-Back,1,m,Tue Apr 22 2025 18:12:22 GMT-0500 (Central Daylight Time),673070.400000006,025_y_m_d_a.png,I,m,1483,13,2,2515.5999999940395,670554.8000000119,8019,VNB,C,11
10,test,5,1.0,2-Back,1,z,Tue Apr 22 2025 18:12:22 GMT-0500 (Central Daylight Time),674953.2000000179,019_m_f_h_a.png,I,z,846,14,2,1863.5999999940395,673089.6000000238,8019,VNB,C,12
10,test,5,0.0,2-Back,0,m,Tue Apr 22 2025 18:12:22 GMT-0500 (Central Daylight Time),678003.400000006,015_o_m_n_a.png,I,None,2017,15,2,3032.7999999821186,674970.6000000238,8019,VNB,C,13
11,test,5,0.0,2-Back,1,m,Tue Apr 22 2025 18:12:22 GMT-0500 (Central Daylight Time),679701.7000000179,014_m_m_d_a.png,I,m,650,16,2,1679.0,678022.7000000179,8019,VNB,C,14
12,test,5,0.0,2-Back,1,z,Tue Apr 22 2025 18:12:22 GMT-0500 (Central Daylight Time),682017.6000000238,012_o_f_n_a.png,I,z,1279,17,2,2295.7000000178814,679721.900000006,8019,VNB,C,15
13,test,5,1.0,2-Back,1,m,Tue Apr 22 2025 18:12:22 GMT-0500 (Central Daylight Time),684749.900000006,025_y_m_h_a.png,I,m,1691,18,2,2713.4000000059605,682036.5,8019,VNB,C,16
