acc_sum,block,block_c,change,condition,correct,correct_response,datetime,endtime,face,project,response,response_time,row_sel,session_number,start_end,starttime,subject_id,task,task_vers,trial
0,prac,1,,1-Back,,,Mon Jan 27 2025 18:20:39 GMT-0600 (Central Standard Time),,124_o_f_d_a.png,I,space,5497,1,1,,,8019,VNB,A,0
1,prac,1,0.0,1-Back,1,m,Mon Jan 27 2025 18:20:39 GMT-0600 (Central Standard Time),112055.40000009537,071_y_f_n_a.png,I,m,1552,2,1,2359.300000190735,109696.09999990463,8019,VNB,A,1
2,prac,1,0.0,1-Back,1,m,Mon Jan 27 2025 18:20:39 GMT-0600 (Central Standard Time),114388.2000002861,165_m_m_h_a.png,I,m,1531,3,1,2321.6000003814697,112066.59999990463,8019,VNB,A,2
3,prac,1,0.0,1-Back,1,m,Mon Jan 27 2025 18:20:39 GMT-0600 (Central Standard Time),116271.30000019073,109_y_m_d_a.png,I,m,1071,4,1,1871.0999999046326,114400.2000002861,8019,VNB,A,3
4,prac,1,0.0,1-Back,1,m,Mon Jan 27 2025 18:20:39 GMT-0600 (Central Standard Time),118086.80000019073,124_o_f_n_a.png,I,m,977,5,1,1803.8000001907349,116283.0,8019,VNB,A,4
5,prac,1,1.0,1-Back,1,z,Mon Jan 27 2025 18:20:39 GMT-0600 (Central Standard Time),119970.40000009537,109_y_m_n_a.png,I,z,1079,6,1,1872.9000000953674,118097.5,8019,VNB,A,5
6,prac,1,0.0,1-Back,1,m,Mon Jan 27 2025 18:20:39 GMT-0600 (Central Standard Time),122119.40000009537,039_o_m_h_a.png,I,m,1341,7,1,2137.199999809265,119982.2000002861,8019,VNB,A,6
7,prac,1,0.0,1-Back,1,m,Mon Jan 27 2025 18:20:39 GMT-0600 (Central Standard Time),124484.40000009537,139_m_f_d_a.png,I,m,1549,8,1,2350.5999999046326,122133.80000019073,8019,VNB,A,7
8,prac,1,1.0,1-Back,1,z,Mon Jan 27 2025 18:20:39 GMT-0600 (Central Standard Time),126633.90000009537,071_y_f_d_a.png,I,z,1348,9,1,2136.9000000953674,124497.0,8019,VNB,A,8
9,prac,1,0.0,1-Back,1,m,Mon Jan 27 2025 18:20:39 GMT-0600 (Central Standard Time),128383.0,165_m_m_n_a.png,I,m,942,10,1,1737.7999997138977,126645.2000002861,8019,VNB,A,9
10,prac,1,0.0,1-Back,1,m,Mon Jan 27 2025 18:20:39 GMT-0600 (Central Standard Time),130199.59999990463,124_o_f_h_a.png,I,m,986,11,1,1806.0999999046326,128393.5,8019,VNB,A,10
11,prac,1,0.0,1-Back,1,m,Mon Jan 27 2025 18:20:39 GMT-0600 (Central Standard Time),132382.2000002861,109_y_m_d_a.png,I,m,1398,12,1,2171.300000190735,130210.90000009537,8019,VNB,A,11
0,test,1,0.0,1-Back,,,Mon Jan 27 2025 18:20:39 GMT-0600 (Central Standard Time),132382.2000002861,071_y_f_d_a.png,I,space,6292,1,1,2171.300000190735,130210.90000009537,8019,VNB,A,0
1,test,1,0.0,1-Back,1,m,Mon Jan 27 2025 18:20:39 GMT-0600 (Central Standard Time),145363.09999990463,139_m_f_n_a.png,I,m,850,2,1,1873.0,143490.09999990463,8019,VNB,A,1
2,test,1,0.0,1-Back,1,m,Mon Jan 27 2025 18:20:39 GMT-0600 (Central Standard Time),147127.30000019073,039_o_m_h_a.png,I,m,742,3,1,1754.4000000953674,145372.90000009537,8019,VNB,A,2
2,test,1,1.0,1-Back,0,z,Mon Jan 27 2025 18:20:39 GMT-0600 (Central Standard Time),148794.5,165_m_m_h_a.png,I,m,649,4,1,1657.6999998092651,147136.80000019073,8019,VNB,A,3
3,test,1,0.0,1-Back,1,m,Mon Jan 27 2025 18:20:39 GMT-0600 (Central Standard Time),150843.59999990463,124_o_f_n_a.png,I,m,1020,5,1,2039.5999999046326,148804.0,8019,VNB,A,4
4,test,1,0.0,1-Back,1,m,Mon Jan 27 2025 18:20:39 GMT-0600 (Central Standard Time),153558.30000019073,109_y_m_d_a.png,I,m,1691,6,1,2703.5999999046326,150854.7000002861,8019,VNB,A,5
5,test,1,1.0,1-Back,1,z,Mon Jan 27 2025 18:20:39 GMT-0600 (Central Standard Time),155458.59999990463,139_m_f_d_a.png,I,z,874,7,1,1889.0,153569.59999990463,8019,VNB,A,6
6,test,1,0.0,1-Back,1,m,Mon Jan 27 2025 18:20:39 GMT-0600 (Central Standard Time),157624.0,071_y_f_h_a.png,I,m,1131,8,1,2156.4000000953674,155467.59999990463,8019,VNB,A,7
7,test,1,0.0,1-Back,1,m,Mon Jan 27 2025 18:20:39 GMT-0600 (Central Standard Time),159523.80000019073,039_o_m_n_a.png,I,m,869,9,1,1888.8000001907349,157635.0,8019,VNB,A,8
8,test,1,0.0,1-Back,1,m,Mon Jan 27 2025 18:20:39 GMT-0600 (Central Standard Time),162156.0,109_y_m_h_a.png,I,m,1613,10,1,2622.0999999046326,159533.90000009537,8019,VNB,A,9
9,test,1,0.0,1-Back,1,m,Mon Jan 27 2025 18:20:39 GMT-0600 (Central Standard Time),163923.2000002861,039_o_m_d_a.png,I,m,740,11,1,1755.3000001907349,162167.90000009537,8019,VNB,A,10
10,test,1,1.0,1-Back,1,z,Mon Jan 27 2025 18:20:39 GMT-0600 (Central Standard Time),165955.30000019073,124_o_f_d_a.png,I,z,1004,12,1,2021.2000002861023,163934.09999990463,8019,VNB,A,11
11,test,1,0.0,1-Back,1,m,Mon Jan 27 2025 18:20:39 GMT-0600 (Central Standard Time),167820.30000019073,165_m_m_n_a.png,I,m,843,13,1,1853.3000001907349,165967.0,8019,VNB,A,12
11,test,1,1.0,1-Back,0,z,Mon Jan 27 2025 18:20:39 GMT-0600 (Central Standard Time),169504.30000019073,071_y_f_n_a.png,I,m,658,14,1,1676.5999999046326,167827.7000002861,8019,VNB,A,13
12,test,1,0.0,1-Back,1,m,Mon Jan 27 2025 18:20:39 GMT-0600 (Central Standard Time),171936.90000009537,139_m_f_h_a.png,I,m,1399,15,1,2423.300000190735,169513.59999990463,8019,VNB,A,14
13,test,1,0.0,1-Back,1,m,Mon Jan 27 2025 18:20:39 GMT-0600 (Central Standard Time),174354.7000002861,165_m_m_d_a.png,I,m,1399,16,1,2407.7000002861023,171947.0,8019,VNB,A,15
14,test,1,0.0,1-Back,1,m,Mon Jan 27 2025 18:20:39 GMT-0600 (Central Standard Time),176368.7000002861,109_y_m_n_a.png,I,m,967,17,1,1999.2000002861023,174369.5,8019,VNB,A,16
15,test,1,0.0,1-Back,1,m,Mon Jan 27 2025 18:20:39 GMT-0600 (Central Standard Time),178418.2000002861,124_o_f_h_a.png,I,m,1015,18,1,2039.9000000953674,176378.30000019073,8019,VNB,A,17
0,test,2,0.0,1-Back,,,Mon Jan 27 2025 18:20:39 GMT-0600 (Central Standard Time),178418.2000002861,109_y_m_n_a.png,I,space,1239,1,1,2039.9000000953674,176378.30000019073,8019,VNB,A,0
1,test,2,0.0,1-Back,1,m,Mon Jan 27 2025 18:20:39 GMT-0600 (Central Standard Time),184599.7000002861,071_y_f_h_a.png,I,m,1884,2,1,2905.800000190735,181693.90000009537,8019,VNB,A,1
2,test,2,1.0,1-Back,1,m,Mon Jan 27 2025 18:20:39 GMT-0600 (Central Standard Time),187396.30000019073,039_o_m_n_a.png,I,m,1766,3,1,2784.800000190735,184611.5,8019,VNB,A,2
3,test,2,0.0,1-Back,1,m,Mon Jan 27 2025 18:20:39 GMT-0600 (Central Standard Time),189365.0,139_m_f_d_a.png,I,m,945,4,1,1962.0,187403.0,8019,VNB,A,3
4,test,2,0.0,1-Back,1,z,Mon Jan 27 2025 18:20:39 GMT-0600 (Central Standard Time),191045.90000009537,165_m_m_d_a.png,I,z,651,5,1,1670.5999999046326,189375.30000019073,8019,VNB,A,4
5,test,2,0.0,1-Back,1,m,Mon Jan 27 2025 18:20:39 GMT-0600 (Central Standard Time),193148.40000009537,109_y_m_h_a.png,I,m,1082,6,1,2095.4000000953674,191053.0,8019,VNB,A,5
6,test,2,1.0,1-Back,1,z,Mon Jan 27 2025 18:20:39 GMT-0600 (Central Standard Time),194678.7000002861,124_o_f_h_a.png,I,z,508,7,1,1520.1000003814697,193158.59999990463,8019,VNB,A,6
7,test,2,0.0,1-Back,1,m,Mon Jan 27 2025 18:20:39 GMT-0600 (Central Standard Time),196762.09999990463,139_m_f_n_a.png,I,m,1055,8,1,2072.5999999046326,194689.5,8019,VNB,A,7
8,test,2,0.0,1-Back,1,m,Mon Jan 27 2025 18:20:39 GMT-0600 (Central Standard Time),199011.59999990463,071_y_f_d_a.png,I,m,1221,9,1,2238.699999809265,196772.90000009537,8019,VNB,A,8
9,test,2,0.0,1-Back,1,m,Mon Jan 27 2025 18:20:39 GMT-0600 (Central Standard Time),201378.5,165_m_m_n_a.png,I,m,1348,10,1,2357.0999999046326,199021.40000009537,8019,VNB,A,9
10,test,2,1.0,1-Back,1,m,Mon Jan 27 2025 18:20:39 GMT-0600 (Central Standard Time),203692.59999990463,139_m_f_h_a.png,I,m,1295,11,1,2306.2999997138977,201386.30000019073,8019,VNB,A,10
11,test,2,0.0,1-Back,1,z,Mon Jan 27 2025 18:20:39 GMT-0600 (Central Standard Time),205526.5,039_o_m_h_a.png,I,z,815,12,1,1822.6999998092651,203703.80000019073,8019,VNB,A,11
12,test,2,0.0,1-Back,1,m,Mon Jan 27 2025 18:20:39 GMT-0600 (Central Standard Time),207458.59999990463,109_y_m_d_a.png,I,m,904,13,1,1922.0,205536.59999990463,8019,VNB,A,12
13,test,2,0.0,1-Back,1,m,Mon Jan 27 2025 18:20:39 GMT-0600 (Central Standard Time),209308.0,124_o_f_n_a.png,I,m,823,14,1,1838.7999997138977,207469.2000002861,8019,VNB,A,13
14,test,2,0.0,1-Back,1,z,Mon Jan 27 2025 18:20:39 GMT-0600 (Central Standard Time),211241.30000019073,071_y_f_n_a.png,I,z,898,15,1,1922.7000002861023,209318.59999990463,8019,VNB,A,14
15,test,2,1.0,1-Back,1,m,Mon Jan 27 2025 18:20:39 GMT-0600 (Central Standard Time),213207.09999990463,165_m_m_h_a.png,I,m,943,16,1,1955.0999999046326,211252.0,8019,VNB,A,15
16,test,2,0.0,1-Back,1,m,Mon Jan 27 2025 18:20:39 GMT-0600 (Central Standard Time),215107.09999990463,124_o_f_d_a.png,I,m,867,17,1,1887.7999997138977,213219.30000019073,8019,VNB,A,16
17,test,2,1.0,1-Back,1,z,Mon Jan 27 2025 18:20:39 GMT-0600 (Central Standard Time),217022.7000002861,039_o_m_d_a.png,I,z,885,18,1,1903.1000003814697,215119.59999990463,8019,VNB,A,17
0,test,3,1.0,1-Back,,,Mon Jan 27 2025 18:20:39 GMT-0600 (Central Standard Time),217022.7000002861,124_o_f_h_a.png,I,space,1122,1,1,1903.1000003814697,215119.59999990463,8019,VNB,A,0
1,test,3,0.0,1-Back,1,m,Mon Jan 27 2025 18:20:39 GMT-0600 (Central Standard Time),222170.5,139_m_f_d_a.png,I,m,948,2,1,1956.7999997138977,220213.7000002861,8019,VNB,A,1
2,test,3,1.0,1-Back,1,m,Mon Jan 27 2025 18:20:39 GMT-0600 (Central Standard Time),224420.30000019073,165_m_m_n_a.png,I,m,1221,3,1,2241.7000002861023,222178.59999990463,8019,VNB,A,2
3,test,3,0.0,1-Back,1,z,Mon Jan 27 2025 18:20:39 GMT-0600 (Central Standard Time),226518.59999990463,124_o_f_n_a.png,I,z,1077,4,1,2087.5,224431.09999990463,8019,VNB,A,3
4,test,3,1.0,1-Back,1,m,Mon Jan 27 2025 18:20:39 GMT-0600 (Central Standard Time),228218.59999990463,039_o_m_d_a.png,I,m,665,5,1,1689.1999998092651,226529.40000009537,8019,VNB,A,4
5,test,3,0.0,1-Back,1,m,Mon Jan 27 2025 18:20:39 GMT-0600 (Central Standard Time),230134.2000002861,071_y_f_h_a.png,I,m,895,6,1,1904.2000002861023,228230.0,8019,VNB,A,5
6,test,3,0.0,1-Back,1,z,Mon Jan 27 2025 18:20:39 GMT-0600 (Central Standard Time),232135.2000002861,109_y_m_h_a.png,I,z,969,7,1,1990.0,230145.2000002861,8019,VNB,A,6
7,test,3,0.0,1-Back,1,m,Mon Jan 27 2025 18:20:39 GMT-0600 (Central Standard Time),233816.80000019073,139_m_f_n_a.png,I,m,650,8,1,1671.9000000953674,232144.90000009537,8019,VNB,A,7
8,test,3,0.0,1-Back,1,m,Mon Jan 27 2025 18:20:39 GMT-0600 (Central Standard Time),235683.90000009537,071_y_f_d_a.png,I,m,848,9,1,1857.1999998092651,233826.7000002861,8019,VNB,A,8
9,test,3,1.0,1-Back,1,m,Mon Jan 27 2025 18:20:39 GMT-0600 (Central Standard Time),237665.5,039_o_m_n_a.png,I,m,957,10,1,1971.7999997138977,235693.7000002861,8019,VNB,A,9
10,test,3,0.0,1-Back,1,m,Mon Jan 27 2025 18:20:39 GMT-0600 (Central Standard Time),239864.0,165_m_m_h_a.png,I,m,1172,11,1,2187.2999997138977,237676.7000002861,8019,VNB,A,10
11,test,3,0.0,1-Back,1,z,Mon Jan 27 2025 18:20:39 GMT-0600 (Central Standard Time),241698.7000002861,139_m_f_h_a.png,I,z,813,12,1,1829.0,239869.7000002861,8019,VNB,A,11
12,test,3,1.0,1-Back,1,m,Mon Jan 27 2025 18:20:39 GMT-0600 (Central Standard Time),243729.5,124_o_f_d_a.png,I,m,1006,13,1,2021.4000000953674,241708.09999990463,8019,VNB,A,12
13,test,3,0.0,1-Back,1,z,Mon Jan 27 2025 18:20:39 GMT-0600 (Central Standard Time),245746.09999990463,165_m_m_d_a.png,I,z,993,14,1,2006.0,243740.09999990463,8019,VNB,A,13
14,test,3,0.0,1-Back,1,m,Mon Jan 27 2025 18:20:39 GMT-0600 (Central Standard Time),247511.09999990463,109_y_m_n_a.png,I,m,738,15,1,1753.7999997138977,245757.30000019073,8019,VNB,A,14
15,test,3,1.0,1-Back,1,m,Mon Jan 27 2025 18:20:39 GMT-0600 (Central Standard Time),249478.59999990463,039_o_m_h_a.png,I,m,943,16,1,1960.5,247518.09999990463,8019,VNB,A,15
16,test,3,0.0,1-Back,1,m,Mon Jan 27 2025 18:20:39 GMT-0600 (Central Standard Time),251261.2000002861,109_y_m_d_a.png,I,m,762,17,1,1772.7000002861023,249488.5,8019,VNB,A,16
17,test,3,1.0,1-Back,1,m,Mon Jan 27 2025 18:20:39 GMT-0600 (Central Standard Time),254109.90000009537,071_y_f_n_a.png,I,m,1826,18,1,2837.5,251272.40000009537,8019,VNB,A,17
0,test,4,1.0,1-Back,,,Mon Jan 27 2025 18:20:39 GMT-0600 (Central Standard Time),254109.90000009537,165_m_m_d_a.png,I,space,998,1,1,2837.5,251272.40000009537,8019,VNB,A,0
1,test,4,0.0,1-Back,1,z,Mon Jan 27 2025 18:20:39 GMT-0600 (Central Standard Time),259208.90000009537,039_o_m_d_a.png,I,z,1056,2,1,2070.199999809265,257138.7000002861,8019,VNB,A,1
2,test,4,0.0,1-Back,1,m,Mon Jan 27 2025 18:20:39 GMT-0600 (Central Standard Time),261291.30000019073,109_y_m_h_a.png,I,m,1054,3,1,2071.7000002861023,259219.59999990463,8019,VNB,A,2
3,test,4,0.0,1-Back,1,m,Mon Jan 27 2025 18:20:39 GMT-0600 (Central Standard Time),263290.2000002861,139_m_f_n_a.png,I,m,973,4,1,1988.4000000953674,261301.80000019073,8019,VNB,A,3
4,test,4,1.0,1-Back,1,m,Mon Jan 27 2025 18:20:39 GMT-0600 (Central Standard Time),265406.40000009537,124_o_f_h_a.png,I,m,1095,5,1,2105.0999999046326,263301.30000019073,8019,VNB,A,4
5,test,4,0.0,1-Back,1,m,Mon Jan 27 2025 18:20:39 GMT-0600 (Central Standard Time),267172.90000009537,165_m_m_n_a.png,I,m,737,6,1,1757.8000001907349,265415.09999990463,8019,VNB,A,5
6,test,4,0.0,1-Back,1,m,Mon Jan 27 2025 18:20:39 GMT-0600 (Central Standard Time),269123.5,109_y_m_d_a.png,I,m,932,7,1,1938.9000000953674,267184.59999990463,8019,VNB,A,6
6,test,4,1.0,1-Back,0,z,Mon Jan 27 2025 18:20:39 GMT-0600 (Central Standard Time),271721.59999990463,071_y_f_d_a.png,I,m,1573,8,1,2586.199999809265,269135.40000009537,8019,VNB,A,7
7,test,4,0.0,1-Back,1,m,Mon Jan 27 2025 18:20:39 GMT-0600 (Central Standard Time),273787.80000019073,139_m_f_h_a.png,I,m,1048,9,1,2057.2000002861023,271730.59999990463,8019,VNB,A,8
8,test,4,0.0,1-Back,1,z,Mon Jan 27 2025 18:20:39 GMT-0600 (Central Standard Time),275320.30000019073,039_o_m_h_a.png,I,z,501,10,1,1520.5999999046326,273799.7000002861,8019,VNB,A,9
9,test,4,1.0,1-Back,1,m,Mon Jan 27 2025 18:20:39 GMT-0600 (Central Standard Time),277203.30000019073,124_o_f_n_a.png,I,m,863,11,1,1870.0,275333.30000019073,8019,VNB,A,10
10,test,4,0.0,1-Back,1,m,Mon Jan 27 2025 18:20:39 GMT-0600 (Central Standard Time),279103.90000009537,139_m_f_d_a.png,I,m,878,12,1,1890.1999998092651,277213.7000002861,8019,VNB,A,11
11,test,4,0.0,1-Back,1,m,Mon Jan 27 2025 18:20:39 GMT-0600 (Central Standard Time),282051.40000009537,071_y_f_n_a.png,I,m,1922,13,1,2936.800000190735,279114.59999990463,8019,VNB,A,12
12,test,4,0.0,1-Back,1,m,Mon Jan 27 2025 18:20:39 GMT-0600 (Central Standard Time),284433.90000009537,124_o_f_d_a.png,I,m,1354,14,1,2374.0,282059.90000009537,8019,VNB,A,13
13,test,4,0.0,1-Back,1,m,Mon Jan 27 2025 18:20:39 GMT-0600 (Central Standard Time),286200.30000019073,071_y_f_h_a.png,I,m,741,15,1,1755.7000002861023,284444.59999990463,8019,VNB,A,14
14,test,4,1.0,1-Back,1,z,Mon Jan 27 2025 18:20:39 GMT-0600 (Central Standard Time),287967.09999990463,165_m_m_h_a.png,I,z,735,16,1,1756.8999996185303,286210.2000002861,8019,VNB,A,15
15,test,4,0.0,1-Back,1,m,Mon Jan 27 2025 18:20:39 GMT-0600 (Central Standard Time),289865.2000002861,039_o_m_n_a.png,I,m,874,17,1,1888.2000002861023,287977.0,8019,VNB,A,16
16,test,4,1.0,1-Back,1,z,Mon Jan 27 2025 18:20:39 GMT-0600 (Central Standard Time),291748.59999990463,109_y_m_n_a.png,I,z,864,18,1,1873.5999999046326,289875.0,8019,VNB,A,17
0,test,5,1.0,1-Back,,,Mon Jan 27 2025 18:20:39 GMT-0600 (Central Standard Time),291748.59999990463,039_o_m_n_a.png,I,space,1234,1,1,1873.5999999046326,289875.0,8019,VNB,A,0
1,test,5,1.0,1-Back,1,m,Mon Jan 27 2025 18:20:39 GMT-0600 (Central Standard Time),296881.80000019073,124_o_f_h_a.png,I,m,848,2,1,1858.2000002861023,295023.59999990463,8019,VNB,A,1
2,test,5,0.0,1-Back,1,m,Mon Jan 27 2025 18:20:39 GMT-0600 (Central Standard Time),299363.40000009537,109_y_m_d_a.png,I,m,1456,3,1,2471.300000190735,296892.09999990463,8019,VNB,A,2
3,test,5,0.0,1-Back,1,z,Mon Jan 27 2025 18:20:39 GMT-0600 (Central Standard Time),301196.80000019073,039_o_m_d_a.png,I,z,805,4,1,1823.9000000953674,299372.90000009537,8019,VNB,A,3
4,test,5,0.0,1-Back,1,m,Mon Jan 27 2025 18:20:39 GMT-0600 (Central Standard Time),303762.0,139_m_f_h_a.png,I,m,1531,5,1,2554.4000000953674,301207.59999990463,8019,VNB,A,4
5,test,5,0.0,1-Back,1,m,Mon Jan 27 2025 18:20:39 GMT-0600 (Central Standard Time),306094.5,071_y_f_n_a.png,I,m,1316,6,1,2320.5999999046326,303773.90000009537,8019,VNB,A,5
6,test,5,1.0,1-Back,1,z,Mon Jan 27 2025 18:20:39 GMT-0600 (Central Standard Time),308509.80000019073,124_o_f_n_a.png,I,z,1386,7,1,2403.300000190735,306106.5,8019,VNB,A,6
7,test,5,0.0,1-Back,1,m,Mon Jan 27 2025 18:20:39 GMT-0600 (Central Standard Time),310592.80000019073,139_m_f_d_a.png,I,m,1050,8,1,2072.2000002861023,308520.59999990463,8019,VNB,A,7
8,test,5,0.0,1-Back,1,m,Mon Jan 27 2025 18:20:39 GMT-0600 (Central Standard Time),312441.5,109_y_m_h_a.png,I,m,831,9,1,1837.7999997138977,310603.7000002861,8019,VNB,A,8
9,test,5,0.0,1-Back,1,m,Mon Jan 27 2025 18:20:39 GMT-0600 (Central Standard Time),314774.30000019073,071_y_f_d_a.png,I,m,1303,10,1,2327.0999999046326,312447.2000002861,8019,VNB,A,9
10,test,5,0.0,1-Back,1,m,Mon Jan 27 2025 18:20:39 GMT-0600 (Central Standard Time),316589.30000019073,165_m_m_n_a.png,I,m,796,11,1,1806.5999999046326,314782.7000002861,8019,VNB,A,10
11,test,5,1.0,1-Back,1,z,Mon Jan 27 2025 18:20:39 GMT-0600 (Central Standard Time),318555.30000019073,139_m_f_n_a.png,I,z,929,12,1,1956.5,316598.80000019073,8019,VNB,A,11
12,test,5,0.0,1-Back,1,m,Mon Jan 27 2025 18:20:39 GMT-0600 (Central Standard Time),320755.5,039_o_m_h_a.png,I,m,1172,13,1,2194.0999999046326,318561.40000009537,8019,VNB,A,12
13,test,5,0.0,1-Back,1,z,Mon Jan 27 2025 18:20:39 GMT-0600 (Central Standard Time),322372.09999990463,165_m_m_h_a.png,I,z,596,14,1,1606.1999998092651,320765.90000009537,8019,VNB,A,13
14,test,5,1.0,1-Back,1,m,Mon Jan 27 2025 18:20:39 GMT-0600 (Central Standard Time),324320.80000019073,124_o_f_d_a.png,I,m,913,15,1,1937.8000001907349,322383.0,8019,VNB,A,14
15,test,5,0.0,1-Back,1,m,Mon Jan 27 2025 18:20:39 GMT-0600 (Central Standard Time),326204.5,109_y_m_n_a.png,I,m,863,16,1,1874.0999999046326,324330.40000009537,8019,VNB,A,15
16,test,5,0.0,1-Back,1,m,Mon Jan 27 2025 18:20:39 GMT-0600 (Central Standard Time),328603.09999990463,071_y_f_h_a.png,I,m,1371,17,1,2388.5999999046326,326214.5,8019,VNB,A,16
17,test,5,0.0,1-Back,1,m,Mon Jan 27 2025 18:20:39 GMT-0600 (Central Standard Time),330554.5,165_m_m_d_a.png,I,m,916,18,1,1940.5,328614.0,8019,VNB,A,17
0,prac,1,0.0,2-Back,,,Mon Jan 27 2025 18:20:39 GMT-0600 (Central Standard Time),330554.5,139_m_f_n_a.png,I,space,5182,1,1,1940.5,328614.0,8019,VNB,A,0
0,prac,1,0.0,2-Back,,,Mon Jan 27 2025 18:20:39 GMT-0600 (Central Standard Time),330554.5,124_o_f_h_a.png,I,space,5182,2,1,1940.5,328614.0,8019,VNB,A,0
1,prac,1,0.0,2-Back,1,m,Mon Jan 27 2025 18:20:39 GMT-0600 (Central Standard Time),423573.80000019073,039_o_m_d_a.png,I,m,1300,3,1,2091.7000002861023,421482.09999990463,8019,VNB,A,1
2,prac,1,1.0,2-Back,1,z,Mon Jan 27 2025 18:20:39 GMT-0600 (Central Standard Time),425256.2000002861,165_m_m_h_a.png,I,z,877,4,1,1672.1000003814697,423584.09999990463,8019,VNB,A,2
3,prac,1,0.0,2-Back,1,m,Mon Jan 27 2025 18:20:39 GMT-0600 (Central Standard Time),427325.0,071_y_f_n_a.png,I,m,1270,5,1,2058.2999997138977,425266.7000002861,8019,VNB,A,3
4,prac,1,1.0,2-Back,1,z,Mon Jan 27 2025 18:20:39 GMT-0600 (Central Standard Time),430105.80000019073,039_o_m_h_a.png,I,z,1972,6,1,2770.300000190735,427335.5,8019,VNB,A,4
5,prac,1,1.0,2-Back,1,z,Mon Jan 27 2025 18:20:39 GMT-0600 (Central Standard Time),432154.2000002861,109_y_m_n_a.png,I,z,1241,7,1,2037.6000003814697,430116.59999990463,8019,VNB,A,5
6,prac,1,0.0,2-Back,1,m,Mon Jan 27 2025 18:20:39 GMT-0600 (Central Standard Time),434219.40000009537,139_m_f_d_a.png,I,m,1263,8,1,2055.199999809265,432164.2000002861,8019,VNB,A,6
6,prac,1,0.0,2-Back,0,m,Mon Jan 27 2025 18:20:39 GMT-0600 (Central Standard Time),436386.59999990463,124_o_f_d_a.png,I,z,1326,9,1,2154.2999997138977,434232.30000019073,8019,VNB,A,7
6,prac,1,0.0,2-Back,0,m,Mon Jan 27 2025 18:20:39 GMT-0600 (Central Standard Time),438651.59999990463,165_m_m_h_a.png,I,z,1473,10,1,2253.0999999046326,436398.5,8019,VNB,A,8
6,prac,1,1.0,2-Back,0,z,Mon Jan 27 2025 18:20:39 GMT-0600 (Central Standard Time),440501.2000002861,071_y_f_d_a.png,I,m,1043,11,1,1837.0,438664.2000002861,8019,VNB,A,9
7,prac,1,0.0,2-Back,1,m,Mon Jan 27 2025 18:20:39 GMT-0600 (Central Standard Time),442817.09999990463,039_o_m_n_a.png,I,m,1517,12,1,2303.3999996185303,440513.7000002861,8019,VNB,A,10
0,test,1,0.0,2-Back,,,Mon Jan 27 2025 18:20:39 GMT-0600 (Central Standard Time),442817.09999990463,109_y_m_h_a.png,I,space,7289,1,1,2303.3999996185303,440513.7000002861,8019,VNB,A,0
0,test,1,0.0,2-Back,,,Mon Jan 27 2025 18:20:39 GMT-0600 (Central Standard Time),442817.09999990463,124_o_f_n_a.png,I,space,7289,2,1,2303.3999996185303,440513.7000002861,8019,VNB,A,0
1,test,1,0.0,2-Back,1,z,Mon Jan 27 2025 18:20:39 GMT-0600 (Central Standard Time),462260.80000019073,039_o_m_h_a.png,I,z,1613,3,1,2621.300000190735,459639.5,8019,VNB,A,1
2,test,1,0.0,2-Back,1,m,Mon Jan 27 2025 18:20:39 GMT-0600 (Central Standard Time),464076.90000009537,139_m_f_d_a.png,I,m,794,4,1,1806.5999999046326,462270.30000019073,8019,VNB,A,2
2,test,1,1.0,2-Back,0,m,Mon Jan 27 2025 18:20:39 GMT-0600 (Central Standard Time),466509.5,109_y_m_n_a.png,I,z,1411,5,1,2421.0,464088.5,8019,VNB,A,3
2,test,1,0.0,2-Back,0,z,Mon Jan 27 2025 18:20:39 GMT-0600 (Central Standard Time),469108.5,071_y_f_d_a.png,I,m,1578,6,1,2589.0,466519.5,8019,VNB,A,4
2,test,1,0.0,2-Back,0,m,Mon Jan 27 2025 18:20:39 GMT-0600 (Central Standard Time),471258.2000002861,165_m_m_h_a.png,I,z,1123,7,1,2141.5,469116.7000002861,8019,VNB,A,5
3,test,1,1.0,2-Back,1,m,Mon Jan 27 2025 18:20:39 GMT-0600 (Central Standard Time),474071.59999990463,071_y_f_n_a.png,I,m,1788,8,1,2803.5999999046326,471268.0,8019,VNB,A,6
3,test,1,0.0,2-Back,0,z,Mon Jan 27 2025 18:20:39 GMT-0600 (Central Standard Time),476273.0,124_o_f_h_a.png,I,m,1173,9,1,2196.199999809265,474076.80000019073,8019,VNB,A,7
4,test,1,0.0,2-Back,1,m,Mon Jan 27 2025 18:20:39 GMT-0600 (Central Standard Time),478421.80000019073,039_o_m_d_a.png,I,m,1119,10,1,2138.800000190735,476283.0,8019,VNB,A,8
4,test,1,1.0,2-Back,0,m,Mon Jan 27 2025 18:20:39 GMT-0600 (Central Standard Time),481438.09999990463,165_m_m_d_a.png,I,z,1993,11,1,3006.199999809265,478431.90000009537,8019,VNB,A,9
5,test,1,0.0,2-Back,1,m,Mon Jan 27 2025 18:20:39 GMT-0600 (Central Standard Time),484005.30000019073,139_m_f_n_a.png,I,m,1549,12,1,2556.5,481448.80000019073,8019,VNB,A,10
6,test,1,0.0,2-Back,1,m,Mon Jan 27 2025 18:20:39 GMT-0600 (Central Standard Time),486186.59999990463,071_y_f_h_a.png,I,m,1156,13,1,2170.0999999046326,484016.5,8019,VNB,A,11
7,test,1,0.0,2-Back,1,z,Mon Jan 27 2025 18:20:39 GMT-0600 (Central Standard Time),488188.30000019073,165_m_m_n_a.png,I,z,983,14,1,1991.8000001907349,486196.5,8019,VNB,A,12
8,test,1,0.0,2-Back,1,m,Mon Jan 27 2025 18:20:39 GMT-0600 (Central Standard Time),490770.2000002861,109_y_m_d_a.png,I,m,1556,15,1,2570.6000003814697,488199.59999990463,8019,VNB,A,13
8,test,1,1.0,2-Back,0,m,Mon Jan 27 2025 18:20:39 GMT-0600 (Central Standard Time),493800.90000009537,139_m_f_h_a.png,I,None,2014,16,1,3020.0999999046326,490780.80000019073,8019,VNB,A,14
9,test,1,0.0,2-Back,1,z,Mon Jan 27 2025 18:20:39 GMT-0600 (Central Standard Time),496217.09999990463,124_o_f_d_a.png,I,z,1390,17,1,2405.699999809265,493811.40000009537,8019,VNB,A,15
9,test,1,0.0,2-Back,0,m,Mon Jan 27 2025 18:20:39 GMT-0600 (Central Standard Time),499199.80000019073,039_o_m_n_a.png,I,z,1950,18,1,2973.2000002861023,496226.59999990463,8019,VNB,A,16
0,test,2,0.0,2-Back,,,Mon Jan 27 2025 18:20:39 GMT-0600 (Central Standard Time),499199.80000019073,165_m_m_h_a.png,I,space,1258,1,1,2973.2000002861023,496226.59999990463,8019,VNB,A,0
0,test,2,0.0,2-Back,,,Mon Jan 27 2025 18:20:39 GMT-0600 (Central Standard Time),499199.80000019073,071_y_f_n_a.png,I,space,1258,2,1,2973.2000002861023,496226.59999990463,8019,VNB,A,0
1,test,2,1.0,2-Back,1,z,Mon Jan 27 2025 18:20:39 GMT-0600 (Central Standard Time),507444.7000002861,124_o_f_h_a.png,I,z,876,3,1,1894.9000000953674,505549.80000019073,8019,VNB,A,1
2,test,2,0.0,2-Back,1,m,Mon Jan 27 2025 18:20:39 GMT-0600 (Central Standard Time),509512.90000009537,039_o_m_d_a.png,I,m,1032,4,1,2060.5,507452.40000009537,8019,VNB,A,2
3,test,2,0.0,2-Back,1,m,Mon Jan 27 2025 18:20:39 GMT-0600 (Central Standard Time),511995.90000009537,139_m_f_d_a.png,I,m,1465,5,1,2473.0,509522.90000009537,8019,VNB,A,3
3,test,2,0.0,2-Back,0,m,Mon Jan 27 2025 18:20:39 GMT-0600 (Central Standard Time),513910.90000009537,109_y_m_h_a.png,I,z,892,6,1,1904.4000000953674,512006.5,8019,VNB,A,4
4,test,2,0.0,2-Back,1,m,Mon Jan 27 2025 18:20:39 GMT-0600 (Central Standard Time),515960.5,124_o_f_n_a.png,I,m,1024,7,1,2039.7999997138977,513920.7000002861,8019,VNB,A,5
5,test,2,1.0,2-Back,1,z,Mon Jan 27 2025 18:20:39 GMT-0600 (Central Standard Time),518293.0,039_o_m_h_a.png,I,z,1303,8,1,2322.0999999046326,515970.90000009537,8019,VNB,A,6
6,test,2,0.0,2-Back,1,m,Mon Jan 27 2025 18:20:39 GMT-0600 (Central Standard Time),520625.5,071_y_f_d_a.png,I,m,1306,9,1,2321.5,518304.0,8019,VNB,A,7
7,test,2,0.0,2-Back,1,m,Mon Jan 27 2025 18:20:39 GMT-0600 (Central Standard Time),522576.5,109_y_m_d_a.png,I,m,917,10,1,1940.5999999046326,520635.90000009537,8019,VNB,A,8
8,test,2,0.0,2-Back,1,m,Mon Jan 27 2025 18:20:39 GMT-0600 (Central Standard Time),524608.0,165_m_m_n_a.png,I,m,999,11,1,2022.0999999046326,522585.90000009537,8019,VNB,A,9
9,test,2,0.0,2-Back,1,m,Mon Jan 27 2025 18:20:39 GMT-0600 (Central Standard Time),526874.9000000954,139_m_f_h_a.png,I,m,1247,12,1,2256.0,524618.9000000954,8019,VNB,A,10
10,test,2,1.0,2-Back,1,z,Mon Jan 27 2025 18:20:39 GMT-0600 (Central Standard Time),528857.5,039_o_m_n_a.png,I,z,949,13,1,1972.0,526885.5,8019,VNB,A,11
11,test,2,0.0,2-Back,1,m,Mon Jan 27 2025 18:20:39 GMT-0600 (Central Standard Time),531322.7000002861,124_o_f_d_a.png,I,m,1430,14,1,2455.0,528867.7000002861,8019,VNB,A,12
12,test,2,0.0,2-Back,1,m,Mon Jan 27 2025 18:20:39 GMT-0600 (Central Standard Time),534122.4000000954,071_y_f_h_a.png,I,m,1763,15,1,2787.5999999046326,531334.8000001907,8019,VNB,A,13
13,test,2,0.0,2-Back,1,z,Mon Jan 27 2025 18:20:39 GMT-0600 (Central Standard Time),535923.0,165_m_m_d_a.png,I,z,782,16,1,1790.5999999046326,534132.4000000954,8019,VNB,A,14
14,test,2,0.0,2-Back,1,m,Mon Jan 27 2025 18:20:39 GMT-0600 (Central Standard Time),538137.5999999046,109_y_m_n_a.png,I,m,1190,17,1,2205.7999997138977,535931.8000001907,8019,VNB,A,15
14,test,2,1.0,2-Back,0,m,Mon Jan 27 2025 18:20:39 GMT-0600 (Central Standard Time),541170.0999999046,139_m_f_n_a.png,I,None,2014,18,1,3021.5999999046326,538148.5,8019,VNB,A,16
0,test,3,1.0,2-Back,,,Mon Jan 27 2025 18:20:39 GMT-0600 (Central Standard Time),541170.0999999046,039_o_m_n_a.png,I,space,1222,1,1,3021.5999999046326,538148.5,8019,VNB,A,0
0,test,3,1.0,2-Back,,,Mon Jan 27 2025 18:20:39 GMT-0600 (Central Standard Time),541170.0999999046,124_o_f_d_a.png,I,space,1222,2,1,3021.5999999046326,538148.5,8019,VNB,A,0
1,test,3,0.0,2-Back,1,m,Mon Jan 27 2025 18:20:39 GMT-0600 (Central Standard Time),549799.0999999046,071_y_f_h_a.png,I,m,1250,3,1,2271.2999997138977,547527.8000001907,8019,VNB,A,1
1,test,3,0.0,2-Back,0,z,Mon Jan 27 2025 18:20:39 GMT-0600 (Central Standard Time),552834.5999999046,139_m_f_d_a.png,I,None,2015,4,1,3025.0,549809.5999999046,8019,VNB,A,2
1,test,3,1.0,2-Back,0,m,Mon Jan 27 2025 18:20:39 GMT-0600 (Central Standard Time),555850.0999999046,109_y_m_n_a.png,I,None,2001,5,1,3003.199999809265,552846.9000000954,8019,VNB,A,3
1,test,3,0.0,2-Back,0,m,Mon Jan 27 2025 18:20:39 GMT-0600 (Central Standard Time),557997.5999999046,039_o_m_h_a.png,I,z,1118,6,1,2134.5999999046326,555863.0,8019,VNB,A,4
1,test,3,0.0,2-Back,0,z,Mon Jan 27 2025 18:20:39 GMT-0600 (Central Standard Time),560297.2000002861,071_y_f_n_a.png,I,m,1268,7,1,2289.300000190735,558007.9000000954,8019,VNB,A,5
1,test,3,1.0,2-Back,0,m,Mon Jan 27 2025 18:20:39 GMT-0600 (Central Standard Time),563332.5999999046,165_m_m_d_a.png,I,None,2018,8,1,3024.5999999046326,560308.0,8019,VNB,A,6
1,test,3,0.0,2-Back,0,m,Mon Jan 27 2025 18:20:39 GMT-0600 (Central Standard Time),565363.0,109_y_m_d_a.png,I,z,1006,9,1,2019.4000000953674,563343.5999999046,8019,VNB,A,7
1,test,3,0.0,2-Back,0,m,Mon Jan 27 2025 18:20:39 GMT-0600 (Central Standard Time),568393.7000002861,124_o_f_h_a.png,I,None,2013,10,1,3022.7000002861023,565371.0,8019,VNB,A,8
2,test,3,1.0,2-Back,1,m,Mon Jan 27 2025 18:20:39 GMT-0600 (Central Standard Time),570343.7000002861,139_m_f_n_a.png,I,m,919,11,1,1939.2000002861023,568404.5,8019,VNB,A,9
3,test,3,1.0,2-Back,1,z,Mon Jan 27 2025 18:20:39 GMT-0600 (Central Standard Time),572476.5,165_m_m_h_a.png,I,z,1114,12,1,2120.9000000953674,570355.5999999046,8019,VNB,A,10
3,test,3,0.0,2-Back,0,m,Mon Jan 27 2025 18:20:39 GMT-0600 (Central Standard Time),575091.4000000954,071_y_f_d_a.png,I,z,1596,13,1,2604.0999999046326,572487.3000001907,8019,VNB,A,11
4,test,3,0.0,2-Back,1,m,Mon Jan 27 2025 18:20:39 GMT-0600 (Central Standard Time),577309.4000000954,124_o_f_n_a.png,I,m,1198,14,1,2209.699999809265,575099.7000002861,8019,VNB,A,12
4,test,3,0.0,2-Back,0,z,Mon Jan 27 2025 18:20:39 GMT-0600 (Central Standard Time),580341.0999999046,039_o_m_d_a.png,I,None,2015,15,1,3020.8999996185303,577320.2000002861,8019,VNB,A,13
5,test,3,1.0,2-Back,1,m,Mon Jan 27 2025 18:20:39 GMT-0600 (Central Standard Time),583124.0999999046,139_m_f_h_a.png,I,m,1757,16,1,2773.2999997138977,580350.8000001907,8019,VNB,A,14
6,test,3,0.0,2-Back,1,m,Mon Jan 27 2025 18:20:39 GMT-0600 (Central Standard Time),585022.0999999046,165_m_m_n_a.png,I,m,866,17,1,1887.0999999046326,583135.0,8019,VNB,A,15
7,test,3,0.0,2-Back,1,z,Mon Jan 27 2025 18:20:39 GMT-0600 (Central Standard Time),586838.2000002861,109_y_m_h_a.png,I,z,785,18,1,1804.7000002861023,585033.5,8019,VNB,A,16
0,test,4,0.0,2-Back,,,Mon Jan 27 2025 18:20:39 GMT-0600 (Central Standard Time),586838.2000002861,139_m_f_n_a.png,I,space,1133,1,1,1804.7000002861023,585033.5,8019,VNB,A,0
0,test,4,0.0,2-Back,,,Mon Jan 27 2025 18:20:39 GMT-0600 (Central Standard Time),586838.2000002861,039_o_m_n_a.png,I,space,1133,2,1,1804.7000002861023,585033.5,8019,VNB,A,0
1,test,4,1.0,2-Back,1,m,Mon Jan 27 2025 18:20:39 GMT-0600 (Central Standard Time),595902.3000001907,109_y_m_h_a.png,I,m,1817,3,1,2839.2000002861023,593063.0999999046,8019,VNB,A,1
1,test,4,1.0,2-Back,0,m,Mon Jan 27 2025 18:20:39 GMT-0600 (Central Standard Time),598936.0,124_o_f_d_a.png,I,None,2015,4,1,3024.699999809265,595911.3000001907,8019,VNB,A,2
2,test,4,0.0,2-Back,1,z,Mon Jan 27 2025 18:20:39 GMT-0600 (Central Standard Time),600750.0999999046,039_o_m_h_a.png,I,z,795,5,1,1803.8999996185303,598946.2000002861,8019,VNB,A,3
2,test,4,0.0,2-Back,0,m,Mon Jan 27 2025 18:20:39 GMT-0600 (Central Standard Time),603786.8000001907,165_m_m_n_a.png,I,None,2019,6,1,3026.9000000953674,600759.9000000954,8019,VNB,A,4
2,test,4,0.0,2-Back,0,m,Mon Jan 27 2025 18:20:39 GMT-0600 (Central Standard Time),606813.2000002861,139_m_f_d_a.png,I,None,2012,7,1,3016.6000003814697,603796.5999999046,8019,VNB,A,5
3,test,4,0.0,2-Back,1,z,Mon Jan 27 2025 18:20:39 GMT-0600 (Central Standard Time),609180.8000001907,071_y_f_n_a.png,I,z,1336,8,1,2361.2000002861023,606819.5999999046,8019,VNB,A,6
4,test,4,1.0,2-Back,1,m,Mon Jan 27 2025 18:20:39 GMT-0600 (Central Standard Time),611713.3000001907,124_o_f_h_a.png,I,m,1498,9,1,2522.9000000953674,609190.4000000954,8019,VNB,A,7
4,test,4,0.0,2-Back,0,m,Mon Jan 27 2025 18:20:39 GMT-0600 (Central Standard Time),614147.0999999046,165_m_m_h_a.png,I,z,1415,10,1,2423.0999999046326,611724.0,8019,VNB,A,8
5,test,4,0.0,2-Back,1,m,Mon Jan 27 2025 18:20:39 GMT-0600 (Central Standard Time),616763.3000001907,071_y_f_d_a.png,I,m,1591,11,1,2605.800000190735,614157.5,8019,VNB,A,9
5,test,4,0.0,2-Back,0,m,Mon Jan 27 2025 18:20:39 GMT-0600 (Central Standard Time),619794.0,109_y_m_n_a.png,I,None,2013,12,1,3020.199999809265,616773.8000001907,8019,VNB,A,10
5,test,4,0.0,2-Back,0,z,Mon Jan 27 2025 18:20:39 GMT-0600 (Central Standard Time),621710.0,039_o_m_d_a.png,I,m,882,13,1,1907.0999999046326,619802.9000000954,8019,VNB,A,11
5,test,4,1.0,2-Back,0,m,Mon Jan 27 2025 18:20:39 GMT-0600 (Central Standard Time),623876.0,139_m_f_h_a.png,I,z,1137,14,1,2154.5,621721.5,8019,VNB,A,12
5,test,4,1.0,2-Back,0,m,Mon Jan 27 2025 18:20:39 GMT-0600 (Central Standard Time),626908.3000001907,071_y_f_h_a.png,I,None,2013,15,1,3021.9000000953674,623886.4000000954,8019,VNB,A,13
6,test,4,0.0,2-Back,1,m,Mon Jan 27 2025 18:20:39 GMT-0600 (Central Standard Time),628724.5999999046,124_o_f_n_a.png,I,m,797,16,1,1805.0999999046326,626919.5,8019,VNB,A,14
6,test,4,0.0,2-Back,0,m,Mon Jan 27 2025 18:20:39 GMT-0600 (Central Standard Time),631224.7000002861,109_y_m_d_a.png,I,z,1476,17,1,2489.2000002861023,628735.5,8019,VNB,A,15
7,test,4,1.0,2-Back,1,m,Mon Jan 27 2025 18:20:39 GMT-0600 (Central Standard Time),633673.4000000954,165_m_m_d_a.png,I,m,1414,18,1,2438.5,631234.9000000954,8019,VNB,A,16
0,test,5,1.0,2-Back,,,Mon Jan 27 2025 18:20:39 GMT-0600 (Central Standard Time),633673.4000000954,071_y_f_d_a.png,I,space,1144,1,1,2438.5,631234.9000000954,8019,VNB,A,0
0,test,5,1.0,2-Back,,,Mon Jan 27 2025 18:20:39 GMT-0600 (Central Standard Time),633673.4000000954,124_o_f_h_a.png,I,space,1144,2,1,2438.5,631234.9000000954,8019,VNB,A,0
1,test,5,1.0,2-Back,1,z,Mon Jan 27 2025 18:20:39 GMT-0600 (Central Standard Time),642368.9000000954,039_o_m_d_a.png,I,z,1397,3,1,2419.0999999046326,639949.8000001907,8019,VNB,A,1
2,test,5,1.0,2-Back,1,m,Mon Jan 27 2025 18:20:39 GMT-0600 (Central Standard Time),645168.0,139_m_f_n_a.png,I,m,1775,4,1,2793.4000000953674,642374.5999999046,8019,VNB,A,2
2,test,5,0.0,2-Back,0,m,Mon Jan 27 2025 18:20:39 GMT-0600 (Central Standard Time),647083.0,165_m_m_h_a.png,I,z,885,5,1,1910.0,645173.0,8019,VNB,A,3
2,test,5,0.0,2-Back,0,z,Mon Jan 27 2025 18:20:39 GMT-0600 (Central Standard Time),649150.3000001907,071_y_f_n_a.png,I,m,1044,6,1,2061.800000190735,647088.5,8019,VNB,A,4
3,test,5,0.0,2-Back,1,m,Mon Jan 27 2025 18:20:39 GMT-0600 (Central Standard Time),651316.0999999046,124_o_f_d_a.png,I,m,1134,7,1,2157.699999809265,649158.4000000954,8019,VNB,A,5
4,test,5,0.0,2-Back,1,m,Mon Jan 27 2025 18:20:39 GMT-0600 (Central Standard Time),654148.8000001907,039_o_m_h_a.png,I,m,1806,8,1,2825.7000002861023,651323.0999999046,8019,VNB,A,6
5,test,5,1.0,2-Back,1,z,Mon Jan 27 2025 18:20:39 GMT-0600 (Central Standard Time),655947.8000001907,139_m_f_d_a.png,I,z,771,9,1,1792.4000000953674,654155.4000000954,8019,VNB,A,7
6,test,5,0.0,2-Back,1,m,Mon Jan 27 2025 18:20:39 GMT-0600 (Central Standard Time),658614.0,109_y_m_n_a.png,I,m,1634,10,1,2660.199999809265,655953.8000001907,8019,VNB,A,8
7,test,5,0.0,2-Back,1,m,Mon Jan 27 2025 18:20:39 GMT-0600 (Central Standard Time),661446.0999999046,165_m_m_n_a.png,I,m,1802,11,1,2824.5999999046326,658621.5,8019,VNB,A,9
7,test,5,0.0,2-Back,0,m,Mon Jan 27 2025 18:20:39 GMT-0600 (Central Standard Time),663996.4000000954,071_y_f_h_a.png,I,z,1519,12,1,2541.699999809265,661454.7000002861,8019,VNB,A,10
8,test,5,0.0,2-Back,1,m,Mon Jan 27 2025 18:20:39 GMT-0600 (Central Standard Time),666845.7000002861,109_y_m_d_a.png,I,m,1827,13,1,2839.1000003814697,664006.5999999046,8019,VNB,A,11
8,test,5,1.0,2-Back,0,z,Mon Jan 27 2025 18:20:39 GMT-0600 (Central Standard Time),669877.4000000954,139_m_f_h_a.png,I,None,2013,14,1,3021.5,666855.9000000954,8019,VNB,A,12
8,test,5,0.0,2-Back,0,m,Mon Jan 27 2025 18:20:39 GMT-0600 (Central Standard Time),672477.7000002861,039_o_m_n_a.png,I,z,1581,15,1,2593.7000002861023,669884.0,8019,VNB,A,13
8,test,5,0.0,2-Back,0,m,Mon Jan 27 2025 18:20:39 GMT-0600 (Central Standard Time),675509.7000002861,165_m_m_d_a.png,I,None,2014,16,1,3022.4000000953674,672487.3000001907,8019,VNB,A,14
8,test,5,0.0,2-Back,0,z,Mon Jan 27 2025 18:20:39 GMT-0600 (Central Standard Time),678542.7000002861,124_o_f_n_a.png,I,None,2015,17,1,3023.9000000953674,675518.8000001907,8019,VNB,A,15
9,test,5,1.0,2-Back,1,m,Mon Jan 27 2025 18:20:39 GMT-0600 (Central Standard Time),680775.2000002861,109_y_m_h_a.png,I,m,1202,18,1,2222.2000002861023,678553.0,8019,VNB,A,16
