acc_sum,block,block_c,condition,correct,correct_response,datetime,endtime,flanker,jitter,project,response,response_test_buffer_response,response_test_target_response,response_time,response_time_test_buffer_response,response_time_test_target_response,row_sel,session_number,start_end,starttime,subject_id,target,task,task_vers,time_test_buffer,time_test_buffer_response,time_test_constants,time_test_flanker,time_test_jitter,time_test_logger,time_test_target,time_test_target_response,time_test_variables,trial
0,prac,1,inc,0,m,Tue Jan 28 2025 12:05:32 GMT-0600 (Central Standard Time),142427.20000000298,pear,900,I,None,,,1815,,,14,1,4994.20000000298,137433.0,8015,iron,NF,C,,,,,,,,,,1
1,prac,1,con,1,z,Tue Jan 28 2025 12:05:32 GMT-0600 (Central Standard Time),145826.09999999404,orange,1000,I,z,,,1097,,,3,1,3392.7999999970198,142433.29999999702,8015,orange,NF,C,,,,,,,,,,2
2,prac,1,con,1,m,Tue Jan 28 2025 12:05:32 GMT-0600 (Central Standard Time),149491.59999999404,zinc,1000,I,m,,,1354,,,15,1,3660.3999999910593,145831.20000000298,8015,zinc,NF,C,,,,,,,,,,3
3,prac,1,inc,1,z,Tue Jan 28 2025 12:05:32 GMT-0600 (Central Standard Time),152624.0,iron,900,I,z,,,916,,,6,1,3127.5,149496.5,8015,pear,NF,C,,,,,,,,,,4
4,prac,1,con,1,m,Tue Jan 28 2025 12:05:32 GMT-0600 (Central Standard Time),155639.70000000298,silver,1000,I,m,,,700,,,11,1,3010.5,152629.20000000298,8015,silver,NF,C,,,,,,,,,,5
5,prac,1,con,1,m,Tue Jan 28 2025 12:05:32 GMT-0600 (Central Standard Time),158222.0,bronze,800,I,m,,,468,,,9,1,2577.6000000089407,155644.39999999106,8015,bronze,NF,C,,,,,,,,,,6
6,prac,1,inc,1,m,Tue Jan 28 2025 12:05:32 GMT-0600 (Central Standard Time),161304.5,plum,1100,I,m,,,682,,,16,1,3077.2999999970198,158227.20000000298,8015,lead,NF,C,,,,,,,,,,7
7,prac,1,inc,1,m,Tue Jan 28 2025 12:05:32 GMT-0600 (Central Standard Time),164120.29999999702,cherry,900,I,m,,,615,,,10,1,2811.5999999940395,161308.70000000298,8015,copper,NF,C,,,,,,,,,,8
8,prac,1,con,1,z,Tue Jan 28 2025 12:05:32 GMT-0600 (Central Standard Time),166719.5,banana,800,I,z,,,484,,,1,1,2594.1000000089407,164125.39999999106,8015,banana,NF,C,,,,,,,,,,9
9,prac,1,con,1,z,Tue Jan 28 2025 12:05:32 GMT-0600 (Central Standard Time),169585.29999999702,kiwi,1000,I,z,,,564,,,7,1,2860.7999999970198,166724.5,8015,kiwi,NF,C,,,,,,,,,,10
10,prac,1,con,1,m,Tue Jan 28 2025 12:05:32 GMT-0600 (Central Standard Time),172135.0,gold,800,I,m,,,435,,,13,1,2544.4000000059605,169590.59999999404,8015,gold,NF,C,,,,,,,,,,11
11,prac,1,inc,1,z,Tue Jan 28 2025 12:05:32 GMT-0600 (Central Standard Time),175266.70000000298,cobalt,1100,I,z,,,729,,,4,1,3127.2000000029802,172139.5,8015,raisin,NF,C,,,,,,,,,,12
11,prac,1,inc,0,z,Tue Jan 28 2025 12:05:32 GMT-0600 (Central Standard Time),178249.29999999702,lead,1100,I,m,,,573,,,8,1,2977.7000000029802,175271.59999999404,8015,plum,NF,C,,,,,,,,,,13
12,prac,1,con,1,z,Tue Jan 28 2025 12:05:32 GMT-0600 (Central Standard Time),180865.09999999404,lime,800,I,z,,,507,,,5,1,2611.5,178253.59999999404,8015,lime,NF,C,,,,,,,,,,14
13,prac,1,inc,1,m,Tue Jan 28 2025 12:05:32 GMT-0600 (Central Standard Time),183947.39999999106,raisin,1100,I,m,,,679,,,12,1,3077.5,180869.89999999106,8015,cobalt,NF,C,,,,,,,,,,15
14,prac,1,inc,1,z,Tue Jan 28 2025 12:05:32 GMT-0600 (Central Standard Time),186896.39999999106,copper,900,I,z,,,733,,,2,1,2944.699999988079,183951.70000000298,8015,cherry,NF,C,,,,,,,,,,16
1,test,1,con,1,z,Tue Jan 28 2025 12:05:32 GMT-0600 (Central Standard Time),213055.0,pear,900,I,z,z,None,743,528.0,215.0,42,1,2179.1000000089407,210875.89999999106,8015,pear,NF,C,207822,207822,206176,207090,206178,208355,207607,207607,208355,1
2,test,1,con,1,z,Tue Jan 28 2025 12:05:32 GMT-0600 (Central Standard Time),214970.89999999106,cherry,900,I,z,z,None,481,282.0,199.0,10,1,1910.8999999910593,213060.0,8015,cherry,NF,C,209988,209988,208360,209272,208361,210271,209789,209789,210271,2
3,test,1,inc,1,m,Tue Jan 28 2025 12:05:32 GMT-0600 (Central Standard Time),217084.5,lime,800,I,m,m,None,641,442.0,199.0,101,1,2109.2999999970198,214975.20000000298,8015,gold,NF,C,211804,211804,210275,211089,210277,212385,211605,211605,212384,3
4,test,1,con,1,m,Tue Jan 28 2025 12:05:32 GMT-0600 (Central Standard Time),219019.89999999106,gold,900,I,m,m,None,489,290.0,199.0,98,1,1930.7999999970198,217089.09999999404,8015,gold,NF,C,214020,214020,212389,213305,212391,214320,213821,213821,214320,4
5,test,1,con,1,z,Tue Jan 28 2025 12:05:32 GMT-0600 (Central Standard Time),221135.70000000298,lime,1100,I,z,z,None,467,252.0,215.0,36,1,2111.7000000029802,219024.0,8015,lime,NF,C,216170,216170,214324,215437,214326,216436,215954,215954,216436,5
5,test,1,con,0,z,Tue Jan 28 2025 12:05:32 GMT-0600 (Central Standard Time),223018.59999999404,kiwi,900,I,m,m,None,440,241.0,199.0,50,1,1878.8999999910593,221139.70000000298,8015,kiwi,NF,C,218069,218069,216440,217353,216441,218319,217870,217870,218319,6
6,test,1,con,1,z,Tue Jan 28 2025 12:05:32 GMT-0600 (Central Standard Time),225051.20000000298,lime,900,I,z,z,None,597,397.0,200.0,34,1,2028.6000000089407,223022.59999999404,8015,lime,NF,C,219953,219953,218323,219236,218324,220351,219752,219753,220351,7
7,test,1,inc,1,z,Tue Jan 28 2025 12:05:32 GMT-0600 (Central Standard Time),227100.79999999702,copper,900,I,z,z,None,605,406.0,199.0,14,1,2045.9000000059605,225054.89999999106,8015,cherry,NF,C,221984,221984,220355,221269,220356,222401,221785,221785,222401,8
8,test,1,inc,1,m,Tue Jan 28 2025 12:05:32 GMT-0600 (Central Standard Time),229083.0,cherry,900,I,m,m,None,547,348.0,199.0,70,1,1978.4000000059605,227104.59999999404,8015,bronze,NF,C,224034,224034,222405,223318,222406,224383,223835,223835,224383,9
8,test,1,con,0,m,Tue Jan 28 2025 12:05:32 GMT-0600 (Central Standard Time),231015.89999999106,zinc,1000,I,z,z,None,384,169.0,215.0,115,1,1928.8999999910593,229087.0,8015,zinc,NF,C,226133,226133,224387,225401,224388,226316,225917,225918,226316,10
9,test,1,inc,1,m,Tue Jan 28 2025 12:05:32 GMT-0600 (Central Standard Time),233215.29999999702,banana,800,I,m,m,None,860,661.0,199.0,77,1,2195.0999999940395,231020.20000000298,8015,copper,NF,C,227849,227849,226320,227133,226322,228515,227650,227650,228515,11
10,test,1,con,1,m,Tue Jan 28 2025 12:05:32 GMT-0600 (Central Standard Time),235348.09999999404,iron,900,I,m,m,None,687,472.0,215.0,106,1,2128.7000000029802,233219.39999999106,8015,iron,NF,C,230166,230166,228519,229433,228521,230648,229951,229951,230648,12
11,test,1,con,1,m,Tue Jan 28 2025 12:05:32 GMT-0600 (Central Standard Time),237530.70000000298,iron,1000,I,m,m,None,640,441.0,199.0,107,1,2178.4000000059605,235352.29999999702,8015,iron,NF,C,232381,232381,230652,231665,230654,232831,232182,232182,232831,13
12,test,1,con,1,z,Tue Jan 28 2025 12:05:32 GMT-0600 (Central Standard Time),239513.29999999702,kiwi,1000,I,z,z,None,432,217.0,215.0,51,1,1978.4000000059605,237534.89999999106,8015,kiwi,NF,C,234581,234581,232835,233848,232836,234813,234365,234365,234813,14
13,test,1,inc,1,z,Tue Jan 28 2025 12:05:32 GMT-0600 (Central Standard Time),241795.79999999702,zinc,1000,I,z,z,None,680,481.0,199.0,63,1,2278.4000000059605,239517.39999999106,8015,plum,NF,C,236613,236613,234817,235902,234819,237096,236414,236414,237096,15
14,test,1,con,1,m,Tue Jan 28 2025 12:05:32 GMT-0600 (Central Standard Time),244211.70000000298,lead,1100,I,m,m,None,780,581.0,199.0,124,1,2412.0,241799.70000000298,8015,lead,NF,C,238929,238929,237100,238213,237101,239512,238730,238730,239512,16
15,test,1,inc,1,m,Tue Jan 28 2025 12:05:32 GMT-0600 (Central Standard Time),246261.39999999106,lime,800,I,m,m,None,704,505.0,199.0,117,1,2045.5999999940395,244215.79999999702,8015,zinc,NF,C,241045,241045,239516,240330,239517,241561,240846,240846,241561,17
16,test,1,inc,1,z,Tue Jan 28 2025 12:05:32 GMT-0600 (Central Standard Time),248410.5,cobalt,1100,I,z,z,None,507,308.0,199.0,32,1,2145.2000000029802,246265.29999999702,8015,raisin,NF,C,243394,243394,241565,242679,241567,243711,243195,243195,243711,18
17,test,1,inc,1,z,Tue Jan 28 2025 12:05:32 GMT-0600 (Central Standard Time),250443.20000000298,bronze,800,I,z,z,None,689,474.0,215.0,21,1,2028.9000000059605,248414.29999999702,8015,orange,NF,C,245260,245260,243714,244528,243716,245743,245045,245045,245743,19
18,test,1,con,1,z,Tue Jan 28 2025 12:05:32 GMT-0600 (Central Standard Time),252592.59999999404,raisin,1000,I,z,z,None,609,410.0,199.0,27,1,2145.5,250447.09999999404,8015,raisin,NF,C,247476,247476,245747,246761,245749,247893,247277,247277,247893,20
19,test,1,con,1,z,Tue Jan 28 2025 12:05:32 GMT-0600 (Central Standard Time),254492.09999999404,kiwi,800,I,z,z,None,562,363.0,199.0,49,1,1895.0,252597.09999999404,8015,kiwi,NF,C,249427,249427,247897,248710,247898,249792,249227,249227,249792,21
20,test,1,inc,1,m,Tue Jan 28 2025 12:05:32 GMT-0600 (Central Standard Time),256658.0,orange,1000,I,m,m,None,632,433.0,199.0,71,1,2159.7000000029802,254498.29999999702,8015,bronze,NF,C,251525,251525,249798,250810,249800,251958,251326,251326,251958,22
21,test,1,con,1,m,Tue Jan 28 2025 12:05:32 GMT-0600 (Central Standard Time),258790.70000000298,lead,900,I,m,m,None,686,487.0,199.0,122,1,2128.7000000029802,256662.0,8015,lead,NF,C,253591,253591,251962,252875,251963,254091,253392,253392,254091,23
22,test,1,con,1,z,Tue Jan 28 2025 12:05:32 GMT-0600 (Central Standard Time),260640.0,cherry,800,I,z,z,None,500,285.0,215.0,9,1,1845.1000000089407,258794.89999999106,8015,cherry,NF,C,255641,255641,254095,254908,254096,255940,255425,255425,255940,24
23,test,1,inc,1,z,Tue Jan 28 2025 12:05:32 GMT-0600 (Central Standard Time),262922.5,lead,1100,I,z,z,None,640,441.0,199.0,64,1,2278.6000000089407,260643.89999999106,8015,plum,NF,C,257773,257773,255944,257057,255945,258223,257574,257574,258223,25
23,test,1,inc,0,m,Tue Jan 28 2025 12:05:32 GMT-0600 (Central Standard Time),264738.5,lime,800,I,z,z,None,495,282.0,213.0,109,1,1812.0,262926.5,8015,iron,NF,C,259756,259756,258227,259040,258228,260039,259543,259543,260039,26
24,test,1,inc,1,z,Tue Jan 28 2025 12:05:32 GMT-0600 (Central Standard Time),266705.0,bronze,800,I,z,z,None,617,418.0,199.0,13,1,1962.6000000089407,264742.39999999106,8015,cherry,NF,C,261572,261572,260042,260856,260044,262005,261373,261373,262005,27
25,test,1,con,1,z,Tue Jan 28 2025 12:05:32 GMT-0600 (Central Standard Time),268704.299999997,banana,900,I,z,z,None,559,359.0,200.0,2,1,1994.7999999970198,266709.5,8015,banana,NF,C,263639,263639,262010,262922,262011,264004,263439,263439,264004,28
26,test,1,con,1,z,Tue Jan 28 2025 12:05:32 GMT-0600 (Central Standard Time),270720.0,banana,1100,I,z,z,None,376,177.0,199.0,4,1,2011.6000000089407,268708.39999999106,8015,banana,NF,C,265837,265837,264008,265122,264010,266020,265638,265638,266020,29
27,test,1,inc,1,z,Tue Jan 28 2025 12:05:32 GMT-0600 (Central Standard Time),272819.89999999106,iron,900,I,z,z,None,656,457.0,199.0,38,1,2096.0999999940395,270723.799999997,8015,lime,NF,C,267653,267653,266024,266938,266025,268120,267454,267454,268120,30
27,test,1,inc,0,z,Tue Jan 28 2025 12:05:32 GMT-0600 (Central Standard Time),274602.39999999106,copper,900,I,m,m,None,348,133.0,215.0,22,1,1778.8999999910593,272823.5,8015,orange,NF,C,269769,269769,268124,269037,268125,269902,269554,269554,269902,31
28,test,1,con,1,m,Tue Jan 28 2025 12:05:32 GMT-0600 (Central Standard Time),276718.39999999106,iron,800,I,m,m,None,777,562.0,215.0,105,1,2112.2999999970198,274606.09999999404,8015,iron,NF,C,271452,271452,269906,270721,269908,272018,271237,271237,272018,32
29,test,1,inc,1,z,Tue Jan 28 2025 12:05:32 GMT-0600 (Central Standard Time),278784.299999997,copper,900,I,z,z,None,617,402.0,215.0,30,1,2061.7000000029802,276722.59999999404,8015,raisin,NF,C,273668,273668,272023,272936,272024,274084,273453,273453,274084,33
30,test,1,inc,1,z,Tue Jan 28 2025 12:05:32 GMT-0600 (Central Standard Time),280967.0,silver,1000,I,z,z,None,643,428.0,215.0,7,1,2179.0,278788.0,8015,banana,NF,C,275834,275834,274088,275102,274089,276267,275619,275619,276267,34
30,test,1,inc,0,m,Tue Jan 28 2025 12:05:32 GMT-0600 (Central Standard Time),283066.09999999404,plum,1100,I,z,z,None,465,266.0,199.0,104,1,2094.2000000029802,280971.89999999106,8015,gold,NF,C,278100,278100,276272,277384,276273,278366,277901,277901,278366,35
31,test,1,inc,1,m,Tue Jan 28 2025 12:05:32 GMT-0600 (Central Standard Time),285415.59999999404,plum,1100,I,m,m,None,702,503.0,199.0,120,1,2345.8999999910593,283069.700000003,8015,zinc,NF,C,280199,280199,278370,279484,278371,280716,280000,280000,280716,36
32,test,1,con,1,m,Tue Jan 28 2025 12:05:32 GMT-0600 (Central Standard Time),287697.89999999106,cobalt,1100,I,m,m,None,646,431.0,215.0,92,1,2278.5,285419.39999999106,8015,cobalt,NF,C,282565,282565,280719,281833,280721,282998,282350,282350,282998,37
33,test,1,con,1,m,Tue Jan 28 2025 12:05:32 GMT-0600 (Central Standard Time),289913.89999999106,lead,1000,I,m,m,None,674,475.0,199.0,123,1,2211.7999999970198,287702.09999999404,8015,lead,NF,C,284731,284731,283002,284015,283006,285214,284532,284532,285214,38
34,test,1,inc,1,z,Tue Jan 28 2025 12:05:32 GMT-0600 (Central Standard Time),291913.59999999404,silver,1000,I,z,z,None,458,259.0,199.0,23,1,1995.3999999910593,289918.200000003,8015,orange,NF,C,286947,286947,285218,286231,285220,287214,286748,286748,287214,39
35,test,1,con,1,m,Tue Jan 28 2025 12:05:32 GMT-0600 (Central Standard Time),294029.700000003,gold,800,I,m,m,None,770,555.0,215.0,97,1,2112.2000000029802,291917.5,8015,gold,NF,C,288763,288763,287218,288031,287219,289330,288548,288548,289330,40
36,test,1,con,1,m,Tue Jan 28 2025 12:05:32 GMT-0600 (Central Standard Time),296028.89999999106,cobalt,900,I,m,m,None,553,338.0,215.0,90,1,1995.7999999970198,294033.09999999404,8015,cobalt,NF,C,290980,290980,289333,290247,289334,291329,290764,290764,291329,41
37,test,1,con,1,m,Tue Jan 28 2025 12:05:32 GMT-0600 (Central Standard Time),297961.89999999106,bronze,800,I,m,m,None,583,384.0,199.0,65,1,1929.199999988079,296032.700000003,8015,bronze,NF,C,292862,292862,291333,292146,291334,293262,292663,292663,293262,42
38,test,1,con,1,m,Tue Jan 28 2025 12:05:32 GMT-0600 (Central Standard Time),299745.700000003,cobalt,800,I,m,m,None,442,243.0,199.0,89,1,1779.9000000059605,297965.799999997,8015,cobalt,NF,C,294795,294795,293266,294079,293267,295046,294596,294596,295046,43
39,test,1,con,1,m,Tue Jan 28 2025 12:05:32 GMT-0600 (Central Standard Time),301860.59999999404,silver,1100,I,m,m,None,471,256.0,215.0,84,1,2110.5999999940395,299750.0,8015,silver,NF,C,296894,296894,295050,296162,295052,297161,296679,296679,297161,44
40,test,1,inc,1,m,Tue Jan 28 2025 12:05:32 GMT-0600 (Central Standard Time),303776.299999997,banana,800,I,m,m,None,567,352.0,215.0,93,1,1911.7999999970198,301864.5,8015,cobalt,NF,C,298710,298710,297165,297978,297166,299076,298495,298495,299076,45
40,test,1,con,0,m,Tue Jan 28 2025 12:05:32 GMT-0600 (Central Standard Time),306042.299999997,zinc,1100,I,z,z,None,631,416.0,215.0,116,1,2262.2000000029802,303780.09999999404,8015,zinc,NF,C,300926,300926,299080,300194,299082,301342,300711,300711,301342,46
41,test,1,inc,1,m,Tue Jan 28 2025 12:05:32 GMT-0600 (Central Standard Time),308208.39999999106,orange,1000,I,m,m,None,625,410.0,215.0,87,1,2162.3999999910593,306046.0,8015,silver,NF,C,303092,303092,301346,302359,301347,303509,302877,302877,303508,47
42,test,1,con,1,z,Tue Jan 28 2025 12:05:32 GMT-0600 (Central Standard Time),310441.0,kiwi,1100,I,z,z,None,591,376.0,215.0,52,1,2228.6000000089407,308212.39999999106,8015,kiwi,NF,C,305358,305358,303512,304626,303514,305741,305143,305143,305741,48
43,test,1,inc,1,z,Tue Jan 28 2025 12:05:32 GMT-0600 (Central Standard Time),312807.0,zinc,1000,I,z,z,None,827,628.0,199.0,55,1,2362.1000000089407,310444.89999999106,8015,kiwi,NF,C,307474,307474,305745,306758,305746,308107,307275,307275,308107,49
44,test,1,con,1,z,Tue Jan 28 2025 12:05:32 GMT-0600 (Central Standard Time),314939.799999997,cherry,1000,I,z,z,None,589,390.0,199.0,11,1,2128.5999999940395,312811.200000003,8015,cherry,NF,C,309840,309840,308111,309125,308113,310240,309641,309641,310240,50
45,test,1,con,1,z,Tue Jan 28 2025 12:05:32 GMT-0600 (Central Standard Time),316889.09999999404,pear,800,I,z,z,None,600,401.0,199.0,41,1,1945.5,314943.59999999404,8015,pear,NF,C,311773,311773,310244,311058,310245,312189,311574,311574,312189,51
46,test,1,inc,1,z,Tue Jan 28 2025 12:05:32 GMT-0600 (Central Standard Time),319255.299999997,cobalt,1100,I,z,z,None,719,520.0,199.0,24,1,2362.5,316892.799999997,8015,orange,NF,C,314022,314022,312193,313306,312194,314555,313823,313823,314555,52
46,test,1,con,0,z,Tue Jan 28 2025 12:05:32 GMT-0600 (Central Standard Time),321204.299999997,plum,1000,I,m,m,None,413,214.0,199.0,59,1,1945.0999999940395,319259.200000003,8015,plum,NF,C,316288,316288,314559,315572,314561,316504,316089,316089,316504,53
47,test,1,con,1,z,Tue Jan 28 2025 12:05:32 GMT-0600 (Central Standard Time),323303.799999997,raisin,800,I,z,z,None,760,560.0,200.0,25,1,2094.5999999940395,321209.200000003,8015,raisin,NF,C,318038,318038,316509,317322,316511,318604,317838,317838,318604,54
48,test,1,inc,1,m,Tue Jan 28 2025 12:05:32 GMT-0600 (Central Standard Time),325486.200000003,plum,1100,I,m,m,None,544,345.0,199.0,112,1,2178.7000000029802,323307.5,8015,iron,NF,C,320437,320437,318608,319721,318609,320786,320238,320238,320786,55
49,test,1,inc,1,m,Tue Jan 28 2025 12:05:32 GMT-0600 (Central Standard Time),327702.299999997,kiwi,1000,I,m,m,None,677,462.0,215.0,127,1,2212.4000000059605,325489.89999999106,8015,lead,NF,C,322536,322536,320790,321804,320791,323002,322321,322321,323002,56
50,test,1,inc,1,m,Tue Jan 28 2025 12:05:32 GMT-0600 (Central Standard Time),329601.89999999106,banana,800,I,m,m,None,558,358.0,200.0,85,1,1895.5,327706.39999999106,8015,silver,NF,C,324536,324536,323006,323820,323008,324902,324336,324336,324902,57
51,test,1,con,1,z,Tue Jan 28 2025 12:05:32 GMT-0600 (Central Standard Time),331850.799999997,raisin,1100,I,z,z,None,614,399.0,215.0,28,1,2245.0,329605.799999997,8015,raisin,NF,C,326751,326751,324906,326019,324907,327151,326535,326536,327151,58
52,test,1,inc,1,z,Tue Jan 28 2025 12:05:32 GMT-0600 (Central Standard Time),333783.5,bronze,800,I,z,z,None,593,394.0,199.0,5,1,1929.1000000089407,331854.39999999106,8015,banana,NF,C,328684,328684,327154,327968,327156,329084,328485,328485,329084,59
53,test,1,inc,1,m,Tue Jan 28 2025 12:05:32 GMT-0600 (Central Standard Time),335866.299999997,kiwi,1000,I,m,m,None,539,324.0,215.0,111,1,2079.0,333787.299999997,8015,iron,NF,C,330834,330834,329087,330101,329089,331166,330618,330618,331166,60
54,test,1,con,1,z,Tue Jan 28 2025 12:05:32 GMT-0600 (Central Standard Time),338232.299999997,pear,1000,I,z,z,None,825,609.0,216.0,43,1,2362.2999999970198,335870.0,8015,pear,NF,C,332917,332917,331170,332184,331172,333532,332701,332701,333532,61
55,test,1,inc,1,z,Tue Jan 28 2025 12:05:32 GMT-0600 (Central Standard Time),340414.89999999106,lead,1100,I,z,z,None,536,337.0,199.0,48,1,2178.8999999910593,338236.0,8015,pear,NF,C,335365,335365,333536,334649,333538,335715,335166,335166,335715,62
56,test,1,con,1,z,Tue Jan 28 2025 12:05:32 GMT-0600 (Central Standard Time),342730.700000003,orange,1100,I,z,z,None,681,482.0,199.0,20,1,2311.800000011921,340418.89999999106,8015,orange,NF,C,337548,337548,335719,336832,335720,338031,337349,337349,338031,63
56,test,1,con,0,m,Tue Jan 28 2025 12:05:32 GMT-0600 (Central Standard Time),345180.200000003,gold,1100,I,z,z,None,813,614.0,199.0,100,1,2445.5,342734.700000003,8015,gold,NF,C,339864,339864,338035,339148,338036,340480,339665,339665,340480,64
57,test,1,con,1,m,Tue Jan 28 2025 12:05:32 GMT-0600 (Central Standard Time),347462.700000003,zinc,900,I,m,m,None,844,645.0,199.0,114,1,2278.800000011921,345183.89999999106,8015,zinc,NF,C,342113,342113,340484,341397,340485,342763,341914,341914,342763,65
58,test,1,con,1,m,Tue Jan 28 2025 12:05:32 GMT-0600 (Central Standard Time),349478.89999999106,silver,800,I,m,m,None,677,477.0,200.0,81,1,2012.5,347466.39999999106,8015,silver,NF,C,344297,344297,342766,343580,342768,344779,344097,344097,344779,66
59,test,1,inc,1,m,Tue Jan 28 2025 12:05:32 GMT-0600 (Central Standard Time),351594.700000003,orange,1000,I,m,m,None,581,382.0,199.0,95,1,2111.7000000029802,349483.0,8015,cobalt,NF,C,346512,346512,344783,345796,344784,346895,346313,346313,346895,67
60,test,1,con,1,m,Tue Jan 28 2025 12:05:32 GMT-0600 (Central Standard Time),353977.5,gold,1000,I,m,m,None,841,642.0,199.0,99,1,2378.9000000059605,351598.59999999404,8015,gold,NF,C,348628,348628,346899,347912,346900,349278,348429,348429,349277,68
61,test,1,con,1,z,Tue Jan 28 2025 12:05:32 GMT-0600 (Central Standard Time),355893.5,lime,800,I,z,z,None,570,370.0,200.0,33,1,1912.2999999970198,353981.200000003,8015,lime,NF,C,350812,350812,349281,350096,349283,351194,350611,350611,351194,69
62,test,1,con,1,m,Tue Jan 28 2025 12:05:32 GMT-0600 (Central Standard Time),357909.5,zinc,800,I,m,m,None,670,455.0,215.0,113,1,2012.4000000059605,355897.09999999404,8015,zinc,NF,C,352743,352743,351197,352011,351199,353210,352528,352528,353209,70
63,test,1,inc,1,m,Tue Jan 28 2025 12:05:32 GMT-0600 (Central Standard Time),359792.09999999404,banana,800,I,m,m,None,542,327.0,215.0,69,1,1878.5,357913.59999999404,8015,bronze,NF,C,354759,354759,353214,354027,353215,355092,354544,354544,355092,71
64,test,1,inc,1,z,Tue Jan 28 2025 12:05:32 GMT-0600 (Central Standard Time),361808.39999999106,copper,900,I,z,z,None,576,377.0,199.0,6,1,2012.699999988079,359795.700000003,8015,banana,NF,C,356725,356725,355096,356010,355097,357108,356526,356526,357108,72
65,test,1,con,1,m,Tue Jan 28 2025 12:05:32 GMT-0600 (Central Standard Time),363840.799999997,bronze,900,I,m,m,None,592,393.0,199.0,66,1,2028.7000000029802,361812.09999999404,8015,bronze,NF,C,358741,358741,357112,358026,357114,359141,358542,358542,359141,73
66,test,1,con,1,m,Tue Jan 28 2025 12:05:32 GMT-0600 (Central Standard Time),365773.59999999404,lead,800,I,m,m,None,595,396.0,199.0,121,1,1929.0,363844.59999999404,8015,lead,NF,C,360674,360674,359145,359958,359146,361074,360475,360475,361074,74
67,test,1,inc,1,m,Tue Jan 28 2025 12:05:32 GMT-0600 (Central Standard Time),367906.59999999404,raisin,1100,I,m,m,None,482,267.0,215.0,88,1,2129.0,365777.59999999404,8015,silver,NF,C,362923,362923,361078,362191,361079,363207,362708,362708,363207,75
68,test,1,inc,1,z,Tue Jan 28 2025 12:05:32 GMT-0600 (Central Standard Time),370222.200000003,cobalt,1100,I,z,z,None,677,462.0,215.0,16,1,2311.800000011921,367910.39999999106,8015,cherry,NF,C,365056,365056,363210,364324,363212,365522,364841,364841,365522,76
69,test,1,con,1,m,Tue Jan 28 2025 12:05:32 GMT-0600 (Central Standard Time),372321.89999999106,silver,900,I,m,m,None,657,442.0,215.0,82,1,2096.0,370225.89999999106,8015,silver,NF,C,367172,367172,365526,366440,365528,367622,366957,366957,367622,77
70,test,1,inc,1,z,Tue Jan 28 2025 12:05:32 GMT-0600 (Central Standard Time),374354.39999999106,gold,800,I,z,z,None,682,483.0,199.0,53,1,2028.5,372325.89999999106,8015,kiwi,NF,C,369155,369155,367626,368439,367627,369654,368956,368956,369654,78
70,test,1,con,0,z,Tue Jan 28 2025 12:05:32 GMT-0600 (Central Standard Time),376320.200000003,plum,800,I,m,m,None,625,410.0,215.0,57,1,1962.0,374358.200000003,8015,plum,NF,C,371204,371204,369658,370472,369660,371620,370989,370989,371620,79
71,test,1,con,1,z,Tue Jan 28 2025 12:05:32 GMT-0600 (Central Standard Time),378669.700000003,pear,1100,I,z,z,None,703,504.0,199.0,44,1,2345.800000011921,376323.89999999106,8015,pear,NF,C,373454,373454,371624,372738,371625,373970,373254,373254,373970,80
72,test,1,inc,1,z,Tue Jan 28 2025 12:05:32 GMT-0600 (Central Standard Time),381002.299999997,lead,1100,I,z,z,None,698,483.0,215.0,40,1,2329.0999999940395,378673.200000003,8015,lime,NF,C,375819,375819,373973,375087,373975,376302,375604,375604,376302,81
73,test,1,con,1,z,Tue Jan 28 2025 12:05:32 GMT-0600 (Central Standard Time),383101.700000003,lime,1000,I,z,z,None,554,355.0,199.0,35,1,2095.7000000029802,381006.0,8015,lime,NF,C,378035,378035,376306,377319,376307,378402,377836,377836,378402,82
74,test,1,con,1,m,Tue Jan 28 2025 12:05:32 GMT-0600 (Central Standard Time),385234.299999997,bronze,1100,I,m,m,None,498,283.0,215.0,68,1,2128.7000000029802,383105.59999999404,8015,bronze,NF,C,380251,380251,378406,379519,378407,380534,380036,380036,380534,83
75,test,1,inc,1,m,Tue Jan 28 2025 12:05:32 GMT-0600 (Central Standard Time),387466.700000003,plum,1100,I,m,m,None,598,399.0,199.0,128,1,2228.5,385238.200000003,8015,lead,NF,C,382367,382367,380538,381651,380540,382767,382168,382168,382767,84
76,test,1,inc,1,m,Tue Jan 28 2025 12:05:32 GMT-0600 (Central Standard Time),389549.59999999404,pear,900,I,m,m,None,637,438.0,199.0,118,1,2079.0,387470.59999999404,8015,zinc,NF,C,384400,384400,382771,383684,382772,384850,384201,384201,384850,85
77,test,1,con,1,m,Tue Jan 28 2025 12:05:32 GMT-0600 (Central Standard Time),391865.5,copper,1100,I,m,m,None,673,459.0,214.0,76,1,2312.2000000029802,389553.299999997,8015,copper,NF,C,386699,386699,384853,385967,384855,387166,386485,386485,387165,86
78,test,1,inc,1,m,Tue Jan 28 2025 12:05:32 GMT-0600 (Central Standard Time),393898.09999999404,cherry,900,I,m,m,None,590,375.0,215.0,86,1,2028.8999999910593,391869.200000003,8015,silver,NF,C,388815,388815,387169,388083,387171,389198,388600,388600,389198,87
79,test,1,con,1,z,Tue Jan 28 2025 12:05:32 GMT-0600 (Central Standard Time),395897.59999999404,raisin,900,I,z,z,None,558,359.0,199.0,26,1,1995.7999999970198,393901.799999997,8015,raisin,NF,C,390831,390831,389202,390115,389203,391198,390632,390632,391198,88
80,test,1,con,1,m,Tue Jan 28 2025 12:05:32 GMT-0600 (Central Standard Time),398030.09999999404,cobalt,1000,I,m,m,None,585,371.0,214.0,91,1,2128.7999999970198,395901.299999997,8015,cobalt,NF,C,392947,392947,391201,392215,391203,393330,392733,392733,393330,89
81,test,1,inc,1,z,Tue Jan 28 2025 12:05:32 GMT-0600 (Central Standard Time),400129.39999999106,zinc,1000,I,z,z,None,550,350.0,200.0,39,1,2095.5999999940395,398033.799999997,8015,lime,NF,C,395064,395064,393334,394348,393335,395429,394864,394864,395429,90
82,test,1,inc,1,z,Tue Jan 28 2025 12:05:32 GMT-0600 (Central Standard Time),402279.0,silver,1000,I,z,z,None,602,387.0,215.0,15,1,2146.0,400133.0,8015,cherry,NF,C,397179,397179,395433,396447,395434,397579,396964,396964,397579,91
83,test,1,inc,1,m,Tue Jan 28 2025 12:05:32 GMT-0600 (Central Standard Time),404328.299999997,orange,1000,I,m,m,None,509,310.0,199.0,79,1,2045.5999999940395,402282.700000003,8015,copper,NF,C,399312,399312,397583,398596,397584,399628,399113,399113,399628,92
84,test,1,con,1,z,Tue Jan 28 2025 12:05:32 GMT-0600 (Central Standard Time),406327.5,banana,1000,I,z,z,None,435,236.0,199.0,3,1,1995.2000000029802,404332.299999997,8015,banana,NF,C,401378,401378,399632,400671,399634,401628,401179,401179,401628,93
85,test,1,con,1,z,Tue Jan 28 2025 12:05:32 GMT-0600 (Central Standard Time),408510.200000003,orange,1000,I,z,z,None,644,429.0,215.0,19,1,2179.2000000029802,406331.0,8015,orange,NF,C,403377,403377,401631,402645,401633,403810,403162,403162,403810,94
86,test,1,inc,1,z,Tue Jan 28 2025 12:05:32 GMT-0600 (Central Standard Time),410709.5,zinc,1000,I,z,z,None,654,455.0,199.0,47,1,2195.7000000029802,408513.799999997,8015,pear,NF,C,405543,405543,403814,404828,403815,406010,405344,405344,406010,95
87,test,1,con,1,z,Tue Jan 28 2025 12:05:32 GMT-0600 (Central Standard Time),413208.89999999106,plum,1100,I,z,z,None,850,651.0,199.0,60,1,2495.3999999910593,410713.5,8015,plum,NF,C,407843,407843,406014,407127,406015,408509,407643,407643,408509,96
88,test,1,inc,1,m,Tue Jan 28 2025 12:05:32 GMT-0600 (Central Standard Time),415175.0,kiwi,1000,I,m,m,None,427,228.0,199.0,103,1,1962.4000000059605,413212.59999999404,8015,gold,NF,C,410242,410242,408513,409526,408514,410475,410043,410043,410475,97
89,test,1,con,1,m,Tue Jan 28 2025 12:05:32 GMT-0600 (Central Standard Time),417340.799999997,iron,1100,I,m,m,None,529,330.0,199.0,108,1,2162.0999999940395,415178.700000003,8015,iron,NF,C,412308,412308,410479,411592,410480,412641,412109,412109,412641,98
90,test,1,con,1,z,Tue Jan 28 2025 12:05:32 GMT-0600 (Central Standard Time),419390.0,cherry,1100,I,z,z,None,403,203.0,200.0,12,1,2045.6000000089407,417344.39999999106,8015,cherry,NF,C,414475,414475,412644,413758,412646,414690,414275,414275,414690,99
91,test,1,inc,1,m,Tue Jan 28 2025 12:05:32 GMT-0600 (Central Standard Time),421322.89999999106,kiwi,1000,I,m,m,None,390,191.0,199.0,119,1,1928.8999999910593,419394.0,8015,zinc,NF,C,416423,416423,414694,415707,414696,416623,416224,416224,416623,100
92,test,1,inc,1,z,Tue Jan 28 2025 12:05:32 GMT-0600 (Central Standard Time),423255.700000003,gold,800,I,z,z,None,593,394.0,199.0,61,1,1929.2000000029802,421326.5,8015,plum,NF,C,418156,418156,416627,417440,416628,418556,417957,417957,418556,101
92,test,1,inc,0,z,Tue Jan 28 2025 12:05:32 GMT-0600 (Central Standard Time),425054.89999999106,gold,800,I,m,m,None,460,245.0,215.0,45,1,1795.5,423259.39999999106,8015,pear,NF,C,420105,420105,418559,419373,418561,420355,419890,419890,420355,102
93,test,1,inc,1,z,Tue Jan 28 2025 12:05:32 GMT-0600 (Central Standard Time),427287.700000003,bronze,800,I,z,z,None,885,686.0,199.0,29,1,2229.1000000089407,425058.59999999404,8015,raisin,NF,C,421888,421888,420359,421172,420360,422588,421689,421689,422588,103
94,test,1,inc,1,m,Tue Jan 28 2025 12:05:32 GMT-0600 (Central Standard Time),429670.5,raisin,1100,I,m,m,None,738,537.0,201.0,80,1,2378.7999999970198,427291.700000003,8015,copper,NF,C,424421,424421,422592,423705,422593,424971,424219,424219,424970,104
95,test,1,con,1,m,Tue Jan 28 2025 12:05:32 GMT-0600 (Central Standard Time),431602.700000003,silver,1000,I,m,m,None,398,199.0,199.0,83,1,1928.800000011921,429673.89999999106,8015,silver,NF,C,426703,426703,424974,425988,424975,426903,426504,426504,426903,105
96,test,1,inc,1,m,Tue Jan 28 2025 12:05:32 GMT-0600 (Central Standard Time),433535.700000003,lime,800,I,m,m,None,593,394.0,199.0,125,1,1929.300000011921,431606.39999999106,8015,lead,NF,C,428436,428436,426906,427720,426908,428836,428237,428237,428836,106
97,test,1,inc,1,m,Tue Jan 28 2025 12:05:32 GMT-0600 (Central Standard Time),435568.0,pear,900,I,m,m,None,592,377.0,215.0,110,1,2027.5,433540.5,8015,iron,NF,C,430485,430485,428841,429753,428842,430868,430270,430270,430868,107
98,test,1,con,1,z,Tue Jan 28 2025 12:05:32 GMT-0600 (Central Standard Time),437551.09999999404,plum,900,I,z,z,None,535,320.0,215.0,58,1,1979.5999999940395,435571.5,8015,plum,NF,C,432518,432518,430872,431786,430873,432851,432303,432303,432851,108
99,test,1,inc,1,m,Tue Jan 28 2025 12:05:32 GMT-0600 (Central Standard Time),439617.299999997,pear,900,I,m,m,None,625,426.0,199.0,102,1,2060.5,437556.799999997,8015,gold,NF,C,434484,434484,432857,433769,432858,434917,434285,434285,434917,109
100,test,1,con,1,z,Tue Jan 28 2025 12:05:32 GMT-0600 (Central Standard Time),441550.0,banana,800,I,z,z,None,587,388.0,199.0,1,1,1928.7000000029802,439621.299999997,8015,banana,NF,C,436450,436450,434921,435735,434923,436850,436251,436251,436850,110
101,test,1,inc,1,z,Tue Jan 28 2025 12:05:32 GMT-0600 (Central Standard Time),443665.89999999106,silver,1000,I,z,z,None,574,375.0,199.0,31,1,2111.8999999910593,441554.0,8015,raisin,NF,C,438583,438583,436854,437867,436855,438966,438384,438384,438966,111
102,test,1,inc,1,z,Tue Jan 28 2025 12:05:32 GMT-0600 (Central Standard Time),445781.89999999106,cobalt,1100,I,z,z,None,470,271.0,199.0,8,1,2112.3999999910593,443669.5,8015,banana,NF,C,440799,440799,438970,440083,438971,441082,440600,440600,441082,112
103,test,1,con,1,m,Tue Jan 28 2025 12:05:32 GMT-0600 (Central Standard Time),447564.700000003,copper,800,I,m,m,None,446,247.0,199.0,73,1,1779.0,445785.700000003,8015,copper,NF,C,442615,442615,441086,441899,441087,442865,442416,442416,442865,113
104,test,1,inc,1,z,Tue Jan 28 2025 12:05:32 GMT-0600 (Central Standard Time),449414.0,iron,900,I,z,z,None,411,195.0,216.0,54,1,1845.1000000089407,447568.89999999106,8015,kiwi,NF,C,444515,444515,442869,443782,442870,444714,444299,444299,444714,114
105,test,1,inc,1,m,Tue Jan 28 2025 12:05:32 GMT-0600 (Central Standard Time),451713.09999999404,raisin,1100,I,m,m,None,658,459.0,199.0,72,1,2295.3999999910593,449417.700000003,8015,bronze,NF,C,446547,446547,444718,445831,444719,447013,446348,446348,447013,115
106,test,1,inc,1,z,Tue Jan 28 2025 12:05:32 GMT-0600 (Central Standard Time),453796.0,iron,900,I,z,z,None,646,431.0,215.0,62,1,2079.2000000029802,451716.799999997,8015,plum,NF,C,448663,448663,447017,447931,447018,449096,448448,448448,449096,116
107,test,1,inc,1,m,Tue Jan 28 2025 12:05:32 GMT-0600 (Central Standard Time),455845.39999999106,cherry,900,I,m,m,None,612,413.0,199.0,94,1,2045.7999999970198,453799.59999999404,8015,cobalt,NF,C,450729,450729,449100,450013,449101,451146,450530,450530,451145,117
108,test,1,inc,1,m,Tue Jan 28 2025 12:05:32 GMT-0600 (Central Standard Time),457961.5,raisin,1100,I,m,m,None,467,268.0,199.0,96,1,2112.2999999970198,455849.200000003,8015,cobalt,NF,C,452978,452978,451149,452263,451151,453262,452779,452779,453262,118
109,test,1,con,1,m,Tue Jan 28 2025 12:05:32 GMT-0600 (Central Standard Time),460177.59999999404,bronze,1000,I,m,m,None,667,468.0,199.0,67,1,2212.2999999970198,457965.299999997,8015,bronze,NF,C,454994,454994,453265,454279,453267,455478,454795,454795,455478,119
110,test,1,inc,1,z,Tue Jan 28 2025 12:05:32 GMT-0600 (Central Standard Time),461909.89999999106,gold,800,I,z,z,None,387,188.0,199.0,37,1,1728.7999999970198,460181.09999999404,8015,lime,NF,C,457010,457010,455481,456295,455483,457210,456811,456811,457210,120
111,test,1,inc,1,z,Tue Jan 28 2025 12:05:32 GMT-0600 (Central Standard Time),463760.299999997,iron,900,I,z,z,None,410,211.0,199.0,46,1,1846.5,461913.799999997,8015,pear,NF,C,458843,458843,457214,458127,457215,459060,458644,458644,459060,121
112,test,1,con,1,z,Tue Jan 28 2025 12:05:32 GMT-0600 (Central Standard Time),465592.200000003,orange,800,I,z,z,None,492,293.0,199.0,17,1,1828.1000000089407,463764.09999999404,8015,orange,NF,C,460593,460593,459064,459877,459066,460892,460393,460393,460892,122
113,test,1,con,1,z,Tue Jan 28 2025 12:05:32 GMT-0600 (Central Standard Time),467541.700000003,orange,900,I,z,z,None,503,288.0,215.0,18,1,1946.0,465595.700000003,8015,orange,NF,C,462542,462542,460896,461810,460897,462842,462327,462327,462842,123
114,test,1,inc,1,z,Tue Jan 28 2025 12:05:32 GMT-0600 (Central Standard Time),469741.09999999404,lead,1100,I,z,z,None,562,363.0,199.0,56,1,2195.7000000029802,467545.39999999106,8015,kiwi,NF,C,464675,464675,462845,463959,462847,465041,464476,464476,465041,124
115,test,1,con,1,m,Tue Jan 28 2025 12:05:32 GMT-0600 (Central Standard Time),471523.89999999106,copper,900,I,m,m,None,339,140.0,199.0,74,1,1778.8999999910593,469745.0,8015,copper,NF,C,466674,466674,465045,465959,465046,466824,466475,466475,466824,125
116,test,1,con,1,m,Tue Jan 28 2025 12:05:32 GMT-0600 (Central Standard Time),473506.39999999106,copper,1000,I,m,m,None,431,216.0,215.0,75,1,1978.8999999910593,471527.5,8015,copper,NF,C,468574,468574,466828,467841,466829,468806,468358,468358,468806,126
117,test,1,inc,1,m,Tue Jan 28 2025 12:05:32 GMT-0600 (Central Standard Time),475372.39999999106,cherry,900,I,m,m,None,421,206.0,215.0,78,1,1862.3999999910593,473510.0,8015,copper,NF,C,470456,470456,468810,469724,468812,470672,470241,470241,470672,127
117,test,1,inc,0,m,Tue Jan 28 2025 12:05:32 GMT-0600 (Central Standard Time),477288.799999997,pear,900,I,z,z,None,475,260.0,215.0,126,1,1912.7000000029802,475376.09999999404,8015,lead,NF,C,472322,472322,470676,471590,470677,472589,472107,472107,472589,128
