acc_sum,block,block_c,change,condition,correct,correct_response,datetime,endtime,face,project,response,response_time,row_sel,session_number,start_end,starttime,subject_id,task,task_vers,trial
0,prac,1,,1-Back,,,Mon Nov 04 2024 15:17:32 GMT-0600 (Central Standard Time),,097_m_f_n_a.png,O,space,8120,1,1,,,7035,NNB,B,0
1,prac,1,0.0,1-Back,1,m,Mon Nov 04 2024 15:17:32 GMT-0600 (Central Standard Time),140683.09999990463,152_y_f_n_a.png,O,m,821,2,1,1726.1999998092651,138956.90000009537,7035,NNB,B,1
1,prac,1,1.0,1-Back,0,z,Mon Nov 04 2024 15:17:32 GMT-0600 (Central Standard Time),142716.0,152_y_f_n_a.png,O,m,1241,3,1,2009.2000000476837,140706.79999995232,7035,NNB,B,2
2,prac,1,0.0,1-Back,1,m,Mon Nov 04 2024 15:17:32 GMT-0600 (Central Standard Time),145131.79999995232,176_o_m_n_a.png,O,m,1489,4,1,2387.2000000476837,142744.59999990463,7035,NNB,B,3
3,prac,1,0.0,1-Back,1,m,Mon Nov 04 2024 15:17:32 GMT-0600 (Central Standard Time),146847.59999990463,126_m_m_n_a.png,O,m,780,5,1,1682.0999999046326,145165.5,7035,NNB,B,4
4,prac,1,1.0,1-Back,1,z,Mon Nov 04 2024 15:17:32 GMT-0600 (Central Standard Time),148463.70000004768,126_m_m_n_a.png,O,z,809,6,1,1582.7999999523163,146880.90000009537,7035,NNB,B,5
5,prac,1,0.0,1-Back,1,m,Mon Nov 04 2024 15:17:32 GMT-0600 (Central Standard Time),150563.0,086_o_f_n_a.png,O,m,1141,7,1,2066.0,148497.0,7035,NNB,B,6
5,prac,1,0.0,1-Back,0,m,Mon Nov 04 2024 15:17:32 GMT-0600 (Central Standard Time),152762.20000004768,178_m_m_n_a.png,O,z,1254,8,1,2167.4000000953674,150594.79999995232,7035,NNB,B,7
6,prac,1,0.0,1-Back,1,m,Mon Nov 04 2024 15:17:32 GMT-0600 (Central Standard Time),154878.59999990463,097_m_f_n_a.png,O,m,1306,9,1,2085.199999809265,152793.40000009537,7035,NNB,B,8
7,prac,1,1.0,1-Back,1,z,Mon Nov 04 2024 15:17:32 GMT-0600 (Central Standard Time),156611.09999990463,097_m_f_n_a.png,O,z,935,10,1,1710.3999998569489,154900.70000004768,7035,NNB,B,9
8,prac,1,0.0,1-Back,1,m,Mon Nov 04 2024 15:17:32 GMT-0600 (Central Standard Time),158760.59999990463,176_o_m_n_a.png,O,m,1218,11,1,2122.5999999046326,156638.0,7035,NNB,B,10
9,prac,1,0.0,1-Back,1,m,Mon Nov 04 2024 15:17:32 GMT-0600 (Central Standard Time),161143.20000004768,173_y_f_n_a.png,O,m,1450,12,1,2353.2999999523163,158789.90000009537,7035,NNB,B,11
0,test,1,0.0,1-Back,,,Mon Nov 04 2024 15:17:32 GMT-0600 (Central Standard Time),161143.20000004768,152_y_f_n_a.png,O,space,8044,1,1,2353.2999999523163,158789.90000009537,7035,NNB,B,0
1,test,1,0.0,1-Back,1,m,Mon Nov 04 2024 15:17:32 GMT-0600 (Central Standard Time),178902.59999990463,029_m_f_n_a.png,O,m,645,2,1,1661.5,177241.09999990463,7035,NNB,B,1
2,test,1,0.0,1-Back,1,m,Mon Nov 04 2024 15:17:32 GMT-0600 (Central Standard Time),180652.09999990463,173_y_f_n_a.png,O,m,729,3,1,1744.8999998569489,178907.20000004768,7035,NNB,B,2
3,test,1,1.0,1-Back,1,z,Mon Nov 04 2024 15:17:32 GMT-0600 (Central Standard Time),182435.0,173_y_f_n_a.png,O,z,756,4,1,1778.7999999523163,180656.20000004768,7035,NNB,B,3
4,test,1,0.0,1-Back,1,m,Mon Nov 04 2024 15:17:32 GMT-0600 (Central Standard Time),184451.90000009537,029_m_f_n_a.png,O,m,992,5,1,2013.4000000953674,182438.5,7035,NNB,B,4
5,test,1,0.0,1-Back,1,m,Mon Nov 04 2024 15:17:32 GMT-0600 (Central Standard Time),186218.0,176_o_m_n_a.png,O,m,726,6,1,1748.0999999046326,184469.90000009537,7035,NNB,B,5
6,test,1,1.0,1-Back,1,z,Mon Nov 04 2024 15:17:32 GMT-0600 (Central Standard Time),187933.90000009537,176_o_m_n_a.png,O,z,672,7,1,1698.2000000476837,186235.70000004768,7035,NNB,B,6
7,test,1,0.0,1-Back,1,m,Mon Nov 04 2024 15:17:32 GMT-0600 (Central Standard Time),189683.40000009537,126_m_m_n_a.png,O,m,708,8,1,1734.9000000953674,187948.5,7035,NNB,B,7
8,test,1,0.0,1-Back,1,m,Mon Nov 04 2024 15:17:32 GMT-0600 (Central Standard Time),191549.70000004768,086_o_f_n_a.png,O,m,823,9,1,1848.2999999523163,189701.40000009537,7035,NNB,B,8
9,test,1,0.0,1-Back,1,m,Mon Nov 04 2024 15:17:32 GMT-0600 (Central Standard Time),194531.90000009537,126_m_m_n_a.png,O,m,1933,10,1,2963.100000143051,191568.79999995232,7035,NNB,B,9
10,test,1,0.0,1-Back,1,m,Mon Nov 04 2024 15:17:32 GMT-0600 (Central Standard Time),196514.5,153_y_m_n_a.png,O,m,935,11,1,1964.5999999046326,194549.90000009537,7035,NNB,B,10
11,test,1,1.0,1-Back,1,z,Mon Nov 04 2024 15:17:32 GMT-0600 (Central Standard Time),198330.70000004768,153_y_m_n_a.png,O,z,776,12,1,1797.9000000953674,196532.79999995232,7035,NNB,B,11
12,test,1,0.0,1-Back,1,m,Mon Nov 04 2024 15:17:32 GMT-0600 (Central Standard Time),200163.29999995232,110_o_f_n_a.png,O,m,784,13,1,1812.2000000476837,198351.09999990463,7035,NNB,B,12
13,test,1,1.0,1-Back,1,z,Mon Nov 04 2024 15:17:32 GMT-0600 (Central Standard Time),202312.59999990463,110_o_f_n_a.png,O,z,1111,14,1,2131.5,200181.09999990463,7035,NNB,B,13
14,test,1,0.0,1-Back,1,m,Mon Nov 04 2024 15:17:32 GMT-0600 (Central Standard Time),204364.29999995232,013_y_m_n_a.png,O,m,1001,15,1,2033.7000000476837,202330.59999990463,7035,NNB,B,14
15,test,1,0.0,1-Back,1,m,Mon Nov 04 2024 15:17:32 GMT-0600 (Central Standard Time),206227.79999995232,097_m_f_n_a.png,O,m,824,16,1,1842.5,204385.29999995232,7035,NNB,B,15
16,test,1,0.0,1-Back,1,m,Mon Nov 04 2024 15:17:32 GMT-0600 (Central Standard Time),207977.20000004768,065_o_m_n_a.png,O,m,702,17,1,1731.0,206246.20000004768,7035,NNB,B,16
17,test,1,0.0,1-Back,1,m,Mon Nov 04 2024 15:17:32 GMT-0600 (Central Standard Time),209926.70000004768,097_m_f_n_a.png,O,m,912,18,1,1932.5,207994.20000004768,7035,NNB,B,17
0,test,2,0.0,1-Back,,,Mon Nov 04 2024 15:17:32 GMT-0600 (Central Standard Time),209926.70000004768,126_m_m_n_a.png,O,space,4411,1,1,1932.5,207994.20000004768,7035,NNB,B,0
1,test,2,0.0,1-Back,1,m,Mon Nov 04 2024 15:17:32 GMT-0600 (Central Standard Time),218207.40000009537,029_m_f_n_a.png,O,m,654,2,1,1671.3000001907349,216536.09999990463,7035,NNB,B,1
2,test,2,1.0,1-Back,1,z,Mon Nov 04 2024 15:17:32 GMT-0600 (Central Standard Time),220123.40000009537,029_m_f_n_a.png,O,z,875,3,1,1896.9000000953674,218226.5,7035,NNB,B,2
3,test,2,0.0,1-Back,1,m,Mon Nov 04 2024 15:17:32 GMT-0600 (Central Standard Time),222159.09999990463,126_m_m_n_a.png,O,m,1001,4,1,2014.6999998092651,220144.40000009537,7035,NNB,B,3
4,test,2,0.0,1-Back,1,m,Mon Nov 04 2024 15:17:32 GMT-0600 (Central Standard Time),224055.5,153_y_m_n_a.png,O,m,854,5,1,1877.2000000476837,222178.29999995232,7035,NNB,B,4
5,test,2,0.0,1-Back,1,m,Mon Nov 04 2024 15:17:32 GMT-0600 (Central Standard Time),225904.79999995232,152_y_f_n_a.png,O,m,811,6,1,1831.0999999046326,224073.70000004768,7035,NNB,B,5
6,test,2,1.0,1-Back,1,z,Mon Nov 04 2024 15:17:32 GMT-0600 (Central Standard Time),227504.09999990463,152_y_f_n_a.png,O,z,561,7,1,1573.5999999046326,225930.5,7035,NNB,B,6
7,test,2,0.0,1-Back,1,m,Mon Nov 04 2024 15:17:32 GMT-0600 (Central Standard Time),229253.5,153_y_m_n_a.png,O,m,714,8,1,1729.0,227524.5,7035,NNB,B,7
8,test,2,0.0,1-Back,1,m,Mon Nov 04 2024 15:17:32 GMT-0600 (Central Standard Time),231019.70000004768,110_o_f_n_a.png,O,m,716,9,1,1747.2000000476837,229272.5,7035,NNB,B,8
9,test,2,0.0,1-Back,1,m,Mon Nov 04 2024 15:17:32 GMT-0600 (Central Standard Time),232685.90000009537,178_m_m_n_a.png,O,m,622,10,1,1647.3000001907349,231038.59999990463,7035,NNB,B,9
10,test,2,1.0,1-Back,1,z,Mon Nov 04 2024 15:17:32 GMT-0600 (Central Standard Time),234485.09999990463,178_m_m_n_a.png,O,z,764,11,1,1780.0,232705.09999990463,7035,NNB,B,10
11,test,2,0.0,1-Back,1,m,Mon Nov 04 2024 15:17:32 GMT-0600 (Central Standard Time),236268.20000004768,110_o_f_n_a.png,O,m,733,12,1,1764.2000000476837,234504.0,7035,NNB,B,11
12,test,2,0.0,1-Back,1,m,Mon Nov 04 2024 15:17:32 GMT-0600 (Central Standard Time),238217.59999990463,086_o_f_n_a.png,O,m,902,13,1,1926.0,236291.59999990463,7035,NNB,B,12
13,test,2,0.0,1-Back,1,m,Mon Nov 04 2024 15:17:32 GMT-0600 (Central Standard Time),240000.20000004768,176_o_m_n_a.png,O,m,737,14,1,1761.6000001430511,238238.59999990463,7035,NNB,B,13
14,test,2,0.0,1-Back,1,m,Mon Nov 04 2024 15:17:32 GMT-0600 (Central Standard Time),241683.0,065_o_m_n_a.png,O,m,642,15,1,1663.2000000476837,240019.79999995232,7035,NNB,B,14
14,test,2,1.0,1-Back,0,z,Mon Nov 04 2024 15:17:32 GMT-0600 (Central Standard Time),243632.5,065_o_m_n_a.png,O,m,911,16,1,1930.0999999046326,241702.40000009537,7035,NNB,B,15
15,test,2,0.0,1-Back,1,m,Mon Nov 04 2024 15:17:32 GMT-0600 (Central Standard Time),245631.70000004768,013_y_m_n_a.png,O,m,955,17,1,1981.4000000953674,243650.29999995232,7035,NNB,B,16
16,test,2,1.0,1-Back,1,z,Mon Nov 04 2024 15:17:32 GMT-0600 (Central Standard Time),247297.70000004768,013_y_m_n_a.png,O,z,627,18,1,1648.0,245649.70000004768,7035,NNB,B,17
0,test,3,1.0,1-Back,,,Mon Nov 04 2024 15:17:32 GMT-0600 (Central Standard Time),247297.70000004768,173_y_f_n_a.png,O,space,1384,1,1,1648.0,245649.70000004768,7035,NNB,B,0
1,test,3,0.0,1-Back,1,m,Mon Nov 04 2024 15:17:32 GMT-0600 (Central Standard Time),252745.90000009537,065_o_m_n_a.png,O,m,835,1,1,1864.2000000476837,250881.70000004768,7035,NNB,B,1
2,test,3,1.0,1-Back,1,z,Mon Nov 04 2024 15:17:32 GMT-0600 (Central Standard Time),254545.40000009537,065_o_m_n_a.png,O,z,760,1,1,1778.5,252766.90000009537,7035,NNB,B,2
3,test,3,0.0,1-Back,1,m,Mon Nov 04 2024 15:17:32 GMT-0600 (Central Standard Time),256311.5,097_m_f_n_a.png,O,m,729,1,1,1748.5999999046326,254562.90000009537,7035,NNB,B,3
4,test,3,1.0,1-Back,1,z,Mon Nov 04 2024 15:17:32 GMT-0600 (Central Standard Time),258044.59999990463,097_m_f_n_a.png,O,z,700,1,1,1714.2999999523163,256330.29999995232,7035,NNB,B,4
5,test,3,0.0,1-Back,1,m,Mon Nov 04 2024 15:17:32 GMT-0600 (Central Standard Time),259877.09999990463,110_o_f_n_a.png,O,m,790,1,1,1814.2999999523163,258062.79999995232,7035,NNB,B,5
6,test,3,0.0,1-Back,1,m,Mon Nov 04 2024 15:17:32 GMT-0600 (Central Standard Time),261709.70000004768,153_y_m_n_a.png,O,m,797,1,1,1815.5,259894.20000004768,7035,NNB,B,6
7,test,3,0.0,1-Back,1,m,Mon Nov 04 2024 15:17:32 GMT-0600 (Central Standard Time),263492.7000000477,110_o_f_n_a.png,O,m,749,1,1,1765.1000001430511,261727.59999990463,7035,NNB,B,7
8,test,3,0.0,1-Back,1,m,Mon Nov 04 2024 15:17:32 GMT-0600 (Central Standard Time),265408.7000000477,013_y_m_n_a.png,O,m,870,1,1,1894.7000000476837,263514.0,7035,NNB,B,8
9,test,3,1.0,1-Back,1,z,Mon Nov 04 2024 15:17:32 GMT-0600 (Central Standard Time),266974.5,013_y_m_n_a.png,O,z,522,1,1,1547.7000000476837,265426.7999999523,7035,NNB,B,9
10,test,3,0.0,1-Back,1,m,Mon Nov 04 2024 15:17:32 GMT-0600 (Central Standard Time),268757.09999990463,029_m_f_n_a.png,O,m,739,1,1,1755.6999998092651,267001.40000009537,7035,NNB,B,10
11,test,3,0.0,1-Back,1,m,Mon Nov 04 2024 15:17:32 GMT-0600 (Central Standard Time),270456.7000000477,152_y_f_n_a.png,O,m,661,1,1,1676.2999999523163,268780.40000009537,7035,NNB,B,11
12,test,3,1.0,1-Back,1,z,Mon Nov 04 2024 15:17:32 GMT-0600 (Central Standard Time),272156.7999999523,152_y_f_n_a.png,O,z,650,1,1,1681.7000000476837,270475.09999990463,7035,NNB,B,12
13,test,3,0.0,1-Back,1,m,Mon Nov 04 2024 15:17:32 GMT-0600 (Central Standard Time),273855.7000000477,029_m_f_n_a.png,O,m,654,1,1,1681.0,272174.7000000477,7035,NNB,B,13
14,test,3,0.0,1-Back,1,m,Mon Nov 04 2024 15:17:32 GMT-0600 (Central Standard Time),275688.40000009537,126_m_m_n_a.png,O,m,796,1,1,1812.5,273875.90000009537,7035,NNB,B,14
15,test,3,1.0,1-Back,1,z,Mon Nov 04 2024 15:17:32 GMT-0600 (Central Standard Time),277287.7999999523,126_m_m_n_a.png,O,z,562,1,1,1580.0,275707.7999999523,7035,NNB,B,15
16,test,3,0.0,1-Back,1,m,Mon Nov 04 2024 15:17:32 GMT-0600 (Central Standard Time),278953.7999999523,086_o_f_n_a.png,O,m,617,1,1,1647.0,277306.7999999523,7035,NNB,B,16
17,test,3,1.0,1-Back,1,z,Mon Nov 04 2024 15:17:32 GMT-0600 (Central Standard Time),280853.0,086_o_f_n_a.png,O,z,864,1,1,1879.7999999523163,278973.2000000477,7035,NNB,B,17
0,test,4,1.0,1-Back,,,Mon Nov 04 2024 15:17:32 GMT-0600 (Central Standard Time),280853.0,097_m_f_n_a.png,O,space,1093,1,1,1879.7999999523163,278973.2000000477,7035,NNB,B,0
1,test,4,0.0,1-Back,1,m,Mon Nov 04 2024 15:17:32 GMT-0600 (Central Standard Time),285885.2000000477,065_o_m_n_a.png,O,m,740,2,1,1758.2999999523163,284126.90000009537,7035,NNB,B,1
2,test,4,0.0,1-Back,1,m,Mon Nov 04 2024 15:17:32 GMT-0600 (Central Standard Time),287917.5,097_m_f_n_a.png,O,m,997,3,1,2014.4000000953674,285903.09999990463,7035,NNB,B,2
3,test,4,0.0,1-Back,1,m,Mon Nov 04 2024 15:17:32 GMT-0600 (Central Standard Time),289716.7999999523,110_o_f_n_a.png,O,m,765,4,1,1782.3999998569489,287934.40000009537,7035,NNB,B,3
4,test,4,1.0,1-Back,1,z,Mon Nov 04 2024 15:17:32 GMT-0600 (Central Standard Time),291416.59999990463,110_o_f_n_a.png,O,z,653,5,1,1680.1999998092651,289736.40000009537,7035,NNB,B,4
5,test,4,0.0,1-Back,1,m,Mon Nov 04 2024 15:17:32 GMT-0600 (Central Standard Time),293348.2999999523,152_y_f_n_a.png,O,m,897,6,1,1912.2999999523163,291436.0,7035,NNB,B,5
6,test,4,0.0,1-Back,1,m,Mon Nov 04 2024 15:17:32 GMT-0600 (Central Standard Time),295031.7999999523,153_y_m_n_a.png,O,m,653,7,1,1679.0,293352.7999999523,7035,NNB,B,6
7,test,4,1.0,1-Back,1,z,Mon Nov 04 2024 15:17:32 GMT-0600 (Central Standard Time),296681.5,153_y_m_n_a.png,O,z,601,8,1,1627.9000000953674,295053.59999990463,7035,NNB,B,7
8,test,4,0.0,1-Back,1,m,Mon Nov 04 2024 15:17:32 GMT-0600 (Central Standard Time),298347.59999990463,152_y_f_n_a.png,O,m,618,9,1,1646.1999998092651,296701.40000009537,7035,NNB,B,8
9,test,4,0.0,1-Back,1,m,Mon Nov 04 2024 15:17:32 GMT-0600 (Central Standard Time),300046.90000009537,178_m_m_n_a.png,O,m,656,10,1,1679.8000001907349,298367.09999990463,7035,NNB,B,9
10,test,4,1.0,1-Back,1,z,Mon Nov 04 2024 15:17:32 GMT-0600 (Central Standard Time),301796.5,178_m_m_n_a.png,O,z,707,11,1,1730.9000000953674,300065.59999990463,7035,NNB,B,10
11,test,4,0.0,1-Back,1,m,Mon Nov 04 2024 15:17:32 GMT-0600 (Central Standard Time),303512.7000000477,086_o_f_n_a.png,O,m,678,12,1,1695.4000000953674,301817.2999999523,7035,NNB,B,11
12,test,4,0.0,1-Back,1,m,Mon Nov 04 2024 15:17:32 GMT-0600 (Central Standard Time),305278.7000000477,176_o_m_n_a.png,O,m,729,13,1,1741.9000000953674,303536.7999999523,7035,NNB,B,12
13,test,4,0.0,1-Back,1,m,Mon Nov 04 2024 15:17:32 GMT-0600 (Central Standard Time),306928.09999990463,086_o_f_n_a.png,O,m,612,14,1,1626.0,305302.09999990463,7035,NNB,B,13
14,test,4,0.0,1-Back,1,m,Mon Nov 04 2024 15:17:32 GMT-0600 (Central Standard Time),308644.2999999523,173_y_f_n_a.png,O,m,666,15,1,1697.7000000476837,306946.59999990463,7035,NNB,B,14
15,test,4,1.0,1-Back,1,z,Mon Nov 04 2024 15:17:32 GMT-0600 (Central Standard Time),310426.90000009537,173_y_f_n_a.png,O,z,742,16,1,1763.1000001430511,308663.7999999523,7035,NNB,B,15
16,test,4,0.0,1-Back,1,m,Mon Nov 04 2024 15:17:32 GMT-0600 (Central Standard Time),312126.2999999523,029_m_f_n_a.png,O,m,654,17,1,1681.7000000476837,310444.59999990463,7035,NNB,B,16
17,test,4,1.0,1-Back,1,z,Mon Nov 04 2024 15:17:32 GMT-0600 (Central Standard Time),313875.90000009537,029_m_f_n_a.png,O,z,700,18,1,1731.3000001907349,312144.59999990463,7035,NNB,B,17
0,test,5,1.0,1-Back,,,Mon Nov 04 2024 15:17:32 GMT-0600 (Central Standard Time),313875.90000009537,176_o_m_n_a.png,O,space,1302,1,1,1731.3000001907349,312144.59999990463,7035,NNB,B,0
1,test,5,1.0,1-Back,1,z,Mon Nov 04 2024 15:17:32 GMT-0600 (Central Standard Time),319157.7000000477,176_o_m_n_a.png,O,z,756,2,1,1776.9000000953674,317380.7999999523,7035,NNB,B,1
2,test,5,0.0,1-Back,1,m,Mon Nov 04 2024 15:17:32 GMT-0600 (Central Standard Time),321006.59999990463,152_y_f_n_a.png,O,m,805,3,1,1827.7999999523163,319178.7999999523,7035,NNB,B,2
3,test,5,0.0,1-Back,1,m,Mon Nov 04 2024 15:17:32 GMT-0600 (Central Standard Time),322889.5,153_y_m_n_a.png,O,m,835,4,1,1863.5999999046326,321025.90000009537,7035,NNB,B,3
4,test,5,0.0,1-Back,1,m,Mon Nov 04 2024 15:17:32 GMT-0600 (Central Standard Time),324555.59999990463,152_y_f_n_a.png,O,m,625,5,1,1648.1999998092651,322907.40000009537,7035,NNB,B,4
5,test,5,0.0,1-Back,1,m,Mon Nov 04 2024 15:17:32 GMT-0600 (Central Standard Time),326421.7999999523,126_m_m_n_a.png,O,m,823,6,1,1842.7999999523163,324579.0,7035,NNB,B,5
6,test,5,1.0,1-Back,1,z,Mon Nov 04 2024 15:17:32 GMT-0600 (Central Standard Time),328171.09999990463,126_m_m_n_a.png,O,z,701,7,1,1732.6999998092651,326438.40000009537,7035,NNB,B,6
7,test,5,0.0,1-Back,1,m,Mon Nov 04 2024 15:17:32 GMT-0600 (Central Standard Time),329920.40000009537,173_y_f_n_a.png,O,m,711,8,1,1731.2000000476837,328189.2000000477,7035,NNB,B,7
8,test,5,0.0,1-Back,1,m,Mon Nov 04 2024 15:17:32 GMT-0600 (Central Standard Time),331836.7000000477,013_y_m_n_a.png,O,m,873,9,1,1899.7999999523163,329936.90000009537,7035,NNB,B,8
9,test,5,0.0,1-Back,1,m,Mon Nov 04 2024 15:17:32 GMT-0600 (Central Standard Time),333835.90000009537,173_y_f_n_a.png,O,m,957,10,1,1980.6000001430511,331855.2999999523,7035,NNB,B,9
10,test,5,0.0,1-Back,1,m,Mon Nov 04 2024 15:17:32 GMT-0600 (Central Standard Time),335602.09999990463,086_o_f_n_a.png,O,m,718,11,1,1742.7999999523163,333859.2999999523,7035,NNB,B,10
11,test,5,1.0,1-Back,1,z,Mon Nov 04 2024 15:17:32 GMT-0600 (Central Standard Time),337251.40000009537,086_o_f_n_a.png,O,z,600,12,1,1628.4000000953674,335623.0,7035,NNB,B,11
12,test,5,0.0,1-Back,1,m,Mon Nov 04 2024 15:17:32 GMT-0600 (Central Standard Time),338933.90000009537,065_o_m_n_a.png,O,m,648,13,1,1666.5,337267.40000009537,7035,NNB,B,12
13,test,5,0.0,1-Back,1,m,Mon Nov 04 2024 15:17:32 GMT-0600 (Central Standard Time),340717.0,097_m_f_n_a.png,O,m,748,14,1,1764.2999999523163,338952.7000000477,7035,NNB,B,13
14,test,5,1.0,1-Back,1,z,Mon Nov 04 2024 15:17:32 GMT-0600 (Central Standard Time),342532.7999999523,097_m_f_n_a.png,O,z,773,15,1,1799.3999998569489,340733.40000009537,7035,NNB,B,14
15,test,5,0.0,1-Back,1,m,Mon Nov 04 2024 15:17:32 GMT-0600 (Central Standard Time),344182.40000009537,065_o_m_n_a.png,O,m,605,16,1,1629.4000000953674,342553.0,7035,NNB,B,15
16,test,5,0.0,1-Back,1,m,Mon Nov 04 2024 15:17:32 GMT-0600 (Central Standard Time),345848.90000009537,029_m_f_n_a.png,O,m,628,17,1,1648.7000000476837,344200.2000000477,7035,NNB,B,16
17,test,5,0.0,1-Back,1,m,Mon Nov 04 2024 15:17:32 GMT-0600 (Central Standard Time),347714.7999999523,178_m_m_n_a.png,O,m,826,18,1,1848.7000000476837,345866.09999990463,7035,NNB,B,17
0,prac,1,0.0,2-Back,,,Mon Nov 04 2024 15:17:32 GMT-0600 (Central Standard Time),347714.7999999523,013_y_m_n_a.png,O,space,11064,1,1,1848.7000000476837,345866.09999990463,7035,NNB,B,0
0,prac,1,0.0,2-Back,,,Mon Nov 04 2024 15:17:32 GMT-0600 (Central Standard Time),347714.7999999523,029_m_f_n_a.png,O,space,11064,2,1,1848.7000000476837,345866.09999990463,7035,NNB,B,0
1,prac,1,1.0,2-Back,1,m,Mon Nov 04 2024 15:17:32 GMT-0600 (Central Standard Time),456246.0,065_o_m_n_a.png,O,m,1229,3,1,2149.4000000953674,454096.59999990463,7035,NNB,B,1
1,prac,1,0.0,2-Back,0,m,Mon Nov 04 2024 15:17:32 GMT-0600 (Central Standard Time),459261.59999990463,086_o_f_n_a.png,O,None,2016,4,1,2974.199999809265,456287.40000009537,7035,NNB,B,2
2,prac,1,0.0,2-Back,1,z,Mon Nov 04 2024 15:17:32 GMT-0600 (Central Standard Time),461993.7999999523,065_o_m_n_a.png,O,z,1918,5,1,2699.5,459294.2999999523,7035,NNB,B,3
3,prac,1,1.0,2-Back,1,z,Mon Nov 04 2024 15:17:32 GMT-0600 (Central Standard Time),464176.5,086_o_f_n_a.png,O,z,1381,6,1,2156.2000000476837,462020.2999999523,7035,NNB,B,4
3,prac,1,0.0,2-Back,0,m,Mon Nov 04 2024 15:17:32 GMT-0600 (Central Standard Time),467108.7000000477,178_m_m_n_a.png,O,None,2015,7,1,2911.5,464197.2000000477,7035,NNB,B,5
4,prac,1,0.0,2-Back,1,m,Mon Nov 04 2024 15:17:32 GMT-0600 (Central Standard Time),469574.7999999523,176_o_m_n_a.png,O,m,1548,8,1,2440.399999856949,467134.40000009537,7035,NNB,B,6
5,prac,1,0.0,2-Back,1,m,Mon Nov 04 2024 15:17:32 GMT-0600 (Central Standard Time),472106.5,173_y_f_n_a.png,O,m,1615,9,1,2509.2999999523163,469597.2000000477,7035,NNB,B,7
6,prac,1,1.0,2-Back,1,z,Mon Nov 04 2024 15:17:32 GMT-0600 (Central Standard Time),473706.7999999523,176_o_m_n_a.png,O,z,817,10,1,1592.2000000476837,472114.59999990463,7035,NNB,B,8
7,prac,1,0.0,2-Back,1,m,Mon Nov 04 2024 15:17:32 GMT-0600 (Central Standard Time),475772.7999999523,152_y_f_n_a.png,O,m,1124,11,1,2037.2000000476837,473735.59999990463,7035,NNB,B,9
7,prac,1,0.0,2-Back,0,m,Mon Nov 04 2024 15:17:32 GMT-0600 (Central Standard Time),477572.0,178_m_m_n_a.png,O,z,865,12,1,1770.0999999046326,475801.90000009537,7035,NNB,B,10
0,test,1,0.0,2-Back,,,Mon Nov 04 2024 15:17:32 GMT-0600 (Central Standard Time),477572.0,153_y_m_n_a.png,O,space,7327,1,1,1770.0999999046326,475801.90000009537,7035,NNB,B,0
0,test,1,0.0,2-Back,,,Mon Nov 04 2024 15:17:32 GMT-0600 (Central Standard Time),477572.0,153_y_m_n_a.png,O,space,7327,2,1,1770.0999999046326,475801.90000009537,7035,NNB,B,0
0,test,1,0.0,2-Back,0,m,Mon Nov 04 2024 15:17:32 GMT-0600 (Central Standard Time),501213.5,086_o_f_n_a.png,O,None,2014,3,1,3029.2999999523163,498184.2000000477,7035,NNB,B,1
1,test,1,0.0,2-Back,1,m,Mon Nov 04 2024 15:17:32 GMT-0600 (Central Standard Time),503713.40000009537,126_m_m_n_a.png,O,m,1470,4,1,2495.9000000953674,501217.5,7035,NNB,B,2
2,test,1,1.0,2-Back,1,z,Mon Nov 04 2024 15:17:32 GMT-0600 (Central Standard Time),505629.2000000477,086_o_f_n_a.png,O,z,880,5,1,1898.6000001430511,503730.59999990463,7035,NNB,B,3
3,test,1,0.0,2-Back,1,m,Mon Nov 04 2024 15:17:32 GMT-0600 (Central Standard Time),507645.5,152_y_f_n_a.png,O,m,973,6,1,1998.2000000476837,505647.2999999523,7035,NNB,B,4
3,test,1,0.0,2-Back,0,m,Mon Nov 04 2024 15:17:32 GMT-0600 (Central Standard Time),509911.5,126_m_m_n_a.png,O,z,1221,7,1,2245.2999999523163,507666.2000000477,7035,NNB,B,5
4,test,1,1.0,2-Back,1,z,Mon Nov 04 2024 15:17:32 GMT-0600 (Central Standard Time),512077.5,152_y_f_n_a.png,O,z,1123,8,1,2148.5999999046326,509928.90000009537,7035,NNB,B,6
5,test,1,0.0,2-Back,1,m,Mon Nov 04 2024 15:17:32 GMT-0600 (Central Standard Time),514360.0,013_y_m_n_a.png,O,m,1245,9,1,2263.5,512096.5,7035,NNB,B,7
6,test,1,0.0,2-Back,1,m,Mon Nov 04 2024 15:17:32 GMT-0600 (Central Standard Time),516475.7999999523,110_o_f_n_a.png,O,m,1075,10,1,2096.5,514379.2999999523,7035,NNB,B,8
7,test,1,1.0,2-Back,1,z,Mon Nov 04 2024 15:17:32 GMT-0600 (Central Standard Time),518225.40000009537,013_y_m_n_a.png,O,z,703,11,1,1730.6000001430511,516494.7999999523,7035,NNB,B,9
8,test,1,0.0,2-Back,1,m,Mon Nov 04 2024 15:17:32 GMT-0600 (Central Standard Time),520258.09999990463,029_m_f_n_a.png,O,m,985,12,1,2012.5999999046326,518245.5,7035,NNB,B,10
8,test,1,0.0,2-Back,0,m,Mon Nov 04 2024 15:17:32 GMT-0600 (Central Standard Time),522407.09999990463,029_m_f_n_a.png,O,z,1104,13,1,2131.899999856949,520275.2000000477,7035,NNB,B,11
9,test,1,0.0,2-Back,1,m,Mon Nov 04 2024 15:17:32 GMT-0600 (Central Standard Time),524557.2999999523,065_o_m_n_a.png,O,m,1116,14,1,2132.7000000476837,522424.59999990463,7035,NNB,B,12
9,test,1,0.0,2-Back,0,m,Mon Nov 04 2024 15:17:32 GMT-0600 (Central Standard Time),526989.0,110_o_f_n_a.png,O,z,1389,15,1,2414.5,524574.5,7035,NNB,B,13
10,test,1,1.0,2-Back,1,z,Mon Nov 04 2024 15:17:32 GMT-0600 (Central Standard Time),529054.7999999523,065_o_m_n_a.png,O,z,1029,16,1,2047.2999999523163,527007.5,7035,NNB,B,14
11,test,1,0.0,2-Back,1,m,Mon Nov 04 2024 15:17:32 GMT-0600 (Central Standard Time),530987.7000000477,097_m_f_n_a.png,O,m,891,17,1,1911.1000001430511,529076.5999999046,7035,NNB,B,15
11,test,1,0.0,2-Back,0,m,Mon Nov 04 2024 15:17:32 GMT-0600 (Central Standard Time),533153.9000000954,178_m_m_n_a.png,O,z,1119,18,1,2149.300000190735,531004.5999999046,7035,NNB,B,16
0,test,2,0.0,2-Back,,,Mon Nov 04 2024 15:17:32 GMT-0600 (Central Standard Time),533153.9000000954,178_m_m_n_a.png,O,space,1776,1,1,2149.300000190735,531004.5999999046,7035,NNB,B,0
0,test,2,0.0,2-Back,,,Mon Nov 04 2024 15:17:32 GMT-0600 (Central Standard Time),533153.9000000954,173_y_f_n_a.png,O,space,1776,2,1,2149.300000190735,531004.5999999046,7035,NNB,B,0
1,test,2,1.0,2-Back,1,z,Mon Nov 04 2024 15:17:32 GMT-0600 (Central Standard Time),542517.2999999523,178_m_m_n_a.png,O,z,1356,3,1,2377.2999999523163,540140.0,7035,NNB,B,1
2,test,2,0.0,2-Back,1,m,Mon Nov 04 2024 15:17:32 GMT-0600 (Central Standard Time),544649.2999999523,097_m_f_n_a.png,O,m,1080,4,1,2113.899999856949,542535.4000000954,7035,NNB,B,2
2,test,2,0.0,2-Back,0,m,Mon Nov 04 2024 15:17:32 GMT-0600 (Central Standard Time),546514.9000000954,173_y_f_n_a.png,O,z,847,5,1,1859.0,544655.9000000954,7035,NNB,B,3
2,test,2,0.0,2-Back,0,m,Mon Nov 04 2024 15:17:32 GMT-0600 (Central Standard Time),548532.0,065_o_m_n_a.png,O,z,983,6,1,2011.7999999523163,546520.2000000477,7035,NNB,B,4
3,test,2,0.0,2-Back,1,m,Mon Nov 04 2024 15:17:32 GMT-0600 (Central Standard Time),550381.4000000954,152_y_f_n_a.png,O,m,806,7,1,1830.7000000476837,548550.7000000477,7035,NNB,B,5
4,test,2,1.0,2-Back,1,z,Mon Nov 04 2024 15:17:32 GMT-0600 (Central Standard Time),552297.4000000954,065_o_m_n_a.png,O,z,869,8,1,1897.6000001430511,550399.7999999523,7035,NNB,B,6
4,test,2,0.0,2-Back,0,m,Mon Nov 04 2024 15:17:32 GMT-0600 (Central Standard Time),554396.7000000477,013_y_m_n_a.png,O,z,1057,9,1,2080.4000000953674,552316.2999999523,7035,NNB,B,7
4,test,2,0.0,2-Back,0,m,Mon Nov 04 2024 15:17:32 GMT-0600 (Central Standard Time),556212.5,013_y_m_n_a.png,O,z,782,10,1,1798.5,554414.0,7035,NNB,B,8
5,test,2,0.0,2-Back,1,m,Mon Nov 04 2024 15:17:32 GMT-0600 (Central Standard Time),558128.7999999523,029_m_f_n_a.png,O,m,869,11,1,1891.0999999046326,556237.7000000477,7035,NNB,B,9
5,test,2,0.0,2-Back,0,m,Mon Nov 04 2024 15:17:32 GMT-0600 (Central Standard Time),560211.7000000477,173_y_f_n_a.png,O,z,1033,12,1,2065.9000000953674,558145.7999999523,7035,NNB,B,10
6,test,2,1.0,2-Back,1,z,Mon Nov 04 2024 15:17:32 GMT-0600 (Central Standard Time),562310.7000000477,029_m_f_n_a.png,O,z,1055,13,1,2081.0,560229.7000000477,7035,NNB,B,11
7,test,2,0.0,2-Back,1,m,Mon Nov 04 2024 15:17:32 GMT-0600 (Central Standard Time),564226.7999999523,176_o_m_n_a.png,O,m,867,14,1,1898.7999999523163,562328.0,7035,NNB,B,12
8,test,2,0.0,2-Back,1,m,Mon Nov 04 2024 15:17:32 GMT-0600 (Central Standard Time),565826.2999999523,176_o_m_n_a.png,O,m,559,15,1,1584.0999999046326,564242.2000000477,7035,NNB,B,13
9,test,2,0.0,2-Back,1,m,Mon Nov 04 2024 15:17:32 GMT-0600 (Central Standard Time),567792.2999999523,110_o_f_n_a.png,O,m,928,16,1,1948.2999999523163,565844.0,7035,NNB,B,14
10,test,2,0.0,2-Back,1,m,Mon Nov 04 2024 15:17:32 GMT-0600 (Central Standard Time),570241.7000000477,126_m_m_n_a.png,O,m,1419,17,1,2435.600000143051,567806.0999999046,7035,NNB,B,15
11,test,2,1.0,2-Back,1,z,Mon Nov 04 2024 15:17:32 GMT-0600 (Central Standard Time),572257.5,110_o_f_n_a.png,O,z,977,18,1,1997.5999999046326,570259.9000000954,7035,NNB,B,16
0,test,3,1.0,2-Back,,,Mon Nov 04 2024 15:17:32 GMT-0600 (Central Standard Time),572257.5,153_y_m_n_a.png,O,space,1113,1,1,1997.5999999046326,570259.9000000954,7035,NNB,B,0
0,test,3,1.0,2-Back,,,Mon Nov 04 2024 15:17:32 GMT-0600 (Central Standard Time),572257.5,153_y_m_n_a.png,O,space,1113,2,1,1997.5999999046326,570259.9000000954,7035,NNB,B,0
1,test,3,0.0,2-Back,1,m,Mon Nov 04 2024 15:17:32 GMT-0600 (Central Standard Time),580338.0999999046,110_o_f_n_a.png,O,m,729,3,1,1748.6999998092651,578589.4000000954,7035,NNB,B,1
2,test,3,0.0,2-Back,1,m,Mon Nov 04 2024 15:17:32 GMT-0600 (Central Standard Time),582504.2000000477,178_m_m_n_a.png,O,m,1128,4,1,2148.4000000953674,580355.7999999523,7035,NNB,B,2
3,test,3,1.0,2-Back,1,z,Mon Nov 04 2024 15:17:32 GMT-0600 (Central Standard Time),584503.4000000954,110_o_f_n_a.png,O,z,959,5,1,1981.5,582521.9000000954,7035,NNB,B,3
4,test,3,0.0,2-Back,1,m,Mon Nov 04 2024 15:17:32 GMT-0600 (Central Standard Time),586519.0,013_y_m_n_a.png,O,m,978,6,1,1993.0999999046326,584525.9000000954,7035,NNB,B,4
5,test,3,0.0,2-Back,1,m,Mon Nov 04 2024 15:17:32 GMT-0600 (Central Standard Time),589052.5999999046,178_m_m_n_a.png,O,m,1515,7,1,2525.699999809265,586526.9000000954,7035,NNB,B,5
6,test,3,1.0,2-Back,1,z,Mon Nov 04 2024 15:17:32 GMT-0600 (Central Standard Time),591434.5,013_y_m_n_a.png,O,z,1334,8,1,2361.0999999046326,589073.4000000954,7035,NNB,B,6
6,test,3,0.0,2-Back,0,m,Mon Nov 04 2024 15:17:32 GMT-0600 (Central Standard Time),593316.7999999523,173_y_f_n_a.png,O,z,848,9,1,1864.2000000476837,591452.5999999046,7035,NNB,B,7
7,test,3,0.0,2-Back,1,m,Mon Nov 04 2024 15:17:32 GMT-0600 (Central Standard Time),595399.0999999046,126_m_m_n_a.png,O,m,1037,10,1,2064.0,593335.0999999046,7035,NNB,B,8
8,test,3,1.0,2-Back,1,z,Mon Nov 04 2024 15:17:32 GMT-0600 (Central Standard Time),597132.7000000477,173_y_f_n_a.png,O,z,707,11,1,1724.6000001430511,595408.0999999046,7035,NNB,B,9
9,test,3,1.0,2-Back,1,z,Mon Nov 04 2024 15:17:32 GMT-0600 (Central Standard Time),599847.7000000477,126_m_m_n_a.png,O,z,1677,12,1,2698.0,597149.7000000477,7035,NNB,B,10
9,test,3,0.0,2-Back,0,m,Mon Nov 04 2024 15:17:32 GMT-0600 (Central Standard Time),601914.2999999523,110_o_f_n_a.png,O,z,1044,13,1,2062.7000000476837,599851.5999999046,7035,NNB,B,11
10,test,3,0.0,2-Back,1,m,Mon Nov 04 2024 15:17:32 GMT-0600 (Central Standard Time),603747.0,097_m_f_n_a.png,O,m,809,14,1,1818.7999999523163,601928.2000000477,7035,NNB,B,12
11,test,3,0.0,2-Back,1,m,Mon Nov 04 2024 15:17:32 GMT-0600 (Central Standard Time),606096.5999999046,065_o_m_n_a.png,O,m,1299,15,1,2332.0999999046326,603764.5,7035,NNB,B,13
12,test,3,1.0,2-Back,1,z,Mon Nov 04 2024 15:17:32 GMT-0600 (Central Standard Time),608145.7000000477,097_m_f_n_a.png,O,z,1001,16,1,2031.5,606114.2000000477,7035,NNB,B,14
13,test,3,0.0,2-Back,1,m,Mon Nov 04 2024 15:17:32 GMT-0600 (Central Standard Time),610111.7000000477,086_o_f_n_a.png,O,m,921,17,1,1947.5,608164.2000000477,7035,NNB,B,15
13,test,3,0.0,2-Back,0,m,Mon Nov 04 2024 15:17:32 GMT-0600 (Central Standard Time),612077.7999999523,086_o_f_n_a.png,O,z,923,18,1,1945.8999998569489,610131.9000000954,7035,NNB,B,16
0,test,4,0.0,2-Back,,,Mon Nov 04 2024 15:17:32 GMT-0600 (Central Standard Time),612077.7999999523,176_o_m_n_a.png,O,space,1356,1,1,1945.8999998569489,610131.9000000954,7035,NNB,B,0
0,test,4,0.0,2-Back,,,Mon Nov 04 2024 15:17:32 GMT-0600 (Central Standard Time),612077.7999999523,152_y_f_n_a.png,O,space,1356,2,1,1945.8999998569489,610131.9000000954,7035,NNB,B,0
1,test,4,1.0,2-Back,1,z,Mon Nov 04 2024 15:17:32 GMT-0600 (Central Standard Time),621374.7999999523,176_o_m_n_a.png,O,z,1529,3,1,2534.899999856949,618839.9000000954,7035,NNB,B,1
2,test,4,1.0,2-Back,1,z,Mon Nov 04 2024 15:17:32 GMT-0600 (Central Standard Time),623390.7000000477,152_y_f_n_a.png,O,z,975,4,1,1996.2999999523163,621394.4000000954,7035,NNB,B,2
3,test,4,0.0,2-Back,1,m,Mon Nov 04 2024 15:17:32 GMT-0600 (Central Standard Time),625290.2999999523,110_o_f_n_a.png,O,m,851,5,1,1881.5,623408.7999999523,7035,NNB,B,3
3,test,4,0.0,2-Back,0,m,Mon Nov 04 2024 15:17:32 GMT-0600 (Central Standard Time),627172.7999999523,110_o_f_n_a.png,O,z,842,6,1,1865.0,625307.7999999523,7035,NNB,B,4
4,test,4,0.0,2-Back,1,m,Mon Nov 04 2024 15:17:32 GMT-0600 (Central Standard Time),629022.2000000477,029_m_f_n_a.png,O,m,814,7,1,1832.4000000953674,627189.7999999523,7035,NNB,B,5
5,test,4,0.0,2-Back,1,m,Mon Nov 04 2024 15:17:32 GMT-0600 (Central Standard Time),630954.9000000954,013_y_m_n_a.png,O,m,892,8,1,1914.5,629040.4000000954,7035,NNB,B,6
6,test,4,1.0,2-Back,1,z,Mon Nov 04 2024 15:17:32 GMT-0600 (Central Standard Time),633187.4000000954,029_m_f_n_a.png,O,z,1192,9,1,2214.7000000476837,630972.7000000477,7035,NNB,B,7
7,test,4,0.0,2-Back,1,m,Mon Nov 04 2024 15:17:32 GMT-0600 (Central Standard Time),635220.5,126_m_m_n_a.png,O,m,999,10,1,2013.0,633207.5,7035,NNB,B,8
7,test,4,0.0,2-Back,0,m,Mon Nov 04 2024 15:17:32 GMT-0600 (Central Standard Time),637436.0,013_y_m_n_a.png,O,z,1166,11,1,2188.5,635247.5,7035,NNB,B,9
8,test,4,0.0,2-Back,1,m,Mon Nov 04 2024 15:17:32 GMT-0600 (Central Standard Time),639368.7999999523,086_o_f_n_a.png,O,m,896,12,1,1916.2999999523163,637452.5,7035,NNB,B,10
9,test,4,0.0,2-Back,1,m,Mon Nov 04 2024 15:17:32 GMT-0600 (Central Standard Time),641468.2999999523,153_y_m_n_a.png,O,m,1066,13,1,2078.7999999523163,639389.5,7035,NNB,B,11
10,test,4,1.0,2-Back,1,z,Mon Nov 04 2024 15:17:32 GMT-0600 (Central Standard Time),643334.0999999046,086_o_f_n_a.png,O,z,828,14,1,1850.1999998092651,641483.9000000954,7035,NNB,B,12
11,test,4,1.0,2-Back,1,z,Mon Nov 04 2024 15:17:32 GMT-0600 (Central Standard Time),645650.0,153_y_m_n_a.png,O,z,1276,15,1,2295.9000000953674,643354.0999999046,7035,NNB,B,13
12,test,4,0.0,2-Back,1,m,Mon Nov 04 2024 15:17:32 GMT-0600 (Central Standard Time),647549.0,178_m_m_n_a.png,O,m,864,16,1,1883.5,645665.5,7035,NNB,B,14
13,test,4,0.0,2-Back,1,m,Mon Nov 04 2024 15:17:32 GMT-0600 (Central Standard Time),649581.7999999523,097_m_f_n_a.png,O,m,997,17,1,2015.5,647566.2999999523,7035,NNB,B,15
14,test,4,1.0,2-Back,1,z,Mon Nov 04 2024 15:17:32 GMT-0600 (Central Standard Time),651531.4000000954,178_m_m_n_a.png,O,z,908,18,1,1930.8000001907349,649600.5999999046,7035,NNB,B,16
0,test,5,1.0,2-Back,,,Mon Nov 04 2024 15:17:32 GMT-0600 (Central Standard Time),651531.4000000954,153_y_m_n_a.png,O,space,1247,1,1,1930.8000001907349,649600.5999999046,7035,NNB,B,0
0,test,5,1.0,2-Back,,,Mon Nov 04 2024 15:17:32 GMT-0600 (Central Standard Time),651531.4000000954,097_m_f_n_a.png,O,space,1247,2,1,1930.8000001907349,649600.5999999046,7035,NNB,B,0
1,test,5,1.0,2-Back,1,z,Mon Nov 04 2024 15:17:32 GMT-0600 (Central Standard Time),659895.2000000477,153_y_m_n_a.png,O,z,869,3,1,1897.6000001430511,657997.5999999046,7035,NNB,B,1
2,test,5,1.0,2-Back,1,z,Mon Nov 04 2024 15:17:32 GMT-0600 (Central Standard Time),661861.4000000954,097_m_f_n_a.png,O,z,923,4,1,1949.2000000476837,659912.2000000477,7035,NNB,B,2
3,test,5,0.0,2-Back,1,m,Mon Nov 04 2024 15:17:32 GMT-0600 (Central Standard Time),663594.5999999046,086_o_f_n_a.png,O,m,700,5,1,1714.3999998569489,661880.2000000477,7035,NNB,B,3
3,test,5,0.0,2-Back,0,m,Mon Nov 04 2024 15:17:32 GMT-0600 (Central Standard Time),665393.5999999046,153_y_m_n_a.png,O,z,769,6,1,1794.0,663599.5999999046,7035,NNB,B,4
4,test,5,0.0,2-Back,1,m,Mon Nov 04 2024 15:17:32 GMT-0600 (Central Standard Time),667309.4000000954,173_y_f_n_a.png,O,m,881,7,1,1898.3000001907349,665411.0999999046,7035,NNB,B,5
4,test,5,0.0,2-Back,0,m,Mon Nov 04 2024 15:17:32 GMT-0600 (Central Standard Time),669274.5,086_o_f_n_a.png,O,z,932,8,1,1946.4000000953674,667328.0999999046,7035,NNB,B,6
5,test,5,1.0,2-Back,1,z,Mon Nov 04 2024 15:17:32 GMT-0600 (Central Standard Time),671674.7999999523,173_y_f_n_a.png,O,z,1367,9,1,2396.7000000476837,669278.0999999046,7035,NNB,B,7
6,test,5,0.0,2-Back,1,m,Mon Nov 04 2024 15:17:32 GMT-0600 (Central Standard Time),673524.5,065_o_m_n_a.png,O,m,815,10,1,1830.2000000476837,671694.2999999523,7035,NNB,B,8
7,test,5,0.0,2-Back,1,m,Mon Nov 04 2024 15:17:32 GMT-0600 (Central Standard Time),675440.2999999523,029_m_f_n_a.png,O,m,870,11,1,1891.2999999523163,673549.0,7035,NNB,B,9
8,test,5,0.0,2-Back,1,m,Mon Nov 04 2024 15:17:32 GMT-0600 (Central Standard Time),677356.2999999523,126_m_m_n_a.png,O,m,874,12,1,1899.2999999523163,675457.0,7035,NNB,B,10
8,test,5,0.0,2-Back,0,m,Mon Nov 04 2024 15:17:32 GMT-0600 (Central Standard Time),679405.5,065_o_m_n_a.png,O,z,1014,13,1,2030.7000000476837,677374.7999999523,7035,NNB,B,11
9,test,5,1.0,2-Back,1,z,Mon Nov 04 2024 15:17:32 GMT-0600 (Central Standard Time),681238.4000000954,126_m_m_n_a.png,O,z,796,14,1,1816.0,679422.4000000954,7035,NNB,B,12
10,test,5,0.0,2-Back,1,m,Mon Nov 04 2024 15:17:32 GMT-0600 (Central Standard Time),683354.4000000954,152_y_f_n_a.png,O,m,1068,15,1,2099.800000190735,681254.5999999046,7035,NNB,B,13
11,test,5,0.0,2-Back,1,m,Mon Nov 04 2024 15:17:32 GMT-0600 (Central Standard Time),685270.2999999523,176_o_m_n_a.png,O,m,872,16,1,1886.2000000476837,683384.0999999046,7035,NNB,B,14
12,test,5,0.0,2-Back,1,m,Mon Nov 04 2024 15:17:32 GMT-0600 (Central Standard Time),687119.7999999523,029_m_f_n_a.png,O,m,804,17,1,1832.7999999523163,685287.0,7035,NNB,B,15
13,test,5,1.0,2-Back,1,z,Mon Nov 04 2024 15:17:32 GMT-0600 (Central Standard Time),689285.7000000477,176_o_m_n_a.png,O,z,1123,18,1,2149.2000000476837,687136.5,7035,NNB,B,16
