block_c,block_dur,condition,countdown,datetime,endtime,list,multichar_response,project,response,response_time,session_number,start_end,starttime,subject_id,task,task_vers,trial
,,,,Wed Sep 18 2024 09:26:19 GMT-0500 (Central Daylight Time),,,,I,space,453,1,,,8000,WL,B,
prac,,0,,Wed Sep 18 2024 09:26:19 GMT-0500 (Central Daylight Time),,NA,b,I,b,24419,1,,,8000,WL,B,1.0
prac,,0,,Wed Sep 18 2024 09:26:19 GMT-0500 (Central Daylight Time),,NA,bo,I,o,547,1,,,8000,WL,B,1.0
prac,,0,,Wed Sep 18 2024 09:26:19 GMT-0500 (Central Daylight Time),,NA,boo,I,o,180,1,,,8000,WL,B,1.0
prac,,0,,Wed Sep 18 2024 09:26:19 GMT-0500 (Central Daylight Time),,NA,boos,I,s,348,1,,,8000,WL,B,1.0
prac,,0,,Wed Sep 18 2024 09:26:19 GMT-0500 (Central Daylight Time),,NA,boost,I,t,454,1,,,8000,WL,B,1.0
prac,,0,,Wed Sep 18 2024 09:26:19 GMT-0500 (Central Daylight Time),,NA,boostenter,I,enter,8491,1,,,8000,WL,B,1.0
1,1.5329999923706055,learn,58467.000007629395,Wed Sep 18 2024 09:26:19 GMT-0500 (Central Daylight Time),173667.09999999404,A,s,I,s,1509,1,1531.0999999940395,172136.0,8000,WL,B,1.0
1,1.998999834060669,learn,58001.00016593933,Wed Sep 18 2024 09:26:19 GMT-0500 (Central Daylight Time),174133.59999999404,A,st,I,t,458,1,1997.5999999940395,172136.0,8000,WL,B,1.0
1,2.4489998817443848,learn,57551.000118255615,Wed Sep 18 2024 09:26:19 GMT-0500 (Central Daylight Time),174583.19999999553,A,str,I,r,439,1,2447.1999999955297,172136.0,8000,WL,B,1.0
1,2.931999921798706,learn,57068.000078201294,Wed Sep 18 2024 09:26:19 GMT-0500 (Central Daylight Time),175066.5,A,stre,I,e,462,1,2930.5,172136.0,8000,WL,B,1.0
1,3.115000009536743,learn,56884.99999046326,Wed Sep 18 2024 09:26:19 GMT-0500 (Central Daylight Time),175249.59999999404,A,stree,I,e,162,1,3113.5999999940395,172136.0,8000,WL,B,1.0
1,3.4159998893737793,learn,56584.00011062622,Wed Sep 18 2024 09:26:19 GMT-0500 (Central Daylight Time),175549.59999999404,A,street,I,t,292,1,3413.5999999940395,172136.0,8000,WL,B,1.0
1,5.664000034332275,learn,54335.999965667725,Wed Sep 18 2024 09:26:19 GMT-0500 (Central Daylight Time),177798.5,A,streetenter,I,enter,2231,1,5662.5,172136.0,8000,WL,B,1.0
1,9.86299991607666,learn,50137.00008392334,Wed Sep 18 2024 09:26:19 GMT-0500 (Central Daylight Time),181997.3999999985,A,g,I,g,4182,1,4198.30000000447,177799.09999999404,8000,WL,B,2.0
1,10.19700002670288,learn,49802.99997329712,Wed Sep 18 2024 09:26:19 GMT-0500 (Central Daylight Time),182330.8999999985,A,gr,I,r,311,1,4531.80000000447,177799.09999999404,8000,WL,B,2.0
1,10.396999835968018,learn,49603.00016403198,Wed Sep 18 2024 09:26:19 GMT-0500 (Central Daylight Time),182530.8999999985,A,gra,I,a,186,1,4731.80000000447,177799.09999999404,8000,WL,B,2.0
1,10.712999820709229,learn,49287.00017929077,Wed Sep 18 2024 09:26:19 GMT-0500 (Central Daylight Time),182847.29999999702,A,gras,I,s,297,1,5048.20000000298,177799.09999999404,8000,WL,B,2.0
1,10.86299991607666,learn,49137.00008392334,Wed Sep 18 2024 09:26:19 GMT-0500 (Central Daylight Time),182997.19999999553,A,grass,I,s,141,1,5198.10000000149,177799.09999999404,8000,WL,B,2.0
1,11.495999813079834,learn,48504.000186920166,Wed Sep 18 2024 09:26:19 GMT-0500 (Central Daylight Time),183630.3999999985,A,grassenter,I,enter,616,1,5831.30000000447,177799.09999999404,8000,WL,B,2.0
1,12.095999956130981,learn,47904.00004386902,Wed Sep 18 2024 09:26:19 GMT-0500 (Central Daylight Time),184230.09999999404,A,s,I,s,582,1,599.0999999940395,183631.0,8000,WL,B,3.0
1,12.546000003814697,learn,47453.9999961853,Wed Sep 18 2024 09:26:19 GMT-0500 (Central Daylight Time),184680.09999999404,A,st,I,t,440,1,1049.0999999940395,183631.0,8000,WL,B,3.0
1,12.77899980545044,learn,47221.00019454956,Wed Sep 18 2024 09:26:19 GMT-0500 (Central Daylight Time),184913.19999999553,A,sta,I,a,212,1,1282.1999999955297,183631.0,8000,WL,B,3.0
1,12.978999853134155,learn,47021.000146865845,Wed Sep 18 2024 09:26:19 GMT-0500 (Central Daylight Time),185113.29999999702,A,star,I,r,180,1,1482.2999999970198,183631.0,8000,WL,B,3.0
1,13.828999996185303,learn,46171.0000038147,Wed Sep 18 2024 09:26:19 GMT-0500 (Central Daylight Time),185963.0,A,starenter,I,enter,836,1,2332.0,183631.0,8000,WL,B,3.0
1,14.428999900817871,learn,45571.00009918213,Wed Sep 18 2024 09:26:19 GMT-0500 (Central Daylight Time),186562.69999999553,A,a,I,a,579,1,599.2999999970198,185963.3999999985,8000,WL,B,4.0
1,14.961999893188477,learn,45038.00010681152,Wed Sep 18 2024 09:26:19 GMT-0500 (Central Daylight Time),187095.8999999985,A,ar,I,r,514,1,1132.5,185963.3999999985,8000,WL,B,4.0
1,15.610999822616577,learn,44389.00017738342,Wed Sep 18 2024 09:26:19 GMT-0500 (Central Daylight Time),187745.69999999553,A,arm,I,m,629,1,1782.2999999970198,185963.3999999985,8000,WL,B,4.0
1,16.310999870300293,learn,43689.00012969971,Wed Sep 18 2024 09:26:19 GMT-0500 (Central Daylight Time),188445.5,A,armenter,I,enter,684,1,2482.10000000149,185963.3999999985,8000,WL,B,4.0
1,17.91100001335144,learn,42088.99998664856,Wed Sep 18 2024 09:26:19 GMT-0500 (Central Daylight Time),190044.79999999702,A,f,I,f,1583,1,1598.7999999970198,188446.0,8000,WL,B,5.0
1,18.210999965667725,learn,41789.000034332275,Wed Sep 18 2024 09:26:19 GMT-0500 (Central Daylight Time),190344.79999999702,A,fi,I,i,281,1,1898.7999999970198,188446.0,8000,WL,B,5.0
1,18.65999984741211,learn,41340.00015258789,Wed Sep 18 2024 09:26:19 GMT-0500 (Central Daylight Time),190794.59999999404,A,fir,I,r,444,1,2348.5999999940395,188446.0,8000,WL,B,5.0
1,18.926999807357788,learn,41073.00019264221,Wed Sep 18 2024 09:26:19 GMT-0500 (Central Daylight Time),191061.29999999702,A,fire,I,e,260,1,2615.2999999970198,188446.0,8000,WL,B,5.0
1,19.40999984741211,learn,40590.00015258789,Wed Sep 18 2024 09:26:19 GMT-0500 (Central Daylight Time),191544.3999999985,A,fireenter,I,enter,463,1,3098.39999999851,188446.0,8000,WL,B,5.0
1,19.99399995803833,learn,40006.00004196167,Wed Sep 18 2024 09:26:19 GMT-0500 (Central Daylight Time),192127.79999999702,A,c,I,c,573,1,583.0,191544.79999999702,8000,WL,B,6.0
1,20.243000030517578,learn,39756.99996948242,Wed Sep 18 2024 09:26:19 GMT-0500 (Central Daylight Time),192377.59999999404,A,cl,I,l,229,1,832.7999999970198,191544.79999999702,8000,WL,B,6.0
1,20.526999950408936,learn,39473.000049591064,Wed Sep 18 2024 09:26:19 GMT-0500 (Central Daylight Time),192660.79999999702,A,clo,I,o,268,1,1116.0,191544.79999999702,8000,WL,B,6.0
1,20.925999879837036,learn,39074.000120162964,Wed Sep 18 2024 09:26:19 GMT-0500 (Central Daylight Time),193060.59999999404,A,cloc,I,c,384,1,1515.7999999970198,191544.79999999702,8000,WL,B,6.0
1,21.342999935150146,learn,38657.00006484985,Wed Sep 18 2024 09:26:19 GMT-0500 (Central Daylight Time),193477.19999999553,A,clock,I,k,408,1,1932.3999999985099,191544.79999999702,8000,WL,B,6.0
1,21.89299988746643,learn,38107.00011253357,Wed Sep 18 2024 09:26:19 GMT-0500 (Central Daylight Time),194027.09999999404,A,clockenter,I,enter,529,1,2482.2999999970198,191544.79999999702,8000,WL,B,6.0
1,24.241999864578247,learn,35758.00013542175,Wed Sep 18 2024 09:26:19 GMT-0500 (Central Daylight Time),196376.29999999702,A,c,I,c,2330,1,2348.7999999970198,194027.5,8000,WL,B,7.0
1,24.592000007629395,learn,35407.999992370605,Wed Sep 18 2024 09:26:19 GMT-0500 (Central Daylight Time),196726.19999999553,A,ci,I,i,339,1,2698.6999999955297,194027.5,8000,WL,B,7.0
1,24.857999801635742,learn,35142.00019836426,Wed Sep 18 2024 09:26:19 GMT-0500 (Central Daylight Time),196992.69999999553,A,cit,I,t,247,1,2965.1999999955297,194027.5,8000,WL,B,7.0
1,25.125,learn,34875.0,Wed Sep 18 2024 09:26:19 GMT-0500 (Central Daylight Time),197259.29999999702,A,city,I,y,260,1,3231.7999999970198,194027.5,8000,WL,B,7.0
1,25.47499990463257,learn,34525.00009536743,Wed Sep 18 2024 09:26:19 GMT-0500 (Central Daylight Time),197609.29999999702,A,cityenter,I,enter,330,1,3581.7999999970198,194027.5,8000,WL,B,7.0
1,31.740000009536743,learn,28259.999990463257,Wed Sep 18 2024 09:26:19 GMT-0500 (Central Daylight Time),203874.09999999404,A,l,I,l,6245,1,6264.39999999851,197609.69999999553,8000,WL,B,8.0
1,31.9229998588562,learn,28077.0001411438,Wed Sep 18 2024 09:26:19 GMT-0500 (Central Daylight Time),204057.29999999702,A,la,I,a,172,1,6447.60000000149,197609.69999999553,8000,WL,B,8.0
1,32.37299990653992,learn,27627.000093460083,Wed Sep 18 2024 09:26:19 GMT-0500 (Central Daylight Time),204506.8999999985,A,lak,I,k,444,1,6897.20000000298,197609.69999999553,8000,WL,B,8.0
1,32.6729998588562,learn,27327.0001411438,Wed Sep 18 2024 09:26:19 GMT-0500 (Central Daylight Time),204807.0,A,lake,I,e,290,1,7197.30000000447,197609.69999999553,8000,WL,B,8.0
1,33.1729998588562,learn,26827.0001411438,Wed Sep 18 2024 09:26:19 GMT-0500 (Central Daylight Time),205307.0,A,lakeenter,I,enter,479,1,7697.30000000447,197609.69999999553,8000,WL,B,8.0
1,37.9539999961853,learn,22046.000003814697,Wed Sep 18 2024 09:26:19 GMT-0500 (Central Daylight Time),210088.59999999404,A,s,I,s,4771,1,4781.19999999553,205307.3999999985,8000,WL,B,9.0
1,38.22099995613098,learn,21779.00004386902,Wed Sep 18 2024 09:26:19 GMT-0500 (Central Daylight Time),210355.0,A,sk,I,k,260,1,5047.60000000149,205307.3999999985,8000,WL,B,9.0
1,38.48799991607666,learn,21512.00008392334,Wed Sep 18 2024 09:26:19 GMT-0500 (Central Daylight Time),210621.79999999702,A,ski,I,i,258,1,5314.39999999851,205307.3999999985,8000,WL,B,9.0
1,38.82099986076355,learn,21179.00013923645,Wed Sep 18 2024 09:26:19 GMT-0500 (Central Daylight Time),210955.09999999404,A,skin,I,n,319,1,5647.69999999553,205307.3999999985,8000,WL,B,9.0
1,39.48699998855591,learn,20513.00001144409,Wed Sep 18 2024 09:26:19 GMT-0500 (Central Daylight Time),211621.5,A,skinenter,I,enter,658,1,6314.10000000149,205307.3999999985,8000,WL,B,9.0
1,44.2039999961853,learn,15796.000003814697,Wed Sep 18 2024 09:26:19 GMT-0500 (Central Daylight Time),216337.8999999985,A,g,I,g,4696,1,4716.0,211621.8999999985,8000,WL,B,10.0
1,44.585999965667725,learn,15414.000034332275,Wed Sep 18 2024 09:26:19 GMT-0500 (Central Daylight Time),216719.8999999985,A,gr,I,r,363,1,5098.0,211621.8999999985,8000,WL,B,10.0
1,44.819000005722046,learn,15180.999994277954,Wed Sep 18 2024 09:26:19 GMT-0500 (Central Daylight Time),216953.19999999553,A,gra,I,a,213,1,5331.29999999702,211621.8999999985,8000,WL,B,10.0
1,45.168999910354614,learn,14831.000089645386,Wed Sep 18 2024 09:26:19 GMT-0500 (Central Daylight Time),217303.09999999404,A,gras,I,s,332,1,5681.19999999553,211621.8999999985,8000,WL,B,10.0
1,45.36899995803833,learn,14631.00004196167,Wed Sep 18 2024 09:26:19 GMT-0500 (Central Daylight Time),217502.8999999985,A,grass,I,s,190,1,5881.0,211621.8999999985,8000,WL,B,10.0
1,45.78499984741211,learn,14215.00015258789,Wed Sep 18 2024 09:26:19 GMT-0500 (Central Daylight Time),217919.5,A,grassenter,I,enter,406,1,6297.60000000149,211621.8999999985,8000,WL,B,10.0
1,49.01799988746643,learn,10982.00011253357,Wed Sep 18 2024 09:26:19 GMT-0500 (Central Daylight Time),221151.8999999985,A,w,I,w,3222,1,3232.10000000149,217919.79999999702,8000,WL,B,11.0
1,49.35099983215332,learn,10649.00016784668,Wed Sep 18 2024 09:26:19 GMT-0500 (Central Daylight Time),221485.19999999553,A,wi,I,i,317,1,3565.39999999851,217919.79999999702,8000,WL,B,11.0
1,49.58399987220764,learn,10416.000127792358,Wed Sep 18 2024 09:26:19 GMT-0500 (Central Daylight Time),221718.59999999404,A,wif,I,f,216,1,3798.7999999970198,217919.79999999702,8000,WL,B,11.0
1,50.00099992752075,learn,9999.000072479248,Wed Sep 18 2024 09:26:19 GMT-0500 (Central Daylight Time),222134.8999999985,A,wife,I,e,407,1,4215.10000000149,217919.79999999702,8000,WL,B,11.0
1,50.28399991989136,learn,9716.000080108643,Wed Sep 18 2024 09:26:19 GMT-0500 (Central Daylight Time),222418.3999999985,A,wifeenter,I,enter,262,1,4498.60000000149,217919.79999999702,8000,WL,B,11.0
1,55.01600003242493,learn,4983.999967575073,Wed Sep 18 2024 09:26:19 GMT-0500 (Central Daylight Time),227150.29999999702,A,d,I,d,4723,1,4731.5,222418.79999999702,8000,WL,B,12.0
1,55.348999977111816,learn,4651.000022888184,Wed Sep 18 2024 09:26:19 GMT-0500 (Central Daylight Time),227483.29999999702,A,do,I,o,318,1,5064.5,222418.79999999702,8000,WL,B,12.0
1,55.532999992370605,learn,4467.0000076293945,Wed Sep 18 2024 09:26:19 GMT-0500 (Central Daylight Time),227666.79999999702,A,doo,I,o,163,1,5248.0,222418.79999999702,8000,WL,B,12.0
1,55.73199987411499,learn,4268.00012588501,Wed Sep 18 2024 09:26:19 GMT-0500 (Central Daylight Time),227866.59999999404,A,door,I,r,188,1,5447.79999999702,222418.79999999702,8000,WL,B,12.0
1,56.031999826431274,learn,3968.0001735687256,Wed Sep 18 2024 09:26:19 GMT-0500 (Central Daylight Time),228166.5,A,doorenter,I,enter,283,1,5747.70000000298,222418.79999999702,8000,WL,B,12.0
1,60.01600003242493,learn,-16.000032424926758,Wed Sep 18 2024 09:26:19 GMT-0500 (Central Daylight Time),232150.0,A,None,I,None,3978,1,3983.2000000029802,228166.79999999702,8000,WL,B,13.0
2,2.115999937057495,learn,57884.000062942505,Wed Sep 18 2024 09:26:19 GMT-0500 (Central Daylight Time),307141.799999997,A,s,I,s,2110,1,2116.10000000149,305025.69999999553,8000,WL,B,1.0
2,2.5819997787475586,learn,57418.00022125244,Wed Sep 18 2024 09:26:19 GMT-0500 (Central Daylight Time),307608.09999999404,A,st,I,t,447,1,2582.39999999851,305025.69999999553,8000,WL,B,1.0
2,2.9659998416900635,learn,57034.00015830994,Wed Sep 18 2024 09:26:19 GMT-0500 (Central Daylight Time),307991.3999999985,A,str,I,r,373,1,2965.7000000029802,305025.69999999553,8000,WL,B,1.0
2,3.182999849319458,learn,56817.00015068054,Wed Sep 18 2024 09:26:19 GMT-0500 (Central Daylight Time),308208.19999999553,A,strr,I,r,207,1,3182.5,305025.69999999553,8000,WL,B,1.0
2,3.748999834060669,learn,56251.00016593933,Wed Sep 18 2024 09:26:19 GMT-0500 (Central Daylight Time),308774.5,A,strre,I,e,550,1,3748.8000000044703,305025.69999999553,8000,WL,B,1.0
2,4.048999786376953,learn,55951.00021362305,Wed Sep 18 2024 09:26:19 GMT-0500 (Central Daylight Time),309074.3999999985,A,strret,I,t,287,1,4048.7000000029802,305025.69999999553,8000,WL,B,1.0
2,4.581999778747559,learn,55418.00022125244,Wed Sep 18 2024 09:26:19 GMT-0500 (Central Daylight Time),309607.59999999404,A,strretenter,I,enter,515,1,4581.89999999851,305025.69999999553,8000,WL,B,1.0
2,5.047999858856201,learn,54952.0001411438,Wed Sep 18 2024 09:26:19 GMT-0500 (Central Daylight Time),310074.09999999404,A,f,I,f,454,1,466.09999999403954,309608.0,8000,WL,B,2.0
2,5.331999778747559,learn,54668.00022125244,Wed Sep 18 2024 09:26:19 GMT-0500 (Central Daylight Time),310357.19999999553,A,fi,I,i,276,1,749.1999999955297,309608.0,8000,WL,B,2.0
2,5.648000001907349,learn,54351.99999809265,Wed Sep 18 2024 09:26:19 GMT-0500 (Central Daylight Time),310674.0,A,fir,I,r,296,1,1066.0,309608.0,8000,WL,B,2.0
2,5.914999961853027,learn,54085.00003814697,Wed Sep 18 2024 09:26:19 GMT-0500 (Central Daylight Time),310940.5,A,fire,I,e,252,1,1332.5,309608.0,8000,WL,B,2.0
2,7.148000001907349,learn,52851.99999809265,Wed Sep 18 2024 09:26:19 GMT-0500 (Central Daylight Time),312173.3999999985,A,firec,I,c,1217,1,2565.39999999851,309608.0,8000,WL,B,2.0
2,7.430999994277954,learn,52569.000005722046,Wed Sep 18 2024 09:26:19 GMT-0500 (Central Daylight Time),312456.59999999404,A,firecl,I,l,264,1,2848.5999999940395,309608.0,8000,WL,B,2.0
2,7.81499981880188,learn,52185.00018119812,Wed Sep 18 2024 09:26:19 GMT-0500 (Central Daylight Time),312840.8999999985,A,fireclo,I,o,365,1,3232.89999999851,309608.0,8000,WL,B,2.0
2,8.080999851226807,learn,51919.00014877319,Wed Sep 18 2024 09:26:19 GMT-0500 (Central Daylight Time),313106.59999999404,A,firecloc,I,c,252,1,3498.5999999940395,309608.0,8000,WL,B,2.0
2,8.29699993133545,learn,51703.00006866455,Wed Sep 18 2024 09:26:19 GMT-0500 (Central Daylight Time),313322.8999999985,A,fireclock,I,k,212,1,3714.89999999851,309608.0,8000,WL,B,2.0
2,8.879999876022339,learn,51120.00012397766,Wed Sep 18 2024 09:26:19 GMT-0500 (Central Daylight Time),313906.09999999404,A,fireclockenter,I,enter,562,1,4298.0999999940395,309608.0,8000,WL,B,2.0
2,9.396999835968018,learn,50603.00016403198,Wed Sep 18 2024 09:26:19 GMT-0500 (Central Daylight Time),314422.799999997,A,s,I,s,500,1,516.2999999970198,313906.5,8000,WL,B,3.0
2,9.77999997138977,learn,50220.00002861023,Wed Sep 18 2024 09:26:19 GMT-0500 (Central Daylight Time),314806.0,A,sk,I,k,376,1,899.5,313906.5,8000,WL,B,3.0
2,10.146999835968018,learn,49853.00016403198,Wed Sep 18 2024 09:26:19 GMT-0500 (Central Daylight Time),315172.299999997,A,ski,I,i,351,1,1265.7999999970198,313906.5,8000,WL,B,3.0
2,10.54699993133545,learn,49453.00006866455,Wed Sep 18 2024 09:26:19 GMT-0500 (Central Daylight Time),315572.5,A,skin,I,n,386,1,1666.0,313906.5,8000,WL,B,3.0
2,11.129999876022339,learn,48870.00012397766,Wed Sep 18 2024 09:26:19 GMT-0500 (Central Daylight Time),316155.299999997,A,skinenter,I,enter,562,1,2248.7999999970198,313906.5,8000,WL,B,3.0
2,11.77999997138977,learn,48220.00002861023,Wed Sep 18 2024 09:26:19 GMT-0500 (Central Daylight Time),316805.19999999553,A,a,I,a,643,1,649.6000000014901,316155.59999999404,8000,WL,B,4.0
2,12.212999820709229,learn,47787.00017929077,Wed Sep 18 2024 09:26:19 GMT-0500 (Central Daylight Time),317238.5,A,ar,I,r,417,1,1082.9000000059605,316155.59999999404,8000,WL,B,4.0
2,12.745999813079834,learn,47254.000186920166,Wed Sep 18 2024 09:26:19 GMT-0500 (Central Daylight Time),317771.3999999985,A,arm,I,m,526,1,1615.8000000044703,316155.59999999404,8000,WL,B,4.0
2,13.478999853134155,learn,46521.000146865845,Wed Sep 18 2024 09:26:19 GMT-0500 (Central Daylight Time),318504.799999997,A,armenter,I,enter,722,1,2349.2000000029802,316155.59999999404,8000,WL,B,4.0
2,16.277999877929688,learn,43722.00012207031,Wed Sep 18 2024 09:26:19 GMT-0500 (Central Daylight Time),321303.8999999985,A,c,I,c,2781,1,2798.8000000044703,318505.09999999404,8000,WL,B,5.0
2,16.57799983024597,learn,43422.00016975403,Wed Sep 18 2024 09:26:19 GMT-0500 (Central Daylight Time),321603.69999999553,A,ci,I,i,285,1,3098.60000000149,318505.09999999404,8000,WL,B,5.0
2,16.91099977493286,learn,43089.00022506714,Wed Sep 18 2024 09:26:19 GMT-0500 (Central Daylight Time),321937.09999999404,A,cit,I,t,313,1,3432.0,318505.09999999404,8000,WL,B,5.0
2,17.227999925613403,learn,42772.0000743866,Wed Sep 18 2024 09:26:19 GMT-0500 (Central Daylight Time),322253.69999999553,A,city,I,y,300,1,3748.60000000149,318505.09999999404,8000,WL,B,5.0
2,17.49399995803833,learn,42506.00004196167,Wed Sep 18 2024 09:26:19 GMT-0500 (Central Daylight Time),322520.09999999404,A,cityenter,I,enter,255,1,4015.0,318505.09999999404,8000,WL,B,5.0
2,18.210999965667725,learn,41789.000034332275,Wed Sep 18 2024 09:26:19 GMT-0500 (Central Daylight Time),323237.0,A,w,I,w,709,1,716.5,322520.5,8000,WL,B,6.0
2,18.51099991798401,learn,41489.00008201599,Wed Sep 18 2024 09:26:19 GMT-0500 (Central Daylight Time),323536.5,A,wi,I,i,288,1,1016.0,322520.5,8000,WL,B,6.0
2,18.82699990272522,learn,41173.00009727478,Wed Sep 18 2024 09:26:19 GMT-0500 (Central Daylight Time),323853.0,A,wif,I,f,301,1,1332.5,322520.5,8000,WL,B,6.0
2,19.22699999809265,learn,40773.00000190735,Wed Sep 18 2024 09:26:19 GMT-0500 (Central Daylight Time),324252.799999997,A,wife,I,e,385,1,1732.2999999970198,322520.5,8000,WL,B,6.0
2,19.709999799728394,learn,40290.00020027161,Wed Sep 18 2024 09:26:19 GMT-0500 (Central Daylight Time),324735.799999997,A,wifeenter,I,enter,474,1,2215.2999999970198,322520.5,8000,WL,B,6.0
2,23.358999967575073,learn,36641.00003242493,Wed Sep 18 2024 09:26:19 GMT-0500 (Central Daylight Time),328385.0,A,s,I,s,3627,1,3648.9000000059605,324736.09999999404,8000,WL,B,7.0
2,23.775999784469604,learn,36224.000215530396,Wed Sep 18 2024 09:26:19 GMT-0500 (Central Daylight Time),328801.5,A,st,I,t,405,1,4065.4000000059605,324736.09999999404,8000,WL,B,7.0
2,24.158999919891357,learn,35841.00008010864,Wed Sep 18 2024 09:26:19 GMT-0500 (Central Daylight Time),329184.69999999553,A,str,I,r,373,1,4448.60000000149,324736.09999999404,8000,WL,B,7.0
2,24.591999769210815,learn,35408.000230789185,Wed Sep 18 2024 09:26:19 GMT-0500 (Central Daylight Time),329618.09999999404,A,stre,I,e,422,1,4882.0,324736.09999999404,8000,WL,B,7.0
2,24.758999824523926,learn,35241.000175476074,Wed Sep 18 2024 09:26:19 GMT-0500 (Central Daylight Time),329784.5,A,stree,I,e,147,1,5048.4000000059605,324736.09999999404,8000,WL,B,7.0
2,25.074999809265137,learn,34925.00019073486,Wed Sep 18 2024 09:26:19 GMT-0500 (Central Daylight Time),330101.0,A,street,I,t,301,1,5364.9000000059605,324736.09999999404,8000,WL,B,7.0
2,25.491999864578247,learn,34508.00013542175,Wed Sep 18 2024 09:26:19 GMT-0500 (Central Daylight Time),330517.59999999404,A,streetenter,I,enter,409,1,5781.5,324736.09999999404,8000,WL,B,7.0
2,26.557999849319458,learn,33442.00015068054,Wed Sep 18 2024 09:26:19 GMT-0500 (Central Daylight Time),331583.8999999985,A,g,I,g,1057,1,1065.8999999985099,330518.0,8000,WL,B,8.0
2,26.907999992370605,learn,33092.000007629395,Wed Sep 18 2024 09:26:19 GMT-0500 (Central Daylight Time),331933.799999997,A,gr,I,r,341,1,1415.7999999970198,330518.0,8000,WL,B,8.0
2,27.091999769210815,learn,32908.000230789185,Wed Sep 18 2024 09:26:19 GMT-0500 (Central Daylight Time),332117.09999999404,A,gra,I,a,168,1,1599.0999999940395,330518.0,8000,WL,B,8.0
2,27.47499990463257,learn,32525.00009536743,Wed Sep 18 2024 09:26:19 GMT-0500 (Central Daylight Time),332500.5,A,gras,I,s,368,1,1982.5,330518.0,8000,WL,B,8.0
2,27.674999952316284,learn,32325.000047683716,Wed Sep 18 2024 09:26:19 GMT-0500 (Central Daylight Time),332700.5,A,grass,I,s,193,1,2182.5,330518.0,8000,WL,B,8.0
2,28.357999801635742,learn,31642.000198364258,Wed Sep 18 2024 09:26:19 GMT-0500 (Central Daylight Time),333383.5,A,grassenter,I,enter,673,1,2865.5,330518.0,8000,WL,B,8.0
2,34.75599980354309,learn,25244.00019645691,Wed Sep 18 2024 09:26:19 GMT-0500 (Central Daylight Time),339781.299999997,A,s,I,s,6382,1,6397.39999999851,333383.8999999985,8000,WL,B,9.0
2,35.22199988365173,learn,24778.000116348267,Wed Sep 18 2024 09:26:19 GMT-0500 (Central Daylight Time),340247.8999999985,A,st,I,t,455,1,6864.0,333383.8999999985,8000,WL,B,9.0
2,35.40499997138977,learn,24595.00002861023,Wed Sep 18 2024 09:26:19 GMT-0500 (Central Daylight Time),340431.09999999404,A,sta,I,a,166,1,7047.19999999553,333383.8999999985,8000,WL,B,9.0
2,35.638999938964844,learn,24361.000061035156,Wed Sep 18 2024 09:26:19 GMT-0500 (Central Daylight Time),340664.5,A,star,I,r,214,1,7280.60000000149,333383.8999999985,8000,WL,B,9.0
2,36.17199993133545,learn,23828.00006866455,Wed Sep 18 2024 09:26:19 GMT-0500 (Central Daylight Time),341197.69999999553,A,starenter,I,enter,526,1,7813.79999999702,333383.8999999985,8000,WL,B,9.0
2,40.83699989318848,learn,19163.000106811523,Wed Sep 18 2024 09:26:19 GMT-0500 (Central Daylight Time),345863.0,A,p,I,p,4649,1,4665.0,341198.0,8000,WL,B,10.0
2,41.23699998855591,learn,18763.00001144409,Wed Sep 18 2024 09:26:19 GMT-0500 (Central Daylight Time),346262.799999997,A,pu,I,u,382,1,5064.79999999702,341198.0,8000,WL,B,10.0
2,41.80399990081787,learn,18196.00009918213,Wed Sep 18 2024 09:26:19 GMT-0500 (Central Daylight Time),346829.299999997,A,pup,I,p,559,1,5631.29999999702,341198.0,8000,WL,B,10.0
2,42.169999837875366,learn,17830.000162124634,Wed Sep 18 2024 09:26:19 GMT-0500 (Central Daylight Time),347195.5,A,pupi,I,i,360,1,5997.5,341198.0,8000,WL,B,10.0
2,42.519999980926514,learn,17480.000019073486,Wed Sep 18 2024 09:26:19 GMT-0500 (Central Daylight Time),347545.5,A,pupil,I,l,338,1,6347.5,341198.0,8000,WL,B,10.0
2,43.14299988746643,learn,16857.00011253357,Wed Sep 18 2024 09:26:19 GMT-0500 (Central Daylight Time),348168.8999999985,A,pupilenter,I,enter,619,1,6970.89999999851,341198.0,8000,WL,B,10.0
2,52.49899983406067,learn,7501.000165939331,Wed Sep 18 2024 09:26:19 GMT-0500 (Central Daylight Time),357525.8999999985,A,l,I,l,9349,1,9356.60000000149,348169.299999997,8000,WL,B,11.0
2,52.73199987411499,learn,7268.00012588501,Wed Sep 18 2024 09:26:19 GMT-0500 (Central Daylight Time),357759.0,A,la,I,a,216,1,9589.70000000298,348169.299999997,8000,WL,B,11.0
2,52.98299980163574,learn,7017.000198364258,Wed Sep 18 2024 09:26:19 GMT-0500 (Central Daylight Time),358009.09999999404,A,lak,I,k,230,1,9839.79999999702,348169.299999997,8000,WL,B,11.0
2,53.282999992370605,learn,6717.0000076293945,Wed Sep 18 2024 09:26:19 GMT-0500 (Central Daylight Time),358309.3999999985,A,lake,I,e,284,1,10140.10000000149,348169.299999997,8000,WL,B,11.0
2,53.614999771118164,learn,6385.000228881836,Wed Sep 18 2024 09:26:19 GMT-0500 (Central Daylight Time),358642.0,A,lakeenter,I,enter,320,1,10472.70000000298,348169.299999997,8000,WL,B,11.0
2,59.746999979019165,learn,253.00002098083496,Wed Sep 18 2024 09:26:19 GMT-0500 (Central Daylight Time),364773.59999999404,A,c,I,c,6116,1,6131.19999999553,358642.3999999985,8000,WL,B,12.0
2,60.013999938964844,learn,-13.99993896484375,Wed Sep 18 2024 09:26:19 GMT-0500 (Central Daylight Time),365040.19999999553,A,cNone,I,None,262,1,6397.79999999702,358642.3999999985,8000,WL,B,12.0
3,2.0320000648498535,learn,57967.99993515015,Wed Sep 18 2024 09:26:19 GMT-0500 (Central Daylight Time),436051.09999999404,A,f,I,f,2028,1,2032.5,434018.59999999404,8000,WL,B,1.0
3,2.3320000171661377,learn,57667.99998283386,Wed Sep 18 2024 09:26:19 GMT-0500 (Central Daylight Time),436351.0,A,fi,I,i,282,1,2332.4000000059605,434018.59999999404,8000,WL,B,1.0
3,2.7159998416900635,learn,57284.00015830994,Wed Sep 18 2024 09:26:19 GMT-0500 (Central Daylight Time),436734.59999999404,A,fir,I,r,366,1,2716.0,434018.59999999404,8000,WL,B,1.0
3,2.9819998741149902,learn,57018.00012588501,Wed Sep 18 2024 09:26:19 GMT-0500 (Central Daylight Time),437000.8999999985,A,fire,I,e,248,1,2982.3000000044703,434018.59999999404,8000,WL,B,1.0
3,4.514999866485596,learn,55485.000133514404,Wed Sep 18 2024 09:26:19 GMT-0500 (Central Daylight Time),438533.69999999553,A,firec,I,c,1516,1,4515.10000000149,434018.59999999404,8000,WL,B,1.0
3,4.8480000495910645,learn,55151.999950408936,Wed Sep 18 2024 09:26:19 GMT-0500 (Central Daylight Time),438867.0,A,firecl,I,l,313,1,4848.4000000059605,434018.59999999404,8000,WL,B,1.0
3,5.0980000495910645,learn,54901.999950408936,Wed Sep 18 2024 09:26:19 GMT-0500 (Central Daylight Time),439117.0,A,fireclo,I,o,243,1,5098.4000000059605,434018.59999999404,8000,WL,B,1.0
3,5.365000009536743,learn,54634.99999046326,Wed Sep 18 2024 09:26:19 GMT-0500 (Central Daylight Time),439383.3999999985,A,firecloc,I,c,257,1,5364.80000000447,434018.59999999404,8000,WL,B,1.0
3,5.7149999141693115,learn,54285.00008583069,Wed Sep 18 2024 09:26:19 GMT-0500 (Central Daylight Time),439733.5,A,fireclock,I,k,335,1,5714.9000000059605,434018.59999999404,8000,WL,B,1.0
3,10.146999835968018,learn,49853.00016403198,Wed Sep 18 2024 09:26:19 GMT-0500 (Central Daylight Time),444165.3999999985,A,fireclockenter,I,enter,4416,1,10146.80000000447,434018.59999999404,8000,WL,B,1.0
3,11.463000059127808,learn,48536.99994087219,Wed Sep 18 2024 09:26:19 GMT-0500 (Central Daylight Time),445481.69999999553,A,f,I,f,1297,1,1316.0,444165.69999999553,8000,WL,B,2.0
3,11.77999997138977,learn,48220.00002861023,Wed Sep 18 2024 09:26:19 GMT-0500 (Central Daylight Time),445798.3999999985,A,fi,I,i,300,1,1632.7000000029802,444165.69999999553,8000,WL,B,2.0
3,12.079999923706055,learn,47920.000076293945,Wed Sep 18 2024 09:26:19 GMT-0500 (Central Daylight Time),446098.3999999985,A,fir,I,r,279,1,1932.7000000029802,444165.69999999553,8000,WL,B,2.0
3,12.345999956130981,learn,47654.00004386902,Wed Sep 18 2024 09:26:19 GMT-0500 (Central Daylight Time),446364.69999999553,A,fire,I,e,251,1,2199.0,444165.69999999553,8000,WL,B,2.0
3,14.628999948501587,learn,45371.00005149841,Wed Sep 18 2024 09:26:19 GMT-0500 (Central Daylight Time),448647.299999997,A,fireenter,I,enter,2265,1,4481.60000000149,444165.69999999553,8000,WL,B,2.0
3,15.494999885559082,learn,44505.00011444092,Wed Sep 18 2024 09:26:19 GMT-0500 (Central Daylight Time),449513.59999999404,A,c,I,c,846,1,865.8999999985099,448647.69999999553,8000,WL,B,3.0
3,15.84500002861023,learn,44154.99997138977,Wed Sep 18 2024 09:26:19 GMT-0500 (Central Daylight Time),449863.59999999404,A,cl,I,l,341,1,1215.8999999985099,448647.69999999553,8000,WL,B,3.0
3,16.128000020980835,learn,43871.999979019165,Wed Sep 18 2024 09:26:19 GMT-0500 (Central Daylight Time),450146.69999999553,A,clo,I,o,278,1,1499.0,448647.69999999553,8000,WL,B,3.0
3,16.560999870300293,learn,43439.00012969971,Wed Sep 18 2024 09:26:19 GMT-0500 (Central Daylight Time),450580.0,A,cloc,I,c,419,1,1932.3000000044703,448647.69999999553,8000,WL,B,3.0
3,16.878000020980835,learn,43121.999979019165,Wed Sep 18 2024 09:26:19 GMT-0500 (Central Daylight Time),450896.69999999553,A,clock,I,k,298,1,2249.0,448647.69999999553,8000,WL,B,3.0
3,17.76099991798401,learn,42239.00008201599,Wed Sep 18 2024 09:26:19 GMT-0500 (Central Daylight Time),451779.69999999553,A,clockenter,I,enter,869,1,3132.0,448647.69999999553,8000,WL,B,3.0
3,23.075999975204468,learn,36924.00002479553,Wed Sep 18 2024 09:26:19 GMT-0500 (Central Daylight Time),457094.69999999553,A,p,I,p,5299,1,5314.69999999553,451780.0,8000,WL,B,4.0
3,23.55900001525879,learn,36440.99998474121,Wed Sep 18 2024 09:26:19 GMT-0500 (Central Daylight Time),457577.8999999985,A,pu,I,u,472,1,5797.89999999851,451780.0,8000,WL,B,4.0
3,24.05900001525879,learn,35940.99998474121,Wed Sep 18 2024 09:26:19 GMT-0500 (Central Daylight Time),458077.799999997,A,pup,I,p,485,1,6297.79999999702,451780.0,8000,WL,B,4.0
3,24.408999919891357,learn,35591.00008010864,Wed Sep 18 2024 09:26:19 GMT-0500 (Central Daylight Time),458427.59999999404,A,pupi,I,i,337,1,6647.5999999940395,451780.0,8000,WL,B,4.0
3,24.774999856948853,learn,35225.00014305115,Wed Sep 18 2024 09:26:19 GMT-0500 (Central Daylight Time),458794.19999999553,A,pupil,I,l,346,1,7014.19999999553,451780.0,8000,WL,B,4.0
3,25.507999897003174,learn,34492.000102996826,Wed Sep 18 2024 09:26:19 GMT-0500 (Central Daylight Time),459527.19999999553,A,pupilenter,I,enter,715,1,7747.19999999553,451780.0,8000,WL,B,4.0
3,27.54099988937378,learn,32459.00011062622,Wed Sep 18 2024 09:26:19 GMT-0500 (Central Daylight Time),461559.8999999985,A,g,I,g,2014,1,2032.3000000044703,459527.59999999404,8000,WL,B,5.0
3,27.907999992370605,learn,32092.000007629395,Wed Sep 18 2024 09:26:19 GMT-0500 (Central Daylight Time),461926.59999999404,A,gr,I,r,351,1,2399.0,459527.59999999404,8000,WL,B,5.0
3,28.174000024795532,learn,31825.999975204468,Wed Sep 18 2024 09:26:19 GMT-0500 (Central Daylight Time),462193.0,A,gra,I,a,256,1,2665.4000000059605,459527.59999999404,8000,WL,B,5.0
3,28.5239999294281,learn,31476.0000705719,Wed Sep 18 2024 09:26:19 GMT-0500 (Central Daylight Time),462543.19999999553,A,gras,I,s,341,1,3015.60000000149,459527.59999999404,8000,WL,B,5.0
3,28.69099998474121,learn,31309.00001525879,Wed Sep 18 2024 09:26:19 GMT-0500 (Central Daylight Time),462709.59999999404,A,grass,I,s,159,1,3182.0,459527.59999999404,8000,WL,B,5.0
3,29.556999921798706,learn,30443.000078201294,Wed Sep 18 2024 09:26:19 GMT-0500 (Central Daylight Time),463576.0,A,grassenter,I,enter,849,1,4048.4000000059605,459527.59999999404,8000,WL,B,5.0
3,30.407000064849854,learn,29592.999935150146,Wed Sep 18 2024 09:26:19 GMT-0500 (Central Daylight Time),464425.69999999553,A,w,I,w,829,1,849.3999999985099,463576.299999997,8000,WL,B,6.0
3,31.52300000190735,learn,28476.99999809265,Wed Sep 18 2024 09:26:19 GMT-0500 (Central Daylight Time),465541.799999997,A,wi,I,i,1109,1,1965.5,463576.299999997,8000,WL,B,6.0
3,32.74000000953674,learn,27259.999990463257,Wed Sep 18 2024 09:26:19 GMT-0500 (Central Daylight Time),466758.299999997,A,wif,I,f,1200,1,3182.0,463576.299999997,8000,WL,B,6.0
3,33.25600004196167,learn,26743.99995803833,Wed Sep 18 2024 09:26:19 GMT-0500 (Central Daylight Time),467275.0,A,wife,I,e,504,1,3698.7000000029802,463576.299999997,8000,WL,B,6.0
3,33.789000034332275,learn,26210.999965667725,Wed Sep 18 2024 09:26:19 GMT-0500 (Central Daylight Time),467808.0,A,wifeenter,I,enter,524,1,4231.70000000298,463576.299999997,8000,WL,B,6.0
3,35.00600004196167,learn,24993.99995803833,Wed Sep 18 2024 09:26:19 GMT-0500 (Central Daylight Time),469024.5,A,l,I,l,1206,1,1216.1000000014901,467808.3999999985,8000,WL,B,7.0
3,35.289000034332275,learn,24710.999965667725,Wed Sep 18 2024 09:26:19 GMT-0500 (Central Daylight Time),469307.299999997,A,la,I,a,269,1,1498.8999999985099,467808.3999999985,8000,WL,B,7.0
3,35.97199988365173,learn,24028.000116348267,Wed Sep 18 2024 09:26:19 GMT-0500 (Central Daylight Time),469990.59999999404,A,lak,I,k,667,1,2182.1999999955297,467808.3999999985,8000,WL,B,7.0
3,36.23799991607666,learn,23762.00008392334,Wed Sep 18 2024 09:26:19 GMT-0500 (Central Daylight Time),470257.0,A,lake,I,e,256,1,2448.60000000149,467808.3999999985,8000,WL,B,7.0
3,36.80499982833862,learn,23195.000171661377,Wed Sep 18 2024 09:26:19 GMT-0500 (Central Daylight Time),470823.799999997,A,lakeenter,I,enter,548,1,3015.39999999851,467808.3999999985,8000,WL,B,7.0
3,37.72099995613098,learn,22279.00004386902,Wed Sep 18 2024 09:26:19 GMT-0500 (Central Daylight Time),471740.0,A,c,I,c,909,1,915.8000000044703,470824.19999999553,8000,WL,B,8.0
3,37.954999923706055,learn,22045.000076293945,Wed Sep 18 2024 09:26:19 GMT-0500 (Central Daylight Time),471973.299999997,A,ca,I,a,219,1,1149.1000000014901,470824.19999999553,8000,WL,B,8.0
3,38.63800001144409,learn,21361.99998855591,Wed Sep 18 2024 09:26:19 GMT-0500 (Central Daylight Time),472656.59999999404,A,cab,I,b,673,1,1832.3999999985099,470824.19999999553,8000,WL,B,8.0
3,39.12100005149841,learn,20878.999948501587,Wed Sep 18 2024 09:26:19 GMT-0500 (Central Daylight Time),473139.69999999553,A,cabi,I,i,470,1,2315.5,470824.19999999553,8000,WL,B,8.0
3,39.7039999961853,learn,20296.000003814697,Wed Sep 18 2024 09:26:19 GMT-0500 (Central Daylight Time),473722.69999999553,A,cabin,I,n,562,1,2898.5,470824.19999999553,8000,WL,B,8.0
3,40.353999853134155,learn,19646.000146865845,Wed Sep 18 2024 09:26:19 GMT-0500 (Central Daylight Time),474372.59999999404,A,cabinenter,I,enter,643,1,3548.39999999851,470824.19999999553,8000,WL,B,8.0
3,41.253000020980835,learn,18746.999979019165,Wed Sep 18 2024 09:26:19 GMT-0500 (Central Daylight Time),475272.19999999553,A,s,I,s,890,1,899.2999999970198,474372.8999999985,8000,WL,B,9.0
3,41.53699994087219,learn,18463.000059127808,Wed Sep 18 2024 09:26:19 GMT-0500 (Central Daylight Time),475555.59999999404,A,sk,I,k,270,1,1182.6999999955297,474372.8999999985,8000,WL,B,9.0
3,41.8199999332428,learn,18180.000066757202,Wed Sep 18 2024 09:26:19 GMT-0500 (Central Daylight Time),475838.799999997,A,ski,I,i,275,1,1465.8999999985099,474372.8999999985,8000,WL,B,9.0
3,42.168999910354614,learn,17831.000089645386,Wed Sep 18 2024 09:26:19 GMT-0500 (Central Daylight Time),476188.3999999985,A,skin,I,n,336,1,1815.5,474372.8999999985,8000,WL,B,9.0
3,42.76900005340576,learn,17230.99994659424,Wed Sep 18 2024 09:26:19 GMT-0500 (Central Daylight Time),476788.5,A,skinenter,I,enter,594,1,2415.60000000149,474372.8999999985,8000,WL,B,9.0
3,43.567999839782715,learn,16432.000160217285,Wed Sep 18 2024 09:26:19 GMT-0500 (Central Daylight Time),477588.3999999985,A,s,I,s,794,1,799.3999999985099,476789.0,8000,WL,B,10.0
3,43.96799993515015,learn,16032.000064849854,Wed Sep 18 2024 09:26:19 GMT-0500 (Central Daylight Time),477988.09999999404,A,st,I,t,385,1,1199.0999999940395,476789.0,8000,WL,B,10.0
3,44.18499994277954,learn,15815.000057220459,Wed Sep 18 2024 09:26:19 GMT-0500 (Central Daylight Time),478204.799999997,A,sta,I,a,210,1,1415.7999999970198,476789.0,8000,WL,B,10.0
3,44.41799998283386,learn,15582.000017166138,Wed Sep 18 2024 09:26:19 GMT-0500 (Central Daylight Time),478437.8999999985,A,star,I,r,225,1,1648.8999999985099,476789.0,8000,WL,B,10.0
3,45.48399996757507,learn,14516.000032424927,Wed Sep 18 2024 09:26:19 GMT-0500 (Central Daylight Time),479504.3999999985,A,starenter,I,enter,1049,1,2715.39999999851,476789.0,8000,WL,B,10.0
3,51.56599998474121,learn,8434.000015258789,Wed Sep 18 2024 09:26:19 GMT-0500 (Central Daylight Time),485585.59999999404,A,g,I,g,6061,1,6080.79999999702,479504.799999997,8000,WL,B,11.0
3,51.88199996948242,learn,8118.000030517578,Wed Sep 18 2024 09:26:19 GMT-0500 (Central Daylight Time),485902.19999999553,A,gr,I,r,309,1,6397.39999999851,479504.799999997,8000,WL,B,11.0
3,52.08200001716614,learn,7917.999982833862,Wed Sep 18 2024 09:26:19 GMT-0500 (Central Daylight Time),486102.19999999553,A,gra,I,a,184,1,6597.39999999851,479504.799999997,8000,WL,B,11.0
3,52.3989999294281,learn,7601.000070571899,Wed Sep 18 2024 09:26:19 GMT-0500 (Central Daylight Time),486419.0,A,gras,I,s,312,1,6914.20000000298,479504.799999997,8000,WL,B,11.0
3,52.598999977111816,learn,7401.000022888184,Wed Sep 18 2024 09:26:19 GMT-0500 (Central Daylight Time),486618.59999999404,A,grass,I,s,179,1,7113.79999999702,479504.799999997,8000,WL,B,11.0
3,53.03200006484985,learn,6967.9999351501465,Wed Sep 18 2024 09:26:19 GMT-0500 (Central Daylight Time),487051.799999997,A,grassenter,I,enter,419,1,7547.0,479504.799999997,8000,WL,B,11.0
3,56.348000049591064,learn,3651.9999504089355,Wed Sep 18 2024 09:26:19 GMT-0500 (Central Daylight Time),490367.5,A,a,I,a,3299,1,3315.4000000059605,487052.09999999404,8000,WL,B,12.0
3,56.88100004196167,learn,3118.99995803833,Wed Sep 18 2024 09:26:19 GMT-0500 (Central Daylight Time),490900.69999999553,A,ar,I,r,519,1,3848.60000000149,487052.09999999404,8000,WL,B,12.0
3,57.829999923706055,learn,2170.0000762939453,Wed Sep 18 2024 09:26:19 GMT-0500 (Central Daylight Time),491850.299999997,A,arm,I,m,938,1,4798.20000000298,487052.09999999404,8000,WL,B,12.0
3,58.64699983596802,learn,1353.0001640319824,Wed Sep 18 2024 09:26:19 GMT-0500 (Central Daylight Time),492666.799999997,A,armenter,I,enter,804,1,5614.70000000298,487052.09999999404,8000,WL,B,12.0
3,60.01300001144409,learn,-13.000011444091797,Wed Sep 18 2024 09:26:19 GMT-0500 (Central Daylight Time),494033.09999999404,A,None,I,None,1362,1,1366.0,492667.09999999404,8000,WL,B,13.0
4,2.0989999771118164,learn,57901.00002288818,Wed Sep 18 2024 09:26:19 GMT-0500 (Central Daylight Time),567326.5,A,f,I,f,2091,1,2099.10000000149,565227.3999999985,8000,WL,B,1.0
4,2.3990001678466797,learn,57600.99983215332,Wed Sep 18 2024 09:26:19 GMT-0500 (Central Daylight Time),567626.1999999955,A,fi,I,i,286,1,2398.7999999970198,565227.3999999985,8000,WL,B,1.0
4,2.815999984741211,learn,57184.00001525879,Wed Sep 18 2024 09:26:19 GMT-0500 (Central Daylight Time),568042.799999997,A,fir,I,r,403,1,2815.39999999851,565227.3999999985,8000,WL,B,1.0
4,3.1660001277923584,learn,56833.99987220764,Wed Sep 18 2024 09:26:19 GMT-0500 (Central Daylight Time),568392.8999999985,A,fire,I,e,330,1,3165.5,565227.3999999985,8000,WL,B,1.0
4,3.7990000247955322,learn,56200.99997520447,Wed Sep 18 2024 09:26:19 GMT-0500 (Central Daylight Time),569025.799999997,A,fireenter,I,enter,620,1,3798.39999999851,565227.3999999985,8000,WL,B,1.0
4,4.832000017166138,learn,55167.99998283386,Wed Sep 18 2024 09:26:19 GMT-0500 (Central Daylight Time),570059.099999994,A,s,I,s,1013,1,1033.0999999940395,569026.0,8000,WL,B,2.0
4,5.265000104904175,learn,54734.999895095825,Wed Sep 18 2024 09:26:19 GMT-0500 (Central Daylight Time),570492.5,A,sk,I,k,419,1,1466.5,569026.0,8000,WL,B,2.0
4,5.549000024795532,learn,54450.99997520447,Wed Sep 18 2024 09:26:19 GMT-0500 (Central Daylight Time),570775.8999999985,A,ski,I,i,274,1,1749.8999999985099,569026.0,8000,WL,B,2.0
4,5.932000160217285,learn,54067.999839782715,Wed Sep 18 2024 09:26:19 GMT-0500 (Central Daylight Time),571158.8999999985,A,skin,I,n,367,1,2132.89999999851,569026.0,8000,WL,B,2.0
4,6.648000001907349,learn,53351.99999809265,Wed Sep 18 2024 09:26:19 GMT-0500 (Central Daylight Time),571875.299999997,A,skinenter,I,enter,712,1,2849.2999999970198,569026.0,8000,WL,B,2.0
4,7.365000009536743,learn,52634.99999046326,Wed Sep 18 2024 09:26:19 GMT-0500 (Central Daylight Time),572591.8999999985,A,s,I,s,699,1,716.3999999985099,571875.5,8000,WL,B,3.0
4,7.781000137329102,learn,52218.9998626709,Wed Sep 18 2024 09:26:19 GMT-0500 (Central Daylight Time),573008.299999997,A,st,I,t,399,1,1132.7999999970198,571875.5,8000,WL,B,3.0
4,8.014000177383423,learn,51985.99982261658,Wed Sep 18 2024 09:26:19 GMT-0500 (Central Daylight Time),573241.5,A,sta,I,a,221,1,1366.0,571875.5,8000,WL,B,3.0
4,8.248000144958496,learn,51751.999855041504,Wed Sep 18 2024 09:26:19 GMT-0500 (Central Daylight Time),573475.0,A,star,I,r,229,1,1599.5,571875.5,8000,WL,B,3.0
4,8.898000001907349,learn,51101.99999809265,Wed Sep 18 2024 09:26:19 GMT-0500 (Central Daylight Time),574124.799999997,A,starenter,I,enter,636,1,2249.2999999970198,571875.5,8000,WL,B,3.0
4,9.398000001907349,learn,50601.99999809265,Wed Sep 18 2024 09:26:19 GMT-0500 (Central Daylight Time),574624.799999997,A,a,I,a,482,1,499.79999999701977,574125.0,8000,WL,B,4.0
4,9.96399998664856,learn,50036.00001335144,Wed Sep 18 2024 09:26:19 GMT-0500 (Central Daylight Time),575191.0,A,ar,I,r,550,1,1066.0,574125.0,8000,WL,B,4.0
4,10.864000082015991,learn,49135.99991798401,Wed Sep 18 2024 09:26:19 GMT-0500 (Central Daylight Time),576090.799999997,A,arm,I,m,880,1,1965.7999999970198,574125.0,8000,WL,B,4.0
4,11.513000011444092,learn,48486.99998855591,Wed Sep 18 2024 09:26:19 GMT-0500 (Central Daylight Time),576740.599999994,A,armenter,I,enter,643,1,2615.5999999940395,574125.0,8000,WL,B,4.0
4,12.28000020980835,learn,47719.99979019165,Wed Sep 18 2024 09:26:19 GMT-0500 (Central Daylight Time),577506.8999999985,A,p,I,p,762,1,765.8999999985099,576741.0,8000,WL,B,5.0
4,12.746000051498413,learn,47253.99994850159,Wed Sep 18 2024 09:26:19 GMT-0500 (Central Daylight Time),577973.599999994,A,pu,I,u,452,1,1232.5999999940395,576741.0,8000,WL,B,5.0
4,13.229000091552734,learn,46770.999908447266,Wed Sep 18 2024 09:26:19 GMT-0500 (Central Daylight Time),578456.3999999985,A,pup,I,p,472,1,1715.3999999985099,576741.0,8000,WL,B,5.0
4,13.578999996185303,learn,46421.0000038147,Wed Sep 18 2024 09:26:19 GMT-0500 (Central Daylight Time),578806.3999999985,A,pupi,I,i,342,1,2065.39999999851,576741.0,8000,WL,B,5.0
4,13.946000099182129,learn,46053.99990081787,Wed Sep 18 2024 09:26:19 GMT-0500 (Central Daylight Time),579173.1999999955,A,pupil,I,l,359,1,2432.1999999955297,576741.0,8000,WL,B,5.0
4,14.696000099182129,learn,45303.99990081787,Wed Sep 18 2024 09:26:19 GMT-0500 (Central Daylight Time),579922.799999997,A,pupilenter,I,enter,745,1,3181.7999999970198,576741.0,8000,WL,B,5.0
4,16.28000020980835,learn,43719.99979019165,Wed Sep 18 2024 09:26:19 GMT-0500 (Central Daylight Time),581506.8999999985,A,s,I,s,1563,1,1583.8999999985099,579923.0,8000,WL,B,6.0
4,16.66200017929077,learn,43337.99982070923,Wed Sep 18 2024 09:26:19 GMT-0500 (Central Daylight Time),581889.0,A,st,I,t,364,1,1966.0,579923.0,8000,WL,B,6.0
4,16.962000131607056,learn,43037.999868392944,Wed Sep 18 2024 09:26:19 GMT-0500 (Central Daylight Time),582188.6999999955,A,str,I,r,293,1,2265.6999999955297,579923.0,8000,WL,B,6.0
4,17.394999980926514,learn,42605.000019073486,Wed Sep 18 2024 09:26:19 GMT-0500 (Central Daylight Time),582621.8999999985,A,stre,I,e,418,1,2698.89999999851,579923.0,8000,WL,B,6.0
4,17.561000108718872,learn,42438.99989128113,Wed Sep 18 2024 09:26:19 GMT-0500 (Central Daylight Time),582788.5,A,stree,I,e,161,1,2865.5,579923.0,8000,WL,B,6.0
4,17.978000164031982,learn,42021.99983596802,Wed Sep 18 2024 09:26:19 GMT-0500 (Central Daylight Time),583205.1999999955,A,street,I,t,410,1,3282.1999999955297,579923.0,8000,WL,B,6.0
4,18.42200016975403,learn,41577.99983024597,Wed Sep 18 2024 09:26:19 GMT-0500 (Central Daylight Time),583648.8999999985,A,streetenter,I,enter,439,1,3725.89999999851,579923.0,8000,WL,B,6.0
4,18.978000164031982,learn,41021.99983596802,Wed Sep 18 2024 09:26:19 GMT-0500 (Central Daylight Time),584204.8999999985,A,w,I,w,550,1,555.7000000029802,583649.1999999955,8000,WL,B,7.0
4,19.24400019645691,learn,40755.99980354309,Wed Sep 18 2024 09:26:19 GMT-0500 (Central Daylight Time),584471.5,A,wi,I,i,250,1,822.3000000044703,583649.1999999955,8000,WL,B,7.0
4,19.628000020980835,learn,40371.999979019165,Wed Sep 18 2024 09:26:19 GMT-0500 (Central Daylight Time),584854.6999999955,A,win,I,n,375,1,1205.5,583649.1999999955,8000,WL,B,7.0
4,19.99400019645691,learn,40005.99980354309,Wed Sep 18 2024 09:26:19 GMT-0500 (Central Daylight Time),585221.1999999955,A,wind,I,d,352,1,1572.0,583649.1999999955,8000,WL,B,7.0
4,20.211000204086304,learn,39788.999795913696,Wed Sep 18 2024 09:26:19 GMT-0500 (Central Daylight Time),585437.8999999985,A,windo,I,o,209,1,1788.7000000029802,583649.1999999955,8000,WL,B,7.0
4,21.16000008583069,learn,38839.99991416931,Wed Sep 18 2024 09:26:19 GMT-0500 (Central Daylight Time),586387.1999999955,A,window,I,w,944,1,2738.0,583649.1999999955,8000,WL,B,7.0
4,21.759999990463257,learn,38240.00000953674,Wed Sep 18 2024 09:26:19 GMT-0500 (Central Daylight Time),586987.1999999955,A,windowenter,I,enter,586,1,3338.0,583649.1999999955,8000,WL,B,7.0
4,22.443000078201294,learn,37556.999921798706,Wed Sep 18 2024 09:26:19 GMT-0500 (Central Daylight Time),587670.3999999985,A,w,I,w,667,1,682.7000000029802,586987.6999999955,8000,WL,B,8.0
4,22.743000030517578,learn,37256.99996948242,Wed Sep 18 2024 09:26:19 GMT-0500 (Central Daylight Time),587970.299999997,A,wi,I,i,288,1,982.6000000014901,586987.6999999955,8000,WL,B,8.0
4,23.061000108718872,learn,36938.99989128113,Wed Sep 18 2024 09:26:19 GMT-0500 (Central Daylight Time),588288.0,A,wif,I,f,300,1,1300.3000000044703,586987.6999999955,8000,WL,B,8.0
4,23.426000118255615,learn,36573.999881744385,Wed Sep 18 2024 09:26:19 GMT-0500 (Central Daylight Time),588653.3999999985,A,wife,I,e,359,1,1665.7000000029802,586987.6999999955,8000,WL,B,8.0
4,23.9760000705719,learn,36023.9999294281,Wed Sep 18 2024 09:26:19 GMT-0500 (Central Daylight Time),589203.1999999955,A,wifeenter,I,enter,538,1,2215.5,586987.6999999955,8000,WL,B,8.0
4,25.95900011062622,learn,34040.99988937378,Wed Sep 18 2024 09:26:19 GMT-0500 (Central Daylight Time),591185.8999999985,A,g,I,g,1971,1,1982.3000000044703,589203.599999994,8000,WL,B,9.0
4,26.342000007629395,learn,33657.999992370605,Wed Sep 18 2024 09:26:19 GMT-0500 (Central Daylight Time),591569.099999994,A,gr,I,r,365,1,2365.5,589203.599999994,8000,WL,B,9.0
4,26.60800004005432,learn,33391.99995994568,Wed Sep 18 2024 09:26:19 GMT-0500 (Central Daylight Time),591835.599999994,A,gra,I,a,261,1,2632.0,589203.599999994,8000,WL,B,9.0
4,26.975000143051147,learn,33024.99985694885,Wed Sep 18 2024 09:26:19 GMT-0500 (Central Daylight Time),592202.299999997,A,gras,I,s,355,1,2998.7000000029802,589203.599999994,8000,WL,B,9.0
4,27.175000190734863,learn,32824.99980926514,Wed Sep 18 2024 09:26:19 GMT-0500 (Central Daylight Time),592402.299999997,A,grass,I,s,180,1,3198.7000000029802,589203.599999994,8000,WL,B,9.0
4,27.79200005531311,learn,32207.99994468689,Wed Sep 18 2024 09:26:19 GMT-0500 (Central Daylight Time),593018.6999999955,A,grassenter,I,enter,595,1,3815.10000000149,589203.599999994,8000,WL,B,9.0
4,30.20800018310547,learn,29791.99981689453,Wed Sep 18 2024 09:26:19 GMT-0500 (Central Daylight Time),595434.6999999955,A,p,I,p,2404,1,2415.6999999955297,593019.0,8000,WL,B,10.0
4,30.60700011253357,learn,29392.99988746643,Wed Sep 18 2024 09:26:19 GMT-0500 (Central Daylight Time),595834.599999994,A,pi,I,i,388,1,2815.5999999940395,593019.0,8000,WL,B,10.0
4,31.106000185012817,learn,28893.999814987183,Wed Sep 18 2024 09:26:19 GMT-0500 (Central Daylight Time),596334.3999999985,A,pip,I,p,484,1,3315.39999999851,593019.0,8000,WL,B,10.0
4,31.456000089645386,learn,28543.999910354614,Wed Sep 18 2024 09:26:19 GMT-0500 (Central Daylight Time),596684.299999997,A,pipe,I,e,336,1,3665.2999999970198,593019.0,8000,WL,B,10.0
4,32.13900017738342,learn,27860.999822616577,Wed Sep 18 2024 09:26:19 GMT-0500 (Central Daylight Time),597367.299999997,A,pipeenter,I,enter,674,1,4348.29999999702,593019.0,8000,WL,B,10.0
4,37.48900008201599,learn,22510.99991798401,Wed Sep 18 2024 09:26:19 GMT-0500 (Central Daylight Time),602716.8999999985,A,l,I,l,5343,1,5349.20000000298,597367.6999999955,8000,WL,B,11.0
4,37.78800010681152,learn,22211.999893188477,Wed Sep 18 2024 09:26:19 GMT-0500 (Central Daylight Time),603015.6999999955,A,la,I,a,289,1,5648.0,597367.6999999955,8000,WL,B,11.0
4,38.03700017929077,learn,21962.99982070923,Wed Sep 18 2024 09:26:19 GMT-0500 (Central Daylight Time),603265.599999994,A,lak,I,k,239,1,5897.89999999851,597367.6999999955,8000,WL,B,11.0
4,38.32100009918213,learn,21678.99990081787,Wed Sep 18 2024 09:26:19 GMT-0500 (Central Daylight Time),603548.799999997,A,lake,I,e,277,1,6181.10000000149,597367.6999999955,8000,WL,B,11.0
4,38.7039999961853,learn,21296.000003814697,Wed Sep 18 2024 09:26:19 GMT-0500 (Central Daylight Time),603932.0,A,lakeenter,I,enter,370,1,6564.30000000447,597367.6999999955,8000,WL,B,11.0
4,39.4210000038147,learn,20578.999996185303,Wed Sep 18 2024 09:26:19 GMT-0500 (Central Daylight Time),604648.799999997,A,c,I,c,706,1,716.2999999970198,603932.5,8000,WL,B,12.0
4,39.63700008392334,learn,20362.99991607666,Wed Sep 18 2024 09:26:19 GMT-0500 (Central Daylight Time),604865.0,A,ca,I,a,198,1,932.5,603932.5,8000,WL,B,12.0
4,40.12000012397766,learn,19879.99987602234,Wed Sep 18 2024 09:26:19 GMT-0500 (Central Daylight Time),605348.1999999955,A,cab,I,b,478,1,1415.6999999955297,603932.5,8000,WL,B,12.0
4,40.48699998855591,learn,19513.00001144409,Wed Sep 18 2024 09:26:19 GMT-0500 (Central Daylight Time),605715.099999994,A,cabi,I,i,362,1,1782.5999999940395,603932.5,8000,WL,B,12.0
4,40.87000012397766,learn,19129.99987602234,Wed Sep 18 2024 09:26:19 GMT-0500 (Central Daylight Time),606098.1999999955,A,cabin,I,n,372,1,2165.6999999955297,603932.5,8000,WL,B,12.0
4,41.96399998664856,learn,18036.00001335144,Wed Sep 18 2024 09:26:19 GMT-0500 (Central Daylight Time),607192.599999994,A,cabinenter,I,enter,1073,1,3260.0999999940395,603932.5,8000,WL,B,12.0
4,44.30200004577637,learn,15697.999954223633,Wed Sep 18 2024 09:26:19 GMT-0500 (Central Daylight Time),609530.3999999985,A,f,I,f,2318,1,2337.60000000149,607192.799999997,8000,WL,B,13.0
4,44.61900019645691,learn,15380.99980354309,Wed Sep 18 2024 09:26:19 GMT-0500 (Central Daylight Time),609846.799999997,A,fi,I,i,300,1,2654.0,607192.799999997,8000,WL,B,13.0
4,44.83500003814697,learn,15164.999961853027,Wed Sep 18 2024 09:26:19 GMT-0500 (Central Daylight Time),610063.5,A,fir,I,r,208,1,2870.7000000029802,607192.799999997,8000,WL,B,13.0
4,45.13499999046326,learn,14865.000009536743,Wed Sep 18 2024 09:26:19 GMT-0500 (Central Daylight Time),610363.1999999955,A,fire,I,e,287,1,3170.39999999851,607192.799999997,8000,WL,B,13.0
4,45.41799998283386,learn,14582.000017166138,Wed Sep 18 2024 09:26:19 GMT-0500 (Central Daylight Time),610646.5,A,fireenter,I,enter,267,1,3453.7000000029802,607192.799999997,8000,WL,B,13.0
4,52.39900016784668,learn,7600.99983215332,Wed Sep 18 2024 09:26:19 GMT-0500 (Central Daylight Time),617627.599999994,A,s,I,s,6960,1,6980.69999999553,610646.8999999985,8000,WL,B,14.0
4,52.85000014305115,learn,7149.9998569488525,Wed Sep 18 2024 09:26:19 GMT-0500 (Central Daylight Time),618077.6999999955,A,st,I,t,442,1,7430.79999999702,610646.8999999985,8000,WL,B,14.0
4,53.199000120162964,learn,6800.999879837036,Wed Sep 18 2024 09:26:19 GMT-0500 (Central Daylight Time),618427.599999994,A,str,I,r,329,1,7780.69999999553,610646.8999999985,8000,WL,B,14.0
4,54.098999977111816,learn,5901.000022888184,Wed Sep 18 2024 09:26:19 GMT-0500 (Central Daylight Time),619327.0,A,stre,I,e,883,1,8680.10000000149,610646.8999999985,8000,WL,B,14.0
4,54.28200006484985,learn,5717.9999351501465,Wed Sep 18 2024 09:26:19 GMT-0500 (Central Daylight Time),619510.3999999985,A,stree,I,e,176,1,8863.5,610646.8999999985,8000,WL,B,14.0
4,54.61500000953674,learn,5384.999990463257,Wed Sep 18 2024 09:26:19 GMT-0500 (Central Daylight Time),619843.5,A,street,I,t,328,1,9196.60000000149,610646.8999999985,8000,WL,B,14.0
4,55.415000200271606,learn,4584.999799728394,Wed Sep 18 2024 09:26:19 GMT-0500 (Central Daylight Time),620643.3999999985,A,streetenter,I,enter,787,1,9996.5,610646.8999999985,8000,WL,B,14.0
4,60.01400017738342,learn,-14.000177383422852,Wed Sep 18 2024 09:26:19 GMT-0500 (Central Daylight Time),625242.0,A,None,I,None,4594,1,4598.30000000447,620643.6999999955,8000,WL,B,15.0
5,3.5319998264312744,learn,60000.0,Wed Sep 18 2024 09:26:19 GMT-0500 (Central Daylight Time),697202.799999997,A,f,I,f,3521,1,3532.10000000149,693670.6999999955,8000,WL,B,1.0
5,3.7319998741149902,learn,60000.0,Wed Sep 18 2024 09:26:19 GMT-0500 (Central Daylight Time),697403.0,A,fi,I,i,187,1,3732.3000000044703,693670.6999999955,8000,WL,B,1.0
5,4.48199987411499,learn,60000.0,Wed Sep 18 2024 09:26:19 GMT-0500 (Central Daylight Time),698152.5,A,fir,I,r,739,1,4481.80000000447,693670.6999999955,8000,WL,B,1.0
5,4.781999826431274,learn,60000.0,Wed Sep 18 2024 09:26:19 GMT-0500 (Central Daylight Time),698452.299999997,A,fire,I,e,286,1,4781.60000000149,693670.6999999955,8000,WL,B,1.0
5,5.565000057220459,learn,60000.0,Wed Sep 18 2024 09:26:19 GMT-0500 (Central Daylight Time),699235.1999999955,A,fireenter,I,enter,762,1,5564.5,693670.6999999955,8000,WL,B,1.0
5,6.180999994277954,learn,60000.0,Wed Sep 18 2024 09:26:19 GMT-0500 (Central Daylight Time),699851.6999999955,A,a,I,a,602,1,616.2999999970198,699235.3999999985,8000,WL,B,2.0
5,6.697000026702881,learn,60000.0,Wed Sep 18 2024 09:26:19 GMT-0500 (Central Daylight Time),700368.1999999955,A,ar,I,r,507,1,1132.7999999970198,699235.3999999985,8000,WL,B,2.0
5,7.543999910354614,learn,60000.0,Wed Sep 18 2024 09:26:19 GMT-0500 (Central Daylight Time),701215.0,A,arm,I,m,841,1,1979.6000000014901,699235.3999999985,8000,WL,B,2.0
5,8.148000001907349,learn,60000.0,Wed Sep 18 2024 09:26:19 GMT-0500 (Central Daylight Time),701819.0,A,armenter,I,enter,582,1,2583.60000000149,699235.3999999985,8000,WL,B,2.0
5,8.879999876022339,learn,60000.0,Wed Sep 18 2024 09:26:19 GMT-0500 (Central Daylight Time),702550.599999994,A,c,I,c,723,1,731.3999999985099,701819.1999999955,8000,WL,B,3.0
5,9.162999868392944,learn,60000.0,Wed Sep 18 2024 09:26:19 GMT-0500 (Central Daylight Time),702834.099999994,A,cl,I,l,263,1,1014.8999999985099,701819.1999999955,8000,WL,B,3.0
5,9.513000011444092,learn,60000.0,Wed Sep 18 2024 09:26:19 GMT-0500 (Central Daylight Time),703184.0,A,clo,I,o,329,1,1364.8000000044703,701819.1999999955,8000,WL,B,3.0
5,9.77999997138977,learn,60000.0,Wed Sep 18 2024 09:26:19 GMT-0500 (Central Daylight Time),703450.5,A,cloc,I,c,252,1,1631.3000000044703,701819.1999999955,8000,WL,B,3.0
5,10.02999997138977,learn,60000.0,Wed Sep 18 2024 09:26:19 GMT-0500 (Central Daylight Time),703700.3999999985,A,clock,I,k,236,1,1881.2000000029802,701819.1999999955,8000,WL,B,3.0
5,10.812999963760376,learn,60000.0,Wed Sep 18 2024 09:26:19 GMT-0500 (Central Daylight Time),704483.599999994,A,clockenter,I,enter,777,1,2664.39999999851,701819.1999999955,8000,WL,B,3.0
5,12.678999900817871,learn,60000.0,Wed Sep 18 2024 09:26:19 GMT-0500 (Central Daylight Time),706349.799999997,A,p,I,p,1850,1,1866.0,704483.799999997,8000,WL,B,4.0
5,13.145999908447266,learn,60000.0,Wed Sep 18 2024 09:26:19 GMT-0500 (Central Daylight Time),706816.3999999985,A,pu,I,u,457,1,2332.60000000149,704483.799999997,8000,WL,B,4.0
5,13.611999988555908,learn,60000.0,Wed Sep 18 2024 09:26:19 GMT-0500 (Central Daylight Time),707282.8999999985,A,pup,I,p,454,1,2799.10000000149,704483.799999997,8000,WL,B,4.0
5,14.062000036239624,learn,60000.0,Wed Sep 18 2024 09:26:19 GMT-0500 (Central Daylight Time),707732.8999999985,A,pupi,I,i,436,1,3249.10000000149,704483.799999997,8000,WL,B,4.0
5,14.44599986076355,learn,60000.0,Wed Sep 18 2024 09:26:19 GMT-0500 (Central Daylight Time),708116.1999999955,A,pupil,I,l,370,1,3632.39999999851,704483.799999997,8000,WL,B,4.0
5,15.128000020980835,learn,60000.0,Wed Sep 18 2024 09:26:19 GMT-0500 (Central Daylight Time),708799.099999994,A,pupilenter,I,enter,666,1,4315.29999999702,704483.799999997,8000,WL,B,4.0
5,16.277999877929688,learn,60000.0,Wed Sep 18 2024 09:26:19 GMT-0500 (Central Daylight Time),709948.5,A,g,I,g,1135,1,1149.1000000014901,708799.3999999985,8000,WL,B,5.0
5,16.611000061035156,learn,60000.0,Wed Sep 18 2024 09:26:19 GMT-0500 (Central Daylight Time),710281.6999999955,A,gr,I,r,321,1,1482.2999999970198,708799.3999999985,8000,WL,B,5.0
5,16.89400005340576,learn,60000.0,Wed Sep 18 2024 09:26:19 GMT-0500 (Central Daylight Time),710564.8999999985,A,gra,I,a,267,1,1765.5,708799.3999999985,8000,WL,B,5.0
5,17.293999910354614,learn,60000.0,Wed Sep 18 2024 09:26:19 GMT-0500 (Central Daylight Time),710964.799999997,A,gras,I,s,385,1,2165.39999999851,708799.3999999985,8000,WL,B,5.0
5,17.477999925613403,learn,60000.0,Wed Sep 18 2024 09:26:19 GMT-0500 (Central Daylight Time),711148.1999999955,A,grass,I,s,170,1,2348.7999999970198,708799.3999999985,8000,WL,B,5.0
5,18.293999910354614,learn,60000.0,Wed Sep 18 2024 09:26:19 GMT-0500 (Central Daylight Time),711964.5,A,grassenter,I,enter,809,1,3165.10000000149,708799.3999999985,8000,WL,B,5.0
5,18.89400005340576,learn,60000.0,Wed Sep 18 2024 09:26:19 GMT-0500 (Central Daylight Time),712564.5,A,s,I,s,586,1,599.8000000044703,711964.6999999955,8000,WL,B,6.0
5,19.243000030517578,learn,60000.0,Wed Sep 18 2024 09:26:19 GMT-0500 (Central Daylight Time),712914.099999994,A,st,I,t,329,1,949.3999999985099,711964.6999999955,8000,WL,B,6.0
5,20.625999927520752,learn,60000.0,Wed Sep 18 2024 09:26:19 GMT-0500 (Central Daylight Time),714297.099999994,A,sta,I,a,1372,1,2332.39999999851,711964.6999999955,8000,WL,B,6.0
5,20.875999927520752,learn,60000.0,Wed Sep 18 2024 09:26:19 GMT-0500 (Central Daylight Time),714547.099999994,A,star,I,r,229,1,2582.39999999851,711964.6999999955,8000,WL,B,6.0
5,21.675999879837036,learn,60000.0,Wed Sep 18 2024 09:26:19 GMT-0500 (Central Daylight Time),715346.8999999985,A,starenter,I,enter,787,1,3382.2000000029802,711964.6999999955,8000,WL,B,6.0
5,22.54200005531311,learn,60000.0,Wed Sep 18 2024 09:26:19 GMT-0500 (Central Daylight Time),716213.1999999955,A,a,I,a,851,1,866.0,715347.1999999955,8000,WL,B,7.0
5,22.95899987220764,learn,60000.0,Wed Sep 18 2024 09:26:19 GMT-0500 (Central Daylight Time),716629.6999999955,A,ar,I,r,409,1,1282.5,715347.1999999955,8000,WL,B,7.0
5,23.342000007629395,learn,60000.0,Wed Sep 18 2024 09:26:19 GMT-0500 (Central Daylight Time),717013.0,A,arm,I,m,369,1,1665.8000000044703,715347.1999999955,8000,WL,B,7.0
5,23.990999937057495,learn,60000.0,Wed Sep 18 2024 09:26:19 GMT-0500 (Central Daylight Time),717662.6999999955,A,armenter,I,enter,632,1,2315.5,715347.1999999955,8000,WL,B,7.0
5,26.19099998474121,learn,60000.0,Wed Sep 18 2024 09:26:19 GMT-0500 (Central Daylight Time),719862.0,A,p,I,p,2183,1,2199.10000000149,717662.8999999985,8000,WL,B,8.0
5,26.556999921798706,learn,60000.0,Wed Sep 18 2024 09:26:19 GMT-0500 (Central Daylight Time),720228.599999994,A,pu,I,u,352,1,2565.6999999955297,717662.8999999985,8000,WL,B,8.0
5,27.12399983406067,learn,60000.0,Wed Sep 18 2024 09:26:19 GMT-0500 (Central Daylight Time),720795.0,A,pup,I,p,546,1,3132.10000000149,717662.8999999985,8000,WL,B,8.0
5,27.573999881744385,learn,60000.0,Wed Sep 18 2024 09:26:19 GMT-0500 (Central Daylight Time),721245.099999994,A,pupi,I,i,434,1,3582.1999999955297,717662.8999999985,8000,WL,B,8.0
5,27.906999826431274,learn,60000.0,Wed Sep 18 2024 09:26:19 GMT-0500 (Central Daylight Time),721578.1999999955,A,pupil,I,l,321,1,3915.2999999970198,717662.8999999985,8000,WL,B,8.0
5,28.506999969482422,learn,60000.0,Wed Sep 18 2024 09:26:19 GMT-0500 (Central Daylight Time),722178.3999999985,A,pupilenter,I,enter,579,1,4515.5,717662.8999999985,8000,WL,B,8.0
5,30.055999994277954,learn,60000.0,Wed Sep 18 2024 09:26:19 GMT-0500 (Central Daylight Time),723727.599999994,A,c,I,c,1538,1,1548.7999999970198,722178.799999997,8000,WL,B,9.0
5,30.490000009536743,learn,60000.0,Wed Sep 18 2024 09:26:19 GMT-0500 (Central Daylight Time),724160.6999999955,A,ca,I,a,423,1,1981.8999999985099,722178.799999997,8000,WL,B,9.0
5,31.92199993133545,learn,60000.0,Wed Sep 18 2024 09:26:19 GMT-0500 (Central Daylight Time),725593.6999999955,A,cab,I,b,1420,1,3414.89999999851,722178.799999997,8000,WL,B,9.0
5,32.33899998664856,learn,60000.0,Wed Sep 18 2024 09:26:19 GMT-0500 (Central Daylight Time),726010.0,A,cabi,I,i,403,1,3831.2000000029802,722178.799999997,8000,WL,B,9.0
5,32.93899989128113,learn,60000.0,Wed Sep 18 2024 09:26:19 GMT-0500 (Central Daylight Time),726610.099999994,A,cabin,I,n,579,1,4431.29999999702,722178.799999997,8000,WL,B,9.0
5,33.47199988365173,learn,60000.0,Wed Sep 18 2024 09:26:19 GMT-0500 (Central Daylight Time),727143.099999994,A,cabinenter,I,enter,523,1,4964.29999999702,722178.799999997,8000,WL,B,9.0
5,34.855000019073486,learn,60000.0,Wed Sep 18 2024 09:26:19 GMT-0500 (Central Daylight Time),728525.8999999985,A,l,I,l,1376,1,1382.6000000014901,727143.299999997,8000,WL,B,10.0
5,35.121999979019165,learn,60000.0,Wed Sep 18 2024 09:26:19 GMT-0500 (Central Daylight Time),728792.599999994,A,la,I,a,248,1,1649.2999999970198,727143.299999997,8000,WL,B,10.0
5,36.437999963760376,learn,60000.0,Wed Sep 18 2024 09:26:19 GMT-0500 (Central Daylight Time),730108.8999999985,A,lak,I,k,1308,1,2965.60000000149,727143.299999997,8000,WL,B,10.0
5,36.73799991607666,learn,60000.0,Wed Sep 18 2024 09:26:19 GMT-0500 (Central Daylight Time),730408.8999999985,A,lake,I,e,288,1,3265.60000000149,727143.299999997,8000,WL,B,10.0
5,37.2039999961853,learn,60000.0,Wed Sep 18 2024 09:26:19 GMT-0500 (Central Daylight Time),730875.1999999955,A,lakeenter,I,enter,460,1,3731.89999999851,727143.299999997,8000,WL,B,10.0
5,38.00399994850159,learn,60000.0,Wed Sep 18 2024 09:26:19 GMT-0500 (Central Daylight Time),731675.099999994,A,p,I,p,779,1,799.5999999940395,730875.5,8000,WL,B,11.0
5,38.353999853134155,learn,60000.0,Wed Sep 18 2024 09:26:19 GMT-0500 (Central Daylight Time),732024.799999997,A,pi,I,i,330,1,1149.2999999970198,730875.5,8000,WL,B,11.0
5,38.61999988555908,learn,60000.0,Wed Sep 18 2024 09:26:19 GMT-0500 (Central Daylight Time),732291.5,A,pip,I,p,253,1,1416.0,730875.5,8000,WL,B,11.0
5,39.6029999256134,learn,60000.0,Wed Sep 18 2024 09:26:19 GMT-0500 (Central Daylight Time),733274.599999994,A,pipe,I,e,961,1,2399.0999999940395,730875.5,8000,WL,B,11.0
5,40.08699989318848,learn,60000.0,Wed Sep 18 2024 09:26:19 GMT-0500 (Central Daylight Time),733757.599999994,A,pipeenter,I,enter,476,1,2882.0999999940395,730875.5,8000,WL,B,11.0
5,42.40299987792969,learn,60000.0,Wed Sep 18 2024 09:26:19 GMT-0500 (Central Daylight Time),736073.6999999955,A,w,I,w,2297,1,2315.7999999970198,733757.8999999985,8000,WL,B,12.0
5,42.736000061035156,learn,60000.0,Wed Sep 18 2024 09:26:19 GMT-0500 (Central Daylight Time),736407.0,A,wi,I,i,323,1,2649.10000000149,733757.8999999985,8000,WL,B,12.0
5,43.085999965667725,learn,60000.0,Wed Sep 18 2024 09:26:19 GMT-0500 (Central Daylight Time),736756.799999997,A,wif,I,f,344,1,2998.89999999851,733757.8999999985,8000,WL,B,12.0
5,43.585999965667725,learn,60000.0,Wed Sep 18 2024 09:26:19 GMT-0500 (Central Daylight Time),737256.6999999955,A,wife,I,e,489,1,3498.7999999970198,733757.8999999985,8000,WL,B,12.0
5,44.151999950408936,learn,60000.0,Wed Sep 18 2024 09:26:19 GMT-0500 (Central Daylight Time),737823.1999999955,A,wifeenter,I,enter,556,1,4065.2999999970198,733757.8999999985,8000,WL,B,12.0
5,44.83500003814697,learn,60000.0,Wed Sep 18 2024 09:26:19 GMT-0500 (Central Daylight Time),738506.1999999955,A,w,I,w,671,1,682.6999999955297,737823.5,8000,WL,B,13.0
5,45.13499999046326,learn,60000.0,Wed Sep 18 2024 09:26:19 GMT-0500 (Central Daylight Time),738806.099999994,A,wi,I,i,292,1,982.5999999940395,737823.5,8000,WL,B,13.0
5,45.55200004577637,learn,60000.0,Wed Sep 18 2024 09:26:19 GMT-0500 (Central Daylight Time),739222.6999999955,A,win,I,n,399,1,1399.1999999955297,737823.5,8000,WL,B,13.0
5,45.901000022888184,learn,60000.0,Wed Sep 18 2024 09:26:19 GMT-0500 (Central Daylight Time),739572.5,A,wind,I,d,344,1,1749.0,737823.5,8000,WL,B,13.0
5,46.151000022888184,learn,60000.0,Wed Sep 18 2024 09:26:19 GMT-0500 (Central Daylight Time),739822.3999999985,A,windo,I,o,242,1,1998.8999999985099,737823.5,8000,WL,B,13.0
5,46.45099997520447,learn,60000.0,Wed Sep 18 2024 09:26:19 GMT-0500 (Central Daylight Time),740122.599999994,A,window,I,w,280,1,2299.0999999940395,737823.5,8000,WL,B,13.0
5,47.00099992752075,learn,60000.0,Wed Sep 18 2024 09:26:19 GMT-0500 (Central Daylight Time),740672.1999999955,A,windowenter,I,enter,538,1,2848.6999999955297,737823.5,8000,WL,B,13.0
5,49.75099992752075,learn,60000.0,Wed Sep 18 2024 09:26:19 GMT-0500 (Central Daylight Time),743421.599999994,A,c,I,c,2734,1,2749.0999999940395,740672.5,8000,WL,B,14.0
5,50.134000062942505,learn,60000.0,Wed Sep 18 2024 09:26:19 GMT-0500 (Central Daylight Time),743804.8999999985,A,ci,I,i,376,1,3132.39999999851,740672.5,8000,WL,B,14.0
5,50.5,learn,60000.0,Wed Sep 18 2024 09:26:19 GMT-0500 (Central Daylight Time),744171.1999999955,A,cit,I,t,346,1,3498.6999999955297,740672.5,8000,WL,B,14.0
5,50.799999952316284,learn,60000.0,Wed Sep 18 2024 09:26:19 GMT-0500 (Central Daylight Time),744471.5,A,city,I,y,283,1,3799.0,740672.5,8000,WL,B,14.0
5,51.18299984931946,learn,60000.0,Wed Sep 18 2024 09:26:19 GMT-0500 (Central Daylight Time),744854.3999999985,A,cityenter,I,enter,367,1,4181.89999999851,740672.5,8000,WL,B,14.0
5,53.282999992370605,learn,60000.0,Wed Sep 18 2024 09:26:19 GMT-0500 (Central Daylight Time),746954.0,A,s,I,s,2080,1,2099.3000000044703,744854.6999999955,8000,WL,B,15.0
5,53.882999897003174,learn,60000.0,Wed Sep 18 2024 09:26:19 GMT-0500 (Central Daylight Time),747553.799999997,A,st,I,t,580,1,2699.10000000149,744854.6999999955,8000,WL,B,15.0
5,54.24899983406067,learn,60000.0,Wed Sep 18 2024 09:26:19 GMT-0500 (Central Daylight Time),747920.3999999985,A,str,I,r,348,1,3065.7000000029802,744854.6999999955,8000,WL,B,15.0
5,54.81099987030029,learn,60000.0,Wed Sep 18 2024 09:26:19 GMT-0500 (Central Daylight Time),748481.8999999985,A,stre,I,e,410,1,3627.2000000029802,744854.6999999955,8000,WL,B,15.0
5,54.81599998474121,learn,60000.0,Wed Sep 18 2024 09:26:19 GMT-0500 (Central Daylight Time),748487.3999999985,A,stree,I,e,1,1,3632.7000000029802,744854.6999999955,8000,WL,B,15.0
5,55.06599998474121,learn,60000.0,Wed Sep 18 2024 09:26:19 GMT-0500 (Central Daylight Time),748736.799999997,A,street,I,t,229,1,3882.10000000149,744854.6999999955,8000,WL,B,15.0
5,55.6489999294281,learn,60000.0,Wed Sep 18 2024 09:26:19 GMT-0500 (Central Daylight Time),749319.8999999985,A,streetenter,I,enter,566,1,4465.20000000298,744854.6999999955,8000,WL,B,15.0
6,1.565999984741211,distr,58434.00001525879,Wed Sep 18 2024 09:26:19 GMT-0500 (Central Daylight Time),822579.8999999985,B,b,I,b,1553,1,1566.1000000014901,821013.799999997,8000,WL,B,1.0
6,1.8829998970031738,distr,58117.000102996826,Wed Sep 18 2024 09:26:19 GMT-0500 (Central Daylight Time),822896.599999994,B,ba,I,a,298,1,1882.7999999970198,821013.799999997,8000,WL,B,1.0
6,2.3989999294281006,distr,57601.0000705719,Wed Sep 18 2024 09:26:19 GMT-0500 (Central Daylight Time),823412.8999999985,B,bab,I,b,510,1,2399.10000000149,821013.799999997,8000,WL,B,1.0
6,2.865999937057495,distr,57134.000062942505,Wed Sep 18 2024 09:26:19 GMT-0500 (Central Daylight Time),823879.5,B,baby,I,y,449,1,2865.7000000029802,821013.799999997,8000,WL,B,1.0
6,3.181999921798706,distr,56818.000078201294,Wed Sep 18 2024 09:26:19 GMT-0500 (Central Daylight Time),824196.099999994,B,babyenter,I,enter,303,1,3182.2999999970198,821013.799999997,8000,WL,B,1.0
6,4.198999881744385,distr,55801.000118255615,Wed Sep 18 2024 09:26:19 GMT-0500 (Central Daylight Time),825212.599999994,B,o,I,o,1001,1,1016.0999999940395,824196.5,8000,WL,B,2.0
6,4.631999969482422,distr,55368.00003051758,Wed Sep 18 2024 09:26:19 GMT-0500 (Central Daylight Time),825645.6999999955,B,oc,I,c,417,1,1449.1999999955297,824196.5,8000,WL,B,2.0
6,5.447999954223633,distr,54552.00004577637,Wed Sep 18 2024 09:26:19 GMT-0500 (Central Daylight Time),826462.1999999955,B,oce,I,e,801,1,2265.6999999955297,824196.5,8000,WL,B,2.0
6,6.115000009536743,distr,53884.99999046326,Wed Sep 18 2024 09:26:19 GMT-0500 (Central Daylight Time),827128.799999997,B,ocea,I,a,654,1,2932.2999999970198,824196.5,8000,WL,B,2.0
6,6.697999954223633,distr,53302.00004577637,Wed Sep 18 2024 09:26:19 GMT-0500 (Central Daylight Time),827711.599999994,B,ocean,I,n,566,1,3515.0999999940395,824196.5,8000,WL,B,2.0
6,7.330999851226807,distr,52669.00014877319,Wed Sep 18 2024 09:26:19 GMT-0500 (Central Daylight Time),828345.099999994,B,oceanenter,I,enter,623,1,4148.5999999940395,824196.5,8000,WL,B,2.0
6,9.680999994277954,distr,50319.000005722046,Wed Sep 18 2024 09:26:19 GMT-0500 (Central Daylight Time),830694.6999999955,B,r,I,r,2334,1,2349.2999999970198,828345.3999999985,8000,WL,B,3.0
6,9.94700002670288,distr,50052.99997329712,Wed Sep 18 2024 09:26:19 GMT-0500 (Central Daylight Time),830961.1999999955,B,ro,I,o,256,1,2615.7999999970198,828345.3999999985,8000,WL,B,3.0
6,10.263999938964844,distr,49736.000061035156,Wed Sep 18 2024 09:26:19 GMT-0500 (Central Daylight Time),831277.3999999985,B,roc,I,c,301,1,2932.0,828345.3999999985,8000,WL,B,3.0
6,10.513999938964844,distr,49486.000061035156,Wed Sep 18 2024 09:26:19 GMT-0500 (Central Daylight Time),831527.3999999985,B,rock,I,k,233,1,3182.0,828345.3999999985,8000,WL,B,3.0
6,10.996999979019165,distr,49003.000020980835,Wed Sep 18 2024 09:26:19 GMT-0500 (Central Daylight Time),832010.599999994,B,rockenter,I,enter,471,1,3665.1999999955297,828345.3999999985,8000,WL,B,3.0
6,11.730000019073486,distr,48269.999980926514,Wed Sep 18 2024 09:26:19 GMT-0500 (Central Daylight Time),832743.799999997,B,p,I,p,724,1,732.7999999970198,832011.0,8000,WL,B,4.0
6,11.996999979019165,distr,48003.000020980835,Wed Sep 18 2024 09:26:19 GMT-0500 (Central Daylight Time),833010.5,B,pa,I,a,247,1,999.5,832011.0,8000,WL,B,4.0
6,12.263000011444092,distr,47736.99998855591,Wed Sep 18 2024 09:26:19 GMT-0500 (Central Daylight Time),833276.599999994,B,pal,I,l,260,1,1265.5999999940395,832011.0,8000,WL,B,4.0
6,12.513000011444092,distr,47486.99998855591,Wed Sep 18 2024 09:26:19 GMT-0500 (Central Daylight Time),833526.6999999955,B,pala,I,a,234,1,1515.6999999955297,832011.0,8000,WL,B,4.0
6,12.962999820709229,distr,47037.00017929077,Wed Sep 18 2024 09:26:19 GMT-0500 (Central Daylight Time),833976.799999997,B,palac,I,c,440,1,1965.7999999970198,832011.0,8000,WL,B,4.0
6,14.078999996185303,distr,45921.0000038147,Wed Sep 18 2024 09:26:19 GMT-0500 (Central Daylight Time),835092.599999994,B,palaca,I,a,1109,1,3081.5999999940395,832011.0,8000,WL,B,4.0
6,14.794999837875366,distr,45205.000162124634,Wed Sep 18 2024 09:26:19 GMT-0500 (Central Daylight Time),835809.1999999955,B,palacac,I,c,698,1,3798.1999999955297,832011.0,8000,WL,B,4.0
6,15.128000020980835,distr,44871.999979019165,Wed Sep 18 2024 09:26:19 GMT-0500 (Central Daylight Time),836142.599999994,B,palacace,I,e,318,1,4131.5999999940395,832011.0,8000,WL,B,4.0
6,16.360999822616577,distr,43639.00017738342,Wed Sep 18 2024 09:26:19 GMT-0500 (Central Daylight Time),837375.3999999985,B,palacaceenter,I,enter,1216,1,5364.39999999851,832011.0,8000,WL,B,4.0
6,22.925999879837036,distr,37074.000120162964,Wed Sep 18 2024 09:26:19 GMT-0500 (Central Daylight Time),843940.0,B,f,I,f,6559,1,6564.20000000298,837375.799999997,8000,WL,B,5.0
6,23.325999975204468,distr,36674.00002479553,Wed Sep 18 2024 09:26:19 GMT-0500 (Central Daylight Time),844339.8999999985,B,fr,I,r,395,1,6964.10000000149,837375.799999997,8000,WL,B,5.0
6,23.842000007629395,distr,36157.999992370605,Wed Sep 18 2024 09:26:19 GMT-0500 (Central Daylight Time),844856.3999999985,B,fri,I,i,498,1,7480.60000000149,837375.799999997,8000,WL,B,5.0
6,24.05900001525879,distr,35940.99998474121,Wed Sep 18 2024 09:26:19 GMT-0500 (Central Daylight Time),845073.099999994,B,frie,I,e,198,1,7697.29999999702,837375.799999997,8000,WL,B,5.0
6,24.39199995994568,distr,35608.00004005432,Wed Sep 18 2024 09:26:19 GMT-0500 (Central Daylight Time),845406.5,B,frien,I,n,325,1,8030.70000000298,837375.799999997,8000,WL,B,5.0
6,24.658999919891357,distr,35341.00008010864,Wed Sep 18 2024 09:26:19 GMT-0500 (Central Daylight Time),845673.0,B,friend,I,d,256,1,8297.20000000298,837375.799999997,8000,WL,B,5.0
6,25.174999952316284,distr,34825.000047683716,Wed Sep 18 2024 09:26:19 GMT-0500 (Central Daylight Time),846189.099999994,B,friendenter,I,enter,510,1,8813.29999999702,837375.799999997,8000,WL,B,5.0
6,26.95799994468689,distr,33042.00005531311,Wed Sep 18 2024 09:26:19 GMT-0500 (Central Daylight Time),847971.8999999985,B,a,I,a,1778,1,1782.5,846189.3999999985,8000,WL,B,6.0
6,27.47499990463257,distr,32525.00009536743,Wed Sep 18 2024 09:26:19 GMT-0500 (Central Daylight Time),848488.6999999955,B,ar,I,r,499,1,2299.2999999970198,846189.3999999985,8000,WL,B,6.0
6,28.141000032424927,distr,31858.999967575073,Wed Sep 18 2024 09:26:19 GMT-0500 (Central Daylight Time),849155.0,B,arm,I,m,654,1,2965.60000000149,846189.3999999985,8000,WL,B,6.0
6,28.5239999294281,distr,31476.0000705719,Wed Sep 18 2024 09:26:19 GMT-0500 (Central Daylight Time),849538.099999994,B,army,I,y,363,1,3348.6999999955297,846189.3999999985,8000,WL,B,6.0
6,29.18999981880188,distr,30810.00018119812,Wed Sep 18 2024 09:26:19 GMT-0500 (Central Daylight Time),850204.599999994,B,armyenter,I,enter,660,1,4015.1999999955297,846189.3999999985,8000,WL,B,6.0
6,38.287999868392944,distr,21712.000131607056,Wed Sep 18 2024 09:26:19 GMT-0500 (Central Daylight Time),859302.1999999955,B,l,I,l,9082,1,9097.29999999702,850204.8999999985,8000,WL,B,7.0
6,38.87100005149841,distr,21128.999948501587,Wed Sep 18 2024 09:26:19 GMT-0500 (Central Daylight Time),859885.0,B,li,I,i,576,1,9680.10000000149,850204.8999999985,8000,WL,B,7.0
6,39.07099986076355,distr,20929.00013923645,Wed Sep 18 2024 09:26:19 GMT-0500 (Central Daylight Time),860084.799999997,B,lip,I,p,186,1,9879.89999999851,850204.8999999985,8000,WL,B,7.0
6,40.037999868392944,distr,19962.000131607056,Wed Sep 18 2024 09:26:19 GMT-0500 (Central Daylight Time),861051.6999999955,B,lipenter,I,enter,954,1,10846.79999999702,850204.8999999985,8000,WL,B,7.0
6,41.269999980926514,distr,18730.000019073486,Wed Sep 18 2024 09:26:19 GMT-0500 (Central Daylight Time),862284.3999999985,B,c,I,c,1219,1,1232.3000000044703,861052.099999994,8000,WL,B,8.0
6,41.63699984550476,distr,18363.00015449524,Wed Sep 18 2024 09:26:19 GMT-0500 (Central Daylight Time),862651.299999997,B,co,I,o,354,1,1599.2000000029802,861052.099999994,8000,WL,B,8.0
6,41.90299987792969,distr,18097.000122070312,Wed Sep 18 2024 09:26:19 GMT-0500 (Central Daylight Time),862917.599999994,B,coi,I,i,251,1,1865.5,861052.099999994,8000,WL,B,8.0
6,42.23699998855591,distr,17763.00001144409,Wed Sep 18 2024 09:26:19 GMT-0500 (Central Daylight Time),863250.599999994,B,coin,I,n,313,1,2198.5,861052.099999994,8000,WL,B,8.0
6,42.8529999256134,distr,17147.000074386597,Wed Sep 18 2024 09:26:19 GMT-0500 (Central Daylight Time),863867.0,B,coinenter,I,enter,596,1,2814.9000000059605,861052.099999994,8000,WL,B,8.0
6,56.79900002479553,distr,3200.999975204468,Wed Sep 18 2024 09:26:19 GMT-0500 (Central Daylight Time),877812.8999999985,B,r,I,r,13932,1,13945.60000000149,863867.299999997,8000,WL,B,9.0
6,57.06499981880188,distr,2935.00018119812,Wed Sep 18 2024 09:26:19 GMT-0500 (Central Daylight Time),878079.3999999985,B,ro,I,o,257,1,14212.10000000149,863867.299999997,8000,WL,B,9.0
6,57.36500000953674,distr,2634.999990463257,Wed Sep 18 2024 09:26:19 GMT-0500 (Central Daylight Time),878379.299999997,B,roc,I,c,279,1,14512.0,863867.299999997,8000,WL,B,9.0
6,57.58200001716614,distr,2417.9999828338623,Wed Sep 18 2024 09:26:19 GMT-0500 (Central Daylight Time),878596.099999994,B,rock,I,k,203,1,14728.79999999702,863867.299999997,8000,WL,B,9.0
6,58.21499991416931,distr,1785.0000858306885,Wed Sep 18 2024 09:26:19 GMT-0500 (Central Daylight Time),879229.1999999955,B,rockenter,I,enter,619,1,15361.89999999851,863867.299999997,8000,WL,B,9.0
6,60.014999866485596,distr,-14.999866485595703,Wed Sep 18 2024 09:26:19 GMT-0500 (Central Daylight Time),881028.6999999955,B,None,I,None,1794,1,1799.1999999955297,879229.5,8000,WL,B,10.0
7,2.115999937057495,immed,57884.000062942505,Wed Sep 18 2024 09:26:19 GMT-0500 (Central Daylight Time),900089.099999994,A,g,I,g,2098,1,2115.7999999970198,897973.299999997,8000,WL,B,1.0
7,2.5,immed,57500.0,Wed Sep 18 2024 09:26:19 GMT-0500 (Central Daylight Time),900472.5,A,gr,I,r,373,1,2499.2000000029802,897973.299999997,8000,WL,B,1.0
7,3.2660000324249268,immed,56733.99996757507,Wed Sep 18 2024 09:26:19 GMT-0500 (Central Daylight Time),901239.0,A,gra,I,a,758,1,3265.7000000029802,897973.299999997,8000,WL,B,1.0
7,3.632999897003174,immed,56367.000102996826,Wed Sep 18 2024 09:26:19 GMT-0500 (Central Daylight Time),901605.5,A,gras,I,s,360,1,3632.2000000029802,897973.299999997,8000,WL,B,1.0
7,3.8329999446868896,immed,56167.00005531311,Wed Sep 18 2024 09:26:19 GMT-0500 (Central Daylight Time),901805.3999999985,A,grass,I,s,185,1,3832.10000000149,897973.299999997,8000,WL,B,1.0
7,6.381999969482422,immed,53618.00003051758,Wed Sep 18 2024 09:26:19 GMT-0500 (Central Daylight Time),904354.3999999985,A,grassenter,I,enter,2537,1,6381.10000000149,897973.299999997,8000,WL,B,1.0
7,10.197999954223633,immed,49802.00004577637,Wed Sep 18 2024 09:26:19 GMT-0500 (Central Daylight Time),908170.1999999955,A,c,I,c,3804,1,3815.5,904354.6999999955,8000,WL,B,2.0
7,10.596999883651733,immed,49403.00011634827,Wed Sep 18 2024 09:26:19 GMT-0500 (Central Daylight Time),908570.0,A,ci,I,i,388,1,4215.30000000447,904354.6999999955,8000,WL,B,2.0
7,10.980999946594238,immed,49019.00005340576,Wed Sep 18 2024 09:26:19 GMT-0500 (Central Daylight Time),908953.099999994,A,cit,I,t,373,1,4598.39999999851,904354.6999999955,8000,WL,B,2.0
7,11.27999997138977,immed,48720.00002861023,Wed Sep 18 2024 09:26:19 GMT-0500 (Central Daylight Time),909253.0,A,city,I,y,293,1,4898.30000000447,904354.6999999955,8000,WL,B,2.0
7,11.879999876022339,immed,48120.00012397766,Wed Sep 18 2024 09:26:19 GMT-0500 (Central Daylight Time),909852.8999999985,A,cityenter,I,enter,594,1,5498.20000000298,904354.6999999955,8000,WL,B,2.0
7,13.595999956130981,immed,46404.00004386902,Wed Sep 18 2024 09:26:19 GMT-0500 (Central Daylight Time),911569.099999994,A,l,I,l,1705,1,1715.8999999985099,909853.1999999955,8000,WL,B,3.0
7,13.878999948501587,immed,46121.00005149841,Wed Sep 18 2024 09:26:19 GMT-0500 (Central Daylight Time),911852.0,A,la,I,a,277,1,1998.8000000044703,909853.1999999955,8000,WL,B,3.0
7,14.129999876022339,immed,45870.00012397766,Wed Sep 18 2024 09:26:19 GMT-0500 (Central Daylight Time),912102.099999994,A,lak,I,k,235,1,2248.89999999851,909853.1999999955,8000,WL,B,3.0
7,14.379999876022339,immed,45620.00012397766,Wed Sep 18 2024 09:26:19 GMT-0500 (Central Daylight Time),912352.099999994,A,lake,I,e,240,1,2498.89999999851,909853.1999999955,8000,WL,B,3.0
7,15.095999956130981,immed,44904.00004386902,Wed Sep 18 2024 09:26:19 GMT-0500 (Central Daylight Time),913068.5,A,lakeenter,I,enter,703,1,3215.3000000044703,909853.1999999955,8000,WL,B,3.0
7,16.494999885559082,immed,43505.00011444092,Wed Sep 18 2024 09:26:19 GMT-0500 (Central Daylight Time),914467.799999997,A,c,I,c,1394,1,1399.0,913068.799999997,8000,WL,B,4.0
7,16.894999980926514,immed,43105.000019073486,Wed Sep 18 2024 09:26:19 GMT-0500 (Central Daylight Time),914868.0,A,ca,I,a,387,1,1799.2000000029802,913068.799999997,8000,WL,B,4.0
7,17.51200008392334,immed,42487.99991607666,Wed Sep 18 2024 09:26:19 GMT-0500 (Central Daylight Time),915484.099999994,A,cab,I,b,610,1,2415.2999999970198,913068.799999997,8000,WL,B,4.0
7,18.045000076293945,immed,41954.999923706055,Wed Sep 18 2024 09:26:19 GMT-0500 (Central Daylight Time),916017.599999994,A,cabi,I,i,523,1,2948.7999999970198,913068.799999997,8000,WL,B,4.0
7,18.394999980926514,immed,41605.000019073486,Wed Sep 18 2024 09:26:19 GMT-0500 (Central Daylight Time),916367.5,A,cabin,I,n,341,1,3298.7000000029802,913068.799999997,8000,WL,B,4.0
7,18.894999980926514,immed,41105.000019073486,Wed Sep 18 2024 09:26:19 GMT-0500 (Central Daylight Time),916867.3999999985,A,cabinenter,I,enter,479,1,3798.60000000149,913068.799999997,8000,WL,B,4.0
7,20.07800006866455,immed,39921.99993133545,Wed Sep 18 2024 09:26:19 GMT-0500 (Central Daylight Time),918050.299999997,A,p,I,p,1164,1,1182.6000000014901,916867.6999999955,8000,WL,B,5.0
7,20.777999877929688,immed,39222.00012207031,Wed Sep 18 2024 09:26:19 GMT-0500 (Central Daylight Time),918750.099999994,A,pu,I,u,692,1,1882.3999999985099,916867.6999999955,8000,WL,B,5.0
7,21.26099991798401,immed,38739.00008201599,Wed Sep 18 2024 09:26:19 GMT-0500 (Central Daylight Time),919233.299999997,A,pup,I,p,473,1,2365.60000000149,916867.6999999955,8000,WL,B,5.0
7,21.64400005340576,immed,38355.99994659424,Wed Sep 18 2024 09:26:19 GMT-0500 (Central Daylight Time),919616.299999997,A,pupi,I,i,365,1,2748.60000000149,916867.6999999955,8000,WL,B,5.0
7,22.026999950408936,immed,37973.000049591064,Wed Sep 18 2024 09:26:19 GMT-0500 (Central Daylight Time),919999.599999994,A,pupil,I,l,374,1,3131.89999999851,916867.6999999955,8000,WL,B,5.0
7,23.259999990463257,immed,36740.00000953674,Wed Sep 18 2024 09:26:19 GMT-0500 (Central Daylight Time),921232.599999994,A,pupilenter,I,enter,1223,1,4364.89999999851,916867.6999999955,8000,WL,B,5.0
7,24.14299988746643,immed,35857.00011253357,Wed Sep 18 2024 09:26:19 GMT-0500 (Central Daylight Time),922115.599999994,A,w,I,w,878,1,882.6999999955297,921232.8999999985,8000,WL,B,6.0
7,24.45900011062622,immed,35540.99988937378,Wed Sep 18 2024 09:26:19 GMT-0500 (Central Daylight Time),922432.0,A,wi,I,i,299,1,1199.1000000014901,921232.8999999985,8000,WL,B,6.0
7,24.792999982833862,immed,35207.00001716614,Wed Sep 18 2024 09:26:19 GMT-0500 (Central Daylight Time),922765.3999999985,A,wif,I,f,326,1,1532.5,921232.8999999985,8000,WL,B,6.0
7,25.30900001525879,immed,34690.99998474121,Wed Sep 18 2024 09:26:19 GMT-0500 (Central Daylight Time),923282.099999994,A,wife,I,e,497,1,2049.1999999955297,921232.8999999985,8000,WL,B,6.0
7,26.825999975204468,immed,33174.00002479553,Wed Sep 18 2024 09:26:19 GMT-0500 (Central Daylight Time),924798.099999994,A,wifeenter,I,enter,1509,1,3565.1999999955297,921232.8999999985,8000,WL,B,6.0
7,27.55900001525879,immed,32440.99998474121,Wed Sep 18 2024 09:26:19 GMT-0500 (Central Daylight Time),925531.099999994,A,w,I,w,712,1,732.5999999940395,924798.5,8000,WL,B,7.0
7,27.875,immed,32125.0,Wed Sep 18 2024 09:26:19 GMT-0500 (Central Daylight Time),925847.8999999985,A,wi,I,i,307,1,1049.3999999985099,924798.5,8000,WL,B,7.0
7,28.242000102996826,immed,31757.999897003174,Wed Sep 18 2024 09:26:19 GMT-0500 (Central Daylight Time),926214.299999997,A,win,I,n,359,1,1415.7999999970198,924798.5,8000,WL,B,7.0
7,28.55900001525879,immed,31440.99998474121,Wed Sep 18 2024 09:26:19 GMT-0500 (Central Daylight Time),926531.599999994,A,wind,I,d,304,1,1733.0999999940395,924798.5,8000,WL,B,7.0
7,28.842000007629395,immed,31157.999992370605,Wed Sep 18 2024 09:26:19 GMT-0500 (Central Daylight Time),926814.1999999955,A,windo,I,o,267,1,2015.6999999955297,924798.5,8000,WL,B,7.0
7,30.124000072479248,immed,29875.999927520752,Wed Sep 18 2024 09:26:19 GMT-0500 (Central Daylight Time),928096.8999999985,A,window,I,w,1265,1,3298.39999999851,924798.5,8000,WL,B,7.0
7,31.591000080108643,immed,28408.999919891357,Wed Sep 18 2024 09:26:19 GMT-0500 (Central Daylight Time),929563.299999997,A,windowenter,I,enter,1462,1,4764.79999999702,924798.5,8000,WL,B,7.0
7,45.503000020980835,immed,14496.999979019165,Wed Sep 18 2024 09:26:19 GMT-0500 (Central Daylight Time),943475.3999999985,A,s,I,s,13907,1,13911.80000000447,929563.599999994,8000,WL,B,8.0
7,45.88599991798401,immed,14114.000082015991,Wed Sep 18 2024 09:26:19 GMT-0500 (Central Daylight Time),943858.8999999985,A,st,I,t,371,1,14295.30000000447,929563.599999994,8000,WL,B,8.0
7,46.1029999256134,immed,13897.000074386597,Wed Sep 18 2024 09:26:19 GMT-0500 (Central Daylight Time),944075.3999999985,A,sta,I,a,204,1,14511.80000000447,929563.599999994,8000,WL,B,8.0
7,46.335999965667725,immed,13664.000034332275,Wed Sep 18 2024 09:26:19 GMT-0500 (Central Daylight Time),944308.6999999955,A,star,I,r,219,1,14745.10000000149,929563.599999994,8000,WL,B,8.0
7,47.00200009346008,immed,12997.999906539917,Wed Sep 18 2024 09:26:19 GMT-0500 (Central Daylight Time),944975.0,A,starenter,I,enter,650,1,15411.40000000596,929563.599999994,8000,WL,B,8.0
7,47.43600010871887,immed,12563.999891281128,Wed Sep 18 2024 09:26:19 GMT-0500 (Central Daylight Time),945408.1999999955,A,a,I,a,423,1,432.8999999985099,944975.299999997,8000,WL,B,9.0
7,48.00200009346008,immed,11997.999906539917,Wed Sep 18 2024 09:26:19 GMT-0500 (Central Daylight Time),945974.8999999985,A,ar,I,r,559,1,999.6000000014901,944975.299999997,8000,WL,B,9.0
7,48.769999980926514,immed,11230.000019073486,Wed Sep 18 2024 09:26:19 GMT-0500 (Central Daylight Time),946742.3999999985,A,arm,I,m,752,1,1767.1000000014901,944975.299999997,8000,WL,B,9.0
7,49.71799993515015,immed,10282.000064849854,Wed Sep 18 2024 09:26:19 GMT-0500 (Central Daylight Time),947691.099999994,A,armenter,I,enter,928,1,2715.7999999970198,944975.299999997,8000,WL,B,9.0
7,50.43499994277954,immed,9565.000057220459,Wed Sep 18 2024 09:26:19 GMT-0500 (Central Daylight Time),948407.599999994,A,s,I,s,708,1,716.2999999970198,947691.299999997,8000,WL,B,10.0
7,50.800999879837036,immed,9199.000120162964,Wed Sep 18 2024 09:26:19 GMT-0500 (Central Daylight Time),948773.8999999985,A,sk,I,k,351,1,1082.6000000014901,947691.299999997,8000,WL,B,10.0
7,51.08400011062622,immed,8915.99988937378,Wed Sep 18 2024 09:26:19 GMT-0500 (Central Daylight Time),949057.0,A,ski,I,i,265,1,1365.7000000029802,947691.299999997,8000,WL,B,10.0
7,51.36899995803833,immed,8631.00004196167,Wed Sep 18 2024 09:26:19 GMT-0500 (Central Daylight Time),949341.599999994,A,skin,I,n,278,1,1650.2999999970198,947691.299999997,8000,WL,B,10.0
7,52.03399991989136,immed,7966.000080108643,Wed Sep 18 2024 09:26:19 GMT-0500 (Central Daylight Time),950007.0,A,skinenter,I,enter,657,1,2315.7000000029802,947691.299999997,8000,WL,B,10.0
7,60.015000104904175,immed,-15.000104904174805,Wed Sep 18 2024 09:26:19 GMT-0500 (Central Daylight Time),957988.0,A,None,I,None,7977,1,7980.70000000298,950007.299999997,8000,WL,B,11.0
