block_c,block_dur,condition,countdown,datetime,endtime,list,multichar_response,project,response,response_time,session_number,start_end,starttime,subject_id,task,task_vers,trial
,,,,Wed Nov 20 2024 14:21:25 GMT-0600 (Central Standard Time),,,,I,space,432,2,,,8000,WL,A,
prac,,0,,Wed Nov 20 2024 14:21:25 GMT-0600 (Central Standard Time),,NA,b,I,b,24876,2,,,8000,WL,A,1.0
prac,,0,,Wed Nov 20 2024 14:21:25 GMT-0600 (Central Standard Time),,NA,bo,I,o,467,2,,,8000,WL,A,1.0
prac,,0,,Wed Nov 20 2024 14:21:25 GMT-0600 (Central Standard Time),,NA,boo,I,o,153,2,,,8000,WL,A,1.0
prac,,0,,Wed Nov 20 2024 14:21:25 GMT-0600 (Central Standard Time),,NA,boos,I,s,210,2,,,8000,WL,A,1.0
prac,,0,,Wed Nov 20 2024 14:21:25 GMT-0600 (Central Standard Time),,NA,boost,I,t,409,2,,,8000,WL,A,1.0
prac,,0,,Wed Nov 20 2024 14:21:25 GMT-0600 (Central Standard Time),,NA,boostenter,I,enter,3257,2,,,8000,WL,A,1.0
1,2.4489998817443848,learn,57551.000118255615,Wed Nov 20 2024 14:21:25 GMT-0600 (Central Standard Time),204258.80000000447,A,r,I,r,2441,2,2448.60000000149,201810.20000000298,8000,WL,A,1.0
1,2.9659998416900635,learn,57034.00015830994,Wed Nov 20 2024 14:21:25 GMT-0600 (Central Standard Time),204775.30000000447,A,ru,I,u,503,2,2965.10000000149,201810.20000000298,8000,WL,A,1.0
1,3.365000009536743,learn,56634.99999046326,Wed Nov 20 2024 14:21:25 GMT-0600 (Central Standard Time),205175.20000000298,A,rug,I,g,381,2,3365.0,201810.20000000298,8000,WL,A,1.0
1,4.23199987411499,learn,55768.00012588501,Wed Nov 20 2024 14:21:25 GMT-0600 (Central Standard Time),206041.5,A,rugenter,I,enter,853,2,4231.29999999702,201810.20000000298,8000,WL,A,1.0
1,6.097999811172485,learn,53902.000188827515,Wed Nov 20 2024 14:21:25 GMT-0600 (Central Standard Time),207908.0,A,m,I,m,1859,2,1866.0,206042.0,8000,WL,A,2.0
1,6.447999954223633,learn,53552.00004577637,Wed Nov 20 2024 14:21:25 GMT-0600 (Central Standard Time),208257.70000000298,A,me,I,e,344,2,2215.7000000029802,206042.0,8000,WL,A,2.0
1,6.863999843597412,learn,53136.00015640259,Wed Nov 20 2024 14:21:25 GMT-0600 (Central Standard Time),208674.1000000015,A,mea,I,a,411,2,2632.10000000149,206042.0,8000,WL,A,2.0
1,7.197999954223633,learn,52802.00004577637,Wed Nov 20 2024 14:21:25 GMT-0600 (Central Standard Time),209007.80000000447,A,mead,I,d,322,2,2965.8000000044703,206042.0,8000,WL,A,2.0
1,7.497999906539917,learn,52502.00009346008,Wed Nov 20 2024 14:21:25 GMT-0600 (Central Standard Time),209307.70000000298,A,meado,I,o,285,2,3265.7000000029802,206042.0,8000,WL,A,2.0
1,7.863999843597412,learn,52136.00015640259,Wed Nov 20 2024 14:21:25 GMT-0600 (Central Standard Time),209674.1000000015,A,meadow,I,w,361,2,3632.10000000149,206042.0,8000,WL,A,2.0
1,8.680999994277954,learn,51319.000005722046,Wed Nov 20 2024 14:21:25 GMT-0600 (Central Standard Time),210490.5,A,meadowenter,I,enter,810,2,4448.5,206042.0,8000,WL,A,2.0
1,11.829999923706055,learn,48170.000076293945,Wed Nov 20 2024 14:21:25 GMT-0600 (Central Standard Time),213639.6000000015,A,k,I,k,3138,2,3148.7999999970198,210490.80000000447,8000,WL,A,3.0
1,12.179999828338623,learn,47820.00017166138,Wed Nov 20 2024 14:21:25 GMT-0600 (Central Standard Time),213989.40000000596,A,ke,I,e,341,2,3498.60000000149,210490.80000000447,8000,WL,A,3.0
1,12.61299991607666,learn,47387.00008392334,Wed Nov 20 2024 14:21:25 GMT-0600 (Central Standard Time),214422.80000000447,A,key,I,y,416,2,3932.0,210490.80000000447,8000,WL,A,3.0
1,13.730000019073486,learn,46269.999980926514,Wed Nov 20 2024 14:21:25 GMT-0600 (Central Standard Time),215540.0,A,keyenter,I,enter,1110,2,5049.19999999553,210490.80000000447,8000,WL,A,3.0
1,20.47699999809265,learn,39523.00000190735,Wed Nov 20 2024 14:21:25 GMT-0600 (Central Standard Time),222286.80000000447,A,s,I,s,6737,2,6746.39999999851,215540.40000000596,8000,WL,A,4.0
1,20.926999807357788,learn,39073.00019264221,Wed Nov 20 2024 14:21:25 GMT-0600 (Central Standard Time),222736.80000000447,A,sa,I,a,430,2,7196.39999999851,215540.40000000596,8000,WL,A,4.0
1,21.276999950408936,learn,38723.000049591064,Wed Nov 20 2024 14:21:25 GMT-0600 (Central Standard Time),223086.70000000298,A,sal,I,l,340,2,7546.29999999702,215540.40000000596,8000,WL,A,4.0
1,21.64299988746643,learn,38357.00011253357,Wed Nov 20 2024 14:21:25 GMT-0600 (Central Standard Time),223453.30000000447,A,salt,I,t,358,2,7912.89999999851,215540.40000000596,8000,WL,A,4.0
1,22.15999984741211,learn,37840.00015258789,Wed Nov 20 2024 14:21:25 GMT-0600 (Central Standard Time),223969.5,A,saltenter,I,enter,504,2,8429.09999999404,215540.40000000596,8000,WL,A,4.0
1,40.686999797821045,learn,19313.000202178955,Wed Nov 20 2024 14:21:25 GMT-0600 (Central Standard Time),242497.20000000298,A,f,I,f,18507,2,18527.20000000298,223970.0,8000,WL,A,5.0
1,41.30399990081787,learn,18696.00009918213,Wed Nov 20 2024 14:21:25 GMT-0600 (Central Standard Time),243113.70000000298,A,fi,I,i,604,2,19143.70000000298,223970.0,8000,WL,A,5.0
1,41.669999837875366,learn,18330.000162124634,Wed Nov 20 2024 14:21:25 GMT-0600 (Central Standard Time),243480.1000000015,A,fin,I,n,356,2,19510.10000000149,223970.0,8000,WL,A,5.0
1,42.003000020980835,learn,17996.999979019165,Wed Nov 20 2024 14:21:25 GMT-0600 (Central Standard Time),243813.40000000596,A,fing,I,g,325,2,19843.40000000596,223970.0,8000,WL,A,5.0
1,42.23699998855591,learn,17763.00001144409,Wed Nov 20 2024 14:21:25 GMT-0600 (Central Standard Time),244046.90000000596,A,finge,I,e,224,2,20076.90000000596,223970.0,8000,WL,A,5.0
1,42.55299997329712,learn,17447.00002670288,Wed Nov 20 2024 14:21:25 GMT-0600 (Central Standard Time),244363.30000000447,A,finger,I,r,310,2,20393.30000000447,223970.0,8000,WL,A,5.0
1,43.05299997329712,learn,16947.00002670288,Wed Nov 20 2024 14:21:25 GMT-0600 (Central Standard Time),244863.1000000015,A,fingerenter,I,enter,481,2,20893.10000000149,223970.0,8000,WL,A,5.0
1,60.014999866485596,learn,-14.999866485595703,Wed Nov 20 2024 14:21:25 GMT-0600 (Central Standard Time),261824.70000000298,A,None,I,None,16957,2,16961.10000000149,244863.6000000015,8000,WL,A,6.0
2,1.9819998741149902,learn,58018.00012588501,Wed Nov 20 2024 14:21:25 GMT-0600 (Central Standard Time),334451.700000003,A,b,I,b,1977,2,1982.3999999985099,332469.30000000447,8000,WL,A,1.0
2,2.431999921798706,learn,57568.000078201294,Wed Nov 20 2024 14:21:25 GMT-0600 (Central Standard Time),334901.200000003,A,bo,I,o,442,2,2431.89999999851,332469.30000000447,8000,WL,A,1.0
2,2.631999969482422,learn,57368.00003051758,Wed Nov 20 2024 14:21:25 GMT-0600 (Central Standard Time),335101.5,A,boo,I,o,188,2,2632.1999999955297,332469.30000000447,8000,WL,A,1.0
2,2.9149999618530273,learn,57085.00003814697,Wed Nov 20 2024 14:21:25 GMT-0600 (Central Standard Time),335384.700000003,A,book,I,k,264,2,2915.39999999851,332469.30000000447,8000,WL,A,1.0
2,3.681999921798706,learn,56318.000078201294,Wed Nov 20 2024 14:21:25 GMT-0600 (Central Standard Time),336151.1000000015,A,bookenter,I,enter,756,2,3681.7999999970198,332469.30000000447,8000,WL,A,1.0
2,4.515000104904175,learn,55484.999895095825,Wed Nov 20 2024 14:21:25 GMT-0600 (Central Standard Time),336984.1000000015,A,f,I,f,813,2,832.6000000014901,336151.5,8000,WL,A,2.0
2,4.79800009727478,learn,55201.99990272522,Wed Nov 20 2024 14:21:25 GMT-0600 (Central Standard Time),337267.5,A,fl,I,l,269,2,1116.0,336151.5,8000,WL,A,2.0
2,5.065000057220459,learn,54934.99994277954,Wed Nov 20 2024 14:21:25 GMT-0600 (Central Standard Time),337534.1000000015,A,flo,I,o,250,2,1382.6000000014901,336151.5,8000,WL,A,2.0
2,5.331000089645386,learn,54668.999910354614,Wed Nov 20 2024 14:21:25 GMT-0600 (Central Standard Time),337800.6000000015,A,flow,I,w,255,2,1649.1000000014901,336151.5,8000,WL,A,2.0
2,5.664999961853027,learn,54335.00003814697,Wed Nov 20 2024 14:21:25 GMT-0600 (Central Standard Time),338133.90000000596,A,flowe,I,e,325,2,1982.4000000059605,336151.5,8000,WL,A,2.0
2,5.9649999141693115,learn,54035.00008583069,Wed Nov 20 2024 14:21:25 GMT-0600 (Central Standard Time),338433.90000000596,A,flower,I,r,279,2,2282.4000000059605,336151.5,8000,WL,A,2.0
2,6.38100004196167,learn,53618.99995803833,Wed Nov 20 2024 14:21:25 GMT-0600 (Central Standard Time),338850.6000000015,A,flowerenter,I,enter,395,2,2699.10000000149,336151.5,8000,WL,A,2.0
2,7.38100004196167,learn,52618.99995803833,Wed Nov 20 2024 14:21:25 GMT-0600 (Central Standard Time),339850.200000003,A,m,I,m,979,2,999.2000000029802,338851.0,8000,WL,A,3.0
2,7.680999994277954,learn,52319.000005722046,Wed Nov 20 2024 14:21:25 GMT-0600 (Central Standard Time),340150.0,A,me,I,e,290,2,1299.0,338851.0,8000,WL,A,3.0
2,8.063999891281128,learn,51936.00010871887,Wed Nov 20 2024 14:21:25 GMT-0600 (Central Standard Time),340533.200000003,A,mea,I,a,367,2,1682.2000000029802,338851.0,8000,WL,A,3.0
2,8.397000074386597,learn,51602.9999256134,Wed Nov 20 2024 14:21:25 GMT-0600 (Central Standard Time),340866.40000000596,A,mead,I,d,312,2,2015.4000000059605,338851.0,8000,WL,A,3.0
2,8.629999876022339,learn,51370.00012397766,Wed Nov 20 2024 14:21:25 GMT-0600 (Central Standard Time),341099.6000000015,A,meado,I,o,227,2,2248.60000000149,338851.0,8000,WL,A,3.0
2,9.013999938964844,learn,50986.000061035156,Wed Nov 20 2024 14:21:25 GMT-0600 (Central Standard Time),341483.0,A,meadow,I,w,370,2,2632.0,338851.0,8000,WL,A,3.0
2,9.79699993133545,learn,50203.00006866455,Wed Nov 20 2024 14:21:25 GMT-0600 (Central Standard Time),342266.1000000015,A,meadowenter,I,enter,762,2,3415.10000000149,338851.0,8000,WL,A,3.0
2,10.596999883651733,learn,49403.00011634827,Wed Nov 20 2024 14:21:25 GMT-0600 (Central Standard Time),343065.90000000596,A,g,I,g,780,2,799.4000000059605,342266.5,8000,WL,A,4.0
2,10.930000066757202,learn,49069.9999332428,Wed Nov 20 2024 14:21:25 GMT-0600 (Central Standard Time),343398.90000000596,A,go,I,o,324,2,1132.4000000059605,342266.5,8000,WL,A,4.0
2,11.196000099182129,learn,48803.99990081787,Wed Nov 20 2024 14:21:25 GMT-0600 (Central Standard Time),343665.5,A,gol,I,l,254,2,1399.0,342266.5,8000,WL,A,4.0
2,11.446000099182129,learn,48553.99990081787,Wed Nov 20 2024 14:21:25 GMT-0600 (Central Standard Time),343915.200000003,A,gold,I,d,244,2,1648.7000000029802,342266.5,8000,WL,A,4.0
2,12.463000059127808,learn,47536.99994087219,Wed Nov 20 2024 14:21:25 GMT-0600 (Central Standard Time),344931.90000000596,A,goldenter,I,enter,1002,2,2665.4000000059605,342266.5,8000,WL,A,4.0
2,14.279000043869019,learn,45720.99995613098,Wed Nov 20 2024 14:21:25 GMT-0600 (Central Standard Time),346747.90000000596,A,r,I,r,1801,2,1815.5,344932.40000000596,8000,WL,A,5.0
2,14.727999925613403,learn,45272.0000743866,Wed Nov 20 2024 14:21:25 GMT-0600 (Central Standard Time),347197.6000000015,A,ra,I,a,441,2,2265.1999999955297,344932.40000000596,8000,WL,A,5.0
2,15.312000036239624,learn,44687.999963760376,Wed Nov 20 2024 14:21:25 GMT-0600 (Central Standard Time),347781.0,A,rat,I,t,568,2,2848.5999999940395,344932.40000000596,8000,WL,A,5.0
2,15.461999893188477,learn,44538.00010681152,Wed Nov 20 2024 14:21:25 GMT-0600 (Central Standard Time),347930.90000000596,A,ratt,I,t,136,2,2998.5,344932.40000000596,8000,WL,A,5.0
2,16.07800006866455,learn,43921.99993133545,Wed Nov 20 2024 14:21:25 GMT-0600 (Central Standard Time),348547.40000000596,A,rattl,I,l,611,2,3615.0,344932.40000000596,8000,WL,A,5.0
2,16.527999877929688,learn,43472.00012207031,Wed Nov 20 2024 14:21:25 GMT-0600 (Central Standard Time),348997.0,A,rattle,I,e,434,2,4064.5999999940395,344932.40000000596,8000,WL,A,5.0
2,17.527999877929688,learn,42472.00012207031,Wed Nov 20 2024 14:21:25 GMT-0600 (Central Standard Time),349997.0,A,rattleenter,I,enter,992,2,5064.5999999940395,344932.40000000596,8000,WL,A,5.0
2,18.89400005340576,learn,41105.99994659424,Wed Nov 20 2024 14:21:25 GMT-0600 (Central Standard Time),351363.1000000015,A,k,I,k,1352,2,1365.7999999970198,349997.30000000447,8000,WL,A,6.0
2,19.177000045776367,learn,40822.99995422363,Wed Nov 20 2024 14:21:25 GMT-0600 (Central Standard Time),351646.6000000015,A,ke,I,e,274,2,1649.2999999970198,349997.30000000447,8000,WL,A,6.0
2,19.526999950408936,learn,40473.000049591064,Wed Nov 20 2024 14:21:25 GMT-0600 (Central Standard Time),351996.30000000447,A,key,I,y,335,2,1999.0,349997.30000000447,8000,WL,A,6.0
2,20.41000008583069,learn,39589.99991416931,Wed Nov 20 2024 14:21:25 GMT-0600 (Central Standard Time),352879.30000000447,A,keyenter,I,enter,872,2,2882.0,349997.30000000447,8000,WL,A,6.0
2,25.35800004005432,learn,34641.99995994568,Wed Nov 20 2024 14:21:25 GMT-0600 (Central Standard Time),357827.700000003,A,f,I,f,4942,2,4948.0,352879.700000003,8000,WL,A,7.0
2,25.60800004005432,learn,34391.99995994568,Wed Nov 20 2024 14:21:25 GMT-0600 (Central Standard Time),358077.6000000015,A,fl,I,l,242,2,5197.89999999851,352879.700000003,8000,WL,A,7.0
2,25.950999975204468,learn,34049.00002479553,Wed Nov 20 2024 14:21:25 GMT-0600 (Central Standard Time),358420.40000000596,A,flo,I,o,338,2,5540.70000000298,352879.700000003,8000,WL,A,7.0
2,26.191999912261963,learn,33808.00008773804,Wed Nov 20 2024 14:21:25 GMT-0600 (Central Standard Time),358660.90000000596,A,flow,I,w,225,2,5781.20000000298,352879.700000003,8000,WL,A,7.0
2,26.507999897003174,learn,33492.000102996826,Wed Nov 20 2024 14:21:25 GMT-0600 (Central Standard Time),358977.1000000015,A,flowe,I,e,305,2,6097.39999999851,352879.700000003,8000,WL,A,7.0
2,26.77500009536743,learn,33224.99990463257,Wed Nov 20 2024 14:21:25 GMT-0600 (Central Standard Time),359243.90000000596,A,flower,I,r,260,2,6364.20000000298,352879.700000003,8000,WL,A,7.0
2,27.22499990463257,learn,32775.00009536743,Wed Nov 20 2024 14:21:25 GMT-0600 (Central Standard Time),359694.0,A,flowerenter,I,enter,441,2,6814.29999999702,352879.700000003,8000,WL,A,7.0
2,31.256999969482422,learn,28743.000030517578,Wed Nov 20 2024 14:21:25 GMT-0600 (Central Standard Time),363726.1000000015,A,m,I,m,4023,2,4031.60000000149,359694.5,8000,WL,A,8.0
2,31.52300000190735,learn,28476.99999809265,Wed Nov 20 2024 14:21:25 GMT-0600 (Central Standard Time),363992.6000000015,A,me,I,e,255,2,4298.10000000149,359694.5,8000,WL,A,8.0
2,32.055999994277954,learn,27944.000005722046,Wed Nov 20 2024 14:21:25 GMT-0600 (Central Standard Time),364525.6000000015,A,mea,I,a,517,2,4831.10000000149,359694.5,8000,WL,A,8.0
2,32.58999991416931,learn,27410.00008583069,Wed Nov 20 2024 14:21:25 GMT-0600 (Central Standard Time),365058.80000000447,A,mead,I,d,520,2,5364.30000000447,359694.5,8000,WL,A,8.0
2,32.888999938964844,learn,27111.000061035156,Wed Nov 20 2024 14:21:25 GMT-0600 (Central Standard Time),365358.700000003,A,meado,I,o,283,2,5664.20000000298,359694.5,8000,WL,A,8.0
2,33.223000049591064,learn,26776.999950408936,Wed Nov 20 2024 14:21:25 GMT-0600 (Central Standard Time),365692.0,A,meadow,I,w,327,2,5997.5,359694.5,8000,WL,A,8.0
2,33.77300000190735,learn,26226.99999809265,Wed Nov 20 2024 14:21:25 GMT-0600 (Central Standard Time),366241.90000000596,A,meadowenter,I,enter,530,2,6547.4000000059605,359694.5,8000,WL,A,8.0
2,38.37100005149841,learn,21628.999948501587,Wed Nov 20 2024 14:21:25 GMT-0600 (Central Standard Time),370840.30000000447,A,t,I,t,4588,2,4598.10000000149,366242.200000003,8000,WL,A,9.0
2,38.6710000038147,learn,21328.999996185303,Wed Nov 20 2024 14:21:25 GMT-0600 (Central Standard Time),371140.200000003,A,tr,I,r,293,2,4898.0,366242.200000003,8000,WL,A,9.0
2,39.23699998855591,learn,20763.00001144409,Wed Nov 20 2024 14:21:25 GMT-0600 (Central Standard Time),371706.700000003,A,tra,I,a,553,2,5464.5,366242.200000003,8000,WL,A,9.0
2,40.354000091552734,learn,19645.999908447266,Wed Nov 20 2024 14:21:25 GMT-0600 (Central Standard Time),372822.90000000596,A,trai,I,i,1099,2,6580.70000000298,366242.200000003,8000,WL,A,9.0
2,40.78699994087219,learn,19213.000059127808,Wed Nov 20 2024 14:21:25 GMT-0600 (Central Standard Time),373256.200000003,A,train,I,n,415,2,7014.0,366242.200000003,8000,WL,A,9.0
2,41.8199999332428,learn,18180.000066757202,Wed Nov 20 2024 14:21:25 GMT-0600 (Central Standard Time),374289.200000003,A,trainenter,I,enter,1013,2,8047.0,366242.200000003,8000,WL,A,9.0
2,42.80299997329712,learn,17197.00002670288,Wed Nov 20 2024 14:21:25 GMT-0600 (Central Standard Time),375272.200000003,A,a,I,a,964,2,982.7000000029802,374289.5,8000,WL,A,10.0
2,43.22000002861023,learn,16779.99997138977,Wed Nov 20 2024 14:21:25 GMT-0600 (Central Standard Time),375688.80000000447,A,ap,I,p,405,2,1399.3000000044703,374289.5,8000,WL,A,10.0
2,43.420000076293945,learn,16579.999923706055,Wed Nov 20 2024 14:21:25 GMT-0600 (Central Standard Time),375889.0,A,app,I,p,181,2,1599.5,374289.5,8000,WL,A,10.0
2,43.668999910354614,learn,16331.000089645386,Wed Nov 20 2024 14:21:25 GMT-0600 (Central Standard Time),376138.5,A,appl,I,l,245,2,1849.0,374289.5,8000,WL,A,10.0
2,43.90299987792969,learn,16097.000122070312,Wed Nov 20 2024 14:21:25 GMT-0600 (Central Standard Time),376372.0,A,apple,I,e,219,2,2082.5,374289.5,8000,WL,A,10.0
2,44.40299987792969,learn,15597.000122070312,Wed Nov 20 2024 14:21:25 GMT-0600 (Central Standard Time),376871.90000000596,A,appleenter,I,enter,489,2,2582.4000000059605,374289.5,8000,WL,A,10.0
2,50.300999879837036,learn,9699.000120162964,Wed Nov 20 2024 14:21:25 GMT-0600 (Central Standard Time),382770.30000000447,A,r,I,r,5878,2,5898.10000000149,376872.200000003,8000,WL,A,11.0
2,50.68400001525879,learn,9315.999984741211,Wed Nov 20 2024 14:21:25 GMT-0600 (Central Standard Time),383153.1000000015,A,ru,I,u,371,2,6280.89999999851,376872.200000003,8000,WL,A,11.0
2,50.967000007629395,learn,9032.999992370605,Wed Nov 20 2024 14:21:25 GMT-0600 (Central Standard Time),383436.30000000447,A,rug,I,g,268,2,6564.10000000149,376872.200000003,8000,WL,A,11.0
2,51.48399996757507,learn,8516.000032424927,Wed Nov 20 2024 14:21:25 GMT-0600 (Central Standard Time),383952.80000000447,A,rugenter,I,enter,505,2,7080.60000000149,376872.200000003,8000,WL,A,11.0
2,56.181999921798706,learn,3818.000078201294,Wed Nov 20 2024 14:21:25 GMT-0600 (Central Standard Time),388651.5,A,r,I,r,4685,2,4698.19999999553,383953.30000000447,8000,WL,A,12.0
2,56.365999937057495,learn,3634.000062942505,Wed Nov 20 2024 14:21:25 GMT-0600 (Central Standard Time),388834.80000000447,A,ra,I,a,170,2,4881.5,383953.30000000447,8000,WL,A,12.0
2,56.71499991416931,learn,3285.0000858306885,Wed Nov 20 2024 14:21:25 GMT-0600 (Central Standard Time),389184.6000000015,A,rat,I,t,331,2,5231.29999999702,383953.30000000447,8000,WL,A,12.0
2,56.88199996948242,learn,3118.000030517578,Wed Nov 20 2024 14:21:25 GMT-0600 (Central Standard Time),389350.90000000596,A,ratt,I,t,149,2,5397.60000000149,383953.30000000447,8000,WL,A,12.0
2,57.53200006484985,learn,2467.9999351501465,Wed Nov 20 2024 14:21:25 GMT-0600 (Central Standard Time),390001.1000000015,A,rattl,I,l,630,2,6047.79999999702,383953.30000000447,8000,WL,A,12.0
2,57.73300004005432,learn,2266.9999599456787,Wed Nov 20 2024 14:21:25 GMT-0600 (Central Standard Time),390202.200000003,A,rattle,I,e,196,2,6248.89999999851,383953.30000000447,8000,WL,A,12.0
2,58.21499991416931,learn,1785.0000858306885,Wed Nov 20 2024 14:21:25 GMT-0600 (Central Standard Time),390684.1000000015,A,rattleenter,I,enter,467,2,6730.79999999702,383953.30000000447,8000,WL,A,12.0
2,60.013999938964844,learn,-13.99993896484375,Wed Nov 20 2024 14:21:25 GMT-0600 (Central Standard Time),392483.5,A,None,I,None,1794,2,1799.0999999940395,390684.40000000596,8000,WL,A,13.0
3,1.433000087738037,learn,58566.99991226196,Wed Nov 20 2024 14:21:25 GMT-0600 (Central Standard Time),464277.80000000447,A,l,I,l,1417,2,1432.7000000029802,462845.1000000015,8000,WL,A,1.0
3,1.7660000324249268,learn,58233.99996757507,Wed Nov 20 2024 14:21:25 GMT-0600 (Central Standard Time),464610.700000003,A,lo,I,o,327,2,1765.6000000014901,462845.1000000015,8000,WL,A,1.0
3,2.1989998817443848,learn,57801.000118255615,Wed Nov 20 2024 14:21:25 GMT-0600 (Central Standard Time),465044.30000000447,A,log,I,g,419,2,2199.2000000029802,462845.1000000015,8000,WL,A,1.0
3,2.815000057220459,learn,57184.99994277954,Wed Nov 20 2024 14:21:25 GMT-0600 (Central Standard Time),465660.6000000015,A,logenter,I,enter,601,2,2815.5,462845.1000000015,8000,WL,A,1.0
3,3.7149999141693115,learn,56285.00008583069,Wed Nov 20 2024 14:21:25 GMT-0600 (Central Standard Time),466560.200000003,A,k,I,k,889,2,899.2000000029802,465661.0,8000,WL,A,2.0
3,4.115000009536743,learn,55884.99999046326,Wed Nov 20 2024 14:21:25 GMT-0600 (Central Standard Time),466960.0,A,ke,I,e,381,2,1299.0,465661.0,8000,WL,A,2.0
3,4.515000104904175,learn,55484.999895095825,Wed Nov 20 2024 14:21:25 GMT-0600 (Central Standard Time),467359.80000000447,A,key,I,y,382,2,1698.8000000044703,465661.0,8000,WL,A,2.0
3,5.181999921798706,learn,54818.000078201294,Wed Nov 20 2024 14:21:25 GMT-0600 (Central Standard Time),468027.6000000015,A,keyenter,I,enter,654,2,2366.60000000149,465661.0,8000,WL,A,2.0
3,5.997999906539917,learn,54002.00009346008,Wed Nov 20 2024 14:21:25 GMT-0600 (Central Standard Time),468842.700000003,A,r,I,r,810,2,814.7999999970198,468027.90000000596,8000,WL,A,3.0
3,6.3480000495910645,learn,53651.999950408936,Wed Nov 20 2024 14:21:25 GMT-0600 (Central Standard Time),469193.0,A,ra,I,a,331,2,1165.0999999940395,468027.90000000596,8000,WL,A,3.0
3,6.7809998989105225,learn,53219.00010108948,Wed Nov 20 2024 14:21:25 GMT-0600 (Central Standard Time),469626.0,A,rat,I,t,421,2,1598.0999999940395,468027.90000000596,8000,WL,A,3.0
3,6.947000026702881,learn,53052.99997329712,Wed Nov 20 2024 14:21:25 GMT-0600 (Central Standard Time),469792.5,A,ratt,I,t,147,2,1764.5999999940395,468027.90000000596,8000,WL,A,3.0
3,8.013999938964844,learn,51986.000061035156,Wed Nov 20 2024 14:21:25 GMT-0600 (Central Standard Time),470858.80000000447,A,rattl,I,l,1061,2,2830.89999999851,468027.90000000596,8000,WL,A,3.0
3,8.430000066757202,learn,51569.9999332428,Wed Nov 20 2024 14:21:25 GMT-0600 (Central Standard Time),471275.6000000015,A,rattle,I,e,403,2,3247.6999999955297,468027.90000000596,8000,WL,A,3.0
3,8.980000019073486,learn,51019.999980926514,Wed Nov 20 2024 14:21:25 GMT-0600 (Central Standard Time),471825.5,A,rattleenter,I,enter,538,2,3797.5999999940395,468027.90000000596,8000,WL,A,3.0
3,9.913000106811523,learn,50086.99989318848,Wed Nov 20 2024 14:21:25 GMT-0600 (Central Standard Time),472758.30000000447,A,g,I,g,924,2,932.5,471825.80000000447,8000,WL,A,4.0
3,10.213000059127808,learn,49786.99994087219,Wed Nov 20 2024 14:21:25 GMT-0600 (Central Standard Time),473058.30000000447,A,go,I,o,287,2,1232.5,471825.80000000447,8000,WL,A,4.0
3,10.513000011444092,learn,49486.99998855591,Wed Nov 20 2024 14:21:25 GMT-0600 (Central Standard Time),473358.0,A,gol,I,l,291,2,1532.1999999955297,471825.80000000447,8000,WL,A,4.0
3,10.796000003814697,learn,49203.9999961853,Wed Nov 20 2024 14:21:25 GMT-0600 (Central Standard Time),473641.5,A,gold,I,d,272,2,1815.6999999955297,471825.80000000447,8000,WL,A,4.0
3,11.578999996185303,learn,48421.0000038147,Wed Nov 20 2024 14:21:25 GMT-0600 (Central Standard Time),474424.5,A,goldenter,I,enter,764,2,2598.6999999955297,471825.80000000447,8000,WL,A,4.0
3,13.125999927520752,learn,46874.00007247925,Wed Nov 20 2024 14:21:25 GMT-0600 (Central Standard Time),475970.80000000447,A,t,I,t,1542,2,1546.0,474424.80000000447,8000,WL,A,5.0
3,13.34500002861023,learn,46654.99997138977,Wed Nov 20 2024 14:21:25 GMT-0600 (Central Standard Time),476190.30000000447,A,tr,I,r,210,2,1765.5,474424.80000000447,8000,WL,A,5.0
3,13.595999956130981,learn,46404.00004386902,Wed Nov 20 2024 14:21:25 GMT-0600 (Central Standard Time),476440.700000003,A,tra,I,a,239,2,2015.8999999985099,474424.80000000447,8000,WL,A,5.0
3,13.979000091552734,learn,46020.999908447266,Wed Nov 20 2024 14:21:25 GMT-0600 (Central Standard Time),476823.700000003,A,trai,I,i,373,2,2398.89999999851,474424.80000000447,8000,WL,A,5.0
3,14.49399995803833,learn,45506.00004196167,Wed Nov 20 2024 14:21:25 GMT-0600 (Central Standard Time),477340.1000000015,A,train,I,n,502,2,2915.2999999970198,474424.80000000447,8000,WL,A,5.0
3,15.177000045776367,learn,44822.99995422363,Wed Nov 20 2024 14:21:25 GMT-0600 (Central Standard Time),478023.30000000447,A,trainenter,I,enter,665,2,3598.5,474424.80000000447,8000,WL,A,5.0
3,16.009999990463257,learn,43990.00000953674,Wed Nov 20 2024 14:21:25 GMT-0600 (Central Standard Time),478856.40000000596,A,m,I,m,822,2,832.8000000044703,478023.6000000015,8000,WL,A,6.0
3,16.359999895095825,learn,43640.000104904175,Wed Nov 20 2024 14:21:25 GMT-0600 (Central Standard Time),479206.5,A,me,I,e,333,2,1182.8999999985099,478023.6000000015,8000,WL,A,6.0
3,16.710000038146973,learn,43289.99996185303,Wed Nov 20 2024 14:21:25 GMT-0600 (Central Standard Time),479556.1000000015,A,mea,I,a,335,2,1532.5,478023.6000000015,8000,WL,A,6.0
3,17.042999982833862,learn,42957.00001716614,Wed Nov 20 2024 14:21:25 GMT-0600 (Central Standard Time),479889.5,A,mead,I,d,313,2,1865.8999999985099,478023.6000000015,8000,WL,A,6.0
3,17.243000030517578,learn,42756.99996948242,Wed Nov 20 2024 14:21:25 GMT-0600 (Central Standard Time),480089.6000000015,A,meado,I,o,188,2,2066.0,478023.6000000015,8000,WL,A,6.0
3,17.64299988746643,learn,42357.00011253357,Wed Nov 20 2024 14:21:25 GMT-0600 (Central Standard Time),480489.30000000447,A,meadow,I,w,388,2,2465.7000000029802,478023.6000000015,8000,WL,A,6.0
3,18.2260000705719,learn,41773.9999294281,Wed Nov 20 2024 14:21:25 GMT-0600 (Central Standard Time),481072.40000000596,A,meadowenter,I,enter,572,2,3048.8000000044703,478023.6000000015,8000,WL,A,6.0
3,19.675999879837036,learn,40324.000120162964,Wed Nov 20 2024 14:21:25 GMT-0600 (Central Standard Time),482522.1000000015,A,c,I,c,1429,2,1449.2999999970198,481072.80000000447,8000,WL,A,7.0
3,19.95900011062622,learn,40040.99988937378,Wed Nov 20 2024 14:21:25 GMT-0600 (Central Standard Time),482805.30000000447,A,ch,I,h,267,2,1732.5,481072.80000000447,8000,WL,A,7.0
3,20.625,learn,39375.0,Wed Nov 20 2024 14:21:25 GMT-0600 (Central Standard Time),483471.700000003,A,chi,I,i,656,2,2398.89999999851,481072.80000000447,8000,WL,A,7.0
3,21.04200005531311,learn,38957.99994468689,Wed Nov 20 2024 14:21:25 GMT-0600 (Central Standard Time),483888.200000003,A,chim,I,m,398,2,2815.39999999851,481072.80000000447,8000,WL,A,7.0
3,21.54200005531311,learn,38457.99994468689,Wed Nov 20 2024 14:21:25 GMT-0600 (Central Standard Time),484388.1000000015,A,chimn,I,n,485,2,3315.2999999970198,481072.80000000447,8000,WL,A,7.0
3,21.842000007629395,learn,38157.999992370605,Wed Nov 20 2024 14:21:25 GMT-0600 (Central Standard Time),484687.90000000596,A,chimne,I,e,281,2,3615.10000000149,481072.80000000447,8000,WL,A,7.0
3,22.19099998474121,learn,37809.00001525879,Wed Nov 20 2024 14:21:25 GMT-0600 (Central Standard Time),485037.5,A,chimney,I,y,341,2,3964.6999999955297,481072.80000000447,8000,WL,A,7.0
3,23.058000087738037,learn,36941.99991226196,Wed Nov 20 2024 14:21:25 GMT-0600 (Central Standard Time),485904.200000003,A,chimneyenter,I,enter,856,2,4831.39999999851,481072.80000000447,8000,WL,A,7.0
3,26.707000017166138,learn,33292.99998283386,Wed Nov 20 2024 14:21:25 GMT-0600 (Central Standard Time),489553.0,A,m,I,m,3638,2,3648.5,485904.5,8000,WL,A,8.0
3,26.94000005722046,learn,33059.99994277954,Wed Nov 20 2024 14:21:25 GMT-0600 (Central Standard Time),489786.200000003,A,me,I,e,229,2,3881.7000000029802,485904.5,8000,WL,A,8.0
3,27.322999954223633,learn,32677.000045776367,Wed Nov 20 2024 14:21:25 GMT-0600 (Central Standard Time),490169.700000003,A,mea,I,a,371,2,4265.20000000298,485904.5,8000,WL,A,8.0
3,27.640000104904175,learn,32359.999895095825,Wed Nov 20 2024 14:21:25 GMT-0600 (Central Standard Time),490486.200000003,A,mead,I,d,308,2,4581.70000000298,485904.5,8000,WL,A,8.0
3,27.822999954223633,learn,32177.000045776367,Wed Nov 20 2024 14:21:25 GMT-0600 (Central Standard Time),490669.30000000447,A,meado,I,o,175,2,4764.80000000447,485904.5,8000,WL,A,8.0
3,28.072999954223633,learn,31927.000045776367,Wed Nov 20 2024 14:21:25 GMT-0600 (Central Standard Time),490919.40000000596,A,meadow,I,w,240,2,5014.9000000059605,485904.5,8000,WL,A,8.0
3,28.67300009727478,learn,31326.99990272522,Wed Nov 20 2024 14:21:25 GMT-0600 (Central Standard Time),491519.0,A,meadowenter,I,enter,590,2,5614.5,485904.5,8000,WL,A,8.0
3,33.855000019073486,learn,26144.999980926514,Wed Nov 20 2024 14:21:25 GMT-0600 (Central Standard Time),496700.90000000596,A,h,I,h,5167,2,5181.70000000298,491519.200000003,8000,WL,A,9.0
3,34.12100005149841,learn,25878.999948501587,Wed Nov 20 2024 14:21:25 GMT-0600 (Central Standard Time),496967.700000003,A,ha,I,a,248,2,5448.5,491519.200000003,8000,WL,A,9.0
3,34.7039999961853,learn,25296.000003814697,Wed Nov 20 2024 14:21:25 GMT-0600 (Central Standard Time),497550.6000000015,A,har,I,r,574,2,6031.39999999851,491519.200000003,8000,WL,A,9.0
3,35.38700008392334,learn,24612.99991607666,Wed Nov 20 2024 14:21:25 GMT-0600 (Central Standard Time),498233.700000003,A,harp,I,p,671,2,6714.5,491519.200000003,8000,WL,A,9.0
3,36.30399990081787,learn,23696.00009918213,Wed Nov 20 2024 14:21:25 GMT-0600 (Central Standard Time),499149.90000000596,A,harpenter,I,enter,900,2,7630.70000000298,491519.200000003,8000,WL,A,9.0
3,41.86800003051758,learn,18131.999969482422,Wed Nov 20 2024 14:21:25 GMT-0600 (Central Standard Time),504714.80000000447,A,r,I,r,5560,2,5564.60000000149,499150.200000003,8000,WL,A,10.0
3,42.234999895095825,learn,17765.000104904175,Wed Nov 20 2024 14:21:25 GMT-0600 (Central Standard Time),505081.80000000447,A,ru,I,u,346,2,5931.60000000149,499150.200000003,8000,WL,A,10.0
3,42.484999895095825,learn,17515.000104904175,Wed Nov 20 2024 14:21:25 GMT-0600 (Central Standard Time),505331.5,A,rug,I,g,244,2,6181.29999999702,499150.200000003,8000,WL,A,10.0
3,42.984999895095825,learn,17015.000104904175,Wed Nov 20 2024 14:21:25 GMT-0600 (Central Standard Time),505831.30000000447,A,rugenter,I,enter,482,2,6681.10000000149,499150.200000003,8000,WL,A,10.0
3,50.16599988937378,learn,9834.00011062622,Wed Nov 20 2024 14:21:25 GMT-0600 (Central Standard Time),513012.40000000596,A,b,I,b,7174,2,7180.80000000447,505831.6000000015,8000,WL,A,11.0
3,50.698999881744385,learn,9301.000118255615,Wed Nov 20 2024 14:21:25 GMT-0600 (Central Standard Time),513545.30000000447,A,bo,I,o,513,2,7713.70000000298,505831.6000000015,8000,WL,A,11.0
3,50.848999977111816,learn,9151.000022888184,Wed Nov 20 2024 14:21:25 GMT-0600 (Central Standard Time),513695.40000000596,A,boo,I,o,132,2,7863.80000000447,505831.6000000015,8000,WL,A,11.0
3,51.115999937057495,learn,8884.000062942505,Wed Nov 20 2024 14:21:25 GMT-0600 (Central Standard Time),513962.40000000596,A,book,I,k,246,2,8130.80000000447,505831.6000000015,8000,WL,A,11.0
3,52.098999977111816,learn,7901.000022888184,Wed Nov 20 2024 14:21:25 GMT-0600 (Central Standard Time),514945.0,A,bookenter,I,enter,971,2,9113.39999999851,505831.6000000015,8000,WL,A,11.0
3,52.78200006484985,learn,7217.9999351501465,Wed Nov 20 2024 14:21:25 GMT-0600 (Central Standard Time),515628.200000003,A,a,I,a,677,2,682.7000000029802,514945.5,8000,WL,A,12.0
3,53.19799995422363,learn,6802.000045776367,Wed Nov 20 2024 14:21:25 GMT-0600 (Central Standard Time),516044.90000000596,A,ap,I,p,401,2,1099.4000000059605,514945.5,8000,WL,A,12.0
3,53.365999937057495,learn,6634.000062942505,Wed Nov 20 2024 14:21:25 GMT-0600 (Central Standard Time),516212.1000000015,A,app,I,p,161,2,1266.6000000014901,514945.5,8000,WL,A,12.0
3,53.61500000953674,learn,6384.999990463257,Wed Nov 20 2024 14:21:25 GMT-0600 (Central Standard Time),516461.200000003,A,appl,I,l,234,2,1515.7000000029802,514945.5,8000,WL,A,12.0
3,53.848000049591064,learn,6151.999950408936,Wed Nov 20 2024 14:21:25 GMT-0600 (Central Standard Time),516694.6000000015,A,apple,I,e,224,2,1749.1000000014901,514945.5,8000,WL,A,12.0
3,54.69799995422363,learn,5302.000045776367,Wed Nov 20 2024 14:21:25 GMT-0600 (Central Standard Time),517544.40000000596,A,appleenter,I,enter,839,2,2598.9000000059605,514945.5,8000,WL,A,12.0
3,60.01300001144409,learn,-13.000011444091797,Wed Nov 20 2024 14:21:25 GMT-0600 (Central Standard Time),522859.30000000447,A,None,I,None,5309,2,5314.5,517544.80000000447,8000,WL,A,13.0
4,1.3809998035430908,learn,58619.00019645691,Wed Nov 20 2024 14:21:25 GMT-0600 (Central Standard Time),598252.200000003,A,r,I,r,1377,2,1382.3999999985099,596869.8000000045,8000,WL,A,1.0
4,1.6150000095367432,learn,58384.99999046326,Wed Nov 20 2024 14:21:25 GMT-0600 (Central Standard Time),598485.700000003,A,ra,I,a,225,2,1615.8999999985099,596869.8000000045,8000,WL,A,1.0
4,2.1640000343322754,learn,57835.999965667725,Wed Nov 20 2024 14:21:25 GMT-0600 (Central Standard Time),599035.5,A,rat,I,t,536,2,2165.6999999955297,596869.8000000045,8000,WL,A,1.0
4,2.313999891281128,learn,57686.00010871887,Wed Nov 20 2024 14:21:25 GMT-0600 (Central Standard Time),599185.200000003,A,ratt,I,t,138,2,2315.39999999851,596869.8000000045,8000,WL,A,1.0
4,3.063999891281128,learn,56936.00010871887,Wed Nov 20 2024 14:21:25 GMT-0600 (Central Standard Time),599935.1000000015,A,rattl,I,l,740,2,3065.2999999970198,596869.8000000045,8000,WL,A,1.0
4,3.3969998359680176,learn,56603.00016403198,Wed Nov 20 2024 14:21:25 GMT-0600 (Central Standard Time),600268.5,A,rattle,I,e,318,2,3398.6999999955297,596869.8000000045,8000,WL,A,1.0
4,3.746999979019165,learn,56253.000020980835,Wed Nov 20 2024 14:21:25 GMT-0600 (Central Standard Time),600618.3000000045,A,rattleenter,I,enter,329,2,3748.5,596869.8000000045,8000,WL,A,1.0
4,4.346999883651733,learn,55653.00011634827,Wed Nov 20 2024 14:21:25 GMT-0600 (Central Standard Time),601218.200000003,A,m,I,m,579,2,599.6000000014901,600618.6000000015,8000,WL,A,2.0
4,4.579999923706055,learn,55420.000076293945,Wed Nov 20 2024 14:21:25 GMT-0600 (Central Standard Time),601451.3000000045,A,me,I,e,219,2,832.7000000029802,600618.6000000015,8000,WL,A,2.0
4,4.929999828338623,learn,55070.00017166138,Wed Nov 20 2024 14:21:25 GMT-0600 (Central Standard Time),601800.900000006,A,mea,I,a,330,2,1182.3000000044703,600618.6000000015,8000,WL,A,2.0
4,5.329999923706055,learn,54670.000076293945,Wed Nov 20 2024 14:21:25 GMT-0600 (Central Standard Time),602201.1000000015,A,mead,I,d,389,2,1582.5,600618.6000000015,8000,WL,A,2.0
4,5.679999828338623,learn,54320.00017166138,Wed Nov 20 2024 14:21:25 GMT-0600 (Central Standard Time),602551.200000003,A,meado,I,o,341,2,1932.6000000014901,600618.6000000015,8000,WL,A,2.0
4,6.046000003814697,learn,53953.9999961853,Wed Nov 20 2024 14:21:25 GMT-0600 (Central Standard Time),602917.5,A,meadow,I,w,351,2,2298.89999999851,600618.6000000015,8000,WL,A,2.0
4,6.395999908447266,learn,53604.000091552734,Wed Nov 20 2024 14:21:25 GMT-0600 (Central Standard Time),603267.3000000045,A,meadowenter,I,enter,336,2,2648.7000000029802,600618.6000000015,8000,WL,A,2.0
4,7.013000011444092,learn,52986.99998855591,Wed Nov 20 2024 14:21:25 GMT-0600 (Central Standard Time),603883.900000006,A,c,I,c,610,2,616.3000000044703,603267.6000000015,8000,WL,A,3.0
4,7.245999813079834,learn,52754.000186920166,Wed Nov 20 2024 14:21:25 GMT-0600 (Central Standard Time),604117.3000000045,A,ch,I,h,218,2,849.7000000029802,603267.6000000015,8000,WL,A,3.0
4,7.895999908447266,learn,52104.000091552734,Wed Nov 20 2024 14:21:25 GMT-0600 (Central Standard Time),604767.1000000015,A,chi,I,i,632,2,1499.5,603267.6000000015,8000,WL,A,3.0
4,8.245999813079834,learn,51754.000186920166,Wed Nov 20 2024 14:21:25 GMT-0600 (Central Standard Time),605117.0,A,chim,I,m,343,2,1849.3999999985099,603267.6000000015,8000,WL,A,3.0
4,8.895999908447266,learn,51104.000091552734,Wed Nov 20 2024 14:21:25 GMT-0600 (Central Standard Time),605766.6000000015,A,chimn,I,n,632,2,2499.0,603267.6000000015,8000,WL,A,3.0
4,9.345999956130981,learn,50654.00004386902,Wed Nov 20 2024 14:21:25 GMT-0600 (Central Standard Time),606216.700000003,A,chimne,I,e,431,2,2949.10000000149,603267.6000000015,8000,WL,A,3.0
4,9.628999948501587,learn,50371.00005149841,Wed Nov 20 2024 14:21:25 GMT-0600 (Central Standard Time),606499.8000000045,A,chimney,I,y,269,2,3232.2000000029802,603267.6000000015,8000,WL,A,3.0
4,10.26199984550476,learn,49738.00015449524,Wed Nov 20 2024 14:21:25 GMT-0600 (Central Standard Time),607133.1000000015,A,chimneyenter,I,enter,618,2,3865.5,603267.6000000015,8000,WL,A,3.0
4,11.062000036239624,learn,48937.999963760376,Wed Nov 20 2024 14:21:25 GMT-0600 (Central Standard Time),607932.6000000015,A,k,I,k,785,2,799.1999999955297,607133.400000006,8000,WL,A,4.0
4,11.42799997329712,learn,48572.00002670288,Wed Nov 20 2024 14:21:25 GMT-0600 (Central Standard Time),608299.400000006,A,ke,I,e,353,2,1166.0,607133.400000006,8000,WL,A,4.0
4,11.760999917984009,learn,48239.00008201599,Wed Nov 20 2024 14:21:25 GMT-0600 (Central Standard Time),608632.400000006,A,key,I,y,314,2,1499.0,607133.400000006,8000,WL,A,4.0
4,12.378000020980835,learn,47621.999979019165,Wed Nov 20 2024 14:21:25 GMT-0600 (Central Standard Time),609249.1000000015,A,keyenter,I,enter,597,2,2115.6999999955297,607133.400000006,8000,WL,A,4.0
4,13.128000020980835,learn,46871.999979019165,Wed Nov 20 2024 14:21:25 GMT-0600 (Central Standard Time),609998.700000003,A,l,I,l,741,2,749.3999999985099,609249.3000000045,8000,WL,A,5.0
4,13.42799997329712,learn,46572.00002670288,Wed Nov 20 2024 14:21:25 GMT-0600 (Central Standard Time),610298.5,A,lo,I,o,295,2,1049.1999999955297,609249.3000000045,8000,WL,A,5.0
4,13.976999998092651,learn,46023.00000190735,Wed Nov 20 2024 14:21:25 GMT-0600 (Central Standard Time),610848.3000000045,A,log,I,g,539,2,1599.0,609249.3000000045,8000,WL,A,5.0
4,14.926999807357788,learn,45073.00019264221,Wed Nov 20 2024 14:21:25 GMT-0600 (Central Standard Time),611798.0,A,logenter,I,enter,941,2,2548.6999999955297,609249.3000000045,8000,WL,A,5.0
4,16.009999990463257,learn,43990.00000953674,Wed Nov 20 2024 14:21:25 GMT-0600 (Central Standard Time),612881.200000003,A,r,I,r,1064,2,1082.8999999985099,611798.3000000045,8000,WL,A,6.0
4,16.442999839782715,learn,43557.000160217285,Wed Nov 20 2024 14:21:25 GMT-0600 (Central Standard Time),613314.3000000045,A,ru,I,u,428,2,1516.0,611798.3000000045,8000,WL,A,6.0
4,17.209999799728394,learn,42790.00020027161,Wed Nov 20 2024 14:21:25 GMT-0600 (Central Standard Time),614080.700000003,A,rug,I,g,748,2,2282.39999999851,611798.3000000045,8000,WL,A,6.0
4,17.575999975204468,learn,42424.00002479553,Wed Nov 20 2024 14:21:25 GMT-0600 (Central Standard Time),614447.1000000015,A,rugenter,I,enter,357,2,2648.7999999970198,611798.3000000045,8000,WL,A,6.0
4,20.437999963760376,learn,39562.000036239624,Wed Nov 20 2024 14:21:25 GMT-0600 (Central Standard Time),617309.3000000045,A,b,I,b,2710,2,2861.8000000044703,614447.5,8000,WL,A,7.0
4,20.592000007629395,learn,39407.999992370605,Wed Nov 20 2024 14:21:25 GMT-0600 (Central Standard Time),617462.700000003,A,bo,I,o,136,2,3015.2000000029802,614447.5,8000,WL,A,7.0
4,20.758999824523926,learn,39241.000175476074,Wed Nov 20 2024 14:21:25 GMT-0600 (Central Standard Time),617629.6000000015,A,boo,I,o,159,2,3182.10000000149,614447.5,8000,WL,A,7.0
4,21.04199981689453,learn,38958.00018310547,Wed Nov 20 2024 14:21:25 GMT-0600 (Central Standard Time),617912.900000006,A,book,I,k,272,2,3465.4000000059605,614447.5,8000,WL,A,7.0
4,21.574999809265137,learn,38425.00019073486,Wed Nov 20 2024 14:21:25 GMT-0600 (Central Standard Time),618446.200000003,A,bookenter,I,enter,517,2,3998.7000000029802,614447.5,8000,WL,A,7.0
4,22.19099998474121,learn,37809.00001525879,Wed Nov 20 2024 14:21:25 GMT-0600 (Central Standard Time),619062.5,A,t,I,t,599,2,616.0,618446.5,8000,WL,A,8.0
4,22.490999937057495,learn,37509.000062942505,Wed Nov 20 2024 14:21:25 GMT-0600 (Central Standard Time),619362.400000006,A,tr,I,r,287,2,915.9000000059605,618446.5,8000,WL,A,8.0
4,23.0239999294281,learn,36976.0000705719,Wed Nov 20 2024 14:21:25 GMT-0600 (Central Standard Time),619895.6000000015,A,tra,I,a,523,2,1449.1000000014901,618446.5,8000,WL,A,8.0
4,23.323999881744385,learn,36676.000118255615,Wed Nov 20 2024 14:21:25 GMT-0600 (Central Standard Time),620195.400000006,A,trai,I,i,286,2,1748.9000000059605,618446.5,8000,WL,A,8.0
4,23.741999864578247,learn,36258.00013542175,Wed Nov 20 2024 14:21:25 GMT-0600 (Central Standard Time),620613.0,A,train,I,n,410,2,2166.5,618446.5,8000,WL,A,8.0
4,24.573999881744385,learn,35426.000118255615,Wed Nov 20 2024 14:21:25 GMT-0600 (Central Standard Time),621445.1000000015,A,trainenter,I,enter,817,2,2998.60000000149,618446.5,8000,WL,A,8.0
4,25.5239999294281,learn,34476.0000705719,Wed Nov 20 2024 14:21:25 GMT-0600 (Central Standard Time),622394.900000006,A,g,I,g,936,2,949.4000000059605,621445.5,8000,WL,A,9.0
4,25.789999961853027,learn,34210.00003814697,Wed Nov 20 2024 14:21:25 GMT-0600 (Central Standard Time),622661.3000000045,A,go,I,o,259,2,1215.8000000044703,621445.5,8000,WL,A,9.0
4,26.056999921798706,learn,33943.000078201294,Wed Nov 20 2024 14:21:25 GMT-0600 (Central Standard Time),622927.8000000045,A,gol,I,l,248,2,1482.3000000044703,621445.5,8000,WL,A,9.0
4,26.29099988937378,learn,33709.00011062622,Wed Nov 20 2024 14:21:25 GMT-0600 (Central Standard Time),623162.200000003,A,gold,I,d,230,2,1716.7000000029802,621445.5,8000,WL,A,9.0
4,26.822999954223633,learn,33177.00004577637,Wed Nov 20 2024 14:21:25 GMT-0600 (Central Standard Time),623694.1000000015,A,goldenter,I,enter,524,2,2248.60000000149,621445.5,8000,WL,A,9.0
4,28.938999891281128,learn,31061.000108718872,Wed Nov 20 2024 14:21:25 GMT-0600 (Central Standard Time),625810.200000003,A,f,I,f,2095,2,2115.7999999970198,623694.400000006,8000,WL,A,10.0
4,29.322999954223633,learn,30677.000045776367,Wed Nov 20 2024 14:21:25 GMT-0600 (Central Standard Time),626193.5,A,fi,I,i,364,2,2499.0999999940395,623694.400000006,8000,WL,A,10.0
4,29.888999938964844,learn,30111.000061035156,Wed Nov 20 2024 14:21:25 GMT-0600 (Central Standard Time),626760.0,A,fin,I,n,556,2,3065.5999999940395,623694.400000006,8000,WL,A,10.0
4,30.289000034332275,learn,29710.999965667725,Wed Nov 20 2024 14:21:25 GMT-0600 (Central Standard Time),627159.900000006,A,fing,I,g,389,2,3465.5,623694.400000006,8000,WL,A,10.0
4,30.521999835968018,learn,29478.000164031982,Wed Nov 20 2024 14:21:25 GMT-0600 (Central Standard Time),627393.200000003,A,finge,I,e,222,2,3698.7999999970198,623694.400000006,8000,WL,A,10.0
4,30.871999979019165,learn,29128.000020980835,Wed Nov 20 2024 14:21:25 GMT-0600 (Central Standard Time),627743.1000000015,A,finger,I,r,332,2,4048.6999999955297,623694.400000006,8000,WL,A,10.0
4,31.454999923706055,learn,28545.000076293945,Wed Nov 20 2024 14:21:25 GMT-0600 (Central Standard Time),628326.200000003,A,fingerenter,I,enter,574,2,4631.79999999702,623694.400000006,8000,WL,A,10.0
4,34.47099995613098,learn,25529.00004386902,Wed Nov 20 2024 14:21:25 GMT-0600 (Central Standard Time),631341.900000006,A,h,I,h,3000,2,3015.5,628326.400000006,8000,WL,A,11.0
4,34.687999963760376,learn,25312.000036239624,Wed Nov 20 2024 14:21:25 GMT-0600 (Central Standard Time),631558.6000000015,A,ha,I,a,207,2,3232.1999999955297,628326.400000006,8000,WL,A,11.0
4,35.120999813079834,learn,24879.000186920166,Wed Nov 20 2024 14:21:25 GMT-0600 (Central Standard Time),631991.8000000045,A,har,I,r,423,2,3665.39999999851,628326.400000006,8000,WL,A,11.0
4,35.33699989318848,learn,24663.000106811523,Wed Nov 20 2024 14:21:25 GMT-0600 (Central Standard Time),632208.400000006,A,harp,I,p,198,2,3882.0,628326.400000006,8000,WL,A,11.0
4,36.103999853134155,learn,23896.000146865845,Wed Nov 20 2024 14:21:25 GMT-0600 (Central Standard Time),632974.8000000045,A,harpenter,I,enter,757,2,4648.39999999851,628326.400000006,8000,WL,A,11.0
4,40.45199990272522,learn,19548.00009727478,Wed Nov 20 2024 14:21:25 GMT-0600 (Central Standard Time),637323.3000000045,A,s,I,s,4343,2,4348.10000000149,632975.200000003,8000,WL,A,12.0
4,40.819000005722046,learn,19180.999994277954,Wed Nov 20 2024 14:21:25 GMT-0600 (Central Standard Time),637690.200000003,A,sa,I,a,346,2,4715.0,632975.200000003,8000,WL,A,12.0
4,41.569000005722046,learn,18430.999994277954,Wed Nov 20 2024 14:21:25 GMT-0600 (Central Standard Time),638439.8000000045,A,sal,I,l,739,2,5464.60000000149,632975.200000003,8000,WL,A,12.0
4,41.834999799728394,learn,18165.000200271606,Wed Nov 20 2024 14:21:25 GMT-0600 (Central Standard Time),638706.5,A,salt,I,t,262,2,5731.29999999702,632975.200000003,8000,WL,A,12.0
4,42.234999895095825,learn,17765.000104904175,Wed Nov 20 2024 14:21:25 GMT-0600 (Central Standard Time),639106.200000003,A,saltenter,I,enter,395,2,6131.0,632975.200000003,8000,WL,A,12.0
4,51.91499996185303,learn,8085.000038146973,Wed Nov 20 2024 14:21:25 GMT-0600 (Central Standard Time),648786.400000006,A,f,I,f,9676,2,9679.90000000596,639106.5,8000,WL,A,13.0
4,52.382999897003174,learn,7617.000102996826,Wed Nov 20 2024 14:21:25 GMT-0600 (Central Standard Time),649254.1000000015,A,fl,I,l,459,2,10147.60000000149,639106.5,8000,WL,A,13.0
4,52.61500000953674,learn,7384.999990463257,Wed Nov 20 2024 14:21:25 GMT-0600 (Central Standard Time),649486.3000000045,A,flo,I,o,215,2,10379.80000000447,639106.5,8000,WL,A,13.0
4,52.86500000953674,learn,7134.999990463257,Wed Nov 20 2024 14:21:25 GMT-0600 (Central Standard Time),649736.200000003,A,flow,I,w,239,2,10629.70000000298,639106.5,8000,WL,A,13.0
4,53.16499996185303,learn,6835.000038146973,Wed Nov 20 2024 14:21:25 GMT-0600 (Central Standard Time),650036.0,A,flowe,I,e,293,2,10929.5,639106.5,8000,WL,A,13.0
4,53.41599988937378,learn,6584.000110626221,Wed Nov 20 2024 14:21:25 GMT-0600 (Central Standard Time),650286.900000006,A,flower,I,r,242,2,11180.40000000596,639106.5,8000,WL,A,13.0
4,54.13199996948242,learn,5868.000030517578,Wed Nov 20 2024 14:21:25 GMT-0600 (Central Standard Time),651002.700000003,A,flowerenter,I,enter,695,2,11896.20000000298,639106.5,8000,WL,A,13.0
4,60.01300001144409,learn,-13.000011444091797,Wed Nov 20 2024 14:21:25 GMT-0600 (Central Standard Time),656883.900000006,A,None,I,None,5877,2,5880.9000000059605,651003.0,8000,WL,A,14.0
5,1.1659998893737793,learn,60000.0,Wed Nov 20 2024 14:21:25 GMT-0600 (Central Standard Time),730210.700000003,A,g,I,g,1161,2,1165.8999999985099,729044.8000000045,8000,WL,A,1.0
5,1.4660000801086426,learn,60000.0,Wed Nov 20 2024 14:21:25 GMT-0600 (Central Standard Time),730511.1000000015,A,go,I,o,282,2,1466.2999999970198,729044.8000000045,8000,WL,A,1.0
5,1.681999921798706,learn,60000.0,Wed Nov 20 2024 14:21:25 GMT-0600 (Central Standard Time),730727.400000006,A,gol,I,l,207,2,1682.6000000014901,729044.8000000045,8000,WL,A,1.0
5,1.931999921798706,learn,60000.0,Wed Nov 20 2024 14:21:25 GMT-0600 (Central Standard Time),730977.400000006,A,gold,I,d,230,2,1932.6000000014901,729044.8000000045,8000,WL,A,1.0
5,2.315999984741211,learn,60000.0,Wed Nov 20 2024 14:21:25 GMT-0600 (Central Standard Time),731360.6000000015,A,goldenter,I,enter,364,2,2315.7999999970198,729044.8000000045,8000,WL,A,1.0
5,3.015000104904175,learn,60000.0,Wed Nov 20 2024 14:21:25 GMT-0600 (Central Standard Time),732060.400000006,A,r,I,r,693,2,699.4000000059605,731361.0,8000,WL,A,2.0
5,3.2319998741149902,learn,60000.0,Wed Nov 20 2024 14:21:25 GMT-0600 (Central Standard Time),732277.200000003,A,ra,I,a,209,2,916.2000000029802,731361.0,8000,WL,A,2.0
5,3.5490000247955322,learn,60000.0,Wed Nov 20 2024 14:21:25 GMT-0600 (Central Standard Time),732593.6000000015,A,rat,I,t,304,2,1232.6000000014901,731361.0,8000,WL,A,2.0
5,3.7149999141693115,learn,60000.0,Wed Nov 20 2024 14:21:25 GMT-0600 (Central Standard Time),732760.3000000045,A,ratt,I,t,148,2,1399.3000000044703,731361.0,8000,WL,A,2.0
5,4.431999921798706,learn,60000.0,Wed Nov 20 2024 14:21:25 GMT-0600 (Central Standard Time),733476.6000000015,A,rattl,I,l,709,2,2115.60000000149,731361.0,8000,WL,A,2.0
5,4.79800009727478,learn,60000.0,Wed Nov 20 2024 14:21:25 GMT-0600 (Central Standard Time),733843.200000003,A,rattle,I,e,353,2,2482.2000000029802,731361.0,8000,WL,A,2.0
5,5.181999921798706,learn,60000.0,Wed Nov 20 2024 14:21:25 GMT-0600 (Central Standard Time),734226.6000000015,A,rattleenter,I,enter,370,2,2865.60000000149,731361.0,8000,WL,A,2.0
5,5.809000015258789,learn,60000.0,Wed Nov 20 2024 14:21:25 GMT-0600 (Central Standard Time),734853.5,A,l,I,l,622,2,626.5,734227.0,8000,WL,A,3.0
5,6.114000082015991,learn,60000.0,Wed Nov 20 2024 14:21:25 GMT-0600 (Central Standard Time),735159.0,A,lo,I,o,296,2,932.0,734227.0,8000,WL,A,3.0
5,6.947000026702881,learn,60000.0,Wed Nov 20 2024 14:21:25 GMT-0600 (Central Standard Time),735992.400000006,A,log,I,g,823,2,1765.4000000059605,734227.0,8000,WL,A,3.0
5,7.480999946594238,learn,60000.0,Wed Nov 20 2024 14:21:25 GMT-0600 (Central Standard Time),736525.6000000015,A,logenter,I,enter,525,2,2298.60000000149,734227.0,8000,WL,A,3.0
5,8.313999891281128,learn,60000.0,Wed Nov 20 2024 14:21:25 GMT-0600 (Central Standard Time),737358.8000000045,A,k,I,k,824,2,832.8999999985099,736525.900000006,8000,WL,A,4.0
5,8.664000034332275,learn,60000.0,Wed Nov 20 2024 14:21:25 GMT-0600 (Central Standard Time),737708.8000000045,A,ke,I,e,335,2,1182.8999999985099,736525.900000006,8000,WL,A,4.0
5,9.579999923706055,learn,60000.0,Wed Nov 20 2024 14:21:25 GMT-0600 (Central Standard Time),738625.0,A,key,I,y,905,2,2099.0999999940395,736525.900000006,8000,WL,A,4.0
5,10.230000019073486,learn,60000.0,Wed Nov 20 2024 14:21:25 GMT-0600 (Central Standard Time),739274.8000000045,A,keyenter,I,enter,645,2,2748.89999999851,736525.900000006,8000,WL,A,4.0
5,11.062999963760376,learn,60000.0,Wed Nov 20 2024 14:21:25 GMT-0600 (Central Standard Time),740107.8000000045,A,r,I,r,819,2,832.8000000044703,739275.0,8000,WL,A,5.0
5,11.480000019073486,learn,60000.0,Wed Nov 20 2024 14:21:25 GMT-0600 (Central Standard Time),740524.5,A,ru,I,u,410,2,1249.5,739275.0,8000,WL,A,5.0
5,11.828999996185303,learn,60000.0,Wed Nov 20 2024 14:21:25 GMT-0600 (Central Standard Time),740874.3000000045,A,rug,I,g,337,2,1599.3000000044703,739275.0,8000,WL,A,5.0
5,12.229000091552734,learn,60000.0,Wed Nov 20 2024 14:21:25 GMT-0600 (Central Standard Time),741274.0,A,rugenter,I,enter,387,2,1999.0,739275.0,8000,WL,A,5.0
5,13.361999988555908,learn,60000.0,Wed Nov 20 2024 14:21:25 GMT-0600 (Central Standard Time),742407.3000000045,A,m,I,m,1124,2,1133.0,741274.3000000045,8000,WL,A,6.0
5,13.694999933242798,learn,60000.0,Wed Nov 20 2024 14:21:25 GMT-0600 (Central Standard Time),742740.3000000045,A,me,I,e,326,2,1466.0,741274.3000000045,8000,WL,A,6.0
5,14.045000076293945,learn,60000.0,Wed Nov 20 2024 14:21:25 GMT-0600 (Central Standard Time),743090.200000003,A,mea,I,a,329,2,1815.8999999985099,741274.3000000045,8000,WL,A,6.0
5,14.378999948501587,learn,60000.0,Wed Nov 20 2024 14:21:25 GMT-0600 (Central Standard Time),743423.700000003,A,mead,I,d,323,2,2149.39999999851,741274.3000000045,8000,WL,A,6.0
5,14.611999988555908,learn,60000.0,Wed Nov 20 2024 14:21:25 GMT-0600 (Central Standard Time),743656.8000000045,A,meado,I,o,222,2,2382.5,741274.3000000045,8000,WL,A,6.0
5,15.210999965667725,learn,60000.0,Wed Nov 20 2024 14:21:25 GMT-0600 (Central Standard Time),744256.400000006,A,meadow,I,w,580,2,2982.10000000149,741274.3000000045,8000,WL,A,6.0
5,15.494999885559082,learn,60000.0,Wed Nov 20 2024 14:21:25 GMT-0600 (Central Standard Time),744539.900000006,A,meadowenter,I,enter,277,2,3265.60000000149,741274.3000000045,8000,WL,A,6.0
5,16.128000020980835,learn,60000.0,Wed Nov 20 2024 14:21:25 GMT-0600 (Central Standard Time),745172.900000006,A,c,I,c,618,2,632.6000000014901,744540.3000000045,8000,WL,A,7.0
5,16.361000061035156,learn,60000.0,Wed Nov 20 2024 14:21:25 GMT-0600 (Central Standard Time),745406.200000003,A,ch,I,h,217,2,865.8999999985099,744540.3000000045,8000,WL,A,7.0
5,16.878000020980835,learn,60000.0,Wed Nov 20 2024 14:21:25 GMT-0600 (Central Standard Time),745922.8000000045,A,chi,I,i,504,2,1382.5,744540.3000000045,8000,WL,A,7.0
5,17.310999870300293,learn,60000.0,Wed Nov 20 2024 14:21:25 GMT-0600 (Central Standard Time),746356.0,A,chim,I,m,419,2,1815.6999999955297,744540.3000000045,8000,WL,A,7.0
5,17.99399995803833,learn,60000.0,Wed Nov 20 2024 14:21:25 GMT-0600 (Central Standard Time),747039.3000000045,A,chimn,I,n,666,2,2499.0,744540.3000000045,8000,WL,A,7.0
5,18.26099991798401,learn,60000.0,Wed Nov 20 2024 14:21:25 GMT-0600 (Central Standard Time),747305.8000000045,A,chimne,I,e,246,2,2765.5,744540.3000000045,8000,WL,A,7.0
5,18.627000093460083,learn,60000.0,Wed Nov 20 2024 14:21:25 GMT-0600 (Central Standard Time),747672.1000000015,A,chimney,I,y,356,2,3131.7999999970198,744540.3000000045,8000,WL,A,7.0
5,19.444000005722046,learn,60000.0,Wed Nov 20 2024 14:21:25 GMT-0600 (Central Standard Time),748488.6000000015,A,chimneyenter,I,enter,797,2,3948.2999999970198,744540.3000000045,8000,WL,A,7.0
5,22.325999975204468,learn,60000.0,Wed Nov 20 2024 14:21:25 GMT-0600 (Central Standard Time),751370.700000003,A,t,I,t,2877,2,2881.7000000029802,748489.0,8000,WL,A,8.0
5,22.592999935150146,learn,60000.0,Wed Nov 20 2024 14:21:25 GMT-0600 (Central Standard Time),751637.6000000015,A,tr,I,r,259,2,3148.60000000149,748489.0,8000,WL,A,8.0
5,22.89299988746643,learn,60000.0,Wed Nov 20 2024 14:21:25 GMT-0600 (Central Standard Time),751937.6000000015,A,tra,I,a,280,2,3448.60000000149,748489.0,8000,WL,A,8.0
5,23.29200005531311,learn,60000.0,Wed Nov 20 2024 14:21:25 GMT-0600 (Central Standard Time),752337.400000006,A,trai,I,i,388,2,3848.4000000059605,748489.0,8000,WL,A,8.0
5,23.608999967575073,learn,60000.0,Wed Nov 20 2024 14:21:25 GMT-0600 (Central Standard Time),752653.900000006,A,train,I,n,308,2,4164.9000000059605,748489.0,8000,WL,A,8.0
5,24.608999967575073,learn,60000.0,Wed Nov 20 2024 14:21:25 GMT-0600 (Central Standard Time),753653.6000000015,A,trainenter,I,enter,984,2,5164.60000000149,748489.0,8000,WL,A,8.0
5,25.907999992370605,learn,60000.0,Wed Nov 20 2024 14:21:25 GMT-0600 (Central Standard Time),754953.1000000015,A,h,I,h,1288,2,1299.1999999955297,753653.900000006,8000,WL,A,9.0
5,26.14199995994568,learn,60000.0,Wed Nov 20 2024 14:21:25 GMT-0600 (Central Standard Time),755186.5,A,ha,I,a,212,2,1532.5999999940395,753653.900000006,8000,WL,A,9.0
5,26.592000007629395,learn,60000.0,Wed Nov 20 2024 14:21:25 GMT-0600 (Central Standard Time),755636.400000006,A,har,I,r,435,2,1982.5,753653.900000006,8000,WL,A,9.0
5,26.891000032424927,learn,60000.0,Wed Nov 20 2024 14:21:25 GMT-0600 (Central Standard Time),755936.200000003,A,harp,I,p,289,2,2282.2999999970198,753653.900000006,8000,WL,A,9.0
5,27.674000024795532,learn,60000.0,Wed Nov 20 2024 14:21:25 GMT-0600 (Central Standard Time),756719.200000003,A,harpenter,I,enter,765,2,3065.2999999970198,753653.900000006,8000,WL,A,9.0
5,30.707000017166138,learn,60000.0,Wed Nov 20 2024 14:21:25 GMT-0600 (Central Standard Time),759751.700000003,A,b,I,b,3015,2,3032.10000000149,756719.6000000015,8000,WL,A,10.0
5,31.039999961853027,learn,60000.0,Wed Nov 20 2024 14:21:25 GMT-0600 (Central Standard Time),760085.1000000015,A,bu,I,u,318,2,3365.5,756719.6000000015,8000,WL,A,10.0
5,31.35699987411499,learn,60000.0,Wed Nov 20 2024 14:21:25 GMT-0600 (Central Standard Time),760402.3000000045,A,but,I,t,305,2,3682.7000000029802,756719.6000000015,8000,WL,A,10.0
5,31.539999961853027,learn,60000.0,Wed Nov 20 2024 14:21:25 GMT-0600 (Central Standard Time),760584.700000003,A,butt,I,t,164,2,3865.10000000149,756719.6000000015,8000,WL,A,10.0
5,31.723000049591064,learn,60000.0,Wed Nov 20 2024 14:21:25 GMT-0600 (Central Standard Time),760768.200000003,A,butto,I,o,165,2,4048.60000000149,756719.6000000015,8000,WL,A,10.0
5,32.08999991416931,learn,60000.0,Wed Nov 20 2024 14:21:25 GMT-0600 (Central Standard Time),761134.700000003,A,button,I,n,357,2,4415.10000000149,756719.6000000015,8000,WL,A,10.0
5,32.956000089645386,learn,60000.0,Wed Nov 20 2024 14:21:25 GMT-0600 (Central Standard Time),762001.1000000015,A,buttonenter,I,enter,855,2,5281.5,756719.6000000015,8000,WL,A,10.0
5,36.57200002670288,learn,60000.0,Wed Nov 20 2024 14:21:25 GMT-0600 (Central Standard Time),765616.5,A,b,I,b,3597,2,3615.0999999940395,762001.400000006,8000,WL,A,11.0
5,37.105000019073486,learn,60000.0,Wed Nov 20 2024 14:21:25 GMT-0600 (Central Standard Time),766149.6000000015,A,bo,I,o,525,2,4148.19999999553,762001.400000006,8000,WL,A,11.0
5,37.270999908447266,learn,60000.0,Wed Nov 20 2024 14:21:25 GMT-0600 (Central Standard Time),766316.400000006,A,boo,I,o,160,2,4315.0,762001.400000006,8000,WL,A,11.0
5,37.97099995613098,learn,60000.0,Wed Nov 20 2024 14:21:25 GMT-0600 (Central Standard Time),767016.1000000015,A,book,I,k,681,2,5014.69999999553,762001.400000006,8000,WL,A,11.0
5,38.537999868392944,learn,60000.0,Wed Nov 20 2024 14:21:25 GMT-0600 (Central Standard Time),767582.5,A,bookenter,I,enter,550,2,5581.0999999940395,762001.400000006,8000,WL,A,11.0
5,39.30399990081787,learn,60000.0,Wed Nov 20 2024 14:21:25 GMT-0600 (Central Standard Time),768349.200000003,A,a,I,a,759,2,766.2999999970198,767582.900000006,8000,WL,A,12.0
5,39.83699989318848,learn,60000.0,Wed Nov 20 2024 14:21:25 GMT-0600 (Central Standard Time),768882.3000000045,A,ap,I,p,528,2,1299.3999999985099,767582.900000006,8000,WL,A,12.0
5,40.03699994087219,learn,60000.0,Wed Nov 20 2024 14:21:25 GMT-0600 (Central Standard Time),769082.1000000015,A,app,I,p,180,2,1499.1999999955297,767582.900000006,8000,WL,A,12.0
5,40.269999980926514,learn,60000.0,Wed Nov 20 2024 14:21:25 GMT-0600 (Central Standard Time),769315.400000006,A,appl,I,l,228,2,1732.5,767582.900000006,8000,WL,A,12.0
5,40.61999988555908,learn,60000.0,Wed Nov 20 2024 14:21:25 GMT-0600 (Central Standard Time),769665.200000003,A,apple,I,e,338,2,2082.2999999970198,767582.900000006,8000,WL,A,12.0
5,41.78699994087219,learn,60000.0,Wed Nov 20 2024 14:21:25 GMT-0600 (Central Standard Time),770831.700000003,A,appleenter,I,enter,1157,2,3248.7999999970198,767582.900000006,8000,WL,A,12.0
5,45.30200004577637,learn,60000.0,Wed Nov 20 2024 14:21:25 GMT-0600 (Central Standard Time),774346.900000006,A,s,I,s,3510,2,3514.9000000059605,770832.0,8000,WL,A,13.0
5,45.651999950408936,learn,60000.0,Wed Nov 20 2024 14:21:25 GMT-0600 (Central Standard Time),774696.900000006,A,sa,I,a,338,2,3864.9000000059605,770832.0,8000,WL,A,13.0
5,45.86899995803833,learn,60000.0,Wed Nov 20 2024 14:21:25 GMT-0600 (Central Standard Time),774913.6000000015,A,sal,I,l,205,2,4081.60000000149,770832.0,8000,WL,A,13.0
5,46.50200009346008,learn,60000.0,Wed Nov 20 2024 14:21:25 GMT-0600 (Central Standard Time),775546.8000000045,A,salt,I,t,620,2,4714.80000000447,770832.0,8000,WL,A,13.0
5,47.21799993515015,learn,60000.0,Wed Nov 20 2024 14:21:25 GMT-0600 (Central Standard Time),776263.3000000045,A,saltenter,I,enter,699,2,5431.30000000447,770832.0,8000,WL,A,13.0
5,51.532999992370605,learn,60000.0,Wed Nov 20 2024 14:21:25 GMT-0600 (Central Standard Time),780578.400000006,A,h,I,h,4311,2,4314.70000000298,776263.700000003,8000,WL,A,14.0
5,51.73300004005432,learn,60000.0,Wed Nov 20 2024 14:21:25 GMT-0600 (Central Standard Time),780778.3000000045,A,ha,I,a,195,2,4514.60000000149,776263.700000003,8000,WL,A,14.0
5,52.21600008010864,learn,60000.0,Wed Nov 20 2024 14:21:25 GMT-0600 (Central Standard Time),781261.700000003,A,har,I,r,475,2,4998.0,776263.700000003,8000,WL,A,14.0
5,52.532999992370605,learn,60000.0,Wed Nov 20 2024 14:21:25 GMT-0600 (Central Standard Time),781578.400000006,A,harp,I,p,296,2,5314.70000000298,776263.700000003,8000,WL,A,14.0
5,53.29900002479553,learn,60000.0,Wed Nov 20 2024 14:21:25 GMT-0600 (Central Standard Time),782344.5,A,harpenter,I,enter,755,2,6080.79999999702,776263.700000003,8000,WL,A,14.0
5,63.01300001144409,learn,60000.0,Wed Nov 20 2024 14:21:25 GMT-0600 (Central Standard Time),792058.1000000015,A,s,I,s,9701,2,9713.29999999702,782344.8000000045,8000,WL,A,15.0
6,1.4170000553131104,distr,58582.99994468689,Wed Nov 20 2024 14:21:25 GMT-0600 (Central Standard Time),866301.700000003,B,p,I,p,1409,2,1416.2000000029802,864885.5,8000,WL,A,1.0
6,1.9660000801086426,distr,58033.99991989136,Wed Nov 20 2024 14:21:25 GMT-0600 (Central Standard Time),866851.6000000015,B,pe,I,e,544,2,1966.1000000014901,864885.5,8000,WL,A,1.0
6,2.3329999446868896,distr,57667.00005531311,Wed Nov 20 2024 14:21:25 GMT-0600 (Central Standard Time),867218.200000003,B,pea,I,a,354,2,2332.7000000029802,864885.5,8000,WL,A,1.0
6,2.749000072479248,distr,57250.99992752075,Wed Nov 20 2024 14:21:25 GMT-0600 (Central Standard Time),867634.5,B,peac,I,c,412,2,2749.0,864885.5,8000,WL,A,1.0
6,3.0829999446868896,distr,56917.00005531311,Wed Nov 20 2024 14:21:25 GMT-0600 (Central Standard Time),867967.8000000045,B,peach,I,h,323,2,3082.3000000044703,864885.5,8000,WL,A,1.0
6,3.7829999923706055,distr,56217.000007629395,Wed Nov 20 2024 14:21:25 GMT-0600 (Central Standard Time),868667.6000000015,B,peachenter,I,enter,694,2,3782.10000000149,864885.5,8000,WL,A,1.0
6,5.265000104904175,distr,54734.999895095825,Wed Nov 20 2024 14:21:25 GMT-0600 (Central Standard Time),870150.400000006,B,c,I,c,1466,2,1482.5,868667.900000006,8000,WL,A,2.0
6,5.5320000648498535,distr,54467.99993515015,Wed Nov 20 2024 14:21:25 GMT-0600 (Central Standard Time),870417.1000000015,B,ch,I,h,255,2,1749.1999999955297,868667.900000006,8000,WL,A,2.0
6,6.232000112533569,distr,53767.99988746643,Wed Nov 20 2024 14:21:25 GMT-0600 (Central Standard Time),871116.700000003,B,cha,I,a,685,2,2448.7999999970198,868667.900000006,8000,WL,A,2.0
6,6.582000017166138,distr,53417.99998283386,Wed Nov 20 2024 14:21:25 GMT-0600 (Central Standard Time),871466.6000000015,B,chai,I,i,345,2,2798.6999999955297,868667.900000006,8000,WL,A,2.0
6,7.2149999141693115,distr,52785.00008583069,Wed Nov 20 2024 14:21:25 GMT-0600 (Central Standard Time),872099.900000006,B,chair,I,r,618,2,3432.0,868667.900000006,8000,WL,A,2.0
6,8.148000001907349,distr,51851.99999809265,Wed Nov 20 2024 14:21:25 GMT-0600 (Central Standard Time),873032.700000003,B,chairenter,I,enter,914,2,4364.79999999702,868667.900000006,8000,WL,A,2.0
6,9.030999898910522,distr,50969.00010108948,Wed Nov 20 2024 14:21:25 GMT-0600 (Central Standard Time),873915.900000006,B,b,I,b,877,2,882.9000000059605,873033.0,8000,WL,A,3.0
6,9.364000082015991,distr,50635.99991798401,Wed Nov 20 2024 14:21:25 GMT-0600 (Central Standard Time),874249.5,B,bo,I,o,314,2,1216.5,873033.0,8000,WL,A,3.0
6,9.913000106811523,distr,50086.99989318848,Wed Nov 20 2024 14:21:25 GMT-0600 (Central Standard Time),874798.5,B,bow,I,w,532,2,1765.5,873033.0,8000,WL,A,3.0
6,10.13100004196167,distr,49868.99995803833,Wed Nov 20 2024 14:21:25 GMT-0600 (Central Standard Time),875015.700000003,B,bowl,I,l,199,2,1982.7000000029802,873033.0,8000,WL,A,3.0
6,10.846999883651733,distr,49153.00011634827,Wed Nov 20 2024 14:21:25 GMT-0600 (Central Standard Time),875732.0,B,bowlenter,I,enter,710,2,2699.0,873033.0,8000,WL,A,3.0
6,12.61299991607666,distr,47387.00008392334,Wed Nov 20 2024 14:21:25 GMT-0600 (Central Standard Time),877498.3000000045,B,c,I,c,1746,2,1766.0,875732.3000000045,8000,WL,A,4.0
6,12.86299991607666,distr,47137.00008392334,Wed Nov 20 2024 14:21:25 GMT-0600 (Central Standard Time),877748.1000000015,B,co,I,o,243,2,2015.7999999970198,875732.3000000045,8000,WL,A,4.0
6,13.196000099182129,distr,46803.99990081787,Wed Nov 20 2024 14:21:25 GMT-0600 (Central Standard Time),878081.3000000045,B,cou,I,u,322,2,2349.0,875732.3000000045,8000,WL,A,4.0
6,13.52999997138977,distr,46470.00002861023,Wed Nov 20 2024 14:21:25 GMT-0600 (Central Standard Time),878414.6000000015,B,coun,I,n,324,2,2682.2999999970198,875732.3000000045,8000,WL,A,4.0
6,13.828999996185303,distr,46171.0000038147,Wed Nov 20 2024 14:21:25 GMT-0600 (Central Standard Time),878714.3000000045,B,count,I,t,287,2,2982.0,875732.3000000045,8000,WL,A,4.0
6,14.178999900817871,distr,45821.00009918213,Wed Nov 20 2024 14:21:25 GMT-0600 (Central Standard Time),879064.3000000045,B,county,I,y,339,2,3332.0,875732.3000000045,8000,WL,A,4.0
6,14.895999908447266,distr,45104.000091552734,Wed Nov 20 2024 14:21:25 GMT-0600 (Central Standard Time),879780.8000000045,B,countyenter,I,enter,709,2,4048.5,875732.3000000045,8000,WL,A,4.0
6,23.943000078201294,distr,36056.999921798706,Wed Nov 20 2024 14:21:25 GMT-0600 (Central Standard Time),888828.0,B,i,I,i,9041,2,9046.79999999702,879781.200000003,8000,WL,A,5.0
6,24.276000022888184,distr,35723.99997711182,Wed Nov 20 2024 14:21:25 GMT-0600 (Central Standard Time),889161.400000006,B,in,I,n,321,2,9380.20000000298,879781.200000003,8000,WL,A,5.0
6,25.125999927520752,distr,34874.00007247925,Wed Nov 20 2024 14:21:25 GMT-0600 (Central Standard Time),890010.8000000045,B,ins,I,s,844,2,10229.60000000149,879781.200000003,8000,WL,A,5.0
6,25.45900011062622,distr,34540.99988937378,Wed Nov 20 2024 14:21:25 GMT-0600 (Central Standard Time),890344.0,B,inse,I,e,315,2,10562.79999999702,879781.200000003,8000,WL,A,5.0
6,25.825999975204468,distr,34174.00002479553,Wed Nov 20 2024 14:21:25 GMT-0600 (Central Standard Time),890710.700000003,B,insec,I,c,350,2,10929.5,879781.200000003,8000,WL,A,5.0
6,26.259000062942505,distr,33740.999937057495,Wed Nov 20 2024 14:21:25 GMT-0600 (Central Standard Time),891143.900000006,B,insect,I,t,422,2,11362.70000000298,879781.200000003,8000,WL,A,5.0
6,26.759000062942505,distr,33240.999937057495,Wed Nov 20 2024 14:21:25 GMT-0600 (Central Standard Time),891643.6000000015,B,insectenter,I,enter,494,2,11862.39999999851,879781.200000003,8000,WL,A,5.0
6,60.015000104904175,distr,-15.000104904174805,Wed Nov 20 2024 14:21:25 GMT-0600 (Central Standard Time),924900.3000000045,B,None,I,None,33252,2,33256.30000000447,891644.0,8000,WL,A,6.0
7,10.596999883651733,immed,49403.00011634827,Wed Nov 20 2024 14:21:25 GMT-0600 (Central Standard Time),937696.1000000015,A,m,I,m,10587,2,10596.69999999553,927099.400000006,8000,WL,A,1.0
7,11.079999923706055,immed,48920.000076293945,Wed Nov 20 2024 14:21:25 GMT-0600 (Central Standard Time),938178.900000006,A,me,I,e,477,2,11079.5,927099.400000006,8000,WL,A,1.0
7,11.513999938964844,immed,48486.000061035156,Wed Nov 20 2024 14:21:25 GMT-0600 (Central Standard Time),938612.200000003,A,mea,I,a,427,2,11512.79999999702,927099.400000006,8000,WL,A,1.0
7,11.86299991607666,immed,48137.00008392334,Wed Nov 20 2024 14:21:25 GMT-0600 (Central Standard Time),938961.8000000045,A,mead,I,d,329,2,11862.39999999851,927099.400000006,8000,WL,A,1.0
7,12.146999835968018,immed,47853.00016403198,Wed Nov 20 2024 14:21:25 GMT-0600 (Central Standard Time),939245.400000006,A,meado,I,o,276,2,12146.0,927099.400000006,8000,WL,A,1.0
7,12.46399998664856,immed,47536.00001335144,Wed Nov 20 2024 14:21:25 GMT-0600 (Central Standard Time),939562.3000000045,A,meadow,I,w,296,2,12462.89999999851,927099.400000006,8000,WL,A,1.0
7,13.179999828338623,immed,46820.00017166138,Wed Nov 20 2024 14:21:25 GMT-0600 (Central Standard Time),940278.400000006,A,meadowenter,I,enter,707,2,13179.0,927099.400000006,8000,WL,A,1.0
7,14.095999956130981,immed,45904.00004386902,Wed Nov 20 2024 14:21:25 GMT-0600 (Central Standard Time),941194.8000000045,A,g,I,g,911,2,916.0,940278.8000000045,8000,WL,A,2.0
7,14.379999876022339,immed,45620.00012397766,Wed Nov 20 2024 14:21:25 GMT-0600 (Central Standard Time),941478.1000000015,A,go,I,o,267,2,1199.2999999970198,940278.8000000045,8000,WL,A,2.0
7,14.628999948501587,immed,45371.00005149841,Wed Nov 20 2024 14:21:25 GMT-0600 (Central Standard Time),941728.0,A,gol,I,l,239,2,1449.1999999955297,940278.8000000045,8000,WL,A,2.0
7,14.895999908447266,immed,45104.000091552734,Wed Nov 20 2024 14:21:25 GMT-0600 (Central Standard Time),941994.400000006,A,gold,I,d,262,2,1715.6000000014901,940278.8000000045,8000,WL,A,2.0
7,15.661999940872192,immed,44338.00005912781,Wed Nov 20 2024 14:21:25 GMT-0600 (Central Standard Time),942761.0,A,goldenter,I,enter,755,2,2482.1999999955297,940278.8000000045,8000,WL,A,2.0
7,18.378000020980835,immed,41621.999979019165,Wed Nov 20 2024 14:21:25 GMT-0600 (Central Standard Time),945477.0,A,t,I,t,2709,2,2715.5999999940395,942761.400000006,8000,WL,A,3.0
7,18.645999908447266,immed,41354.000091552734,Wed Nov 20 2024 14:21:25 GMT-0600 (Central Standard Time),945744.5,A,tr,I,r,256,2,2983.0999999940395,942761.400000006,8000,WL,A,3.0
7,19.194999933242798,immed,40805.0000667572,Wed Nov 20 2024 14:21:25 GMT-0600 (Central Standard Time),946293.3000000045,A,tra,I,a,541,2,3531.89999999851,942761.400000006,8000,WL,A,3.0
7,19.572999954223633,immed,40427.00004577637,Wed Nov 20 2024 14:21:25 GMT-0600 (Central Standard Time),946671.400000006,A,trai,I,i,373,2,3910.0,942761.400000006,8000,WL,A,3.0
7,19.860999822616577,immed,40139.00017738342,Wed Nov 20 2024 14:21:25 GMT-0600 (Central Standard Time),946959.3000000045,A,train,I,n,278,2,4197.89999999851,942761.400000006,8000,WL,A,3.0
7,20.527999877929688,immed,39472.00012207031,Wed Nov 20 2024 14:21:25 GMT-0600 (Central Standard Time),947626.3000000045,A,trainenter,I,enter,646,2,4864.89999999851,942761.400000006,8000,WL,A,3.0
7,21.24399995803833,immed,38756.00004196167,Wed Nov 20 2024 14:21:25 GMT-0600 (Central Standard Time),948342.5,A,s,I,s,708,2,715.8999999985099,947626.6000000015,8000,WL,A,4.0
7,21.57699990272522,immed,38423.00009727478,Wed Nov 20 2024 14:21:25 GMT-0600 (Central Standard Time),948675.8000000045,A,sa,I,a,319,2,1049.2000000029802,947626.6000000015,8000,WL,A,4.0
7,21.82699990272522,immed,38173.00009727478,Wed Nov 20 2024 14:21:25 GMT-0600 (Central Standard Time),948925.6000000015,A,sal,I,l,242,2,1299.0,947626.6000000015,8000,WL,A,4.0
7,22.30999994277954,immed,37690.00005722046,Wed Nov 20 2024 14:21:25 GMT-0600 (Central Standard Time),949408.900000006,A,salt,I,t,472,2,1782.3000000044703,947626.6000000015,8000,WL,A,4.0
7,23.493000030517578,immed,36506.99996948242,Wed Nov 20 2024 14:21:25 GMT-0600 (Central Standard Time),950592.0,A,saltenter,I,enter,1173,2,2965.39999999851,947626.6000000015,8000,WL,A,4.0
7,25.908999919891357,immed,34091.00008010864,Wed Nov 20 2024 14:21:25 GMT-0600 (Central Standard Time),953007.700000003,A,r,I,r,2398,2,2415.5,950592.200000003,8000,WL,A,5.0
7,26.29200005531311,immed,33707.99994468689,Wed Nov 20 2024 14:21:25 GMT-0600 (Central Standard Time),953391.1000000015,A,ru,I,u,374,2,2798.89999999851,950592.200000003,8000,WL,A,5.0
7,26.60800004005432,immed,33391.99995994568,Wed Nov 20 2024 14:21:25 GMT-0600 (Central Standard Time),953707.1000000015,A,rug,I,g,311,2,3114.89999999851,950592.200000003,8000,WL,A,5.0
7,26.97499990463257,immed,33025.00009536743,Wed Nov 20 2024 14:21:25 GMT-0600 (Central Standard Time),954074.1000000015,A,rugenter,I,enter,346,2,3481.89999999851,950592.200000003,8000,WL,A,5.0
7,27.575000047683716,immed,32424.999952316284,Wed Nov 20 2024 14:21:25 GMT-0600 (Central Standard Time),954674.0,A,k,I,k,588,2,599.5999999940395,954074.400000006,8000,WL,A,6.0
7,28.108999967575073,immed,31891.000032424927,Wed Nov 20 2024 14:21:25 GMT-0600 (Central Standard Time),955207.400000006,A,ke,I,e,516,2,1133.0,954074.400000006,8000,WL,A,6.0
7,28.47499990463257,immed,31525.00009536743,Wed Nov 20 2024 14:21:25 GMT-0600 (Central Standard Time),955573.700000003,A,key,I,y,358,2,1499.2999999970198,954074.400000006,8000,WL,A,6.0
7,29.45799994468689,immed,30542.00005531311,Wed Nov 20 2024 14:21:25 GMT-0600 (Central Standard Time),956556.700000003,A,keyenter,I,enter,968,2,2482.2999999970198,954074.400000006,8000,WL,A,6.0
7,30.823999881744385,immed,29176.000118255615,Wed Nov 20 2024 14:21:25 GMT-0600 (Central Standard Time),957923.0,A,l,I,l,1353,2,1366.0999999940395,956556.900000006,8000,WL,A,7.0
7,31.08999991416931,immed,28910.00008583069,Wed Nov 20 2024 14:21:25 GMT-0600 (Central Standard Time),958189.400000006,A,lo,I,o,251,2,1632.5,956556.900000006,8000,WL,A,7.0
7,31.889999866485596,immed,28110.000133514404,Wed Nov 20 2024 14:21:25 GMT-0600 (Central Standard Time),958989.3000000045,A,log,I,g,784,2,2432.39999999851,956556.900000006,8000,WL,A,7.0
7,32.19000005722046,immed,27809.99994277954,Wed Nov 20 2024 14:21:25 GMT-0600 (Central Standard Time),959289.3000000045,A,logenter,I,enter,287,2,2732.39999999851,956556.900000006,8000,WL,A,7.0
7,33.00600004196167,immed,26993.99995803833,Wed Nov 20 2024 14:21:25 GMT-0600 (Central Standard Time),960105.5,A,c,I,c,804,2,815.8999999985099,959289.6000000015,8000,WL,A,8.0
7,33.323999881744385,immed,26676.000118255615,Wed Nov 20 2024 14:21:25 GMT-0600 (Central Standard Time),960423.0,A,ch,I,h,300,2,1133.3999999985099,959289.6000000015,8000,WL,A,8.0
7,33.90599989891052,immed,26094.000101089478,Wed Nov 20 2024 14:21:25 GMT-0600 (Central Standard Time),961005.400000006,A,chi,I,i,566,2,1715.8000000044703,959289.6000000015,8000,WL,A,8.0
7,34.388999938964844,immed,25611.000061035156,Wed Nov 20 2024 14:21:25 GMT-0600 (Central Standard Time),961488.5,A,chim,I,m,472,2,2198.89999999851,959289.6000000015,8000,WL,A,8.0
7,35.305999994277954,immed,24694.000005722046,Wed Nov 20 2024 14:21:25 GMT-0600 (Central Standard Time),962405.0,A,chimn,I,n,909,2,3115.39999999851,959289.6000000015,8000,WL,A,8.0
7,35.605000019073486,immed,24394.999980926514,Wed Nov 20 2024 14:21:25 GMT-0600 (Central Standard Time),962704.6000000015,A,chimne,I,e,289,2,3415.0,959289.6000000015,8000,WL,A,8.0
7,36.00499987602234,immed,23995.00012397766,Wed Nov 20 2024 14:21:25 GMT-0600 (Central Standard Time),963104.6000000015,A,chimney,I,y,381,2,3815.0,959289.6000000015,8000,WL,A,8.0
7,37.48799991607666,immed,22512.00008392334,Wed Nov 20 2024 14:21:25 GMT-0600 (Central Standard Time),964587.5,A,chimneyenter,I,enter,1469,2,5297.89999999851,959289.6000000015,8000,WL,A,8.0
7,39.37100005149841,immed,20628.999948501587,Wed Nov 20 2024 14:21:25 GMT-0600 (Central Standard Time),966470.200000003,A,m,I,m,1866,2,1882.5,964587.700000003,8000,WL,A,9.0
7,39.63800001144409,immed,20361.99998855591,Wed Nov 20 2024 14:21:25 GMT-0600 (Central Standard Time),966736.900000006,A,me,I,e,255,2,2149.2000000029802,964587.700000003,8000,WL,A,9.0
7,39.98699998855591,immed,20013.00001144409,Wed Nov 20 2024 14:21:25 GMT-0600 (Central Standard Time),967086.6000000015,A,mea,I,a,341,2,2498.89999999851,964587.700000003,8000,WL,A,9.0
7,40.30399990081787,immed,19696.00009918213,Wed Nov 20 2024 14:21:25 GMT-0600 (Central Standard Time),967403.1000000015,A,mead,I,d,311,2,2815.39999999851,964587.700000003,8000,WL,A,9.0
7,40.50399994850159,immed,19496.000051498413,Wed Nov 20 2024 14:21:25 GMT-0600 (Central Standard Time),967602.900000006,A,meado,I,o,195,2,3015.2000000029802,964587.700000003,8000,WL,A,9.0
7,40.853999853134155,immed,19146.000146865845,Wed Nov 20 2024 14:21:25 GMT-0600 (Central Standard Time),967952.900000006,A,meadow,I,w,331,2,3365.2000000029802,964587.700000003,8000,WL,A,9.0
7,41.72000002861023,immed,18279.99997138977,Wed Nov 20 2024 14:21:25 GMT-0600 (Central Standard Time),968819.5,A,meadowenter,I,enter,853,2,4231.79999999702,964587.700000003,8000,WL,A,9.0
7,45.23599982261658,immed,14764.000177383423,Wed Nov 20 2024 14:21:25 GMT-0600 (Central Standard Time),972335.3000000045,A,g,I,g,3498,2,3515.5,968819.8000000045,8000,WL,A,10.0
7,45.53499984741211,immed,14465.00015258789,Wed Nov 20 2024 14:21:25 GMT-0600 (Central Standard Time),972634.700000003,A,go,I,o,294,2,3814.89999999851,968819.8000000045,8000,WL,A,10.0
7,45.80200004577637,immed,14197.999954223633,Wed Nov 20 2024 14:21:25 GMT-0600 (Central Standard Time),972901.6000000015,A,gol,I,l,259,2,4081.7999999970198,968819.8000000045,8000,WL,A,10.0
7,46.10199999809265,immed,13898.000001907349,Wed Nov 20 2024 14:21:25 GMT-0600 (Central Standard Time),973201.400000006,A,gold,I,d,288,2,4381.60000000149,968819.8000000045,8000,WL,A,10.0
7,46.80200004577637,immed,13197.999954223633,Wed Nov 20 2024 14:21:25 GMT-0600 (Central Standard Time),973901.3000000045,A,goldenter,I,enter,692,2,5081.5,968819.8000000045,8000,WL,A,10.0
7,49.317999839782715,immed,10682.000160217285,Wed Nov 20 2024 14:21:25 GMT-0600 (Central Standard Time),976417.1000000015,A,h,I,h,2497,2,2515.5,973901.6000000015,8000,WL,A,11.0
7,49.50099992752075,immed,10499.000072479248,Wed Nov 20 2024 14:21:25 GMT-0600 (Central Standard Time),976600.400000006,A,ha,I,a,173,2,2698.8000000044703,973901.6000000015,8000,WL,A,11.0
7,49.95099997520447,immed,10049.000024795532,Wed Nov 20 2024 14:21:25 GMT-0600 (Central Standard Time),977050.5,A,har,I,r,438,2,3148.89999999851,973901.6000000015,8000,WL,A,11.0
7,50.151000022888184,immed,9848.999977111816,Wed Nov 20 2024 14:21:25 GMT-0600 (Central Standard Time),977250.3000000045,A,harp,I,p,193,2,3348.7000000029802,973901.6000000015,8000,WL,A,11.0
7,50.93400001525879,immed,9065.999984741211,Wed Nov 20 2024 14:21:25 GMT-0600 (Central Standard Time),978033.200000003,A,harpenter,I,enter,772,2,4131.60000000149,973901.6000000015,8000,WL,A,11.0
7,53.83299994468689,immed,6167.00005531311,Wed Nov 20 2024 14:21:25 GMT-0600 (Central Standard Time),980932.400000006,A,b,I,b,2893,2,2898.9000000059605,978033.5,8000,WL,A,12.0
7,54.18299984931946,immed,5817.000150680542,Wed Nov 20 2024 14:21:25 GMT-0600 (Central Standard Time),981282.3000000045,A,bu,I,u,345,2,3248.8000000044703,978033.5,8000,WL,A,12.0
7,54.59999990463257,immed,5400.000095367432,Wed Nov 20 2024 14:21:25 GMT-0600 (Central Standard Time),981698.900000006,A,but,I,t,396,2,3665.4000000059605,978033.5,8000,WL,A,12.0
7,54.81599998474121,immed,5184.000015258789,Wed Nov 20 2024 14:21:25 GMT-0600 (Central Standard Time),981915.1000000015,A,butt,I,t,211,2,3881.60000000149,978033.5,8000,WL,A,12.0
7,55.0,immed,5000.0,Wed Nov 20 2024 14:21:25 GMT-0600 (Central Standard Time),982098.8000000045,A,butto,I,o,163,2,4065.3000000044703,978033.5,8000,WL,A,12.0
7,55.615999937057495,immed,4384.000062942505,Wed Nov 20 2024 14:21:25 GMT-0600 (Central Standard Time),982714.900000006,A,button,I,n,611,2,4681.4000000059605,978033.5,8000,WL,A,12.0
7,56.49899983406067,immed,3501.000165939331,Wed Nov 20 2024 14:21:25 GMT-0600 (Central Standard Time),983598.200000003,A,buttonenter,I,enter,867,2,5564.70000000298,978033.5,8000,WL,A,12.0
7,60.013999938964844,immed,-13.99993896484375,Wed Nov 20 2024 14:21:25 GMT-0600 (Central Standard Time),987113.400000006,A,None,I,None,3510,2,3514.8000000044703,983598.6000000015,8000,WL,A,13.0
