block_c,block_dur,condition,countdown,datetime,endtime,list,multichar_response,project,response,response_time,session_number,start_end,starttime,subject_id,task,task_vers,trial
,,,,Wed Mar 12 2025 16:10:32 GMT-0500 (Central Daylight Time),,,,I,space,365,3,,,8000,WL,C,
prac,,0,,Wed Mar 12 2025 16:10:32 GMT-0500 (Central Daylight Time),,NA,b,I,b,12308,3,,,8000,WL,C,1.0
prac,,0,,Wed Mar 12 2025 16:10:32 GMT-0500 (Central Daylight Time),,NA,bo,I,o,733,3,,,8000,WL,C,1.0
prac,,0,,Wed Mar 12 2025 16:10:32 GMT-0500 (Central Daylight Time),,NA,boo,I,o,177,3,,,8000,WL,C,1.0
prac,,0,,Wed Mar 12 2025 16:10:32 GMT-0500 (Central Daylight Time),,NA,boos,I,s,338,3,,,8000,WL,C,1.0
prac,,0,,Wed Mar 12 2025 16:10:32 GMT-0500 (Central Daylight Time),,NA,boost,I,t,443,3,,,8000,WL,C,1.0
prac,,0,,Wed Mar 12 2025 16:10:32 GMT-0500 (Central Daylight Time),,NA,boostenter,I,enter,5018,3,,,8000,WL,C,1.0
1,1.6990001201629639,learn,58300.999879837036,Wed Mar 12 2025 16:10:32 GMT-0500 (Central Daylight Time),155373.2999999998,A,t,I,t,1691,3,1699.2999999998137,153674.0,8000,WL,C,1.0
1,1.999000072479248,learn,58000.99992752075,Wed Mar 12 2025 16:10:32 GMT-0500 (Central Daylight Time),155673.09999999963,A,to,I,o,287,3,1999.0999999996275,153674.0,8000,WL,C,1.0
1,2.4160001277923584,learn,57583.99987220764,Wed Mar 12 2025 16:10:32 GMT-0500 (Central Daylight Time),156089.59999999963,A,tow,I,w,396,3,2415.5999999996275,153674.0,8000,WL,C,1.0
1,2.749000072479248,learn,57250.99992752075,Wed Mar 12 2025 16:10:32 GMT-0500 (Central Daylight Time),156422.69999999925,A,towe,I,e,315,3,2748.699999999255,153674.0,8000,WL,C,1.0
1,2.999000072479248,learn,57000.99992752075,Wed Mar 12 2025 16:10:32 GMT-0500 (Central Daylight Time),156672.69999999925,A,tower,I,r,238,3,2998.699999999255,153674.0,8000,WL,C,1.0
1,3.7820000648498535,learn,56217.99993515015,Wed Mar 12 2025 16:10:32 GMT-0500 (Central Daylight Time),157455.7999999998,A,towerenter,I,enter,764,3,3781.7999999998137,153674.0,8000,WL,C,1.0
1,5.082000017166138,learn,54917.99998283386,Wed Mar 12 2025 16:10:32 GMT-0500 (Central Daylight Time),158755.69999999925,A,w,I,w,1284,3,1299.0,157456.69999999925,8000,WL,C,2.0
1,5.414999961853027,learn,54585.00003814697,Wed Mar 12 2025 16:10:32 GMT-0500 (Central Daylight Time),159088.59999999963,A,wh,I,h,321,3,1631.9000000003725,157456.69999999925,8000,WL,C,2.0
1,5.614000082015991,learn,54385.99991798401,Wed Mar 12 2025 16:10:32 GMT-0500 (Central Daylight Time),159288.5,A,whe,I,e,188,3,1831.800000000745,157456.69999999925,8000,WL,C,2.0
1,6.065000057220459,learn,53934.99994277954,Wed Mar 12 2025 16:10:32 GMT-0500 (Central Daylight Time),159738.69999999925,A,whea,I,a,428,3,2282.0,157456.69999999925,8000,WL,C,2.0
1,6.331000089645386,learn,53668.999910354614,Wed Mar 12 2025 16:10:32 GMT-0500 (Central Daylight Time),160005.0,A,wheat,I,t,257,3,2548.300000000745,157456.69999999925,8000,WL,C,2.0
1,7.230999946594238,learn,52769.00005340576,Wed Mar 12 2025 16:10:32 GMT-0500 (Central Daylight Time),160904.69999999925,A,wheatenter,I,enter,887,3,3448.0,157456.69999999925,8000,WL,C,2.0
1,8.114000082015991,learn,51885.99991798401,Wed Mar 12 2025 16:10:32 GMT-0500 (Central Daylight Time),161787.7999999998,A,c,I,c,867,3,882.7000000001863,160905.09999999963,8000,WL,C,3.0
1,8.46399998664856,learn,51536.00001335144,Wed Mar 12 2025 16:10:32 GMT-0500 (Central Daylight Time),162137.59999999963,A,co,I,o,329,3,1232.5,160905.09999999963,8000,WL,C,3.0
1,8.847000122070312,learn,51152.99987792969,Wed Mar 12 2025 16:10:32 GMT-0500 (Central Daylight Time),162521.0,A,cor,I,r,363,3,1615.9000000003725,160905.09999999963,8000,WL,C,3.0
1,9.147000074386597,learn,50852.9999256134,Wed Mar 12 2025 16:10:32 GMT-0500 (Central Daylight Time),162821.0,A,corn,I,n,292,3,1915.9000000003725,160905.09999999963,8000,WL,C,3.0
1,9.897000074386597,learn,50102.9999256134,Wed Mar 12 2025 16:10:32 GMT-0500 (Central Daylight Time),163570.59999999963,A,cornenter,I,enter,736,3,2665.5,160905.09999999963,8000,WL,C,3.0
1,11.296000003814697,learn,48703.9999961853,Wed Mar 12 2025 16:10:32 GMT-0500 (Central Daylight Time),164970.0,A,n,I,n,1386,3,1399.0,163571.0,8000,WL,C,4.0
1,11.696000099182129,learn,48303.99990081787,Wed Mar 12 2025 16:10:32 GMT-0500 (Central Daylight Time),165370.0,A,na,I,a,386,3,1799.0,163571.0,8000,WL,C,4.0
1,11.979000091552734,learn,48020.999908447266,Wed Mar 12 2025 16:10:32 GMT-0500 (Central Daylight Time),165653.39999999944,A,nai,I,i,267,3,2082.399999999441,163571.0,8000,WL,C,4.0
1,12.628999948501587,learn,47371.00005149841,Wed Mar 12 2025 16:10:32 GMT-0500 (Central Daylight Time),166303.0,A,nail,I,l,631,3,2732.0,163571.0,8000,WL,C,4.0
1,13.296000003814697,learn,46703.9999961853,Wed Mar 12 2025 16:10:32 GMT-0500 (Central Daylight Time),166969.5,A,nailenter,I,enter,646,3,3398.5,163571.0,8000,WL,C,4.0
1,13.962000131607056,learn,46037.999868392944,Wed Mar 12 2025 16:10:32 GMT-0500 (Central Daylight Time),167636.2999999998,A,b,I,b,651,3,666.2999999998137,166970.0,8000,WL,C,5.0
1,14.34500002861023,learn,45654.99997138977,Wed Mar 12 2025 16:10:32 GMT-0500 (Central Daylight Time),168019.0,A,bo,I,o,377,3,1049.0,166970.0,8000,WL,C,5.0
1,14.727999925613403,learn,45272.0000743866,Wed Mar 12 2025 16:10:32 GMT-0500 (Central Daylight Time),168402.19999999925,A,boy,I,y,378,3,1432.199999999255,166970.0,8000,WL,C,5.0
1,16.14400005340576,learn,43855.99994659424,Wed Mar 12 2025 16:10:32 GMT-0500 (Central Daylight Time),169818.2999999998,A,boyenter,I,enter,1403,3,2848.2999999998137,166970.0,8000,WL,C,5.0
1,16.977999925613403,learn,43022.0000743866,Wed Mar 12 2025 16:10:32 GMT-0500 (Central Daylight Time),170651.69999999925,A,d,I,d,817,3,833.0,169818.69999999925,8000,WL,C,6.0
1,17.344000101089478,learn,42655.99989891052,Wed Mar 12 2025 16:10:32 GMT-0500 (Central Daylight Time),171018.2999999998,A,do,I,o,345,3,1199.6000000005588,169818.69999999925,8000,WL,C,6.0
1,17.694000005722046,learn,42305.999994277954,Wed Mar 12 2025 16:10:32 GMT-0500 (Central Daylight Time),171368.0,A,doc,I,c,330,3,1549.300000000745,169818.69999999925,8000,WL,C,6.0
1,18.177000045776367,learn,41822.99995422363,Wed Mar 12 2025 16:10:32 GMT-0500 (Central Daylight Time),171851.19999999925,A,doct,I,t,477,3,2032.5,169818.69999999925,8000,WL,C,6.0
1,18.509999990463257,learn,41490.00000953674,Wed Mar 12 2025 16:10:32 GMT-0500 (Central Daylight Time),172184.5,A,docto,I,o,322,3,2365.800000000745,169818.69999999925,8000,WL,C,6.0
1,18.82699990272522,learn,41173.00009727478,Wed Mar 12 2025 16:10:32 GMT-0500 (Central Daylight Time),172501.09999999963,A,doctor,I,r,301,3,2682.4000000003725,169818.69999999925,8000,WL,C,6.0
1,20.360000133514404,learn,39639.999866485596,Wed Mar 12 2025 16:10:32 GMT-0500 (Central Daylight Time),174034.09999999963,A,doctorenter,I,enter,1520,3,4215.4000000003725,169818.69999999925,8000,WL,C,6.0
1,29.35700011253357,learn,30642.99988746643,Wed Mar 12 2025 16:10:32 GMT-0500 (Central Daylight Time),183031.09999999963,A,b,I,b,8987,3,8996.700000000186,174034.39999999944,8000,WL,C,7.0
1,29.657000064849854,learn,30342.999935150146,Wed Mar 12 2025 16:10:32 GMT-0500 (Central Daylight Time),183331.09999999963,A,bo,I,o,284,3,9296.700000000186,174034.39999999944,8000,WL,C,7.0
1,30.00600004196167,learn,29993.99995803833,Wed Mar 12 2025 16:10:32 GMT-0500 (Central Daylight Time),183681.0,A,boy,I,y,338,3,9646.600000000559,174034.39999999944,8000,WL,C,7.0
1,30.622999906539917,learn,29377.000093460083,Wed Mar 12 2025 16:10:32 GMT-0500 (Central Daylight Time),184298.0,A,boyenter,I,enter,604,3,10263.600000000559,174034.39999999944,8000,WL,C,7.0
1,36.28800010681152,learn,23711.999893188477,Wed Mar 12 2025 16:10:32 GMT-0500 (Central Daylight Time),189962.39999999944,A,s,I,s,5651,3,5664.0999999996275,184298.2999999998,8000,WL,C,8.0
1,36.62100005149841,learn,23378.999948501587,Wed Mar 12 2025 16:10:32 GMT-0500 (Central Daylight Time),190295.39999999944,A,sh,I,h,314,3,5997.0999999996275,184298.2999999998,8000,WL,C,8.0
1,37.23799991607666,learn,22762.00008392334,Wed Mar 12 2025 16:10:32 GMT-0500 (Central Daylight Time),190912.09999999963,A,sho,I,o,606,3,6613.799999999814,184298.2999999998,8000,WL,C,8.0
1,37.53699994087219,learn,22463.000059127808,Wed Mar 12 2025 16:10:32 GMT-0500 (Central Daylight Time),191211.89999999944,A,shor,I,r,285,3,6913.5999999996275,184298.2999999998,8000,WL,C,8.0
1,37.87100005149841,learn,22128.999948501587,Wed Mar 12 2025 16:10:32 GMT-0500 (Central Daylight Time),191545.2999999998,A,shore,I,e,313,3,7247.0,184298.2999999998,8000,WL,C,8.0
1,38.07100009918213,learn,21928.99990081787,Wed Mar 12 2025 16:10:32 GMT-0500 (Central Daylight Time),191745.19999999925,A,shoreenter,I,enter,180,3,7446.899999999441,184298.2999999998,8000,WL,C,8.0
1,58.263999938964844,learn,1736.0000610351562,Wed Mar 12 2025 16:10:32 GMT-0500 (Central Daylight Time),211938.5,A,s,I,s,20188,3,20192.900000000373,191745.59999999963,8000,WL,C,9.0
1,58.63100004196167,learn,1368.99995803833,Wed Mar 12 2025 16:10:32 GMT-0500 (Central Daylight Time),212305.19999999925,A,su,I,u,354,3,20559.599999999627,191745.59999999963,8000,WL,C,9.0
1,59.03099989891052,learn,969.0001010894775,Wed Mar 12 2025 16:10:32 GMT-0500 (Central Daylight Time),212705.19999999925,A,sug,I,g,380,3,20959.599999999627,191745.59999999963,8000,WL,C,9.0
1,59.414000034332275,learn,585.9999656677246,Wed Mar 12 2025 16:10:32 GMT-0500 (Central Daylight Time),213088.39999999944,A,suga,I,a,372,3,21342.799999999814,191745.59999999963,8000,WL,C,9.0
1,59.84700012207031,learn,152.9998779296875,Wed Mar 12 2025 16:10:32 GMT-0500 (Central Daylight Time),213521.59999999963,A,sugar,I,r,412,3,21776.0,191745.59999999963,8000,WL,C,9.0
1,60.013999938964844,learn,-13.99993896484375,Wed Mar 12 2025 16:10:32 GMT-0500 (Central Daylight Time),213688.2999999998,A,sugarNone,I,None,162,3,21942.700000000186,191745.59999999963,8000,WL,C,9.0
2,2.3989999294281006,learn,57601.0000705719,Wed Mar 12 2025 16:10:32 GMT-0500 (Central Daylight Time),283066.5,A,q,I,q,2394,3,2398.800000000745,280667.69999999925,8000,WL,C,1.0
2,2.816999912261963,learn,57183.00008773804,Wed Mar 12 2025 16:10:32 GMT-0500 (Central Daylight Time),283484.0999999996,A,qu,I,u,410,3,2816.4000000003725,280667.69999999925,8000,WL,C,1.0
2,3.1489999294281006,learn,56851.0000705719,Wed Mar 12 2025 16:10:32 GMT-0500 (Central Daylight Time),283816.2999999998,A,que,I,e,321,3,3148.600000000559,280667.69999999925,8000,WL,C,1.0
2,3.7990000247955322,learn,56200.99997520447,Wed Mar 12 2025 16:10:32 GMT-0500 (Central Daylight Time),284466.19999999925,A,quee,I,e,629,3,3798.5,280667.69999999925,8000,WL,C,1.0
2,4.281999826431274,learn,55718.000173568726,Wed Mar 12 2025 16:10:32 GMT-0500 (Central Daylight Time),284949.0999999996,A,queen,I,n,467,3,4281.4000000003725,280667.69999999925,8000,WL,C,1.0
2,5.365000009536743,learn,54634.99999046326,Wed Mar 12 2025 16:10:32 GMT-0500 (Central Daylight Time),286032.0999999996,A,queenenter,I,enter,1064,3,5364.4000000003725,280667.69999999925,8000,WL,C,1.0
2,7.365000009536743,learn,52634.99999046326,Wed Mar 12 2025 16:10:32 GMT-0500 (Central Daylight Time),288031.5999999996,A,n,I,n,1981,3,1999.0999999996275,286032.5,8000,WL,C,2.0
2,7.665999889373779,learn,52334.00011062622,Wed Mar 12 2025 16:10:32 GMT-0500 (Central Daylight Time),288332.69999999925,A,na,I,a,293,3,2300.199999999255,286032.5,8000,WL,C,2.0
2,7.9649999141693115,learn,52035.00008583069,Wed Mar 12 2025 16:10:32 GMT-0500 (Central Daylight Time),288631.5999999996,A,nai,I,i,288,3,2599.0999999996275,286032.5,8000,WL,C,2.0
2,8.497999906539917,learn,51502.00009346008,Wed Mar 12 2025 16:10:32 GMT-0500 (Central Daylight Time),289164.5999999996,A,nail,I,l,518,3,3132.0999999996275,286032.5,8000,WL,C,2.0
2,9.19700002670288,learn,50802.99997329712,Wed Mar 12 2025 16:10:32 GMT-0500 (Central Daylight Time),289864.39999999944,A,nailenter,I,enter,689,3,3831.899999999441,286032.5,8000,WL,C,2.0
2,10.129999876022339,learn,49870.00012397766,Wed Mar 12 2025 16:10:32 GMT-0500 (Central Daylight Time),290797.39999999944,A,s,I,s,917,3,932.7999999998137,289864.5999999996,8000,WL,C,3.0
2,10.464999914169312,learn,49535.00008583069,Wed Mar 12 2025 16:10:32 GMT-0500 (Central Daylight Time),291131.89999999944,A,sh,I,h,320,3,1267.2999999998137,289864.5999999996,8000,WL,C,3.0
2,10.929999828338623,learn,49070.00017166138,Wed Mar 12 2025 16:10:32 GMT-0500 (Central Daylight Time),291597.19999999925,A,sho,I,o,449,3,1732.5999999996275,289864.5999999996,8000,WL,C,3.0
2,11.27999997138977,learn,48720.00002861023,Wed Mar 12 2025 16:10:32 GMT-0500 (Central Daylight Time),291947.0,A,shor,I,r,336,3,2082.4000000003725,289864.5999999996,8000,WL,C,3.0
2,11.596999883651733,learn,48403.00011634827,Wed Mar 12 2025 16:10:32 GMT-0500 (Central Daylight Time),292263.69999999925,A,shore,I,e,298,3,2399.0999999996275,289864.5999999996,8000,WL,C,3.0
2,12.495999813079834,learn,47504.000186920166,Wed Mar 12 2025 16:10:32 GMT-0500 (Central Daylight Time),293163.2999999998,A,shoreenter,I,enter,886,3,3298.7000000001863,289864.5999999996,8000,WL,C,3.0
2,13.513000011444092,learn,46486.99998855591,Wed Mar 12 2025 16:10:32 GMT-0500 (Central Daylight Time),294179.7999999998,A,c,I,c,1002,3,1016.2000000001863,293163.5999999996,8000,WL,C,4.0
2,13.928999900817871,learn,46071.00009918213,Wed Mar 12 2025 16:10:32 GMT-0500 (Central Daylight Time),294596.19999999925,A,co,I,o,402,3,1432.5999999996275,293163.5999999996,8000,WL,C,4.0
2,14.27899980545044,learn,45721.00019454956,Wed Mar 12 2025 16:10:32 GMT-0500 (Central Daylight Time),294946.39999999944,A,cor,I,r,336,3,1782.7999999998137,293163.5999999996,8000,WL,C,4.0
2,14.595999956130981,learn,45404.00004386902,Wed Mar 12 2025 16:10:32 GMT-0500 (Central Daylight Time),295263.0,A,corn,I,n,299,3,2099.4000000003725,293163.5999999996,8000,WL,C,4.0
2,15.444999933242798,learn,44555.0000667572,Wed Mar 12 2025 16:10:32 GMT-0500 (Central Daylight Time),296112.5,A,cornenter,I,enter,830,3,2948.9000000003725,293163.5999999996,8000,WL,C,4.0
2,16.161999940872192,learn,43838.00005912781,Wed Mar 12 2025 16:10:32 GMT-0500 (Central Daylight Time),296828.89999999944,A,w,I,w,708,3,715.8999999994412,296113.0,8000,WL,C,5.0
2,16.478999853134155,learn,43521.000146865845,Wed Mar 12 2025 16:10:32 GMT-0500 (Central Daylight Time),297145.69999999925,A,wh,I,h,296,3,1032.699999999255,296113.0,8000,WL,C,5.0
2,16.76199984550476,learn,43238.00015449524,Wed Mar 12 2025 16:10:32 GMT-0500 (Central Daylight Time),297428.7999999998,A,whe,I,e,275,3,1315.7999999998137,296113.0,8000,WL,C,5.0
2,17.128000020980835,learn,42871.999979019165,Wed Mar 12 2025 16:10:32 GMT-0500 (Central Daylight Time),297795.0999999996,A,whea,I,a,361,3,1682.0999999996275,296113.0,8000,WL,C,5.0
2,17.460999965667725,learn,42539.000034332275,Wed Mar 12 2025 16:10:32 GMT-0500 (Central Daylight Time),298128.39999999944,A,wheat,I,t,314,3,2015.3999999994412,296113.0,8000,WL,C,5.0
2,18.444000005722046,learn,41555.999994277954,Wed Mar 12 2025 16:10:32 GMT-0500 (Central Daylight Time),299111.39999999944,A,wheatenter,I,enter,973,3,2998.399999999441,296113.0,8000,WL,C,5.0
2,19.32699990272522,learn,40673.00009727478,Wed Mar 12 2025 16:10:32 GMT-0500 (Central Daylight Time),299994.5999999996,A,b,I,b,870,3,882.9000000003725,299111.69999999925,8000,WL,C,6.0
2,19.626999855041504,learn,40373.000144958496,Wed Mar 12 2025 16:10:32 GMT-0500 (Central Daylight Time),300294.5,A,bo,I,o,291,3,1182.800000000745,299111.69999999925,8000,WL,C,6.0
2,20.126999855041504,learn,39873.000144958496,Wed Mar 12 2025 16:10:32 GMT-0500 (Central Daylight Time),300794.39999999944,A,boy,I,y,495,3,1682.7000000001863,299111.69999999925,8000,WL,C,6.0
2,20.493000030517578,learn,39506.99996948242,Wed Mar 12 2025 16:10:32 GMT-0500 (Central Daylight Time),301160.89999999944,A,boyenter,I,enter,355,3,2049.2000000001863,299111.69999999925,8000,WL,C,6.0
2,22.14299988746643,learn,37857.00011253357,Wed Mar 12 2025 16:10:32 GMT-0500 (Central Daylight Time),302810.2999999998,A,h,I,h,1628,3,1649.0,301161.2999999998,8000,WL,C,7.0
2,22.442999839782715,learn,37557.000160217285,Wed Mar 12 2025 16:10:32 GMT-0500 (Central Daylight Time),303110.5999999996,A,ho,I,o,283,3,1949.2999999998137,301161.2999999998,8000,WL,C,7.0
2,22.925999879837036,learn,37074.000120162964,Wed Mar 12 2025 16:10:32 GMT-0500 (Central Daylight Time),303593.5,A,hom,I,m,463,3,2432.2000000001863,301161.2999999998,8000,WL,C,7.0
2,23.29199981689453,learn,36708.00018310547,Wed Mar 12 2025 16:10:32 GMT-0500 (Central Daylight Time),303960.0999999996,A,home,I,e,348,3,2798.7999999998137,301161.2999999998,8000,WL,C,7.0
2,23.759999990463257,learn,36240.00000953674,Wed Mar 12 2025 16:10:32 GMT-0500 (Central Daylight Time),304427.5,A,homeenter,I,enter,446,3,3266.2000000001863,301161.2999999998,8000,WL,C,7.0
2,24.70899987220764,learn,35291.00012779236,Wed Mar 12 2025 16:10:32 GMT-0500 (Central Daylight Time),305376.19999999925,A,d,I,d,930,3,948.3999999994412,304427.7999999998,8000,WL,C,8.0
2,25.074999809265137,learn,34925.00019073486,Wed Mar 12 2025 16:10:32 GMT-0500 (Central Daylight Time),305742.89999999944,A,do,I,o,349,3,1315.0999999996275,304427.7999999998,8000,WL,C,8.0
2,25.45799994468689,learn,34542.00005531311,Wed Mar 12 2025 16:10:32 GMT-0500 (Central Daylight Time),306126.0,A,doc,I,c,366,3,1698.2000000001863,304427.7999999998,8000,WL,C,8.0
2,25.875999927520752,learn,34124.00007247925,Wed Mar 12 2025 16:10:32 GMT-0500 (Central Daylight Time),306543.69999999925,A,doct,I,t,407,3,2115.899999999441,304427.7999999998,8000,WL,C,8.0
2,26.125,learn,33875.0,Wed Mar 12 2025 16:10:32 GMT-0500 (Central Daylight Time),306792.5,A,docto,I,o,238,3,2364.7000000001863,304427.7999999998,8000,WL,C,8.0
2,26.54099988937378,learn,33459.00011062622,Wed Mar 12 2025 16:10:32 GMT-0500 (Central Daylight Time),307209.0,A,doctor,I,r,397,3,2781.2000000001863,304427.7999999998,8000,WL,C,8.0
2,27.257999897003174,learn,32742.000102996826,Wed Mar 12 2025 16:10:32 GMT-0500 (Central Daylight Time),307925.5,A,doctorenter,I,enter,708,3,3497.7000000001863,304427.7999999998,8000,WL,C,8.0
2,32.9229998588562,learn,27077.0001411438,Wed Mar 12 2025 16:10:32 GMT-0500 (Central Daylight Time),313590.2999999998,A,h,I,h,5648,3,5664.5,307925.7999999998,8000,WL,C,9.0
2,33.20599985122681,learn,26794.000148773193,Wed Mar 12 2025 16:10:32 GMT-0500 (Central Daylight Time),313873.5,A,ho,I,o,262,3,5947.700000000186,307925.7999999998,8000,WL,C,9.0
2,33.50599980354309,learn,26494.00019645691,Wed Mar 12 2025 16:10:32 GMT-0500 (Central Daylight Time),314173.5,A,hom,I,m,283,3,6247.700000000186,307925.7999999998,8000,WL,C,9.0
2,33.73899984359741,learn,26261.000156402588,Wed Mar 12 2025 16:10:32 GMT-0500 (Central Daylight Time),314406.7999999998,A,home,I,e,216,3,6481.0,307925.7999999998,8000,WL,C,9.0
2,34.35599994659424,learn,25644.00005340576,Wed Mar 12 2025 16:10:32 GMT-0500 (Central Daylight Time),315023.5,A,homeenter,I,enter,598,3,7097.700000000186,307925.7999999998,8000,WL,C,9.0
2,39.83699989318848,learn,20163.000106811523,Wed Mar 12 2025 16:10:32 GMT-0500 (Central Daylight Time),320504.7999999998,A,t,I,t,5470,3,5480.9000000003725,315023.89999999944,8000,WL,C,10.0
2,40.11999988555908,learn,19880.000114440918,Wed Mar 12 2025 16:10:32 GMT-0500 (Central Daylight Time),320788.0,A,to,I,o,276,3,5764.100000000559,315023.89999999944,8000,WL,C,10.0
2,40.53699994087219,learn,19463.000059127808,Wed Mar 12 2025 16:10:32 GMT-0500 (Central Daylight Time),321204.69999999925,A,tow,I,w,409,3,6180.799999999814,315023.89999999944,8000,WL,C,10.0
2,41.55399990081787,learn,18446.00009918213,Wed Mar 12 2025 16:10:32 GMT-0500 (Central Daylight Time),322221.2999999998,A,towe,I,e,1000,3,7197.4000000003725,315023.89999999944,8000,WL,C,10.0
2,41.8199999332428,learn,18180.000066757202,Wed Mar 12 2025 16:10:32 GMT-0500 (Central Daylight Time),322487.69999999925,A,tower,I,r,248,3,7463.799999999814,315023.89999999944,8000,WL,C,10.0
2,42.61999988555908,learn,17380.000114440918,Wed Mar 12 2025 16:10:32 GMT-0500 (Central Daylight Time),323287.2999999998,A,towerenter,I,enter,790,3,8263.400000000373,315023.89999999944,8000,WL,C,10.0
2,50.217000007629395,learn,9782.999992370605,Wed Mar 12 2025 16:10:32 GMT-0500 (Central Daylight Time),330885.0999999996,A,f,I,f,7582,3,7597.5,323287.5999999996,8000,WL,C,11.0
2,50.56699991226196,learn,9433.000087738037,Wed Mar 12 2025 16:10:32 GMT-0500 (Central Daylight Time),331234.5999999996,A,fl,I,l,344,3,7947.0,323287.5999999996,8000,WL,C,11.0
2,51.21799993515015,learn,8782.000064849854,Wed Mar 12 2025 16:10:32 GMT-0500 (Central Daylight Time),331885.7999999998,A,fla,I,a,635,3,8598.200000000186,323287.5999999996,8000,WL,C,11.0
2,52.64999985694885,learn,7350.0001430511475,Wed Mar 12 2025 16:10:32 GMT-0500 (Central Daylight Time),333317.5,A,flag,I,g,1415,3,10029.900000000373,323287.5999999996,8000,WL,C,11.0
2,53.0,learn,7000.0,Wed Mar 12 2025 16:10:32 GMT-0500 (Central Daylight Time),333667.39999999944,A,flagenter,I,enter,336,3,10379.799999999814,323287.5999999996,8000,WL,C,11.0
2,53.79900002479553,learn,6200.999975204468,Wed Mar 12 2025 16:10:32 GMT-0500 (Central Daylight Time),334467.0,A,c,I,c,794,3,799.4000000003725,333667.5999999996,8000,WL,C,12.0
2,54.431999921798706,learn,5568.000078201294,Wed Mar 12 2025 16:10:32 GMT-0500 (Central Daylight Time),335100.0,A,ca,I,a,616,3,1432.4000000003725,333667.5999999996,8000,WL,C,12.0
2,54.74899983406067,learn,5251.000165939331,Wed Mar 12 2025 16:10:32 GMT-0500 (Central Daylight Time),335416.89999999944,A,cam,I,m,297,3,1749.2999999998137,333667.5999999996,8000,WL,C,12.0
2,55.16599988937378,learn,4834.000110626221,Wed Mar 12 2025 16:10:32 GMT-0500 (Central Daylight Time),335833.2999999998,A,camp,I,p,404,3,2165.7000000001863,333667.5999999996,8000,WL,C,12.0
2,55.81599998474121,learn,4184.000015258789,Wed Mar 12 2025 16:10:32 GMT-0500 (Central Daylight Time),336483.2999999998,A,campenter,I,enter,636,3,2815.7000000001863,333667.5999999996,8000,WL,C,12.0
2,60.013999938964844,learn,-13.99993896484375,Wed Mar 12 2025 16:10:32 GMT-0500 (Central Daylight Time),340681.89999999944,A,None,I,None,4194,3,4198.299999999814,336483.5999999996,8000,WL,C,13.0
3,2.1010000705718994,learn,57898.9999294281,Wed Mar 12 2025 16:10:32 GMT-0500 (Central Daylight Time),408711.89999999944,A,q,I,q,2083,3,2100.5,406611.39999999944,8000,WL,C,1.0
3,2.616000175476074,learn,57383.999824523926,Wed Mar 12 2025 16:10:32 GMT-0500 (Central Daylight Time),409226.7999999998,A,qu,I,u,501,3,2615.4000000003725,406611.39999999944,8000,WL,C,1.0
3,3.065999984741211,learn,56934.00001525879,Wed Mar 12 2025 16:10:32 GMT-0500 (Central Daylight Time),409677.0999999996,A,que,I,e,434,3,3065.7000000001863,406611.39999999944,8000,WL,C,1.0
3,3.2320001125335693,learn,56767.99988746643,Wed Mar 12 2025 16:10:32 GMT-0500 (Central Daylight Time),409843.5999999996,A,quee,I,e,152,3,3232.2000000001863,406611.39999999944,8000,WL,C,1.0
3,3.7990000247955322,learn,56200.99997520447,Wed Mar 12 2025 16:10:32 GMT-0500 (Central Daylight Time),410410.0,A,queen,I,n,554,3,3798.600000000559,406611.39999999944,8000,WL,C,1.0
3,4.465000152587891,learn,55534.99984741211,Wed Mar 12 2025 16:10:32 GMT-0500 (Central Daylight Time),411076.5,A,queenenter,I,enter,659,3,4465.100000000559,406611.39999999944,8000,WL,C,1.0
3,5.54800009727478,learn,54451.99990272522,Wed Mar 12 2025 16:10:32 GMT-0500 (Central Daylight Time),412159.5,A,s,I,s,1073,3,1082.6000000005588,411076.89999999944,8000,WL,C,2.0
3,5.914999961853027,learn,54085.00003814697,Wed Mar 12 2025 16:10:32 GMT-0500 (Central Daylight Time),412526.19999999925,A,su,I,u,358,3,1449.2999999998137,411076.89999999944,8000,WL,C,2.0
3,6.465000152587891,learn,53534.99984741211,Wed Mar 12 2025 16:10:32 GMT-0500 (Central Daylight Time),413076.0999999996,A,sug,I,g,535,3,1999.2000000001863,411076.89999999944,8000,WL,C,2.0
3,6.715000152587891,learn,53284.99984741211,Wed Mar 12 2025 16:10:32 GMT-0500 (Central Daylight Time),413325.89999999944,A,suga,I,a,241,3,2249.0,411076.89999999944,8000,WL,C,2.0
3,7.164999961853027,learn,52835.00003814697,Wed Mar 12 2025 16:10:32 GMT-0500 (Central Daylight Time),413775.69999999925,A,sugar,I,r,431,3,2698.7999999998137,411076.89999999944,8000,WL,C,2.0
3,7.8480000495910645,learn,52151.999950408936,Wed Mar 12 2025 16:10:32 GMT-0500 (Central Daylight Time),414458.89999999944,A,sugarenter,I,enter,670,3,3382.0,411076.89999999944,8000,WL,C,2.0
3,8.664999961853027,learn,51335.00003814697,Wed Mar 12 2025 16:10:32 GMT-0500 (Central Daylight Time),415276.39999999944,A,w,I,w,810,3,817.2000000001863,414459.19999999925,8000,WL,C,3.0
3,8.930999994277954,learn,51069.000005722046,Wed Mar 12 2025 16:10:32 GMT-0500 (Central Daylight Time),415541.89999999944,A,wh,I,h,257,3,1082.7000000001863,414459.19999999925,8000,WL,C,3.0
3,9.231000185012817,learn,50768.99981498718,Wed Mar 12 2025 16:10:32 GMT-0500 (Central Daylight Time),415841.7999999998,A,wha,I,a,279,3,1382.6000000005588,414459.19999999925,8000,WL,C,3.0
3,9.847000122070312,learn,50152.99987792969,Wed Mar 12 2025 16:10:32 GMT-0500 (Central Daylight Time),416458.39999999944,A,whae,I,e,612,3,1999.2000000001863,414459.19999999925,8000,WL,C,3.0
3,10.498000144958496,learn,49501.999855041504,Wed Mar 12 2025 16:10:32 GMT-0500 (Central Daylight Time),417109.0999999996,A,whaet,I,t,635,3,2649.9000000003725,414459.19999999925,8000,WL,C,3.0
3,11.27999997138977,learn,48720.00002861023,Wed Mar 12 2025 16:10:32 GMT-0500 (Central Daylight Time),417891.19999999925,A,whaetenter,I,enter,768,3,3432.0,414459.19999999925,8000,WL,C,3.0
3,12.746999979019165,learn,47253.000020980835,Wed Mar 12 2025 16:10:32 GMT-0500 (Central Daylight Time),419358.5,A,c,I,c,1450,3,1466.9000000003725,417891.5999999996,8000,WL,C,4.0
3,13.129000186920166,learn,46870.999813079834,Wed Mar 12 2025 16:10:32 GMT-0500 (Central Daylight Time),419740.5,A,co,I,o,374,3,1848.9000000003725,417891.5999999996,8000,WL,C,4.0
3,13.546000003814697,learn,46453.9999961853,Wed Mar 12 2025 16:10:32 GMT-0500 (Central Daylight Time),420157.2999999998,A,cor,I,r,409,3,2265.7000000001863,417891.5999999996,8000,WL,C,4.0
3,13.812000036239624,learn,46187.999963760376,Wed Mar 12 2025 16:10:32 GMT-0500 (Central Daylight Time),420423.5999999996,A,corn,I,n,256,3,2532.0,417891.5999999996,8000,WL,C,4.0
3,14.545000076293945,learn,45454.999923706055,Wed Mar 12 2025 16:10:32 GMT-0500 (Central Daylight Time),421156.69999999925,A,cornenter,I,enter,718,3,3265.0999999996275,417891.5999999996,8000,WL,C,4.0
3,17.011000156402588,learn,42988.99984359741,Wed Mar 12 2025 16:10:32 GMT-0500 (Central Daylight Time),423622.5999999996,A,f,I,f,2456,3,2465.5999999996275,421157.0,8000,WL,C,5.0
3,17.41100001335144,learn,42588.99998664856,Wed Mar 12 2025 16:10:32 GMT-0500 (Central Daylight Time),424022.5,A,fl,I,l,390,3,2865.5,421157.0,8000,WL,C,5.0
3,17.91100001335144,learn,42088.99998664856,Wed Mar 12 2025 16:10:32 GMT-0500 (Central Daylight Time),424522.5999999996,A,fla,I,a,495,3,3365.5999999996275,421157.0,8000,WL,C,5.0
3,18.47699999809265,learn,41523.00000190735,Wed Mar 12 2025 16:10:32 GMT-0500 (Central Daylight Time),425088.5999999996,A,flag,I,g,547,3,3931.5999999996275,421157.0,8000,WL,C,5.0
3,19.294000148773193,learn,40705.99985122681,Wed Mar 12 2025 16:10:32 GMT-0500 (Central Daylight Time),425905.2999999998,A,flagenter,I,enter,805,3,4748.299999999814,421157.0,8000,WL,C,5.0
3,19.993000030517578,learn,40006.99996948242,Wed Mar 12 2025 16:10:32 GMT-0500 (Central Daylight Time),426605.0999999996,A,c,I,c,692,3,699.4000000003725,425905.69999999925,8000,WL,C,6.0
3,20.527000188827515,learn,39472.999811172485,Wed Mar 12 2025 16:10:32 GMT-0500 (Central Daylight Time),427138.2999999998,A,ca,I,a,520,3,1232.6000000005588,425905.69999999925,8000,WL,C,6.0
3,21.276000022888184,learn,38723.99997711182,Wed Mar 12 2025 16:10:32 GMT-0500 (Central Daylight Time),427888.19999999925,A,cam,I,m,731,3,1982.5,425905.69999999925,8000,WL,C,6.0
3,21.659000158309937,learn,38340.99984169006,Wed Mar 12 2025 16:10:32 GMT-0500 (Central Daylight Time),428271.0999999996,A,camp,I,p,373,3,2365.4000000003725,425905.69999999925,8000,WL,C,6.0
3,22.259999990463257,learn,37740.00000953674,Wed Mar 12 2025 16:10:32 GMT-0500 (Central Daylight Time),428871.19999999925,A,campenter,I,enter,590,3,2965.5,425905.69999999925,8000,WL,C,6.0
3,23.242000102996826,learn,36757.999897003174,Wed Mar 12 2025 16:10:32 GMT-0500 (Central Daylight Time),429854.0999999996,A,h,I,h,974,3,982.5999999996275,428871.5,8000,WL,C,7.0
3,23.64199995994568,learn,36358.00004005432,Wed Mar 12 2025 16:10:32 GMT-0500 (Central Daylight Time),430254.0999999996,A,ho,I,o,391,3,1382.5999999996275,428871.5,8000,WL,C,7.0
3,24.026000022888184,learn,35973.99997711182,Wed Mar 12 2025 16:10:32 GMT-0500 (Central Daylight Time),430637.2999999998,A,hom,I,m,375,3,1765.7999999998137,428871.5,8000,WL,C,7.0
3,24.342000007629395,learn,35657.999992370605,Wed Mar 12 2025 16:10:32 GMT-0500 (Central Daylight Time),430953.69999999925,A,home,I,e,304,3,2082.199999999255,428871.5,8000,WL,C,7.0
3,25.157999992370605,learn,34842.000007629395,Wed Mar 12 2025 16:10:32 GMT-0500 (Central Daylight Time),431770.0999999996,A,homeenter,I,enter,804,3,2898.5999999996275,428871.5,8000,WL,C,7.0
3,26.375,learn,33625.0,Wed Mar 12 2025 16:10:32 GMT-0500 (Central Daylight Time),432986.69999999925,A,s,I,s,1195,3,1216.199999999255,431770.5,8000,WL,C,8.0
3,26.69099998474121,learn,33309.00001525879,Wed Mar 12 2025 16:10:32 GMT-0500 (Central Daylight Time),433302.5999999996,A,sh,I,h,299,3,1532.0999999996275,431770.5,8000,WL,C,8.0
3,27.175000190734863,learn,32824.99980926514,Wed Mar 12 2025 16:10:32 GMT-0500 (Central Daylight Time),433786.2999999998,A,sho,I,o,463,3,2015.7999999998137,431770.5,8000,WL,C,8.0
3,27.508000135421753,learn,32491.999864578247,Wed Mar 12 2025 16:10:32 GMT-0500 (Central Daylight Time),434119.39999999944,A,shor,I,r,315,3,2348.899999999441,431770.5,8000,WL,C,8.0
3,27.79100012779236,learn,32208.99987220764,Wed Mar 12 2025 16:10:32 GMT-0500 (Central Daylight Time),434402.7999999998,A,shore,I,e,263,3,2632.2999999998137,431770.5,8000,WL,C,8.0
3,28.223999977111816,learn,31776.000022888184,Wed Mar 12 2025 16:10:32 GMT-0500 (Central Daylight Time),434835.7999999998,A,shoreenter,I,enter,427,3,3065.2999999998137,431770.5,8000,WL,C,8.0
3,29.074000120162964,learn,30925.999879837036,Wed Mar 12 2025 16:10:32 GMT-0500 (Central Daylight Time),435685.5,A,b,I,b,833,3,849.4000000003725,434836.0999999996,8000,WL,C,9.0
3,29.457000017166138,learn,30542.999982833862,Wed Mar 12 2025 16:10:32 GMT-0500 (Central Daylight Time),436068.89999999944,A,bo,I,o,368,3,1232.7999999998137,434836.0999999996,8000,WL,C,9.0
3,29.973999977111816,learn,30026.000022888184,Wed Mar 12 2025 16:10:32 GMT-0500 (Central Daylight Time),436585.19999999925,A,bod,I,d,505,3,1749.0999999996275,434836.0999999996,8000,WL,C,9.0
3,30.44000005722046,learn,29559.99994277954,Wed Mar 12 2025 16:10:32 GMT-0500 (Central Daylight Time),437051.5999999996,A,body,I,y,452,3,2215.5,434836.0999999996,8000,WL,C,9.0
3,31.322999954223633,learn,28677.000045776367,Wed Mar 12 2025 16:10:32 GMT-0500 (Central Daylight Time),437934.89999999944,A,bodyenter,I,enter,866,3,3098.7999999998137,434836.0999999996,8000,WL,C,9.0
3,32.33899998664856,learn,27661.00001335144,Wed Mar 12 2025 16:10:32 GMT-0500 (Central Daylight Time),438951.0999999996,A,d,I,d,999,3,1015.9000000003725,437935.19999999925,8000,WL,C,10.0
3,32.63900017738342,learn,27360.999822616577,Wed Mar 12 2025 16:10:32 GMT-0500 (Central Daylight Time),439251.0,A,do,I,o,294,3,1315.800000000745,437935.19999999925,8000,WL,C,10.0
3,32.94000005722046,learn,27059.99994277954,Wed Mar 12 2025 16:10:32 GMT-0500 (Central Daylight Time),439551.2999999998,A,doc,I,c,282,3,1616.1000000005588,437935.19999999925,8000,WL,C,10.0
3,33.35600018501282,learn,26643.999814987183,Wed Mar 12 2025 16:10:32 GMT-0500 (Central Daylight Time),439967.5999999996,A,doct,I,t,406,3,2032.4000000003725,437935.19999999925,8000,WL,C,10.0
3,33.623000144958496,learn,26376.999855041504,Wed Mar 12 2025 16:10:32 GMT-0500 (Central Daylight Time),440234.19999999925,A,docto,I,o,245,3,2299.0,437935.19999999925,8000,WL,C,10.0
3,34.23900008201599,learn,25760.99991798401,Wed Mar 12 2025 16:10:32 GMT-0500 (Central Daylight Time),440850.5,A,doctor,I,r,603,3,2915.300000000745,437935.19999999925,8000,WL,C,10.0
3,34.98900008201599,learn,25010.99991798401,Wed Mar 12 2025 16:10:32 GMT-0500 (Central Daylight Time),441600.2999999998,A,doctorenter,I,enter,739,3,3665.100000000559,437935.19999999925,8000,WL,C,10.0
3,39.23699998855591,learn,20763.00001144409,Wed Mar 12 2025 16:10:32 GMT-0500 (Central Daylight Time),445849.0999999996,A,t,I,t,4237,3,4248.4000000003725,441600.69999999925,8000,WL,C,11.0
3,39.587000131607056,learn,20412.999868392944,Wed Mar 12 2025 16:10:32 GMT-0500 (Central Daylight Time),446198.89999999944,A,to,I,o,332,3,4598.200000000186,441600.69999999925,8000,WL,C,11.0
3,39.937000036239624,learn,20062.999963760376,Wed Mar 12 2025 16:10:32 GMT-0500 (Central Daylight Time),446548.7999999998,A,tow,I,w,334,3,4948.100000000559,441600.69999999925,8000,WL,C,11.0
3,40.254000186920166,learn,19745.999813079834,Wed Mar 12 2025 16:10:32 GMT-0500 (Central Daylight Time),446865.39999999944,A,towe,I,e,296,3,5264.700000000186,441600.69999999925,8000,WL,C,11.0
3,40.50500011444092,learn,19494.999885559082,Wed Mar 12 2025 16:10:32 GMT-0500 (Central Daylight Time),447116.39999999944,A,tower,I,r,244,3,5515.700000000186,441600.69999999925,8000,WL,C,11.0
3,41.23699998855591,learn,18763.00001144409,Wed Mar 12 2025 16:10:32 GMT-0500 (Central Daylight Time),447848.39999999944,A,towerenter,I,enter,721,3,6247.700000000186,441600.69999999925,8000,WL,C,11.0
3,55.96500015258789,learn,4034.9998474121094,Wed Mar 12 2025 16:10:32 GMT-0500 (Central Daylight Time),462577.19999999925,A,l,I,l,14717,3,14728.5,447848.69999999925,8000,WL,C,12.0
3,56.265000104904175,learn,3734.999895095825,Wed Mar 12 2025 16:10:32 GMT-0500 (Central Daylight Time),462877.0999999996,A,le,I,e,292,3,15028.400000000373,447848.69999999925,8000,WL,C,12.0
3,56.63199996948242,learn,3368.000030517578,Wed Mar 12 2025 16:10:32 GMT-0500 (Central Daylight Time),463243.39999999944,A,let,I,t,352,3,15394.700000000186,447848.69999999925,8000,WL,C,12.0
3,56.79900002479553,learn,3200.999975204468,Wed Mar 12 2025 16:10:32 GMT-0500 (Central Daylight Time),463410.2999999998,A,lett,I,t,154,3,15561.600000000559,447848.69999999925,8000,WL,C,12.0
3,57.04900002479553,learn,2950.999975204468,Wed Mar 12 2025 16:10:32 GMT-0500 (Central Daylight Time),463660.39999999944,A,lette,I,e,235,3,15811.700000000186,447848.69999999925,8000,WL,C,12.0
3,57.348000049591064,learn,2651.9999504089355,Wed Mar 12 2025 16:10:32 GMT-0500 (Central Daylight Time),463960.0999999996,A,letter,I,r,281,3,16111.400000000373,447848.69999999925,8000,WL,C,12.0
3,57.64800000190735,learn,2351.9999980926514,Wed Mar 12 2025 16:10:32 GMT-0500 (Central Daylight Time),464260.0,A,letterenter,I,enter,286,3,16411.300000000745,447848.69999999925,8000,WL,C,12.0
3,60.01400017738342,learn,-14.000177383422852,Wed Mar 12 2025 16:10:32 GMT-0500 (Central Daylight Time),466625.89999999944,A,None,I,None,2361,3,2365.5999999996275,464260.2999999998,8000,WL,C,13.0
4,1.4170000553131104,learn,58582.99994468689,Wed Mar 12 2025 16:10:32 GMT-0500 (Central Daylight Time),534554.8999999994,A,t,I,t,1403,3,1416.3999999994412,533138.5,8000,WL,C,1.0
4,1.7339999675750732,learn,58266.00003242493,Wed Mar 12 2025 16:10:32 GMT-0500 (Central Daylight Time),534872.3999999994,A,to,I,o,298,3,1733.8999999994412,533138.5,8000,WL,C,1.0
4,2.2170000076293945,learn,57782.999992370605,Wed Mar 12 2025 16:10:32 GMT-0500 (Central Daylight Time),535354.5999999996,A,tow,I,w,462,3,2216.0999999996275,533138.5,8000,WL,C,1.0
4,2.683000087738037,learn,57316.99991226196,Wed Mar 12 2025 16:10:32 GMT-0500 (Central Daylight Time),535820.8999999994,A,towe,I,e,452,3,2682.399999999441,533138.5,8000,WL,C,1.0
4,2.933000087738037,learn,57066.99991226196,Wed Mar 12 2025 16:10:32 GMT-0500 (Central Daylight Time),536070.7999999998,A,tower,I,r,240,3,2932.2999999998137,533138.5,8000,WL,C,1.0
4,3.5829999446868896,learn,56417.00005531311,Wed Mar 12 2025 16:10:32 GMT-0500 (Central Daylight Time),536720.5999999996,A,towerenter,I,enter,638,3,3582.0999999996275,533138.5,8000,WL,C,1.0
4,4.449000120162964,learn,55550.999879837036,Wed Mar 12 2025 16:10:32 GMT-0500 (Central Daylight Time),537587.2999999998,A,w,I,w,853,3,866.5,536720.7999999998,8000,WL,C,2.0
4,4.7820000648498535,learn,55217.99993515015,Wed Mar 12 2025 16:10:32 GMT-0500 (Central Daylight Time),537920.5,A,wh,I,h,322,3,1199.7000000001863,536720.7999999998,8000,WL,C,2.0
4,5.065000057220459,learn,54934.99994277954,Wed Mar 12 2025 16:10:32 GMT-0500 (Central Daylight Time),538203.5,A,whe,I,e,269,3,1482.7000000001863,536720.7999999998,8000,WL,C,2.0
4,5.449000120162964,learn,54550.999879837036,Wed Mar 12 2025 16:10:32 GMT-0500 (Central Daylight Time),538586.6999999993,A,whea,I,a,363,3,1865.8999999994412,536720.7999999998,8000,WL,C,2.0
4,5.7820000648498535,learn,54217.99993515015,Wed Mar 12 2025 16:10:32 GMT-0500 (Central Daylight Time),538919.8999999994,A,wheat,I,t,315,3,2199.0999999996275,536720.7999999998,8000,WL,C,2.0
4,6.865999937057495,learn,53134.000062942505,Wed Mar 12 2025 16:10:32 GMT-0500 (Central Daylight Time),540004.0999999996,A,wheatenter,I,enter,1078,3,3283.2999999998137,536720.7999999998,8000,WL,C,2.0
4,9.29699993133545,learn,50703.00006866455,Wed Mar 12 2025 16:10:32 GMT-0500 (Central Daylight Time),542435.5,A,c,I,c,2416,3,2431.0,540004.5,8000,WL,C,3.0
4,9.746999979019165,learn,50253.000020980835,Wed Mar 12 2025 16:10:32 GMT-0500 (Central Daylight Time),542885.2999999998,A,co,I,o,434,3,2880.7999999998137,540004.5,8000,WL,C,3.0
4,10.19700002670288,learn,49802.99997329712,Wed Mar 12 2025 16:10:32 GMT-0500 (Central Daylight Time),543335.5,A,cor,I,r,440,3,3331.0,540004.5,8000,WL,C,3.0
4,10.54699993133545,learn,49453.00006866455,Wed Mar 12 2025 16:10:32 GMT-0500 (Central Daylight Time),543685.2999999998,A,corn,I,n,341,3,3680.7999999998137,540004.5,8000,WL,C,3.0
4,11.61300015449524,learn,48386.99984550476,Wed Mar 12 2025 16:10:32 GMT-0500 (Central Daylight Time),544751.0999999996,A,cornenter,I,enter,1056,3,4746.5999999996275,540004.5,8000,WL,C,3.0
4,13.108999967575073,learn,46891.00003242493,Wed Mar 12 2025 16:10:32 GMT-0500 (Central Daylight Time),546247.5,A,d,I,d,1474,3,1496.2000000001863,544751.2999999998,8000,WL,C,4.0
4,13.413000106811523,learn,46586.99989318848,Wed Mar 12 2025 16:10:32 GMT-0500 (Central Daylight Time),546550.7999999998,A,do,I,o,293,3,1799.5,544751.2999999998,8000,WL,C,4.0
4,13.763000011444092,learn,46236.99998855591,Wed Mar 12 2025 16:10:32 GMT-0500 (Central Daylight Time),546900.6999999993,A,doc,I,c,342,3,2149.399999999441,544751.2999999998,8000,WL,C,4.0
4,14.26200008392334,learn,45737.99991607666,Wed Mar 12 2025 16:10:32 GMT-0500 (Central Daylight Time),547400.5999999996,A,doct,I,t,481,3,2649.2999999998137,544751.2999999998,8000,WL,C,4.0
4,14.562000036239624,learn,45437.999963760376,Wed Mar 12 2025 16:10:32 GMT-0500 (Central Daylight Time),547700.5,A,docto,I,o,285,3,2949.2000000001863,544751.2999999998,8000,WL,C,4.0
4,14.84500002861023,learn,45154.99997138977,Wed Mar 12 2025 16:10:32 GMT-0500 (Central Daylight Time),547983.5999999996,A,doctor,I,r,273,3,3232.2999999998137,544751.2999999998,8000,WL,C,4.0
4,16.01200008392334,learn,43987.99991607666,Wed Mar 12 2025 16:10:32 GMT-0500 (Central Daylight Time),549150.0,A,doctorenter,I,enter,1150,3,4398.700000000186,544751.2999999998,8000,WL,C,4.0
4,17.795000076293945,learn,42204.999923706055,Wed Mar 12 2025 16:10:32 GMT-0500 (Central Daylight Time),550933.0,A,q,I,q,1767,3,1782.7000000001863,549150.2999999998,8000,WL,C,5.0
4,18.17799997329712,learn,41822.00002670288,Wed Mar 12 2025 16:10:32 GMT-0500 (Central Daylight Time),551316.2999999998,A,qu,I,u,376,3,2166.0,549150.2999999998,8000,WL,C,5.0
4,18.478000164031982,learn,41521.99983596802,Wed Mar 12 2025 16:10:32 GMT-0500 (Central Daylight Time),551616.0,A,que,I,e,289,3,2465.7000000001863,549150.2999999998,8000,WL,C,5.0
4,18.92799997329712,learn,41072.00002670288,Wed Mar 12 2025 16:10:32 GMT-0500 (Central Daylight Time),552065.7999999998,A,quee,I,e,429,3,2915.5,549150.2999999998,8000,WL,C,5.0
4,20.210999965667725,learn,39789.000034332275,Wed Mar 12 2025 16:10:32 GMT-0500 (Central Daylight Time),553348.7999999998,A,queen,I,n,1275,3,4198.5,549150.2999999998,8000,WL,C,5.0
4,21.944999933242798,learn,38055.0000667572,Wed Mar 12 2025 16:10:32 GMT-0500 (Central Daylight Time),555082.5999999996,A,queenenter,I,enter,1720,3,5932.299999999814,549150.2999999998,8000,WL,C,5.0
4,24.37600016593933,learn,35623.99983406067,Wed Mar 12 2025 16:10:32 GMT-0500 (Central Daylight Time),557514.2999999998,A,h,I,h,2418,3,2431.2999999998137,555083.0,8000,WL,C,6.0
4,24.676000118255615,learn,35323.999881744385,Wed Mar 12 2025 16:10:32 GMT-0500 (Central Daylight Time),557814.0999999996,A,ho,I,o,283,3,2731.0999999996275,555083.0,8000,WL,C,6.0
4,24.992000102996826,learn,35007.999897003174,Wed Mar 12 2025 16:10:32 GMT-0500 (Central Daylight Time),558130.5999999996,A,hom,I,m,311,3,3047.5999999996275,555083.0,8000,WL,C,6.0
4,25.342000007629395,learn,34657.999992370605,Wed Mar 12 2025 16:10:32 GMT-0500 (Central Daylight Time),558480.5,A,home,I,e,339,3,3397.5,555083.0,8000,WL,C,6.0
4,26.04200005531311,learn,33957.99994468689,Wed Mar 12 2025 16:10:32 GMT-0500 (Central Daylight Time),559180.3999999994,A,homeenter,I,enter,685,3,4097.399999999441,555083.0,8000,WL,C,6.0
4,27.35800004005432,learn,32641.99995994568,Wed Mar 12 2025 16:10:32 GMT-0500 (Central Daylight Time),560496.5,A,s,I,s,1305,3,1315.7000000001863,559180.7999999998,8000,WL,C,7.0
4,27.77500009536743,learn,32224.99990463257,Wed Mar 12 2025 16:10:32 GMT-0500 (Central Daylight Time),560913.0999999996,A,su,I,u,397,3,1732.2999999998137,559180.7999999998,8000,WL,C,7.0
4,28.174999952316284,learn,31825.000047683716,Wed Mar 12 2025 16:10:32 GMT-0500 (Central Daylight Time),561312.8999999994,A,sug,I,g,389,3,2132.0999999996275,559180.7999999998,8000,WL,C,7.0
4,28.77500009536743,learn,31224.99990463257,Wed Mar 12 2025 16:10:32 GMT-0500 (Central Daylight Time),561912.7999999998,A,suga,I,a,581,3,2732.0,559180.7999999998,8000,WL,C,7.0
4,29.157999992370605,learn,30842.000007629395,Wed Mar 12 2025 16:10:32 GMT-0500 (Central Daylight Time),562296.0999999996,A,sugar,I,r,373,3,3115.2999999998137,559180.7999999998,8000,WL,C,7.0
4,29.723999977111816,learn,30276.000022888184,Wed Mar 12 2025 16:10:32 GMT-0500 (Central Daylight Time),562862.5,A,sugarenter,I,enter,557,3,3681.7000000001863,559180.7999999998,8000,WL,C,7.0
4,30.674000024795532,learn,29325.999975204468,Wed Mar 12 2025 16:10:32 GMT-0500 (Central Daylight Time),563811.8999999994,A,b,I,b,942,3,949.0999999996275,562862.7999999998,8000,WL,C,8.0
4,31.057000160217285,learn,28942.999839782715,Wed Mar 12 2025 16:10:32 GMT-0500 (Central Daylight Time),564195.1999999993,A,bo,I,o,378,3,1332.3999999994412,562862.7999999998,8000,WL,C,8.0
4,31.557000160217285,learn,28442.999839782715,Wed Mar 12 2025 16:10:32 GMT-0500 (Central Daylight Time),564695.1999999993,A,boy,I,y,490,3,1832.3999999994412,562862.7999999998,8000,WL,C,8.0
4,32.10700011253357,learn,27892.99988746643,Wed Mar 12 2025 16:10:32 GMT-0500 (Central Daylight Time),565244.8999999994,A,boyenter,I,enter,534,3,2382.0999999996275,562862.7999999998,8000,WL,C,8.0
4,32.873000144958496,learn,27126.999855041504,Wed Mar 12 2025 16:10:32 GMT-0500 (Central Daylight Time),566011.2999999998,A,c,I,c,761,3,766.2000000001863,565245.0999999996,8000,WL,C,9.0
4,33.27400016784668,learn,26725.99983215332,Wed Mar 12 2025 16:10:32 GMT-0500 (Central Daylight Time),566411.6999999993,A,ca,I,a,387,3,1166.5999999996275,565245.0999999996,8000,WL,C,9.0
4,33.77300000190735,learn,26226.99999809265,Wed Mar 12 2025 16:10:32 GMT-0500 (Central Daylight Time),566911.5,A,cat,I,t,482,3,1666.4000000003725,565245.0999999996,8000,WL,C,9.0
4,33.956000089645386,learn,26043.999910354614,Wed Mar 12 2025 16:10:32 GMT-0500 (Central Daylight Time),567094.3999999994,A,catt,I,t,174,3,1849.2999999998137,565245.0999999996,8000,WL,C,9.0
4,34.73900008201599,learn,25260.99991798401,Wed Mar 12 2025 16:10:32 GMT-0500 (Central Daylight Time),567877.5999999996,A,cattl,I,l,767,3,2632.5,565245.0999999996,8000,WL,C,9.0
4,35.25600004196167,learn,24743.99995803833,Wed Mar 12 2025 16:10:32 GMT-0500 (Central Daylight Time),568394.5,A,cattle,I,e,496,3,3149.4000000003725,565245.0999999996,8000,WL,C,9.0
4,36.00600004196167,learn,23993.99995803833,Wed Mar 12 2025 16:10:32 GMT-0500 (Central Daylight Time),569144.0999999996,A,cattleenter,I,enter,731,3,3899.0,565245.0999999996,8000,WL,C,9.0
4,37.00500011444092,learn,22994.999885559082,Wed Mar 12 2025 16:10:32 GMT-0500 (Central Daylight Time),570143.3999999994,A,s,I,s,982,3,999.0,569144.3999999994,8000,WL,C,10.0
4,37.32200002670288,learn,22677.99997329712,Wed Mar 12 2025 16:10:32 GMT-0500 (Central Daylight Time),570460.0999999996,A,sh,I,h,302,3,1315.7000000001863,569144.3999999994,8000,WL,C,10.0
4,37.83899998664856,learn,22161.00001335144,Wed Mar 12 2025 16:10:32 GMT-0500 (Central Daylight Time),570976.6999999993,A,sho,I,o,497,3,1832.2999999998137,569144.3999999994,8000,WL,C,10.0
4,38.205000162124634,learn,21794.999837875366,Wed Mar 12 2025 16:10:32 GMT-0500 (Central Daylight Time),571343.0999999996,A,shor,I,r,357,3,2198.7000000001863,569144.3999999994,8000,WL,C,10.0
4,38.50500011444092,learn,21494.999885559082,Wed Mar 12 2025 16:10:32 GMT-0500 (Central Daylight Time),571643.0,A,shore,I,e,294,3,2498.600000000559,569144.3999999994,8000,WL,C,10.0
4,38.83800005912781,learn,21161.999940872192,Wed Mar 12 2025 16:10:32 GMT-0500 (Central Daylight Time),571976.1999999993,A,shoreenter,I,enter,322,3,2831.7999999998137,569144.3999999994,8000,WL,C,10.0
4,39.38800001144409,learn,20611.99998855591,Wed Mar 12 2025 16:10:32 GMT-0500 (Central Daylight Time),572526.0,A,h,I,h,533,3,549.5,571976.5,8000,WL,C,11.0
4,39.687999963760376,learn,20312.000036239624,Wed Mar 12 2025 16:10:32 GMT-0500 (Central Daylight Time),572826.0999999996,A,ho,I,o,280,3,849.5999999996275,571976.5,8000,WL,C,11.0
4,40.03800010681152,learn,19961.999893188477,Wed Mar 12 2025 16:10:32 GMT-0500 (Central Daylight Time),573176.0999999996,A,hom,I,m,339,3,1199.5999999996275,571976.5,8000,WL,C,11.0
4,40.4210000038147,learn,19578.999996185303,Wed Mar 12 2025 16:10:32 GMT-0500 (Central Daylight Time),573559.1999999993,A,home,I,e,365,3,1582.699999999255,571976.5,8000,WL,C,11.0
4,41.837000131607056,learn,18162.999868392944,Wed Mar 12 2025 16:10:32 GMT-0500 (Central Daylight Time),574975.5,A,homeenter,I,enter,1406,3,2999.0,571976.5,8000,WL,C,11.0
4,42.70300006866455,learn,17296.99993133545,Wed Mar 12 2025 16:10:32 GMT-0500 (Central Daylight Time),575841.5999999996,A,f,I,f,854,3,865.7000000001863,574975.8999999994,8000,WL,C,12.0
4,43.03699994087219,learn,16963.000059127808,Wed Mar 12 2025 16:10:32 GMT-0500 (Central Daylight Time),576175.0999999996,A,fl,I,l,316,3,1199.2000000001863,574975.8999999994,8000,WL,C,12.0
4,44.47000002861023,learn,15529.99997138977,Wed Mar 12 2025 16:10:32 GMT-0500 (Central Daylight Time),577607.8999999994,A,fla,I,a,1422,3,2632.0,574975.8999999994,8000,WL,C,12.0
4,44.88600015640259,learn,15113.999843597412,Wed Mar 12 2025 16:10:32 GMT-0500 (Central Daylight Time),578024.3999999994,A,flag,I,g,406,3,3048.5,574975.8999999994,8000,WL,C,12.0
4,45.41900014877319,learn,14580.999851226807,Wed Mar 12 2025 16:10:32 GMT-0500 (Central Daylight Time),578557.5,A,flagenter,I,enter,525,3,3581.600000000559,574975.8999999994,8000,WL,C,12.0
4,46.236000061035156,learn,13763.999938964844,Wed Mar 12 2025 16:10:32 GMT-0500 (Central Daylight Time),579374.0999999996,A,c,I,c,808,3,816.2000000001863,578557.8999999994,8000,WL,C,13.0
4,46.65300011634827,learn,13346.999883651733,Wed Mar 12 2025 16:10:32 GMT-0500 (Central Daylight Time),579790.6999999993,A,ca,I,a,399,3,1232.7999999998137,578557.8999999994,8000,WL,C,13.0
4,47.085999965667725,learn,12914.000034332275,Wed Mar 12 2025 16:10:32 GMT-0500 (Central Daylight Time),580223.8999999994,A,cam,I,m,422,3,1666.0,578557.8999999994,8000,WL,C,13.0
4,47.53600001335144,learn,12463.99998664856,Wed Mar 12 2025 16:10:32 GMT-0500 (Central Daylight Time),580673.8999999994,A,camp,I,p,438,3,2116.0,578557.8999999994,8000,WL,C,13.0
4,48.38499999046326,learn,11615.000009536743,Wed Mar 12 2025 16:10:32 GMT-0500 (Central Daylight Time),581523.2999999998,A,campenter,I,enter,836,3,2965.4000000003725,578557.8999999994,8000,WL,C,13.0
4,60.01300001144409,learn,-13.000011444091797,Wed Mar 12 2025 16:10:32 GMT-0500 (Central Daylight Time),593150.7999999998,A,None,I,None,11623,3,11627.200000000186,581523.5999999996,8000,WL,C,14.0
5,1.9500000476837158,learn,60000.0,Wed Mar 12 2025 16:10:32 GMT-0500 (Central Daylight Time),662048.3999999994,A,t,I,t,1928,3,1949.0,660099.3999999994,8000,WL,C,1.0
5,2.299999952316284,learn,60000.0,Wed Mar 12 2025 16:10:32 GMT-0500 (Central Daylight Time),662398.3999999994,A,to,I,o,340,3,2299.0,660099.3999999994,8000,WL,C,1.0
5,2.7660000324249268,learn,60000.0,Wed Mar 12 2025 16:10:32 GMT-0500 (Central Daylight Time),662864.5999999996,A,tow,I,w,455,3,2765.2000000001863,660099.3999999994,8000,WL,C,1.0
5,3.065999984741211,learn,60000.0,Wed Mar 12 2025 16:10:32 GMT-0500 (Central Daylight Time),663164.5,A,towe,I,e,293,3,3065.100000000559,660099.3999999994,8000,WL,C,1.0
5,3.2990000247955322,learn,60000.0,Wed Mar 12 2025 16:10:32 GMT-0500 (Central Daylight Time),663397.6999999993,A,tower,I,r,225,3,3298.2999999998137,660099.3999999994,8000,WL,C,1.0
5,4.082000017166138,learn,60000.0,Wed Mar 12 2025 16:10:32 GMT-0500 (Central Daylight Time),664180.7999999998,A,towerenter,I,enter,775,3,4081.4000000003725,660099.3999999994,8000,WL,C,1.0
5,5.765000104904175,learn,60000.0,Wed Mar 12 2025 16:10:32 GMT-0500 (Central Daylight Time),665863.5,A,q,I,q,1672,3,1682.300000000745,664181.1999999993,8000,WL,C,2.0
5,6.148000001907349,learn,60000.0,Wed Mar 12 2025 16:10:32 GMT-0500 (Central Daylight Time),666246.7999999998,A,qu,I,u,374,3,2065.600000000559,664181.1999999993,8000,WL,C,2.0
5,6.565000057220459,learn,60000.0,Wed Mar 12 2025 16:10:32 GMT-0500 (Central Daylight Time),666663.2999999998,A,que,I,e,406,3,2482.100000000559,664181.1999999993,8000,WL,C,2.0
5,6.730999946594238,learn,60000.0,Wed Mar 12 2025 16:10:32 GMT-0500 (Central Daylight Time),666830.0999999996,A,quee,I,e,158,3,2648.9000000003725,664181.1999999993,8000,WL,C,2.0
5,7.04800009727478,learn,60000.0,Wed Mar 12 2025 16:10:32 GMT-0500 (Central Daylight Time),667146.6999999993,A,queen,I,n,311,3,2965.5,664181.1999999993,8000,WL,C,2.0
5,7.898000001907349,learn,60000.0,Wed Mar 12 2025 16:10:32 GMT-0500 (Central Daylight Time),667996.3999999994,A,queenenter,I,enter,835,3,3815.2000000001863,664181.1999999993,8000,WL,C,2.0
5,9.365000009536743,learn,60000.0,Wed Mar 12 2025 16:10:32 GMT-0500 (Central Daylight Time),669463.6999999993,A,s,I,s,1457,3,1467.0999999996275,667996.5999999996,8000,WL,C,3.0
5,9.880000114440918,learn,60000.0,Wed Mar 12 2025 16:10:32 GMT-0500 (Central Daylight Time),669979.1999999993,A,su,I,u,494,3,1982.5999999996275,667996.5999999996,8000,WL,C,3.0
5,10.314000129699707,learn,60000.0,Wed Mar 12 2025 16:10:32 GMT-0500 (Central Daylight Time),670412.2999999998,A,sug,I,g,418,3,2415.7000000001863,667996.5999999996,8000,WL,C,3.0
5,10.54699993133545,learn,60000.0,Wed Mar 12 2025 16:10:32 GMT-0500 (Central Daylight Time),670645.7999999998,A,suga,I,a,218,3,2649.2000000001863,667996.5999999996,8000,WL,C,3.0
5,10.996999979019165,learn,60000.0,Wed Mar 12 2025 16:10:32 GMT-0500 (Central Daylight Time),671095.1999999993,A,sugar,I,r,440,3,3098.5999999996275,667996.5999999996,8000,WL,C,3.0
5,12.446000099182129,learn,60000.0,Wed Mar 12 2025 16:10:32 GMT-0500 (Central Daylight Time),672544.8999999994,A,sugarenter,I,enter,1430,3,4548.299999999814,667996.5999999996,8000,WL,C,3.0
5,15.213000059127808,learn,60000.0,Wed Mar 12 2025 16:10:32 GMT-0500 (Central Daylight Time),675311.8999999994,A,w,I,w,2757,3,2766.7000000001863,672545.1999999993,8000,WL,C,4.0
5,15.529000043869019,learn,60000.0,Wed Mar 12 2025 16:10:32 GMT-0500 (Central Daylight Time),675627.3999999994,A,wh,I,h,301,3,3082.2000000001863,672545.1999999993,8000,WL,C,4.0
5,15.845999956130981,learn,60000.0,Wed Mar 12 2025 16:10:32 GMT-0500 (Central Daylight Time),675944.1999999993,A,whe,I,e,298,3,3399.0,672545.1999999993,8000,WL,C,4.0
5,16.227999925613403,learn,60000.0,Wed Mar 12 2025 16:10:32 GMT-0500 (Central Daylight Time),676327.0999999996,A,whea,I,a,365,3,3781.9000000003725,672545.1999999993,8000,WL,C,4.0
5,16.444999933242798,learn,60000.0,Wed Mar 12 2025 16:10:32 GMT-0500 (Central Daylight Time),676543.5999999996,A,wheat,I,t,206,3,3998.4000000003725,672545.1999999993,8000,WL,C,4.0
5,17.34500002861023,learn,60000.0,Wed Mar 12 2025 16:10:32 GMT-0500 (Central Daylight Time),677443.2999999998,A,wheatenter,I,enter,886,3,4898.100000000559,672545.1999999993,8000,WL,C,4.0
5,18.16100001335144,learn,60000.0,Wed Mar 12 2025 16:10:32 GMT-0500 (Central Daylight Time),678259.7999999998,A,c,I,c,810,3,816.1000000005588,677443.6999999993,8000,WL,C,5.0
5,18.628000020980835,learn,60000.0,Wed Mar 12 2025 16:10:32 GMT-0500 (Central Daylight Time),678726.3999999994,A,co,I,o,457,3,1282.7000000001863,677443.6999999993,8000,WL,C,5.0
5,19.128000020980835,learn,60000.0,Wed Mar 12 2025 16:10:32 GMT-0500 (Central Daylight Time),679226.1999999993,A,cor,I,r,487,3,1782.5,677443.6999999993,8000,WL,C,5.0
5,19.47699999809265,learn,60000.0,Wed Mar 12 2025 16:10:32 GMT-0500 (Central Daylight Time),679576.0999999996,A,corn,I,n,339,3,2132.4000000003725,677443.6999999993,8000,WL,C,5.0
5,20.276999950408936,learn,60000.0,Wed Mar 12 2025 16:10:32 GMT-0500 (Central Daylight Time),680375.7999999998,A,cornenter,I,enter,783,3,2932.100000000559,677443.6999999993,8000,WL,C,5.0
5,21.177000045776367,learn,60000.0,Wed Mar 12 2025 16:10:32 GMT-0500 (Central Daylight Time),681275.2999999998,A,n,I,n,894,3,899.2000000001863,680376.0999999996,8000,WL,C,6.0
5,21.509999990463257,learn,60000.0,Wed Mar 12 2025 16:10:32 GMT-0500 (Central Daylight Time),681608.8999999994,A,na,I,a,322,3,1232.7999999998137,680376.0999999996,8000,WL,C,6.0
5,21.776999950408936,learn,60000.0,Wed Mar 12 2025 16:10:32 GMT-0500 (Central Daylight Time),681875.3999999994,A,nai,I,i,253,3,1499.2999999998137,680376.0999999996,8000,WL,C,6.0
5,22.243000030517578,learn,60000.0,Wed Mar 12 2025 16:10:32 GMT-0500 (Central Daylight Time),682341.7999999998,A,nail,I,l,458,3,1965.7000000001863,680376.0999999996,8000,WL,C,6.0
5,22.743000030517578,learn,60000.0,Wed Mar 12 2025 16:10:32 GMT-0500 (Central Daylight Time),682841.5,A,nailenter,I,enter,488,3,2465.4000000003725,680376.0999999996,8000,WL,C,6.0
5,23.66000008583069,learn,60000.0,Wed Mar 12 2025 16:10:32 GMT-0500 (Central Daylight Time),683758.1999999993,A,s,I,s,908,3,916.2999999998137,682841.8999999994,8000,WL,C,7.0
5,23.943000078201294,learn,60000.0,Wed Mar 12 2025 16:10:32 GMT-0500 (Central Daylight Time),684041.3999999994,A,sh,I,h,263,3,1199.5,682841.8999999994,8000,WL,C,7.0
5,24.4760000705719,learn,60000.0,Wed Mar 12 2025 16:10:32 GMT-0500 (Central Daylight Time),684574.3999999994,A,sho,I,o,524,3,1732.5,682841.8999999994,8000,WL,C,7.0
5,24.79200005531311,learn,60000.0,Wed Mar 12 2025 16:10:32 GMT-0500 (Central Daylight Time),684891.0,A,shor,I,r,312,3,2049.100000000559,682841.8999999994,8000,WL,C,7.0
5,25.158999919891357,learn,60000.0,Wed Mar 12 2025 16:10:32 GMT-0500 (Central Daylight Time),685257.5999999996,A,shore,I,e,347,3,2415.7000000001863,682841.8999999994,8000,WL,C,7.0
5,25.70900011062622,learn,60000.0,Wed Mar 12 2025 16:10:32 GMT-0500 (Central Daylight Time),685807.5,A,shoreenter,I,enter,540,3,2965.600000000559,682841.8999999994,8000,WL,C,7.0
5,26.441999912261963,learn,60000.0,Wed Mar 12 2025 16:10:32 GMT-0500 (Central Daylight Time),686540.3999999994,A,l,I,l,726,3,732.5999999996275,685807.7999999998,8000,WL,C,8.0
5,26.77500009536743,learn,60000.0,Wed Mar 12 2025 16:10:32 GMT-0500 (Central Daylight Time),686873.6999999993,A,le,I,e,321,3,1065.8999999994412,685807.7999999998,8000,WL,C,8.0
5,27.384999990463257,learn,60000.0,Wed Mar 12 2025 16:10:32 GMT-0500 (Central Daylight Time),687483.1999999993,A,let,I,t,605,3,1675.3999999994412,685807.7999999998,8000,WL,C,8.0
5,27.77500009536743,learn,60000.0,Wed Mar 12 2025 16:10:32 GMT-0500 (Central Daylight Time),687873.1999999993,A,lete,I,e,370,3,2065.399999999441,685807.7999999998,8000,WL,C,8.0
5,28.141000032424927,learn,60000.0,Wed Mar 12 2025 16:10:32 GMT-0500 (Central Daylight Time),688239.8999999994,A,leter,I,r,348,3,2432.0999999996275,685807.7999999998,8000,WL,C,8.0
5,31.424000024795532,learn,60000.0,Wed Mar 12 2025 16:10:32 GMT-0500 (Central Daylight Time),691522.3999999994,A,leterenter,I,enter,3270,3,5714.5999999996275,685807.7999999998,8000,WL,C,8.0
5,35.58899998664856,learn,60000.0,Wed Mar 12 2025 16:10:32 GMT-0500 (Central Daylight Time),695687.6999999993,A,b,I,b,4147,3,4165.0,691522.6999999993,8000,WL,C,9.0
5,35.93900012969971,learn,60000.0,Wed Mar 12 2025 16:10:32 GMT-0500 (Central Daylight Time),696037.6999999993,A,bo,I,o,342,3,4515.0,691522.6999999993,8000,WL,C,9.0
5,36.50500011444092,learn,60000.0,Wed Mar 12 2025 16:10:32 GMT-0500 (Central Daylight Time),696604.0999999996,A,boy,I,y,552,3,5081.4000000003725,691522.6999999993,8000,WL,C,9.0
5,36.72200012207031,learn,60000.0,Wed Mar 12 2025 16:10:32 GMT-0500 (Central Daylight Time),696820.5999999996,A,boyenter,I,enter,202,3,5297.9000000003725,691522.6999999993,8000,WL,C,9.0
5,37.687999963760376,learn,60000.0,Wed Mar 12 2025 16:10:32 GMT-0500 (Central Daylight Time),697786.7999999998,A,h,I,h,961,3,965.9000000003725,696820.8999999994,8000,WL,C,10.0
5,38.00500011444092,learn,60000.0,Wed Mar 12 2025 16:10:32 GMT-0500 (Central Daylight Time),698103.5999999996,A,ho,I,o,298,3,1282.7000000001863,696820.8999999994,8000,WL,C,10.0
5,38.47200012207031,learn,60000.0,Wed Mar 12 2025 16:10:32 GMT-0500 (Central Daylight Time),698570.0999999996,A,hom,I,m,446,3,1749.2000000001863,696820.8999999994,8000,WL,C,10.0
5,38.82100009918213,learn,60000.0,Wed Mar 12 2025 16:10:32 GMT-0500 (Central Daylight Time),698920.0,A,home,I,e,331,3,2099.100000000559,696820.8999999994,8000,WL,C,10.0
5,39.57100009918213,learn,60000.0,Wed Mar 12 2025 16:10:32 GMT-0500 (Central Daylight Time),699669.7999999998,A,homeenter,I,enter,733,3,2848.9000000003725,696820.8999999994,8000,WL,C,10.0
5,44.30299997329712,learn,60000.0,Wed Mar 12 2025 16:10:32 GMT-0500 (Central Daylight Time),704401.7999999998,A,f,I,f,4721,3,4731.700000000186,699670.0999999996,8000,WL,C,11.0
5,44.670000076293945,learn,60000.0,Wed Mar 12 2025 16:10:32 GMT-0500 (Central Daylight Time),704768.2999999998,A,fl,I,l,357,3,5098.200000000186,699670.0999999996,8000,WL,C,11.0
5,44.97000002861023,learn,60000.0,Wed Mar 12 2025 16:10:32 GMT-0500 (Central Daylight Time),705068.2999999998,A,fla,I,a,285,3,5398.200000000186,699670.0999999996,8000,WL,C,11.0
5,45.45300006866455,learn,60000.0,Wed Mar 12 2025 16:10:32 GMT-0500 (Central Daylight Time),705551.2999999998,A,flag,I,g,465,3,5881.200000000186,699670.0999999996,8000,WL,C,11.0
5,45.986000061035156,learn,60000.0,Wed Mar 12 2025 16:10:32 GMT-0500 (Central Daylight Time),706084.3999999994,A,flagenter,I,enter,518,3,6414.299999999814,699670.0999999996,8000,WL,C,11.0
5,46.835999965667725,learn,60000.0,Wed Mar 12 2025 16:10:32 GMT-0500 (Central Daylight Time),706934.1999999993,A,c,I,c,841,3,849.5,706084.6999999993,8000,WL,C,12.0
5,47.151999950408936,learn,60000.0,Wed Mar 12 2025 16:10:32 GMT-0500 (Central Daylight Time),707250.7999999998,A,ca,I,a,296,3,1166.1000000005588,706084.6999999993,8000,WL,C,12.0
5,47.55200004577637,learn,60000.0,Wed Mar 12 2025 16:10:32 GMT-0500 (Central Daylight Time),707650.5,A,cam,I,m,387,3,1565.800000000745,706084.6999999993,8000,WL,C,12.0
5,47.95199990272522,learn,60000.0,Wed Mar 12 2025 16:10:32 GMT-0500 (Central Daylight Time),708050.6999999993,A,camp,I,p,379,3,1966.0,706084.6999999993,8000,WL,C,12.0
5,48.66799998283386,learn,60000.0,Wed Mar 12 2025 16:10:32 GMT-0500 (Central Daylight Time),708766.7999999998,A,campenter,I,enter,698,3,2682.100000000559,706084.6999999993,8000,WL,C,12.0
5,49.50099992752075,learn,60000.0,Wed Mar 12 2025 16:10:32 GMT-0500 (Central Daylight Time),709599.7999999998,A,h,I,h,814,3,832.6000000005588,708767.1999999993,8000,WL,C,13.0
5,49.76800012588501,learn,60000.0,Wed Mar 12 2025 16:10:32 GMT-0500 (Central Daylight Time),709866.5999999996,A,ho,I,o,247,3,1099.4000000003725,708767.1999999993,8000,WL,C,13.0
5,50.08500003814697,learn,60000.0,Wed Mar 12 2025 16:10:32 GMT-0500 (Central Daylight Time),710183.2999999998,A,hom,I,m,307,3,1416.1000000005588,708767.1999999993,8000,WL,C,13.0
5,50.51800012588501,learn,60000.0,Wed Mar 12 2025 16:10:32 GMT-0500 (Central Daylight Time),710616.3999999994,A,home,I,e,423,3,1849.2000000001863,708767.1999999993,8000,WL,C,13.0
5,51.401000022888184,learn,60000.0,Wed Mar 12 2025 16:10:32 GMT-0500 (Central Daylight Time),711499.1999999993,A,homeenter,I,enter,877,3,2732.0,708767.1999999993,8000,WL,C,13.0
5,54.09999990463257,learn,60000.0,Wed Mar 12 2025 16:10:32 GMT-0500 (Central Daylight Time),714198.6999999993,A,b,I,b,2683,3,2699.199999999255,711499.5,8000,WL,C,14.0
5,54.382999897003174,learn,60000.0,Wed Mar 12 2025 16:10:32 GMT-0500 (Central Daylight Time),714481.7999999998,A,bo,I,o,271,3,2982.2999999998137,711499.5,8000,WL,C,14.0
5,54.93300008773804,learn,60000.0,Wed Mar 12 2025 16:10:32 GMT-0500 (Central Daylight Time),715031.7999999998,A,bod,I,d,541,3,3532.2999999998137,711499.5,8000,WL,C,14.0
5,55.46600008010864,learn,60000.0,Wed Mar 12 2025 16:10:32 GMT-0500 (Central Daylight Time),715564.8999999994,A,body,I,y,518,3,4065.399999999441,711499.5,8000,WL,C,14.0
5,56.3989999294281,learn,60000.0,Wed Mar 12 2025 16:10:32 GMT-0500 (Central Daylight Time),716497.5999999996,A,bodyenter,I,enter,912,3,4998.0999999996275,711499.5,8000,WL,C,14.0
5,57.615999937057495,learn,60000.0,Wed Mar 12 2025 16:10:32 GMT-0500 (Central Daylight Time),717715.2999999998,A,s,I,s,1195,3,1217.4000000003725,716497.8999999994,8000,WL,C,15.0
5,57.81500005722046,learn,60000.0,Wed Mar 12 2025 16:10:32 GMT-0500 (Central Daylight Time),717914.1999999993,A,sh,I,h,187,3,1416.2999999998137,716497.8999999994,8000,WL,C,15.0
5,58.24799990653992,learn,60000.0,Wed Mar 12 2025 16:10:32 GMT-0500 (Central Daylight Time),718347.3999999994,A,sho,I,o,419,3,1849.5,716497.8999999994,8000,WL,C,15.0
5,58.54800009727478,learn,60000.0,Wed Mar 12 2025 16:10:32 GMT-0500 (Central Daylight Time),718647.1999999993,A,shor,I,r,282,3,2149.2999999998137,716497.8999999994,8000,WL,C,15.0
5,58.848000049591064,learn,60000.0,Wed Mar 12 2025 16:10:32 GMT-0500 (Central Daylight Time),718946.8999999994,A,shore,I,e,294,3,2449.0,716497.8999999994,8000,WL,C,15.0
5,59.081000089645386,learn,60000.0,Wed Mar 12 2025 16:10:32 GMT-0500 (Central Daylight Time),719180.2999999998,A,shoreenter,I,enter,220,3,2682.4000000003725,716497.8999999994,8000,WL,C,15.0
6,3.0490000247955322,distr,56950.99997520447,Wed Mar 12 2025 16:10:32 GMT-0500 (Central Daylight Time),793907.1999999993,B,m,I,m,3028,3,3049.0999999996275,790858.0999999996,8000,WL,C,1.0
6,3.5320000648498535,distr,56467.99993515015,Wed Mar 12 2025 16:10:32 GMT-0500 (Central Daylight Time),794390.2999999998,B,mo,I,o,466,3,3532.2000000001863,790858.0999999996,8000,WL,C,1.0
6,3.9149999618530273,distr,56085.00003814697,Wed Mar 12 2025 16:10:32 GMT-0500 (Central Daylight Time),794773.3999999994,B,mot,I,t,375,3,3915.2999999998137,790858.0999999996,8000,WL,C,1.0
6,4.115000009536743,distr,55884.99999046326,Wed Mar 12 2025 16:10:32 GMT-0500 (Central Daylight Time),794973.3999999994,B,moth,I,h,192,3,4115.299999999814,790858.0999999996,8000,WL,C,1.0
6,4.615000009536743,distr,55384.99999046326,Wed Mar 12 2025 16:10:32 GMT-0500 (Central Daylight Time),795472.8999999994,B,mothe,I,e,480,3,4614.799999999814,790858.0999999996,8000,WL,C,1.0
6,4.898000001907349,distr,55101.99999809265,Wed Mar 12 2025 16:10:32 GMT-0500 (Central Daylight Time),795756.1999999993,B,mother,I,r,276,3,4898.0999999996275,790858.0999999996,8000,WL,C,1.0
6,5.5980000495910645,distr,54401.999950408936,Wed Mar 12 2025 16:10:32 GMT-0500 (Central Daylight Time),796456.0999999996,B,motherenter,I,enter,681,3,5598.0,790858.0999999996,8000,WL,C,1.0
6,7.063999891281128,distr,52936.00010871887,Wed Mar 12 2025 16:10:32 GMT-0500 (Central Daylight Time),797922.0999999996,B,d,I,d,1452,3,1465.7000000001863,796456.3999999994,8000,WL,C,2.0
6,7.414000034332275,distr,52585.999965667725,Wed Mar 12 2025 16:10:32 GMT-0500 (Central Daylight Time),798272.0,B,di,I,i,331,3,1815.6000000005588,796456.3999999994,8000,WL,C,2.0
6,7.830999851226807,distr,52169.00014877319,Wed Mar 12 2025 16:10:32 GMT-0500 (Central Daylight Time),798688.5,B,dia,I,a,397,3,2232.100000000559,796456.3999999994,8000,WL,C,2.0
6,8.430000066757202,distr,51569.9999332428,Wed Mar 12 2025 16:10:32 GMT-0500 (Central Daylight Time),799288.3999999994,B,diam,I,m,589,3,2832.0,796456.3999999994,8000,WL,C,2.0
6,8.94700002670288,distr,51052.99997329712,Wed Mar 12 2025 16:10:32 GMT-0500 (Central Daylight Time),799804.8999999994,B,diamo,I,o,501,3,3348.5,796456.3999999994,8000,WL,C,2.0
6,9.379999876022339,distr,50620.00012397766,Wed Mar 12 2025 16:10:32 GMT-0500 (Central Daylight Time),800238.0999999996,B,diamon,I,n,424,3,3781.7000000001863,796456.3999999994,8000,WL,C,2.0
6,10.412999868392944,distr,49587.000131607056,Wed Mar 12 2025 16:10:32 GMT-0500 (Central Daylight Time),801271.0999999996,B,diamond,I,d,1023,3,4814.700000000186,796456.3999999994,8000,WL,C,2.0
6,10.812999963760376,distr,49187.000036239624,Wed Mar 12 2025 16:10:32 GMT-0500 (Central Daylight Time),801671.0999999996,B,diamondenter,I,enter,382,3,5214.700000000186,796456.3999999994,8000,WL,C,2.0
6,13.228999853134155,distr,46771.000146865845,Wed Mar 12 2025 16:10:32 GMT-0500 (Central Daylight Time),804087.0999999996,B,m,I,m,2398,3,2415.7000000001863,801671.3999999994,8000,WL,C,3.0
6,13.994999885559082,distr,46005.00011444092,Wed Mar 12 2025 16:10:32 GMT-0500 (Central Daylight Time),804853.2999999998,B,mo,I,o,758,3,3181.9000000003725,801671.3999999994,8000,WL,C,3.0
6,14.478999853134155,distr,45521.000146865845,Wed Mar 12 2025 16:10:32 GMT-0500 (Central Daylight Time),805336.5,B,mon,I,n,472,3,3665.100000000559,801671.3999999994,8000,WL,C,3.0
6,14.977999925613403,distr,45022.0000743866,Wed Mar 12 2025 16:10:32 GMT-0500 (Central Daylight Time),805836.3999999994,B,mone,I,e,485,3,4165.0,801671.3999999994,8000,WL,C,3.0
6,15.34500002861023,distr,44654.99997138977,Wed Mar 12 2025 16:10:32 GMT-0500 (Central Daylight Time),806202.8999999994,B,money,I,y,353,3,4531.5,801671.3999999994,8000,WL,C,3.0
6,16.394999980926514,distr,43605.000019073486,Wed Mar 12 2025 16:10:32 GMT-0500 (Central Daylight Time),807252.5999999996,B,moneyenter,I,enter,1034,3,5581.200000000186,801671.3999999994,8000,WL,C,3.0
6,17.277999877929688,distr,42722.00012207031,Wed Mar 12 2025 16:10:32 GMT-0500 (Central Daylight Time),808135.6999999993,B,s,I,s,865,3,882.8999999994412,807252.7999999998,8000,WL,C,4.0
6,17.544999837875366,distr,42455.000162124634,Wed Mar 12 2025 16:10:32 GMT-0500 (Central Daylight Time),808402.6999999993,B,sk,I,k,253,3,1149.8999999994412,807252.7999999998,8000,WL,C,4.0
6,18.111000061035156,distr,41888.999938964844,Wed Mar 12 2025 16:10:32 GMT-0500 (Central Daylight Time),808968.7999999998,B,sky,I,y,547,3,1716.0,807252.7999999998,8000,WL,C,4.0
6,19.24399995803833,distr,40756.00004196167,Wed Mar 12 2025 16:10:32 GMT-0500 (Central Daylight Time),810101.6999999993,B,skyenter,I,enter,1116,3,2848.899999999441,807252.7999999998,8000,WL,C,4.0
6,22.425999879837036,distr,37574.000120162964,Wed Mar 12 2025 16:10:32 GMT-0500 (Central Daylight Time),813284.0,B,d,I,d,3175,3,3182.100000000559,810101.8999999994,8000,WL,C,5.0
6,23.125999927520752,distr,36874.00007247925,Wed Mar 12 2025 16:10:32 GMT-0500 (Central Daylight Time),813983.7999999998,B,do,I,o,689,3,3881.9000000003725,810101.8999999994,8000,WL,C,5.0
6,23.741999864578247,distr,36258.00013542175,Wed Mar 12 2025 16:10:32 GMT-0500 (Central Daylight Time),814600.2999999998,B,dol,I,l,605,3,4498.4000000003725,810101.8999999994,8000,WL,C,5.0
6,23.925999879837036,distr,36074.000120162964,Wed Mar 12 2025 16:10:32 GMT-0500 (Central Daylight Time),814783.5999999996,B,doll,I,l,165,3,4681.700000000186,810101.8999999994,8000,WL,C,5.0
6,24.774999856948853,distr,35225.00014305115,Wed Mar 12 2025 16:10:32 GMT-0500 (Central Daylight Time),815633.1999999993,B,dollo,I,o,838,3,5531.299999999814,810101.8999999994,8000,WL,C,5.0
6,25.825000047683716,distr,34174.999952316284,Wed Mar 12 2025 16:10:32 GMT-0500 (Central Daylight Time),816683.0,B,dolloa,I,a,1044,3,6581.100000000559,810101.8999999994,8000,WL,C,5.0
6,27.87399983406067,distr,32126.00016593933,Wed Mar 12 2025 16:10:32 GMT-0500 (Central Daylight Time),818732.2999999998,B,dolloaenter,I,enter,2042,3,8630.400000000373,810101.8999999994,8000,WL,C,5.0
6,30.639999866485596,distr,29360.000133514404,Wed Mar 12 2025 16:10:32 GMT-0500 (Central Daylight Time),821498.3999999994,B,m,I,m,2745,3,2765.899999999441,818732.5,8000,WL,C,6.0
6,30.9229998588562,distr,29077.0001411438,Wed Mar 12 2025 16:10:32 GMT-0500 (Central Daylight Time),821781.5,B,me,I,e,266,3,3049.0,818732.5,8000,WL,C,6.0
6,31.27300000190735,distr,28726.99999809265,Wed Mar 12 2025 16:10:32 GMT-0500 (Central Daylight Time),822131.2999999998,B,mea,I,a,344,3,3398.7999999998137,818732.5,8000,WL,C,6.0
6,31.6729998588562,distr,28327.0001411438,Wed Mar 12 2025 16:10:32 GMT-0500 (Central Daylight Time),822531.1999999993,B,meat,I,t,386,3,3798.699999999255,818732.5,8000,WL,C,6.0
6,32.49000000953674,distr,27509.999990463257,Wed Mar 12 2025 16:10:32 GMT-0500 (Central Daylight Time),823347.5999999996,B,meatenter,I,enter,810,3,4615.0999999996275,818732.5,8000,WL,C,6.0
6,44.65299987792969,distr,15347.000122070312,Wed Mar 12 2025 16:10:32 GMT-0500 (Central Daylight Time),835510.5,B,c,I,c,12154,3,12162.800000000745,823347.6999999993,8000,WL,C,7.0
6,44.95299983024597,distr,15047.000169754028,Wed Mar 12 2025 16:10:32 GMT-0500 (Central Daylight Time),835810.5999999996,B,ch,I,h,278,3,12462.900000000373,823347.6999999993,8000,WL,C,7.0
6,45.3529999256134,distr,14647.000074386597,Wed Mar 12 2025 16:10:32 GMT-0500 (Central Daylight Time),836210.7999999998,B,chr,I,r,395,3,12863.100000000559,823347.6999999993,8000,WL,C,7.0
6,45.60199999809265,distr,14398.000001907349,Wed Mar 12 2025 16:10:32 GMT-0500 (Central Daylight Time),836460.5,B,chri,I,i,242,3,13112.800000000745,823347.6999999993,8000,WL,C,7.0
6,45.95199990272522,distr,14048.00009727478,Wed Mar 12 2025 16:10:32 GMT-0500 (Central Daylight Time),836810.2999999998,B,chris,I,s,337,3,13462.600000000559,823347.6999999993,8000,WL,C,7.0
6,46.36899995803833,distr,13631.00004196167,Wed Mar 12 2025 16:10:32 GMT-0500 (Central Daylight Time),837227.0,B,christ,I,t,396,3,13879.300000000745,823347.6999999993,8000,WL,C,7.0
6,46.70299983024597,distr,13297.000169754028,Wed Mar 12 2025 16:10:32 GMT-0500 (Central Daylight Time),837561.0999999996,B,christm,I,m,324,3,14213.400000000373,823347.6999999993,8000,WL,C,7.0
6,47.26799988746643,distr,12732.00011253357,Wed Mar 12 2025 16:10:32 GMT-0500 (Central Daylight Time),838126.3999999994,B,christma,I,a,548,3,14778.700000000186,823347.6999999993,8000,WL,C,7.0
6,47.70199990272522,distr,12298.00009727478,Wed Mar 12 2025 16:10:32 GMT-0500 (Central Daylight Time),838559.6999999993,B,christmas,I,s,423,3,15212.0,823347.6999999993,8000,WL,C,7.0
6,48.63499999046326,distr,11365.000009536743,Wed Mar 12 2025 16:10:32 GMT-0500 (Central Daylight Time),839492.7999999998,B,christmasenter,I,enter,926,3,16145.100000000559,823347.6999999993,8000,WL,C,7.0
6,51.884000062942505,distr,8115.999937057495,Wed Mar 12 2025 16:10:32 GMT-0500 (Central Daylight Time),842741.7999999998,B,t,I,t,3242,3,3248.7999999998137,839493.0,8000,WL,C,8.0
6,52.26699995994568,distr,7733.000040054321,Wed Mar 12 2025 16:10:32 GMT-0500 (Central Daylight Time),843124.8999999994,B,to,I,o,367,3,3631.899999999441,839493.0,8000,WL,C,8.0
6,52.450000047683716,distr,7549.999952316284,Wed Mar 12 2025 16:10:32 GMT-0500 (Central Daylight Time),843308.3999999994,B,too,I,o,169,3,3815.399999999441,839493.0,8000,WL,C,8.0
6,52.68299984931946,distr,7317.000150680542,Wed Mar 12 2025 16:10:32 GMT-0500 (Central Daylight Time),843541.5999999996,B,tool,I,l,218,3,4048.5999999996275,839493.0,8000,WL,C,8.0
6,53.282999992370605,distr,6717.0000076293945,Wed Mar 12 2025 16:10:32 GMT-0500 (Central Daylight Time),844141.3999999994,B,toolenter,I,enter,584,3,4648.399999999441,839493.0,8000,WL,C,8.0
6,60.013999938964844,distr,-13.99993896484375,Wed Mar 12 2025 16:10:32 GMT-0500 (Central Daylight Time),850872.3999999994,B,None,I,None,6726,3,6730.700000000186,844141.6999999993,8000,WL,C,9.0
7,1.815999984741211,immed,58184.00001525879,Wed Mar 12 2025 16:10:32 GMT-0500 (Central Daylight Time),866834.1999999993,A,t,I,t,1805,3,1816.0999999996275,865018.0999999996,8000,WL,C,1.0
7,2.199000120162964,immed,57800.999879837036,Wed Mar 12 2025 16:10:32 GMT-0500 (Central Daylight Time),867217.3999999994,A,to,I,o,363,3,2199.2999999998137,865018.0999999996,8000,WL,C,1.0
7,2.7660000324249268,immed,57233.99996757507,Wed Mar 12 2025 16:10:32 GMT-0500 (Central Daylight Time),867783.8999999994,A,tow,I,w,548,3,2765.7999999998137,865018.0999999996,8000,WL,C,1.0
7,3.2160000801086426,immed,56783.99991989136,Wed Mar 12 2025 16:10:32 GMT-0500 (Central Daylight Time),868234.5,A,towe,I,e,446,3,3216.4000000003725,865018.0999999996,8000,WL,C,1.0
7,3.565999984741211,immed,56434.00001525879,Wed Mar 12 2025 16:10:32 GMT-0500 (Central Daylight Time),868583.6999999993,A,tower,I,r,339,3,3565.5999999996275,865018.0999999996,8000,WL,C,1.0
7,4.715000152587891,immed,55284.99984741211,Wed Mar 12 2025 16:10:32 GMT-0500 (Central Daylight Time),869733.1999999993,A,towerenter,I,enter,1135,3,4715.0999999996275,865018.0999999996,8000,WL,C,1.0
7,5.632000207901001,immed,54367.999792099,Wed Mar 12 2025 16:10:32 GMT-0500 (Central Daylight Time),870649.6999999993,A,q,I,q,896,3,916.0999999996275,869733.5999999996,8000,WL,C,2.0
7,6.04800009727478,immed,53951.99990272522,Wed Mar 12 2025 16:10:32 GMT-0500 (Central Daylight Time),871066.5,A,qu,I,u,396,3,1332.9000000003725,869733.5999999996,8000,WL,C,2.0
7,6.448000192642212,immed,53551.99980735779,Wed Mar 12 2025 16:10:32 GMT-0500 (Central Daylight Time),871466.0,A,que,I,e,388,3,1732.4000000003725,869733.5999999996,8000,WL,C,2.0
7,6.6650002002716064,immed,53334.99979972839,Wed Mar 12 2025 16:10:32 GMT-0500 (Central Daylight Time),871682.6999999993,A,quee,I,e,196,3,1949.0999999996275,869733.5999999996,8000,WL,C,2.0
7,7.13100004196167,immed,52868.99995803833,Wed Mar 12 2025 16:10:32 GMT-0500 (Central Daylight Time),872149.5999999996,A,queen,I,n,452,3,2416.0,869733.5999999996,8000,WL,C,2.0
7,8.747000217437744,immed,51252.999782562256,Wed Mar 12 2025 16:10:32 GMT-0500 (Central Daylight Time),873765.5,A,queenenter,I,enter,1601,3,4031.9000000003725,869733.5999999996,8000,WL,C,2.0
7,10.19700002670288,immed,49802.99997329712,Wed Mar 12 2025 16:10:32 GMT-0500 (Central Daylight Time),875215.1999999993,A,h,I,h,1433,3,1449.3999999994412,873765.7999999998,8000,WL,C,3.0
7,10.642000198364258,immed,49357.99980163574,Wed Mar 12 2025 16:10:32 GMT-0500 (Central Daylight Time),875660.5,A,ho,I,o,302,3,1894.7000000001863,873765.7999999998,8000,WL,C,3.0
7,10.900000095367432,immed,49099.99990463257,Wed Mar 12 2025 16:10:32 GMT-0500 (Central Daylight Time),875918.5,A,hom,I,m,249,3,2152.7000000001863,873765.7999999998,8000,WL,C,3.0
7,11.180000066757202,immed,48819.9999332428,Wed Mar 12 2025 16:10:32 GMT-0500 (Central Daylight Time),876198.0999999996,A,home,I,e,263,3,2432.2999999998137,873765.7999999998,8000,WL,C,3.0
7,12.263000011444092,immed,47736.99998855591,Wed Mar 12 2025 16:10:32 GMT-0500 (Central Daylight Time),877280.8999999994,A,homeenter,I,enter,1064,3,3515.0999999996275,873765.7999999998,8000,WL,C,3.0
7,13.962000131607056,immed,46037.999868392944,Wed Mar 12 2025 16:10:32 GMT-0500 (Central Daylight Time),878980.5999999996,A,b,I,b,1694,3,1699.2999999998137,877281.2999999998,8000,WL,C,4.0
7,14.295000076293945,immed,45704.999923706055,Wed Mar 12 2025 16:10:32 GMT-0500 (Central Daylight Time),879313.5,A,bo,I,o,322,3,2032.2000000001863,877281.2999999998,8000,WL,C,4.0
7,14.67900013923645,immed,45320.99986076355,Wed Mar 12 2025 16:10:32 GMT-0500 (Central Daylight Time),879696.7999999998,A,boy,I,y,372,3,2415.5,877281.2999999998,8000,WL,C,4.0
7,17.061000108718872,immed,42938.99989128113,Wed Mar 12 2025 16:10:32 GMT-0500 (Central Daylight Time),882079.5999999996,A,boyenter,I,enter,2374,3,4798.299999999814,877281.2999999998,8000,WL,C,4.0
7,17.962000131607056,immed,42037.999868392944,Wed Mar 12 2025 16:10:32 GMT-0500 (Central Daylight Time),882980.5999999996,A,w,I,w,887,3,900.7000000001863,882079.8999999994,8000,WL,C,5.0
7,18.24400019645691,immed,41755.99980354309,Wed Mar 12 2025 16:10:32 GMT-0500 (Central Daylight Time),883262.5,A,wh,I,h,274,3,1182.6000000005588,882079.8999999994,8000,WL,C,5.0
7,18.66100001335144,immed,41338.99998664856,Wed Mar 12 2025 16:10:32 GMT-0500 (Central Daylight Time),883678.8999999994,A,wha,I,a,400,3,1599.0,882079.8999999994,8000,WL,C,5.0
7,19.044000148773193,immed,40955.99985122681,Wed Mar 12 2025 16:10:32 GMT-0500 (Central Daylight Time),884062.2999999998,A,whae,I,e,374,3,1982.4000000003725,882079.8999999994,8000,WL,C,5.0
7,19.361000061035156,immed,40638.999938964844,Wed Mar 12 2025 16:10:32 GMT-0500 (Central Daylight Time),884378.6999999993,A,whaet,I,t,304,3,2298.7999999998137,882079.8999999994,8000,WL,C,5.0
7,20.127000093460083,immed,39872.99990653992,Wed Mar 12 2025 16:10:32 GMT-0500 (Central Daylight Time),885145.0999999996,A,whaetenter,I,enter,755,3,3065.2000000001863,882079.8999999994,8000,WL,C,5.0
7,21.97699999809265,immed,38023.00000190735,Wed Mar 12 2025 16:10:32 GMT-0500 (Central Daylight Time),886994.7999999998,A,c,I,c,1828,3,1849.2999999998137,885145.5,8000,WL,C,6.0
7,22.4760000705719,immed,37523.9999294281,Wed Mar 12 2025 16:10:32 GMT-0500 (Central Daylight Time),887494.5,A,co,I,o,490,3,2349.0,885145.5,8000,WL,C,6.0
7,22.926000118255615,immed,37073.999881744385,Wed Mar 12 2025 16:10:32 GMT-0500 (Central Daylight Time),887944.2999999998,A,cor,I,r,432,3,2798.7999999998137,885145.5,8000,WL,C,6.0
7,23.292999982833862,immed,36707.00001716614,Wed Mar 12 2025 16:10:32 GMT-0500 (Central Daylight Time),888310.7999999998,A,corn,I,n,350,3,3165.2999999998137,885145.5,8000,WL,C,6.0
7,24.342000007629395,immed,35657.999992370605,Wed Mar 12 2025 16:10:32 GMT-0500 (Central Daylight Time),889360.5,A,cornenter,I,enter,1032,3,4215.0,885145.5,8000,WL,C,6.0
7,26.641000032424927,immed,33358.99996757507,Wed Mar 12 2025 16:10:32 GMT-0500 (Central Daylight Time),891659.5999999996,A,d,I,d,2293,3,2298.7999999998137,889360.7999999998,8000,WL,C,7.0
7,26.975000143051147,immed,33024.99985694885,Wed Mar 12 2025 16:10:32 GMT-0500 (Central Daylight Time),891992.8999999994,A,do,I,o,322,3,2632.0999999996275,889360.7999999998,8000,WL,C,7.0
7,27.29100012779236,immed,32708.99987220764,Wed Mar 12 2025 16:10:32 GMT-0500 (Central Daylight Time),892309.5,A,doc,I,c,309,3,2948.7000000001863,889360.7999999998,8000,WL,C,7.0
7,27.741000175476074,immed,32258.999824523926,Wed Mar 12 2025 16:10:32 GMT-0500 (Central Daylight Time),892759.1999999993,A,doct,I,t,442,3,3398.399999999441,889360.7999999998,8000,WL,C,7.0
7,28.02500009536743,immed,31974.99990463257,Wed Mar 12 2025 16:10:32 GMT-0500 (Central Daylight Time),893042.8999999994,A,docto,I,o,270,3,3682.0999999996275,889360.7999999998,8000,WL,C,7.0
7,28.44099998474121,immed,31559.00001525879,Wed Mar 12 2025 16:10:32 GMT-0500 (Central Daylight Time),893459.0999999996,A,doctor,I,r,411,3,4098.299999999814,889360.7999999998,8000,WL,C,7.0
7,30.174000024795532,immed,29825.999975204468,Wed Mar 12 2025 16:10:32 GMT-0500 (Central Daylight Time),895192.0999999996,A,doctorenter,I,enter,1724,3,5831.299999999814,889360.7999999998,8000,WL,C,7.0
7,31.957000017166138,immed,28042.999982833862,Wed Mar 12 2025 16:10:32 GMT-0500 (Central Daylight Time),896974.6999999993,A,s,I,s,1766,3,1782.2999999998137,895192.3999999994,8000,WL,C,8.0
7,32.32300019264221,immed,27676.999807357788,Wed Mar 12 2025 16:10:32 GMT-0500 (Central Daylight Time),897341.5999999996,A,sh,I,h,352,3,2149.2000000001863,895192.3999999994,8000,WL,C,8.0
7,32.872000217437744,immed,27127.999782562256,Wed Mar 12 2025 16:10:32 GMT-0500 (Central Daylight Time),897891.2999999998,A,sho,I,o,529,3,2698.9000000003725,895192.3999999994,8000,WL,C,8.0
7,33.22200012207031,immed,26777.999877929688,Wed Mar 12 2025 16:10:32 GMT-0500 (Central Daylight Time),898241.0999999996,A,shor,I,r,331,3,3048.7000000001863,895192.3999999994,8000,WL,C,8.0
7,33.539000034332275,immed,26460.999965667725,Wed Mar 12 2025 16:10:32 GMT-0500 (Central Daylight Time),898557.6999999993,A,shore,I,e,300,3,3365.2999999998137,895192.3999999994,8000,WL,C,8.0
7,35.08800005912781,immed,24911.999940872192,Wed Mar 12 2025 16:10:32 GMT-0500 (Central Daylight Time),900107.0999999996,A,shoreenter,I,enter,1536,3,4914.700000000186,895192.3999999994,8000,WL,C,8.0
7,35.88800001144409,immed,24111.99998855591,Wed Mar 12 2025 16:10:32 GMT-0500 (Central Daylight Time),900907.0,A,b,I,b,786,3,799.5,900107.5,8000,WL,C,9.0
7,36.254000186920166,immed,23745.999813079834,Wed Mar 12 2025 16:10:32 GMT-0500 (Central Daylight Time),901273.5,A,bo,I,o,356,3,1166.0,900107.5,8000,WL,C,9.0
7,36.90400004386902,immed,23095.99995613098,Wed Mar 12 2025 16:10:32 GMT-0500 (Central Daylight Time),901923.1999999993,A,bod,I,d,645,3,1815.699999999255,900107.5,8000,WL,C,9.0
7,37.4210000038147,immed,22578.999996185303,Wed Mar 12 2025 16:10:32 GMT-0500 (Central Daylight Time),902439.8999999994,A,body,I,y,499,3,2332.399999999441,900107.5,8000,WL,C,9.0
7,38.55400013923645,immed,21445.99986076355,Wed Mar 12 2025 16:10:32 GMT-0500 (Central Daylight Time),903572.6999999993,A,bodyenter,I,enter,1126,3,3465.199999999255,900107.5,8000,WL,C,9.0
7,39.40300011634827,immed,20596.999883651733,Wed Mar 12 2025 16:10:32 GMT-0500 (Central Daylight Time),904422.5,A,l,I,l,841,3,849.6000000005588,903572.8999999994,8000,WL,C,10.0
7,39.72000002861023,immed,20279.99997138977,Wed Mar 12 2025 16:10:32 GMT-0500 (Central Daylight Time),904739.0,A,le,I,e,312,3,1166.1000000005588,903572.8999999994,8000,WL,C,10.0
7,40.10300016403198,immed,19896.999835968018,Wed Mar 12 2025 16:10:32 GMT-0500 (Central Daylight Time),905122.1999999993,A,let,I,t,371,3,1549.2999999998137,903572.8999999994,8000,WL,C,10.0
7,40.28600001335144,immed,19713.99998664856,Wed Mar 12 2025 16:10:32 GMT-0500 (Central Daylight Time),905305.5,A,lett,I,t,163,3,1732.6000000005588,903572.8999999994,8000,WL,C,10.0
7,40.60300016403198,immed,19396.999835968018,Wed Mar 12 2025 16:10:32 GMT-0500 (Central Daylight Time),905622.0999999996,A,lette,I,e,309,3,2049.2000000001863,903572.8999999994,8000,WL,C,10.0
7,40.93600010871887,immed,19063.999891281128,Wed Mar 12 2025 16:10:32 GMT-0500 (Central Daylight Time),905955.5,A,letter,I,r,320,3,2382.600000000559,903572.8999999994,8000,WL,C,10.0
7,43.22000002861023,immed,16779.99997138977,Wed Mar 12 2025 16:10:32 GMT-0500 (Central Daylight Time),908239.1999999993,A,letterenter,I,enter,2267,3,4666.299999999814,903572.8999999994,8000,WL,C,10.0
7,44.9520001411438,immed,15047.999858856201,Wed Mar 12 2025 16:10:32 GMT-0500 (Central Daylight Time),909971.0,A,f,I,f,1711,3,1731.5,908239.5,8000,WL,C,11.0
7,45.28500008583069,immed,14714.999914169312,Wed Mar 12 2025 16:10:32 GMT-0500 (Central Daylight Time),910303.8999999994,A,fl,I,l,322,3,2064.399999999441,908239.5,8000,WL,C,11.0
7,45.66799998283386,immed,14332.000017166138,Wed Mar 12 2025 16:10:32 GMT-0500 (Central Daylight Time),910687.1999999993,A,fla,I,a,366,3,2447.699999999255,908239.5,8000,WL,C,11.0
7,46.20100021362305,immed,13798.999786376953,Wed Mar 12 2025 16:10:32 GMT-0500 (Central Daylight Time),911220.2999999998,A,flag,I,g,519,3,2980.7999999998137,908239.5,8000,WL,C,11.0
7,46.93400001525879,immed,13065.999984741211,Wed Mar 12 2025 16:10:32 GMT-0500 (Central Daylight Time),911953.5999999996,A,flagenter,I,enter,714,3,3714.0999999996275,908239.5,8000,WL,C,11.0
7,47.61800003051758,immed,12381.999969482422,Wed Mar 12 2025 16:10:32 GMT-0500 (Central Daylight Time),912636.5999999996,A,c,I,c,669,3,682.7000000001863,911953.8999999994,8000,WL,C,12.0
7,48.01700019836426,immed,11982.999801635742,Wed Mar 12 2025 16:10:32 GMT-0500 (Central Daylight Time),913036.5999999996,A,ca,I,a,386,3,1082.7000000001863,911953.8999999994,8000,WL,C,12.0
7,48.28400015830994,immed,11715.999841690063,Wed Mar 12 2025 16:10:32 GMT-0500 (Central Daylight Time),913302.8999999994,A,cam,I,m,257,3,1349.0,911953.8999999994,8000,WL,C,12.0
7,48.80000019073486,immed,11199.999809265137,Wed Mar 12 2025 16:10:32 GMT-0500 (Central Daylight Time),913819.2999999998,A,camp,I,p,511,3,1865.4000000003725,911953.8999999994,8000,WL,C,12.0
7,49.634000062942505,immed,10365.999937057495,Wed Mar 12 2025 16:10:32 GMT-0500 (Central Daylight Time),914652.5999999996,A,campenter,I,enter,827,3,2698.7000000001863,911953.8999999994,8000,WL,C,12.0
7,50.60000014305115,immed,9399.999856948853,Wed Mar 12 2025 16:10:32 GMT-0500 (Central Daylight Time),915618.8999999994,A,h,I,h,954,3,965.8999999994412,914653.0,8000,WL,C,13.0
7,51.10000014305115,immed,8899.999856948853,Wed Mar 12 2025 16:10:32 GMT-0500 (Central Daylight Time),916119.0,A,ho,I,o,483,3,1466.0,914653.0,8000,WL,C,13.0
7,51.49900007247925,immed,8500.999927520752,Wed Mar 12 2025 16:10:32 GMT-0500 (Central Daylight Time),916518.5999999996,A,hom,I,m,383,3,1865.5999999996275,914653.0,8000,WL,C,13.0
7,51.83400011062622,immed,8165.999889373779,Wed Mar 12 2025 16:10:32 GMT-0500 (Central Daylight Time),916852.5999999996,A,home,I,e,319,3,2199.5999999996275,914653.0,8000,WL,C,13.0
7,53.64900016784668,immed,6350.99983215332,Wed Mar 12 2025 16:10:32 GMT-0500 (Central Daylight Time),918667.7999999998,A,homeenter,I,enter,1810,3,4014.7999999998137,914653.0,8000,WL,C,13.0
7,60.01400017738342,immed,-14.000177383422852,Wed Mar 12 2025 16:10:32 GMT-0500 (Central Daylight Time),925032.8999999994,A,None,I,None,6360,3,6364.700000000186,918668.1999999993,8000,WL,C,14.0
