acc_sum,block,block_c,change,condition,correct,correct_response,datetime,endtime,face,project,response,response_time,row_sel,session_number,start_end,starttime,subject_id,task,task_vers,trial
0,prac,1,,1-Back,,,Wed Feb 26 2025 11:03:34 GMT-0600 (Central Standard Time),,005_o_f_d_a.png,O,space,10927,1,1,,,7068,VNB,B,0
1,prac,1,0.0,1-Back,1,m,Wed Feb 26 2025 11:03:34 GMT-0600 (Central Standard Time),165909.90000000596,020_y_f_n_a.png,O,m,1370,2,1,2240.4000000059605,163669.5,7068,VNB,B,1
2,prac,1,0.0,1-Back,1,m,Wed Feb 26 2025 11:03:34 GMT-0600 (Central Standard Time),168125.79999998212,007_m_m_h_a.png,O,m,1310,3,1,2209.5,165916.29999998212,7068,VNB,B,2
3,prac,1,0.0,1-Back,1,m,Wed Feb 26 2025 11:03:34 GMT-0600 (Central Standard Time),170408.5,016_y_m_d_a.png,O,m,1378,4,1,2275.0,168133.5,7068,VNB,B,3
3,prac,1,0.0,1-Back,0,m,Wed Feb 26 2025 11:03:34 GMT-0600 (Central Standard Time),173007.59999999404,005_o_f_n_a.png,O,z,1699,5,1,2592.199999988079,170415.40000000596,7068,VNB,B,4
3,prac,1,1.0,1-Back,0,z,Wed Feb 26 2025 11:03:34 GMT-0600 (Central Standard Time),175906.69999998808,016_y_m_n_a.png,O,None,2004,6,1,2892.0,173014.69999998808,7068,VNB,B,5
3,prac,1,0.0,1-Back,0,m,Wed Feb 26 2025 11:03:34 GMT-0600 (Central Standard Time),177989.5,004_o_m_h_a.png,O,z,1201,7,1,2075.2000000178814,175914.29999998212,7068,VNB,B,6
4,prac,1,0.0,1-Back,1,m,Wed Feb 26 2025 11:03:34 GMT-0600 (Central Standard Time),180421.90000000596,011_m_f_d_a.png,O,m,1542,8,1,2426.0,177995.90000000596,7068,VNB,B,7
4,prac,1,1.0,1-Back,0,z,Wed Feb 26 2025 11:03:34 GMT-0600 (Central Standard Time),183021.09999999404,020_y_f_d_a.png,O,m,1722,9,1,2592.800000011921,180428.29999998212,7068,VNB,B,8
4,prac,1,0.0,1-Back,0,m,Wed Feb 26 2025 11:03:34 GMT-0600 (Central Standard Time),185936.90000000596,007_m_m_n_a.png,O,None,2012,10,1,2906.100000023842,183030.79999998212,7068,VNB,B,9
5,prac,1,0.0,1-Back,1,m,Wed Feb 26 2025 11:03:34 GMT-0600 (Central Standard Time),187902.90000000596,005_o_f_h_a.png,O,m,1065,11,1,1958.7000000178814,185944.19999998808,7068,VNB,B,10
6,prac,1,0.0,1-Back,1,m,Wed Feb 26 2025 11:03:34 GMT-0600 (Central Standard Time),189785.79999998212,016_y_m_d_a.png,O,m,980,12,1,1875.2999999821186,187910.5,7068,VNB,B,11
0,prac,2,0.0,1-Back,,,Wed Feb 26 2025 11:03:34 GMT-0600 (Central Standard Time),189785.79999998212,005_o_f_d_a.png,O,a,4948,1,1,1875.2999999821186,187910.5,7068,VNB,B,0
1,prac,2,0.0,1-Back,1,m,Wed Feb 26 2025 11:03:34 GMT-0600 (Central Standard Time),199982.79999998212,020_y_f_n_a.png,O,m,1311,2,1,2192.399999976158,197790.40000000596,7068,VNB,B,1
2,prac,2,0.0,1-Back,1,m,Wed Feb 26 2025 11:03:34 GMT-0600 (Central Standard Time),202281.90000000596,007_m_m_h_a.png,O,m,1396,3,1,2291.800000011921,199990.09999999404,7068,VNB,B,2
3,prac,2,0.0,1-Back,1,m,Wed Feb 26 2025 11:03:34 GMT-0600 (Central Standard Time),204147.69999998808,016_y_m_d_a.png,O,m,1088,4,1,1858.699999988079,202289.0,7068,VNB,B,3
4,prac,2,0.0,1-Back,1,m,Wed Feb 26 2025 11:03:34 GMT-0600 (Central Standard Time),206697.19999998808,005_o_f_n_a.png,O,m,1663,5,1,2542.699999988079,204154.5,7068,VNB,B,4
5,prac,2,1.0,1-Back,1,z,Wed Feb 26 2025 11:03:34 GMT-0600 (Central Standard Time),208813.09999999404,016_y_m_n_a.png,O,z,1217,6,1,2109.5999999940395,206703.5,7068,VNB,B,5
6,prac,2,0.0,1-Back,1,m,Wed Feb 26 2025 11:03:34 GMT-0600 (Central Standard Time),210896.0,004_o_m_h_a.png,O,m,1207,7,1,2075.4000000059605,208820.59999999404,7068,VNB,B,6
7,prac,2,0.0,1-Back,1,m,Wed Feb 26 2025 11:03:34 GMT-0600 (Central Standard Time),212762.0,011_m_f_d_a.png,O,m,969,8,1,1858.7000000178814,210903.29999998212,7068,VNB,B,7
7,prac,2,1.0,1-Back,0,z,Wed Feb 26 2025 11:03:34 GMT-0600 (Central Standard Time),215044.59999999404,020_y_f_d_a.png,O,m,1397,9,1,2276.0,212768.59999999404,7068,VNB,B,8
7,prac,2,0.0,1-Back,0,m,Wed Feb 26 2025 11:03:34 GMT-0600 (Central Standard Time),217943.59999999404,007_m_m_n_a.png,O,None,2009,10,1,2893.300000011921,215050.29999998212,7068,VNB,B,9
8,prac,2,0.0,1-Back,1,m,Wed Feb 26 2025 11:03:34 GMT-0600 (Central Standard Time),220626.19999998808,005_o_f_h_a.png,O,m,1786,11,1,2675.5999999940395,217950.59999999404,7068,VNB,B,10
9,prac,2,0.0,1-Back,1,m,Wed Feb 26 2025 11:03:34 GMT-0600 (Central Standard Time),222409.0,016_y_m_d_a.png,O,m,879,12,1,1776.5999999940395,220632.40000000596,7068,VNB,B,11
0,test,1,0.0,1-Back,,,Wed Feb 26 2025 11:03:34 GMT-0600 (Central Standard Time),222409.0,020_y_f_d_a.png,O,space,6365,1,1,1776.5999999940395,220632.40000000596,7068,VNB,B,0
1,test,1,0.0,1-Back,1,m,Wed Feb 26 2025 11:03:34 GMT-0600 (Central Standard Time),240553.29999998212,011_m_f_n_a.png,O,m,884,2,1,1911.5,238641.79999998212,7068,VNB,B,1
2,test,1,0.0,1-Back,1,m,Wed Feb 26 2025 11:03:34 GMT-0600 (Central Standard Time),242585.90000000596,004_o_m_h_a.png,O,m,1009,3,1,2029.1000000238419,240556.79999998212,7068,VNB,B,2
3,test,1,1.0,1-Back,1,z,Wed Feb 26 2025 11:03:34 GMT-0600 (Central Standard Time),244452.0,007_m_m_h_a.png,O,z,839,4,1,1862.0,242590.0,7068,VNB,B,3
4,test,1,0.0,1-Back,1,m,Wed Feb 26 2025 11:03:34 GMT-0600 (Central Standard Time),246385.79999998212,005_o_f_n_a.png,O,m,909,5,1,1929.8999999761581,244455.90000000596,7068,VNB,B,4
4,test,1,0.0,1-Back,0,m,Wed Feb 26 2025 11:03:34 GMT-0600 (Central Standard Time),248650.59999999404,016_y_m_d_a.png,O,z,1240,6,1,2260.300000011921,246390.29999998212,7068,VNB,B,5
5,test,1,1.0,1-Back,1,z,Wed Feb 26 2025 11:03:34 GMT-0600 (Central Standard Time),251582.79999998212,011_m_f_d_a.png,O,z,1903,7,1,2927.399999976158,248655.40000000596,7068,VNB,B,6
6,test,1,0.0,1-Back,1,m,Wed Feb 26 2025 11:03:34 GMT-0600 (Central Standard Time),253649.09999999404,020_y_f_h_a.png,O,m,1034,8,1,2061.5999999940395,251587.5,7068,VNB,B,7
7,test,1,0.0,1-Back,1,m,Wed Feb 26 2025 11:03:34 GMT-0600 (Central Standard Time),255581.79999998212,004_o_m_n_a.png,O,m,904,9,1,1929.2999999821186,253652.5,7068,VNB,B,8
8,test,1,0.0,1-Back,1,m,Wed Feb 26 2025 11:03:34 GMT-0600 (Central Standard Time),257714.5,016_y_m_h_a.png,O,m,1107,10,1,2128.0,255586.5,7068,VNB,B,9
9,test,1,0.0,1-Back,1,m,Wed Feb 26 2025 11:03:34 GMT-0600 (Central Standard Time),259563.79999998212,004_o_m_d_a.png,O,m,823,11,1,1844.5,257719.29999998212,7068,VNB,B,10
10,test,1,1.0,1-Back,1,z,Wed Feb 26 2025 11:03:34 GMT-0600 (Central Standard Time),262213.09999999404,005_o_f_d_a.png,O,z,1630,12,1,2644.699999988079,259568.40000000596,7068,VNB,B,11
11,test,1,0.0,1-Back,1,m,Wed Feb 26 2025 11:03:34 GMT-0600 (Central Standard Time),265045.59999999404,007_m_m_n_a.png,O,m,1813,13,1,2828.300000011921,262217.2999999821,7068,VNB,B,12
12,test,1,1.0,1-Back,1,z,Wed Feb 26 2025 11:03:34 GMT-0600 (Central Standard Time),267211.90000000596,020_y_f_n_a.png,O,z,1139,14,1,2161.7000000178814,265050.1999999881,7068,VNB,B,13
13,test,1,0.0,1-Back,1,m,Wed Feb 26 2025 11:03:34 GMT-0600 (Central Standard Time),270010.5,011_m_f_h_a.png,O,m,1767,15,1,2795.4000000059605,267215.09999999404,7068,VNB,B,14
14,test,1,0.0,1-Back,1,m,Wed Feb 26 2025 11:03:34 GMT-0600 (Central Standard Time),272210.0,007_m_m_d_a.png,O,m,1164,16,1,2195.0,270015.0,7068,VNB,B,15
14,test,1,0.0,1-Back,0,m,Wed Feb 26 2025 11:03:34 GMT-0600 (Central Standard Time),274525.90000000596,016_y_m_n_a.png,O,z,1296,17,1,2312.300000011921,272213.59999999404,7068,VNB,B,16
15,test,1,0.0,1-Back,1,m,Wed Feb 26 2025 11:03:34 GMT-0600 (Central Standard Time),276575.5,005_o_f_h_a.png,O,m,1028,18,1,2045.5999999940395,274529.90000000596,7068,VNB,B,17
0,test,2,0.0,1-Back,,,Wed Feb 26 2025 11:03:34 GMT-0600 (Central Standard Time),276575.5,016_y_m_n_a.png,O,space,4610,1,1,2045.5999999940395,274529.90000000596,7068,VNB,B,0
1,test,2,0.0,1-Back,1,m,Wed Feb 26 2025 11:03:34 GMT-0600 (Central Standard Time),285255.90000000596,020_y_f_h_a.png,O,m,903,2,1,1928.2000000178814,283327.6999999881,7068,VNB,B,1
2,test,2,1.0,1-Back,1,m,Wed Feb 26 2025 11:03:34 GMT-0600 (Central Standard Time),287155.40000000596,004_o_m_n_a.png,O,m,873,3,1,1895.2000000178814,285260.1999999881,7068,VNB,B,2
2,test,2,0.0,1-Back,0,m,Wed Feb 26 2025 11:03:34 GMT-0600 (Central Standard Time),289288.0,011_m_f_d_a.png,O,z,1110,4,1,2127.9000000059605,287160.09999999404,7068,VNB,B,3
3,test,2,0.0,1-Back,1,z,Wed Feb 26 2025 11:03:34 GMT-0600 (Central Standard Time),291670.6999999881,007_m_m_d_a.png,O,z,1353,5,1,2378.699999988079,289292.0,7068,VNB,B,4
4,test,2,0.0,1-Back,1,m,Wed Feb 26 2025 11:03:34 GMT-0600 (Central Standard Time),293653.2999999821,016_y_m_h_a.png,O,m,963,6,1,1978.199999988079,291675.09999999404,7068,VNB,B,5
5,test,2,1.0,1-Back,1,z,Wed Feb 26 2025 11:03:34 GMT-0600 (Central Standard Time),295819.59999999404,005_o_f_h_a.png,O,z,1093,7,1,2161.5999999940395,293658.0,7068,VNB,B,6
6,test,2,0.0,1-Back,1,m,Wed Feb 26 2025 11:03:34 GMT-0600 (Central Standard Time),297652.09999999404,011_m_f_n_a.png,O,m,814,8,1,1828.699999988079,295823.40000000596,7068,VNB,B,7
7,test,2,0.0,1-Back,1,m,Wed Feb 26 2025 11:03:34 GMT-0600 (Central Standard Time),300218.1999999881,020_y_f_d_a.png,O,m,1542,9,1,2561.699999988079,297656.5,7068,VNB,B,8
7,test,2,0.0,1-Back,0,m,Wed Feb 26 2025 11:03:34 GMT-0600 (Central Standard Time),302450.6999999881,007_m_m_n_a.png,O,z,1215,10,1,2228.2999999821186,300222.40000000596,7068,VNB,B,9
8,test,2,1.0,1-Back,1,m,Wed Feb 26 2025 11:03:34 GMT-0600 (Central Standard Time),305449.5,011_m_f_h_a.png,O,m,1966,11,1,2994.7000000178814,302454.7999999821,7068,VNB,B,10
9,test,2,0.0,1-Back,1,z,Wed Feb 26 2025 11:03:34 GMT-0600 (Central Standard Time),307532.40000000596,004_o_m_h_a.png,O,z,1065,12,1,2078.4000000059605,305454.0,7068,VNB,B,11
10,test,2,0.0,1-Back,1,m,Wed Feb 26 2025 11:03:34 GMT-0600 (Central Standard Time),309698.2999999821,016_y_m_d_a.png,O,m,1133,13,1,2161.5,307536.7999999821,7068,VNB,B,12
11,test,2,0.0,1-Back,1,m,Wed Feb 26 2025 11:03:34 GMT-0600 (Central Standard Time),312447.5,005_o_f_n_a.png,O,m,1728,14,1,2744.800000011921,309702.6999999881,7068,VNB,B,13
12,test,2,0.0,1-Back,1,z,Wed Feb 26 2025 11:03:34 GMT-0600 (Central Standard Time),314380.2999999821,020_y_f_n_a.png,O,z,914,15,1,1928.5,312451.7999999821,7068,VNB,B,14
13,test,2,1.0,1-Back,1,m,Wed Feb 26 2025 11:03:34 GMT-0600 (Central Standard Time),316596.2999999821,007_m_m_h_a.png,O,m,1189,16,1,2211.899999976158,314384.40000000596,7068,VNB,B,15
14,test,2,0.0,1-Back,1,m,Wed Feb 26 2025 11:03:34 GMT-0600 (Central Standard Time),318662.09999999404,005_o_f_d_a.png,O,m,1046,17,1,2062.4000000059605,316599.6999999881,7068,VNB,B,16
15,test,2,1.0,1-Back,1,z,Wed Feb 26 2025 11:03:34 GMT-0600 (Central Standard Time),320811.1999999881,004_o_m_d_a.png,O,z,1132,18,1,2145.0,318666.1999999881,7068,VNB,B,17
0,test,3,1.0,1-Back,,,Wed Feb 26 2025 11:03:34 GMT-0600 (Central Standard Time),320811.1999999881,005_o_f_h_a.png,O,space,3502,1,1,2145.0,318666.1999999881,7068,VNB,B,0
1,test,3,0.0,1-Back,1,m,Wed Feb 26 2025 11:03:34 GMT-0600 (Central Standard Time),328559.09999999404,011_m_f_d_a.png,O,m,1086,2,1,2111.699999988079,326447.40000000596,7068,VNB,B,1
1,test,3,1.0,1-Back,0,m,Wed Feb 26 2025 11:03:34 GMT-0600 (Central Standard Time),331141.5,007_m_m_n_a.png,O,z,1555,3,1,2577.5999999940395,328563.90000000596,7068,VNB,B,2
2,test,3,0.0,1-Back,1,z,Wed Feb 26 2025 11:03:34 GMT-0600 (Central Standard Time),333390.90000000596,005_o_f_n_a.png,O,z,1220,4,1,2244.5,331146.40000000596,7068,VNB,B,3
3,test,3,1.0,1-Back,1,m,Wed Feb 26 2025 11:03:34 GMT-0600 (Central Standard Time),335856.6999999881,004_o_m_d_a.png,O,m,1433,5,1,2461.4000000059605,333395.2999999821,7068,VNB,B,4
4,test,3,0.0,1-Back,1,m,Wed Feb 26 2025 11:03:34 GMT-0600 (Central Standard Time),338255.90000000596,020_y_f_h_a.png,O,m,1369,6,1,2394.100000023842,335861.7999999821,7068,VNB,B,5
5,test,3,0.0,1-Back,1,z,Wed Feb 26 2025 11:03:34 GMT-0600 (Central Standard Time),340038.59999999404,016_y_m_h_a.png,O,z,754,7,1,1776.4000000059605,338262.1999999881,7068,VNB,B,6
6,test,3,0.0,1-Back,1,m,Wed Feb 26 2025 11:03:34 GMT-0600 (Central Standard Time),342121.5,011_m_f_n_a.png,O,m,1051,8,1,2078.7000000178814,340042.7999999821,7068,VNB,B,7
7,test,3,0.0,1-Back,1,m,Wed Feb 26 2025 11:03:34 GMT-0600 (Central Standard Time),344420.6999999881,020_y_f_d_a.png,O,m,1273,9,1,2294.7999999821186,342125.90000000596,7068,VNB,B,8
7,test,3,1.0,1-Back,0,m,Wed Feb 26 2025 11:03:34 GMT-0600 (Central Standard Time),347453.2999999821,004_o_m_n_a.png,O,None,2015,10,1,3028.0999999940395,344425.1999999881,7068,VNB,B,9
7,test,3,0.0,1-Back,0,m,Wed Feb 26 2025 11:03:34 GMT-0600 (Central Standard Time),350235.5,007_m_m_h_a.png,O,z,1764,11,1,2778.5999999940395,347456.90000000596,7068,VNB,B,10
8,test,3,0.0,1-Back,1,z,Wed Feb 26 2025 11:03:34 GMT-0600 (Central Standard Time),352385.0,011_m_f_h_a.png,O,z,1118,12,1,2145.2000000178814,350239.7999999821,7068,VNB,B,11
9,test,3,1.0,1-Back,1,m,Wed Feb 26 2025 11:03:34 GMT-0600 (Central Standard Time),354334.5,005_o_f_d_a.png,O,m,920,13,1,1945.4000000059605,352389.09999999404,7068,VNB,B,12
10,test,3,0.0,1-Back,1,z,Wed Feb 26 2025 11:03:34 GMT-0600 (Central Standard Time),356416.90000000596,007_m_m_d_a.png,O,z,1052,14,1,2078.2000000178814,354338.6999999881,7068,VNB,B,13
11,test,3,0.0,1-Back,1,m,Wed Feb 26 2025 11:03:34 GMT-0600 (Central Standard Time),358883.0,016_y_m_n_a.png,O,m,1440,15,1,2461.9000000059605,356421.09999999404,7068,VNB,B,14
12,test,3,1.0,1-Back,1,m,Wed Feb 26 2025 11:03:34 GMT-0600 (Central Standard Time),361065.5,004_o_m_h_a.png,O,m,1158,16,1,2178.5,358887.0,7068,VNB,B,15
13,test,3,0.0,1-Back,1,m,Wed Feb 26 2025 11:03:34 GMT-0600 (Central Standard Time),363314.7999999821,016_y_m_d_a.png,O,m,1225,17,1,2245.5,361069.2999999821,7068,VNB,B,16
13,test,3,1.0,1-Back,0,m,Wed Feb 26 2025 11:03:34 GMT-0600 (Central Standard Time),365489.90000000596,020_y_f_n_a.png,O,z,1158,18,1,2171.5,363318.40000000596,7068,VNB,B,17
0,test,4,1.0,1-Back,,,Wed Feb 26 2025 11:03:34 GMT-0600 (Central Standard Time),365489.90000000596,007_m_m_d_a.png,O,space,4039,1,1,2171.5,363318.40000000596,7068,VNB,B,0
1,test,4,0.0,1-Back,1,z,Wed Feb 26 2025 11:03:34 GMT-0600 (Central Standard Time),373711.7999999821,004_o_m_d_a.png,O,z,1128,2,1,2143.7999999821186,371568.0,7068,VNB,B,1
2,test,4,0.0,1-Back,1,m,Wed Feb 26 2025 11:03:34 GMT-0600 (Central Standard Time),375711.09999999404,016_y_m_h_a.png,O,m,971,3,1,1995.300000011921,373715.7999999821,7068,VNB,B,2
3,test,4,0.0,1-Back,1,m,Wed Feb 26 2025 11:03:34 GMT-0600 (Central Standard Time),377926.90000000596,011_m_f_n_a.png,O,m,1195,4,1,2212.2000000178814,375714.6999999881,7068,VNB,B,3
3,test,4,1.0,1-Back,0,m,Wed Feb 26 2025 11:03:34 GMT-0600 (Central Standard Time),380026.5,005_o_f_h_a.png,O,z,1074,5,1,2095.7000000178814,377930.7999999821,7068,VNB,B,4
4,test,4,0.0,1-Back,1,m,Wed Feb 26 2025 11:03:34 GMT-0600 (Central Standard Time),382259.09999999404,007_m_m_n_a.png,O,m,1216,6,1,2228.5999999940395,380030.5,7068,VNB,B,5
5,test,4,0.0,1-Back,1,m,Wed Feb 26 2025 11:03:34 GMT-0600 (Central Standard Time),384924.6999999881,016_y_m_d_a.png,O,m,1646,7,1,2662.699999988079,382262.0,7068,VNB,B,6
6,test,4,1.0,1-Back,1,z,Wed Feb 26 2025 11:03:34 GMT-0600 (Central Standard Time),387090.7999999821,020_y_f_d_a.png,O,z,1133,8,1,2161.699999988079,384929.09999999404,7068,VNB,B,7
7,test,4,0.0,1-Back,1,m,Wed Feb 26 2025 11:03:34 GMT-0600 (Central Standard Time),389173.59999999404,011_m_f_h_a.png,O,m,1063,9,1,2078.800000011921,387094.7999999821,7068,VNB,B,8
8,test,4,0.0,1-Back,1,z,Wed Feb 26 2025 11:03:34 GMT-0600 (Central Standard Time),390856.40000000596,004_o_m_h_a.png,O,z,652,10,1,1678.4000000059605,389178.0,7068,VNB,B,9
9,test,4,1.0,1-Back,1,m,Wed Feb 26 2025 11:03:34 GMT-0600 (Central Standard Time),393022.2999999821,005_o_f_n_a.png,O,m,1146,11,1,2162.0,390860.2999999821,7068,VNB,B,10
9,test,4,0.0,1-Back,0,m,Wed Feb 26 2025 11:03:34 GMT-0600 (Central Standard Time),395171.59999999404,011_m_f_d_a.png,O,z,1124,12,1,2145.199999988079,393026.40000000596,7068,VNB,B,11
9,test,4,0.0,1-Back,0,m,Wed Feb 26 2025 11:03:34 GMT-0600 (Central Standard Time),397337.5,020_y_f_n_a.png,O,z,1143,13,1,2161.800000011921,395175.6999999881,7068,VNB,B,12
10,test,4,0.0,1-Back,1,m,Wed Feb 26 2025 11:03:34 GMT-0600 (Central Standard Time),399803.59999999404,005_o_f_d_a.png,O,m,1441,14,1,2462.5999999940395,397341.0,7068,VNB,B,13
11,test,4,0.0,1-Back,1,m,Wed Feb 26 2025 11:03:34 GMT-0600 (Central Standard Time),401703.0,020_y_f_h_a.png,O,m,870,15,1,1895.9000000059605,399807.09999999404,7068,VNB,B,14
12,test,4,1.0,1-Back,1,z,Wed Feb 26 2025 11:03:34 GMT-0600 (Central Standard Time),403402.2999999821,007_m_m_h_a.png,O,z,675,16,1,1696.199999988079,401706.09999999404,7068,VNB,B,15
13,test,4,0.0,1-Back,1,m,Wed Feb 26 2025 11:03:34 GMT-0600 (Central Standard Time),405518.1999999881,004_o_m_n_a.png,O,m,1096,17,1,2111.699999988079,403406.5,7068,VNB,B,16
14,test,4,1.0,1-Back,1,z,Wed Feb 26 2025 11:03:34 GMT-0600 (Central Standard Time),407467.59999999404,016_y_m_n_a.png,O,z,931,18,1,1945.9000000059605,405521.6999999881,7068,VNB,B,17
0,test,5,1.0,1-Back,,,Wed Feb 26 2025 11:03:34 GMT-0600 (Central Standard Time),407467.59999999404,004_o_m_n_a.png,O,space,4711,1,1,1945.9000000059605,405521.6999999881,7068,VNB,B,0
1,test,5,1.0,1-Back,1,m,Wed Feb 26 2025 11:03:34 GMT-0600 (Central Standard Time),416281.6999999881,005_o_f_h_a.png,O,m,1050,2,1,2078.5,414203.1999999881,7068,VNB,B,1
2,test,5,0.0,1-Back,1,m,Wed Feb 26 2025 11:03:34 GMT-0600 (Central Standard Time),418147.59999999404,016_y_m_d_a.png,O,m,848,3,1,1862.199999988079,416285.40000000596,7068,VNB,B,2
3,test,5,0.0,1-Back,1,z,Wed Feb 26 2025 11:03:34 GMT-0600 (Central Standard Time),420030.40000000596,004_o_m_d_a.png,O,z,861,4,1,1879.0,418151.40000000596,7068,VNB,B,3
4,test,5,0.0,1-Back,1,m,Wed Feb 26 2025 11:03:34 GMT-0600 (Central Standard Time),421996.59999999404,011_m_f_h_a.png,O,m,948,5,1,1961.5999999940395,420035.0,7068,VNB,B,4
5,test,5,0.0,1-Back,1,m,Wed Feb 26 2025 11:03:34 GMT-0600 (Central Standard Time),423829.40000000596,020_y_f_n_a.png,O,m,805,6,1,1829.7000000178814,421999.6999999881,7068,VNB,B,5
6,test,5,1.0,1-Back,1,z,Wed Feb 26 2025 11:03:34 GMT-0600 (Central Standard Time),425762.09999999404,005_o_f_n_a.png,O,z,900,7,1,1929.0,423833.09999999404,7068,VNB,B,6
7,test,5,0.0,1-Back,1,m,Wed Feb 26 2025 11:03:34 GMT-0600 (Central Standard Time),428427.6999999881,011_m_f_d_a.png,O,m,1648,8,1,2661.5,425766.1999999881,7068,VNB,B,7
8,test,5,0.0,1-Back,1,m,Wed Feb 26 2025 11:03:34 GMT-0600 (Central Standard Time),430610.59999999404,016_y_m_h_a.png,O,m,1150,9,1,2179.0999999940395,428431.5,7068,VNB,B,8
9,test,5,0.0,1-Back,1,m,Wed Feb 26 2025 11:03:34 GMT-0600 (Central Standard Time),432560.0,020_y_f_d_a.png,O,m,927,10,1,1945.4000000059605,430614.59999999404,7068,VNB,B,9
10,test,5,0.0,1-Back,1,m,Wed Feb 26 2025 11:03:34 GMT-0600 (Central Standard Time),435459.0,007_m_m_n_a.png,O,m,1882,11,1,2894.7000000178814,432564.2999999821,7068,VNB,B,10
11,test,5,1.0,1-Back,1,z,Wed Feb 26 2025 11:03:34 GMT-0600 (Central Standard Time),437291.59999999404,011_m_f_n_a.png,O,z,807,12,1,1828.699999988079,435462.90000000596,7068,VNB,B,11
12,test,5,0.0,1-Back,1,m,Wed Feb 26 2025 11:03:34 GMT-0600 (Central Standard Time),439507.59999999404,004_o_m_h_a.png,O,m,1198,13,1,2211.800000011921,437295.7999999821,7068,VNB,B,12
13,test,5,0.0,1-Back,1,z,Wed Feb 26 2025 11:03:34 GMT-0600 (Central Standard Time),441157.2999999821,007_m_m_h_a.png,O,z,622,14,1,1645.8999999761581,439511.40000000596,7068,VNB,B,13
14,test,5,1.0,1-Back,1,m,Wed Feb 26 2025 11:03:34 GMT-0600 (Central Standard Time),443306.59999999404,005_o_f_d_a.png,O,m,1125,15,1,2145.5,441161.09999999404,7068,VNB,B,14
15,test,5,0.0,1-Back,1,m,Wed Feb 26 2025 11:03:34 GMT-0600 (Central Standard Time),445439.2999999821,016_y_m_n_a.png,O,m,1112,16,1,2128.5,443310.7999999821,7068,VNB,B,15
16,test,5,0.0,1-Back,1,m,Wed Feb 26 2025 11:03:34 GMT-0600 (Central Standard Time),447405.09999999404,020_y_f_h_a.png,O,m,947,17,1,1962.300000011921,445442.7999999821,7068,VNB,B,16
17,test,5,0.0,1-Back,1,m,Wed Feb 26 2025 11:03:34 GMT-0600 (Central Standard Time),449354.7999999821,007_m_m_d_a.png,O,m,917,18,1,1945.8999999761581,447408.90000000596,7068,VNB,B,17
0,prac,1,0.0,2-Back,,,Wed Feb 26 2025 11:03:34 GMT-0600 (Central Standard Time),449354.7999999821,011_m_f_n_a.png,O,space,11935,1,1,1945.8999999761581,447408.90000000596,7068,VNB,B,0
0,prac,1,0.0,2-Back,,,Wed Feb 26 2025 11:03:34 GMT-0600 (Central Standard Time),449354.7999999821,005_o_f_h_a.png,O,space,11935,2,1,1945.8999999761581,447408.90000000596,7068,VNB,B,0
0,prac,1,0.0,2-Back,0,m,Wed Feb 26 2025 11:03:34 GMT-0600 (Central Standard Time),609671.2999999821,004_o_m_d_a.png,O,z,1953,3,1,2825.7999999821186,606845.5,7068,VNB,B,1
1,prac,1,1.0,2-Back,1,z,Wed Feb 26 2025 11:03:34 GMT-0600 (Central Standard Time),611887.2999999821,007_m_m_h_a.png,O,z,1321,4,1,2210.0,609677.2999999821,7068,VNB,B,2
1,prac,1,0.0,2-Back,0,m,Wed Feb 26 2025 11:03:34 GMT-0600 (Central Standard Time),614770.0,020_y_f_n_a.png,O,None,2010,5,1,2876.0,611894.0,7068,VNB,B,3
2,prac,1,1.0,2-Back,1,z,Wed Feb 26 2025 11:03:34 GMT-0600 (Central Standard Time),617119.1999999881,004_o_m_h_a.png,O,z,1472,6,1,2344.199999988079,614775.0,7068,VNB,B,4
3,prac,1,1.0,2-Back,1,z,Wed Feb 26 2025 11:03:34 GMT-0600 (Central Standard Time),619635.0,016_y_m_n_a.png,O,z,1619,7,1,2509.5999999940395,617125.400000006,7068,VNB,B,5
4,prac,1,0.0,2-Back,1,m,Wed Feb 26 2025 11:03:34 GMT-0600 (Central Standard Time),622300.7999999821,011_m_f_d_a.png,O,m,1780,8,1,2660.199999988079,619640.599999994,7068,VNB,B,6
4,prac,1,0.0,2-Back,0,m,Wed Feb 26 2025 11:03:34 GMT-0600 (Central Standard Time),625183.2999999821,005_o_f_d_a.png,O,None,2002,9,1,2875.5,622307.7999999821,7068,VNB,B,7
4,prac,1,0.0,2-Back,0,m,Wed Feb 26 2025 11:03:34 GMT-0600 (Central Standard Time),627182.6999999881,007_m_m_h_a.png,O,z,1213,10,1,1993.7999999821186,625188.900000006,7068,VNB,B,8
4,prac,1,1.0,2-Back,0,z,Wed Feb 26 2025 11:03:34 GMT-0600 (Central Standard Time),630064.900000006,020_y_f_d_a.png,O,None,2010,11,1,2876.4000000059605,627188.5,7068,VNB,B,9
4,prac,1,0.0,2-Back,0,m,Wed Feb 26 2025 11:03:34 GMT-0600 (Central Standard Time),632414.1999999881,004_o_m_n_a.png,O,z,1477,12,1,2344.199999988079,630070.0,7068,VNB,B,10
0,prac,2,0.0,2-Back,,,Wed Feb 26 2025 11:03:34 GMT-0600 (Central Standard Time),632414.1999999881,011_m_f_n_a.png,O,a,6033,1,1,2344.199999988079,630070.0,7068,VNB,B,0
0,prac,2,0.0,2-Back,,,Wed Feb 26 2025 11:03:34 GMT-0600 (Central Standard Time),632414.1999999881,005_o_f_h_a.png,O,a,6033,2,1,2344.199999988079,630070.0,7068,VNB,B,0
1,prac,2,0.0,2-Back,1,m,Wed Feb 26 2025 11:03:34 GMT-0600 (Central Standard Time),646293.400000006,004_o_m_d_a.png,O,m,1687,3,1,2559.2000000178814,643734.1999999881,7068,VNB,B,1
2,prac,2,1.0,2-Back,1,z,Wed Feb 26 2025 11:03:34 GMT-0600 (Central Standard Time),647940.0,007_m_m_h_a.png,O,z,872,4,1,1641.4000000059605,646298.599999994,7068,VNB,B,2
2,prac,2,0.0,2-Back,0,m,Wed Feb 26 2025 11:03:34 GMT-0600 (Central Standard Time),650825.2999999821,020_y_f_n_a.png,O,None,2015,5,1,2879.0999999940395,647946.1999999881,7068,VNB,B,3
3,prac,2,1.0,2-Back,1,z,Wed Feb 26 2025 11:03:34 GMT-0600 (Central Standard Time),653041.1999999881,004_o_m_h_a.png,O,z,1341,6,1,2209.5999999940395,650831.599999994,7068,VNB,B,4
4,prac,2,1.0,2-Back,1,z,Wed Feb 26 2025 11:03:34 GMT-0600 (Central Standard Time),655190.599999994,016_y_m_n_a.png,O,z,1245,7,1,2144.199999988079,653046.400000006,7068,VNB,B,5
5,prac,2,0.0,2-Back,1,m,Wed Feb 26 2025 11:03:34 GMT-0600 (Central Standard Time),657906.0,011_m_f_d_a.png,O,m,1830,8,1,2709.4000000059605,655196.599999994,7068,VNB,B,6
5,prac,2,0.0,2-Back,0,m,Wed Feb 26 2025 11:03:34 GMT-0600 (Central Standard Time),660005.6999999881,005_o_f_d_a.png,O,z,1203,9,1,2094.0,657911.6999999881,7068,VNB,B,7
5,prac,2,0.0,2-Back,0,m,Wed Feb 26 2025 11:03:34 GMT-0600 (Central Standard Time),662255.1999999881,007_m_m_h_a.png,O,z,1463,10,1,2243.5999999940395,660011.599999994,7068,VNB,B,8
6,prac,2,1.0,2-Back,1,z,Wed Feb 26 2025 11:03:34 GMT-0600 (Central Standard Time),664770.900000006,020_y_f_d_a.png,O,z,1630,11,1,2511.100000023842,662259.7999999821,7068,VNB,B,9
6,prac,2,0.0,2-Back,0,m,Wed Feb 26 2025 11:03:34 GMT-0600 (Central Standard Time),667636.599999994,004_o_m_n_a.png,O,None,2004,12,1,2860.4000000059605,664776.1999999881,7068,VNB,B,10
0,test,1,0.0,2-Back,,,Wed Feb 26 2025 11:03:34 GMT-0600 (Central Standard Time),667636.599999994,016_y_m_h_a.png,O,space,9145,1,1,2860.4000000059605,664776.1999999881,7068,VNB,B,0
0,test,1,0.0,2-Back,,,Wed Feb 26 2025 11:03:34 GMT-0600 (Central Standard Time),667636.599999994,005_o_f_n_a.png,O,space,9145,2,1,2860.4000000059605,664776.1999999881,7068,VNB,B,0
1,test,1,0.0,2-Back,1,z,Wed Feb 26 2025 11:03:34 GMT-0600 (Central Standard Time),694328.2999999821,004_o_m_h_a.png,O,z,1061,3,1,2078.699999988079,692249.599999994,7068,VNB,B,1
1,test,1,0.0,2-Back,0,m,Wed Feb 26 2025 11:03:34 GMT-0600 (Central Standard Time),696594.1999999881,011_m_f_d_a.png,O,z,1234,4,1,2262.4000000059605,694331.7999999821,7068,VNB,B,2
2,test,1,1.0,2-Back,1,m,Wed Feb 26 2025 11:03:34 GMT-0600 (Central Standard Time),699143.599999994,016_y_m_n_a.png,O,m,1520,5,1,2545.0999999940395,696598.5,7068,VNB,B,3
2,test,1,0.0,2-Back,0,z,Wed Feb 26 2025 11:03:34 GMT-0600 (Central Standard Time),701909.2999999821,020_y_f_d_a.png,O,m,1738,6,1,2761.699999988079,699147.599999994,7068,VNB,B,4
3,test,1,0.0,2-Back,1,m,Wed Feb 26 2025 11:03:34 GMT-0600 (Central Standard Time),704608.400000006,007_m_m_h_a.png,O,m,1669,7,1,2695.300000011921,701913.099999994,7068,VNB,B,5
4,test,1,1.0,2-Back,1,m,Wed Feb 26 2025 11:03:34 GMT-0600 (Central Standard Time),706807.7999999821,020_y_f_n_a.png,O,m,1170,8,1,2195.7999999821186,704612.0,7068,VNB,B,6
5,test,1,0.0,2-Back,1,z,Wed Feb 26 2025 11:03:34 GMT-0600 (Central Standard Time),709356.7999999821,005_o_f_h_a.png,O,z,1523,9,1,2544.899999976158,706811.900000006,7068,VNB,B,7
5,test,1,0.0,2-Back,0,m,Wed Feb 26 2025 11:03:34 GMT-0600 (Central Standard Time),712389.2999999821,004_o_m_d_a.png,O,None,2015,10,1,3028.5999999940395,709360.6999999881,7068,VNB,B,8
6,test,1,1.0,2-Back,1,m,Wed Feb 26 2025 11:03:34 GMT-0600 (Central Standard Time),714955.099999994,007_m_m_d_a.png,O,m,1541,11,1,2561.9000000059605,712393.1999999881,7068,VNB,B,9
7,test,1,0.0,2-Back,1,m,Wed Feb 26 2025 11:03:34 GMT-0600 (Central Standard Time),717221.1999999881,011_m_f_n_a.png,O,m,1239,12,1,2262.0999999940395,714959.099999994,7068,VNB,B,10
7,test,1,0.0,2-Back,0,m,Wed Feb 26 2025 11:03:34 GMT-0600 (Central Standard Time),719720.400000006,020_y_f_h_a.png,O,z,1477,13,1,2495.2000000178814,717225.1999999881,7068,VNB,B,11
8,test,1,0.0,2-Back,1,z,Wed Feb 26 2025 11:03:34 GMT-0600 (Central Standard Time),722736.1999999881,007_m_m_n_a.png,O,z,1986,14,1,3011.699999988079,719724.5,7068,VNB,B,12
8,test,1,0.0,2-Back,0,m,Wed Feb 26 2025 11:03:34 GMT-0600 (Central Standard Time),725435.1999999881,016_y_m_d_a.png,O,z,1674,15,1,2695.5,722739.6999999881,7068,VNB,B,13
8,test,1,1.0,2-Back,0,m,Wed Feb 26 2025 11:03:34 GMT-0600 (Central Standard Time),727767.7999999821,011_m_f_h_a.png,O,z,1311,16,1,2328.7999999821186,725439.0,7068,VNB,B,14
9,test,1,0.0,2-Back,1,z,Wed Feb 26 2025 11:03:34 GMT-0600 (Central Standard Time),730433.7999999821,005_o_f_d_a.png,O,z,1634,17,1,2662.5999999940395,727771.1999999881,7068,VNB,B,15
10,test,1,0.0,2-Back,1,m,Wed Feb 26 2025 11:03:34 GMT-0600 (Central Standard Time),732567.5,004_o_m_n_a.png,O,m,1112,18,1,2130.7000000178814,730436.7999999821,7068,VNB,B,16
0,test,2,0.0,2-Back,,,Wed Feb 26 2025 11:03:34 GMT-0600 (Central Standard Time),732567.5,007_m_m_h_a.png,O,space,5811,1,1,2130.7000000178814,730436.7999999821,7068,VNB,B,0
0,test,2,0.0,2-Back,,,Wed Feb 26 2025 11:03:34 GMT-0600 (Central Standard Time),732567.5,020_y_f_n_a.png,O,space,5811,2,1,2130.7000000178814,730436.7999999821,7068,VNB,B,0
1,test,2,1.0,2-Back,1,z,Wed Feb 26 2025 11:03:34 GMT-0600 (Central Standard Time),745645.599999994,005_o_f_h_a.png,O,z,989,3,1,2012.0,743633.599999994,7068,VNB,B,1
2,test,2,0.0,2-Back,1,m,Wed Feb 26 2025 11:03:34 GMT-0600 (Central Standard Time),748244.900000006,004_o_m_d_a.png,O,m,1573,4,1,2595.600000023842,745649.2999999821,7068,VNB,B,2
2,test,2,0.0,2-Back,0,m,Wed Feb 26 2025 11:03:34 GMT-0600 (Central Standard Time),750977.2999999821,011_m_f_d_a.png,O,z,1701,5,1,2728.5999999940395,748248.6999999881,7068,VNB,B,3
2,test,2,0.0,2-Back,0,m,Wed Feb 26 2025 11:03:34 GMT-0600 (Central Standard Time),753143.5,016_y_m_h_a.png,O,z,1137,6,1,2162.4000000059605,750981.099999994,7068,VNB,B,4
2,test,2,0.0,2-Back,0,m,Wed Feb 26 2025 11:03:34 GMT-0600 (Central Standard Time),755475.599999994,005_o_f_n_a.png,O,z,1315,7,1,2327.800000011921,753147.7999999821,7068,VNB,B,5
3,test,2,1.0,2-Back,1,z,Wed Feb 26 2025 11:03:34 GMT-0600 (Central Standard Time),757591.900000006,004_o_m_h_a.png,O,z,1094,8,1,2112.5,755479.400000006,7068,VNB,B,6
4,test,2,0.0,2-Back,1,m,Wed Feb 26 2025 11:03:34 GMT-0600 (Central Standard Time),760141.1999999881,020_y_f_d_a.png,O,m,1522,9,1,2545.2999999821186,757595.900000006,7068,VNB,B,7
4,test,2,0.0,2-Back,0,m,Wed Feb 26 2025 11:03:34 GMT-0600 (Central Standard Time),762541.2999999821,016_y_m_d_a.png,O,z,1381,10,1,2396.2999999821186,760145.0,7068,VNB,B,8
4,test,2,0.0,2-Back,0,m,Wed Feb 26 2025 11:03:34 GMT-0600 (Central Standard Time),765572.7999999821,007_m_m_n_a.png,O,None,2016,11,1,3027.5,762545.2999999821,7068,VNB,B,9
5,test,2,0.0,2-Back,1,m,Wed Feb 26 2025 11:03:34 GMT-0600 (Central Standard Time),767888.6999999881,011_m_f_h_a.png,O,m,1293,12,1,2311.9000000059605,765576.7999999821,7068,VNB,B,10
5,test,2,1.0,2-Back,0,z,Wed Feb 26 2025 11:03:34 GMT-0600 (Central Standard Time),770921.099999994,004_o_m_n_a.png,O,None,2016,13,1,3028.0999999940395,767893.0,7068,VNB,B,11
6,test,2,0.0,2-Back,1,m,Wed Feb 26 2025 11:03:34 GMT-0600 (Central Standard Time),772770.599999994,005_o_f_d_a.png,O,m,825,14,1,1845.5,770925.099999994,7068,VNB,B,12
7,test,2,0.0,2-Back,1,m,Wed Feb 26 2025 11:03:34 GMT-0600 (Central Standard Time),775436.0,020_y_f_h_a.png,O,m,1648,15,1,2661.800000011921,772774.1999999881,7068,VNB,B,13
8,test,2,0.0,2-Back,1,z,Wed Feb 26 2025 11:03:34 GMT-0600 (Central Standard Time),777835.5,007_m_m_d_a.png,O,z,1374,16,1,2396.5,775439.0,7068,VNB,B,14
9,test,2,0.0,2-Back,1,m,Wed Feb 26 2025 11:03:34 GMT-0600 (Central Standard Time),780168.400000006,016_y_m_n_a.png,O,m,1310,17,1,2329.0,777839.400000006,7068,VNB,B,15
9,test,2,1.0,2-Back,0,m,Wed Feb 26 2025 11:03:34 GMT-0600 (Central Standard Time),782800.5,011_m_f_n_a.png,O,z,1610,18,1,2628.5999999940395,780171.900000006,7068,VNB,B,16
0,test,3,1.0,2-Back,,,Wed Feb 26 2025 11:03:34 GMT-0600 (Central Standard Time),782800.5,004_o_m_n_a.png,O,space,6634,1,1,2628.5999999940395,780171.900000006,7068,VNB,B,0
0,test,3,1.0,2-Back,,,Wed Feb 26 2025 11:03:34 GMT-0600 (Central Standard Time),782800.5,005_o_f_d_a.png,O,space,6634,2,1,2628.5999999940395,780171.900000006,7068,VNB,B,0
0,test,3,0.0,2-Back,0,m,Wed Feb 26 2025 11:03:34 GMT-0600 (Central Standard Time),797746.400000006,020_y_f_h_a.png,O,None,2015,3,1,3028.800000011921,794717.599999994,7068,VNB,B,1
0,test,3,0.0,2-Back,0,z,Wed Feb 26 2025 11:03:34 GMT-0600 (Central Standard Time),800778.1999999881,011_m_f_d_a.png,O,None,2015,4,1,3028.0,797750.1999999881,7068,VNB,B,2
0,test,3,1.0,2-Back,0,m,Wed Feb 26 2025 11:03:34 GMT-0600 (Central Standard Time),803810.5,016_y_m_n_a.png,O,None,2016,5,1,3028.4000000059605,800782.099999994,7068,VNB,B,3
0,test,3,0.0,2-Back,0,m,Wed Feb 26 2025 11:03:34 GMT-0600 (Central Standard Time),806843.1999999881,004_o_m_h_a.png,O,None,2015,6,1,3029.699999988079,803813.5,7068,VNB,B,4
1,test,3,0.0,2-Back,1,z,Wed Feb 26 2025 11:03:34 GMT-0600 (Central Standard Time),809209.0,020_y_f_n_a.png,O,z,1343,7,1,2362.2000000178814,806846.7999999821,7068,VNB,B,5
1,test,3,1.0,2-Back,0,m,Wed Feb 26 2025 11:03:34 GMT-0600 (Central Standard Time),811508.1999999881,007_m_m_d_a.png,O,z,1281,8,1,2295.199999988079,809213.0,7068,VNB,B,6
1,test,3,0.0,2-Back,0,m,Wed Feb 26 2025 11:03:34 GMT-0600 (Central Standard Time),814540.6999999881,016_y_m_d_a.png,O,None,2015,9,1,3028.0999999940395,811512.599999994,7068,VNB,B,7
1,test,3,0.0,2-Back,0,m,Wed Feb 26 2025 11:03:34 GMT-0600 (Central Standard Time),817573.099999994,005_o_f_h_a.png,O,None,2015,10,1,3028.5999999940395,814544.5,7068,VNB,B,8
1,test,3,1.0,2-Back,0,m,Wed Feb 26 2025 11:03:34 GMT-0600 (Central Standard Time),820605.2999999821,011_m_f_n_a.png,O,None,2015,11,1,3028.399999976158,817576.900000006,7068,VNB,B,9
2,test,3,1.0,2-Back,1,z,Wed Feb 26 2025 11:03:34 GMT-0600 (Central Standard Time),822438.5,007_m_m_h_a.png,O,z,805,12,1,1828.9000000059605,820609.599999994,7068,VNB,B,10
2,test,3,0.0,2-Back,0,m,Wed Feb 26 2025 11:03:34 GMT-0600 (Central Standard Time),824987.5,020_y_f_d_a.png,O,z,1532,13,1,2545.4000000059605,822442.099999994,7068,VNB,B,11
2,test,3,0.0,2-Back,0,m,Wed Feb 26 2025 11:03:34 GMT-0600 (Central Standard Time),828019.7999999821,005_o_f_n_a.png,O,None,2016,14,1,3028.7999999821186,824991.0,7068,VNB,B,12
3,test,3,0.0,2-Back,1,z,Wed Feb 26 2025 11:03:34 GMT-0600 (Central Standard Time),830136.0,004_o_m_d_a.png,O,z,1087,15,1,2112.7000000178814,828023.2999999821,7068,VNB,B,13
3,test,3,1.0,2-Back,0,m,Wed Feb 26 2025 11:03:34 GMT-0600 (Central Standard Time),833168.1999999881,011_m_f_h_a.png,O,None,2015,16,1,3029.0999999940395,830139.099999994,7068,VNB,B,14
3,test,3,0.0,2-Back,0,m,Wed Feb 26 2025 11:03:34 GMT-0600 (Central Standard Time),836200.5,007_m_m_n_a.png,O,None,2015,17,1,3028.5,833172.0,7068,VNB,B,15
4,test,3,0.0,2-Back,1,z,Wed Feb 26 2025 11:03:34 GMT-0600 (Central Standard Time),837983.2999999821,016_y_m_h_a.png,O,z,762,18,1,1779.699999988079,836203.599999994,7068,VNB,B,16
0,test,4,0.0,2-Back,,,Wed Feb 26 2025 11:03:34 GMT-0600 (Central Standard Time),837983.2999999821,011_m_f_n_a.png,O,space,5867,1,1,1779.699999988079,836203.599999994,7068,VNB,B,0
0,test,4,0.0,2-Back,,,Wed Feb 26 2025 11:03:34 GMT-0600 (Central Standard Time),837983.2999999821,004_o_m_n_a.png,O,space,5867,2,1,1779.699999988079,836203.599999994,7068,VNB,B,0
1,test,4,1.0,2-Back,1,m,Wed Feb 26 2025 11:03:34 GMT-0600 (Central Standard Time),851412.599999994,016_y_m_h_a.png,O,m,1297,3,1,2311.800000011921,849100.7999999821,7068,VNB,B,1
2,test,4,1.0,2-Back,1,m,Wed Feb 26 2025 11:03:34 GMT-0600 (Central Standard Time),854361.5,005_o_f_d_a.png,O,m,1925,4,1,2945.9000000059605,851415.599999994,7068,VNB,B,2
3,test,4,0.0,2-Back,1,z,Wed Feb 26 2025 11:03:34 GMT-0600 (Central Standard Time),856327.7999999821,004_o_m_h_a.png,O,z,936,5,1,1962.5999999940395,854365.1999999881,7068,VNB,B,3
3,test,4,0.0,2-Back,0,m,Wed Feb 26 2025 11:03:34 GMT-0600 (Central Standard Time),858776.900000006,007_m_m_n_a.png,O,z,1418,6,1,2445.5,856331.400000006,7068,VNB,B,4
4,test,4,0.0,2-Back,1,m,Wed Feb 26 2025 11:03:34 GMT-0600 (Central Standard Time),861109.599999994,011_m_f_d_a.png,O,m,1208,7,1,2328.800000011921,858780.7999999821,7068,VNB,B,5
5,test,4,0.0,2-Back,1,z,Wed Feb 26 2025 11:03:34 GMT-0600 (Central Standard Time),863325.599999994,020_y_f_n_a.png,O,z,1197,8,1,2212.4000000059605,861113.1999999881,7068,VNB,B,6
5,test,4,1.0,2-Back,0,m,Wed Feb 26 2025 11:03:34 GMT-0600 (Central Standard Time),865291.5,005_o_f_h_a.png,O,z,949,9,1,1962.300000011921,863329.1999999881,7068,VNB,B,7
6,test,4,0.0,2-Back,1,m,Wed Feb 26 2025 11:03:34 GMT-0600 (Central Standard Time),867590.599999994,007_m_m_h_a.png,O,m,1279,10,1,2295.699999988079,865294.900000006,7068,VNB,B,8
7,test,4,0.0,2-Back,1,m,Wed Feb 26 2025 11:03:34 GMT-0600 (Central Standard Time),870506.599999994,020_y_f_d_a.png,O,m,1884,11,1,2912.300000011921,867594.2999999821,7068,VNB,B,9
7,test,4,0.0,2-Back,0,m,Wed Feb 26 2025 11:03:34 GMT-0600 (Central Standard Time),873372.2999999821,016_y_m_n_a.png,O,z,1848,12,1,2861.199999988079,870511.099999994,7068,VNB,B,10
8,test,4,0.0,2-Back,1,z,Wed Feb 26 2025 11:03:34 GMT-0600 (Central Standard Time),876289.400000006,004_o_m_d_a.png,O,z,1894,13,1,2913.5,873375.900000006,7068,VNB,B,11
8,test,4,1.0,2-Back,0,m,Wed Feb 26 2025 11:03:34 GMT-0600 (Central Standard Time),879253.900000006,011_m_f_h_a.png,O,z,1946,14,1,2960.600000023842,876293.2999999821,7068,VNB,B,12
9,test,4,1.0,2-Back,1,m,Wed Feb 26 2025 11:03:34 GMT-0600 (Central Standard Time),881203.400000006,020_y_f_h_a.png,O,m,932,15,1,1945.800000011921,879257.599999994,7068,VNB,B,13
9,test,4,0.0,2-Back,0,m,Wed Feb 26 2025 11:03:34 GMT-0600 (Central Standard Time),883611.099999994,005_o_f_n_a.png,O,z,1391,16,1,2404.5999999940395,881206.5,7068,VNB,B,14
9,test,4,0.0,2-Back,0,m,Wed Feb 26 2025 11:03:34 GMT-0600 (Central Standard Time),886601.599999994,016_y_m_d_a.png,O,z,1976,17,1,2986.699999988079,883614.900000006,7068,VNB,B,15
10,test,4,1.0,2-Back,1,m,Wed Feb 26 2025 11:03:34 GMT-0600 (Central Standard Time),888551.0,007_m_m_d_a.png,O,m,920,18,1,1945.800000011921,886605.1999999881,7068,VNB,B,16
0,test,5,1.0,2-Back,,,Wed Feb 26 2025 11:03:34 GMT-0600 (Central Standard Time),888551.0,020_y_f_d_a.png,O,space,6371,1,1,1945.800000011921,886605.1999999881,7068,VNB,B,0
0,test,5,1.0,2-Back,,,Wed Feb 26 2025 11:03:34 GMT-0600 (Central Standard Time),888551.0,005_o_f_h_a.png,O,space,6371,2,1,1945.800000011921,886605.1999999881,7068,VNB,B,0
1,test,5,1.0,2-Back,1,z,Wed Feb 26 2025 11:03:34 GMT-0600 (Central Standard Time),902546.6999999881,004_o_m_d_a.png,O,z,1358,3,1,2379.0,900167.6999999881,7068,VNB,B,1
2,test,5,1.0,2-Back,1,m,Wed Feb 26 2025 11:03:34 GMT-0600 (Central Standard Time),904862.599999994,011_m_f_n_a.png,O,m,1295,4,1,2311.9000000059605,902550.6999999881,7068,VNB,B,2
3,test,5,0.0,2-Back,1,m,Wed Feb 26 2025 11:03:34 GMT-0600 (Central Standard Time),907052.7999999821,007_m_m_h_a.png,O,m,1174,5,1,2186.0999999940395,904866.6999999881,7068,VNB,B,3
3,test,5,0.0,2-Back,0,z,Wed Feb 26 2025 11:03:34 GMT-0600 (Central Standard Time),909211.400000006,020_y_f_n_a.png,O,m,1149,6,1,2155.300000011921,907056.099999994,7068,VNB,B,4
3,test,5,0.0,2-Back,0,m,Wed Feb 26 2025 11:03:34 GMT-0600 (Central Standard Time),912243.7999999821,005_o_f_d_a.png,O,None,2015,7,1,3028.699999988079,909215.099999994,7068,VNB,B,5
3,test,5,0.0,2-Back,0,m,Wed Feb 26 2025 11:03:34 GMT-0600 (Central Standard Time),914243.1999999881,004_o_m_h_a.png,O,z,966,8,1,1995.199999988079,912248.0,7068,VNB,B,6
4,test,5,1.0,2-Back,1,z,Wed Feb 26 2025 11:03:34 GMT-0600 (Central Standard Time),916342.400000006,011_m_f_d_a.png,O,z,1071,9,1,2095.4000000059605,914247.0,7068,VNB,B,7
4,test,5,0.0,2-Back,0,m,Wed Feb 26 2025 11:03:34 GMT-0600 (Central Standard Time),918741.599999994,016_y_m_n_a.png,O,z,1372,10,1,2395.5,916346.099999994,7068,VNB,B,8
5,test,5,0.0,2-Back,1,m,Wed Feb 26 2025 11:03:34 GMT-0600 (Central Standard Time),921190.599999994,007_m_m_n_a.png,O,m,1428,11,1,2445.199999988079,918745.400000006,7068,VNB,B,9
5,test,5,0.0,2-Back,0,m,Wed Feb 26 2025 11:03:34 GMT-0600 (Central Standard Time),923223.5,020_y_f_h_a.png,O,z,1011,12,1,2029.300000011921,921194.1999999881,7068,VNB,B,10
5,test,5,0.0,2-Back,0,m,Wed Feb 26 2025 11:03:34 GMT-0600 (Central Standard Time),926056.0,016_y_m_d_a.png,O,z,1803,13,1,2829.0,923227.0,7068,VNB,B,11
6,test,5,1.0,2-Back,1,z,Wed Feb 26 2025 11:03:34 GMT-0600 (Central Standard Time),928038.599999994,011_m_f_h_a.png,O,z,954,14,1,1979.199999988079,926059.400000006,7068,VNB,B,12
6,test,5,0.0,2-Back,0,m,Wed Feb 26 2025 11:03:34 GMT-0600 (Central Standard Time),930569.0,004_o_m_n_a.png,O,z,1513,15,1,2526.7000000178814,928042.2999999821,7068,VNB,B,13
7,test,5,0.0,2-Back,1,m,Wed Feb 26 2025 11:03:34 GMT-0600 (Central Standard Time),933303.5,007_m_m_d_a.png,O,m,1711,16,1,2730.800000011921,930572.6999999881,7068,VNB,B,14
8,test,5,0.0,2-Back,1,z,Wed Feb 26 2025 11:03:34 GMT-0600 (Central Standard Time),935586.1999999881,005_o_f_n_a.png,O,z,1250,17,1,2278.7999999821186,933307.400000006,7068,VNB,B,15
9,test,5,1.0,2-Back,1,m,Wed Feb 26 2025 11:03:34 GMT-0600 (Central Standard Time),937835.7999999821,016_y_m_h_a.png,O,m,1232,18,1,2245.399999976158,935590.400000006,7068,VNB,B,16
