block_c,block_dur,condition,countdown,datetime,endtime,list,multichar_response,project,response,response_time,session_number,start_end,starttime,subject_id,task,task_vers,trial
,,,,Wed Mar 26 2025 10:09:43 GMT-0500 (Central Daylight Time),,,,O,space,1276,1,,,7094,WL,B,
prac,,0,,Wed Mar 26 2025 10:09:43 GMT-0500 (Central Daylight Time),,NA,b,O,b,3153,1,,,7094,WL,B,1.0
prac,,0,,Wed Mar 26 2025 10:09:43 GMT-0500 (Central Daylight Time),,NA,bo,O,o,578,1,,,7094,WL,B,1.0
prac,,0,,Wed Mar 26 2025 10:09:43 GMT-0500 (Central Daylight Time),,NA,boo,O,o,109,1,,,7094,WL,B,1.0
prac,,0,,Wed Mar 26 2025 10:09:43 GMT-0500 (Central Daylight Time),,NA,boos,O,s,311,1,,,7094,WL,B,1.0
prac,,0,,Wed Mar 26 2025 10:09:43 GMT-0500 (Central Daylight Time),,NA,boost,O,t,162,1,,,7094,WL,B,1.0
prac,,0,,Wed Mar 26 2025 10:09:43 GMT-0500 (Central Daylight Time),,NA,boostenter,O,enter,930,1,,,7094,WL,B,1.0
1,0.9340000152587891,learn,59065.99998474121,Wed Mar 26 2025 10:09:43 GMT-0500 (Central Daylight Time),142907.10000002384,A,s,O,s,923,1,933.6000000238419,141973.5,7094,WL,B,1.0
1,1.4809999465942383,learn,58519.00005340576,Wed Mar 26 2025 10:09:43 GMT-0500 (Central Daylight Time),143454.30000007153,A,st,O,t,528,1,1480.8000000715256,141973.5,7094,WL,B,1.0
1,1.7660000324249268,learn,58233.99996757507,Wed Mar 26 2025 10:09:43 GMT-0500 (Central Daylight Time),143739.30000007153,A,str,O,r,277,1,1765.8000000715256,141973.5,7094,WL,B,1.0
1,1.880000114440918,learn,58119.99988555908,Wed Mar 26 2025 10:09:43 GMT-0500 (Central Daylight Time),143853.30000007153,A,stre,O,e,104,1,1879.8000000715256,141973.5,7094,WL,B,1.0
1,2.115999937057495,learn,57884.000062942505,Wed Mar 26 2025 10:09:43 GMT-0500 (Central Daylight Time),144088.90000009537,A,stree,O,e,222,1,2115.4000000953674,141973.5,7094,WL,B,1.0
1,2.2970001697540283,learn,57702.99983024597,Wed Mar 26 2025 10:09:43 GMT-0500 (Central Daylight Time),144270.10000002384,A,street,O,t,163,1,2296.600000023842,141973.5,7094,WL,B,1.0
1,2.5820000171661377,learn,57417.99998283386,Wed Mar 26 2025 10:09:43 GMT-0500 (Central Daylight Time),144555.10000002384,A,streetenter,O,enter,262,1,2581.600000023842,141973.5,7094,WL,B,1.0
1,3.930999994277954,learn,56069.000005722046,Wed Mar 26 2025 10:09:43 GMT-0500 (Central Daylight Time),145904.10000002384,A,g,O,g,1330,1,1348.3999999761581,144555.70000004768,7094,WL,B,2.0
1,4.114000082015991,learn,55885.99991798401,Wed Mar 26 2025 10:09:43 GMT-0500 (Central Daylight Time),146086.80000007153,A,gr,O,r,163,1,1531.1000000238419,144555.70000004768,7094,WL,B,2.0
1,4.2799999713897705,learn,55720.00002861023,Wed Mar 26 2025 10:09:43 GMT-0500 (Central Daylight Time),146253.5,A,gra,O,a,148,1,1697.7999999523163,144555.70000004768,7094,WL,B,2.0
1,4.398000001907349,learn,55601.99999809265,Wed Mar 26 2025 10:09:43 GMT-0500 (Central Daylight Time),146371.10000002384,A,gras,O,s,101,1,1815.3999999761581,144555.70000004768,7094,WL,B,2.0
1,4.5970001220703125,learn,55402.99987792969,Wed Mar 26 2025 10:09:43 GMT-0500 (Central Daylight Time),146569.80000007153,A,grass,O,s,175,1,2014.1000000238419,144555.70000004768,7094,WL,B,2.0
1,5.411999940872192,learn,54588.00005912781,Wed Mar 26 2025 10:09:43 GMT-0500 (Central Daylight Time),147384.90000009537,A,grassenter,O,enter,800,1,2829.2000000476837,144555.70000004768,7094,WL,B,2.0
1,6.92900013923645,learn,53070.99986076355,Wed Mar 26 2025 10:09:43 GMT-0500 (Central Daylight Time),148902.30000007153,A,w,O,w,1499,1,1516.8999999761581,147385.40000009537,7094,WL,B,3.0
1,7.263000011444092,learn,52736.99998855591,Wed Mar 26 2025 10:09:43 GMT-0500 (Central Daylight Time),149236.0,A,wi,O,i,316,1,1850.5999999046326,147385.40000009537,7094,WL,B,3.0
1,7.446000099182129,learn,52553.99990081787,Wed Mar 26 2025 10:09:43 GMT-0500 (Central Daylight Time),149419.40000009537,A,wif,O,f,166,1,2034.0,147385.40000009537,7094,WL,B,3.0
1,7.511000156402588,learn,52488.99984359741,Wed Mar 26 2025 10:09:43 GMT-0500 (Central Daylight Time),149484.10000002384,A,wife,O,e,56,1,2098.6999999284744,147385.40000009537,7094,WL,B,3.0
1,7.878999948501587,learn,52121.00005149841,Wed Mar 26 2025 10:09:43 GMT-0500 (Central Daylight Time),149851.80000007153,A,wifeenter,O,enter,351,1,2466.399999976158,147385.40000009537,7094,WL,B,3.0
1,8.398000001907349,learn,51601.99999809265,Wed Mar 26 2025 10:09:43 GMT-0500 (Central Daylight Time),150371.5,A,w,O,w,513,1,519.2999999523163,149852.20000004768,7094,WL,B,4.0
1,8.52999997138977,learn,51470.00002861023,Wed Mar 26 2025 10:09:43 GMT-0500 (Central Daylight Time),150502.90000009537,A,wi,O,i,124,1,650.7000000476837,149852.20000004768,7094,WL,B,4.0
1,8.713000059127808,learn,51286.99994087219,Wed Mar 26 2025 10:09:43 GMT-0500 (Central Daylight Time),150686.10000002384,A,win,O,n,165,1,833.8999999761581,149852.20000004768,7094,WL,B,4.0
1,9.009999990463257,learn,50990.00000953674,Wed Mar 26 2025 10:09:43 GMT-0500 (Central Daylight Time),150983.40000009537,A,wind,O,d,284,1,1131.2000000476837,149852.20000004768,7094,WL,B,4.0
1,9.328999996185303,learn,50671.0000038147,Wed Mar 26 2025 10:09:43 GMT-0500 (Central Daylight Time),151302.70000004768,A,windo,O,o,299,1,1450.5,149852.20000004768,7094,WL,B,4.0
1,9.51200008392334,learn,50487.99991607666,Wed Mar 26 2025 10:09:43 GMT-0500 (Central Daylight Time),151485.60000002384,A,window,O,w,164,1,1633.3999999761581,149852.20000004768,7094,WL,B,4.0
1,9.962000131607056,learn,50037.999868392944,Wed Mar 26 2025 10:09:43 GMT-0500 (Central Daylight Time),151934.80000007153,A,windowenter,O,enter,438,1,2082.600000023842,149852.20000004768,7094,WL,B,4.0
1,10.462000131607056,learn,49537.999868392944,Wed Mar 26 2025 10:09:43 GMT-0500 (Central Daylight Time),152435.40000009537,A,c,O,c,478,1,500.3000000715256,151935.10000002384,7094,WL,B,5.0
1,10.663000106811523,learn,49336.99989318848,Wed Mar 26 2025 10:09:43 GMT-0500 (Central Daylight Time),152636.80000007153,A,ci,O,i,193,1,701.7000000476837,151935.10000002384,7094,WL,B,5.0
1,10.795000076293945,learn,49204.999923706055,Wed Mar 26 2025 10:09:43 GMT-0500 (Central Daylight Time),152767.90000009537,A,cit,O,t,120,1,832.8000000715256,151935.10000002384,7094,WL,B,5.0
1,10.962000131607056,learn,49037.999868392944,Wed Mar 26 2025 10:09:43 GMT-0500 (Central Daylight Time),152935.20000004768,A,city,O,y,157,1,1000.1000000238419,151935.10000002384,7094,WL,B,5.0
1,11.460999965667725,learn,48539.000034332275,Wed Mar 26 2025 10:09:43 GMT-0500 (Central Daylight Time),153434.10000002384,A,cityenter,O,enter,484,1,1499.0,151935.10000002384,7094,WL,B,5.0
1,11.847000122070312,learn,48152.99987792969,Wed Mar 26 2025 10:09:43 GMT-0500 (Central Daylight Time),153819.70000004768,A,l,O,l,379,1,385.2999999523163,153434.40000009537,7094,WL,B,6.0
1,11.995000123977661,learn,48004.99987602234,Wed Mar 26 2025 10:09:43 GMT-0500 (Central Daylight Time),153967.80000007153,A,la,O,a,129,1,533.3999999761581,153434.40000009537,7094,WL,B,6.0
1,12.144000053405762,learn,47855.99994659424,Wed Mar 26 2025 10:09:43 GMT-0500 (Central Daylight Time),154117.20000004768,A,lak,O,k,128,1,682.7999999523163,153434.40000009537,7094,WL,B,6.0
1,12.276999950408936,learn,47723.000049591064,Wed Mar 26 2025 10:09:43 GMT-0500 (Central Daylight Time),154250.20000004768,A,lake,O,e,117,1,815.7999999523163,153434.40000009537,7094,WL,B,6.0
1,12.860000133514404,learn,47139.999866485596,Wed Mar 26 2025 10:09:43 GMT-0500 (Central Daylight Time),154833.60000002384,A,lakeenter,O,enter,568,1,1399.1999999284744,153434.40000009537,7094,WL,B,6.0
1,13.328999996185303,learn,46671.0000038147,Wed Mar 26 2025 10:09:43 GMT-0500 (Central Daylight Time),155301.70000004768,A,f,O,f,462,1,467.7999999523163,154833.90000009537,7094,WL,B,7.0
1,13.49399995803833,learn,46506.00004196167,Wed Mar 26 2025 10:09:43 GMT-0500 (Central Daylight Time),155467.60000002384,A,fi,O,i,150,1,633.6999999284744,154833.90000009537,7094,WL,B,7.0
1,13.644999980926514,learn,46355.000019073486,Wed Mar 26 2025 10:09:43 GMT-0500 (Central Daylight Time),155618.30000007153,A,fir,O,r,136,1,784.3999999761581,154833.90000009537,7094,WL,B,7.0
1,13.74399995803833,learn,46256.00004196167,Wed Mar 26 2025 10:09:43 GMT-0500 (Central Daylight Time),155716.90000009537,A,fire,O,e,83,1,883.0,154833.90000009537,7094,WL,B,7.0
1,14.226999998092651,learn,45773.00000190735,Wed Mar 26 2025 10:09:43 GMT-0500 (Central Daylight Time),156200.70000004768,A,fireenter,O,enter,470,1,1366.7999999523163,154833.90000009537,7094,WL,B,7.0
1,14.713000059127808,learn,45286.99994087219,Wed Mar 26 2025 10:09:43 GMT-0500 (Central Daylight Time),156685.80000007153,A,s,O,s,468,1,484.8000000715256,156201.0,7094,WL,B,8.0
1,14.84500002861023,learn,45154.99997138977,Wed Mar 26 2025 10:09:43 GMT-0500 (Central Daylight Time),156818.30000007153,A,st,O,t,125,1,617.3000000715256,156201.0,7094,WL,B,8.0
1,15.094000101089478,learn,44905.99989891052,Wed Mar 26 2025 10:09:43 GMT-0500 (Central Daylight Time),157066.90000009537,A,str,O,r,225,1,865.9000000953674,156201.0,7094,WL,B,8.0
1,15.141999959945679,learn,44858.00004005432,Wed Mar 26 2025 10:09:43 GMT-0500 (Central Daylight Time),157115.60000002384,A,stre,O,e,32,1,914.6000000238419,156201.0,7094,WL,B,8.0
1,15.692000150680542,learn,44307.99984931946,Wed Mar 26 2025 10:09:43 GMT-0500 (Central Daylight Time),157665.60000002384,A,stree,O,e,537,1,1464.6000000238419,156201.0,7094,WL,B,8.0
1,15.909000158309937,learn,44090.99984169006,Wed Mar 26 2025 10:09:43 GMT-0500 (Central Daylight Time),157882.0,A,street,O,t,203,1,1681.0,156201.0,7094,WL,B,8.0
1,16.278000116348267,learn,43721.99988365173,Wed Mar 26 2025 10:09:43 GMT-0500 (Central Daylight Time),158250.80000007153,A,streetenter,O,enter,363,1,2049.8000000715256,156201.0,7094,WL,B,8.0
1,33.63700008392334,learn,26362.99991607666,Wed Mar 26 2025 10:09:43 GMT-0500 (Central Daylight Time),175610.20000004768,A,enter,O,enter,17346,1,17359.100000023842,158251.10000002384,7094,WL,B,9.0
1,34.335999965667725,learn,25664.000034332275,Wed Mar 26 2025 10:09:43 GMT-0500 (Central Daylight Time),176309.80000007153,A,enter,O,enter,682,1,699.2000000476837,175610.60000002384,7094,WL,B,10.0
1,34.769999980926514,learn,25230.000019073486,Wed Mar 26 2025 10:09:43 GMT-0500 (Central Daylight Time),176743.20000004768,A,enter,O,enter,416,1,433.10000002384186,176310.10000002384,7094,WL,B,11.0
1,35.13600015640259,learn,24863.999843597412,Wed Mar 26 2025 10:09:43 GMT-0500 (Central Daylight Time),177109.5,A,enter,O,enter,349,1,366.0,176743.5,7094,WL,B,12.0
1,35.71900010108948,learn,24280.999898910522,Wed Mar 26 2025 10:09:43 GMT-0500 (Central Daylight Time),177692.10000002384,A,enter,O,enter,575,1,582.1999999284744,177109.90000009537,7094,WL,B,13.0
1,36.16900014877319,learn,23830.999851226807,Wed Mar 26 2025 10:09:43 GMT-0500 (Central Daylight Time),178142.10000002384,A,enter,O,enter,432,1,449.60000002384186,177692.5,7094,WL,B,14.0
1,36.837000131607056,learn,23162.999868392944,Wed Mar 26 2025 10:09:43 GMT-0500 (Central Daylight Time),178811.10000002384,A,enter,O,enter,663,1,668.6000000238419,178142.5,7094,WL,B,15.0
2,0.815000057220459,learn,59184.99994277954,Wed Mar 26 2025 10:09:43 GMT-0500 (Central Daylight Time),249036.20000004768,A,s,O,s,797,1,815.2000000476837,248221.0,7094,WL,B,1.0
2,1.0180001258850098,learn,58981.99987411499,Wed Mar 26 2025 10:09:43 GMT-0500 (Central Daylight Time),249238.70000004768,A,st,O,t,193,1,1017.7000000476837,248221.0,7094,WL,B,1.0
2,1.4149999618530273,learn,58585.00003814697,Wed Mar 26 2025 10:09:43 GMT-0500 (Central Daylight Time),249636.40000009537,A,str,O,r,390,1,1415.4000000953674,248221.0,7094,WL,B,1.0
2,1.4830000400543213,learn,58516.99995994568,Wed Mar 26 2025 10:09:43 GMT-0500 (Central Daylight Time),249703.70000004768,A,stre,O,e,56,1,1482.7000000476837,248221.0,7094,WL,B,1.0
2,1.6660001277923584,learn,58333.99987220764,Wed Mar 26 2025 10:09:43 GMT-0500 (Central Daylight Time),249886.70000004768,A,stree,O,e,165,1,1665.7000000476837,248221.0,7094,WL,B,1.0
2,1.8489999771118164,learn,58151.00002288818,Wed Mar 26 2025 10:09:43 GMT-0500 (Central Daylight Time),250070.0,A,street,O,t,172,1,1849.0,248221.0,7094,WL,B,1.0
2,2.0490000247955322,learn,57950.99997520447,Wed Mar 26 2025 10:09:43 GMT-0500 (Central Daylight Time),250269.70000004768,A,streetenter,O,enter,191,1,2048.7000000476837,248221.0,7094,WL,B,1.0
2,2.9670000076293945,learn,57032.999992370605,Wed Mar 26 2025 10:09:43 GMT-0500 (Central Daylight Time),251187.60000002384,A,g,O,g,903,1,917.6000000238419,250270.0,7094,WL,B,2.0
2,3.1490001678466797,learn,56850.99983215332,Wed Mar 26 2025 10:09:43 GMT-0500 (Central Daylight Time),251369.60000002384,A,gr,O,r,169,1,1099.6000000238419,250270.0,7094,WL,B,2.0
2,3.364000082015991,learn,56635.99991798401,Wed Mar 26 2025 10:09:43 GMT-0500 (Central Daylight Time),251585.40000009537,A,gra,O,a,195,1,1315.4000000953674,250270.0,7094,WL,B,2.0
2,3.4820001125335693,learn,56517.99988746643,Wed Mar 26 2025 10:09:43 GMT-0500 (Central Daylight Time),251703.0,A,gras,O,s,101,1,1433.0,250270.0,7094,WL,B,2.0
2,3.6480000019073486,learn,56351.99999809265,Wed Mar 26 2025 10:09:43 GMT-0500 (Central Daylight Time),251869.30000007153,A,grass,O,s,160,1,1599.3000000715256,250270.0,7094,WL,B,2.0
2,3.9660000801086426,learn,56033.99991989136,Wed Mar 26 2025 10:09:43 GMT-0500 (Central Daylight Time),252187.30000007153,A,grassenter,O,enter,294,1,1917.3000000715256,250270.0,7094,WL,B,2.0
2,4.330000162124634,learn,55669.999837875366,Wed Mar 26 2025 10:09:43 GMT-0500 (Central Daylight Time),252551.0,A,d,O,d,352,1,363.39999997615814,252187.60000002384,7094,WL,B,3.0
2,4.64900016784668,learn,55350.99983215332,Wed Mar 26 2025 10:09:43 GMT-0500 (Central Daylight Time),252870.0,A,do,O,o,296,1,682.3999999761581,252187.60000002384,7094,WL,B,3.0
2,4.815000057220459,learn,55184.99994277954,Wed Mar 26 2025 10:09:43 GMT-0500 (Central Daylight Time),253036.10000002384,A,doo,O,o,140,1,848.5,252187.60000002384,7094,WL,B,3.0
2,5.065000057220459,learn,54934.99994277954,Wed Mar 26 2025 10:09:43 GMT-0500 (Central Daylight Time),253285.5,A,door,O,r,241,1,1097.8999999761581,252187.60000002384,7094,WL,B,3.0
2,5.583000183105469,learn,54416.99981689453,Wed Mar 26 2025 10:09:43 GMT-0500 (Central Daylight Time),253804.20000004768,A,doorenter,O,enter,496,1,1616.6000000238419,252187.60000002384,7094,WL,B,3.0
2,5.950000047683716,learn,54049.999952316284,Wed Mar 26 2025 10:09:43 GMT-0500 (Central Daylight Time),254170.90000009537,A,a,O,a,346,1,366.5,253804.40000009537,7094,WL,B,4.0
2,6.0980000495910645,learn,53901.999950408936,Wed Mar 26 2025 10:09:43 GMT-0500 (Central Daylight Time),254318.60000002384,A,ar,O,r,128,1,514.1999999284744,253804.40000009537,7094,WL,B,4.0
2,7.166000127792358,learn,52833.99987220764,Wed Mar 26 2025 10:09:43 GMT-0500 (Central Daylight Time),255387.30000007153,A,arm,O,m,1062,1,1582.8999999761581,253804.40000009537,7094,WL,B,4.0
2,8.380000114440918,learn,51619.99988555908,Wed Mar 26 2025 10:09:43 GMT-0500 (Central Daylight Time),256600.90000009537,A,armenter,O,enter,1192,1,2796.5,253804.40000009537,7094,WL,B,4.0
2,13.812000036239624,learn,46187.999963760376,Wed Mar 26 2025 10:09:43 GMT-0500 (Central Daylight Time),262033.0,A,w,O,w,5421,1,5431.799999952316,256601.20000004768,7094,WL,B,5.0
2,14.51200008392334,learn,45487.99991607666,Wed Mar 26 2025 10:09:43 GMT-0500 (Central Daylight Time),262733.3000000715,A,wi,O,i,685,1,6132.100000023842,256601.20000004768,7094,WL,B,5.0
2,14.76200008392334,learn,45237.99991607666,Wed Mar 26 2025 10:09:43 GMT-0500 (Central Daylight Time),262983.3000000715,A,wif,O,f,240,1,6382.100000023842,256601.20000004768,7094,WL,B,5.0
2,14.894999980926514,learn,45105.000019073486,Wed Mar 26 2025 10:09:43 GMT-0500 (Central Daylight Time),263115.60000002384,A,wife,O,e,118,1,6514.399999976158,256601.20000004768,7094,WL,B,5.0
2,15.529000043869019,learn,44470.99995613098,Wed Mar 26 2025 10:09:43 GMT-0500 (Central Daylight Time),263750.2000000477,A,wifeenter,O,enter,617,1,7149.0,256601.20000004768,7094,WL,B,5.0
2,15.92799997329712,learn,44072.00002670288,Wed Mar 26 2025 10:09:43 GMT-0500 (Central Daylight Time),264148.90000009537,A,w,O,w,391,1,398.40000009536743,263750.5,7094,WL,B,6.0
2,16.09599995613098,learn,43904.00004386902,Wed Mar 26 2025 10:09:43 GMT-0500 (Central Daylight Time),264316.60000002384,A,wi,O,i,149,1,566.1000000238419,263750.5,7094,WL,B,6.0
2,16.295000076293945,learn,43704.999923706055,Wed Mar 26 2025 10:09:43 GMT-0500 (Central Daylight Time),264515.90000009537,A,win,O,n,183,1,765.4000000953674,263750.5,7094,WL,B,6.0
2,16.41100001335144,learn,43588.99998664856,Wed Mar 26 2025 10:09:43 GMT-0500 (Central Daylight Time),264632.40000009537,A,wind,O,d,97,1,881.9000000953674,263750.5,7094,WL,B,6.0
2,16.545000076293945,learn,43454.999923706055,Wed Mar 26 2025 10:09:43 GMT-0500 (Central Daylight Time),264766.10000002384,A,windo,O,o,125,1,1015.6000000238419,263750.5,7094,WL,B,6.0
2,16.795000076293945,learn,43204.999923706055,Wed Mar 26 2025 10:09:43 GMT-0500 (Central Daylight Time),265016.10000002384,A,window,O,w,231,1,1265.6000000238419,263750.5,7094,WL,B,6.0
2,17.542999982833862,learn,42457.00001716614,Wed Mar 26 2025 10:09:43 GMT-0500 (Central Daylight Time),265763.90000009537,A,windowenter,O,enter,740,1,2013.4000000953674,263750.5,7094,WL,B,6.0
2,17.92900013923645,learn,42070.99986076355,Wed Mar 26 2025 10:09:43 GMT-0500 (Central Daylight Time),266149.60000002384,A,c,O,c,380,1,385.39999997615814,265764.2000000477,7094,WL,B,7.0
2,18.14400005340576,learn,41855.99994659424,Wed Mar 26 2025 10:09:43 GMT-0500 (Central Daylight Time),266365.3000000715,A,ci,O,i,198,1,601.1000000238419,265764.2000000477,7094,WL,B,7.0
2,18.261000156402588,learn,41738.99984359741,Wed Mar 26 2025 10:09:43 GMT-0500 (Central Daylight Time),266482.3000000715,A,cit,O,t,102,1,718.1000000238419,265764.2000000477,7094,WL,B,7.0
2,18.427000045776367,learn,41572.99995422363,Wed Mar 26 2025 10:09:43 GMT-0500 (Central Daylight Time),266647.8000000715,A,city,O,y,154,1,883.6000000238419,265764.2000000477,7094,WL,B,7.0
2,19.31000018119812,learn,40689.99981880188,Wed Mar 26 2025 10:09:43 GMT-0500 (Central Daylight Time),267530.7000000477,A,cityenter,O,enter,877,1,1766.5,265764.2000000477,7094,WL,B,7.0
2,19.960000038146973,learn,40039.99996185303,Wed Mar 26 2025 10:09:43 GMT-0500 (Central Daylight Time),268181.10000002384,A,c,O,c,634,1,650.1000000238419,267531.0,7094,WL,B,8.0
2,20.042999982833862,learn,39957.00001716614,Wed Mar 26 2025 10:09:43 GMT-0500 (Central Daylight Time),268264.2000000477,A,cl,O,l,72,1,733.2000000476837,267531.0,7094,WL,B,8.0
2,20.26200008392334,learn,39737.99991607666,Wed Mar 26 2025 10:09:43 GMT-0500 (Central Daylight Time),268483.10000002384,A,clo,O,o,203,1,952.1000000238419,267531.0,7094,WL,B,8.0
2,20.41000008583069,learn,39589.99991416931,Wed Mar 26 2025 10:09:43 GMT-0500 (Central Daylight Time),268631.2000000477,A,cloc,O,c,133,1,1100.2000000476837,267531.0,7094,WL,B,8.0
2,20.561000108718872,learn,39438.99989128113,Wed Mar 26 2025 10:09:43 GMT-0500 (Central Daylight Time),268781.60000002384,A,clock,O,k,134,1,1250.6000000238419,267531.0,7094,WL,B,8.0
2,21.14300012588501,learn,38856.99987411499,Wed Mar 26 2025 10:09:43 GMT-0500 (Central Daylight Time),269363.90000009537,A,clockenter,O,enter,567,1,1832.9000000953674,267531.0,7094,WL,B,8.0
2,28.19099998474121,learn,31809.00001525879,Wed Mar 26 2025 10:09:43 GMT-0500 (Central Daylight Time),276411.5,A,c,O,c,7041,1,7047.5,269364.0,7094,WL,B,9.0
2,28.407999992370605,learn,31592.000007629395,Wed Mar 26 2025 10:09:43 GMT-0500 (Central Daylight Time),276628.60000002384,A,ca,O,a,198,1,7264.600000023842,269364.0,7094,WL,B,9.0
2,28.593000173568726,learn,31406.999826431274,Wed Mar 26 2025 10:09:43 GMT-0500 (Central Daylight Time),276813.8000000715,A,cab,O,b,178,1,7449.800000071526,269364.0,7094,WL,B,9.0
2,28.742000102996826,learn,31257.999897003174,Wed Mar 26 2025 10:09:43 GMT-0500 (Central Daylight Time),276963.40000009537,A,cabi,O,i,143,1,7599.400000095367,269364.0,7094,WL,B,9.0
2,28.891000032424927,learn,31108.999967575073,Wed Mar 26 2025 10:09:43 GMT-0500 (Central Daylight Time),277112.40000009537,A,cabin,O,n,127,1,7748.400000095367,269364.0,7094,WL,B,9.0
2,29.407999992370605,learn,30592.000007629395,Wed Mar 26 2025 10:09:43 GMT-0500 (Central Daylight Time),277628.90000009537,A,cabinenter,O,enter,493,1,8264.900000095367,269364.0,7094,WL,B,9.0
2,30.006999969482422,learn,29993.000030517578,Wed Mar 26 2025 10:09:43 GMT-0500 (Central Daylight Time),278228.10000002384,A,l,O,l,593,1,598.7999999523163,277629.3000000715,7094,WL,B,10.0
2,30.159000158309937,learn,29840.999841690063,Wed Mar 26 2025 10:09:43 GMT-0500 (Central Daylight Time),278379.90000009537,A,la,O,a,128,1,750.6000000238419,277629.3000000715,7094,WL,B,10.0
2,30.323000192642212,learn,29676.999807357788,Wed Mar 26 2025 10:09:43 GMT-0500 (Central Daylight Time),278544.10000002384,A,lak,O,k,144,1,914.7999999523163,277629.3000000715,7094,WL,B,10.0
2,30.52500009536743,learn,29474.99990463257,Wed Mar 26 2025 10:09:43 GMT-0500 (Central Daylight Time),278745.5,A,lake,O,e,181,1,1116.1999999284744,277629.3000000715,7094,WL,B,10.0
2,30.874000072479248,learn,29125.999927520752,Wed Mar 26 2025 10:09:43 GMT-0500 (Central Daylight Time),279094.7000000477,A,lakeenter,O,enter,340,1,1465.3999999761581,277629.3000000715,7094,WL,B,10.0
2,31.391000032424927,learn,28608.999967575073,Wed Mar 26 2025 10:09:43 GMT-0500 (Central Daylight Time),279611.60000002384,A,f,O,f,511,1,516.6999999284744,279094.90000009537,7094,WL,B,11.0
2,31.574000120162964,learn,28425.999879837036,Wed Mar 26 2025 10:09:43 GMT-0500 (Central Daylight Time),279794.60000002384,A,fi,O,i,176,1,699.6999999284744,279094.90000009537,7094,WL,B,11.0
2,31.756999969482422,learn,28243.000030517578,Wed Mar 26 2025 10:09:43 GMT-0500 (Central Daylight Time),279977.60000002384,A,fir,O,r,170,1,882.6999999284744,279094.90000009537,7094,WL,B,11.0
2,31.907999992370605,learn,28092.000007629395,Wed Mar 26 2025 10:09:43 GMT-0500 (Central Daylight Time),280129.0,A,fire,O,e,130,1,1034.0999999046326,279094.90000009537,7094,WL,B,11.0
2,33.34100008010864,learn,26658.999919891357,Wed Mar 26 2025 10:09:43 GMT-0500 (Central Daylight Time),281561.60000002384,A,fireenter,O,enter,1419,1,2466.6999999284744,279094.90000009537,7094,WL,B,11.0
2,40.7720000743866,learn,19227.999925613403,Wed Mar 26 2025 10:09:43 GMT-0500 (Central Daylight Time),288993.2000000477,A,p,O,p,7412,1,7431.200000047684,281562.0,7094,WL,B,12.0
2,41.02300000190735,learn,18976.99999809265,Wed Mar 26 2025 10:09:43 GMT-0500 (Central Daylight Time),289244.2000000477,A,pi,O,i,242,1,7682.200000047684,281562.0,7094,WL,B,12.0
2,41.269999980926514,learn,18730.000019073486,Wed Mar 26 2025 10:09:43 GMT-0500 (Central Daylight Time),289491.40000009537,A,pip,O,p,228,1,7929.400000095367,281562.0,7094,WL,B,12.0
2,41.63900017738342,learn,18360.999822616577,Wed Mar 26 2025 10:09:43 GMT-0500 (Central Daylight Time),289859.40000009537,A,pipe,O,e,361,1,8297.400000095367,281562.0,7094,WL,B,12.0
2,42.07200002670288,learn,17927.99997329712,Wed Mar 26 2025 10:09:43 GMT-0500 (Central Daylight Time),290292.5,A,pipeenter,O,enter,415,1,8730.5,281562.0,7094,WL,B,12.0
2,43.57000017166138,learn,16429.999828338623,Wed Mar 26 2025 10:09:43 GMT-0500 (Central Daylight Time),291791.3000000715,A,l,O,l,1489,1,1498.6000000238419,290292.7000000477,7094,WL,B,13.0
2,44.35300016403198,learn,15646.999835968018,Wed Mar 26 2025 10:09:43 GMT-0500 (Central Daylight Time),292573.60000002384,A,,O,backspace,769,1,2280.899999976158,290292.7000000477,7094,WL,B,13.0
2,44.78600001335144,learn,15213.99998664856,Wed Mar 26 2025 10:09:43 GMT-0500 (Central Daylight Time),293006.7000000477,A,c,O,c,418,1,2714.0,290292.7000000477,7094,WL,B,13.0
2,44.95300006866455,learn,15046.99993133545,Wed Mar 26 2025 10:09:43 GMT-0500 (Central Daylight Time),293174.10000002384,A,cl,O,l,157,1,2881.399999976158,290292.7000000477,7094,WL,B,13.0
2,45.1710000038147,learn,14828.999996185303,Wed Mar 26 2025 10:09:43 GMT-0500 (Central Daylight Time),293391.7000000477,A,clo,O,o,196,1,3099.0,290292.7000000477,7094,WL,B,13.0
2,45.337000131607056,learn,14662.999868392944,Wed Mar 26 2025 10:09:43 GMT-0500 (Central Daylight Time),293557.5,A,cloc,O,c,145,1,3264.7999999523163,290292.7000000477,7094,WL,B,13.0
2,45.55200004577637,learn,14447.999954223633,Wed Mar 26 2025 10:09:43 GMT-0500 (Central Daylight Time),293773.40000009537,A,clock,O,k,200,1,3480.7000000476837,290292.7000000477,7094,WL,B,13.0
2,46.03500008583069,learn,13964.999914169312,Wed Mar 26 2025 10:09:43 GMT-0500 (Central Daylight Time),294256.10000002384,A,clockenter,O,enter,463,1,3963.399999976158,290292.7000000477,7094,WL,B,13.0
2,47.70099997520447,learn,12299.000024795532,Wed Mar 26 2025 10:09:43 GMT-0500 (Central Daylight Time),295922.5,A,enter,O,enter,1661,1,1666.0999999046326,294256.40000009537,7094,WL,B,14.0
2,48.75,learn,11250.0,Wed Mar 26 2025 10:09:43 GMT-0500 (Central Daylight Time),296971.3000000715,A,enter,O,enter,1042,1,1048.5,295922.8000000715,7094,WL,B,15.0
3,0.7000000476837158,learn,59299.999952316284,Wed Mar 26 2025 10:09:43 GMT-0500 (Central Daylight Time),366418.10000002384,A,s,O,s,689,1,700.5,365717.60000002384,7094,WL,B,1.0
3,0.9330000877380371,learn,59066.99991226196,Wed Mar 26 2025 10:09:43 GMT-0500 (Central Daylight Time),366650.3000000715,A,st,O,t,219,1,932.7000000476837,365717.60000002384,7094,WL,B,1.0
3,1.1979999542236328,learn,58802.00004577637,Wed Mar 26 2025 10:09:43 GMT-0500 (Central Daylight Time),366915.90000009537,A,str,O,r,250,1,1198.3000000715256,365717.60000002384,7094,WL,B,1.0
3,1.2820000648498535,learn,58717.99993515015,Wed Mar 26 2025 10:09:43 GMT-0500 (Central Daylight Time),367000.10000002384,A,stre,O,e,72,1,1282.5,365717.60000002384,7094,WL,B,1.0
3,1.4660000801086426,learn,58533.99991989136,Wed Mar 26 2025 10:09:43 GMT-0500 (Central Daylight Time),367184.10000002384,A,stree,O,e,172,1,1466.5,365717.60000002384,7094,WL,B,1.0
3,1.6319999694824219,learn,58368.00003051758,Wed Mar 26 2025 10:09:43 GMT-0500 (Central Daylight Time),367349.5,A,street,O,t,156,1,1631.8999999761581,365717.60000002384,7094,WL,B,1.0
3,1.815999984741211,learn,58184.00001525879,Wed Mar 26 2025 10:09:43 GMT-0500 (Central Daylight Time),367533.8000000715,A,streetenter,O,enter,166,1,1816.2000000476837,365717.60000002384,7094,WL,B,1.0
3,2.749000072479248,learn,57250.99992752075,Wed Mar 26 2025 10:09:43 GMT-0500 (Central Daylight Time),368466.40000009537,A,g,O,g,920,1,932.4000000953674,367534.0,7094,WL,B,2.0
3,3.065000057220459,learn,56934.99994277954,Wed Mar 26 2025 10:09:43 GMT-0500 (Central Daylight Time),368783.2000000477,A,gr,O,r,307,1,1249.2000000476837,367534.0,7094,WL,B,2.0
3,3.2820000648498535,learn,56717.99993515015,Wed Mar 26 2025 10:09:43 GMT-0500 (Central Daylight Time),368999.90000009537,A,gra,O,a,197,1,1465.9000000953674,367534.0,7094,WL,B,2.0
3,3.4000000953674316,learn,56599.99990463257,Wed Mar 26 2025 10:09:43 GMT-0500 (Central Daylight Time),369117.90000009537,A,gras,O,s,111,1,1583.9000000953674,367534.0,7094,WL,B,2.0
3,3.5820000171661377,learn,56417.99998283386,Wed Mar 26 2025 10:09:43 GMT-0500 (Central Daylight Time),369299.5,A,grass,O,s,175,1,1765.5,367534.0,7094,WL,B,2.0
3,3.949000120162964,learn,56050.999879837036,Wed Mar 26 2025 10:09:43 GMT-0500 (Central Daylight Time),369666.40000009537,A,grassenter,O,enter,343,1,2132.4000000953674,367534.0,7094,WL,B,2.0
3,4.416000127792358,learn,55583.99987220764,Wed Mar 26 2025 10:09:43 GMT-0500 (Central Daylight Time),370133.60000002384,A,d,O,d,461,1,467.0,369666.60000002384,7094,WL,B,3.0
3,4.582000017166138,learn,55417.99998283386,Wed Mar 26 2025 10:09:43 GMT-0500 (Central Daylight Time),370300.10000002384,A,do,O,o,159,1,633.5,369666.60000002384,7094,WL,B,3.0
3,4.781000137329102,learn,55218.9998626709,Wed Mar 26 2025 10:09:43 GMT-0500 (Central Daylight Time),370498.40000009537,A,doo,O,o,175,1,831.8000000715256,369666.60000002384,7094,WL,B,3.0
3,4.9670000076293945,learn,55032.999992370605,Wed Mar 26 2025 10:09:43 GMT-0500 (Central Daylight Time),370684.3000000715,A,door,O,r,178,1,1017.7000000476837,369666.60000002384,7094,WL,B,3.0
3,5.2149999141693115,learn,54785.00008583069,Wed Mar 26 2025 10:09:43 GMT-0500 (Central Daylight Time),370932.60000002384,A,doorenter,O,enter,232,1,1266.0,369666.60000002384,7094,WL,B,3.0
3,5.54800009727478,learn,54451.99990272522,Wed Mar 26 2025 10:09:43 GMT-0500 (Central Daylight Time),371266.0,A,a,O,a,312,1,333.09999990463257,370932.90000009537,7094,WL,B,4.0
3,5.747999906539917,learn,54252.00009346008,Wed Mar 26 2025 10:09:43 GMT-0500 (Central Daylight Time),371465.40000009537,A,ar,O,r,188,1,532.5,370932.90000009537,7094,WL,B,4.0
3,5.930000066757202,learn,54069.9999332428,Wed Mar 26 2025 10:09:43 GMT-0500 (Central Daylight Time),371648.10000002384,A,arm,O,m,163,1,715.1999999284744,370932.90000009537,7094,WL,B,4.0
3,6.314000129699707,learn,53685.99987030029,Wed Mar 26 2025 10:09:43 GMT-0500 (Central Daylight Time),372032.2000000477,A,armenter,O,enter,364,1,1099.2999999523163,370932.90000009537,7094,WL,B,4.0
3,6.61299991607666,learn,53387.00008392334,Wed Mar 26 2025 10:09:43 GMT-0500 (Central Daylight Time),372330.60000002384,A,s,O,s,277,1,298.10000002384186,372032.5,7094,WL,B,5.0
3,6.730000019073486,learn,53269.999980926514,Wed Mar 26 2025 10:09:43 GMT-0500 (Central Daylight Time),372447.8000000715,A,st,O,t,108,1,415.3000000715256,372032.5,7094,WL,B,5.0
3,6.913000106811523,learn,53086.99989318848,Wed Mar 26 2025 10:09:43 GMT-0500 (Central Daylight Time),372631.2000000477,A,sta,O,a,176,1,598.7000000476837,372032.5,7094,WL,B,5.0
3,7.064000129699707,learn,52935.99987030029,Wed Mar 26 2025 10:09:43 GMT-0500 (Central Daylight Time),372781.7000000477,A,star,O,r,134,1,749.2000000476837,372032.5,7094,WL,B,5.0
3,7.447000026702881,learn,52552.99997329712,Wed Mar 26 2025 10:09:43 GMT-0500 (Central Daylight Time),373164.5,A,starenter,O,enter,375,1,1132.0,372032.5,7094,WL,B,5.0
3,7.914000034332275,learn,52085.999965667725,Wed Mar 26 2025 10:09:43 GMT-0500 (Central Daylight Time),373631.2000000477,A,w,O,w,457,1,466.60000002384186,373164.60000002384,7094,WL,B,6.0
3,8.130000114440918,learn,51869.99988555908,Wed Mar 26 2025 10:09:43 GMT-0500 (Central Daylight Time),373848.2000000477,A,wi,O,i,206,1,683.6000000238419,373164.60000002384,7094,WL,B,6.0
3,8.312999963760376,learn,51687.000036239624,Wed Mar 26 2025 10:09:43 GMT-0500 (Central Daylight Time),374031.2000000477,A,wif,O,f,173,1,866.6000000238419,373164.60000002384,7094,WL,B,6.0
3,8.414000034332275,learn,51585.999965667725,Wed Mar 26 2025 10:09:43 GMT-0500 (Central Daylight Time),374131.90000009537,A,wife,O,e,79,1,967.3000000715256,373164.60000002384,7094,WL,B,6.0
3,8.66100001335144,learn,51338.99998664856,Wed Mar 26 2025 10:09:43 GMT-0500 (Central Daylight Time),374379.2000000477,A,wifeenter,O,enter,240,1,1214.6000000238419,373164.60000002384,7094,WL,B,6.0
3,9.078999996185303,learn,50921.0000038147,Wed Mar 26 2025 10:09:43 GMT-0500 (Central Daylight Time),374797.10000002384,A,w,O,w,411,1,417.6999999284744,374379.40000009537,7094,WL,B,7.0
3,9.230000019073486,learn,50769.999980926514,Wed Mar 26 2025 10:09:43 GMT-0500 (Central Daylight Time),374947.5,A,wi,O,i,136,1,568.0999999046326,374379.40000009537,7094,WL,B,7.0
3,9.345999956130981,learn,50654.00004386902,Wed Mar 26 2025 10:09:43 GMT-0500 (Central Daylight Time),375064.2000000477,A,win,O,n,106,1,684.7999999523163,374379.40000009537,7094,WL,B,7.0
3,9.496000051498413,learn,50503.99994850159,Wed Mar 26 2025 10:09:43 GMT-0500 (Central Daylight Time),375213.7000000477,A,wind,O,d,134,1,834.2999999523163,374379.40000009537,7094,WL,B,7.0
3,9.614000082015991,learn,50385.99991798401,Wed Mar 26 2025 10:09:43 GMT-0500 (Central Daylight Time),375331.60000002384,A,windo,O,o,105,1,952.1999999284744,374379.40000009537,7094,WL,B,7.0
3,9.847000122070312,learn,50152.99987792969,Wed Mar 26 2025 10:09:43 GMT-0500 (Central Daylight Time),375565.10000002384,A,window,O,w,227,1,1185.6999999284744,374379.40000009537,7094,WL,B,7.0
3,10.579999923706055,learn,49420.000076293945,Wed Mar 26 2025 10:09:43 GMT-0500 (Central Daylight Time),376297.3000000715,A,windowenter,O,enter,720,1,1917.8999999761581,374379.40000009537,7094,WL,B,7.0
3,13.394000053405762,learn,46605.99994659424,Wed Mar 26 2025 10:09:43 GMT-0500 (Central Daylight Time),379112.10000002384,A,c,O,c,2804,1,2814.5,376297.60000002384,7094,WL,B,8.0
3,13.528000116348267,learn,46471.99988365173,Wed Mar 26 2025 10:09:43 GMT-0500 (Central Daylight Time),379245.7000000477,A,ci,O,i,127,1,2948.100000023842,376297.60000002384,7094,WL,B,8.0
3,13.67799997329712,learn,46322.00002670288,Wed Mar 26 2025 10:09:43 GMT-0500 (Central Daylight Time),379396.2000000477,A,cit,O,t,134,1,3098.600000023842,376297.60000002384,7094,WL,B,8.0
3,13.864000082015991,learn,46135.99991798401,Wed Mar 26 2025 10:09:43 GMT-0500 (Central Daylight Time),379581.40000009537,A,city,O,y,161,1,3283.8000000715256,376297.60000002384,7094,WL,B,8.0
3,14.577000141143799,learn,45422.9998588562,Wed Mar 26 2025 10:09:43 GMT-0500 (Central Daylight Time),380294.5,A,cityenter,O,enter,701,1,3996.899999976158,376297.60000002384,7094,WL,B,8.0
3,18.361000061035156,learn,41638.999938964844,Wed Mar 26 2025 10:09:43 GMT-0500 (Central Daylight Time),384078.8000000715,A,c,O,c,3769,1,3784.0,380294.8000000715,7094,WL,B,9.0
3,18.610000133514404,learn,41389.999866485596,Wed Mar 26 2025 10:09:43 GMT-0500 (Central Daylight Time),384328.10000002384,A,ca,O,a,239,1,4033.2999999523163,380294.8000000715,7094,WL,B,9.0
3,18.80900001525879,learn,41190.99998474121,Wed Mar 26 2025 10:09:43 GMT-0500 (Central Daylight Time),384527.10000002384,A,cab,O,b,188,1,4232.299999952316,380294.8000000715,7094,WL,B,9.0
3,19.026999950408936,learn,40973.000049591064,Wed Mar 26 2025 10:09:43 GMT-0500 (Central Daylight Time),384744.7000000477,A,cabi,O,i,194,1,4449.899999976158,380294.8000000715,7094,WL,B,9.0
3,19.20900011062622,learn,40790.99988937378,Wed Mar 26 2025 10:09:43 GMT-0500 (Central Daylight Time),384927.2000000477,A,cabin,O,n,172,1,4632.399999976158,380294.8000000715,7094,WL,B,9.0
3,19.694000005722046,learn,40305.999994277954,Wed Mar 26 2025 10:09:43 GMT-0500 (Central Daylight Time),385411.7000000477,A,cabinenter,O,enter,479,1,5116.899999976158,380294.8000000715,7094,WL,B,9.0
3,20.193000078201294,learn,39806.999921798706,Wed Mar 26 2025 10:09:43 GMT-0500 (Central Daylight Time),385910.90000009537,A,p,O,p,482,1,498.90000009536743,385412.0,7094,WL,B,10.0
3,21.424999952316284,learn,38575.000047683716,Wed Mar 26 2025 10:09:43 GMT-0500 (Central Daylight Time),387143.3000000715,A,pu,O,u,1214,1,1731.3000000715256,385412.0,7094,WL,B,10.0
3,21.72699999809265,learn,38273.00000190735,Wed Mar 26 2025 10:09:43 GMT-0500 (Central Daylight Time),387444.8000000715,A,pup,O,p,277,1,2032.8000000715256,385412.0,7094,WL,B,10.0
3,21.993000030517578,learn,38006.99996948242,Wed Mar 26 2025 10:09:43 GMT-0500 (Central Daylight Time),387710.40000009537,A,pupi,O,i,247,1,2298.4000000953674,385412.0,7094,WL,B,10.0
3,22.20900011062622,learn,37790.99988937378,Wed Mar 26 2025 10:09:43 GMT-0500 (Central Daylight Time),387927.0,A,pupil,O,l,199,1,2515.0,385412.0,7094,WL,B,10.0
3,22.926000118255615,learn,37073.999881744385,Wed Mar 26 2025 10:09:43 GMT-0500 (Central Daylight Time),388644.2000000477,A,pupilenter,O,enter,702,1,3232.2000000476837,385412.0,7094,WL,B,10.0
3,23.575000047683716,learn,36424.999952316284,Wed Mar 26 2025 10:09:43 GMT-0500 (Central Daylight Time),389293.10000002384,A,l,O,l,634,1,648.6000000238419,388644.5,7094,WL,B,11.0
3,23.693000078201294,learn,36306.999921798706,Wed Mar 26 2025 10:09:43 GMT-0500 (Central Daylight Time),389410.40000009537,A,la,O,a,104,1,765.9000000953674,388644.5,7094,WL,B,11.0
3,23.842000007629395,learn,36157.999992370605,Wed Mar 26 2025 10:09:43 GMT-0500 (Central Daylight Time),389560.2000000477,A,lak,O,k,139,1,915.7000000476837,388644.5,7094,WL,B,11.0
3,24.009000062942505,learn,35990.999937057495,Wed Mar 26 2025 10:09:43 GMT-0500 (Central Daylight Time),389726.7000000477,A,lake,O,e,149,1,1082.2000000476837,388644.5,7094,WL,B,11.0
3,24.391000032424927,learn,35608.99996757507,Wed Mar 26 2025 10:09:43 GMT-0500 (Central Daylight Time),390108.8000000715,A,lakeenter,O,enter,377,1,1464.3000000715256,388644.5,7094,WL,B,11.0
3,25.375,learn,34625.0,Wed Mar 26 2025 10:09:43 GMT-0500 (Central Daylight Time),391092.90000009537,A,p,O,p,978,1,983.9000000953674,390109.0,7094,WL,B,12.0
3,25.592999935150146,learn,34407.00006484985,Wed Mar 26 2025 10:09:43 GMT-0500 (Central Daylight Time),391310.3000000715,A,pi,O,i,212,1,1201.3000000715256,390109.0,7094,WL,B,12.0
3,25.759000062942505,learn,34240.999937057495,Wed Mar 26 2025 10:09:43 GMT-0500 (Central Daylight Time),391476.7000000477,A,pip,O,p,160,1,1367.7000000476837,390109.0,7094,WL,B,12.0
3,25.993000030517578,learn,34006.99996948242,Wed Mar 26 2025 10:09:43 GMT-0500 (Central Daylight Time),391710.40000009537,A,pipe,O,e,216,1,1601.4000000953674,390109.0,7094,WL,B,12.0
3,26.240999937057495,learn,33759.000062942505,Wed Mar 26 2025 10:09:43 GMT-0500 (Central Daylight Time),391959.2000000477,A,pipeenter,O,enter,230,1,1850.2000000476837,390109.0,7094,WL,B,12.0
3,28.39199995994568,learn,31608.00004005432,Wed Mar 26 2025 10:09:43 GMT-0500 (Central Daylight Time),394109.3000000715,A,f,O,f,2145,1,2149.8000000715256,391959.5,7094,WL,B,13.0
3,28.54200005531311,learn,31457.99994468689,Wed Mar 26 2025 10:09:43 GMT-0500 (Central Daylight Time),394259.2000000477,A,fi,O,i,128,1,2299.7000000476837,391959.5,7094,WL,B,13.0
3,28.77500009536743,learn,31224.99990463257,Wed Mar 26 2025 10:09:43 GMT-0500 (Central Daylight Time),394492.90000009537,A,fir,O,r,227,1,2533.4000000953674,391959.5,7094,WL,B,13.0
3,28.907000064849854,learn,31092.999935150146,Wed Mar 26 2025 10:09:43 GMT-0500 (Central Daylight Time),394624.8000000715,A,fire,O,e,121,1,2665.3000000715256,391959.5,7094,WL,B,13.0
3,33.02300000190735,learn,26976.99999809265,Wed Mar 26 2025 10:09:43 GMT-0500 (Central Daylight Time),398740.5,A,fireenter,O,enter,4095,1,6781.0,391959.5,7094,WL,B,13.0
3,34.039000034332275,learn,25960.999965667725,Wed Mar 26 2025 10:09:43 GMT-0500 (Central Daylight Time),399756.40000009537,A,p,O,p,1001,1,1015.6000000238419,398740.8000000715,7094,WL,B,14.0
3,34.33999991416931,learn,25660.00008583069,Wed Mar 26 2025 10:09:43 GMT-0500 (Central Daylight Time),400057.3000000715,A,pu,O,u,289,1,1316.5,398740.8000000715,7094,WL,B,14.0
3,34.58800005912781,learn,25411.999940872192,Wed Mar 26 2025 10:09:43 GMT-0500 (Central Daylight Time),400305.90000009537,A,pup,O,p,227,1,1565.1000000238419,398740.8000000715,7094,WL,B,14.0
3,34.82299995422363,learn,25177.000045776367,Wed Mar 26 2025 10:09:43 GMT-0500 (Central Daylight Time),400540.7000000477,A,pupi,O,i,219,1,1799.8999999761581,398740.8000000715,7094,WL,B,14.0
3,35.039000034332275,learn,24960.999965667725,Wed Mar 26 2025 10:09:43 GMT-0500 (Central Daylight Time),400757.0,A,pupil,O,l,211,1,2016.1999999284744,398740.8000000715,7094,WL,B,14.0
3,35.62100005149841,learn,24378.999948501587,Wed Mar 26 2025 10:09:43 GMT-0500 (Central Daylight Time),401338.90000009537,A,pupilenter,O,enter,566,1,2598.100000023842,398740.8000000715,7094,WL,B,14.0
3,37.13800001144409,learn,22861.99998855591,Wed Mar 26 2025 10:09:43 GMT-0500 (Central Daylight Time),402855.7000000477,A,c,O,c,1500,1,1516.5,401339.2000000477,7094,WL,B,15.0
3,37.270999908447266,learn,22729.000091552734,Wed Mar 26 2025 10:09:43 GMT-0500 (Central Daylight Time),402988.40000009537,A,cl,O,l,118,1,1649.2000000476837,401339.2000000477,7094,WL,B,15.0
3,37.437000036239624,learn,22562.999963760376,Wed Mar 26 2025 10:09:43 GMT-0500 (Central Daylight Time),403154.90000009537,A,clo,O,o,151,1,1815.7000000476837,401339.2000000477,7094,WL,B,15.0
3,37.57200002670288,learn,22427.99997329712,Wed Mar 26 2025 10:09:43 GMT-0500 (Central Daylight Time),403289.60000002384,A,cloc,O,c,122,1,1950.3999999761581,401339.2000000477,7094,WL,B,15.0
3,37.72099995613098,learn,22279.00004386902,Wed Mar 26 2025 10:09:43 GMT-0500 (Central Daylight Time),403438.8000000715,A,clock,O,k,139,1,2099.600000023842,401339.2000000477,7094,WL,B,15.0
3,38.1029999256134,learn,21897.000074386597,Wed Mar 26 2025 10:09:43 GMT-0500 (Central Daylight Time),403820.8000000715,A,clockenter,O,enter,372,1,2481.600000023842,401339.2000000477,7094,WL,B,15.0
4,0.7339999675750732,learn,59266.00003242493,Wed Mar 26 2025 10:09:43 GMT-0500 (Central Daylight Time),469851.7000000477,A,s,O,s,728,1,733.2999999523163,469118.40000009537,7094,WL,B,1.0
4,1.6329998970031738,learn,58367.000102996826,Wed Mar 26 2025 10:09:43 GMT-0500 (Central Daylight Time),470751.5,A,st,O,t,878,1,1633.0999999046326,469118.40000009537,7094,WL,B,1.0
4,1.8489999771118164,learn,58151.00002288818,Wed Mar 26 2025 10:09:43 GMT-0500 (Central Daylight Time),470967.2000000477,A,str,O,r,197,1,1848.7999999523163,469118.40000009537,7094,WL,B,1.0
4,1.931999921798706,learn,58068.000078201294,Wed Mar 26 2025 10:09:43 GMT-0500 (Central Daylight Time),471049.90000009537,A,stre,O,e,69,1,1931.5,469118.40000009537,7094,WL,B,1.0
4,2.131999969482422,learn,57868.00003051758,Wed Mar 26 2025 10:09:43 GMT-0500 (Central Daylight Time),471250.60000002384,A,stree,O,e,187,1,2132.1999999284744,469118.40000009537,7094,WL,B,1.0
4,2.2829999923706055,learn,57717.000007629395,Wed Mar 26 2025 10:09:43 GMT-0500 (Central Daylight Time),471401.10000002384,A,street,O,t,139,1,2282.6999999284744,469118.40000009537,7094,WL,B,1.0
4,2.9159998893737793,learn,57084.00011062622,Wed Mar 26 2025 10:09:43 GMT-0500 (Central Daylight Time),472033.60000002384,A,streetenter,O,enter,611,1,2915.1999999284744,469118.40000009537,7094,WL,B,1.0
4,3.6489999294281006,learn,56351.0000705719,Wed Mar 26 2025 10:09:43 GMT-0500 (Central Daylight Time),472767.5,A,g,O,g,716,1,733.5999999046326,472033.90000009537,7094,WL,B,2.0
4,3.88100004196167,learn,56118.99995803833,Wed Mar 26 2025 10:09:43 GMT-0500 (Central Daylight Time),472999.5,A,gr,O,r,223,1,965.5999999046326,472033.90000009537,7094,WL,B,2.0
4,4.047999858856201,learn,55952.0001411438,Wed Mar 26 2025 10:09:43 GMT-0500 (Central Daylight Time),473165.7000000477,A,gra,O,a,157,1,1131.7999999523163,472033.90000009537,7094,WL,B,2.0
4,4.181999921798706,learn,55818.000078201294,Wed Mar 26 2025 10:09:43 GMT-0500 (Central Daylight Time),473299.8000000715,A,gras,O,s,121,1,1265.8999999761581,472033.90000009537,7094,WL,B,2.0
4,4.347999811172485,learn,55652.000188827515,Wed Mar 26 2025 10:09:43 GMT-0500 (Central Daylight Time),473465.8000000715,A,grass,O,s,153,1,1431.8999999761581,472033.90000009537,7094,WL,B,2.0
4,4.497999906539917,learn,55502.00009346008,Wed Mar 26 2025 10:09:43 GMT-0500 (Central Daylight Time),473615.90000009537,A,grassenter,O,enter,130,1,1582.0,472033.90000009537,7094,WL,B,2.0
4,7.747999906539917,learn,52252.00009346008,Wed Mar 26 2025 10:09:43 GMT-0500 (Central Daylight Time),476866.8000000715,A,d,O,d,3245,1,3250.7000000476837,473616.10000002384,7094,WL,B,3.0
4,7.879999876022339,learn,52120.00012397766,Wed Mar 26 2025 10:09:43 GMT-0500 (Central Daylight Time),476998.40000009537,A,do,O,o,116,1,3382.3000000715256,473616.10000002384,7094,WL,B,3.0
4,8.04699993133545,learn,51953.00006866455,Wed Mar 26 2025 10:09:43 GMT-0500 (Central Daylight Time),477165.90000009537,A,doo,O,o,162,1,3549.8000000715256,473616.10000002384,7094,WL,B,3.0
4,8.214999914169312,learn,51785.00008583069,Wed Mar 26 2025 10:09:43 GMT-0500 (Central Daylight Time),477333.0,A,door,O,r,153,1,3716.899999976158,473616.10000002384,7094,WL,B,3.0
4,8.480000019073486,learn,51519.999980926514,Wed Mar 26 2025 10:09:43 GMT-0500 (Central Daylight Time),477598.7000000477,A,doorenter,O,enter,256,1,3982.600000023842,473616.10000002384,7094,WL,B,3.0
4,8.878999948501587,learn,51121.00005149841,Wed Mar 26 2025 10:09:43 GMT-0500 (Central Daylight Time),477997.8000000715,A,a,O,a,382,1,398.89999997615814,477598.90000009537,7094,WL,B,4.0
4,9.030999898910522,learn,50969.00010108948,Wed Mar 26 2025 10:09:43 GMT-0500 (Central Daylight Time),478149.3000000715,A,ar,O,r,146,1,550.3999999761581,477598.90000009537,7094,WL,B,4.0
4,9.21399998664856,learn,50786.00001335144,Wed Mar 26 2025 10:09:43 GMT-0500 (Central Daylight Time),478332.40000009537,A,arm,O,m,176,1,733.5,477598.90000009537,7094,WL,B,4.0
4,9.645999908447266,learn,50354.000091552734,Wed Mar 26 2025 10:09:43 GMT-0500 (Central Daylight Time),478764.3000000715,A,armenter,O,enter,417,1,1165.3999999761581,477598.90000009537,7094,WL,B,4.0
4,11.212999820709229,learn,48787.00017929077,Wed Mar 26 2025 10:09:43 GMT-0500 (Central Daylight Time),480331.60000002384,A,s,O,s,1554,1,1567.1000000238419,478764.5,7094,WL,B,5.0
4,11.395999908447266,learn,48604.000091552734,Wed Mar 26 2025 10:09:43 GMT-0500 (Central Daylight Time),480515.0,A,st,O,t,162,1,1750.5,478764.5,7094,WL,B,5.0
4,11.560999870300293,learn,48439.00012969971,Wed Mar 26 2025 10:09:43 GMT-0500 (Central Daylight Time),480679.8000000715,A,sta,O,a,145,1,1915.3000000715256,478764.5,7094,WL,B,5.0
4,11.661999940872192,learn,48338.00005912781,Wed Mar 26 2025 10:09:43 GMT-0500 (Central Daylight Time),480780.10000002384,A,star,O,r,78,1,2015.6000000238419,478764.5,7094,WL,B,5.0
4,12.060999870300293,learn,47939.00012969971,Wed Mar 26 2025 10:09:43 GMT-0500 (Central Daylight Time),481179.8000000715,A,starenter,O,enter,383,1,2415.3000000715256,478764.5,7094,WL,B,5.0
4,14.177000045776367,learn,45822.99995422363,Wed Mar 26 2025 10:09:43 GMT-0500 (Central Daylight Time),483295.8000000715,A,w,O,w,2097,1,2115.8000000715256,481180.0,7094,WL,B,6.0
4,14.279000043869019,learn,45720.99995613098,Wed Mar 26 2025 10:09:43 GMT-0500 (Central Daylight Time),483397.60000002384,A,wi,O,i,94,1,2217.600000023842,481180.0,7094,WL,B,6.0
4,14.444999933242798,learn,45555.0000667572,Wed Mar 26 2025 10:09:43 GMT-0500 (Central Daylight Time),483563.0,A,wif,O,f,151,1,2383.0,481180.0,7094,WL,B,6.0
4,14.543999910354614,learn,45456.000089645386,Wed Mar 26 2025 10:09:43 GMT-0500 (Central Daylight Time),483662.60000002384,A,wife,O,e,92,1,2482.600000023842,481180.0,7094,WL,B,6.0
4,14.744999885559082,learn,45255.00011444092,Wed Mar 26 2025 10:09:43 GMT-0500 (Central Daylight Time),483863.5,A,wifeenter,O,enter,182,1,2683.5,481180.0,7094,WL,B,6.0
4,15.027999877929688,learn,44972.00012207031,Wed Mar 26 2025 10:09:43 GMT-0500 (Central Daylight Time),484146.10000002384,A,w,O,w,270,1,282.39999997615814,483863.7000000477,7094,WL,B,7.0
4,15.194999933242798,learn,44805.0000667572,Wed Mar 26 2025 10:09:43 GMT-0500 (Central Daylight Time),484313.0,A,wi,O,i,154,1,449.2999999523163,483863.7000000477,7094,WL,B,7.0
4,15.360999822616577,learn,44639.00017738342,Wed Mar 26 2025 10:09:43 GMT-0500 (Central Daylight Time),484479.8000000715,A,wid,O,d,149,1,616.1000000238419,483863.7000000477,7094,WL,B,7.0
4,16.044999837875366,learn,43955.000162124634,Wed Mar 26 2025 10:09:43 GMT-0500 (Central Daylight Time),485163.0,A,widn,O,n,664,1,1299.2999999523163,483863.7000000477,7094,WL,B,7.0
4,16.245999813079834,learn,43754.000186920166,Wed Mar 26 2025 10:09:43 GMT-0500 (Central Daylight Time),485364.0,A,widno,O,o,196,1,1500.2999999523163,483863.7000000477,7094,WL,B,7.0
4,16.41100001335144,learn,43588.99998664856,Wed Mar 26 2025 10:09:43 GMT-0500 (Central Daylight Time),485529.2000000477,A,widnow,O,w,144,1,1665.5,483863.7000000477,7094,WL,B,7.0
4,16.944000005722046,learn,43055.999994277954,Wed Mar 26 2025 10:09:43 GMT-0500 (Central Daylight Time),486062.0,A,widno,O,backspace,525,1,2198.2999999523163,483863.7000000477,7094,WL,B,7.0
4,17.143999814987183,learn,42856.00018501282,Wed Mar 26 2025 10:09:43 GMT-0500 (Central Daylight Time),486262.5,A,widn,O,backspace,194,1,2398.7999999523163,483863.7000000477,7094,WL,B,7.0
4,17.325999975204468,learn,42674.00002479553,Wed Mar 26 2025 10:09:43 GMT-0500 (Central Daylight Time),486444.60000002384,A,wid,O,backspace,165,1,2580.899999976158,483863.7000000477,7094,WL,B,7.0
4,17.51099991798401,learn,42489.00008201599,Wed Mar 26 2025 10:09:43 GMT-0500 (Central Daylight Time),486629.8000000715,A,wi,O,backspace,170,1,2766.100000023842,483863.7000000477,7094,WL,B,7.0
4,17.859999895095825,learn,42140.000104904175,Wed Mar 26 2025 10:09:43 GMT-0500 (Central Daylight Time),486978.8000000715,A,win,O,n,343,1,3115.100000023842,483863.7000000477,7094,WL,B,7.0
4,17.993000030517578,learn,42006.99996948242,Wed Mar 26 2025 10:09:43 GMT-0500 (Central Daylight Time),487111.8000000715,A,wind,O,d,124,1,3248.100000023842,483863.7000000477,7094,WL,B,7.0
4,18.143999814987183,learn,41856.00018501282,Wed Mar 26 2025 10:09:43 GMT-0500 (Central Daylight Time),487262.40000009537,A,windo,O,o,134,1,3398.7000000476837,483863.7000000477,7094,WL,B,7.0
4,18.293999910354614,learn,41706.000089645386,Wed Mar 26 2025 10:09:43 GMT-0500 (Central Daylight Time),487412.5,A,window,O,w,143,1,3548.7999999523163,483863.7000000477,7094,WL,B,7.0
4,18.727999925613403,learn,41272.0000743866,Wed Mar 26 2025 10:09:43 GMT-0500 (Central Daylight Time),487846.3000000715,A,windowenter,O,enter,424,1,3982.600000023842,483863.7000000477,7094,WL,B,7.0
4,20.276999950408936,learn,39723.000049591064,Wed Mar 26 2025 10:09:43 GMT-0500 (Central Daylight Time),489395.8000000715,A,c,O,c,1526,1,1549.1000000238419,487846.7000000477,7094,WL,B,8.0
4,20.39199995994568,learn,39608.00004005432,Wed Mar 26 2025 10:09:43 GMT-0500 (Central Daylight Time),489510.90000009537,A,ci,O,i,96,1,1664.2000000476837,487846.7000000477,7094,WL,B,8.0
4,20.54199981689453,learn,39458.00018310547,Wed Mar 26 2025 10:09:43 GMT-0500 (Central Daylight Time),489660.2000000477,A,cit,O,t,134,1,1813.5,487846.7000000477,7094,WL,B,8.0
4,20.694000005722046,learn,39305.999994277954,Wed Mar 26 2025 10:09:43 GMT-0500 (Central Daylight Time),489812.2000000477,A,city,O,y,129,1,1965.5,487846.7000000477,7094,WL,B,8.0
4,24.073999881744385,learn,35926.000118255615,Wed Mar 26 2025 10:09:43 GMT-0500 (Central Daylight Time),493192.40000009537,A,cityenter,O,enter,3367,1,5345.700000047684,487846.7000000477,7094,WL,B,8.0
4,26.625,learn,33375.0,Wed Mar 26 2025 10:09:43 GMT-0500 (Central Daylight Time),495743.10000002384,A,p,O,p,2535,1,2550.5,493192.60000002384,7094,WL,B,9.0
4,27.007999897003174,learn,32992.000102996826,Wed Mar 26 2025 10:09:43 GMT-0500 (Central Daylight Time),496126.40000009537,A,pi,O,i,362,1,2933.8000000715256,493192.60000002384,7094,WL,B,9.0
4,28.073999881744385,learn,31926.000118255615,Wed Mar 26 2025 10:09:43 GMT-0500 (Central Daylight Time),497192.40000009537,A,p,O,backspace,1054,1,3999.8000000715256,493192.60000002384,7094,WL,B,9.0
4,28.83999991416931,learn,31160.00008583069,Wed Mar 26 2025 10:09:43 GMT-0500 (Central Daylight Time),497958.7000000477,A,pu,O,u,759,1,4766.100000023842,493192.60000002384,7094,WL,B,9.0
4,29.12399983406067,learn,30876.00016593933,Wed Mar 26 2025 10:09:43 GMT-0500 (Central Daylight Time),498242.0,A,pup,O,p,270,1,5049.399999976158,493192.60000002384,7094,WL,B,9.0
4,29.306999921798706,learn,30693.000078201294,Wed Mar 26 2025 10:09:43 GMT-0500 (Central Daylight Time),498425.8000000715,A,pupi,O,i,173,1,5233.200000047684,493192.60000002384,7094,WL,B,9.0
4,29.9229998588562,learn,30077.0001411438,Wed Mar 26 2025 10:09:43 GMT-0500 (Central Daylight Time),499041.3000000715,A,pupil,O,l,596,1,5848.700000047684,493192.60000002384,7094,WL,B,9.0
4,30.35699987411499,learn,29643.00012588501,Wed Mar 26 2025 10:09:43 GMT-0500 (Central Daylight Time),499475.90000009537,A,pupilenter,O,enter,429,1,6283.300000071526,493192.60000002384,7094,WL,B,9.0
4,30.85699987411499,learn,29143.00012588501,Wed Mar 26 2025 10:09:43 GMT-0500 (Central Daylight Time),499975.2000000477,A,c,O,c,482,1,499.0,499476.2000000477,7094,WL,B,10.0
4,31.055999994277954,learn,28944.000005722046,Wed Mar 26 2025 10:09:43 GMT-0500 (Central Daylight Time),500174.2000000477,A,ca,O,a,192,1,698.0,499476.2000000477,7094,WL,B,10.0
4,31.204999923706055,learn,28795.000076293945,Wed Mar 26 2025 10:09:43 GMT-0500 (Central Daylight Time),500323.2000000477,A,cab,O,b,134,1,847.0,499476.2000000477,7094,WL,B,10.0
4,31.457000017166138,learn,28542.999982833862,Wed Mar 26 2025 10:09:43 GMT-0500 (Central Daylight Time),500575.60000002384,A,cabi,O,i,236,1,1099.3999999761581,499476.2000000477,7094,WL,B,10.0
4,31.58899998664856,learn,28411.00001335144,Wed Mar 26 2025 10:09:43 GMT-0500 (Central Daylight Time),500707.2000000477,A,cabin,O,n,116,1,1231.0,499476.2000000477,7094,WL,B,10.0
4,34.853999853134155,learn,25146.000146865845,Wed Mar 26 2025 10:09:43 GMT-0500 (Central Daylight Time),503972.3000000715,A,cabinenter,O,enter,3251,1,4496.100000023842,499476.2000000477,7094,WL,B,10.0
4,36.103999853134155,learn,23896.000146865845,Wed Mar 26 2025 10:09:43 GMT-0500 (Central Daylight Time),505222.60000002384,A,f,O,f,1245,1,1250.0,503972.60000002384,7094,WL,B,11.0
4,36.23899984359741,learn,23761.000156402588,Wed Mar 26 2025 10:09:43 GMT-0500 (Central Daylight Time),505357.8000000715,A,fi,O,i,129,1,1385.2000000476837,503972.60000002384,7094,WL,B,11.0
4,36.40499997138977,learn,23595.00002861023,Wed Mar 26 2025 10:09:43 GMT-0500 (Central Daylight Time),505524.0,A,fir,O,r,141,1,1551.3999999761581,503972.60000002384,7094,WL,B,11.0
4,36.50399994850159,learn,23496.000051498413,Wed Mar 26 2025 10:09:43 GMT-0500 (Central Daylight Time),505622.5,A,fire,O,e,87,1,1649.8999999761581,503972.60000002384,7094,WL,B,11.0
4,38.78699994087219,learn,21213.000059127808,Wed Mar 26 2025 10:09:43 GMT-0500 (Central Daylight Time),507905.40000009537,A,fireenter,O,enter,2271,1,3932.8000000715256,503972.60000002384,7094,WL,B,11.0
4,39.33699989318848,learn,20663.000106811523,Wed Mar 26 2025 10:09:43 GMT-0500 (Central Daylight Time),508455.5,A,p,O,p,532,1,549.7999999523163,507905.7000000477,7094,WL,B,12.0
4,39.519999980926514,learn,20480.000019073486,Wed Mar 26 2025 10:09:43 GMT-0500 (Central Daylight Time),508638.3000000715,A,pi,O,i,165,1,732.6000000238419,507905.7000000477,7094,WL,B,12.0
4,39.72000002861023,learn,20279.99997138977,Wed Mar 26 2025 10:09:43 GMT-0500 (Central Daylight Time),508838.60000002384,A,pip,O,p,178,1,932.8999999761581,507905.7000000477,7094,WL,B,12.0
4,40.08799982070923,learn,19912.00017929077,Wed Mar 26 2025 10:09:43 GMT-0500 (Central Daylight Time),509206.7000000477,A,pipe,O,e,361,1,1301.0,507905.7000000477,7094,WL,B,12.0
4,40.370999813079834,learn,19629.000186920166,Wed Mar 26 2025 10:09:43 GMT-0500 (Central Daylight Time),509489.8000000715,A,pipeenter,O,enter,270,1,1584.1000000238419,507905.7000000477,7094,WL,B,12.0
4,40.7039999961853,learn,19296.000003814697,Wed Mar 26 2025 10:09:43 GMT-0500 (Central Daylight Time),509822.40000009537,A,s,O,s,316,1,332.3000000715256,509490.10000002384,7094,WL,B,13.0
4,40.88699984550476,learn,19113.00015449524,Wed Mar 26 2025 10:09:43 GMT-0500 (Central Daylight Time),510005.2000000477,A,sk,O,k,177,1,515.1000000238419,509490.10000002384,7094,WL,B,13.0
4,41.40299987792969,learn,18597.000122070312,Wed Mar 26 2025 10:09:43 GMT-0500 (Central Daylight Time),510521.7000000477,A,ski,O,i,504,1,1031.6000000238419,509490.10000002384,7094,WL,B,13.0
4,41.63699984550476,learn,18363.00015449524,Wed Mar 26 2025 10:09:43 GMT-0500 (Central Daylight Time),510755.5,A,skin,O,n,228,1,1265.3999999761581,509490.10000002384,7094,WL,B,13.0
4,42.26899981498718,learn,17731.000185012817,Wed Mar 26 2025 10:09:43 GMT-0500 (Central Daylight Time),511387.3000000715,A,skinenter,O,enter,618,1,1897.2000000476837,509490.10000002384,7094,WL,B,13.0
4,42.8199999332428,learn,17180.000066757202,Wed Mar 26 2025 10:09:43 GMT-0500 (Central Daylight Time),511938.2000000477,A,c,O,c,531,1,550.7000000476837,511387.5,7094,WL,B,14.0
4,42.98599982261658,learn,17014.000177383423,Wed Mar 26 2025 10:09:43 GMT-0500 (Central Daylight Time),512104.5,A,cl,O,l,148,1,717.0,511387.5,7094,WL,B,14.0
4,43.93599987030029,learn,16064.000129699707,Wed Mar 26 2025 10:09:43 GMT-0500 (Central Daylight Time),513054.2000000477,A,clo,O,o,943,1,1666.7000000476837,511387.5,7094,WL,B,14.0
4,44.20199990272522,learn,15798.00009727478,Wed Mar 26 2025 10:09:43 GMT-0500 (Central Daylight Time),513320.7000000477,A,cloc,O,c,246,1,1933.2000000476837,511387.5,7094,WL,B,14.0
4,44.41799998283386,learn,15582.000017166138,Wed Mar 26 2025 10:09:43 GMT-0500 (Central Daylight Time),513536.90000009537,A,clock,O,k,204,1,2149.4000000953674,511387.5,7094,WL,B,14.0
4,46.633999824523926,learn,13366.000175476074,Wed Mar 26 2025 10:09:43 GMT-0500 (Central Daylight Time),515752.3000000715,A,clockenter,O,enter,2196,1,4364.800000071526,511387.5,7094,WL,B,14.0
4,48.08500003814697,learn,11914.999961853027,Wed Mar 26 2025 10:09:43 GMT-0500 (Central Daylight Time),517203.3000000715,A,p,O,p,1430,1,1450.7000000476837,515752.60000002384,7094,WL,B,15.0
4,48.33399987220764,learn,11666.000127792358,Wed Mar 26 2025 10:09:43 GMT-0500 (Central Daylight Time),517452.90000009537,A,pu,O,u,241,1,1700.3000000715256,515752.60000002384,7094,WL,B,15.0
4,48.53399991989136,learn,11466.000080108643,Wed Mar 26 2025 10:09:43 GMT-0500 (Central Daylight Time),517652.10000002384,A,pup,O,p,184,1,1899.5,515752.60000002384,7094,WL,B,15.0
4,48.799999952316284,learn,11200.000047683716,Wed Mar 26 2025 10:09:43 GMT-0500 (Central Daylight Time),517918.3000000715,A,pupi,O,i,257,1,2165.7000000476837,515752.60000002384,7094,WL,B,15.0
4,49.050999879837036,learn,10949.000120162964,Wed Mar 26 2025 10:09:43 GMT-0500 (Central Daylight Time),518169.40000009537,A,pupil,O,l,230,1,2416.8000000715256,515752.60000002384,7094,WL,B,15.0
4,49.865999937057495,learn,10134.000062942505,Wed Mar 26 2025 10:09:43 GMT-0500 (Central Daylight Time),518984.40000009537,A,pupilenter,O,enter,796,1,3231.8000000715256,515752.60000002384,7094,WL,B,15.0
5,1.1640000343322754,learn,60000.0,Wed Mar 26 2025 10:09:43 GMT-0500 (Central Daylight Time),586647.0,A,s,O,s,1146,1,1163.8999999761581,585483.1000000238,7094,WL,B,1.0
5,1.3640000820159912,learn,60000.0,Wed Mar 26 2025 10:09:43 GMT-0500 (Central Daylight Time),586846.7000000477,A,st,O,t,178,1,1363.6000000238419,585483.1000000238,7094,WL,B,1.0
5,1.6130001544952393,learn,60000.0,Wed Mar 26 2025 10:09:43 GMT-0500 (Central Daylight Time),587096.0,A,str,O,r,238,1,1612.8999999761581,585483.1000000238,7094,WL,B,1.0
5,1.680999994277954,learn,60000.0,Wed Mar 26 2025 10:09:43 GMT-0500 (Central Daylight Time),587164.3000000715,A,stre,O,e,63,1,1681.2000000476837,585483.1000000238,7094,WL,B,1.0
5,1.8980000019073486,learn,60000.0,Wed Mar 26 2025 10:09:43 GMT-0500 (Central Daylight Time),587380.4000000954,A,stree,O,e,201,1,1897.3000000715256,585483.1000000238,7094,WL,B,1.0
5,2.0490000247955322,learn,60000.0,Wed Mar 26 2025 10:09:43 GMT-0500 (Central Daylight Time),587531.7000000477,A,street,O,t,146,1,2048.600000023842,585483.1000000238,7094,WL,B,1.0
5,3.447000026702881,learn,60000.0,Wed Mar 26 2025 10:09:43 GMT-0500 (Central Daylight Time),588929.4000000954,A,streetenter,O,enter,1385,1,3446.3000000715256,585483.1000000238,7094,WL,B,1.0
5,4.164000034332275,learn,60000.0,Wed Mar 26 2025 10:09:43 GMT-0500 (Central Daylight Time),589647.2000000477,A,g,O,g,700,1,717.5,588929.7000000477,7094,WL,B,2.0
5,4.315000057220459,learn,60000.0,Wed Mar 26 2025 10:09:43 GMT-0500 (Central Daylight Time),589797.4000000954,A,gr,O,r,144,1,867.7000000476837,588929.7000000477,7094,WL,B,2.0
5,4.496999979019165,learn,60000.0,Wed Mar 26 2025 10:09:43 GMT-0500 (Central Daylight Time),589979.7000000477,A,gra,O,a,160,1,1050.0,588929.7000000477,7094,WL,B,2.0
5,4.647000074386597,learn,60000.0,Wed Mar 26 2025 10:09:43 GMT-0500 (Central Daylight Time),590129.4000000954,A,gras,O,s,129,1,1199.7000000476837,588929.7000000477,7094,WL,B,2.0
5,4.8460001945495605,learn,60000.0,Wed Mar 26 2025 10:09:43 GMT-0500 (Central Daylight Time),590329.1000000238,A,grass,O,s,179,1,1399.3999999761581,588929.7000000477,7094,WL,B,2.0
5,5.1620001792907715,learn,60000.0,Wed Mar 26 2025 10:09:43 GMT-0500 (Central Daylight Time),590645.3000000715,A,grassenter,O,enter,306,1,1715.6000000238419,588929.7000000477,7094,WL,B,2.0
5,6.828999996185303,learn,60000.0,Wed Mar 26 2025 10:09:43 GMT-0500 (Central Daylight Time),592311.7000000477,A,d,O,d,1657,1,1666.2000000476837,590645.5,7094,WL,B,3.0
5,7.081000089645386,learn,60000.0,Wed Mar 26 2025 10:09:43 GMT-0500 (Central Daylight Time),592563.5,A,do,O,o,245,1,1918.0,590645.5,7094,WL,B,3.0
5,7.263000011444092,learn,60000.0,Wed Mar 26 2025 10:09:43 GMT-0500 (Central Daylight Time),592746.2000000477,A,doo,O,o,162,1,2100.7000000476837,590645.5,7094,WL,B,3.0
5,7.447000026702881,learn,60000.0,Wed Mar 26 2025 10:09:43 GMT-0500 (Central Daylight Time),592929.6000000238,A,door,O,r,162,1,2284.100000023842,590645.5,7094,WL,B,3.0
5,7.696000099182129,learn,60000.0,Wed Mar 26 2025 10:09:43 GMT-0500 (Central Daylight Time),593178.5,A,doorenter,O,enter,230,1,2533.0,590645.5,7094,WL,B,3.0
5,8.063000202178955,learn,60000.0,Wed Mar 26 2025 10:09:43 GMT-0500 (Central Daylight Time),593545.9000000954,A,a,O,a,356,1,367.3000000715256,593178.6000000238,7094,WL,B,4.0
5,8.378000020980835,learn,60000.0,Wed Mar 26 2025 10:09:43 GMT-0500 (Central Daylight Time),593860.9000000954,A,ar,O,r,299,1,682.3000000715256,593178.6000000238,7094,WL,B,4.0
5,8.546000003814697,learn,60000.0,Wed Mar 26 2025 10:09:43 GMT-0500 (Central Daylight Time),594029.3000000715,A,arm,O,m,161,1,850.7000000476837,593178.6000000238,7094,WL,B,4.0
5,9.26200008392334,learn,60000.0,Wed Mar 26 2025 10:09:43 GMT-0500 (Central Daylight Time),594744.9000000954,A,armenter,O,enter,704,1,1566.3000000715256,593178.6000000238,7094,WL,B,4.0
5,10.628000020980835,learn,60000.0,Wed Mar 26 2025 10:09:43 GMT-0500 (Central Daylight Time),596111.3000000715,A,s,O,s,1358,1,1366.2000000476837,594745.1000000238,7094,WL,B,5.0
5,10.82800006866455,learn,60000.0,Wed Mar 26 2025 10:09:43 GMT-0500 (Central Daylight Time),596311.7000000477,A,st,O,t,177,1,1566.6000000238419,594745.1000000238,7094,WL,B,5.0
5,10.993000030517578,learn,60000.0,Wed Mar 26 2025 10:09:43 GMT-0500 (Central Daylight Time),596476.4000000954,A,sta,O,a,159,1,1731.3000000715256,594745.1000000238,7094,WL,B,5.0
5,11.09500002861023,learn,60000.0,Wed Mar 26 2025 10:09:43 GMT-0500 (Central Daylight Time),596578.5,A,star,O,r,80,1,1833.3999999761581,594745.1000000238,7094,WL,B,5.0
5,11.4760000705719,learn,60000.0,Wed Mar 26 2025 10:09:43 GMT-0500 (Central Daylight Time),596959.0,A,starenter,O,enter,369,1,2213.899999976158,594745.1000000238,7094,WL,B,5.0
5,11.876000165939331,learn,60000.0,Wed Mar 26 2025 10:09:43 GMT-0500 (Central Daylight Time),597359.8000000715,A,w,O,w,391,1,400.5,596959.3000000715,7094,WL,B,6.0
5,12.014000177383423,learn,60000.0,Wed Mar 26 2025 10:09:43 GMT-0500 (Central Daylight Time),597497.6000000238,A,wi,O,i,117,1,538.2999999523163,596959.3000000715,7094,WL,B,6.0
5,12.177000045776367,learn,60000.0,Wed Mar 26 2025 10:09:43 GMT-0500 (Central Daylight Time),597660.5,A,wif,O,f,148,1,701.1999999284744,596959.3000000715,7094,WL,B,6.0
5,12.243000030517578,learn,60000.0,Wed Mar 26 2025 10:09:43 GMT-0500 (Central Daylight Time),597726.8000000715,A,wife,O,e,55,1,767.5,596959.3000000715,7094,WL,B,6.0
5,12.443000078201294,learn,60000.0,Wed Mar 26 2025 10:09:43 GMT-0500 (Central Daylight Time),597926.1000000238,A,wifeenter,O,enter,180,1,966.7999999523163,596959.3000000715,7094,WL,B,6.0
5,13.093000173568726,learn,60000.0,Wed Mar 26 2025 10:09:43 GMT-0500 (Central Daylight Time),598576.4000000954,A,w,O,w,630,1,650.1000000238419,597926.3000000715,7094,WL,B,7.0
5,13.278000116348267,learn,60000.0,Wed Mar 26 2025 10:09:43 GMT-0500 (Central Daylight Time),598760.8000000715,A,wi,O,i,164,1,834.5,597926.3000000715,7094,WL,B,7.0
5,13.561000108718872,learn,60000.0,Wed Mar 26 2025 10:09:43 GMT-0500 (Central Daylight Time),599044.3000000715,A,win,O,n,275,1,1118.0,597926.3000000715,7094,WL,B,7.0
5,13.827000141143799,learn,60000.0,Wed Mar 26 2025 10:09:43 GMT-0500 (Central Daylight Time),599310.1000000238,A,wind,O,d,247,1,1383.7999999523163,597926.3000000715,7094,WL,B,7.0
5,13.960999965667725,learn,60000.0,Wed Mar 26 2025 10:09:43 GMT-0500 (Central Daylight Time),599443.8000000715,A,windo,O,o,112,1,1517.5,597926.3000000715,7094,WL,B,7.0
5,14.110000133514404,learn,60000.0,Wed Mar 26 2025 10:09:43 GMT-0500 (Central Daylight Time),599593.4000000954,A,window,O,w,128,1,1667.1000000238419,597926.3000000715,7094,WL,B,7.0
5,14.492000102996826,learn,60000.0,Wed Mar 26 2025 10:09:43 GMT-0500 (Central Daylight Time),599975.5,A,windowenter,O,enter,363,1,2049.1999999284744,597926.3000000715,7094,WL,B,7.0
5,15.160000085830688,learn,60000.0,Wed Mar 26 2025 10:09:43 GMT-0500 (Central Daylight Time),600642.9000000954,A,c,O,c,646,1,667.1000000238419,599975.8000000715,7094,WL,B,8.0
5,15.277000188827515,learn,60000.0,Wed Mar 26 2025 10:09:43 GMT-0500 (Central Daylight Time),600759.9000000954,A,ci,O,i,96,1,784.1000000238419,599975.8000000715,7094,WL,B,8.0
5,15.426000118255615,learn,60000.0,Wed Mar 26 2025 10:09:43 GMT-0500 (Central Daylight Time),600909.4000000954,A,cit,O,t,133,1,933.6000000238419,599975.8000000715,7094,WL,B,8.0
5,15.561000108718872,learn,60000.0,Wed Mar 26 2025 10:09:43 GMT-0500 (Central Daylight Time),601044.0,A,city,O,y,112,1,1068.1999999284744,599975.8000000715,7094,WL,B,8.0
5,16.075000047683716,learn,60000.0,Wed Mar 26 2025 10:09:43 GMT-0500 (Central Daylight Time),601558.1000000238,A,cityenter,O,enter,497,1,1582.2999999523163,599975.8000000715,7094,WL,B,8.0
5,17.14300012588501,learn,60000.0,Wed Mar 26 2025 10:09:43 GMT-0500 (Central Daylight Time),602625.9000000954,A,p,O,p,1056,1,1067.6000000238419,601558.3000000715,7094,WL,B,9.0
5,17.45900011062622,learn,60000.0,Wed Mar 26 2025 10:09:43 GMT-0500 (Central Daylight Time),602942.4000000954,A,pu,O,u,299,1,1384.1000000238419,601558.3000000715,7094,WL,B,9.0
5,17.69099998474121,learn,60000.0,Wed Mar 26 2025 10:09:43 GMT-0500 (Central Daylight Time),603174.8000000715,A,pup,O,p,222,1,1616.5,601558.3000000715,7094,WL,B,9.0
5,17.95800018310547,learn,60000.0,Wed Mar 26 2025 10:09:43 GMT-0500 (Central Daylight Time),603441.2000000477,A,pupi,O,i,254,1,1882.8999999761581,601558.3000000715,7094,WL,B,9.0
5,18.159000158309937,learn,60000.0,Wed Mar 26 2025 10:09:43 GMT-0500 (Central Daylight Time),603641.7000000477,A,pupil,O,l,180,1,2083.399999976158,601558.3000000715,7094,WL,B,9.0
5,18.591000080108643,learn,60000.0,Wed Mar 26 2025 10:09:43 GMT-0500 (Central Daylight Time),604074.2000000477,A,pupilenter,O,enter,412,1,2515.899999976158,601558.3000000715,7094,WL,B,9.0
5,19.040000200271606,learn,60000.0,Wed Mar 26 2025 10:09:43 GMT-0500 (Central Daylight Time),604523.5,A,c,O,c,435,1,448.89999997615814,604074.6000000238,7094,WL,B,10.0
5,19.792999982833862,learn,60000.0,Wed Mar 26 2025 10:09:43 GMT-0500 (Central Daylight Time),605275.9000000954,A,ca,O,a,730,1,1201.3000000715256,604074.6000000238,7094,WL,B,10.0
5,19.973999977111816,learn,60000.0,Wed Mar 26 2025 10:09:43 GMT-0500 (Central Daylight Time),605457.4000000954,A,cab,O,b,162,1,1382.8000000715256,604074.6000000238,7094,WL,B,10.0
5,20.29100012779236,learn,60000.0,Wed Mar 26 2025 10:09:43 GMT-0500 (Central Daylight Time),605774.7000000477,A,cabi,O,i,300,1,1700.1000000238419,604074.6000000238,7094,WL,B,10.0
5,20.45900011062622,learn,60000.0,Wed Mar 26 2025 10:09:43 GMT-0500 (Central Daylight Time),605941.9000000954,A,cabin,O,n,159,1,1867.3000000715256,604074.6000000238,7094,WL,B,10.0
5,20.907000064849854,learn,60000.0,Wed Mar 26 2025 10:09:43 GMT-0500 (Central Daylight Time),606390.0,A,cabinenter,O,enter,430,1,2315.399999976158,604074.6000000238,7094,WL,B,10.0
5,24.874000072479248,learn,60000.0,Wed Mar 26 2025 10:09:43 GMT-0500 (Central Daylight Time),610357.0,A,l,O,l,3950,1,3966.6999999284744,606390.3000000715,7094,WL,B,11.0
5,25.123000144958496,learn,60000.0,Wed Mar 26 2025 10:09:43 GMT-0500 (Central Daylight Time),610606.4000000954,A,la,O,a,241,1,4216.100000023842,606390.3000000715,7094,WL,B,11.0
5,25.42300009727478,learn,60000.0,Wed Mar 26 2025 10:09:43 GMT-0500 (Central Daylight Time),610906.7000000477,A,lak,O,k,286,1,4516.399999976158,606390.3000000715,7094,WL,B,11.0
5,25.973999977111816,learn,60000.0,Wed Mar 26 2025 10:09:43 GMT-0500 (Central Daylight Time),611456.8000000715,A,lake,O,e,540,1,5066.5,606390.3000000715,7094,WL,B,11.0
5,26.4060001373291,learn,60000.0,Wed Mar 26 2025 10:09:43 GMT-0500 (Central Daylight Time),611889.3000000715,A,lakeenter,O,enter,413,1,5499.0,606390.3000000715,7094,WL,B,11.0
5,26.98900008201599,learn,60000.0,Wed Mar 26 2025 10:09:43 GMT-0500 (Central Daylight Time),612472.2000000477,A,p,O,p,563,1,582.6000000238419,611889.6000000238,7094,WL,B,12.0
5,27.255000114440918,learn,60000.0,Wed Mar 26 2025 10:09:43 GMT-0500 (Central Daylight Time),612738.2000000477,A,pi,O,i,251,1,848.6000000238419,611889.6000000238,7094,WL,B,12.0
5,27.473999977111816,learn,60000.0,Wed Mar 26 2025 10:09:43 GMT-0500 (Central Daylight Time),612957.7000000477,A,pip,O,p,196,1,1068.1000000238419,611889.6000000238,7094,WL,B,12.0
5,27.639000177383423,learn,60000.0,Wed Mar 26 2025 10:09:43 GMT-0500 (Central Daylight Time),613122.5,A,pipe,O,e,151,1,1232.8999999761581,611889.6000000238,7094,WL,B,12.0
5,27.973000049591064,learn,60000.0,Wed Mar 26 2025 10:09:43 GMT-0500 (Central Daylight Time),613456.5,A,pipeenter,O,enter,324,1,1566.8999999761581,611889.6000000238,7094,WL,B,12.0
5,28.490000009536743,learn,60000.0,Wed Mar 26 2025 10:09:43 GMT-0500 (Central Daylight Time),613972.9000000954,A,s,O,s,501,1,516.2000000476837,613456.7000000477,7094,WL,B,13.0
5,28.67300009727478,learn,60000.0,Wed Mar 26 2025 10:09:43 GMT-0500 (Central Daylight Time),614156.4000000954,A,sk,O,k,167,1,699.7000000476837,613456.7000000477,7094,WL,B,13.0
5,28.871999979019165,learn,60000.0,Wed Mar 26 2025 10:09:43 GMT-0500 (Central Daylight Time),614355.6000000238,A,ski,O,i,185,1,898.8999999761581,613456.7000000477,7094,WL,B,13.0
5,29.055999994277954,learn,60000.0,Wed Mar 26 2025 10:09:43 GMT-0500 (Central Daylight Time),614539.4000000954,A,skii,O,i,170,1,1082.7000000476837,613456.7000000477,7094,WL,B,13.0
5,29.67200016975403,learn,60000.0,Wed Mar 26 2025 10:09:43 GMT-0500 (Central Daylight Time),615155.2000000477,A,ski,O,backspace,601,1,1698.5,613456.7000000477,7094,WL,B,13.0
5,29.953999996185303,learn,60000.0,Wed Mar 26 2025 10:09:43 GMT-0500 (Central Daylight Time),615437.6000000238,A,skin,O,n,275,1,1980.8999999761581,613456.7000000477,7094,WL,B,13.0
5,30.388000011444092,learn,60000.0,Wed Mar 26 2025 10:09:43 GMT-0500 (Central Daylight Time),615870.8000000715,A,skinenter,O,enter,413,1,2414.100000023842,613456.7000000477,7094,WL,B,13.0
5,31.07100009918213,learn,60000.0,Wed Mar 26 2025 10:09:43 GMT-0500 (Central Daylight Time),616554.4000000954,A,f,O,f,672,1,683.4000000953674,615871.0,7094,WL,B,14.0
5,31.272000074386597,learn,60000.0,Wed Mar 26 2025 10:09:43 GMT-0500 (Central Daylight Time),616755.5,A,fi,O,i,186,1,884.5,615871.0,7094,WL,B,14.0
5,31.388000011444092,learn,60000.0,Wed Mar 26 2025 10:09:43 GMT-0500 (Central Daylight Time),616870.8000000715,A,fir,O,r,105,1,999.8000000715256,615871.0,7094,WL,B,14.0
5,31.504000186920166,learn,60000.0,Wed Mar 26 2025 10:09:43 GMT-0500 (Central Daylight Time),616987.4000000954,A,fire,O,e,101,1,1116.4000000953674,615871.0,7094,WL,B,14.0
5,31.688000202178955,learn,60000.0,Wed Mar 26 2025 10:09:43 GMT-0500 (Central Daylight Time),617171.3000000715,A,fireenter,O,enter,177,1,1300.3000000715256,615871.0,7094,WL,B,14.0
5,32.019999980926514,learn,60000.0,Wed Mar 26 2025 10:09:43 GMT-0500 (Central Daylight Time),617503.4000000954,A,c,O,c,313,1,331.8000000715256,617171.6000000238,7094,WL,B,15.0
5,32.1710000038147,learn,60000.0,Wed Mar 26 2025 10:09:43 GMT-0500 (Central Daylight Time),617654.4000000954,A,cl,O,l,133,1,482.8000000715256,617171.6000000238,7094,WL,B,15.0
5,32.355000019073486,learn,60000.0,Wed Mar 26 2025 10:09:43 GMT-0500 (Central Daylight Time),617838.5,A,clo,O,o,178,1,666.8999999761581,617171.6000000238,7094,WL,B,15.0
5,32.521000146865845,learn,60000.0,Wed Mar 26 2025 10:09:43 GMT-0500 (Central Daylight Time),618004.0,A,cloc,O,c,151,1,832.3999999761581,617171.6000000238,7094,WL,B,15.0
5,32.63800001144409,learn,60000.0,Wed Mar 26 2025 10:09:43 GMT-0500 (Central Daylight Time),618121.1000000238,A,clock,O,k,96,1,949.5,617171.6000000238,7094,WL,B,15.0
5,33.03700017929077,learn,60000.0,Wed Mar 26 2025 10:09:43 GMT-0500 (Central Daylight Time),618519.8000000715,A,clockenter,O,enter,388,1,1348.2000000476837,617171.6000000238,7094,WL,B,15.0
6,1.3660001754760742,distr,58633.999824523926,Wed Mar 26 2025 10:09:43 GMT-0500 (Central Daylight Time),688247.6000000238,B,b,O,b,1347,1,1365.3999999761581,686882.2000000477,7094,WL,B,1.0
6,1.6010000705718994,distr,58398.9999294281,Wed Mar 26 2025 10:09:43 GMT-0500 (Central Daylight Time),688482.4000000954,B,ba,O,a,213,1,1600.2000000476837,686882.2000000477,7094,WL,B,1.0
6,1.7829999923706055,distr,58217.000007629395,Wed Mar 26 2025 10:09:43 GMT-0500 (Central Daylight Time),688664.7000000477,B,bab,O,b,171,1,1782.5,686882.2000000477,7094,WL,B,1.0
6,2.1490001678466797,distr,57850.99983215332,Wed Mar 26 2025 10:09:43 GMT-0500 (Central Daylight Time),689031.0,B,baby,O,y,359,1,2148.7999999523163,686882.2000000477,7094,WL,B,1.0
6,2.699000120162964,distr,57300.999879837036,Wed Mar 26 2025 10:09:43 GMT-0500 (Central Daylight Time),689580.8000000715,B,babyenter,O,enter,542,1,2698.600000023842,686882.2000000477,7094,WL,B,1.0
6,3.3500001430511475,distr,56649.99985694885,Wed Mar 26 2025 10:09:43 GMT-0500 (Central Daylight Time),690231.6000000238,B,o,O,o,629,1,650.5,689581.1000000238,7094,WL,B,2.0
6,3.4660000801086426,distr,56533.99991989136,Wed Mar 26 2025 10:09:43 GMT-0500 (Central Daylight Time),690347.3000000715,B,oc,O,c,101,1,766.2000000476837,689581.1000000238,7094,WL,B,2.0
6,3.7170000076293945,distr,56282.999992370605,Wed Mar 26 2025 10:09:43 GMT-0500 (Central Daylight Time),690598.5,B,oce,O,e,244,1,1017.3999999761581,689581.1000000238,7094,WL,B,2.0
6,3.933000087738037,distr,56066.99991226196,Wed Mar 26 2025 10:09:43 GMT-0500 (Central Daylight Time),690814.5,B,ocea,O,a,207,1,1233.3999999761581,689581.1000000238,7094,WL,B,2.0
6,4.065999984741211,distr,55934.00001525879,Wed Mar 26 2025 10:09:43 GMT-0500 (Central Daylight Time),690947.8000000715,B,ocean,O,n,110,1,1366.7000000476837,689581.1000000238,7094,WL,B,2.0
6,4.39900016784668,distr,55600.99983215332,Wed Mar 26 2025 10:09:43 GMT-0500 (Central Daylight Time),691280.4000000954,B,oceanenter,O,enter,314,1,1699.3000000715256,689581.1000000238,7094,WL,B,2.0
6,5.516000032424927,distr,54483.99996757507,Wed Mar 26 2025 10:09:43 GMT-0500 (Central Daylight Time),692397.9000000954,B,p,O,p,1113,1,1117.3000000715256,691280.6000000238,7094,WL,B,3.0
6,5.648000001907349,distr,54351.99999809265,Wed Mar 26 2025 10:09:43 GMT-0500 (Central Daylight Time),692529.7000000477,B,pa,O,a,119,1,1249.1000000238419,691280.6000000238,7094,WL,B,3.0
6,5.9150002002716064,distr,54084.99979972839,Wed Mar 26 2025 10:09:43 GMT-0500 (Central Daylight Time),692796.9000000954,B,pal,O,l,252,1,1516.3000000715256,691280.6000000238,7094,WL,B,3.0
6,6.483000040054321,distr,53516.99995994568,Wed Mar 26 2025 10:09:43 GMT-0500 (Central Daylight Time),693364.2000000477,B,pala,O,a,561,1,2083.600000023842,691280.6000000238,7094,WL,B,3.0
6,6.647000074386597,distr,53352.9999256134,Wed Mar 26 2025 10:09:43 GMT-0500 (Central Daylight Time),693528.2000000477,B,palac,O,c,151,1,2247.600000023842,691280.6000000238,7094,WL,B,3.0
6,6.765000104904175,distr,53234.999895095825,Wed Mar 26 2025 10:09:43 GMT-0500 (Central Daylight Time),693646.6000000238,B,palace,O,e,109,1,2366.0,691280.6000000238,7094,WL,B,3.0
6,7.215000152587891,distr,52784.99984741211,Wed Mar 26 2025 10:09:43 GMT-0500 (Central Daylight Time),694097.1000000238,B,palaceenter,O,enter,432,1,2816.5,691280.6000000238,7094,WL,B,3.0
6,7.898000001907349,distr,52101.99999809265,Wed Mar 26 2025 10:09:43 GMT-0500 (Central Daylight Time),694779.9000000954,B,l,O,l,669,1,682.6000000238419,694097.3000000715,7094,WL,B,4.0
6,8.23200011253357,distr,51767.99988746643,Wed Mar 26 2025 10:09:43 GMT-0500 (Central Daylight Time),695113.6000000238,B,li,O,i,312,1,1016.2999999523163,694097.3000000715,7094,WL,B,4.0
6,8.564000129699707,distr,51435.99987030029,Wed Mar 26 2025 10:09:43 GMT-0500 (Central Daylight Time),695445.7000000477,B,lip,O,p,316,1,1348.3999999761581,694097.3000000715,7094,WL,B,4.0
6,9.597000122070312,distr,50402.99987792969,Wed Mar 26 2025 10:09:43 GMT-0500 (Central Daylight Time),696478.5,B,lipenter,O,enter,1015,1,2381.1999999284744,694097.3000000715,7094,WL,B,4.0
6,10.796000003814697,distr,49203.9999961853,Wed Mar 26 2025 10:09:43 GMT-0500 (Central Daylight Time),697677.7000000477,B,b,O,b,1184,1,1199.0,696478.7000000477,7094,WL,B,5.0
6,10.96399998664856,distr,49036.00001335144,Wed Mar 26 2025 10:09:43 GMT-0500 (Central Daylight Time),697845.9000000954,B,ba,O,a,161,1,1367.2000000476837,696478.7000000477,7094,WL,B,5.0
6,11.147000074386597,distr,48852.9999256134,Wed Mar 26 2025 10:09:43 GMT-0500 (Central Daylight Time),698028.6000000238,B,bar,O,r,168,1,1549.8999999761581,696478.7000000477,7094,WL,B,5.0
6,11.646000146865845,distr,48353.999853134155,Wed Mar 26 2025 10:09:43 GMT-0500 (Central Daylight Time),698527.7000000477,B,barenter,O,enter,488,1,2049.0,696478.7000000477,7094,WL,B,5.0
6,17.59600019454956,distr,42403.99980545044,Wed Mar 26 2025 10:09:43 GMT-0500 (Central Daylight Time),704477.3000000715,B,s,O,s,5935,1,5949.399999976158,698527.9000000954,7094,WL,B,6.0
6,19.811000108718872,distr,40188.99989128113,Wed Mar 26 2025 10:09:43 GMT-0500 (Central Daylight Time),706692.3000000715,B,st,O,t,2200,1,8164.399999976158,698527.9000000954,7094,WL,B,6.0
6,20.044000148773193,distr,39955.99985122681,Wed Mar 26 2025 10:09:43 GMT-0500 (Central Daylight Time),706925.5,B,sto,O,o,218,1,8397.599999904633,698527.9000000954,7094,WL,B,6.0
6,20.210999965667725,distr,39789.000034332275,Wed Mar 26 2025 10:09:43 GMT-0500 (Central Daylight Time),707092.1000000238,B,stor,O,r,160,1,8564.199999928474,698527.9000000954,7094,WL,B,6.0
6,20.593000173568726,distr,39406.999826431274,Wed Mar 26 2025 10:09:43 GMT-0500 (Central Daylight Time),707475.1000000238,B,storm,O,m,376,1,8947.199999928474,698527.9000000954,7094,WL,B,6.0
6,21.177000045776367,distr,38822.99995422363,Wed Mar 26 2025 10:09:43 GMT-0500 (Central Daylight Time),708059.0,B,stormenter,O,enter,572,1,9531.099999904633,698527.9000000954,7094,WL,B,6.0
6,30.94000005722046,distr,29059.99994277954,Wed Mar 26 2025 10:09:43 GMT-0500 (Central Daylight Time),717821.9000000954,B,enter,O,enter,9747,1,9762.700000047684,708059.2000000477,7094,WL,B,7.0
6,31.290000200271606,distr,28709.999799728394,Wed Mar 26 2025 10:09:43 GMT-0500 (Central Daylight Time),718171.9000000954,B,enter,O,enter,345,1,349.7000000476837,717822.2000000477,7094,WL,B,8.0
6,31.58899998664856,distr,28411.00001335144,Wed Mar 26 2025 10:09:43 GMT-0500 (Central Daylight Time),718471.2000000477,B,enter,O,enter,289,1,299.10000002384186,718172.1000000238,7094,WL,B,9.0
6,31.937000036239624,distr,28062.999963760376,Wed Mar 26 2025 10:09:43 GMT-0500 (Central Daylight Time),718819.5,B,enter,O,enter,336,1,348.09999990463257,718471.4000000954,7094,WL,B,10.0
6,32.3050000667572,distr,27694.999933242798,Wed Mar 26 2025 10:09:43 GMT-0500 (Central Daylight Time),719187.4000000954,B,enter,O,enter,364,1,367.8000000715256,718819.6000000238,7094,WL,B,11.0
6,32.67400002479553,distr,27325.999975204468,Wed Mar 26 2025 10:09:43 GMT-0500 (Central Daylight Time),719555.8000000715,B,enter,O,enter,347,1,368.10000002384186,719187.7000000477,7094,WL,B,12.0
6,33.07300019264221,distr,26926.999807357788,Wed Mar 26 2025 10:09:43 GMT-0500 (Central Daylight Time),719954.7000000477,B,enter,O,enter,386,1,398.60000002384186,719556.1000000238,7094,WL,B,13.0
6,33.540000200271606,distr,26459.999799728394,Wed Mar 26 2025 10:09:43 GMT-0500 (Central Daylight Time),720422.0,B,enter,O,enter,451,1,467.0,719955.0,7094,WL,B,14.0
6,35.09000015258789,distr,24909.99984741211,Wed Mar 26 2025 10:09:43 GMT-0500 (Central Daylight Time),721972.2000000477,B,enter,O,enter,1545,1,1549.8999999761581,720422.3000000715,7094,WL,B,15.0
7,1.25,immed,58750.0,Wed Mar 26 2025 10:09:43 GMT-0500 (Central Daylight Time),727702.8000000715,A,s,O,s,1230,1,1249.3000000715256,726453.5,7094,WL,B,1.0
7,1.500999927520752,immed,58499.00007247925,Wed Mar 26 2025 10:09:43 GMT-0500 (Central Daylight Time),727954.1000000238,A,st,O,t,239,1,1500.6000000238419,726453.5,7094,WL,B,1.0
7,1.7660000324249268,immed,58233.99996757507,Wed Mar 26 2025 10:09:43 GMT-0500 (Central Daylight Time),728219.3000000715,A,str,O,r,253,1,1765.8000000715256,726453.5,7094,WL,B,1.0
7,1.8819999694824219,immed,58118.00003051758,Wed Mar 26 2025 10:09:43 GMT-0500 (Central Daylight Time),728335.4000000954,A,stre,O,e,98,1,1881.9000000953674,726453.5,7094,WL,B,1.0
7,2.065999984741211,immed,57934.00001525879,Wed Mar 26 2025 10:09:43 GMT-0500 (Central Daylight Time),728519.5,A,stree,O,e,174,1,2066.0,726453.5,7094,WL,B,1.0
7,2.249000072479248,immed,57750.99992752075,Wed Mar 26 2025 10:09:43 GMT-0500 (Central Daylight Time),728701.6000000238,A,street,O,t,166,1,2248.100000023842,726453.5,7094,WL,B,1.0
7,2.5480000972747803,immed,57451.99990272522,Wed Mar 26 2025 10:09:43 GMT-0500 (Central Daylight Time),729001.3000000715,A,streetenter,O,enter,289,1,2547.8000000715256,726453.5,7094,WL,B,1.0
7,2.9830000400543213,immed,57016.99995994568,Wed Mar 26 2025 10:09:43 GMT-0500 (Central Daylight Time),729436.3000000715,A,g,O,g,430,1,434.8000000715256,729001.5,7094,WL,B,2.0
7,3.0980000495910645,immed,56901.999950408936,Wed Mar 26 2025 10:09:43 GMT-0500 (Central Daylight Time),729551.4000000954,A,gr,O,r,103,1,549.9000000953674,729001.5,7094,WL,B,2.0
7,3.368000030517578,immed,56631.99996948242,Wed Mar 26 2025 10:09:43 GMT-0500 (Central Daylight Time),729820.7000000477,A,gra,O,a,248,1,819.2000000476837,729001.5,7094,WL,B,2.0
7,3.5839998722076416,immed,56416.00012779236,Wed Mar 26 2025 10:09:43 GMT-0500 (Central Daylight Time),730036.6000000238,A,gras,O,s,210,1,1035.1000000238419,729001.5,7094,WL,B,2.0
7,3.7669999599456787,immed,56233.00004005432,Wed Mar 26 2025 10:09:43 GMT-0500 (Central Daylight Time),730219.9000000954,A,grass,O,s,178,1,1218.4000000953674,729001.5,7094,WL,B,2.0
7,4.014999866485596,immed,55985.000133514404,Wed Mar 26 2025 10:09:43 GMT-0500 (Central Daylight Time),730468.2000000477,A,grassenter,O,enter,240,1,1466.7000000476837,729001.5,7094,WL,B,2.0
7,8.282000064849854,immed,51717.99993515015,Wed Mar 26 2025 10:09:43 GMT-0500 (Central Daylight Time),734734.6000000238,A,d,O,d,4260,1,4266.0,730468.6000000238,7094,WL,B,3.0
7,8.464999914169312,immed,51535.00008583069,Wed Mar 26 2025 10:09:43 GMT-0500 (Central Daylight Time),734918.3000000715,A,do,O,o,178,1,4449.700000047684,730468.6000000238,7094,WL,B,3.0
7,8.631999969482422,immed,51368.00003051758,Wed Mar 26 2025 10:09:43 GMT-0500 (Central Daylight Time),735084.6000000238,A,doo,O,o,159,1,4616.0,730468.6000000238,7094,WL,B,3.0
7,8.914000034332275,immed,51085.999965667725,Wed Mar 26 2025 10:09:43 GMT-0500 (Central Daylight Time),735367.1000000238,A,door,O,r,264,1,4898.5,730468.6000000238,7094,WL,B,3.0
7,9.214999914169312,immed,50785.00008583069,Wed Mar 26 2025 10:09:43 GMT-0500 (Central Daylight Time),735667.8000000715,A,doorenter,O,enter,279,1,5199.200000047684,730468.6000000238,7094,WL,B,3.0
7,9.581000089645386,immed,50418.999910354614,Wed Mar 26 2025 10:09:43 GMT-0500 (Central Daylight Time),736034.4000000954,A,a,O,a,346,1,366.3000000715256,735668.1000000238,7094,WL,B,4.0
7,9.747999906539917,immed,50252.00009346008,Wed Mar 26 2025 10:09:43 GMT-0500 (Central Daylight Time),736200.9000000954,A,ar,O,r,146,1,532.8000000715256,735668.1000000238,7094,WL,B,4.0
7,9.963000059127808,immed,50036.99994087219,Wed Mar 26 2025 10:09:43 GMT-0500 (Central Daylight Time),736416.0,A,arm,O,m,204,1,747.8999999761581,735668.1000000238,7094,WL,B,4.0
7,11.86299991607666,immed,48137.00008392334,Wed Mar 26 2025 10:09:43 GMT-0500 (Central Daylight Time),738316.2000000477,A,armenter,O,enter,1895,1,2648.100000023842,735668.1000000238,7094,WL,B,4.0
7,12.34500002861023,immed,47654.99997138977,Wed Mar 26 2025 10:09:43 GMT-0500 (Central Daylight Time),738797.7000000477,A,s,O,s,473,1,481.2999999523163,738316.4000000954,7094,WL,B,5.0
7,12.48199987411499,immed,47518.00012588501,Wed Mar 26 2025 10:09:43 GMT-0500 (Central Daylight Time),738935.2000000477,A,st,O,t,130,1,618.7999999523163,738316.4000000954,7094,WL,B,5.0
7,12.678999900817871,immed,47321.00009918213,Wed Mar 26 2025 10:09:43 GMT-0500 (Central Daylight Time),739132.5,A,sta,O,a,193,1,816.0999999046326,738316.4000000954,7094,WL,B,5.0
7,12.813999891281128,immed,47186.00010871887,Wed Mar 26 2025 10:09:43 GMT-0500 (Central Daylight Time),739266.7000000477,A,star,O,r,114,1,950.2999999523163,738316.4000000954,7094,WL,B,5.0
7,13.32800006866455,immed,46671.99993133545,Wed Mar 26 2025 10:09:43 GMT-0500 (Central Daylight Time),739781.4000000954,A,starenter,O,enter,508,1,1465.0,738316.4000000954,7094,WL,B,5.0
7,14.162999868392944,immed,45837.000131607056,Wed Mar 26 2025 10:09:43 GMT-0500 (Central Daylight Time),740615.7000000477,A,w,O,w,825,1,834.2000000476837,739781.5,7094,WL,B,6.0
7,14.32800006866455,immed,45671.99993133545,Wed Mar 26 2025 10:09:43 GMT-0500 (Central Daylight Time),740781.3000000715,A,wi,O,i,149,1,999.8000000715256,739781.5,7094,WL,B,6.0
7,14.446000099182129,immed,45553.99990081787,Wed Mar 26 2025 10:09:43 GMT-0500 (Central Daylight Time),740898.6000000238,A,wif,O,f,104,1,1117.1000000238419,739781.5,7094,WL,B,6.0
7,14.510999917984009,immed,45489.00008201599,Wed Mar 26 2025 10:09:43 GMT-0500 (Central Daylight Time),740963.7000000477,A,wife,O,e,59,1,1182.2000000476837,739781.5,7094,WL,B,6.0
7,14.760999917984009,immed,45239.00008201599,Wed Mar 26 2025 10:09:43 GMT-0500 (Central Daylight Time),741213.9000000954,A,wifeenter,O,enter,232,1,1432.4000000953674,739781.5,7094,WL,B,6.0
7,15.229000091552734,immed,44770.999908447266,Wed Mar 26 2025 10:09:43 GMT-0500 (Central Daylight Time),741681.4000000954,A,w,O,w,456,1,467.2000000476837,741214.2000000477,7094,WL,B,7.0
7,15.378000020980835,immed,44621.999979019165,Wed Mar 26 2025 10:09:43 GMT-0500 (Central Daylight Time),741831.4000000954,A,wi,O,i,132,1,617.2000000476837,741214.2000000477,7094,WL,B,7.0
7,15.526999950408936,immed,44473.000049591064,Wed Mar 26 2025 10:09:43 GMT-0500 (Central Daylight Time),741979.7000000477,A,wid,O,d,143,1,765.5,741214.2000000477,7094,WL,B,7.0
7,15.660000085830688,immed,44339.99991416931,Wed Mar 26 2025 10:09:43 GMT-0500 (Central Daylight Time),742113.3000000715,A,wido,O,o,123,1,899.1000000238419,741214.2000000477,7094,WL,B,7.0
7,15.810999870300293,immed,44189.00012969971,Wed Mar 26 2025 10:09:43 GMT-0500 (Central Daylight Time),742264.3000000715,A,widow,O,w,135,1,1050.1000000238419,741214.2000000477,7094,WL,B,7.0
7,16.293999910354614,immed,43706.000089645386,Wed Mar 26 2025 10:09:43 GMT-0500 (Central Daylight Time),742747.1000000238,A,widowenter,O,enter,471,1,1532.8999999761581,741214.2000000477,7094,WL,B,7.0
7,16.878000020980835,immed,43121.999979019165,Wed Mar 26 2025 10:09:43 GMT-0500 (Central Daylight Time),743331.3000000715,A,c,O,c,563,1,584.0,742747.3000000715,7094,WL,B,8.0
7,17.246000051498413,immed,42753.99994850159,Wed Mar 26 2025 10:09:43 GMT-0500 (Central Daylight Time),743699.0,A,ci,O,i,362,1,951.6999999284744,742747.3000000715,7094,WL,B,8.0
7,17.47699999809265,immed,42523.00000190735,Wed Mar 26 2025 10:09:43 GMT-0500 (Central Daylight Time),743930.5,A,cit,O,t,219,1,1183.1999999284744,742747.3000000715,7094,WL,B,8.0
7,17.57800006866455,immed,42421.99993133545,Wed Mar 26 2025 10:09:43 GMT-0500 (Central Daylight Time),744031.5,A,city,O,y,80,1,1284.1999999284744,742747.3000000715,7094,WL,B,8.0
7,19.05900001525879,immed,40940.99998474121,Wed Mar 26 2025 10:09:43 GMT-0500 (Central Daylight Time),745512.2000000477,A,cityenter,O,enter,1470,1,2764.899999976158,742747.3000000715,7094,WL,B,8.0
7,23.491999864578247,immed,36508.00013542175,Wed Mar 26 2025 10:09:43 GMT-0500 (Central Daylight Time),749945.5,A,p,O,p,4414,1,4433.099999904633,745512.4000000954,7094,WL,B,9.0
7,23.89199995994568,immed,36108.00004005432,Wed Mar 26 2025 10:09:43 GMT-0500 (Central Daylight Time),750345.2000000477,A,pu,O,u,389,1,4832.799999952316,745512.4000000954,7094,WL,B,9.0
7,25.45899987220764,immed,34541.00012779236,Wed Mar 26 2025 10:09:43 GMT-0500 (Central Daylight Time),751912.0,A,p,O,backspace,1549,1,6399.599999904633,745512.4000000954,7094,WL,B,9.0
7,25.658999919891357,immed,34341.00008010864,Wed Mar 26 2025 10:09:43 GMT-0500 (Central Daylight Time),752111.7000000477,A,,O,backspace,181,1,6599.299999952316,745512.4000000954,7094,WL,B,9.0
7,27.2739999294281,immed,32726.0000705719,Wed Mar 26 2025 10:09:43 GMT-0500 (Central Daylight Time),753726.7000000477,A,p,O,p,1606,1,8214.299999952316,745512.4000000954,7094,WL,B,9.0
7,27.55900001525879,immed,32440.99998474121,Wed Mar 26 2025 10:09:43 GMT-0500 (Central Daylight Time),754011.9000000954,A,pu,O,u,280,1,8499.5,745512.4000000954,7094,WL,B,9.0
7,27.79200005531311,immed,32207.99994468689,Wed Mar 26 2025 10:09:43 GMT-0500 (Central Daylight Time),754245.0,A,pup,O,p,227,1,8732.599999904633,745512.4000000954,7094,WL,B,9.0
7,28.02500009536743,immed,31974.99990463257,Wed Mar 26 2025 10:09:43 GMT-0500 (Central Daylight Time),754478.1000000238,A,pupi,O,i,224,1,8965.699999928474,745512.4000000954,7094,WL,B,9.0
7,28.210000038146973,immed,31789.999961853027,Wed Mar 26 2025 10:09:43 GMT-0500 (Central Daylight Time),754662.6000000238,A,pupil,O,l,178,1,9150.199999928474,745512.4000000954,7094,WL,B,9.0
7,29.473000049591064,immed,30526.999950408936,Wed Mar 26 2025 10:09:43 GMT-0500 (Central Daylight Time),755926.2000000477,A,pupilenter,O,enter,1247,1,10413.799999952316,745512.4000000954,7094,WL,B,9.0
7,30.69000005722046,immed,29309.99994277954,Wed Mar 26 2025 10:09:43 GMT-0500 (Central Daylight Time),757143.4000000954,A,c,O,c,1199,1,1217.1000000238419,755926.3000000715,7094,WL,B,10.0
7,31.48900008201599,immed,28510.99991798401,Wed Mar 26 2025 10:09:43 GMT-0500 (Central Daylight Time),757942.4000000954,A,ca,O,a,789,1,2016.1000000238419,755926.3000000715,7094,WL,B,10.0
7,31.655999898910522,immed,28344.000101089478,Wed Mar 26 2025 10:09:43 GMT-0500 (Central Daylight Time),758109.0,A,cab,O,b,158,1,2182.6999999284744,755926.3000000715,7094,WL,B,10.0
7,31.85699987411499,immed,28143.00012588501,Wed Mar 26 2025 10:09:43 GMT-0500 (Central Daylight Time),758309.9000000954,A,cabi,O,i,184,1,2383.600000023842,755926.3000000715,7094,WL,B,10.0
7,32.00600004196167,immed,27993.99995803833,Wed Mar 26 2025 10:09:43 GMT-0500 (Central Daylight Time),758459.5,A,cabin,O,n,137,1,2533.1999999284744,755926.3000000715,7094,WL,B,10.0
7,32.48900008201599,immed,27510.99991798401,Wed Mar 26 2025 10:09:43 GMT-0500 (Central Daylight Time),758942.1000000238,A,cabinenter,O,enter,467,1,3015.7999999523163,755926.3000000715,7094,WL,B,10.0
7,33.388999938964844,immed,26611.000061035156,Wed Mar 26 2025 10:09:43 GMT-0500 (Central Daylight Time),759842.2000000477,A,l,O,l,880,1,899.8999999761581,758942.3000000715,7094,WL,B,11.0
7,33.5220000743866,immed,26477.999925613403,Wed Mar 26 2025 10:09:43 GMT-0500 (Central Daylight Time),759975.5,A,la,O,a,115,1,1033.1999999284744,758942.3000000715,7094,WL,B,11.0
7,33.639999866485596,immed,26360.000133514404,Wed Mar 26 2025 10:09:43 GMT-0500 (Central Daylight Time),760092.7000000477,A,lak,O,k,102,1,1150.3999999761581,758942.3000000715,7094,WL,B,11.0
7,33.806999921798706,immed,26193.000078201294,Wed Mar 26 2025 10:09:43 GMT-0500 (Central Daylight Time),760260.3000000715,A,lake,O,e,162,1,1318.0,758942.3000000715,7094,WL,B,11.0
7,34.02300000190735,immed,25976.99999809265,Wed Mar 26 2025 10:09:43 GMT-0500 (Central Daylight Time),760475.8000000715,A,lakeenter,O,enter,210,1,1533.5,758942.3000000715,7094,WL,B,11.0
7,34.75600004196167,immed,25243.99995803833,Wed Mar 26 2025 10:09:43 GMT-0500 (Central Daylight Time),761208.8000000715,A,p,O,p,723,1,732.8000000715256,760476.0,7094,WL,B,12.0
7,35.0220000743866,immed,24977.999925613403,Wed Mar 26 2025 10:09:43 GMT-0500 (Central Daylight Time),761475.4000000954,A,pi,O,i,255,1,999.4000000953674,760476.0,7094,WL,B,12.0
7,35.19000005722046,immed,24809.99994277954,Wed Mar 26 2025 10:09:43 GMT-0500 (Central Daylight Time),761642.7000000477,A,pip,O,p,144,1,1166.7000000476837,760476.0,7094,WL,B,12.0
7,35.388999938964844,immed,24611.000061035156,Wed Mar 26 2025 10:09:43 GMT-0500 (Central Daylight Time),761841.5,A,pipe,O,e,186,1,1365.5,760476.0,7094,WL,B,12.0
7,35.62299990653992,immed,24377.000093460083,Wed Mar 26 2025 10:09:43 GMT-0500 (Central Daylight Time),762075.9000000954,A,pipeenter,O,enter,229,1,1599.9000000953674,760476.0,7094,WL,B,12.0
7,35.95700001716614,immed,24042.999982833862,Wed Mar 26 2025 10:09:43 GMT-0500 (Central Daylight Time),762409.9000000954,A,s,O,s,314,1,333.7000000476837,762076.2000000477,7094,WL,B,13.0
7,36.93899989128113,immed,23061.000108718872,Wed Mar 26 2025 10:09:43 GMT-0500 (Central Daylight Time),763391.8000000715,A,sk,O,k,965,1,1315.6000000238419,762076.2000000477,7094,WL,B,13.0
7,37.1710000038147,immed,22828.999996185303,Wed Mar 26 2025 10:09:43 GMT-0500 (Central Daylight Time),763624.2000000477,A,ski,O,i,222,1,1548.0,762076.2000000477,7094,WL,B,13.0
7,37.389999866485596,immed,22610.000133514404,Wed Mar 26 2025 10:09:43 GMT-0500 (Central Daylight Time),763842.6000000238,A,skin,O,n,197,1,1766.3999999761581,762076.2000000477,7094,WL,B,13.0
7,37.88800001144409,immed,22111.99998855591,Wed Mar 26 2025 10:09:43 GMT-0500 (Central Daylight Time),764341.3000000715,A,skinenter,O,enter,481,1,2265.100000023842,762076.2000000477,7094,WL,B,13.0
7,39.520999908447266,immed,20479.000091552734,Wed Mar 26 2025 10:09:43 GMT-0500 (Central Daylight Time),765974.1000000238,A,f,O,f,1628,1,1632.5,764341.6000000238,7094,WL,B,14.0
7,39.61999988555908,immed,20380.000114440918,Wed Mar 26 2025 10:09:43 GMT-0500 (Central Daylight Time),766073.2000000477,A,fi,O,i,78,1,1731.6000000238419,764341.6000000238,7094,WL,B,14.0
7,39.787999868392944,immed,20212.000131607056,Wed Mar 26 2025 10:09:43 GMT-0500 (Central Daylight Time),766240.7000000477,A,fir,O,r,155,1,1899.1000000238419,764341.6000000238,7094,WL,B,14.0
7,40.4210000038147,immed,19578.999996185303,Wed Mar 26 2025 10:09:43 GMT-0500 (Central Daylight Time),766873.6000000238,A,fire,O,e,621,1,2532.0,764341.6000000238,7094,WL,B,14.0
7,40.62100005149841,immed,19378.999948501587,Wed Mar 26 2025 10:09:43 GMT-0500 (Central Daylight Time),767073.6000000238,A,fireenter,O,enter,187,1,2732.0,764341.6000000238,7094,WL,B,14.0
7,41.15299987792969,immed,18847.000122070312,Wed Mar 26 2025 10:09:43 GMT-0500 (Central Daylight Time),767606.5,A,c,O,c,524,1,532.5999999046326,767073.9000000954,7094,WL,B,15.0
7,41.3050000667572,immed,18694.999933242798,Wed Mar 26 2025 10:09:43 GMT-0500 (Central Daylight Time),767758.3000000715,A,cl,O,l,134,1,684.3999999761581,767073.9000000954,7094,WL,B,15.0
7,41.50399994850159,immed,18496.000051498413,Wed Mar 26 2025 10:09:43 GMT-0500 (Central Daylight Time),767956.8000000715,A,clo,O,o,182,1,882.8999999761581,767073.9000000954,7094,WL,B,15.0
7,41.61999988555908,immed,18380.000114440918,Wed Mar 26 2025 10:09:43 GMT-0500 (Central Daylight Time),768073.4000000954,A,cloc,O,c,105,1,999.5,767073.9000000954,7094,WL,B,15.0
7,41.769999980926514,immed,18230.000019073486,Wed Mar 26 2025 10:09:43 GMT-0500 (Central Daylight Time),768223.4000000954,A,clock,O,k,132,1,1149.5,767073.9000000954,7094,WL,B,15.0
7,42.253000020980835,immed,17746.999979019165,Wed Mar 26 2025 10:09:43 GMT-0500 (Central Daylight Time),768706.2000000477,A,clockenter,O,enter,469,1,1632.2999999523163,767073.9000000954,7094,WL,B,15.0
