acc_sum,block,block_c,block_cond,con_img,correct,correct_response,datetime,endtime,face,jitter,line,project,response,response_time,row_sel,session_number,start_end,starttime,subject_id,task,task_vers,trial
0,prac,1,A,haborder.png,0,m,Tue Jan 21 2025 18:29:50 GMT-0600 (Central Standard Time),75384.59999996424,CFD-BM-015-017-HC.jpg,1700,solid,I,None,1514,1,1,3998.899999976158,71385.69999998808,8018,ATS,B,1
1,prac,1,A,haborder.png,1,m,Tue Jan 21 2025 18:29:50 GMT-0600 (Central Standard Time),78750.30000001192,CFD-WF-011-006-HC.jpg,1500,solid,I,m,1077,11,1,7364.600000023842,71385.69999998808,8018,ATS,B,2
2,prac,1,A,haborder.png,1,z,Tue Jan 21 2025 18:29:50 GMT-0600 (Central Standard Time),82932.19999998808,CFD-WM-009-009-A.jpg,1900,solid,I,z,1494,8,1,11546.5,71385.69999998808,8018,ATS,B,3
3,prac,1,A,haborder.png,1,z,Tue Jan 21 2025 18:29:50 GMT-0600 (Central Standard Time),85882.5,CFD-BF-050-012-A.jpg,1200,solid,I,z,950,6,1,14496.800000011921,71385.69999998808,8018,ATS,B,4
4,prac,1,A,haborder.png,1,m,Tue Jan 21 2025 18:29:50 GMT-0600 (Central Standard Time),89031.5,CFD-BM-020-024-HC.jpg,1500,solid,I,m,859,3,1,17645.80000001192,71385.69999998808,8018,ATS,B,5
5,prac,1,A,haborder.png,1,m,Tue Jan 21 2025 18:29:50 GMT-0600 (Central Standard Time),92662.5,CFD-BF-035-007-HC.jpg,2000,solid,I,m,834,5,1,21276.80000001192,71385.69999998808,8018,ATS,B,6
6,prac,1,A,haborder.png,1,m,Tue Jan 21 2025 18:29:50 GMT-0600 (Central Standard Time),95861.59999996424,CFD-WM-012-007-HC.jpg,1700,solid,I,m,710,9,1,24475.899999976158,71385.69999998808,8018,ATS,B,7
7,prac,1,A,haborder.png,1,z,Tue Jan 21 2025 18:29:50 GMT-0600 (Central Standard Time),99677.0,CFD-BM-037-041-A.jpg,1600,solid,I,z,1427,2,1,28291.30000001192,71385.69999998808,8018,ATS,B,8
8,prac,1,A,haborder.png,1,z,Tue Jan 21 2025 18:29:50 GMT-0600 (Central Standard Time),102409.5,CFD-BF-051-043-A.jpg,1000,solid,I,z,940,4,1,31023.80000001192,71385.69999998808,8018,ATS,B,9
9,prac,1,A,haborder.png,1,m,Tue Jan 21 2025 18:29:50 GMT-0600 (Central Standard Time),105275.39999997616,CFD-WM-011-006-HC.jpg,1400,solid,I,m,671,7,1,33889.69999998808,71385.69999998808,8018,ATS,B,10
10,prac,1,A,haborder.png,1,z,Tue Jan 21 2025 18:29:50 GMT-0600 (Central Standard Time),108024.5,CFD-WF-013-015-A.jpg,1000,solid,I,z,965,12,1,36638.80000001192,71385.69999998808,8018,ATS,B,11
11,prac,1,A,haborder.png,1,z,Tue Jan 21 2025 18:29:50 GMT-0600 (Central Standard Time),111306.80000001192,CFD-WF-026-008-A.jpg,1600,solid,I,z,897,10,1,39921.10000002384,71385.69999998808,8018,ATS,B,12
1,prac,1,B,mfborder.png,1,z,Tue Jan 21 2025 18:29:50 GMT-0600 (Central Standard Time),160108.30000001192,CFD-BF-051-043-A.jpg,1000,dash,I,z,1244,4,1,3032.800000011921,157075.5,8018,ATS,B,1
2,prac,1,B,mfborder.png,1,m,Tue Jan 21 2025 18:29:50 GMT-0600 (Central Standard Time),163340.5,CFD-WM-012-007-HC.jpg,1600,dash,I,m,837,10,1,6265.0,157075.5,8018,ATS,B,2
3,prac,1,B,mfborder.png,1,z,Tue Jan 21 2025 18:29:50 GMT-0600 (Central Standard Time),166472.89999997616,CFD-WF-011-006-HC.jpg,1000,dash,I,z,1332,12,1,9397.399999976158,157075.5,8018,ATS,B,3
4,prac,1,B,mfborder.png,1,m,Tue Jan 21 2025 18:29:50 GMT-0600 (Central Standard Time),169721.80000001192,CFD-WM-009-009-A.jpg,1700,dash,I,m,756,9,1,12646.300000011921,157075.5,8018,ATS,B,4
5,prac,1,B,mfborder.png,1,z,Tue Jan 21 2025 18:29:50 GMT-0600 (Central Standard Time),173037.39999997616,CFD-WF-027-007-HC.jpg,1900,dash,I,z,619,8,1,15961.899999976158,157075.5,8018,ATS,B,5
5,prac,1,B,mfborder.png,0,z,Tue Jan 21 2025 18:29:50 GMT-0600 (Central Standard Time),176686.30000001192,CFD-BF-035-007-HC.jpg,1400,dash,I,m,1452,7,1,19610.80000001192,157075.5,8018,ATS,B,6
6,prac,1,B,mfborder.png,1,z,Tue Jan 21 2025 18:29:50 GMT-0600 (Central Standard Time),180318.69999998808,CFD-WF-026-008-A.jpg,1500,dash,I,z,1343,11,1,23243.19999998808,157075.5,8018,ATS,B,7
7,prac,1,B,mfborder.png,1,m,Tue Jan 21 2025 18:29:50 GMT-0600 (Central Standard Time),183334.30000001192,CFD-WM-037-060-A.jpg,1200,dash,I,m,1017,6,1,26258.80000001192,157075.5,8018,ATS,B,8
8,prac,1,B,mfborder.png,1,m,Tue Jan 21 2025 18:29:50 GMT-0600 (Central Standard Time),186533.19999998808,CFD-BM-020-024-HC.jpg,1700,dash,I,m,703,1,1,29457.69999998808,157075.5,8018,ATS,B,9
9,prac,1,B,mfborder.png,1,z,Tue Jan 21 2025 18:29:50 GMT-0600 (Central Standard Time),189898.80000001192,CFD-BF-027-013-HC.jpg,1500,dash,I,z,1072,3,1,32823.30000001192,157075.5,8018,ATS,B,10
10,prac,1,B,mfborder.png,1,m,Tue Jan 21 2025 18:29:50 GMT-0600 (Central Standard Time),193647.89999997616,CFD-BM-037-041-A.jpg,2000,dash,I,m,951,5,1,36572.39999997616,157075.5,8018,ATS,B,11
11,prac,1,B,mfborder.png,1,m,Tue Jan 21 2025 18:29:50 GMT-0600 (Central Standard Time),196930.09999996424,CFD-BM-041-048-A.jpg,1600,dash,I,m,889,2,1,39854.59999996424,157075.5,8018,ATS,B,12
1,test,1,A,haborder.png,1,z,Tue Jan 21 2025 18:29:50 GMT-0600 (Central Standard Time),223971.30000001192,CFD-BF-050-012-A.jpg,1200,solid,I,z,1014,6,1,2231.900000035763,221739.39999997616,8018,ATS,B,1
2,test,1,A,haborder.png,1,m,Tue Jan 21 2025 18:29:50 GMT-0600 (Central Standard Time),226187.19999998808,CFD-WF-011-006-HC.jpg,1500,solid,I,m,696,11,1,4447.800000011921,221739.39999997616,8018,ATS,B,2
3,test,1,A,haborder.png,1,m,Tue Jan 21 2025 18:29:50 GMT-0600 (Central Standard Time),229003.19999998808,CFD-WM-012-007-HC.jpg,1700,solid,I,m,1086,9,1,7263.800000011921,221739.39999997616,8018,ATS,B,3
4,test,1,A,haborder.png,1,m,Tue Jan 21 2025 18:29:50 GMT-0600 (Central Standard Time),231352.5,CFD-BM-020-024-HC.jpg,1500,solid,I,m,823,3,1,9613.100000023842,221739.39999997616,8018,ATS,B,4
5,test,1,A,haborder.png,1,m,Tue Jan 21 2025 18:29:50 GMT-0600 (Central Standard Time),233585.09999996424,CFD-BM-020-024-HC.jpg,1500,solid,I,m,706,3,1,11845.699999988079,221739.39999997616,8018,ATS,B,5
6,test,1,A,haborder.png,1,z,Tue Jan 21 2025 18:29:50 GMT-0600 (Central Standard Time),236434.09999996424,CFD-WM-009-009-A.jpg,1900,solid,I,z,921,8,1,14694.699999988079,221739.39999997616,8018,ATS,B,6
7,test,1,A,haborder.png,1,m,Tue Jan 21 2025 18:29:50 GMT-0600 (Central Standard Time),239066.69999998808,CFD-BM-015-017-HC.jpg,1700,solid,I,m,899,1,1,17327.30000001192,221739.39999997616,8018,ATS,B,7
8,test,1,A,haborder.png,1,z,Tue Jan 21 2025 18:29:50 GMT-0600 (Central Standard Time),240883.0,CFD-WF-013-015-A.jpg,1000,solid,I,z,782,12,1,19143.600000023842,221739.39999997616,8018,ATS,B,8
9,test,1,A,haborder.png,1,z,Tue Jan 21 2025 18:29:50 GMT-0600 (Central Standard Time),243498.80000001192,CFD-BM-037-041-A.jpg,1600,solid,I,z,979,2,1,21759.400000035763,221739.39999997616,8018,ATS,B,9
10,test,1,A,haborder.png,1,z,Tue Jan 21 2025 18:29:50 GMT-0600 (Central Standard Time),245981.19999998808,CFD-WF-026-008-A.jpg,1600,solid,I,z,859,10,1,24241.80000001192,221739.39999997616,8018,ATS,B,10
11,test,1,A,haborder.png,1,z,Tue Jan 21 2025 18:29:50 GMT-0600 (Central Standard Time),247930.59999996424,CFD-BF-050-012-A.jpg,1200,solid,I,z,711,6,1,26191.19999998808,221739.39999997616,8018,ATS,B,11
12,test,1,A,haborder.png,1,m,Tue Jan 21 2025 18:29:50 GMT-0600 (Central Standard Time),249947.09999996424,CFD-WM-011-006-HC.jpg,1400,solid,I,m,596,7,1,28207.69999998808,221739.39999997616,8018,ATS,B,12
13,test,1,A,haborder.png,1,m,Tue Jan 21 2025 18:29:50 GMT-0600 (Central Standard Time),252379.19999998808,CFD-BM-015-017-HC.jpg,1700,solid,I,m,706,1,1,30639.80000001192,221739.39999997616,8018,ATS,B,13
14,test,1,A,haborder.png,1,z,Tue Jan 21 2025 18:29:50 GMT-0600 (Central Standard Time),254145.30000001192,CFD-BF-051-043-A.jpg,1000,solid,I,z,731,4,1,32405.900000035763,221739.39999997616,8018,ATS,B,14
15,test,1,A,haborder.png,1,z,Tue Jan 21 2025 18:29:50 GMT-0600 (Central Standard Time),257011.09999996424,CFD-BM-037-041-A.jpg,1600,solid,I,z,1248,2,1,35271.69999998808,221739.39999997616,8018,ATS,B,15
16,test,1,A,haborder.png,1,m,Tue Jan 21 2025 18:29:50 GMT-0600 (Central Standard Time),259976.69999998808,CFD-BF-035-007-HC.jpg,2000,solid,I,m,930,5,1,38237.30000001192,221739.39999997616,8018,ATS,B,16
17,test,1,A,haborder.png,1,m,Tue Jan 21 2025 18:29:50 GMT-0600 (Central Standard Time),262825.89999997616,CFD-BF-035-007-HC.jpg,2000,solid,I,m,824,5,1,41086.5,221739.39999997616,8018,ATS,B,17
18,test,1,A,haborder.png,1,m,Tue Jan 21 2025 18:29:50 GMT-0600 (Central Standard Time),265243.0,CFD-WM-012-007-HC.jpg,1700,solid,I,m,688,9,1,43503.60000002384,221739.39999997616,8018,ATS,B,18
19,test,1,A,haborder.png,1,m,Tue Jan 21 2025 18:29:50 GMT-0600 (Central Standard Time),267774.5,CFD-WF-011-006-HC.jpg,1500,solid,I,m,1003,11,1,46035.10000002384,221739.39999997616,8018,ATS,B,19
20,test,1,A,haborder.png,1,m,Tue Jan 21 2025 18:29:50 GMT-0600 (Central Standard Time),269873.89999997616,CFD-WM-011-006-HC.jpg,1400,solid,I,m,666,7,1,48134.5,221739.39999997616,8018,ATS,B,20
21,test,1,A,haborder.png,1,z,Tue Jan 21 2025 18:29:50 GMT-0600 (Central Standard Time),271573.1999999881,CFD-BF-051-043-A.jpg,1000,solid,I,z,679,4,1,49833.80000001192,221739.39999997616,8018,ATS,B,21
22,test,1,A,haborder.png,1,z,Tue Jan 21 2025 18:29:50 GMT-0600 (Central Standard Time),274072.5,CFD-WF-026-008-A.jpg,1600,solid,I,z,867,10,1,52333.10000002384,221739.39999997616,8018,ATS,B,22
23,test,1,A,haborder.png,1,z,Tue Jan 21 2025 18:29:50 GMT-0600 (Central Standard Time),276005.1999999881,CFD-WF-013-015-A.jpg,1000,solid,I,z,910,12,1,54265.80000001192,221739.39999997616,8018,ATS,B,23
24,test,1,A,haborder.png,1,z,Tue Jan 21 2025 18:29:50 GMT-0600 (Central Standard Time),278854.1999999881,CFD-WM-009-009-A.jpg,1900,solid,I,z,917,8,1,57114.80000001192,221739.39999997616,8018,ATS,B,24
1,test,1,B,mfborder.png,1,z,Tue Jan 21 2025 18:29:50 GMT-0600 (Central Standard Time),302446.8000000119,CFD-WF-026-008-A.jpg,1500,dash,I,z,1118,11,1,2649.100000023842,299797.6999999881,8018,ATS,B,1
2,test,1,B,mfborder.png,1,z,Tue Jan 21 2025 18:29:50 GMT-0600 (Central Standard Time),305162.59999996424,CFD-WF-027-007-HC.jpg,1900,dash,I,z,779,8,1,5364.899999976158,299797.6999999881,8018,ATS,B,2
3,test,1,B,mfborder.png,1,z,Tue Jan 21 2025 18:29:50 GMT-0600 (Central Standard Time),307528.59999996424,CFD-BF-027-013-HC.jpg,1500,dash,I,z,831,3,1,7730.899999976158,299797.6999999881,8018,ATS,B,3
4,test,1,B,mfborder.png,1,m,Tue Jan 21 2025 18:29:50 GMT-0600 (Central Standard Time),309977.6999999881,CFD-WM-037-060-A.jpg,1200,dash,I,m,1212,6,1,10180.0,299797.6999999881,8018,ATS,B,4
5,test,1,B,mfborder.png,1,z,Tue Jan 21 2025 18:29:50 GMT-0600 (Central Standard Time),311777.39999997616,CFD-WF-011-006-HC.jpg,1000,dash,I,z,764,12,1,11979.699999988079,299797.6999999881,8018,ATS,B,5
5,test,1,B,mfborder.png,0,z,Tue Jan 21 2025 18:29:50 GMT-0600 (Central Standard Time),314676.5,CFD-BF-035-007-HC.jpg,1400,dash,I,m,1469,7,1,14878.800000011921,299797.6999999881,8018,ATS,B,6
6,test,1,B,mfborder.png,1,m,Tue Jan 21 2025 18:29:50 GMT-0600 (Central Standard Time),317093.1999999881,CFD-BM-020-024-HC.jpg,1700,dash,I,m,694,1,1,17295.5,299797.6999999881,8018,ATS,B,7
7,test,1,B,mfborder.png,1,z,Tue Jan 21 2025 18:29:50 GMT-0600 (Central Standard Time),319874.89999997616,CFD-WF-026-008-A.jpg,1500,dash,I,z,1249,11,1,20077.19999998808,299797.6999999881,8018,ATS,B,8
8,test,1,B,mfborder.png,1,m,Tue Jan 21 2025 18:29:50 GMT-0600 (Central Standard Time),322207.3000000119,CFD-WM-012-007-HC.jpg,1600,dash,I,m,698,10,1,22409.600000023842,299797.6999999881,8018,ATS,B,9
9,test,1,B,mfborder.png,1,m,Tue Jan 21 2025 18:29:50 GMT-0600 (Central Standard Time),324606.59999996424,CFD-BM-041-048-A.jpg,1600,dash,I,m,767,2,1,24808.899999976158,299797.6999999881,8018,ATS,B,10
10,test,1,B,mfborder.png,1,z,Tue Jan 21 2025 18:29:50 GMT-0600 (Central Standard Time),326639.39999997616,CFD-BF-051-043-A.jpg,1000,dash,I,z,1010,4,1,26841.69999998808,299797.6999999881,8018,ATS,B,11
11,test,1,B,mfborder.png,1,z,Tue Jan 21 2025 18:29:50 GMT-0600 (Central Standard Time),328305.8000000119,CFD-WF-011-006-HC.jpg,1000,dash,I,z,641,12,1,28508.100000023842,299797.6999999881,8018,ATS,B,12
12,test,1,B,mfborder.png,1,m,Tue Jan 21 2025 18:29:50 GMT-0600 (Central Standard Time),330638.0,CFD-BM-041-048-A.jpg,1600,dash,I,m,712,2,1,30840.30000001192,299797.6999999881,8018,ATS,B,13
13,test,1,B,mfborder.png,1,m,Tue Jan 21 2025 18:29:50 GMT-0600 (Central Standard Time),333036.8000000119,CFD-WM-009-009-A.jpg,1700,dash,I,m,668,9,1,33239.10000002384,299797.6999999881,8018,ATS,B,14
14,test,1,B,mfborder.png,1,m,Tue Jan 21 2025 18:29:50 GMT-0600 (Central Standard Time),335386.3000000119,CFD-BM-020-024-HC.jpg,1700,dash,I,m,615,1,1,35588.60000002384,299797.6999999881,8018,ATS,B,15
15,test,1,B,mfborder.png,1,z,Tue Jan 21 2025 18:29:50 GMT-0600 (Central Standard Time),337285.89999997616,CFD-BF-051-043-A.jpg,1000,dash,I,z,878,4,1,37488.19999998808,299797.6999999881,8018,ATS,B,16
16,test,1,B,mfborder.png,1,m,Tue Jan 21 2025 18:29:50 GMT-0600 (Central Standard Time),340035.09999996424,CFD-BM-037-041-A.jpg,2000,dash,I,m,727,5,1,40237.39999997616,299797.6999999881,8018,ATS,B,17
17,test,1,B,mfborder.png,1,z,Tue Jan 21 2025 18:29:50 GMT-0600 (Central Standard Time),342517.8000000119,CFD-BF-027-013-HC.jpg,1500,dash,I,z,962,3,1,42720.10000002384,299797.6999999881,8018,ATS,B,18
18,test,1,B,mfborder.png,1,m,Tue Jan 21 2025 18:29:50 GMT-0600 (Central Standard Time),344950.09999996424,CFD-WM-009-009-A.jpg,1700,dash,I,m,703,9,1,45152.39999997616,299797.6999999881,8018,ATS,B,19
19,test,1,B,mfborder.png,1,m,Tue Jan 21 2025 18:29:50 GMT-0600 (Central Standard Time),347632.5,CFD-BM-037-041-A.jpg,2000,dash,I,m,650,5,1,47834.80000001192,299797.6999999881,8018,ATS,B,20
20,test,1,B,mfborder.png,1,m,Tue Jan 21 2025 18:29:50 GMT-0600 (Central Standard Time),350081.6999999881,CFD-WM-012-007-HC.jpg,1600,dash,I,m,816,10,1,50284.0,299797.6999999881,8018,ATS,B,21
21,test,1,B,mfborder.png,1,m,Tue Jan 21 2025 18:29:50 GMT-0600 (Central Standard Time),351981.09999996424,CFD-WM-037-060-A.jpg,1200,dash,I,m,678,6,1,52183.39999997616,299797.6999999881,8018,ATS,B,22
21,test,1,B,mfborder.png,0,z,Tue Jan 21 2025 18:29:50 GMT-0600 (Central Standard Time),354913.6999999881,CFD-BF-035-007-HC.jpg,1400,dash,I,None,1515,7,1,55116.0,299797.6999999881,8018,ATS,B,23
22,test,1,B,mfborder.png,1,z,Tue Jan 21 2025 18:29:50 GMT-0600 (Central Standard Time),357662.8000000119,CFD-WF-027-007-HC.jpg,1900,dash,I,z,818,8,1,57865.10000002384,299797.6999999881,8018,ATS,B,24
0,8,1,C,haborder.png,0,z,Tue Jan 21 2025 18:29:50 GMT-0600 (Central Standard Time),436255.39999997616,CFD-BF-050-012-A.jpg,1700,solid,I,None,1514,prac,1,3999.099999964237,432256.3000000119,8018,ATS,B,1
0,5,1,C,mfborder.png,0,m,Tue Jan 21 2025 18:29:50 GMT-0600 (Central Standard Time),439753.89999997616,CFD-BM-037-041-A.jpg,1200,dash,I,None,1514,prac,1,7497.599999964237,432256.3000000119,8018,ATS,B,2
0,9,1,C,haborder.png,0,z,Tue Jan 21 2025 18:29:50 GMT-0600 (Central Standard Time),443652.5,CFD-WF-026-008-A.jpg,1600,dash,I,None,1511,prac,1,11396.199999988079,432256.3000000119,8018,ATS,B,3
1,2,1,C,mfborder.png,1,z,Tue Jan 21 2025 18:29:50 GMT-0600 (Central Standard Time),447135.0,CFD-WF-013-015-A.jpg,1500,solid,I,z,1184,prac,1,14878.699999988079,432256.3000000119,8018,ATS,B,4
1,11,1,C,haborder.png,0,m,Tue Jan 21 2025 18:29:50 GMT-0600 (Central Standard Time),450433.89999997616,CFD-WM-011-006-HC.jpg,1000,dash,I,None,1515,prac,1,18177.599999964237,432256.3000000119,8018,ATS,B,5
1,1,1,C,mfborder.png,0,z,Tue Jan 21 2025 18:29:50 GMT-0600 (Central Standard Time),454332.8000000119,CFD-WF-011-006-HC.jpg,1600,dash,I,None,1514,prac,1,22076.5,432256.3000000119,8018,ATS,B,6
2,7,1,C,haborder.png,1,z,Tue Jan 21 2025 18:29:50 GMT-0600 (Central Standard Time),458348.1999999881,CFD-BF-051-043-A.jpg,1900,dash,I,z,1320,prac,1,26091.899999976158,432256.3000000119,8018,ATS,B,7
2,4,1,C,mfborder.png,0,m,Tue Jan 21 2025 18:29:50 GMT-0600 (Central Standard Time),462729.89999997616,CFD-BM-015-017-HC.jpg,2000,solid,I,None,1517,prac,1,30473.599999964237,432256.3000000119,8018,ATS,B,8
2,6,1,C,mfborder.png,0,m,Tue Jan 21 2025 18:29:50 GMT-0600 (Central Standard Time),466728.8000000119,CFD-WM-009-009-A.jpg,1700,solid,I,None,1513,prac,1,34472.5,432256.3000000119,8018,ATS,B,9
2,10,1,C,haborder.png,0,m,Tue Jan 21 2025 18:29:50 GMT-0600 (Central Standard Time),470527.39999997616,CFD-BM-020-024-HC.jpg,1500,solid,I,None,1514,prac,1,38271.09999996424,432256.3000000119,8018,ATS,B,10
2,12,1,C,haborder.png,0,m,Tue Jan 21 2025 18:29:50 GMT-0600 (Central Standard Time),474226.3000000119,CFD-WM-011-006-HC.jpg,1400,solid,I,None,1515,prac,1,41970.0,432256.3000000119,8018,ATS,B,11
2,3,1,C,mfborder.png,0,z,Tue Jan 21 2025 18:29:50 GMT-0600 (Central Standard Time),477525.39999997616,CFD-BF-035-007-HC.jpg,1000,dash,I,None,1514,prac,1,45269.09999996424,432256.3000000119,8018,ATS,B,12
1,8,2,C,haborder.png,1,z,Tue Jan 21 2025 18:29:50 GMT-0600 (Central Standard Time),525726.8999999762,CFD-BF-050-012-A.jpg,1700,solid,I,z,1374,prac,1,93470.59999996424,432256.3000000119,8018,ATS,B,1
1,9,2,C,haborder.png,0,z,Tue Jan 21 2025 18:29:50 GMT-0600 (Central Standard Time),529625.8999999762,CFD-WF-026-008-A.jpg,1600,dash,I,None,1514,prac,1,97369.59999996424,432256.3000000119,8018,ATS,B,2
2,7,2,C,haborder.png,1,z,Tue Jan 21 2025 18:29:50 GMT-0600 (Central Standard Time),533474.5999999642,CFD-BF-051-043-A.jpg,1900,dash,I,z,1155,prac,1,101218.29999995232,432256.3000000119,8018,ATS,B,3
2,4,2,C,mfborder.png,0,m,Tue Jan 21 2025 18:29:50 GMT-0600 (Central Standard Time),537773.1999999881,CFD-BM-015-017-HC.jpg,2000,solid,I,None,1515,prac,1,105516.89999997616,432256.3000000119,8018,ATS,B,4
2,11,2,C,haborder.png,0,m,Tue Jan 21 2025 18:29:50 GMT-0600 (Central Standard Time),540855.5999999642,CFD-WM-011-006-HC.jpg,1000,dash,I,z,1291,prac,1,108599.29999995232,432256.3000000119,8018,ATS,B,5
3,10,2,C,haborder.png,1,m,Tue Jan 21 2025 18:29:50 GMT-0600 (Central Standard Time),544321.1999999881,CFD-BM-020-024-HC.jpg,1500,solid,I,m,1181,prac,1,112064.89999997616,432256.3000000119,8018,ATS,B,6
4,2,2,C,mfborder.png,1,z,Tue Jan 21 2025 18:29:50 GMT-0600 (Central Standard Time),548103.6999999881,CFD-WF-013-015-A.jpg,1500,solid,I,z,1483,prac,1,115847.39999997616,432256.3000000119,8018,ATS,B,7
4,6,2,C,mfborder.png,0,m,Tue Jan 21 2025 18:29:50 GMT-0600 (Central Standard Time),552102.1999999881,CFD-WM-009-009-A.jpg,1700,solid,I,None,1514,prac,1,119845.89999997616,432256.3000000119,8018,ATS,B,8
4,3,2,C,mfborder.png,0,z,Tue Jan 21 2025 18:29:50 GMT-0600 (Central Standard Time),555401.0,CFD-BF-035-007-HC.jpg,1000,dash,I,None,1527,prac,1,123144.69999998808,432256.3000000119,8018,ATS,B,9
4,1,2,C,mfborder.png,0,z,Tue Jan 21 2025 18:29:50 GMT-0600 (Central Standard Time),559300.0999999642,CFD-WF-011-006-HC.jpg,1600,dash,I,None,1514,prac,1,127043.79999995232,432256.3000000119,8018,ATS,B,10
4,12,2,C,haborder.png,0,m,Tue Jan 21 2025 18:29:50 GMT-0600 (Central Standard Time),562998.8000000119,CFD-WM-011-006-HC.jpg,1400,solid,I,None,1511,prac,1,130742.5,432256.3000000119,8018,ATS,B,11
4,5,2,C,mfborder.png,0,m,Tue Jan 21 2025 18:29:50 GMT-0600 (Central Standard Time),566497.6999999881,CFD-BM-037-041-A.jpg,1200,dash,I,None,1514,prac,1,134241.39999997616,432256.3000000119,8018,ATS,B,12
0,test,1,C,haborder.png,0,z,Tue Jan 21 2025 18:29:50 GMT-0600 (Central Standard Time),594272.3000000119,CFD-WM-009-009-A.jpg,1400,solid,I,None,1514,7,1,2932.300000011921,591340.0,8018,ATS,B,1
1,test,1,C,haborder.png,1,z,Tue Jan 21 2025 18:29:50 GMT-0600 (Central Standard Time),596988.3000000119,CFD-BM-041-048-A.jpg,1700,solid,I,z,985,9,1,5648.300000011921,591340.0,8018,ATS,B,2
1,test,1,C,haborder.png,0,m,Tue Jan 21 2025 18:29:50 GMT-0600 (Central Standard Time),599520.6999999881,CFD-WF-011-006-HC.jpg,1000,solid,I,None,1511,12,1,8180.699999988079,591340.0,8018,ATS,B,3
1,test,1,C,mfborder.png,0,z,Tue Jan 21 2025 18:29:50 GMT-0600 (Central Standard Time),602553.0999999642,CFD-WF-026-008-A.jpg,1500,dash,I,None,1514,3,1,11213.099999964237,591340.0,8018,ATS,B,4
2,test,1,C,haborder.png,1,z,Tue Jan 21 2025 18:29:50 GMT-0600 (Central Standard Time),605935.3000000119,CFD-BM-037-041-A.jpg,1900,solid,I,z,1457,8,1,14595.300000011921,591340.0,8018,ATS,B,5
2,test,1,C,mfborder.png,0,z,Tue Jan 21 2025 18:29:50 GMT-0600 (Central Standard Time),608984.3000000119,CFD-BF-027-013-HC.jpg,1700,dash,I,m,1323,1,1,17644.30000001192,591340.0,8018,ATS,B,6
3,test,1,C,mfborder.png,1,m,Tue Jan 21 2025 18:29:50 GMT-0600 (Central Standard Time),611666.8000000119,CFD-BM-020-024-HC.jpg,1200,dash,I,m,1445,6,1,20326.80000001192,591340.0,8018,ATS,B,7
4,test,1,C,mfborder.png,1,m,Tue Jan 21 2025 18:29:50 GMT-0600 (Central Standard Time),613616.1999999881,CFD-WM-012-007-HC.jpg,1000,dash,I,m,915,4,1,22276.19999998808,591340.0,8018,ATS,B,8
5,test,1,C,mfborder.png,1,z,Tue Jan 21 2025 18:29:50 GMT-0600 (Central Standard Time),616298.8000000119,CFD-BF-051-043-A.jpg,1600,dash,I,z,1048,2,1,24958.80000001192,591340.0,8018,ATS,B,9
6,test,1,C,haborder.png,1,z,Tue Jan 21 2025 18:29:50 GMT-0600 (Central Standard Time),619297.8000000119,CFD-BM-037-041-A.jpg,1900,solid,I,z,1074,8,1,27957.80000001192,591340.0,8018,ATS,B,10
6,test,1,C,mfborder.png,0,z,Tue Jan 21 2025 18:29:50 GMT-0600 (Central Standard Time),622430.1999999881,CFD-BF-051-043-A.jpg,1600,dash,I,None,1514,2,1,31090.19999998808,591340.0,8018,ATS,B,11
6,test,1,C,haborder.png,0,m,Tue Jan 21 2025 18:29:50 GMT-0600 (Central Standard Time),625562.3000000119,CFD-BF-035-007-HC.jpg,1600,solid,I,None,1514,10,1,34222.30000001192,591340.0,8018,ATS,B,12
6,test,1,C,haborder.png,0,m,Tue Jan 21 2025 18:29:50 GMT-0600 (Central Standard Time),628244.8999999762,CFD-WF-027-007-HC.jpg,1500,solid,I,z,1154,11,1,36904.89999997616,591340.0,8018,ATS,B,13
6,test,1,C,mfborder.png,0,m,Tue Jan 21 2025 18:29:50 GMT-0600 (Central Standard Time),630977.5999999642,CFD-BM-020-024-HC.jpg,1200,dash,I,None,1512,6,1,39637.59999996424,591340.0,8018,ATS,B,14
6,test,1,C,mfborder.png,0,m,Tue Jan 21 2025 18:29:50 GMT-0600 (Central Standard Time),634509.8000000119,CFD-WM-037-060-A.jpg,2000,dash,I,None,1511,5,1,43169.80000001192,591340.0,8018,ATS,B,15
7,test,1,C,haborder.png,1,z,Tue Jan 21 2025 18:29:50 GMT-0600 (Central Standard Time),636958.8999999762,CFD-WM-009-009-A.jpg,1400,solid,I,z,1027,7,1,45618.89999997616,591340.0,8018,ATS,B,16
7,test,1,C,haborder.png,0,m,Tue Jan 21 2025 18:29:50 GMT-0600 (Central Standard Time),638874.8999999762,CFD-WF-011-006-HC.jpg,1000,solid,I,z,882,12,1,47534.89999997616,591340.0,8018,ATS,B,17
8,test,1,C,haborder.png,1,m,Tue Jan 21 2025 18:29:50 GMT-0600 (Central Standard Time),641607.3999999762,CFD-WF-027-007-HC.jpg,1500,solid,I,m,1210,11,1,50267.39999997616,591340.0,8018,ATS,B,18
8,test,1,C,mfborder.png,0,z,Tue Jan 21 2025 18:29:50 GMT-0600 (Central Standard Time),644640.0,CFD-WF-026-008-A.jpg,1500,dash,I,None,1514,3,1,53300.0,591340.0,8018,ATS,B,19
8,test,1,C,haborder.png,0,m,Tue Jan 21 2025 18:29:50 GMT-0600 (Central Standard Time),647705.6999999881,CFD-BF-035-007-HC.jpg,1600,solid,I,z,1438,10,1,56365.69999998808,591340.0,8018,ATS,B,20
8,test,1,C,mfborder.png,0,m,Tue Jan 21 2025 18:29:50 GMT-0600 (Central Standard Time),651238.0999999642,CFD-WM-037-060-A.jpg,2000,dash,I,None,1511,5,1,59898.09999996424,591340.0,8018,ATS,B,21
8,test,1,C,mfborder.png,0,z,Tue Jan 21 2025 18:29:50 GMT-0600 (Central Standard Time),654236.8000000119,CFD-BF-027-013-HC.jpg,1700,dash,I,m,1268,1,1,62896.80000001192,591340.0,8018,ATS,B,22
8,test,1,C,mfborder.png,0,m,Tue Jan 21 2025 18:29:50 GMT-0600 (Central Standard Time),656769.3000000119,CFD-WM-012-007-HC.jpg,1000,dash,I,None,1511,4,1,65429.30000001192,591340.0,8018,ATS,B,23
8,test,1,C,haborder.png,0,z,Tue Jan 21 2025 18:29:50 GMT-0600 (Central Standard Time),659285.1999999881,CFD-BM-041-048-A.jpg,1700,solid,I,m,788,9,1,67945.19999998808,591340.0,8018,ATS,B,24
1,test,2,C,haborder.png,1,z,Tue Jan 21 2025 18:29:50 GMT-0600 (Central Standard Time),675413.6999999881,CFD-BF-051-043-A.jpg,1400,solid,I,z,1118,7,1,2549.199999988079,672864.5,8018,ATS,B,1
2,test,2,C,haborder.png,1,z,Tue Jan 21 2025 18:29:50 GMT-0600 (Central Standard Time),677979.3999999762,CFD-WF-026-008-A.jpg,1700,solid,I,z,839,9,1,5114.899999976158,672864.5,8018,ATS,B,2
3,test,2,C,mfborder.png,1,m,Tue Jan 21 2025 18:29:50 GMT-0600 (Central Standard Time),681378.3999999762,CFD-BM-037-041-A.jpg,2000,dash,I,m,1365,5,1,8513.899999976158,672864.5,8018,ATS,B,3
3,test,2,C,mfborder.png,0,z,Tue Jan 21 2025 18:29:50 GMT-0600 (Central Standard Time),684227.3999999762,CFD-BF-035-007-HC.jpg,1500,dash,I,m,1322,3,1,11362.899999976158,672864.5,8018,ATS,B,4
3,test,2,C,mfborder.png,0,z,Tue Jan 21 2025 18:29:50 GMT-0600 (Central Standard Time),687460.0,CFD-WF-011-006-HC.jpg,1700,dash,I,None,1515,1,1,14595.5,672864.5,8018,ATS,B,5
4,test,2,C,mfborder.png,1,m,Tue Jan 21 2025 18:29:50 GMT-0600 (Central Standard Time),689893.5,CFD-BM-015-017-HC.jpg,1000,dash,I,m,1413,4,1,17029.0,672864.5,8018,ATS,B,6
4,test,2,C,haborder.png,0,m,Tue Jan 21 2025 18:29:50 GMT-0600 (Central Standard Time),692558.0999999642,CFD-BM-020-024-HC.jpg,1600,solid,I,z,1041,10,1,19693.599999964237,672864.5,8018,ATS,B,7
4,test,2,C,mfborder.png,0,z,Tue Jan 21 2025 18:29:50 GMT-0600 (Central Standard Time),695690.5,CFD-WF-013-015-A.jpg,1600,dash,I,None,1510,2,1,22826.0,672864.5,8018,ATS,B,8
5,test,2,C,mfborder.png,1,m,Tue Jan 21 2025 18:29:50 GMT-0600 (Central Standard Time),697589.8999999762,CFD-BM-015-017-HC.jpg,1000,dash,I,m,867,4,1,24725.399999976158,672864.5,8018,ATS,B,9
5,test,2,C,mfborder.png,0,z,Tue Jan 21 2025 18:29:50 GMT-0600 (Central Standard Time),699939.0999999642,CFD-BF-035-007-HC.jpg,1500,dash,I,m,831,3,1,27074.599999964237,672864.5,8018,ATS,B,10
5,test,2,C,haborder.png,0,m,Tue Jan 21 2025 18:29:50 GMT-0600 (Central Standard Time),702588.3999999762,CFD-WM-011-006-HC.jpg,1500,solid,I,z,1128,11,1,29723.899999976158,672864.5,8018,ATS,B,11
6,test,2,C,haborder.png,1,z,Tue Jan 21 2025 18:29:50 GMT-0600 (Central Standard Time),705487.5,CFD-BF-050-012-A.jpg,1900,solid,I,z,976,8,1,32623.0,672864.5,8018,ATS,B,12
7,test,2,C,haborder.png,1,z,Tue Jan 21 2025 18:29:50 GMT-0600 (Central Standard Time),707936.6999999881,CFD-BF-051-043-A.jpg,1400,solid,I,z,1014,7,1,35072.19999998808,672864.5,8018,ATS,B,13
8,test,2,C,haborder.png,1,m,Tue Jan 21 2025 18:29:50 GMT-0600 (Central Standard Time),710619.0999999642,CFD-WM-011-006-HC.jpg,1500,solid,I,m,1161,11,1,37754.59999996424,672864.5,8018,ATS,B,14
9,test,2,C,haborder.png,1,z,Tue Jan 21 2025 18:29:50 GMT-0600 (Central Standard Time),713435.0,CFD-BF-050-012-A.jpg,1900,solid,I,z,882,8,1,40570.5,672864.5,8018,ATS,B,15
10,test,2,C,mfborder.png,1,m,Tue Jan 21 2025 18:29:50 GMT-0600 (Central Standard Time),715884.1999999881,CFD-WM-009-009-A.jpg,1200,dash,I,m,1230,6,1,43019.69999998808,672864.5,8018,ATS,B,16
11,test,2,C,mfborder.png,1,z,Tue Jan 21 2025 18:29:50 GMT-0600 (Central Standard Time),718867.8999999762,CFD-WF-013-015-A.jpg,1600,dash,I,z,1356,2,1,46003.39999997616,672864.5,8018,ATS,B,17
12,test,2,C,mfborder.png,1,m,Tue Jan 21 2025 18:29:50 GMT-0600 (Central Standard Time),721365.8000000119,CFD-WM-009-009-A.jpg,1200,dash,I,m,1275,6,1,48501.30000001192,672864.5,8018,ATS,B,18
12,test,2,C,haborder.png,0,m,Tue Jan 21 2025 18:29:50 GMT-0600 (Central Standard Time),723415.3000000119,CFD-WM-011-006-HC.jpg,1000,solid,I,z,1023,12,1,50550.80000001192,672864.5,8018,ATS,B,19
12,test,2,C,haborder.png,0,m,Tue Jan 21 2025 18:29:50 GMT-0600 (Central Standard Time),725397.8000000119,CFD-WM-011-006-HC.jpg,1000,solid,I,z,954,12,1,52533.30000001192,672864.5,8018,ATS,B,20
13,test,2,C,haborder.png,1,z,Tue Jan 21 2025 18:29:50 GMT-0600 (Central Standard Time),728313.6999999881,CFD-WF-026-008-A.jpg,1700,solid,I,z,1191,9,1,55449.19999998808,672864.5,8018,ATS,B,21
14,test,2,C,mfborder.png,1,m,Tue Jan 21 2025 18:29:50 GMT-0600 (Central Standard Time),731579.3999999762,CFD-BM-037-041-A.jpg,2000,dash,I,m,1244,5,1,58714.89999997616,672864.5,8018,ATS,B,22
14,test,2,C,haborder.png,0,m,Tue Jan 21 2025 18:29:50 GMT-0600 (Central Standard Time),733978.5999999642,CFD-BM-020-024-HC.jpg,1600,solid,I,z,774,10,1,61114.09999996424,672864.5,8018,ATS,B,23
15,test,2,C,mfborder.png,1,z,Tue Jan 21 2025 18:29:50 GMT-0600 (Central Standard Time),737077.5,CFD-WF-011-006-HC.jpg,1700,dash,I,z,1378,1,1,64213.0,672864.5,8018,ATS,B,24
1,test,3,C,mfborder.png,1,z,Tue Jan 21 2025 18:29:50 GMT-0600 (Central Standard Time),745341.8999999762,CFD-WF-026-008-A.jpg,1500,dash,I,z,1417,3,1,2949.300000011921,742392.5999999642,8018,ATS,B,1
1,test,3,C,mfborder.png,0,m,Tue Jan 21 2025 18:29:50 GMT-0600 (Central Standard Time),747874.3999999762,CFD-WM-012-007-HC.jpg,1000,dash,I,None,1514,4,1,5481.800000011921,742392.5999999642,8018,ATS,B,2
1,test,3,C,haborder.png,0,m,Tue Jan 21 2025 18:29:50 GMT-0600 (Central Standard Time),751006.5999999642,CFD-BF-035-007-HC.jpg,1600,solid,I,None,1511,10,1,8614.0,742392.5999999642,8018,ATS,B,3
1,test,3,C,haborder.png,0,m,Tue Jan 21 2025 18:29:50 GMT-0600 (Central Standard Time),754038.8999999762,CFD-WF-027-007-HC.jpg,1500,solid,I,None,1511,11,1,11646.300000011921,742392.5999999642,8018,ATS,B,4
1,test,3,C,mfborder.png,0,m,Tue Jan 21 2025 18:29:50 GMT-0600 (Central Standard Time),756988.0999999642,CFD-WM-037-060-A.jpg,2000,dash,I,z,922,5,1,14595.5,742392.5999999642,8018,ATS,B,5
2,test,3,C,mfborder.png,1,m,Tue Jan 21 2025 18:29:50 GMT-0600 (Central Standard Time),759387.6999999881,CFD-WM-012-007-HC.jpg,1000,dash,I,m,1361,4,1,16995.100000023842,742392.5999999642,8018,ATS,B,6
2,test,3,C,haborder.png,0,m,Tue Jan 21 2025 18:29:50 GMT-0600 (Central Standard Time),761969.8000000119,CFD-WF-027-007-HC.jpg,1500,solid,I,z,1048,11,1,19577.200000047684,742392.5999999642,8018,ATS,B,7
2,test,3,C,haborder.png,0,z,Tue Jan 21 2025 18:29:50 GMT-0600 (Central Standard Time),765402.3000000119,CFD-BM-037-041-A.jpg,1900,solid,I,None,1511,8,1,23009.700000047684,742392.5999999642,8018,ATS,B,8
2,test,3,C,mfborder.png,0,z,Tue Jan 21 2025 18:29:50 GMT-0600 (Central Standard Time),768634.3000000119,CFD-BF-027-013-HC.jpg,1700,dash,I,None,1514,1,1,26241.700000047684,742392.5999999642,8018,ATS,B,9
3,test,3,C,mfborder.png,1,m,Tue Jan 21 2025 18:29:50 GMT-0600 (Central Standard Time),771050.3999999762,CFD-BM-020-024-HC.jpg,1200,dash,I,m,1182,6,1,28657.80000001192,742392.5999999642,8018,ATS,B,10
4,test,3,C,mfborder.png,1,m,Tue Jan 21 2025 18:29:50 GMT-0600 (Central Standard Time),774332.5999999642,CFD-WM-037-060-A.jpg,2000,dash,I,m,1263,5,1,31940.0,742392.5999999642,8018,ATS,B,11
4,test,3,C,mfborder.png,0,z,Tue Jan 21 2025 18:29:50 GMT-0600 (Central Standard Time),776698.5999999642,CFD-BF-051-043-A.jpg,1600,dash,I,m,741,2,1,34306.0,742392.5999999642,8018,ATS,B,12
5,test,3,C,mfborder.png,1,z,Tue Jan 21 2025 18:29:50 GMT-0600 (Central Standard Time),779697.6999999881,CFD-BF-027-013-HC.jpg,1700,dash,I,z,1274,1,1,37305.10000002384,742392.5999999642,8018,ATS,B,13
6,test,3,C,mfborder.png,1,z,Tue Jan 21 2025 18:29:50 GMT-0600 (Central Standard Time),782546.6999999881,CFD-BF-051-043-A.jpg,1600,dash,I,z,1221,2,1,40154.10000002384,742392.5999999642,8018,ATS,B,14
7,test,3,C,mfborder.png,1,m,Tue Jan 21 2025 18:29:50 GMT-0600 (Central Standard Time),784845.8000000119,CFD-BM-020-024-HC.jpg,1200,dash,I,m,1078,6,1,42453.200000047684,742392.5999999642,8018,ATS,B,15
8,test,3,C,haborder.png,1,z,Tue Jan 21 2025 18:29:50 GMT-0600 (Central Standard Time),788011.6999999881,CFD-BM-037-041-A.jpg,1900,solid,I,z,1239,8,1,45619.10000002384,742392.5999999642,8018,ATS,B,16
9,test,3,C,haborder.png,1,z,Tue Jan 21 2025 18:29:50 GMT-0600 (Central Standard Time),790844.0,CFD-BM-041-048-A.jpg,1700,solid,I,z,1113,9,1,48451.40000003576,742392.5999999642,8018,ATS,B,17
10,test,3,C,haborder.png,1,z,Tue Jan 21 2025 18:29:50 GMT-0600 (Central Standard Time),793393.3000000119,CFD-BM-041-048-A.jpg,1700,solid,I,z,817,9,1,51000.700000047684,742392.5999999642,8018,ATS,B,18
10,test,3,C,haborder.png,0,m,Tue Jan 21 2025 18:29:50 GMT-0600 (Central Standard Time),796525.8000000119,CFD-BF-035-007-HC.jpg,1600,solid,I,None,1514,10,1,54133.200000047684,742392.5999999642,8018,ATS,B,19
10,test,3,C,mfborder.png,0,z,Tue Jan 21 2025 18:29:50 GMT-0600 (Central Standard Time),799558.3000000119,CFD-WF-026-008-A.jpg,1500,dash,I,None,1514,3,1,57165.700000047684,742392.5999999642,8018,ATS,B,20
10,test,3,C,haborder.png,0,m,Tue Jan 21 2025 18:29:50 GMT-0600 (Central Standard Time),801807.1999999881,CFD-WF-011-006-HC.jpg,1000,solid,I,z,1215,12,1,59414.60000002384,742392.5999999642,8018,ATS,B,21
11,test,3,C,haborder.png,1,z,Tue Jan 21 2025 18:29:50 GMT-0600 (Central Standard Time),804290.0,CFD-WM-009-009-A.jpg,1400,solid,I,z,1054,7,1,61897.40000003576,742392.5999999642,8018,ATS,B,22
12,test,3,C,haborder.png,1,m,Tue Jan 21 2025 18:29:50 GMT-0600 (Central Standard Time),806155.8000000119,CFD-WF-011-006-HC.jpg,1000,solid,I,m,839,12,1,63763.200000047684,742392.5999999642,8018,ATS,B,23
12,test,3,C,haborder.png,0,z,Tue Jan 21 2025 18:29:50 GMT-0600 (Central Standard Time),808705.1999999881,CFD-WM-009-009-A.jpg,1400,solid,I,m,1117,7,1,66312.60000002384,742392.5999999642,8018,ATS,B,24
0,test,4,C,mfborder.png,0,z,Tue Jan 21 2025 18:29:50 GMT-0600 (Central Standard Time),817219.1999999881,CFD-BF-035-007-HC.jpg,1500,dash,I,None,1511,3,1,3032.100000023842,814187.0999999642,8018,ATS,B,1
1,test,4,C,mfborder.png,1,m,Tue Jan 21 2025 18:29:50 GMT-0600 (Central Standard Time),819435.3999999762,CFD-BM-015-017-HC.jpg,1000,dash,I,m,1178,4,1,5248.300000011921,814187.0999999642,8018,ATS,B,2
1,test,4,C,haborder.png,0,m,Tue Jan 21 2025 18:29:50 GMT-0600 (Central Standard Time),822084.5,CFD-WM-011-006-HC.jpg,1500,solid,I,z,1122,11,1,7897.400000035763,814187.0999999642,8018,ATS,B,3
2,test,4,C,haborder.png,1,z,Tue Jan 21 2025 18:29:50 GMT-0600 (Central Standard Time),824916.6999999881,CFD-BF-050-012-A.jpg,1900,solid,I,z,905,8,1,10729.600000023842,814187.0999999642,8018,ATS,B,4
3,test,4,C,mfborder.png,1,m,Tue Jan 21 2025 18:29:50 GMT-0600 (Central Standard Time),827315.6999999881,CFD-BM-015-017-HC.jpg,1000,dash,I,m,1380,4,1,13128.600000023842,814187.0999999642,8018,ATS,B,5
4,test,4,C,mfborder.png,1,m,Tue Jan 21 2025 18:29:50 GMT-0600 (Central Standard Time),829648.5,CFD-WM-009-009-A.jpg,1200,dash,I,m,1109,6,1,15461.400000035763,814187.0999999642,8018,ATS,B,6
4,test,4,C,haborder.png,0,m,Tue Jan 21 2025 18:29:50 GMT-0600 (Central Standard Time),832681.3999999762,CFD-WM-011-006-HC.jpg,1500,solid,I,None,1514,11,1,18494.30000001192,814187.0999999642,8018,ATS,B,7
5,test,4,C,haborder.png,1,z,Tue Jan 21 2025 18:29:50 GMT-0600 (Central Standard Time),835580.1999999881,CFD-WF-026-008-A.jpg,1700,solid,I,z,1172,9,1,21393.100000023842,814187.0999999642,8018,ATS,B,8
6,test,4,C,haborder.png,1,m,Tue Jan 21 2025 18:29:50 GMT-0600 (Central Standard Time),837481.5,CFD-WM-011-006-HC.jpg,1000,solid,I,m,869,12,1,23294.400000035763,814187.0999999642,8018,ATS,B,9
7,test,4,C,mfborder.png,1,m,Tue Jan 21 2025 18:29:50 GMT-0600 (Central Standard Time),840962.0,CFD-BM-037-041-A.jpg,2000,dash,I,m,1457,5,1,26774.900000035763,814187.0999999642,8018,ATS,B,10
7,test,4,C,haborder.png,0,m,Tue Jan 21 2025 18:29:50 GMT-0600 (Central Standard Time),844094.3000000119,CFD-BM-020-024-HC.jpg,1600,solid,I,None,1514,10,1,29907.200000047684,814187.0999999642,8018,ATS,B,11
8,test,4,C,haborder.png,1,z,Tue Jan 21 2025 18:29:50 GMT-0600 (Central Standard Time),846543.3999999762,CFD-BF-051-043-A.jpg,1400,solid,I,z,1019,7,1,32356.30000001192,814187.0999999642,8018,ATS,B,12
8,test,4,C,mfborder.png,0,z,Tue Jan 21 2025 18:29:50 GMT-0600 (Central Standard Time),849775.8000000119,CFD-WF-011-006-HC.jpg,1700,dash,I,None,1511,1,1,35588.700000047684,814187.0999999642,8018,ATS,B,13
8,test,4,C,mfborder.png,0,z,Tue Jan 21 2025 18:29:50 GMT-0600 (Central Standard Time),852891.5999999642,CFD-WF-013-015-A.jpg,1600,dash,I,m,1489,2,1,38704.5,814187.0999999642,8018,ATS,B,14
9,test,4,C,haborder.png,1,z,Tue Jan 21 2025 18:29:50 GMT-0600 (Central Standard Time),856023.8000000119,CFD-WF-026-008-A.jpg,1700,solid,I,z,1406,9,1,41836.700000047684,814187.0999999642,8018,ATS,B,15
9,test,4,C,mfborder.png,0,z,Tue Jan 21 2025 18:29:50 GMT-0600 (Central Standard Time),859155.8999999762,CFD-WF-013-015-A.jpg,1600,dash,I,None,1514,2,1,44968.80000001192,814187.0999999642,8018,ATS,B,16
9,test,4,C,mfborder.png,0,z,Tue Jan 21 2025 18:29:50 GMT-0600 (Central Standard Time),861573.0,CFD-BF-035-007-HC.jpg,1500,dash,I,m,893,3,1,47385.90000003576,814187.0999999642,8018,ATS,B,17
9,test,4,C,haborder.png,0,m,Tue Jan 21 2025 18:29:50 GMT-0600 (Central Standard Time),864321.1999999881,CFD-BM-020-024-HC.jpg,1600,solid,I,z,1117,10,1,50134.10000002384,814187.0999999642,8018,ATS,B,18
9,test,4,C,mfborder.png,0,z,Tue Jan 21 2025 18:29:50 GMT-0600 (Central Standard Time),867320.0999999642,CFD-WF-011-006-HC.jpg,1700,dash,I,m,1273,1,1,53133.0,814187.0999999642,8018,ATS,B,19
10,test,4,C,mfborder.png,1,m,Tue Jan 21 2025 18:29:50 GMT-0600 (Central Standard Time),870469.3000000119,CFD-BM-037-041-A.jpg,2000,dash,I,m,1121,5,1,56282.200000047684,814187.0999999642,8018,ATS,B,20
11,test,4,C,haborder.png,1,z,Tue Jan 21 2025 18:29:50 GMT-0600 (Central Standard Time),872985.0999999642,CFD-BF-051-043-A.jpg,1400,solid,I,z,1084,7,1,58798.0,814187.0999999642,8018,ATS,B,21
11,test,4,C,haborder.png,0,m,Tue Jan 21 2025 18:29:50 GMT-0600 (Central Standard Time),875517.6999999881,CFD-WM-011-006-HC.jpg,1000,solid,I,None,1512,12,1,61330.60000002384,814187.0999999642,8018,ATS,B,22
12,test,4,C,haborder.png,1,z,Tue Jan 21 2025 18:29:50 GMT-0600 (Central Standard Time),878449.5999999642,CFD-BF-050-012-A.jpg,1900,solid,I,z,1007,8,1,64262.5,814187.0999999642,8018,ATS,B,23
12,test,4,C,mfborder.png,0,m,Tue Jan 21 2025 18:29:50 GMT-0600 (Central Standard Time),881182.5,CFD-WM-009-009-A.jpg,1200,dash,I,None,1510,6,1,66995.40000003576,814187.0999999642,8018,ATS,B,24
