Q,Q1,Q2,Q3,Q4,acc_sum,block,block_c,correct,correct_response,datetime,endtime,project,response,response_time,row_sel,session_number,squiggle1,squiggle1x,squiggle1y,squiggle2,squiggle2x,squiggle2y,squiggle3,squiggle3x,squiggle3y,squiggle4,squiggle4x,squiggle4y,start_end,starttime,subject_id,target_congruent,task,task_vers,testsquiggle,testsquigglex,testsquiggley,time_practice_delay,time_practice_fixation,time_practice_stimuli,time_practice_study,time_test_delay,time_test_fixation,time_test_stimuli,time_test_study,trial
1,1,0,0,0,0,prac,1,0,z,Fri Oct 04 2024 10:14:13 GMT-0500 (Central Daylight Time),390406.0,I,None,2016,1,1,116.bmp,-120,-120,117.bmp,120,-120,118.bmp,-120,120,119.bmp,120,120,10827.0,379579.0,8003,yes,SM,A,116.bmp,-120,-120,161756,155727,163772,157740,,,,,1
3,0,0,1,0,1,prac,1,1,m,Fri Oct 04 2024 10:14:13 GMT-0500 (Central Daylight Time),401069.40000000596,I,m,1837,2,1,120.bmp,-120,-120,121.bmp,120,-120,122.bmp,-120,120,123.bmp,120,120,10659.40000000596,390410.0,8003,no,SM,A,123.bmp,-120,120,172585,166558,174602,168570,,,,,2
4,0,0,0,1,2,prac,1,1,m,Fri Oct 04 2024 10:14:13 GMT-0500 (Central Daylight Time),411449.40000000596,I,m,1566,3,1,124.bmp,-120,-120,125.bmp,120,-120,126.bmp,-120,120,127.bmp,120,120,10376.10000000149,401073.30000000447,8003,no,SM,A,124.bmp,120,120,183249,177222,185265,179234,,,,,3
2,0,1,0,0,2,prac,1,0,z,Fri Oct 04 2024 10:14:13 GMT-0500 (Central Daylight Time),422280.5,I,None,2015,4,1,128.bmp,-120,-120,129.bmp,120,-120,130.bmp,-120,120,131.bmp,120,120,10827.69999999553,411452.80000000447,8003,yes,SM,A,129.bmp,120,-120,193629,187601,195646,189614,,,,,4
3,0,0,1,0,2,prac,1,0,z,Fri Oct 04 2024 10:14:13 GMT-0500 (Central Daylight Time),433109.5,I,None,2016,5,1,132.bmp,-120,-120,133.bmp,120,-120,134.bmp,-120,120,135.bmp,120,120,10825.29999999702,422284.200000003,8003,yes,SM,A,134.bmp,-120,120,204459,198433,206476,200444,,,,,5
1,1,0,0,0,2,prac,1,0,m,Fri Oct 04 2024 10:14:13 GMT-0500 (Central Daylight Time),443556.30000000447,I,z,1630,6,1,136.bmp,-120,-120,137.bmp,120,-120,138.bmp,-120,120,139.bmp,120,120,10443.10000000149,433113.200000003,8003,no,SM,A,139.bmp,-120,-120,215290,209261,217305,211274,,,,,6
2,0,1,0,0,3,prac,1,1,m,Fri Oct 04 2024 10:14:13 GMT-0500 (Central Daylight Time),454003.0,I,m,1623,7,1,140.bmp,-120,-120,141.bmp,120,-120,142.bmp,-120,120,143.bmp,120,120,10442.19999999553,443560.80000000447,8003,no,SM,A,140.bmp,120,-120,225736,219709,227752,221720,,,,,7
4,0,0,0,1,4,prac,1,1,z,Fri Oct 04 2024 10:14:13 GMT-0500 (Central Daylight Time),464166.30000000447,I,z,1335,8,1,144.bmp,-120,-120,145.bmp,120,-120,146.bmp,-120,120,147.bmp,120,120,10159.60000000149,454006.700000003,8003,yes,SM,A,147.bmp,120,120,236182,230155,238199,232167,,,,,8
1,1,0,0,0,1,prac,2,1,z,Fri Oct 04 2024 10:14:13 GMT-0500 (Central Daylight Time),484159.90000000596,I,z,934,1,1,116.bmp,-120,-120,117.bmp,120,-120,118.bmp,-120,120,119.bmp,120,120,9760.60000000149,474399.30000000447,8003,yes,SM,A,116.bmp,-120,-120,256576,250548,258592,252561,,,,,1
3,0,0,1,0,2,prac,2,1,m,Fri Oct 04 2024 10:14:13 GMT-0500 (Central Daylight Time),494373.6000000015,I,m,1395,2,1,120.bmp,-120,-120,121.bmp,120,-120,122.bmp,-120,120,123.bmp,120,120,10210.5,484163.1000000015,8003,no,SM,A,123.bmp,-120,120,266340,260311,268356,262324,,,,,2
4,0,0,0,1,3,prac,2,1,m,Fri Oct 04 2024 10:14:13 GMT-0500 (Central Daylight Time),504470.5,I,m,1269,3,1,124.bmp,-120,-120,125.bmp,120,-120,126.bmp,-120,120,127.bmp,120,120,10093.0,494377.5,8003,no,SM,A,124.bmp,120,120,276553,270526,278570,272538,,,,,3
2,0,1,0,0,4,prac,2,1,z,Fri Oct 04 2024 10:14:13 GMT-0500 (Central Daylight Time),514833.700000003,I,z,1549,4,1,128.bmp,-120,-120,129.bmp,120,-120,130.bmp,-120,120,131.bmp,120,120,10359.70000000298,504474.0,8003,yes,SM,A,129.bmp,120,-120,286651,280622,288666,282635,,,,,4
3,0,0,1,0,4,prac,2,0,z,Fri Oct 04 2024 10:14:13 GMT-0500 (Central Daylight Time),525013.900000006,I,m,1354,5,1,132.bmp,-120,-120,133.bmp,120,-120,134.bmp,-120,120,135.bmp,120,120,10176.40000000596,514837.5,8003,yes,SM,A,134.bmp,-120,120,297013,290986,299029,292998,,,,,5
1,1,0,0,0,5,prac,2,1,m,Fri Oct 04 2024 10:14:13 GMT-0500 (Central Daylight Time),535044.0,I,m,1213,6,1,136.bmp,-120,-120,137.bmp,120,-120,138.bmp,-120,120,139.bmp,120,120,10026.5,525017.5,8003,no,SM,A,139.bmp,-120,-120,307193,301166,309210,303178,,,,,6
2,0,1,0,0,6,prac,2,1,m,Fri Oct 04 2024 10:14:13 GMT-0500 (Central Daylight Time),545308.6000000015,I,m,1352,7,1,140.bmp,-120,-120,141.bmp,120,-120,142.bmp,-120,120,143.bmp,120,120,10261.29999999702,535047.3000000045,8003,no,SM,A,140.bmp,120,-120,317224,311196,319335,313208,,,,,7
4,0,0,0,1,7,prac,2,1,z,Fri Oct 04 2024 10:14:13 GMT-0500 (Central Daylight Time),555404.200000003,I,z,1272,8,1,144.bmp,-120,-120,145.bmp,120,-120,146.bmp,-120,120,147.bmp,120,120,10092.10000000149,545312.1000000015,8003,yes,SM,A,147.bmp,120,120,327488,321460,329503,323472,,,,,8
4,0,0,0,1,0,test,1,0,m,Fri Oct 04 2024 10:14:13 GMT-0500 (Central Daylight Time),591276.700000003,I,z,1806,1,1,148.bmp,-120,-120,149.bmp,120,-120,150.bmp,-120,120,143.bmp,120,120,9861.0,581415.700000003,8003,no,SM,A,150.bmp,120,120,327488,321460,329503,323472,363593.0,357564.0,365609.0,359577.0,1
2,0,1,0,0,1,test,1,1,m,Fri Oct 04 2024 10:14:13 GMT-0500 (Central Daylight Time),600707.0,I,m,1383,2,1,101.bmp,-120,-120,102.bmp,120,-120,103.bmp,-120,120,104.bmp,120,120,9426.39999999851,591280.6000000015,8003,no,SM,A,103.bmp,120,-120,327488,321460,329503,323472,373456.0,367429.0,375472.0,369441.0,2
1,1,0,0,0,1,test,1,0,z,Fri Oct 04 2024 10:14:13 GMT-0500 (Central Daylight Time),610387.1000000015,I,m,1616,3,1,105.bmp,-120,-120,106.bmp,120,-120,107.bmp,-120,120,108.bmp,120,120,9677.19999999553,600709.900000006,8003,yes,SM,A,105.bmp,-120,-120,327488,321460,329503,323472,382886.0,376858.0,384903.0,378871.0,3
3,0,0,1,0,2,test,1,1,m,Fri Oct 04 2024 10:14:13 GMT-0500 (Central Daylight Time),620217.6000000015,I,m,1767,4,1,109.bmp,-120,-120,110.bmp,120,-120,111.bmp,-120,120,112.bmp,120,120,9827.10000000149,610390.5,8003,no,SM,A,109.bmp,-120,120,327488,321460,329503,323472,392567.0,386539.0,394583.0,388553.0,4
2,0,1,0,0,3,test,1,1,z,Fri Oct 04 2024 10:14:13 GMT-0500 (Central Daylight Time),630047.5,I,z,1769,5,1,113.bmp,-120,-120,114.bmp,120,-120,115.bmp,-120,120,116.bmp,120,120,9827.0,620220.5,8003,yes,SM,A,114.bmp,120,-120,327488,321460,329503,323472,402397.0,396369.0,404413.0,398382.0,5
3,0,0,1,0,4,test,1,1,z,Fri Oct 04 2024 10:14:13 GMT-0500 (Central Daylight Time),639428.900000006,I,z,1332,6,1,117.bmp,-120,-120,118.bmp,120,-120,119.bmp,-120,120,120.bmp,120,120,9378.0,630050.900000006,8003,yes,SM,A,119.bmp,-120,120,327488,321460,329503,323472,412227.0,406199.0,414243.0,408212.0,6
4,0,0,0,1,5,test,1,1,z,Fri Oct 04 2024 10:14:13 GMT-0500 (Central Daylight Time),649474.700000003,I,z,1983,7,1,121.bmp,-120,-120,122.bmp,120,-120,123.bmp,-120,120,124.bmp,120,120,10042.70000000298,639432.0,8003,yes,SM,A,124.bmp,120,120,327488,321460,329503,323472,421608.0,415580.0,423624.0,417592.0,7
2,0,1,0,0,5,test,1,0,m,Fri Oct 04 2024 10:14:13 GMT-0500 (Central Daylight Time),659538.1000000015,I,None,2016,8,1,125.bmp,-120,-120,126.bmp,120,-120,127.bmp,-120,120,128.bmp,120,120,10059.5,649478.6000000015,8003,no,SM,A,125.bmp,120,-120,327488,321460,329503,323472,431654.0,425627.0,433670.0,427639.0,8
3,0,0,1,0,6,test,1,1,m,Fri Oct 04 2024 10:14:13 GMT-0500 (Central Daylight Time),668785.5,I,m,1184,9,1,129.bmp,-120,-120,130.bmp,120,-120,131.bmp,-120,120,132.bmp,120,120,9244.19999999553,659541.3000000045,8003,no,SM,A,130.bmp,-120,120,327488,321460,329503,323472,441718.0,435690.0,443735.0,437703.0,9
4,0,0,0,1,6,test,1,0,z,Fri Oct 04 2024 10:14:13 GMT-0500 (Central Daylight Time),678615.5,I,m,1777,10,1,137.bmp,-120,-120,138.bmp,120,-120,139.bmp,-120,120,140.bmp,120,120,9826.89999999851,668788.6000000015,8003,yes,SM,A,140.bmp,120,120,327488,321460,329503,323472,450965.0,444937.0,452982.0,446950.0,10
3,0,0,1,0,7,test,1,1,z,Fri Oct 04 2024 10:14:13 GMT-0500 (Central Daylight Time),688012.700000003,I,z,1338,11,1,133.bmp,-120,-120,134.bmp,120,-120,135.bmp,-120,120,136.bmp,120,120,9394.0,678618.700000003,8003,yes,SM,A,135.bmp,-120,120,327488,321460,329503,323472,460795.0,454767.0,462812.0,456780.0,11
2,0,1,0,0,8,test,1,1,m,Fri Oct 04 2024 10:14:13 GMT-0500 (Central Daylight Time),697776.3000000045,I,m,1709,12,1,141.bmp,-120,-120,142.bmp,120,-120,143.bmp,-120,120,144.bmp,120,120,9760.60000000149,688015.700000003,8003,no,SM,A,141.bmp,120,-120,327488,321460,329503,323472,470192.0,464164.0,472208.0,466177.0,12
3,0,0,1,0,9,test,1,1,m,Fri Oct 04 2024 10:14:13 GMT-0500 (Central Daylight Time),706990.3000000045,I,m,1161,13,1,145.bmp,-120,-120,146.bmp,120,-120,147.bmp,-120,120,148.bmp,120,120,9210.89999999851,697779.400000006,8003,no,SM,A,146.bmp,-120,120,327488,321460,329503,323472,479956.0,473928.0,481974.0,475941.0,13
1,1,0,0,0,10,test,1,1,z,Fri Oct 04 2024 10:14:13 GMT-0500 (Central Daylight Time),716970.5,I,z,1916,14,1,149.bmp,-120,-120,150.bmp,120,-120,104.bmp,-120,120,101.bmp,120,120,9976.29999999702,706994.200000003,8003,yes,SM,A,149.bmp,-120,-120,327488,321460,329503,323472,489170.0,483142.0,491187.0,485154.0,14
4,0,0,0,1,11,test,1,1,m,Fri Oct 04 2024 10:14:13 GMT-0500 (Central Daylight Time),726584.0,I,m,1553,15,1,110.bmp,-120,-120,111.bmp,120,-120,112.bmp,-120,120,113.bmp,120,120,9610.09999999404,716973.900000006,8003,no,SM,A,111.bmp,120,120,327488,321460,329503,323472,499150.0,493122.0,501166.0,495135.0,15
1,1,0,0,0,12,test,1,1,m,Fri Oct 04 2024 10:14:13 GMT-0500 (Central Daylight Time),736315.3000000045,I,m,1667,16,1,102.bmp,-120,-120,103.bmp,120,-120,104.bmp,-120,120,105.bmp,120,120,9728.10000000149,726587.200000003,8003,no,SM,A,105.bmp,-120,-120,327488,321460,329503,323472,508764.0,502735.0,510780.0,504748.0,16
3,0,0,1,0,13,test,1,1,m,Fri Oct 04 2024 10:14:13 GMT-0500 (Central Daylight Time),745728.0,I,m,1360,17,1,122.bmp,-120,-120,123.bmp,120,-120,124.bmp,-120,120,125.bmp,120,120,9409.29999999702,736318.700000003,8003,no,SM,A,122.bmp,-120,120,327488,321460,329503,323472,518495.0,512467.0,520510.0,514479.0,17
1,1,0,0,0,14,test,1,1,z,Fri Oct 04 2024 10:14:13 GMT-0500 (Central Daylight Time),755474.900000006,I,z,1699,18,1,106.bmp,-120,-120,107.bmp,120,-120,108.bmp,-120,120,109.bmp,120,120,9743.60000000149,745731.3000000045,8003,yes,SM,A,106.bmp,-120,-120,327488,321460,329503,323472,527908.0,521880.0,529924.0,523892.0,18
2,0,1,0,0,15,test,1,1,z,Fri Oct 04 2024 10:14:13 GMT-0500 (Central Daylight Time),765505.0,I,z,1976,19,1,126.bmp,-120,-120,127.bmp,120,-120,128.bmp,-120,120,129.bmp,120,120,10026.69999999553,755478.3000000045,8003,yes,SM,A,127.bmp,120,-120,327488,321460,329503,323472,537654.0,531627.0,539671.0,533640.0,19
3,0,0,1,0,15,test,1,0,z,Fri Oct 04 2024 10:14:13 GMT-0500 (Central Daylight Time),775568.700000003,I,None,2016,20,1,130.bmp,-120,-120,131.bmp,120,-120,132.bmp,-120,120,133.bmp,120,120,10060.5,765508.200000003,8003,yes,SM,A,132.bmp,-120,120,327488,321460,329503,323472,547685.0,541656.0,549701.0,543669.0,20
1,1,0,0,0,15,test,1,0,m,Fri Oct 04 2024 10:14:13 GMT-0500 (Central Daylight Time),785632.200000003,I,None,2015,21,1,114.bmp,-120,-120,115.bmp,120,-120,116.bmp,-120,120,117.bmp,120,120,10060.0,775572.200000003,8003,no,SM,A,116.bmp,-120,-120,327488,321460,329503,323472,557749.0,551720.0,559765.0,553733.0,21
4,0,0,0,1,16,test,1,1,z,Fri Oct 04 2024 10:14:13 GMT-0500 (Central Daylight Time),795062.6000000015,I,z,1371,22,1,118.bmp,-120,-120,119.bmp,120,-120,120.bmp,-120,120,121.bmp,120,120,9427.29999999702,785635.3000000045,8003,yes,SM,A,121.bmp,120,120,327488,321460,329503,323472,567812.0,561783.0,569828.0,563797.0,22
1,1,0,0,0,17,test,1,1,m,Fri Oct 04 2024 10:14:13 GMT-0500 (Central Daylight Time),804842.8000000045,I,m,1724,23,1,134.bmp,-120,-120,135.bmp,120,-120,136.bmp,-120,120,137.bmp,120,120,9776.89999999851,795065.900000006,8003,no,SM,A,137.bmp,-120,-120,327488,321460,329503,323472,577242.0,571214.0,579258.0,573228.0,23
2,0,1,0,0,18,test,1,1,z,Fri Oct 04 2024 10:14:13 GMT-0500 (Central Daylight Time),814356.3000000045,I,z,1464,24,1,142.bmp,-120,-120,143.bmp,120,-120,144.bmp,-120,120,145.bmp,120,120,9509.89999999851,804846.400000006,8003,yes,SM,A,143.bmp,120,-120,327488,321460,329503,323472,587022.0,580995.0,589039.0,583007.0,24
4,0,0,0,1,19,test,1,1,m,Fri Oct 04 2024 10:14:13 GMT-0500 (Central Daylight Time),824170.1000000015,I,m,1759,25,1,146.bmp,-120,-120,147.bmp,120,-120,148.bmp,-120,120,149.bmp,120,120,9810.69999999553,814359.400000006,8003,no,SM,A,148.bmp,120,120,327488,321460,329503,323472,596536.0,590508.0,598552.0,592521.0,25
1,1,0,0,0,20,test,1,1,z,Fri Oct 04 2024 10:14:13 GMT-0500 (Central Daylight Time),833434.0,I,z,1201,26,1,138.bmp,-120,-120,139.bmp,120,-120,140.bmp,-120,120,141.bmp,120,120,9260.69999999553,824173.3000000045,8003,yes,SM,A,138.bmp,-120,-120,327488,321460,329503,323472,606350.0,600322.0,608366.0,602334.0,26
4,0,0,0,1,21,test,1,1,z,Fri Oct 04 2024 10:14:13 GMT-0500 (Central Daylight Time),842830.8000000045,I,z,1336,27,1,150.bmp,-120,-120,111.bmp,120,-120,101.bmp,-120,120,102.bmp,120,120,9393.60000000149,833437.200000003,8003,yes,SM,A,102.bmp,120,120,327488,321460,329503,323472,615614.0,609585.0,617631.0,611598.0,27
3,0,0,1,0,21,test,1,0,m,Fri Oct 04 2024 10:14:13 GMT-0500 (Central Daylight Time),852927.8000000045,I,None,2016,28,1,103.bmp,-120,-120,104.bmp,120,-120,105.bmp,-120,120,106.bmp,120,120,10094.30000000447,842833.5,8003,no,SM,A,103.bmp,-120,120,327488,321460,329503,323472,625057.0,618982.0,627060.0,620995.0,28
2,0,1,0,0,22,test,1,1,z,Fri Oct 04 2024 10:14:13 GMT-0500 (Central Daylight Time),862174.8000000045,I,z,1187,29,1,107.bmp,-120,-120,108.bmp,120,-120,109.bmp,-120,120,110.bmp,120,120,9243.20000000298,852931.6000000015,8003,yes,SM,A,108.bmp,120,-120,327488,321460,329503,323472,635107.0,629080.0,637124.0,631094.0,29
3,0,0,1,0,23,test,1,1,z,Fri Oct 04 2024 10:14:13 GMT-0500 (Central Daylight Time),871656.400000006,I,z,1428,30,1,111.bmp,-120,-120,112.bmp,120,-120,113.bmp,-120,120,114.bmp,120,120,9478.0,862178.400000006,8003,yes,SM,A,113.bmp,-120,120,327488,321460,329503,323472,644354.0,638327.0,646371.0,640339.0,30
1,1,0,0,0,24,test,1,1,z,Fri Oct 04 2024 10:14:13 GMT-0500 (Central Daylight Time),881053.400000006,I,z,1348,31,1,115.bmp,-120,-120,116.bmp,120,-120,117.bmp,-120,120,118.bmp,120,120,9393.10000000149,871660.3000000045,8003,yes,SM,A,115.bmp,-120,-120,327488,321460,329503,323472,653835.0,647809.0,655851.0,649820.0,31
2,0,1,0,0,25,test,1,1,m,Fri Oct 04 2024 10:14:13 GMT-0500 (Central Daylight Time),890249.5,I,m,1143,32,1,119.bmp,-120,-120,120.bmp,120,-120,121.bmp,-120,120,122.bmp,120,120,9192.89999999851,881056.6000000015,8003,no,SM,A,119.bmp,120,-120,327488,321460,329503,323472,663232.0,657205.0,665248.0,659217.0,32
4,0,0,0,1,25,test,1,0,z,Fri Oct 04 2024 10:14:13 GMT-0500 (Central Daylight Time),899663.3000000045,I,m,1362,33,1,131.bmp,-120,-120,132.bmp,120,-120,133.bmp,-120,120,134.bmp,120,120,9410.70000000298,890252.6000000015,8003,yes,SM,A,134.bmp,120,120,327488,321460,329503,323472,672429.0,666401.0,674445.0,668413.0,33
2,0,1,0,0,26,test,1,1,z,Fri Oct 04 2024 10:14:13 GMT-0500 (Central Daylight Time),908743.6000000015,I,z,1020,34,1,123.bmp,-120,-120,124.bmp,120,-120,125.bmp,-120,120,126.bmp,120,120,9076.79999999702,899666.8000000045,8003,yes,SM,A,124.bmp,120,-120,327488,321460,329503,323472,681843.0,675815.0,683859.0,677827.0,34
4,0,0,0,1,26,test,1,0,m,Fri Oct 04 2024 10:14:13 GMT-0500 (Central Daylight Time),918273.8000000045,I,z,1467,35,1,127.bmp,-120,-120,128.bmp,120,-120,129.bmp,-120,120,130.bmp,120,120,9527.10000000149,908746.700000003,8003,no,SM,A,129.bmp,120,120,327488,321460,329503,323472,690923.0,684895.0,692939.0,686908.0,35
3,0,0,1,0,27,test,1,1,m,Fri Oct 04 2024 10:14:13 GMT-0500 (Central Daylight Time),927371.1000000015,I,m,1033,36,1,135.bmp,-120,-120,136.bmp,120,-120,137.bmp,-120,120,138.bmp,120,120,9094.10000000149,918277.0,8003,no,SM,A,135.bmp,-120,120,327488,321460,329503,323472,700454.0,694425.0,702470.0,696438.0,36
1,1,0,0,0,28,test,1,1,m,Fri Oct 04 2024 10:14:13 GMT-0500 (Central Daylight Time),936601.6000000015,I,m,1185,37,1,139.bmp,-120,-120,140.bmp,120,-120,141.bmp,-120,120,142.bmp,120,120,9226.69999999553,927374.900000006,8003,no,SM,A,140.bmp,-120,-120,327488,321460,329503,323472,709536.0,703523.0,711550.0,705535.0,37
2,0,1,0,0,28,test,1,0,m,Fri Oct 04 2024 10:14:13 GMT-0500 (Central Daylight Time),946131.8000000045,I,z,1474,38,1,143.bmp,-120,-120,144.bmp,120,-120,145.bmp,-120,120,146.bmp,120,120,9527.30000000447,936604.5,8003,no,SM,A,145.bmp,120,-120,327488,321460,329503,323472,718781.0,712753.0,720797.0,714766.0,38
4,0,0,0,1,29,test,1,1,z,Fri Oct 04 2024 10:14:13 GMT-0500 (Central Daylight Time),955428.900000006,I,z,1239,39,1,147.bmp,-120,-120,148.bmp,120,-120,149.bmp,-120,120,150.bmp,120,120,9293.60000000149,946135.3000000045,8003,yes,SM,A,150.bmp,120,120,327488,321460,329503,323472,728312.0,722284.0,730328.0,724296.0,39
3,0,0,1,0,29,test,1,0,m,Fri Oct 04 2024 10:14:13 GMT-0500 (Central Daylight Time),965175.900000006,I,z,1686,40,1,104.bmp,-120,-120,105.bmp,120,-120,106.bmp,-120,120,107.bmp,120,120,9743.60000000149,955432.3000000045,8003,no,SM,A,105.bmp,-120,120,327488,321460,329503,323472,737609.0,731580.0,739625.0,733594.0,40
1,1,0,0,0,30,test,1,1,z,Fri Oct 04 2024 10:14:13 GMT-0500 (Central Daylight Time),974939.6000000015,I,z,1707,41,1,108.bmp,-120,-120,109.bmp,120,-120,110.bmp,-120,120,111.bmp,120,120,9760.79999999702,965178.8000000045,8003,yes,SM,A,108.bmp,-120,-120,327488,321460,329503,323472,747355.0,741327.0,749372.0,743340.0,41
4,0,0,0,1,31,test,1,1,z,Fri Oct 04 2024 10:14:13 GMT-0500 (Central Daylight Time),984653.0,I,z,1664,42,1,112.bmp,-120,-120,113.bmp,120,-120,114.bmp,-120,120,115.bmp,120,120,9710.09999999404,974942.900000006,8003,yes,SM,A,115.bmp,120,120,327488,321460,329503,323472,757119.0,751091.0,759135.0,753104.0,42
1,1,0,0,0,32,test,1,1,z,Fri Oct 04 2024 10:14:13 GMT-0500 (Central Daylight Time),993767.0,I,z,1054,43,1,116.bmp,-120,-120,117.bmp,120,-120,118.bmp,-120,120,119.bmp,120,120,9111.0,984656.0,8003,yes,SM,A,116.bmp,-120,-120,327488,321460,329503,323472,766834.0,760804.0,768849.0,762819.0,43
4,0,0,0,1,33,test,1,1,m,Fri Oct 04 2024 10:14:13 GMT-0500 (Central Daylight Time),1003180.8000000045,I,m,1364,44,1,104.bmp,-120,-120,101.bmp,120,-120,102.bmp,-120,120,103.bmp,120,120,9410.5,993770.3000000045,8003,no,SM,A,104.bmp,120,120,327488,321460,329503,323472,775946.0,769919.0,777963.0,771931.0,44
1,1,0,0,0,34,test,1,1,m,Fri Oct 04 2024 10:14:13 GMT-0500 (Central Daylight Time),1012211.200000003,I,m,982,45,1,128.bmp,-120,-120,129.bmp,120,-120,130.bmp,-120,120,131.bmp,120,120,9027.0,1003184.200000003,8003,no,SM,A,131.bmp,-120,-120,327488,321460,329503,323472,785360.0,779333.0,787376.0,781345.0,45
1,1,0,0,0,35,test,1,1,m,Fri Oct 04 2024 10:14:13 GMT-0500 (Central Daylight Time),1021758.400000006,I,m,1496,46,1,120.bmp,-120,-120,121.bmp,120,-120,122.bmp,-120,120,123.bmp,120,120,9544.10000000149,1012214.3000000045,8003,no,SM,A,121.bmp,-120,-120,327488,321460,329503,323472,794391.0,788363.0,796407.0,790375.0,46
3,0,0,1,0,35,test,1,0,z,Fri Oct 04 2024 10:14:13 GMT-0500 (Central Daylight Time),1031804.900000006,I,m,1989,47,1,124.bmp,-120,-120,125.bmp,120,-120,126.bmp,-120,120,127.bmp,120,120,10043.40000000596,1021761.5,8003,yes,SM,A,126.bmp,-120,120,327488,321460,329503,323472,803938.0,797910.0,805954.0,799922.0,47
3,0,0,1,0,36,test,1,1,z,Fri Oct 04 2024 10:14:13 GMT-0500 (Central Daylight Time),1041451.900000006,I,z,1598,48,1,140.bmp,-120,-120,141.bmp,120,-120,142.bmp,-120,120,143.bmp,120,120,9643.70000000298,1031808.200000003,8003,yes,SM,A,142.bmp,-120,120,327488,321460,329503,323472,813985.0,807956.0,816001.0,809969.0,48
2,0,1,0,0,36,test,1,0,z,Fri Oct 04 2024 10:14:13 GMT-0500 (Central Daylight Time),1051515.3000000045,I,None,2015,49,1,136.bmp,-120,-120,137.bmp,120,-120,138.bmp,-120,120,139.bmp,120,120,10060.60000000149,1041454.700000003,8003,yes,SM,A,137.bmp,120,-120,327488,321460,329503,323472,823632.0,817603.0,825648.0,819616.0,49
3,0,0,1,0,36,test,1,0,m,Fri Oct 04 2024 10:14:13 GMT-0500 (Central Daylight Time),1060795.900000006,I,z,1229,50,1,132.bmp,-120,-120,133.bmp,120,-120,134.bmp,-120,120,135.bmp,120,120,9277.5,1051518.400000006,8003,no,SM,A,132.bmp,-120,120,327488,321460,329503,323472,833695.0,827667.0,835711.0,829680.0,50
2,0,1,0,0,37,test,1,1,z,Fri Oct 04 2024 10:14:13 GMT-0500 (Central Daylight Time),1070526.3000000045,I,z,1679,51,1,144.bmp,-120,-120,145.bmp,120,-120,146.bmp,-120,120,147.bmp,120,120,9727.30000000447,1060799.0,8003,yes,SM,A,145.bmp,120,-120,327488,321460,329503,323472,842975.0,836947.0,844992.0,838960.0,51
4,0,0,0,1,38,test,1,1,m,Fri Oct 04 2024 10:14:13 GMT-0500 (Central Daylight Time),1079756.6000000015,I,m,1173,52,1,148.bmp,-120,-120,149.bmp,120,-120,150.bmp,-120,120,131.bmp,120,120,9227.5,1070529.1000000015,8003,no,SM,A,148.bmp,120,120,327488,321460,329503,323472,852706.0,846677.0,854722.0,848690.0,52
3,0,0,1,0,39,test,1,1,z,Fri Oct 04 2024 10:14:13 GMT-0500 (Central Daylight Time),1088738.700000003,I,z,927,53,1,101.bmp,-120,-120,102.bmp,120,-120,103.bmp,-120,120,104.bmp,120,120,8978.89999999851,1079759.8000000045,8003,yes,SM,A,103.bmp,-120,120,327488,321460,329503,323472,861936.0,855908.0,863952.0,857921.0,53
1,1,0,0,0,40,test,1,1,m,Fri Oct 04 2024 10:14:13 GMT-0500 (Central Daylight Time),1098052.1000000015,I,m,1250,54,1,105.bmp,-120,-120,106.bmp,120,-120,107.bmp,-120,120,108.bmp,120,120,9310.29999999702,1088741.8000000045,8003,no,SM,A,107.bmp,-120,-120,327488,321460,329503,323472,870917.0,864890.0,872933.0,866903.0,54
4,0,0,0,1,41,test,1,1,z,Fri Oct 04 2024 10:14:13 GMT-0500 (Central Daylight Time),1107464.6000000015,I,z,1360,55,1,109.bmp,-120,-120,110.bmp,120,-120,111.bmp,-120,120,112.bmp,120,120,9409.19999999553,1098055.400000006,8003,yes,SM,A,112.bmp,120,120,327488,321460,329503,323472,880230.0,874204.0,882247.0,876215.0,55
2,0,1,0,0,42,test,1,1,m,Fri Oct 04 2024 10:14:13 GMT-0500 (Central Daylight Time),1117111.700000003,I,m,1594,56,1,113.bmp,-120,-120,114.bmp,120,-120,115.bmp,-120,120,116.bmp,120,120,9644.20000000298,1107467.5,8003,no,SM,A,113.bmp,120,-120,327488,321460,329503,323472,889645.0,883616.0,891661.0,885629.0,56
4,0,0,0,1,43,test,1,1,m,Fri Oct 04 2024 10:14:13 GMT-0500 (Central Daylight Time),1126893.0,I,m,1731,57,1,117.bmp,-120,-120,118.bmp,120,-120,119.bmp,-120,120,120.bmp,120,120,9778.59999999404,1117114.400000006,8003,no,SM,A,118.bmp,120,120,327488,321460,329503,323472,899291.0,893263.0,901308.0,895276.0,57
3,0,0,1,0,43,test,1,0,z,Fri Oct 04 2024 10:14:13 GMT-0500 (Central Daylight Time),1136405.3000000045,I,m,1479,58,1,121.bmp,-120,-120,122.bmp,120,-120,123.bmp,-120,120,124.bmp,120,120,9509.20000000298,1126896.1000000015,8003,yes,SM,A,123.bmp,-120,120,327488,321460,329503,323472,909071.0,903044.0,911072.0,905056.0,58
2,0,1,0,0,43,test,1,0,m,Fri Oct 04 2024 10:14:13 GMT-0500 (Central Daylight Time),1146169.1000000015,I,z,1702,59,1,125.bmp,-120,-120,126.bmp,120,-120,127.bmp,-120,120,128.bmp,120,120,9760.19999999553,1136408.900000006,8003,no,SM,A,128.bmp,120,-120,327488,321460,329503,323472,918585.0,912557.0,920601.0,914569.0,59
1,1,0,0,0,44,test,1,1,z,Fri Oct 04 2024 10:14:13 GMT-0500 (Central Daylight Time),1155499.3000000045,I,z,1282,60,1,129.bmp,-120,-120,130.bmp,120,-120,131.bmp,-120,120,132.bmp,120,120,9326.60000000149,1146172.700000003,8003,yes,SM,A,129.bmp,-120,-120,327488,321460,329503,323472,928349.0,922321.0,930365.0,924333.0,60
2,0,1,0,0,45,test,1,1,z,Fri Oct 04 2024 10:14:13 GMT-0500 (Central Daylight Time),1165163.0,I,z,1615,61,1,133.bmp,-120,-120,134.bmp,120,-120,135.bmp,-120,120,136.bmp,120,120,9660.19999999553,1155502.8000000045,8003,yes,SM,A,134.bmp,120,-120,327488,321460,329503,323472,937679.0,931651.0,939696.0,933664.0,61
4,0,0,0,1,45,test,1,0,z,Fri Oct 04 2024 10:14:13 GMT-0500 (Central Daylight Time),1175226.900000006,I,None,2016,62,1,141.bmp,-120,-120,142.bmp,120,-120,143.bmp,-120,120,144.bmp,120,120,10061.0,1165165.900000006,8003,yes,SM,A,144.bmp,120,120,327488,321460,329503,323472,947343.0,941314.0,949359.0,943327.0,62
1,1,0,0,0,46,test,1,1,m,Fri Oct 04 2024 10:14:13 GMT-0500 (Central Daylight Time),1184707.1000000015,I,m,1433,63,1,145.bmp,-120,-120,146.bmp,120,-120,147.bmp,-120,120,148.bmp,120,120,9476.69999999553,1175230.400000006,8003,no,SM,A,145.bmp,-120,120,327488,321460,329503,323472,957406.0,951379.0,959422.0,953391.0,63
2,0,1,0,0,47,test,1,1,z,Fri Oct 04 2024 10:14:13 GMT-0500 (Central Daylight Time),1194370.900000006,I,z,1608,64,1,149.bmp,-120,-120,150.bmp,120,-120,112.bmp,-120,120,101.bmp,120,120,9661.0,1184709.900000006,8003,yes,SM,A,150.bmp,120,-120,327488,321460,329503,323472,966887.0,960858.0,968903.0,962871.0,64
4,0,0,0,1,48,test,1,1,m,Fri Oct 04 2024 10:14:13 GMT-0500 (Central Daylight Time),1203702.5,I,m,1279,65,1,102.bmp,-120,-120,103.bmp,120,-120,104.bmp,-120,120,105.bmp,120,120,9328.59999999404,1194373.900000006,8003,no,SM,A,104.bmp,120,120,327488,321460,329503,323472,976550.0,970522.0,978568.0,972535.0,65
3,0,0,1,0,49,test,1,1,m,Fri Oct 04 2024 10:14:13 GMT-0500 (Central Daylight Time),1212998.200000003,I,m,1238,66,1,106.bmp,-120,-120,107.bmp,120,-120,108.bmp,-120,120,109.bmp,120,120,9291.60000000149,1203706.6000000015,8003,no,SM,A,109.bmp,-120,120,327488,321460,329503,323472,985881.0,979855.0,987897.0,981865.0,66
2,0,1,0,0,50,test,1,1,m,Fri Oct 04 2024 10:14:13 GMT-0500 (Central Daylight Time),1222345.200000003,I,m,1293,67,1,137.bmp,-120,-120,138.bmp,120,-120,139.bmp,-120,120,140.bmp,120,120,9342.79999999702,1213002.400000006,8003,no,SM,A,139.bmp,120,-120,327488,321460,329503,323472,995178.0,989151.0,997194.0,991162.0,67
3,0,0,1,0,51,test,1,1,z,Fri Oct 04 2024 10:14:13 GMT-0500 (Central Daylight Time),1231609.0,I,z,1202,68,1,110.bmp,-120,-120,111.bmp,120,-120,112.bmp,-120,120,113.bmp,120,120,9260.19999999553,1222348.8000000045,8003,yes,SM,A,112.bmp,-120,120,327488,321460,329503,323472,1004525.0,998497.0,1006541.0,1000510.0,68
1,1,0,0,0,51,test,1,0,m,Fri Oct 04 2024 10:14:13 GMT-0500 (Central Daylight Time),1241389.3000000045,I,z,1722,69,1,114.bmp,-120,-120,115.bmp,120,-120,116.bmp,-120,120,117.bmp,120,120,9777.39999999851,1231611.900000006,8003,no,SM,A,115.bmp,-120,-120,327488,321460,329503,323472,1013789.0,1007760.0,1015805.0,1009773.0,69
2,0,1,0,0,52,test,1,1,m,Fri Oct 04 2024 10:14:13 GMT-0500 (Central Daylight Time),1250636.400000006,I,m,1190,70,1,118.bmp,-120,-120,119.bmp,120,-120,120.bmp,-120,120,121.bmp,120,120,9244.0,1241392.400000006,8003,no,SM,A,120.bmp,120,-120,327488,321460,329503,323472,1023569.0,1017541.0,1025585.0,1019554.0,70
4,0,0,0,1,53,test,1,1,z,Fri Oct 04 2024 10:14:13 GMT-0500 (Central Daylight Time),1259966.900000006,I,z,1279,71,1,122.bmp,-120,-120,123.bmp,120,-120,124.bmp,-120,120,125.bmp,120,120,9327.70000000298,1250639.200000003,8003,yes,SM,A,125.bmp,120,120,327488,321460,329503,323472,1032816.0,1026787.0,1034832.0,1028801.0,71
1,1,0,0,0,54,test,1,1,z,Fri Oct 04 2024 10:14:13 GMT-0500 (Central Daylight Time),1269680.400000006,I,z,1652,72,1,126.bmp,-120,-120,127.bmp,120,-120,128.bmp,-120,120,129.bmp,120,120,9710.60000000149,1259969.8000000045,8003,yes,SM,A,126.bmp,-120,-120,327488,321460,329503,323472,1042146.0,1036118.0,1044163.0,1038131.0,72
2,0,1,0,0,54,test,1,0,z,Fri Oct 04 2024 10:14:13 GMT-0500 (Central Daylight Time),1279260.6000000015,I,m,1523,73,1,130.bmp,-120,-120,131.bmp,120,-120,132.bmp,-120,120,133.bmp,120,120,9577.0,1269683.6000000015,8003,yes,SM,A,131.bmp,120,-120,327488,321460,329503,323472,1051860.0,1045832.0,1053876.0,1047845.0,73
4,0,0,0,1,55,test,1,1,m,Fri Oct 04 2024 10:14:13 GMT-0500 (Central Daylight Time),1288908.8000000045,I,m,1599,74,1,134.bmp,-120,-120,135.bmp,120,-120,136.bmp,-120,120,137.bmp,120,120,9644.80000000447,1279264.0,8003,no,SM,A,136.bmp,120,120,327488,321460,329503,323472,1061440.0,1055412.0,1063456.0,1057425.0,74
2,0,1,0,0,56,test,1,1,m,Fri Oct 04 2024 10:14:13 GMT-0500 (Central Daylight Time),1297888.400000006,I,m,927,75,1,138.bmp,-120,-120,139.bmp,120,-120,140.bmp,-120,120,141.bmp,120,120,8976.40000000596,1288912.0,8003,no,SM,A,141.bmp,120,-120,327488,321460,329503,323472,1071087.0,1065060.0,1073104.0,1067072.0,75
1,1,0,0,0,57,test,1,1,z,Fri Oct 04 2024 10:14:13 GMT-0500 (Central Daylight Time),1307018.8000000045,I,z,1067,76,1,142.bmp,-120,-120,143.bmp,120,-120,144.bmp,-120,120,145.bmp,120,120,9127.39999999851,1297891.400000006,8003,yes,SM,A,142.bmp,-120,-120,327488,321460,329503,323472,1080068.0,1074040.0,1082084.0,1076053.0,76
3,0,0,1,0,58,test,1,1,z,Fri Oct 04 2024 10:14:13 GMT-0500 (Central Daylight Time),1316066.0,I,z,985,77,1,150.bmp,-120,-120,111.bmp,120,-120,101.bmp,-120,120,102.bmp,120,120,9043.89999999851,1307022.1000000015,8003,yes,SM,A,101.bmp,-120,120,327488,321460,329503,323472,1089198.0,1083170.0,1091214.0,1085183.0,77
1,1,0,0,0,59,test,1,1,m,Fri Oct 04 2024 10:14:13 GMT-0500 (Central Daylight Time),1325246.5,I,m,1129,78,1,146.bmp,-120,-120,147.bmp,120,-120,148.bmp,-120,120,149.bmp,120,120,9177.39999999851,1316069.1000000015,8003,no,SM,A,147.bmp,-120,-120,327488,321460,329503,323472,1098246.0,1092217.0,1100262.0,1094230.0,78
4,0,0,0,1,60,test,1,1,m,Fri Oct 04 2024 10:14:13 GMT-0500 (Central Daylight Time),1334410.3000000045,I,m,1109,79,1,107.bmp,-120,-120,108.bmp,120,-120,109.bmp,-120,120,110.bmp,120,120,9160.39999999851,1325249.900000006,8003,no,SM,A,107.bmp,120,120,327488,321460,329503,323472,1107426.0,1101398.0,1109442.0,1103410.0,79
3,0,0,1,0,60,test,1,0,m,Fri Oct 04 2024 10:14:13 GMT-0500 (Central Daylight Time),1343807.1000000015,I,z,1345,80,1,103.bmp,-120,-120,104.bmp,120,-120,105.bmp,-120,120,106.bmp,120,120,9393.29999999702,1334413.8000000045,8003,no,SM,A,106.bmp,-120,120,327488,321460,329503,323472,1116590.0,1110562.0,1118606.0,1112575.0,80
