acc_sum,block,block_c,block_cond,con_img,correct,correct_response,datetime,endtime,face,jitter,line,project,response,response_time,row_sel,session_number,start_end,starttime,subject_id,task,task_vers,trial
0,prac,1,A,haborder.png,0,m,Fri Mar 21 2025 15:27:42 GMT-0500 (Central Daylight Time),77898.19999998808,CFD-BM-020-024-HC.jpg,1500,solid,O,None,1516,3,1,3798.9000000059605,74099.29999998212,7117,ATS,B,1
0,prac,1,A,haborder.png,0,z,Fri Mar 21 2025 15:27:42 GMT-0500 (Central Daylight Time),81197.09999999404,CFD-BF-051-043-A.jpg,1000,solid,O,None,1516,4,1,7097.800000011921,74099.29999998212,7117,ATS,B,2
0,prac,1,A,haborder.png,0,z,Fri Mar 21 2025 15:27:42 GMT-0500 (Central Daylight Time),84695.79999998212,CFD-BF-050-012-A.jpg,1200,solid,O,None,1516,6,1,10596.5,74099.29999998212,7117,ATS,B,3
1,prac,1,A,haborder.png,1,m,Fri Mar 21 2025 15:27:42 GMT-0500 (Central Daylight Time),88278.19999998808,CFD-WM-011-006-HC.jpg,1400,solid,O,m,1385,7,1,14178.90000000596,74099.29999998212,7117,ATS,B,4
2,prac,1,A,haborder.png,1,m,Fri Mar 21 2025 15:27:42 GMT-0500 (Central Daylight Time),91944.09999999404,CFD-WM-012-007-HC.jpg,1700,solid,O,m,1175,9,1,17844.80000001192,74099.29999998212,7117,ATS,B,5
3,prac,1,A,haborder.png,1,m,Fri Mar 21 2025 15:27:42 GMT-0500 (Central Daylight Time),95659.59999999404,CFD-BM-015-017-HC.jpg,1700,solid,O,m,1229,1,1,21560.30000001192,74099.29999998212,7117,ATS,B,6
4,prac,1,A,haborder.png,1,z,Fri Mar 21 2025 15:27:42 GMT-0500 (Central Daylight Time),99008.29999998212,CFD-WF-026-008-A.jpg,1600,solid,O,z,950,10,1,24909.0,74099.29999998212,7117,ATS,B,7
5,prac,1,A,haborder.png,1,z,Fri Mar 21 2025 15:27:42 GMT-0500 (Central Daylight Time),102890.40000000596,CFD-WM-009-009-A.jpg,1900,solid,O,z,1197,8,1,28791.100000023842,74099.29999998212,7117,ATS,B,8
6,prac,1,A,haborder.png,1,m,Fri Mar 21 2025 15:27:42 GMT-0500 (Central Daylight Time),106022.90000000596,CFD-WF-011-006-HC.jpg,1500,solid,O,m,843,11,1,31923.600000023842,74099.29999998212,7117,ATS,B,9
7,prac,1,A,haborder.png,1,m,Fri Mar 21 2025 15:27:42 GMT-0500 (Central Daylight Time),109888.0,CFD-BF-035-007-HC.jpg,2000,solid,O,m,1075,5,1,35788.70000001788,74099.29999998212,7117,ATS,B,10
8,prac,1,A,haborder.png,1,z,Fri Mar 21 2025 15:27:42 GMT-0500 (Central Daylight Time),112420.79999998212,CFD-WF-013-015-A.jpg,1000,solid,O,z,737,12,1,38321.5,74099.29999998212,7117,ATS,B,11
9,prac,1,A,haborder.png,1,z,Fri Mar 21 2025 15:27:42 GMT-0500 (Central Daylight Time),115819.69999998808,CFD-BM-037-041-A.jpg,1600,solid,O,z,1005,2,1,41720.40000000596,74099.29999998212,7117,ATS,B,12
0,prac,1,B,mfborder.png,0,z,Fri Mar 21 2025 15:27:42 GMT-0500 (Central Daylight Time),153574.40000000596,CFD-WF-026-008-A.jpg,1500,dash,O,None,1516,11,1,3798.7000000178814,149775.69999998808,7117,ATS,B,1
1,prac,1,B,mfborder.png,1,m,Fri Mar 21 2025 15:27:42 GMT-0500 (Central Daylight Time),156890.29999998212,CFD-WM-012-007-HC.jpg,1600,dash,O,m,931,10,1,7114.5999999940395,149775.69999998808,7117,ATS,B,2
2,prac,1,B,mfborder.png,1,z,Fri Mar 21 2025 15:27:42 GMT-0500 (Central Daylight Time),159789.19999998808,CFD-BF-035-007-HC.jpg,1400,dash,O,z,711,7,1,10013.5,149775.69999998808,7117,ATS,B,3
3,prac,1,B,mfborder.png,1,z,Fri Mar 21 2025 15:27:42 GMT-0500 (Central Daylight Time),162321.59999999404,CFD-BF-051-043-A.jpg,1000,dash,O,z,740,4,1,12545.90000000596,149775.69999998808,7117,ATS,B,4
4,prac,1,B,mfborder.png,1,m,Fri Mar 21 2025 15:27:42 GMT-0500 (Central Daylight Time),165737.5,CFD-BM-020-024-HC.jpg,1700,dash,O,m,840,1,1,15961.800000011921,149775.69999998808,7117,ATS,B,5
4,prac,1,B,mfborder.png,0,z,Fri Mar 21 2025 15:27:42 GMT-0500 (Central Daylight Time),168236.59999999404,CFD-WF-011-006-HC.jpg,1000,dash,O,m,712,12,1,18460.90000000596,149775.69999998808,7117,ATS,B,6
5,prac,1,B,mfborder.png,1,m,Fri Mar 21 2025 15:27:42 GMT-0500 (Central Daylight Time),172285.29999998212,CFD-BM-037-041-A.jpg,2000,dash,O,m,1261,5,1,22509.59999999404,149775.69999998808,7117,ATS,B,7
6,prac,1,B,mfborder.png,1,m,Fri Mar 21 2025 15:27:42 GMT-0500 (Central Daylight Time),175950.79999998212,CFD-WM-009-009-A.jpg,1700,dash,O,m,1176,9,1,26175.09999999404,149775.69999998808,7117,ATS,B,8
7,prac,1,B,mfborder.png,1,m,Fri Mar 21 2025 15:27:42 GMT-0500 (Central Daylight Time),178766.69999998808,CFD-WM-037-060-A.jpg,1200,dash,O,m,826,6,1,28991.0,149775.69999998808,7117,ATS,B,9
8,prac,1,B,mfborder.png,1,z,Fri Mar 21 2025 15:27:42 GMT-0500 (Central Daylight Time),182398.90000000596,CFD-WF-027-007-HC.jpg,1900,dash,O,z,935,8,1,32623.20000001788,149775.69999998808,7117,ATS,B,10
9,prac,1,B,mfborder.png,1,z,Fri Mar 21 2025 15:27:42 GMT-0500 (Central Daylight Time),185398.0,CFD-BF-027-013-HC.jpg,1500,dash,O,z,702,3,1,35622.30000001192,149775.69999998808,7117,ATS,B,11
10,prac,1,B,mfborder.png,1,m,Fri Mar 21 2025 15:27:42 GMT-0500 (Central Daylight Time),188563.59999999404,CFD-BM-041-048-A.jpg,1600,dash,O,m,779,2,1,38787.90000000596,149775.69999998808,7117,ATS,B,12
0,test,1,A,haborder.png,0,m,Fri Mar 21 2025 15:27:42 GMT-0500 (Central Daylight Time),222919.29999998212,CFD-BM-015-017-HC.jpg,1700,solid,O,None,1511,1,1,3230.0,219689.29999998212,7117,ATS,B,1
1,test,1,A,haborder.png,1,z,Fri Mar 21 2025 15:27:42 GMT-0500 (Central Daylight Time),224785.59999999404,CFD-BF-050-012-A.jpg,1200,solid,O,z,642,6,1,5096.300000011921,219689.29999998212,7117,ATS,B,2
2,test,1,A,haborder.png,1,z,Fri Mar 21 2025 15:27:42 GMT-0500 (Central Daylight Time),227951.40000000596,CFD-WM-009-009-A.jpg,1900,solid,O,z,1236,8,1,8262.100000023842,219689.29999998212,7117,ATS,B,3
3,test,1,A,haborder.png,1,m,Fri Mar 21 2025 15:27:42 GMT-0500 (Central Daylight Time),230183.90000000596,CFD-WM-011-006-HC.jpg,1400,solid,O,m,802,7,1,10494.600000023842,219689.29999998212,7117,ATS,B,4
4,test,1,A,haborder.png,1,m,Fri Mar 21 2025 15:27:42 GMT-0500 (Central Daylight Time),232733.09999999404,CFD-BM-020-024-HC.jpg,1500,solid,O,m,1021,3,1,13043.800000011921,219689.29999998212,7117,ATS,B,5
5,test,1,A,haborder.png,1,z,Fri Mar 21 2025 15:27:42 GMT-0500 (Central Daylight Time),234817.40000000596,CFD-BF-050-012-A.jpg,1200,solid,O,z,859,6,1,15128.100000023842,219689.29999998212,7117,ATS,B,6
6,test,1,A,haborder.png,1,m,Fri Mar 21 2025 15:27:42 GMT-0500 (Central Daylight Time),238114.5,CFD-BF-035-007-HC.jpg,2000,solid,O,m,1282,5,1,18425.20000001788,219689.29999998212,7117,ATS,B,7
7,test,1,A,haborder.png,1,m,Fri Mar 21 2025 15:27:42 GMT-0500 (Central Daylight Time),240347.29999998212,CFD-WM-011-006-HC.jpg,1400,solid,O,m,815,7,1,20658.0,219689.29999998212,7117,ATS,B,8
8,test,1,A,haborder.png,1,z,Fri Mar 21 2025 15:27:42 GMT-0500 (Central Daylight Time),242879.79999998212,CFD-WF-026-008-A.jpg,1600,solid,O,z,902,10,1,23190.5,219689.29999998212,7117,ATS,B,9
9,test,1,A,haborder.png,1,z,Fri Mar 21 2025 15:27:42 GMT-0500 (Central Daylight Time),244929.0,CFD-WF-013-015-A.jpg,1000,solid,O,z,1017,12,1,25239.70000001788,219689.29999998212,7117,ATS,B,10
10,test,1,A,haborder.png,1,z,Fri Mar 21 2025 15:27:42 GMT-0500 (Central Daylight Time),246728.59999999404,CFD-WF-013-015-A.jpg,1000,solid,O,z,776,12,1,27039.30000001192,219689.29999998212,7117,ATS,B,11
11,test,1,A,haborder.png,1,z,Fri Mar 21 2025 15:27:42 GMT-0500 (Central Daylight Time),248561.29999998212,CFD-BF-051-043-A.jpg,1000,solid,O,z,808,4,1,28872.0,219689.29999998212,7117,ATS,B,12
12,test,1,A,haborder.png,1,z,Fri Mar 21 2025 15:27:42 GMT-0500 (Central Daylight Time),251443.90000000596,CFD-BM-037-041-A.jpg,1600,solid,O,z,1264,2,1,31754.600000023842,219689.29999998212,7117,ATS,B,13
13,test,1,A,haborder.png,1,m,Fri Mar 21 2025 15:27:42 GMT-0500 (Central Daylight Time),254292.90000000596,CFD-BF-035-007-HC.jpg,2000,solid,O,m,821,5,1,34603.60000002384,219689.29999998212,7117,ATS,B,14
14,test,1,A,haborder.png,1,m,Fri Mar 21 2025 15:27:42 GMT-0500 (Central Daylight Time),256842.19999998808,CFD-WM-012-007-HC.jpg,1700,solid,O,m,829,9,1,37152.90000000596,219689.29999998212,7117,ATS,B,15
15,test,1,A,haborder.png,1,z,Fri Mar 21 2025 15:27:42 GMT-0500 (Central Daylight Time),259991.0,CFD-WM-009-009-A.jpg,1900,solid,O,z,1215,8,1,40301.70000001788,219689.29999998212,7117,ATS,B,16
16,test,1,A,haborder.png,1,m,Fri Mar 21 2025 15:27:42 GMT-0500 (Central Daylight Time),262423.90000000596,CFD-BM-020-024-HC.jpg,1500,solid,O,m,910,3,1,42734.60000002384,219689.29999998212,7117,ATS,B,17
17,test,1,A,haborder.png,1,m,Fri Mar 21 2025 15:27:42 GMT-0500 (Central Daylight Time),265056.1999999881,CFD-WF-011-006-HC.jpg,1500,solid,O,m,1102,11,1,45366.90000000596,219689.29999998212,7117,ATS,B,18
18,test,1,A,haborder.png,1,z,Fri Mar 21 2025 15:27:42 GMT-0500 (Central Daylight Time),267491.90000000596,CFD-BM-037-041-A.jpg,1600,solid,O,z,800,2,1,47802.60000002384,219689.29999998212,7117,ATS,B,19
19,test,1,A,haborder.png,1,z,Fri Mar 21 2025 15:27:42 GMT-0500 (Central Daylight Time),269971.2999999821,CFD-WF-026-008-A.jpg,1600,solid,O,z,856,10,1,50282.0,219689.29999998212,7117,ATS,B,20
20,test,1,A,haborder.png,1,m,Fri Mar 21 2025 15:27:42 GMT-0500 (Central Daylight Time),272270.6999999881,CFD-WF-011-006-HC.jpg,1500,solid,O,m,778,11,1,52581.40000000596,219689.29999998212,7117,ATS,B,21
21,test,1,A,haborder.png,1,m,Fri Mar 21 2025 15:27:42 GMT-0500 (Central Daylight Time),274936.59999999404,CFD-WM-012-007-HC.jpg,1700,solid,O,m,934,9,1,55247.30000001192,219689.29999998212,7117,ATS,B,22
22,test,1,A,haborder.png,1,z,Fri Mar 21 2025 15:27:42 GMT-0500 (Central Daylight Time),276919.2999999821,CFD-BF-051-043-A.jpg,1000,solid,O,z,953,4,1,57230.0,219689.29999998212,7117,ATS,B,23
23,test,1,A,haborder.png,1,m,Fri Mar 21 2025 15:27:42 GMT-0500 (Central Daylight Time),279685.0,CFD-BM-015-017-HC.jpg,1700,solid,O,m,1038,1,1,59995.70000001788,219689.29999998212,7117,ATS,B,24
0,test,1,B,mfborder.png,0,z,Fri Mar 21 2025 15:27:42 GMT-0500 (Central Daylight Time),300278.59999999404,CFD-BF-051-043-A.jpg,1000,dash,O,None,1513,4,1,2532.5999999940395,297746.0,7117,ATS,B,1
1,test,1,B,mfborder.png,1,z,Fri Mar 21 2025 15:27:42 GMT-0500 (Central Daylight Time),302744.40000000596,CFD-BF-027-013-HC.jpg,1500,dash,O,z,943,3,1,4998.4000000059605,297746.0,7117,ATS,B,2
2,test,1,B,mfborder.png,1,m,Fri Mar 21 2025 15:27:42 GMT-0500 (Central Daylight Time),305355.2999999821,CFD-BM-041-048-A.jpg,1600,dash,O,m,847,2,1,7609.299999982119,297746.0,7117,ATS,B,3
3,test,1,B,mfborder.png,1,z,Fri Mar 21 2025 15:27:42 GMT-0500 (Central Daylight Time),307809.5,CFD-WF-026-008-A.jpg,1500,dash,O,z,917,11,1,10063.5,297746.0,7117,ATS,B,4
4,test,1,B,mfborder.png,1,m,Fri Mar 21 2025 15:27:42 GMT-0500 (Central Daylight Time),310708.59999999404,CFD-BM-037-041-A.jpg,2000,dash,O,m,880,5,1,12962.59999999404,297746.0,7117,ATS,B,5
5,test,1,B,mfborder.png,1,z,Fri Mar 21 2025 15:27:42 GMT-0500 (Central Daylight Time),312774.6999999881,CFD-WF-011-006-HC.jpg,1000,dash,O,z,1045,12,1,15028.699999988079,297746.0,7117,ATS,B,6
6,test,1,B,mfborder.png,1,z,Fri Mar 21 2025 15:27:42 GMT-0500 (Central Daylight Time),316090.0,CFD-WF-027-007-HC.jpg,1900,dash,O,z,1399,8,1,18344.0,297746.0,7117,ATS,B,7
7,test,1,B,mfborder.png,1,m,Fri Mar 21 2025 15:27:42 GMT-0500 (Central Daylight Time),318589.40000000596,CFD-BM-020-024-HC.jpg,1700,dash,O,m,771,1,1,20843.40000000596,297746.0,7117,ATS,B,8
8,test,1,B,mfborder.png,1,m,Fri Mar 21 2025 15:27:42 GMT-0500 (Central Daylight Time),321038.59999999404,CFD-WM-012-007-HC.jpg,1600,dash,O,m,828,10,1,23292.59999999404,297746.0,7117,ATS,B,9
9,test,1,B,mfborder.png,1,m,Fri Mar 21 2025 15:27:42 GMT-0500 (Central Daylight Time),323438.0,CFD-BM-041-048-A.jpg,1600,dash,O,m,767,2,1,25692.0,297746.0,7117,ATS,B,10
10,test,1,B,mfborder.png,1,m,Fri Mar 21 2025 15:27:42 GMT-0500 (Central Daylight Time),326153.7999999821,CFD-BM-037-041-A.jpg,2000,dash,O,m,691,5,1,28407.79999998212,297746.0,7117,ATS,B,11
11,test,1,B,mfborder.png,1,m,Fri Mar 21 2025 15:27:42 GMT-0500 (Central Daylight Time),328503.09999999404,CFD-WM-012-007-HC.jpg,1600,dash,O,m,728,10,1,30757.09999999404,297746.0,7117,ATS,B,12
12,test,1,B,mfborder.png,1,m,Fri Mar 21 2025 15:27:42 GMT-0500 (Central Daylight Time),330902.2999999821,CFD-BM-020-024-HC.jpg,1700,dash,O,m,679,1,1,33156.29999998212,297746.0,7117,ATS,B,13
13,test,1,B,mfborder.png,1,z,Fri Mar 21 2025 15:27:42 GMT-0500 (Central Daylight Time),333668.0,CFD-WF-027-007-HC.jpg,1900,dash,O,z,839,8,1,35922.0,297746.0,7117,ATS,B,14
14,test,1,B,mfborder.png,1,z,Fri Mar 21 2025 15:27:42 GMT-0500 (Central Daylight Time),335800.6999999881,CFD-BF-035-007-HC.jpg,1400,dash,O,z,701,7,1,38054.69999998808,297746.0,7117,ATS,B,15
15,test,1,B,mfborder.png,1,z,Fri Mar 21 2025 15:27:42 GMT-0500 (Central Daylight Time),337666.59999999404,CFD-WF-011-006-HC.jpg,1000,dash,O,z,849,12,1,39920.59999999404,297746.0,7117,ATS,B,16
16,test,1,B,mfborder.png,1,z,Fri Mar 21 2025 15:27:42 GMT-0500 (Central Daylight Time),339882.59999999404,CFD-BF-027-013-HC.jpg,1500,dash,O,z,698,3,1,42136.59999999404,297746.0,7117,ATS,B,17
17,test,1,B,mfborder.png,1,z,Fri Mar 21 2025 15:27:42 GMT-0500 (Central Daylight Time),342015.5,CFD-WF-026-008-A.jpg,1500,dash,O,z,611,11,1,44269.5,297746.0,7117,ATS,B,18
18,test,1,B,mfborder.png,1,z,Fri Mar 21 2025 15:27:42 GMT-0500 (Central Daylight Time),344114.5,CFD-BF-035-007-HC.jpg,1400,dash,O,z,682,7,1,46368.5,297746.0,7117,ATS,B,19
19,test,1,B,mfborder.png,1,m,Fri Mar 21 2025 15:27:42 GMT-0500 (Central Daylight Time),346597.2999999821,CFD-WM-009-009-A.jpg,1700,dash,O,m,762,9,1,48851.29999998212,297746.0,7117,ATS,B,20
20,test,1,B,mfborder.png,1,m,Fri Mar 21 2025 15:27:42 GMT-0500 (Central Daylight Time),348896.6999999881,CFD-WM-009-009-A.jpg,1700,dash,O,m,576,9,1,51150.69999998808,297746.0,7117,ATS,B,21
21,test,1,B,mfborder.png,1,m,Fri Mar 21 2025 15:27:42 GMT-0500 (Central Daylight Time),350780.40000000596,CFD-WM-037-060-A.jpg,1200,dash,O,m,665,6,1,53034.40000000596,297746.0,7117,ATS,B,22
22,test,1,B,mfborder.png,1,z,Fri Mar 21 2025 15:27:42 GMT-0500 (Central Daylight Time),352895.2999999821,CFD-BF-051-043-A.jpg,1000,dash,O,z,1094,4,1,55149.29999998212,297746.0,7117,ATS,B,23
23,test,1,B,mfborder.png,1,m,Fri Mar 21 2025 15:27:42 GMT-0500 (Central Daylight Time),354978.2999999821,CFD-WM-037-060-A.jpg,1200,dash,O,m,846,6,1,57232.29999998212,297746.0,7117,ATS,B,24
0,3,1,C,mfborder.png,0,z,Fri Mar 21 2025 15:27:42 GMT-0500 (Central Daylight Time),415376.0,CFD-BF-035-007-HC.jpg,1000,dash,O,m,1199,prac,1,2999.0999999940395,412376.90000000596,7117,ATS,B,1
1,8,1,C,haborder.png,1,z,Fri Mar 21 2025 15:27:42 GMT-0500 (Central Daylight Time),419307.90000000596,CFD-BF-050-012-A.jpg,1700,solid,O,z,1446,prac,1,6931.0,412376.90000000596,7117,ATS,B,2
2,7,1,C,haborder.png,1,z,Fri Mar 21 2025 15:27:42 GMT-0500 (Central Daylight Time),422967.5,CFD-BF-051-043-A.jpg,1900,dash,O,z,922,prac,1,10590.59999999404,412376.90000000596,7117,ATS,B,3
2,12,1,C,haborder.png,0,m,Fri Mar 21 2025 15:27:42 GMT-0500 (Central Daylight Time),426672.1999999881,CFD-WM-011-006-HC.jpg,1400,solid,O,None,1516,prac,1,14295.299999982119,412376.90000000596,7117,ATS,B,4
3,10,1,C,haborder.png,1,m,Fri Mar 21 2025 15:27:42 GMT-0500 (Central Daylight Time),429705.7999999821,CFD-BM-020-024-HC.jpg,1500,solid,O,m,741,prac,1,17328.899999976158,412376.90000000596,7117,ATS,B,5
3,5,1,C,mfborder.png,0,m,Fri Mar 21 2025 15:27:42 GMT-0500 (Central Daylight Time),432587.1999999881,CFD-BM-037-041-A.jpg,1200,dash,O,z,889,prac,1,20210.29999998212,412376.90000000596,7117,ATS,B,6
4,6,1,C,mfborder.png,1,m,Fri Mar 21 2025 15:27:42 GMT-0500 (Central Daylight Time),435936.09999999404,CFD-WM-009-009-A.jpg,1700,solid,O,m,858,prac,1,23559.19999998808,412376.90000000596,7117,ATS,B,7
4,11,1,C,haborder.png,0,m,Fri Mar 21 2025 15:27:42 GMT-0500 (Central Daylight Time),438768.5,CFD-WM-011-006-HC.jpg,1000,dash,O,z,1049,prac,1,26391.59999999404,412376.90000000596,7117,ATS,B,8
4,4,1,C,mfborder.png,0,m,Fri Mar 21 2025 15:27:42 GMT-0500 (Central Daylight Time),443067.09999999404,CFD-BM-015-017-HC.jpg,2000,solid,O,None,1516,prac,1,30690.19999998808,412376.90000000596,7117,ATS,B,9
5,2,1,C,mfborder.png,1,z,Fri Mar 21 2025 15:27:42 GMT-0500 (Central Daylight Time),446508.6999999881,CFD-WF-013-015-A.jpg,1500,solid,O,z,1050,prac,1,34131.79999998212,412376.90000000596,7117,ATS,B,10
5,1,1,C,mfborder.png,0,z,Fri Mar 21 2025 15:27:42 GMT-0500 (Central Daylight Time),450415.0,CFD-WF-011-006-HC.jpg,1600,dash,O,None,1515,prac,1,38038.09999999404,412376.90000000596,7117,ATS,B,11
6,9,1,C,haborder.png,1,z,Fri Mar 21 2025 15:27:42 GMT-0500 (Central Daylight Time),453464.09999999404,CFD-WF-026-008-A.jpg,1600,dash,O,z,650,prac,1,41087.19999998808,412376.90000000596,7117,ATS,B,12
1,12,2,C,haborder.png,1,m,Fri Mar 21 2025 15:27:42 GMT-0500 (Central Daylight Time),463327.40000000596,CFD-WM-011-006-HC.jpg,1400,solid,O,m,925,prac,1,50950.5,412376.90000000596,7117,ATS,B,1
2,11,2,C,haborder.png,1,m,Fri Mar 21 2025 15:27:42 GMT-0500 (Central Daylight Time),466110.90000000596,CFD-WM-011-006-HC.jpg,1000,dash,O,m,994,prac,1,53734.0,412376.90000000596,7117,ATS,B,2
2,1,2,C,mfborder.png,0,z,Fri Mar 21 2025 15:27:42 GMT-0500 (Central Daylight Time),470033.2999999821,CFD-WF-011-006-HC.jpg,1600,dash,O,None,1515,prac,1,57656.39999997616,412376.90000000596,7117,ATS,B,3
3,3,2,C,mfborder.png,1,z,Fri Mar 21 2025 15:27:42 GMT-0500 (Central Daylight Time),472507.90000000596,CFD-BF-035-007-HC.jpg,1000,dash,O,z,696,prac,1,60131.0,412376.90000000596,7117,ATS,B,4
4,5,2,C,mfborder.png,1,m,Fri Mar 21 2025 15:27:42 GMT-0500 (Central Daylight Time),475457.1999999881,CFD-BM-037-041-A.jpg,1200,dash,O,m,957,prac,1,63080.29999998212,412376.90000000596,7117,ATS,B,5
5,10,2,C,haborder.png,1,m,Fri Mar 21 2025 15:27:42 GMT-0500 (Central Daylight Time),478656.09999999404,CFD-BM-020-024-HC.jpg,1500,solid,O,m,901,prac,1,66279.19999998808,412376.90000000596,7117,ATS,B,6
6,6,2,C,mfborder.png,1,m,Fri Mar 21 2025 15:27:42 GMT-0500 (Central Daylight Time),482371.59999999404,CFD-WM-009-009-A.jpg,1700,solid,O,m,1221,prac,1,69994.69999998808,412376.90000000596,7117,ATS,B,7
7,2,2,C,mfborder.png,1,z,Fri Mar 21 2025 15:27:42 GMT-0500 (Central Daylight Time),485720.59999999404,CFD-WF-013-015-A.jpg,1500,solid,O,z,1058,prac,1,73343.69999998808,412376.90000000596,7117,ATS,B,8
8,8,2,C,haborder.png,1,z,Fri Mar 21 2025 15:27:42 GMT-0500 (Central Daylight Time),489069.2999999821,CFD-BF-050-012-A.jpg,1700,solid,O,z,853,prac,1,76692.39999997616,412376.90000000596,7117,ATS,B,9
9,7,2,C,haborder.png,1,z,Fri Mar 21 2025 15:27:42 GMT-0500 (Central Daylight Time),492551.6999999881,CFD-BF-051-043-A.jpg,1900,dash,O,z,783,prac,1,80174.79999998212,412376.90000000596,7117,ATS,B,10
10,9,2,C,haborder.png,1,z,Fri Mar 21 2025 15:27:42 GMT-0500 (Central Daylight Time),495817.5,CFD-WF-026-008-A.jpg,1600,dash,O,z,882,prac,1,83440.59999999404,412376.90000000596,7117,ATS,B,11
11,4,2,C,mfborder.png,1,m,Fri Mar 21 2025 15:27:42 GMT-0500 (Central Daylight Time),499416.09999999404,CFD-BM-015-017-HC.jpg,2000,solid,O,m,808,prac,1,87039.19999998808,412376.90000000596,7117,ATS,B,12
1,test,1,C,mfborder.png,1,m,Fri Mar 21 2025 15:27:42 GMT-0500 (Central Daylight Time),528823.6999999881,CFD-BM-020-024-HC.jpg,1200,dash,O,m,910,6,1,2132.9000000059605,526690.7999999821,7117,ATS,B,1
2,test,1,C,haborder.png,1,m,Fri Mar 21 2025 15:27:42 GMT-0500 (Central Daylight Time),531922.5,CFD-BF-035-007-HC.jpg,1600,solid,O,m,1482,10,1,5231.700000017881,526690.7999999821,7117,ATS,B,2
2,test,1,C,haborder.png,0,z,Fri Mar 21 2025 15:27:42 GMT-0500 (Central Daylight Time),535004.900000006,CFD-BM-037-041-A.jpg,1900,solid,O,m,1163,8,1,8314.100000023842,526690.7999999821,7117,ATS,B,3
3,test,1,C,haborder.png,1,m,Fri Mar 21 2025 15:27:42 GMT-0500 (Central Daylight Time),536887.7999999821,CFD-WF-011-006-HC.jpg,1000,solid,O,m,860,12,1,10197.0,526690.7999999821,7117,ATS,B,4
3,test,1,C,mfborder.png,0,m,Fri Mar 21 2025 15:27:42 GMT-0500 (Central Daylight Time),538853.599999994,CFD-WM-012-007-HC.jpg,1000,dash,O,z,937,4,1,12162.800000011921,526690.7999999821,7117,ATS,B,5
3,test,1,C,mfborder.png,0,z,Fri Mar 21 2025 15:27:42 GMT-0500 (Central Daylight Time),541986.1999999881,CFD-WF-026-008-A.jpg,1500,dash,O,None,1507,3,1,15295.40000000596,526690.7999999821,7117,ATS,B,6
3,test,1,C,haborder.png,0,m,Fri Mar 21 2025 15:27:42 GMT-0500 (Central Daylight Time),544335.2999999821,CFD-WF-027-007-HC.jpg,1500,solid,O,z,819,11,1,17644.5,526690.7999999821,7117,ATS,B,7
4,test,1,C,mfborder.png,1,z,Fri Mar 21 2025 15:27:42 GMT-0500 (Central Daylight Time),547151.099999994,CFD-BF-051-043-A.jpg,1600,dash,O,z,1194,2,1,20460.30000001192,526690.7999999821,7117,ATS,B,8
5,test,1,C,mfborder.png,1,z,Fri Mar 21 2025 15:27:42 GMT-0500 (Central Daylight Time),549550.400000006,CFD-BF-051-043-A.jpg,1600,dash,O,z,778,2,1,22859.600000023842,526690.7999999821,7117,ATS,B,9
6,test,1,C,haborder.png,1,m,Fri Mar 21 2025 15:27:42 GMT-0500 (Central Daylight Time),551434.5,CFD-WF-011-006-HC.jpg,1000,solid,O,m,859,12,1,24743.70000001788,526690.7999999821,7117,ATS,B,10
6,test,1,C,mfborder.png,0,m,Fri Mar 21 2025 15:27:42 GMT-0500 (Central Daylight Time),554965.599999994,CFD-WM-037-060-A.jpg,2000,dash,O,None,1516,5,1,28274.80000001192,526690.7999999821,7117,ATS,B,11
7,test,1,C,mfborder.png,1,z,Fri Mar 21 2025 15:27:42 GMT-0500 (Central Daylight Time),557768.0,CFD-BF-027-013-HC.jpg,1700,dash,O,z,1072,1,1,31077.20000001788,526690.7999999821,7117,ATS,B,12
8,test,1,C,mfborder.png,1,m,Fri Mar 21 2025 15:27:42 GMT-0500 (Central Daylight Time),559663.7999999821,CFD-WM-012-007-HC.jpg,1000,dash,O,m,869,4,1,32973.0,526690.7999999821,7117,ATS,B,13
8,test,1,C,haborder.png,0,z,Fri Mar 21 2025 15:27:42 GMT-0500 (Central Daylight Time),562863.099999994,CFD-BM-041-048-A.jpg,1700,solid,O,m,1469,9,1,36172.30000001192,526690.7999999821,7117,ATS,B,14
8,test,1,C,mfborder.png,0,z,Fri Mar 21 2025 15:27:42 GMT-0500 (Central Daylight Time),565895.400000006,CFD-WF-026-008-A.jpg,1500,dash,O,None,1515,3,1,39204.60000002384,526690.7999999821,7117,ATS,B,15
8,test,1,C,mfborder.png,0,m,Fri Mar 21 2025 15:27:42 GMT-0500 (Central Daylight Time),569427.599999994,CFD-WM-037-060-A.jpg,2000,dash,O,None,1515,5,1,42736.80000001192,526690.7999999821,7117,ATS,B,16
9,test,1,C,haborder.png,1,m,Fri Mar 21 2025 15:27:42 GMT-0500 (Central Daylight Time),571860.0,CFD-WF-027-007-HC.jpg,1500,solid,O,m,914,11,1,45169.20000001788,526690.7999999821,7117,ATS,B,17
10,test,1,C,haborder.png,1,m,Fri Mar 21 2025 15:27:42 GMT-0500 (Central Daylight Time),574309.2999999821,CFD-BF-035-007-HC.jpg,1600,solid,O,m,821,10,1,47618.5,526690.7999999821,7117,ATS,B,18
11,test,1,C,mfborder.png,1,z,Fri Mar 21 2025 15:27:42 GMT-0500 (Central Daylight Time),577075.1999999881,CFD-BF-027-013-HC.jpg,1700,dash,O,z,1039,1,1,50384.40000000596,526690.7999999821,7117,ATS,B,19
12,test,1,C,haborder.png,1,z,Fri Mar 21 2025 15:27:42 GMT-0500 (Central Daylight Time),580474.099999994,CFD-BM-037-041-A.jpg,1900,solid,O,z,1466,8,1,53783.30000001192,526690.7999999821,7117,ATS,B,20
12,test,1,C,haborder.png,0,z,Fri Mar 21 2025 15:27:42 GMT-0500 (Central Daylight Time),582806.7999999821,CFD-WM-009-009-A.jpg,1400,solid,O,m,911,7,1,56116.0,526690.7999999821,7117,ATS,B,21
12,test,1,C,haborder.png,0,z,Fri Mar 21 2025 15:27:42 GMT-0500 (Central Daylight Time),585105.7999999821,CFD-BM-041-048-A.jpg,1700,solid,O,m,575,9,1,58415.0,526690.7999999821,7117,ATS,B,22
12,test,1,C,mfborder.png,0,m,Fri Mar 21 2025 15:27:42 GMT-0500 (Central Daylight Time),587305.2999999821,CFD-BM-020-024-HC.jpg,1200,dash,O,z,967,6,1,60614.5,526690.7999999821,7117,ATS,B,23
12,test,1,C,haborder.png,0,z,Fri Mar 21 2025 15:27:42 GMT-0500 (Central Daylight Time),589721.2999999821,CFD-WM-009-009-A.jpg,1400,solid,O,m,984,7,1,63030.5,526690.7999999821,7117,ATS,B,24
1,test,2,C,haborder.png,1,m,Fri Mar 21 2025 15:27:42 GMT-0500 (Central Daylight Time),602001.7999999821,CFD-WM-011-006-HC.jpg,1000,solid,O,m,784,12,1,1817.2999999821186,600184.5,7117,ATS,B,1
1,test,2,C,mfborder.png,0,z,Fri Mar 21 2025 15:27:42 GMT-0500 (Central Daylight Time),605232.900000006,CFD-WF-011-006-HC.jpg,1700,dash,O,None,1512,1,1,5048.4000000059605,600184.5,7117,ATS,B,2
2,test,2,C,haborder.png,1,m,Fri Mar 21 2025 15:27:42 GMT-0500 (Central Daylight Time),607915.5,CFD-BM-020-024-HC.jpg,1600,solid,O,m,1056,10,1,7731.0,600184.5,7117,ATS,B,3
2,test,2,C,mfborder.png,0,m,Fri Mar 21 2025 15:27:42 GMT-0500 (Central Daylight Time),610647.900000006,CFD-WM-009-009-A.jpg,1200,dash,O,None,1516,6,1,10463.40000000596,600184.5,7117,ATS,B,4
3,test,2,C,haborder.png,1,z,Fri Mar 21 2025 15:27:42 GMT-0500 (Central Daylight Time),613480.599999994,CFD-BF-050-012-A.jpg,1900,solid,O,z,909,8,1,13296.09999999404,600184.5,7117,ATS,B,5
4,test,2,C,haborder.png,1,z,Fri Mar 21 2025 15:27:42 GMT-0500 (Central Daylight Time),616446.099999994,CFD-WF-026-008-A.jpg,1700,solid,O,z,1245,9,1,16261.59999999404,600184.5,7117,ATS,B,6
4,test,2,C,haborder.png,0,z,Fri Mar 21 2025 15:27:42 GMT-0500 (Central Daylight Time),619378.6999999881,CFD-BF-051-043-A.jpg,1400,solid,O,None,1516,7,1,19194.19999998808,600184.5,7117,ATS,B,7
5,test,2,C,mfborder.png,1,z,Fri Mar 21 2025 15:27:42 GMT-0500 (Central Daylight Time),622377.7999999821,CFD-BF-035-007-HC.jpg,1500,dash,O,z,1467,3,1,22193.29999998212,600184.5,7117,ATS,B,8
6,test,2,C,mfborder.png,1,z,Fri Mar 21 2025 15:27:42 GMT-0500 (Central Daylight Time),624693.7999999821,CFD-BF-035-007-HC.jpg,1500,dash,O,z,787,3,1,24509.29999998212,600184.5,7117,ATS,B,9
6,test,2,C,mfborder.png,0,m,Fri Mar 21 2025 15:27:42 GMT-0500 (Central Daylight Time),627226.2999999821,CFD-BM-015-017-HC.jpg,1000,dash,O,None,1515,4,1,27041.79999998212,600184.5,7117,ATS,B,10
7,test,2,C,mfborder.png,1,z,Fri Mar 21 2025 15:27:42 GMT-0500 (Central Daylight Time),629858.6999999881,CFD-WF-013-015-A.jpg,1600,dash,O,z,1007,2,1,29674.19999998808,600184.5,7117,ATS,B,11
7,test,2,C,mfborder.png,0,m,Fri Mar 21 2025 15:27:42 GMT-0500 (Central Daylight Time),632307.900000006,CFD-WM-009-009-A.jpg,1200,dash,O,z,1231,6,1,32123.40000000596,600184.5,7117,ATS,B,12
8,test,2,C,haborder.png,1,m,Fri Mar 21 2025 15:27:42 GMT-0500 (Central Daylight Time),634703.2999999821,CFD-WM-011-006-HC.jpg,1500,solid,O,m,878,11,1,34518.79999998212,600184.5,7117,ATS,B,13
8,test,2,C,mfborder.png,0,m,Fri Mar 21 2025 15:27:42 GMT-0500 (Central Daylight Time),637922.7999999821,CFD-BM-037-041-A.jpg,2000,dash,O,z,1190,5,1,37738.29999998212,600184.5,7117,ATS,B,14
9,test,2,C,haborder.png,1,m,Fri Mar 21 2025 15:27:42 GMT-0500 (Central Daylight Time),639991.900000006,CFD-WM-011-006-HC.jpg,1000,solid,O,m,1039,12,1,39807.40000000596,600184.5,7117,ATS,B,15
10,test,2,C,mfborder.png,1,z,Fri Mar 21 2025 15:27:42 GMT-0500 (Central Daylight Time),642771.2999999821,CFD-WF-013-015-A.jpg,1600,dash,O,z,1165,2,1,42586.79999998212,600184.5,7117,ATS,B,16
10,test,2,C,mfborder.png,0,z,Fri Mar 21 2025 15:27:42 GMT-0500 (Central Daylight Time),646003.7999999821,CFD-WF-011-006-HC.jpg,1700,dash,O,None,1516,1,1,45819.29999998212,600184.5,7117,ATS,B,17
11,test,2,C,mfborder.png,1,m,Fri Mar 21 2025 15:27:42 GMT-0500 (Central Daylight Time),648306.6999999881,CFD-BM-015-017-HC.jpg,1000,dash,O,m,1278,4,1,48122.19999998808,600184.5,7117,ATS,B,18
12,test,2,C,haborder.png,1,m,Fri Mar 21 2025 15:27:42 GMT-0500 (Central Daylight Time),651118.599999994,CFD-BM-020-024-HC.jpg,1600,solid,O,m,1194,10,1,50934.09999999404,600184.5,7117,ATS,B,19
13,test,2,C,haborder.png,1,m,Fri Mar 21 2025 15:27:42 GMT-0500 (Central Daylight Time),653484.599999994,CFD-WM-011-006-HC.jpg,1500,solid,O,m,846,11,1,53300.09999999404,600184.5,7117,ATS,B,20
14,test,2,C,haborder.png,1,z,Fri Mar 21 2025 15:27:42 GMT-0500 (Central Daylight Time),656133.6999999881,CFD-WF-026-008-A.jpg,1700,solid,O,z,921,9,1,55949.19999998808,600184.5,7117,ATS,B,21
14,test,2,C,mfborder.png,0,m,Fri Mar 21 2025 15:27:42 GMT-0500 (Central Daylight Time),659733.7999999821,CFD-BM-037-041-A.jpg,2000,dash,O,None,1502,5,1,59549.29999998212,600184.5,7117,ATS,B,22
15,test,2,C,haborder.png,1,z,Fri Mar 21 2025 15:27:42 GMT-0500 (Central Daylight Time),662515.0,CFD-BF-050-012-A.jpg,1900,solid,O,z,865,8,1,62330.5,600184.5,7117,ATS,B,23
16,test,2,C,haborder.png,1,z,Fri Mar 21 2025 15:27:42 GMT-0500 (Central Daylight Time),664631.0,CFD-BF-051-043-A.jpg,1400,solid,O,z,685,7,1,64446.5,600184.5,7117,ATS,B,24
1,test,3,C,mfborder.png,1,z,Fri Mar 21 2025 15:27:42 GMT-0500 (Central Daylight Time),678111.2999999821,CFD-BF-051-043-A.jpg,1600,dash,O,z,1245,2,1,2866.7999999821186,675244.5,7117,ATS,B,1
1,test,3,C,mfborder.png,0,m,Fri Mar 21 2025 15:27:42 GMT-0500 (Central Daylight Time),680842.7999999821,CFD-BM-020-024-HC.jpg,1200,dash,O,None,1512,6,1,5598.299999982119,675244.5,7117,ATS,B,2
1,test,3,C,haborder.png,0,z,Fri Mar 21 2025 15:27:42 GMT-0500 (Central Daylight Time),683725.099999994,CFD-BM-041-048-A.jpg,1700,solid,O,m,1155,9,1,8480.59999999404,675244.5,7117,ATS,B,3
1,test,3,C,mfborder.png,0,z,Fri Mar 21 2025 15:27:42 GMT-0500 (Central Daylight Time),686957.400000006,CFD-BF-027-013-HC.jpg,1700,dash,O,None,1515,1,1,11712.90000000596,675244.5,7117,ATS,B,4
2,test,3,C,mfborder.png,1,z,Fri Mar 21 2025 15:27:42 GMT-0500 (Central Daylight Time),689439.900000006,CFD-WF-026-008-A.jpg,1500,dash,O,z,960,3,1,14195.40000000596,675244.5,7117,ATS,B,5
3,test,3,C,mfborder.png,1,m,Fri Mar 21 2025 15:27:42 GMT-0500 (Central Daylight Time),691672.6999999881,CFD-WM-012-007-HC.jpg,1000,dash,O,m,1209,4,1,16428.19999998808,675244.5,7117,ATS,B,6
4,test,3,C,haborder.png,1,z,Fri Mar 21 2025 15:27:42 GMT-0500 (Central Daylight Time),694938.2999999821,CFD-BM-037-041-A.jpg,1900,solid,O,z,1349,8,1,19693.79999998212,675244.5,7117,ATS,B,7
5,test,3,C,haborder.png,1,m,Fri Mar 21 2025 15:27:42 GMT-0500 (Central Daylight Time),697471.0,CFD-BF-035-007-HC.jpg,1600,solid,O,m,911,10,1,22226.5,675244.5,7117,ATS,B,8
6,test,3,C,mfborder.png,1,z,Fri Mar 21 2025 15:27:42 GMT-0500 (Central Daylight Time),700069.900000006,CFD-WF-026-008-A.jpg,1500,dash,O,z,1071,3,1,24825.40000000596,675244.5,7117,ATS,B,9
7,test,3,C,haborder.png,1,m,Fri Mar 21 2025 15:27:42 GMT-0500 (Central Daylight Time),702219.400000006,CFD-WF-011-006-HC.jpg,1000,solid,O,m,1131,12,1,26974.90000000596,675244.5,7117,ATS,B,10
7,test,3,C,mfborder.png,0,m,Fri Mar 21 2025 15:27:42 GMT-0500 (Central Daylight Time),705300.1999999881,CFD-WM-037-060-A.jpg,2000,dash,O,z,1064,5,1,30055.69999998808,675244.5,7117,ATS,B,11
7,test,3,C,haborder.png,0,m,Fri Mar 21 2025 15:27:42 GMT-0500 (Central Daylight Time),708334.099999994,CFD-WF-027-007-HC.jpg,1500,solid,O,None,1516,11,1,33089.59999999404,675244.5,7117,ATS,B,12
8,test,3,C,haborder.png,1,m,Fri Mar 21 2025 15:27:42 GMT-0500 (Central Daylight Time),710866.5,CFD-BF-035-007-HC.jpg,1600,solid,O,m,915,10,1,35622.0,675244.5,7117,ATS,B,13
8,test,3,C,haborder.png,0,z,Fri Mar 21 2025 15:27:42 GMT-0500 (Central Daylight Time),714300.1999999881,CFD-BM-037-041-A.jpg,1900,solid,O,None,1517,8,1,39055.69999998808,675244.5,7117,ATS,B,14
9,test,3,C,haborder.png,1,z,Fri Mar 21 2025 15:27:42 GMT-0500 (Central Daylight Time),716814.7999999821,CFD-BM-041-048-A.jpg,1700,solid,O,z,786,9,1,41570.29999998212,675244.5,7117,ATS,B,15
9,test,3,C,mfborder.png,0,z,Fri Mar 21 2025 15:27:42 GMT-0500 (Central Daylight Time),719813.7999999821,CFD-BF-027-013-HC.jpg,1700,dash,O,m,1271,1,1,44569.29999998212,675244.5,7117,ATS,B,16
10,test,3,C,haborder.png,1,m,Fri Mar 21 2025 15:27:42 GMT-0500 (Central Daylight Time),722829.5,CFD-WF-027-007-HC.jpg,1500,solid,O,m,1495,11,1,47585.0,675244.5,7117,ATS,B,17
10,test,3,C,mfborder.png,0,m,Fri Mar 21 2025 15:27:42 GMT-0500 (Central Daylight Time),725362.1999999881,CFD-BM-020-024-HC.jpg,1200,dash,O,z,1300,6,1,50117.69999998808,675244.5,7117,ATS,B,18
11,test,3,C,haborder.png,1,z,Fri Mar 21 2025 15:27:42 GMT-0500 (Central Daylight Time),728044.599999994,CFD-WM-009-009-A.jpg,1400,solid,O,z,1255,7,1,52800.09999999404,675244.5,7117,ATS,B,19
12,test,3,C,mfborder.png,1,z,Fri Mar 21 2025 15:27:42 GMT-0500 (Central Daylight Time),730810.2999999821,CFD-BF-051-043-A.jpg,1600,dash,O,z,1141,2,1,55565.79999998212,675244.5,7117,ATS,B,20
13,test,3,C,mfborder.png,1,m,Fri Mar 21 2025 15:27:42 GMT-0500 (Central Daylight Time),733909.5,CFD-WM-037-060-A.jpg,2000,dash,O,m,1071,5,1,58665.0,675244.5,7117,ATS,B,21
14,test,3,C,mfborder.png,1,m,Fri Mar 21 2025 15:27:42 GMT-0500 (Central Daylight Time),736141.7999999821,CFD-WM-012-007-HC.jpg,1000,dash,O,m,1203,4,1,60897.29999998212,675244.5,7117,ATS,B,22
15,test,3,C,haborder.png,1,m,Fri Mar 21 2025 15:27:42 GMT-0500 (Central Daylight Time),738424.5,CFD-WF-011-006-HC.jpg,1000,solid,O,m,1251,12,1,63180.0,675244.5,7117,ATS,B,23
16,test,3,C,haborder.png,1,z,Fri Mar 21 2025 15:27:42 GMT-0500 (Central Daylight Time),741140.400000006,CFD-WM-009-009-A.jpg,1400,solid,O,z,1296,7,1,65895.90000000596,675244.5,7117,ATS,B,24
1,test,4,C,haborder.png,1,m,Fri Mar 21 2025 15:27:42 GMT-0500 (Central Daylight Time),752970.0,CFD-WM-011-006-HC.jpg,1500,solid,O,m,962,11,1,2497.9000000059605,750472.099999994,7117,ATS,B,1
1,test,4,C,mfborder.png,0,m,Fri Mar 21 2025 15:27:42 GMT-0500 (Central Daylight Time),756502.5,CFD-BM-037-041-A.jpg,2000,dash,O,None,1515,5,1,6030.4000000059605,750472.099999994,7117,ATS,B,2
2,test,4,C,haborder.png,1,m,Fri Mar 21 2025 15:27:42 GMT-0500 (Central Daylight Time),759451.2999999821,CFD-BM-020-024-HC.jpg,1600,solid,O,m,1331,10,1,8979.199999988079,750472.099999994,7117,ATS,B,3
3,test,4,C,mfborder.png,1,m,Fri Mar 21 2025 15:27:42 GMT-0500 (Central Daylight Time),761633.900000006,CFD-BM-015-017-HC.jpg,1000,dash,O,m,1158,4,1,11161.800000011921,750472.099999994,7117,ATS,B,4
3,test,4,C,haborder.png,0,z,Fri Mar 21 2025 15:27:42 GMT-0500 (Central Daylight Time),765066.2999999821,CFD-BF-050-012-A.jpg,1900,solid,O,None,1515,8,1,14594.199999988079,750472.099999994,7117,ATS,B,5
4,test,4,C,mfborder.png,1,m,Fri Mar 21 2025 15:27:42 GMT-0500 (Central Daylight Time),767565.5,CFD-BM-015-017-HC.jpg,1000,dash,O,m,1479,4,1,17093.40000000596,750472.099999994,7117,ATS,B,6
5,test,4,C,haborder.png,1,m,Fri Mar 21 2025 15:27:42 GMT-0500 (Central Daylight Time),770197.7999999821,CFD-BM-020-024-HC.jpg,1600,solid,O,m,1004,10,1,19725.69999998808,750472.099999994,7117,ATS,B,7
5,test,4,C,haborder.png,0,z,Fri Mar 21 2025 15:27:42 GMT-0500 (Central Daylight Time),773130.5,CFD-BF-051-043-A.jpg,1400,solid,O,None,1515,7,1,22658.40000000596,750472.099999994,7117,ATS,B,8
6,test,4,C,mfborder.png,1,z,Fri Mar 21 2025 15:27:42 GMT-0500 (Central Daylight Time),775879.6999999881,CFD-WF-013-015-A.jpg,1600,dash,O,z,1128,2,1,25407.59999999404,750472.099999994,7117,ATS,B,9
7,test,4,C,haborder.png,1,z,Fri Mar 21 2025 15:27:42 GMT-0500 (Central Daylight Time),778695.2999999821,CFD-BF-051-043-A.jpg,1400,solid,O,z,1386,7,1,28223.19999998808,750472.099999994,7117,ATS,B,10
8,test,4,C,haborder.png,1,m,Fri Mar 21 2025 15:27:42 GMT-0500 (Central Daylight Time),780578.099999994,CFD-WM-011-006-HC.jpg,1000,solid,O,m,850,12,1,30106.0,750472.099999994,7117,ATS,B,11
9,test,4,C,mfborder.png,1,z,Fri Mar 21 2025 15:27:42 GMT-0500 (Central Daylight Time),783727.0,CFD-WF-011-006-HC.jpg,1700,dash,O,z,1419,1,1,33254.90000000596,750472.099999994,7117,ATS,B,12
10,test,4,C,mfborder.png,1,z,Fri Mar 21 2025 15:27:42 GMT-0500 (Central Daylight Time),786242.7999999821,CFD-BF-035-007-HC.jpg,1500,dash,O,z,998,3,1,35770.69999998808,750472.099999994,7117,ATS,B,13
11,test,4,C,mfborder.png,1,m,Fri Mar 21 2025 15:27:42 GMT-0500 (Central Daylight Time),788325.7999999821,CFD-WM-009-009-A.jpg,1200,dash,O,m,862,6,1,37853.69999998808,750472.099999994,7117,ATS,B,14
12,test,4,C,mfborder.png,1,z,Fri Mar 21 2025 15:27:42 GMT-0500 (Central Daylight Time),791258.0,CFD-WF-011-006-HC.jpg,1700,dash,O,z,1208,1,1,40785.90000000596,750472.099999994,7117,ATS,B,15
13,test,4,C,haborder.png,1,m,Fri Mar 21 2025 15:27:42 GMT-0500 (Central Daylight Time),793740.6999999881,CFD-WM-011-006-HC.jpg,1500,solid,O,m,963,11,1,43268.59999999404,750472.099999994,7117,ATS,B,16
13,test,4,C,mfborder.png,0,m,Fri Mar 21 2025 15:27:42 GMT-0500 (Central Daylight Time),796473.400000006,CFD-WM-009-009-A.jpg,1200,dash,O,None,1516,6,1,46001.30000001192,750472.099999994,7117,ATS,B,17
14,test,4,C,mfborder.png,1,z,Fri Mar 21 2025 15:27:42 GMT-0500 (Central Daylight Time),799055.6999999881,CFD-WF-013-015-A.jpg,1600,dash,O,z,952,2,1,48583.59999999404,750472.099999994,7117,ATS,B,18
15,test,4,C,haborder.png,1,m,Fri Mar 21 2025 15:27:42 GMT-0500 (Central Daylight Time),801205.099999994,CFD-WM-011-006-HC.jpg,1000,solid,O,m,1130,12,1,50733.0,750472.099999994,7117,ATS,B,19
15,test,4,C,mfborder.png,0,m,Fri Mar 21 2025 15:27:42 GMT-0500 (Central Daylight Time),804020.6999999881,CFD-BM-037-041-A.jpg,2000,dash,O,z,789,5,1,53548.59999999404,750472.099999994,7117,ATS,B,20
15,test,4,C,haborder.png,0,z,Fri Mar 21 2025 15:27:42 GMT-0500 (Central Daylight Time),807253.099999994,CFD-WF-026-008-A.jpg,1700,solid,O,None,1516,9,1,56781.0,750472.099999994,7117,ATS,B,21
15,test,4,C,haborder.png,0,z,Fri Mar 21 2025 15:27:42 GMT-0500 (Central Daylight Time),810568.6999999881,CFD-BF-050-012-A.jpg,1900,solid,O,m,1392,8,1,60096.59999999404,750472.099999994,7117,ATS,B,22
16,test,4,C,mfborder.png,1,z,Fri Mar 21 2025 15:27:42 GMT-0500 (Central Daylight Time),813317.7999999821,CFD-BF-035-007-HC.jpg,1500,dash,O,z,1229,3,1,62845.69999998808,750472.099999994,7117,ATS,B,23
17,test,4,C,haborder.png,1,z,Fri Mar 21 2025 15:27:42 GMT-0500 (Central Daylight Time),816500.1999999881,CFD-WF-026-008-A.jpg,1700,solid,O,z,1464,9,1,66028.09999999404,750472.099999994,7117,ATS,B,24
