acc_sum,block,block_c,change,condition,correct,correct_response,datetime,endtime,face,project,response,response_time,row_sel,session_number,start_end,starttime,subject_id,task,task_vers,trial
0,prac,1,,1-Back,,,Wed Apr 02 2025 11:27:34 GMT-0500 (Central Daylight Time),,097_m_f_n_a.png,O,space,8605,1,1,,,7104,NNB,B,0
1,prac,1,0.0,1-Back,1,m,Wed Apr 02 2025 11:27:34 GMT-0500 (Central Daylight Time),147754.0,152_y_f_n_a.png,O,m,979,2,1,1836.7000000476837,145917.29999995232,7104,NNB,B,1
2,prac,1,1.0,1-Back,1,z,Wed Apr 02 2025 11:27:34 GMT-0500 (Central Daylight Time),150219.69999992847,152_y_f_n_a.png,O,z,1677,3,1,2455.0,147764.69999992847,7104,NNB,B,2
3,prac,1,0.0,1-Back,1,m,Wed Apr 02 2025 11:27:34 GMT-0500 (Central Daylight Time),152602.79999995232,176_o_m_n_a.png,O,m,1518,4,1,2373.399999976158,150229.39999997616,7104,NNB,B,3
4,prac,1,0.0,1-Back,1,m,Wed Apr 02 2025 11:27:34 GMT-0500 (Central Daylight Time),154899.29999995232,126_m_m_n_a.png,O,m,1422,5,1,2287.7000000476837,152611.59999990463,7104,NNB,B,4
5,prac,1,1.0,1-Back,1,z,Wed Apr 02 2025 11:27:34 GMT-0500 (Central Daylight Time),156717.89999997616,126_m_m_n_a.png,O,z,1056,6,1,1814.1000000238419,154903.79999995232,7104,NNB,B,5
6,prac,1,0.0,1-Back,1,m,Wed Apr 02 2025 11:27:34 GMT-0500 (Central Daylight Time),159267.39999997616,086_o_f_n_a.png,O,m,1669,7,1,2539.5,156727.89999997616,7104,NNB,B,6
7,prac,1,0.0,1-Back,1,m,Wed Apr 02 2025 11:27:34 GMT-0500 (Central Daylight Time),161200.89999997616,178_m_m_n_a.png,O,m,1078,8,1,1924.2000000476837,159276.69999992847,7104,NNB,B,7
8,prac,1,0.0,1-Back,1,m,Wed Apr 02 2025 11:27:34 GMT-0500 (Central Daylight Time),162915.69999992847,097_m_f_n_a.png,O,m,937,9,1,1705.1999999284744,161210.5,7104,NNB,B,8
9,prac,1,1.0,1-Back,1,z,Wed Apr 02 2025 11:27:34 GMT-0500 (Central Daylight Time),164615.19999992847,097_m_f_n_a.png,O,z,919,10,1,1693.1000000238419,162922.09999990463,7104,NNB,B,9
10,prac,1,0.0,1-Back,1,m,Wed Apr 02 2025 11:27:34 GMT-0500 (Central Daylight Time),167014.89999997616,176_o_m_n_a.png,O,m,1608,11,1,2390.399999976158,164624.5,7104,NNB,B,10
11,prac,1,0.0,1-Back,1,m,Wed Apr 02 2025 11:27:34 GMT-0500 (Central Daylight Time),169097.69999992847,173_y_f_n_a.png,O,m,1217,12,1,2074.899999976158,167022.79999995232,7104,NNB,B,11
0,test,1,0.0,1-Back,,,Wed Apr 02 2025 11:27:34 GMT-0500 (Central Daylight Time),169097.69999992847,152_y_f_n_a.png,O,space,9052,1,1,2074.899999976158,167022.79999995232,7104,NNB,B,0
1,test,1,0.0,1-Back,1,m,Wed Apr 02 2025 11:27:34 GMT-0500 (Central Daylight Time),188357.5,029_m_f_n_a.png,O,m,1203,2,1,2227.3000000715256,186130.19999992847,7104,NNB,B,1
2,test,1,0.0,1-Back,1,m,Wed Apr 02 2025 11:27:34 GMT-0500 (Central Daylight Time),191188.69999992847,173_y_f_n_a.png,O,m,1810,3,1,2824.2999999523163,188364.39999997616,7104,NNB,B,2
3,test,1,1.0,1-Back,1,z,Wed Apr 02 2025 11:27:34 GMT-0500 (Central Daylight Time),193472.59999990463,173_y_f_n_a.png,O,z,1249,4,1,2277.0,191195.59999990463,7104,NNB,B,3
4,test,1,0.0,1-Back,1,m,Wed Apr 02 2025 11:27:34 GMT-0500 (Central Daylight Time),195788.09999990463,029_m_f_n_a.png,O,m,1287,5,1,2308.1999999284744,193479.89999997616,7104,NNB,B,4
5,test,1,0.0,1-Back,1,m,Wed Apr 02 2025 11:27:34 GMT-0500 (Central Daylight Time),197955.89999997616,176_o_m_n_a.png,O,m,1149,6,1,2161.3000000715256,195794.59999990463,7104,NNB,B,5
6,test,1,1.0,1-Back,1,z,Wed Apr 02 2025 11:27:34 GMT-0500 (Central Daylight Time),199702.39999997616,176_o_m_n_a.png,O,z,723,7,1,1742.0,197960.39999997616,7104,NNB,B,6
7,test,1,0.0,1-Back,1,m,Wed Apr 02 2025 11:27:34 GMT-0500 (Central Daylight Time),202220.69999992847,126_m_m_n_a.png,O,m,1487,8,1,2512.600000023842,199708.09999990463,7104,NNB,B,7
8,test,1,0.0,1-Back,1,m,Wed Apr 02 2025 11:27:34 GMT-0500 (Central Daylight Time),204268.09999990463,086_o_f_n_a.png,O,m,1019,9,1,2040.5,202227.59999990463,7104,NNB,B,8
9,test,1,0.0,1-Back,1,m,Wed Apr 02 2025 11:27:34 GMT-0500 (Central Daylight Time),206184.09999990463,126_m_m_n_a.png,O,m,890,10,1,1909.7999999523163,204274.29999995232,7104,NNB,B,9
10,test,1,0.0,1-Back,1,m,Wed Apr 02 2025 11:27:34 GMT-0500 (Central Daylight Time),208150.59999990463,153_y_m_n_a.png,O,m,935,11,1,1960.5999999046326,206190.0,7104,NNB,B,10
11,test,1,1.0,1-Back,1,z,Wed Apr 02 2025 11:27:34 GMT-0500 (Central Daylight Time),209883.29999995232,153_y_m_n_a.png,O,z,705,12,1,1728.3999999761581,208154.89999997616,7104,NNB,B,11
12,test,1,0.0,1-Back,1,m,Wed Apr 02 2025 11:27:34 GMT-0500 (Central Daylight Time),212016.69999992847,110_o_f_n_a.png,O,m,1108,13,1,2126.6999999284744,209890.0,7104,NNB,B,12
12,test,1,1.0,1-Back,0,z,Wed Apr 02 2025 11:27:34 GMT-0500 (Central Daylight Time),214267.29999995232,110_o_f_n_a.png,O,m,1233,14,1,2245.399999976158,212021.89999997616,7104,NNB,B,13
13,test,1,0.0,1-Back,1,m,Wed Apr 02 2025 11:27:34 GMT-0500 (Central Daylight Time),216047.59999990463,013_y_m_n_a.png,O,m,758,15,1,1773.5,214274.09999990463,7104,NNB,B,14
14,test,1,0.0,1-Back,1,m,Wed Apr 02 2025 11:27:34 GMT-0500 (Central Daylight Time),217963.69999992847,097_m_f_n_a.png,O,m,895,16,1,1909.7999999523163,216053.89999997616,7104,NNB,B,15
15,test,1,0.0,1-Back,1,m,Wed Apr 02 2025 11:27:34 GMT-0500 (Central Daylight Time),219748.29999995232,065_o_m_n_a.png,O,m,754,17,1,1776.8999999761581,217971.39999997616,7104,NNB,B,16
16,test,1,0.0,1-Back,1,m,Wed Apr 02 2025 11:27:34 GMT-0500 (Central Daylight Time),221763.5,097_m_f_n_a.png,O,m,998,18,1,2009.0,219754.5,7104,NNB,B,17
0,test,2,0.0,1-Back,,,Wed Apr 02 2025 11:27:34 GMT-0500 (Central Daylight Time),221763.5,126_m_m_n_a.png,O,space,3429,1,1,2009.0,219754.5,7104,NNB,B,0
0,test,2,0.0,1-Back,0,m,Wed Apr 02 2025 11:27:34 GMT-0500 (Central Daylight Time),230243.09999990463,029_m_f_n_a.png,O,None,2015,2,1,3023.5,227219.59999990463,7104,NNB,B,1
0,test,2,1.0,1-Back,0,z,Wed Apr 02 2025 11:27:34 GMT-0500 (Central Daylight Time),233211.79999995232,029_m_f_n_a.png,O,m,1933,3,1,2960.2000000476837,230251.59999990463,7104,NNB,B,2
1,test,2,0.0,1-Back,1,m,Wed Apr 02 2025 11:27:34 GMT-0500 (Central Daylight Time),235010.29999995232,126_m_m_n_a.png,O,m,782,4,1,1791.8999999761581,233218.39999997616,7104,NNB,B,3
2,test,2,0.0,1-Back,1,m,Wed Apr 02 2025 11:27:34 GMT-0500 (Central Daylight Time),236843.19999992847,153_y_m_n_a.png,O,m,816,5,1,1826.3999999761581,235016.79999995232,7104,NNB,B,4
3,test,2,0.0,1-Back,1,m,Wed Apr 02 2025 11:27:34 GMT-0500 (Central Daylight Time),238658.79999995232,152_y_f_n_a.png,O,m,789,6,1,1808.8999999761581,236849.89999997616,7104,NNB,B,5
4,test,2,1.0,1-Back,1,z,Wed Apr 02 2025 11:27:34 GMT-0500 (Central Daylight Time),240690.5,152_y_f_n_a.png,O,z,1006,7,1,2024.4000000953674,238666.09999990463,7104,NNB,B,6
5,test,2,0.0,1-Back,1,m,Wed Apr 02 2025 11:27:34 GMT-0500 (Central Daylight Time),242806.59999990463,153_y_m_n_a.png,O,m,1083,8,1,2109.7999999523163,240696.79999995232,7104,NNB,B,7
6,test,2,0.0,1-Back,1,m,Wed Apr 02 2025 11:27:34 GMT-0500 (Central Daylight Time),244708.89999997616,110_o_f_n_a.png,O,m,883,9,1,1895.6000000238419,242813.29999995232,7104,NNB,B,8
7,test,2,0.0,1-Back,1,m,Wed Apr 02 2025 11:27:34 GMT-0500 (Central Daylight Time),246605.0,178_m_m_n_a.png,O,m,878,10,1,1889.6000000238419,244715.39999997616,7104,NNB,B,9
8,test,2,1.0,1-Back,1,z,Wed Apr 02 2025 11:27:34 GMT-0500 (Central Daylight Time),248388.59999990463,178_m_m_n_a.png,O,z,763,11,1,1775.8999999761581,246612.69999992847,7104,NNB,B,10
9,test,2,0.0,1-Back,1,m,Wed Apr 02 2025 11:27:34 GMT-0500 (Central Daylight Time),250372.09999990463,110_o_f_n_a.png,O,m,966,12,1,1976.2999999523163,248395.79999995232,7104,NNB,B,11
10,test,2,0.0,1-Back,1,m,Wed Apr 02 2025 11:27:34 GMT-0500 (Central Daylight Time),252203.79999995232,086_o_f_n_a.png,O,m,813,13,1,1824.6000000238419,250379.19999992847,7104,NNB,B,12
11,test,2,0.0,1-Back,1,m,Wed Apr 02 2025 11:27:34 GMT-0500 (Central Daylight Time),254086.5,176_o_m_n_a.png,O,m,852,14,1,1876.4000000953674,252210.09999990463,7104,NNB,B,13
12,test,2,0.0,1-Back,1,m,Wed Apr 02 2025 11:27:34 GMT-0500 (Central Daylight Time),256118.69999992847,065_o_m_n_a.png,O,m,1009,15,1,2026.3999999761581,254092.29999995232,7104,NNB,B,14
13,test,2,1.0,1-Back,1,z,Wed Apr 02 2025 11:27:34 GMT-0500 (Central Daylight Time),257901.19999992847,065_o_m_n_a.png,O,z,760,16,1,1776.2999999523163,256124.89999997616,7104,NNB,B,15
14,test,2,0.0,1-Back,1,m,Wed Apr 02 2025 11:27:34 GMT-0500 (Central Daylight Time),259901.5,013_y_m_n_a.png,O,m,969,17,1,1994.8000000715256,257906.69999992847,7104,NNB,B,16
15,test,2,1.0,1-Back,1,z,Wed Apr 02 2025 11:27:34 GMT-0500 (Central Daylight Time),261983.5,013_y_m_n_a.png,O,z,1059,18,1,2075.0,259908.5,7104,NNB,B,17
0,test,3,1.0,1-Back,,,Wed Apr 02 2025 11:27:34 GMT-0500 (Central Daylight Time),261983.5,173_y_f_n_a.png,O,space,6216,1,1,2075.0,259908.5,7104,NNB,B,0
1,test,3,0.0,1-Back,1,m,Wed Apr 02 2025 11:27:34 GMT-0500 (Central Daylight Time),272213.1999999285,065_o_m_n_a.png,O,m,869,1,1,1889.6000000238419,270323.59999990463,7104,NNB,B,1
2,test,3,1.0,1-Back,1,z,Wed Apr 02 2025 11:27:34 GMT-0500 (Central Daylight Time),274164.09999990463,065_o_m_n_a.png,O,z,934,1,1,1946.1999999284744,272217.89999997616,7104,NNB,B,2
3,test,3,0.0,1-Back,1,m,Wed Apr 02 2025 11:27:34 GMT-0500 (Central Daylight Time),276096.89999997616,097_m_f_n_a.png,O,m,910,1,1,1925.1000000238419,274171.7999999523,7104,NNB,B,3
4,test,3,1.0,1-Back,1,z,Wed Apr 02 2025 11:27:34 GMT-0500 (Central Daylight Time),278077.7999999523,097_m_f_n_a.png,O,z,959,1,1,1974.6000000238419,276103.1999999285,7104,NNB,B,4
5,test,3,0.0,1-Back,1,m,Wed Apr 02 2025 11:27:34 GMT-0500 (Central Daylight Time),280044.6999999285,110_o_f_n_a.png,O,m,937,1,1,1962.1999999284744,278082.5,7104,NNB,B,5
6,test,3,0.0,1-Back,1,m,Wed Apr 02 2025 11:27:34 GMT-0500 (Central Daylight Time),282043.2999999523,153_y_m_n_a.png,O,m,978,1,1,1992.3999999761581,280050.89999997616,7104,NNB,B,6
7,test,3,0.0,1-Back,1,m,Wed Apr 02 2025 11:27:34 GMT-0500 (Central Daylight Time),283795.1999999285,110_o_f_n_a.png,O,m,734,1,1,1743.1000000238419,282052.09999990463,7104,NNB,B,7
8,test,3,0.0,1-Back,1,m,Wed Apr 02 2025 11:27:34 GMT-0500 (Central Daylight Time),285843.89999997616,013_y_m_n_a.png,O,m,1032,1,1,2040.6000000238419,283803.2999999523,7104,NNB,B,8
9,test,3,1.0,1-Back,1,z,Wed Apr 02 2025 11:27:34 GMT-0500 (Central Daylight Time),287476.89999997616,013_y_m_n_a.png,O,z,604,1,1,1626.3000000715256,285850.59999990463,7104,NNB,B,9
10,test,3,0.0,1-Back,1,m,Wed Apr 02 2025 11:27:34 GMT-0500 (Central Daylight Time),289292.6999999285,029_m_f_n_a.png,O,m,787,1,1,1804.1000000238419,287488.59999990463,7104,NNB,B,10
11,test,3,0.0,1-Back,1,m,Wed Apr 02 2025 11:27:34 GMT-0500 (Central Daylight Time),291243.0,152_y_f_n_a.png,O,m,933,1,1,1943.6000000238419,289299.39999997616,7104,NNB,B,11
12,test,3,1.0,1-Back,1,z,Wed Apr 02 2025 11:27:34 GMT-0500 (Central Daylight Time),293007.09999990463,152_y_f_n_a.png,O,z,742,1,1,1756.2999999523163,291250.7999999523,7104,NNB,B,12
13,test,3,0.0,1-Back,1,m,Wed Apr 02 2025 11:27:34 GMT-0500 (Central Daylight Time),294957.7999999523,029_m_f_n_a.png,O,m,920,1,1,1943.8999999761581,293013.89999997616,7104,NNB,B,13
14,test,3,0.0,1-Back,1,m,Wed Apr 02 2025 11:27:34 GMT-0500 (Central Daylight Time),296922.6999999285,126_m_m_n_a.png,O,m,938,1,1,1958.8999999761581,294963.7999999523,7104,NNB,B,14
15,test,3,1.0,1-Back,1,z,Wed Apr 02 2025 11:27:34 GMT-0500 (Central Daylight Time),298788.2999999523,126_m_m_n_a.png,O,z,837,1,1,1858.5,296929.7999999523,7104,NNB,B,15
16,test,3,0.0,1-Back,1,m,Wed Apr 02 2025 11:27:34 GMT-0500 (Central Daylight Time),300906.1999999285,086_o_f_n_a.png,O,m,1091,1,1,2110.7999999523163,298795.39999997616,7104,NNB,B,16
17,test,3,1.0,1-Back,1,z,Wed Apr 02 2025 11:27:34 GMT-0500 (Central Daylight Time),302755.1999999285,086_o_f_n_a.png,O,z,822,1,1,1841.6000000238419,300913.59999990463,7104,NNB,B,17
0,test,4,1.0,1-Back,,,Wed Apr 02 2025 11:27:34 GMT-0500 (Central Daylight Time),302755.1999999285,097_m_f_n_a.png,O,space,6404,1,1,1841.6000000238419,300913.59999990463,7104,NNB,B,0
1,test,4,0.0,1-Back,1,m,Wed Apr 02 2025 11:27:34 GMT-0500 (Central Daylight Time),313168.2999999523,065_o_m_n_a.png,O,m,867,2,1,1892.6000000238419,311275.6999999285,7104,NNB,B,1
2,test,4,0.0,1-Back,1,m,Wed Apr 02 2025 11:27:34 GMT-0500 (Central Daylight Time),315419.5,097_m_f_n_a.png,O,m,1234,3,1,2241.8000000715256,313177.6999999285,7104,NNB,B,2
3,test,4,0.0,1-Back,1,m,Wed Apr 02 2025 11:27:34 GMT-0500 (Central Daylight Time),317149.89999997616,110_o_f_n_a.png,O,m,701,4,1,1724.1000000238419,315425.7999999523,7104,NNB,B,3
4,test,4,1.0,1-Back,1,z,Wed Apr 02 2025 11:27:34 GMT-0500 (Central Daylight Time),319049.5,110_o_f_n_a.png,O,z,873,5,1,1892.3000000715256,317157.1999999285,7104,NNB,B,4
5,test,4,0.0,1-Back,1,m,Wed Apr 02 2025 11:27:34 GMT-0500 (Central Daylight Time),320964.89999997616,152_y_f_n_a.png,O,m,895,6,1,1907.8999999761581,319057.0,7104,NNB,B,5
6,test,4,0.0,1-Back,1,m,Wed Apr 02 2025 11:27:34 GMT-0500 (Central Daylight Time),322831.7999999523,153_y_m_n_a.png,O,m,842,7,1,1859.3999999761581,320972.39999997616,7104,NNB,B,6
7,test,4,1.0,1-Back,1,z,Wed Apr 02 2025 11:27:34 GMT-0500 (Central Daylight Time),324347.0,153_y_m_n_a.png,O,z,498,8,1,1507.6000000238419,322839.39999997616,7104,NNB,B,7
8,test,4,0.0,1-Back,1,m,Wed Apr 02 2025 11:27:34 GMT-0500 (Central Daylight Time),326331.39999997616,152_y_f_n_a.png,O,m,958,9,1,1979.3999999761581,324352.0,7104,NNB,B,8
9,test,4,0.0,1-Back,1,m,Wed Apr 02 2025 11:27:34 GMT-0500 (Central Daylight Time),328096.7999999523,178_m_m_n_a.png,O,m,747,10,1,1757.5,326339.2999999523,7104,NNB,B,9
10,test,4,1.0,1-Back,1,z,Wed Apr 02 2025 11:27:34 GMT-0500 (Central Daylight Time),329662.2999999523,178_m_m_n_a.png,O,z,542,11,1,1559.1000000238419,328103.1999999285,7104,NNB,B,10
11,test,4,0.0,1-Back,1,m,Wed Apr 02 2025 11:27:34 GMT-0500 (Central Daylight Time),332277.59999990463,086_o_f_n_a.png,O,m,1585,12,1,2608.2999999523163,329669.2999999523,7104,NNB,B,11
12,test,4,0.0,1-Back,1,m,Wed Apr 02 2025 11:27:34 GMT-0500 (Central Daylight Time),334044.39999997616,176_o_m_n_a.png,O,m,739,13,1,1760.0,332284.39999997616,7104,NNB,B,12
13,test,4,0.0,1-Back,1,m,Wed Apr 02 2025 11:27:34 GMT-0500 (Central Daylight Time),336344.0,086_o_f_n_a.png,O,m,1268,14,1,2291.7000000476837,334052.2999999523,7104,NNB,B,13
14,test,4,0.0,1-Back,1,m,Wed Apr 02 2025 11:27:34 GMT-0500 (Central Daylight Time),338059.89999997616,173_y_f_n_a.png,O,m,687,15,1,1708.8000000715256,336351.09999990463,7104,NNB,B,14
15,test,4,1.0,1-Back,1,z,Wed Apr 02 2025 11:27:34 GMT-0500 (Central Daylight Time),339810.39999997616,173_y_f_n_a.png,O,z,716,16,1,1742.3000000715256,338068.09999990463,7104,NNB,B,15
16,test,4,0.0,1-Back,1,m,Wed Apr 02 2025 11:27:34 GMT-0500 (Central Daylight Time),342008.89999997616,029_m_f_n_a.png,O,m,1176,17,1,2191.7000000476837,339817.1999999285,7104,NNB,B,16
17,test,4,1.0,1-Back,1,z,Wed Apr 02 2025 11:27:34 GMT-0500 (Central Daylight Time),343791.2999999523,029_m_f_n_a.png,O,z,759,18,1,1775.1000000238419,342016.1999999285,7104,NNB,B,17
0,test,5,1.0,1-Back,,,Wed Apr 02 2025 11:27:34 GMT-0500 (Central Daylight Time),343791.2999999523,176_o_m_n_a.png,O,space,1817,1,1,1775.1000000238419,342016.1999999285,7104,NNB,B,0
1,test,5,1.0,1-Back,1,z,Wed Apr 02 2025 11:27:34 GMT-0500 (Central Daylight Time),349438.89999997616,176_o_m_n_a.png,O,z,775,2,1,1789.8000000715256,347649.09999990463,7104,NNB,B,1
2,test,5,0.0,1-Back,1,m,Wed Apr 02 2025 11:27:34 GMT-0500 (Central Daylight Time),351290.1999999285,152_y_f_n_a.png,O,m,833,3,1,1844.5,349445.6999999285,7104,NNB,B,2
3,test,5,0.0,1-Back,1,m,Wed Apr 02 2025 11:27:34 GMT-0500 (Central Daylight Time),353038.7999999523,153_y_m_n_a.png,O,m,726,4,1,1742.7000000476837,351296.09999990463,7104,NNB,B,3
4,test,5,0.0,1-Back,1,m,Wed Apr 02 2025 11:27:34 GMT-0500 (Central Daylight Time),354853.1999999285,152_y_f_n_a.png,O,m,785,5,1,1806.6999999284744,353046.5,7104,NNB,B,4
5,test,5,0.0,1-Back,1,m,Wed Apr 02 2025 11:27:34 GMT-0500 (Central Daylight Time),356721.7999999523,126_m_m_n_a.png,O,m,848,6,1,1863.0,354858.7999999523,7104,NNB,B,5
6,test,5,1.0,1-Back,1,z,Wed Apr 02 2025 11:27:34 GMT-0500 (Central Daylight Time),358269.5,126_m_m_n_a.png,O,z,527,7,1,1541.1000000238419,356728.39999997616,7104,NNB,B,6
7,test,5,0.0,1-Back,1,m,Wed Apr 02 2025 11:27:34 GMT-0500 (Central Daylight Time),360436.39999997616,173_y_f_n_a.png,O,m,1136,8,1,2161.3000000715256,358275.09999990463,7104,NNB,B,7
8,test,5,0.0,1-Back,1,m,Wed Apr 02 2025 11:27:34 GMT-0500 (Central Daylight Time),362284.39999997616,013_y_m_n_a.png,O,m,828,9,1,1843.8000000715256,360440.59999990463,7104,NNB,B,8
9,test,5,0.0,1-Back,1,m,Wed Apr 02 2025 11:27:34 GMT-0500 (Central Daylight Time),364866.7999999523,173_y_f_n_a.png,O,m,1560,10,1,2574.5,362292.2999999523,7104,NNB,B,9
10,test,5,0.0,1-Back,1,m,Wed Apr 02 2025 11:27:34 GMT-0500 (Central Daylight Time),366734.39999997616,086_o_f_n_a.png,O,m,836,11,1,1860.7000000476837,364873.6999999285,7104,NNB,B,10
11,test,5,1.0,1-Back,1,z,Wed Apr 02 2025 11:27:34 GMT-0500 (Central Daylight Time),368266.1999999285,086_o_f_n_a.png,O,z,506,12,1,1525.2999999523163,366740.89999997616,7104,NNB,B,11
12,test,5,0.0,1-Back,1,m,Wed Apr 02 2025 11:27:34 GMT-0500 (Central Daylight Time),370198.89999997616,065_o_m_n_a.png,O,m,910,13,1,1925.8999999761581,368273.0,7104,NNB,B,12
13,test,5,0.0,1-Back,1,m,Wed Apr 02 2025 11:27:34 GMT-0500 (Central Daylight Time),371965.39999997616,097_m_f_n_a.png,O,m,743,14,1,1761.0,370204.39999997616,7104,NNB,B,13
14,test,5,1.0,1-Back,1,z,Wed Apr 02 2025 11:27:34 GMT-0500 (Central Daylight Time),373548.59999990463,097_m_f_n_a.png,O,z,563,15,1,1577.7999999523163,371970.7999999523,7104,NNB,B,14
15,test,5,0.0,1-Back,1,m,Wed Apr 02 2025 11:27:34 GMT-0500 (Central Daylight Time),375316.6999999285,065_o_m_n_a.png,O,m,750,16,1,1761.1000000238419,373555.59999990463,7104,NNB,B,15
16,test,5,0.0,1-Back,1,m,Wed Apr 02 2025 11:27:34 GMT-0500 (Central Daylight Time),377065.39999997616,029_m_f_n_a.png,O,m,733,17,1,1741.7000000476837,375323.6999999285,7104,NNB,B,16
17,test,5,0.0,1-Back,1,m,Wed Apr 02 2025 11:27:34 GMT-0500 (Central Daylight Time),378731.7999999523,178_m_m_n_a.png,O,m,651,18,1,1661.2000000476837,377070.59999990463,7104,NNB,B,17
0,prac,1,0.0,2-Back,,,Wed Apr 02 2025 11:27:34 GMT-0500 (Central Daylight Time),378731.7999999523,013_y_m_n_a.png,O,space,15446,1,1,1661.2000000476837,377070.59999990463,7104,NNB,B,0
0,prac,1,0.0,2-Back,,,Wed Apr 02 2025 11:27:34 GMT-0500 (Central Daylight Time),378731.7999999523,029_m_f_n_a.png,O,space,15446,2,1,1661.2000000476837,377070.59999990463,7104,NNB,B,0
1,prac,1,1.0,2-Back,1,m,Wed Apr 02 2025 11:27:34 GMT-0500 (Central Daylight Time),518235.2999999523,065_o_m_n_a.png,O,m,1948,3,1,2821.7000000476837,515413.59999990463,7104,NNB,B,1
1,prac,1,0.0,2-Back,0,m,Wed Apr 02 2025 11:27:34 GMT-0500 (Central Daylight Time),521119.59999990463,086_o_f_n_a.png,O,None,2004,4,1,2877.5999999046326,518242.0,7104,NNB,B,2
2,prac,1,0.0,2-Back,1,z,Wed Apr 02 2025 11:27:34 GMT-0500 (Central Daylight Time),523550.0,065_o_m_n_a.png,O,z,1649,5,1,2421.100000023842,521128.89999997616,7104,NNB,B,3
2,prac,1,1.0,2-Back,0,z,Wed Apr 02 2025 11:27:34 GMT-0500 (Central Daylight Time),525484.0999999046,086_o_f_n_a.png,O,m,1155,6,1,1926.7999999523163,523557.2999999523,7104,NNB,B,4
3,prac,1,0.0,2-Back,1,m,Wed Apr 02 2025 11:27:34 GMT-0500 (Central Daylight Time),528016.1999999285,178_m_m_n_a.png,O,m,1670,7,1,2523.0,525493.1999999285,7104,NNB,B,5
4,prac,1,0.0,2-Back,1,m,Wed Apr 02 2025 11:27:34 GMT-0500 (Central Daylight Time),530798.1999999285,176_o_m_n_a.png,O,m,1920,8,1,2774.0,528024.1999999285,7104,NNB,B,6
5,prac,1,0.0,2-Back,1,m,Wed Apr 02 2025 11:27:34 GMT-0500 (Central Daylight Time),532764.8999999762,173_y_f_n_a.png,O,m,1103,9,1,1958.8000000715256,530806.0999999046,7104,NNB,B,7
6,prac,1,1.0,2-Back,1,z,Wed Apr 02 2025 11:27:34 GMT-0500 (Central Daylight Time),534415.2999999523,176_o_m_n_a.png,O,z,857,10,1,1640.7999999523163,532774.5,7104,NNB,B,8
6,prac,1,0.0,2-Back,0,m,Wed Apr 02 2025 11:27:34 GMT-0500 (Central Daylight Time),536546.3999999762,152_y_f_n_a.png,O,z,1264,11,1,2121.8000000715256,534424.5999999046,7104,NNB,B,9
6,prac,1,0.0,2-Back,0,m,Wed Apr 02 2025 11:27:34 GMT-0500 (Central Daylight Time),538461.5,178_m_m_n_a.png,O,z,1124,12,1,1905.2000000476837,536556.2999999523,7104,NNB,B,10
0,prac,2,0.0,2-Back,,,Wed Apr 02 2025 11:27:34 GMT-0500 (Central Daylight Time),538461.5,013_y_m_n_a.png,O,a,13293,1,1,1905.2000000476837,536556.2999999523,7104,NNB,B,0
0,prac,2,0.0,2-Back,,,Wed Apr 02 2025 11:27:34 GMT-0500 (Central Daylight Time),538461.5,029_m_f_n_a.png,O,a,13293,2,1,1905.2000000476837,536556.2999999523,7104,NNB,B,0
1,prac,2,1.0,2-Back,1,m,Wed Apr 02 2025 11:27:34 GMT-0500 (Central Daylight Time),558840.0999999046,065_o_m_n_a.png,O,m,971,3,1,1826.1999999284744,557013.8999999762,7104,NNB,B,1
1,prac,2,0.0,2-Back,0,m,Wed Apr 02 2025 11:27:34 GMT-0500 (Central Daylight Time),561388.5999999046,086_o_f_n_a.png,O,z,1655,4,1,2539.0,558849.5999999046,7104,NNB,B,2
2,prac,2,0.0,2-Back,1,z,Wed Apr 02 2025 11:27:34 GMT-0500 (Central Daylight Time),563555.6999999285,065_o_m_n_a.png,O,z,1390,5,1,2159.6999999284744,561396.0,7104,NNB,B,3
2,prac,2,1.0,2-Back,0,z,Wed Apr 02 2025 11:27:34 GMT-0500 (Central Daylight Time),565453.8999999762,086_o_f_n_a.png,O,m,1117,6,1,1889.8999999761581,563564.0,7104,NNB,B,4
2,prac,2,0.0,2-Back,0,m,Wed Apr 02 2025 11:27:34 GMT-0500 (Central Daylight Time),567753.0,178_m_m_n_a.png,O,z,1524,7,1,2291.600000023842,565461.3999999762,7104,NNB,B,5
2,prac,2,0.0,2-Back,0,m,Wed Apr 02 2025 11:27:34 GMT-0500 (Central Daylight Time),570186.6999999285,176_o_m_n_a.png,O,z,1573,8,1,2426.0,567760.6999999285,7104,NNB,B,6
3,prac,2,0.0,2-Back,1,m,Wed Apr 02 2025 11:27:34 GMT-0500 (Central Daylight Time),572734.0999999046,173_y_f_n_a.png,O,m,1695,9,1,2539.7999999523163,570194.2999999523,7104,NNB,B,7
4,prac,2,1.0,2-Back,1,z,Wed Apr 02 2025 11:27:34 GMT-0500 (Central Daylight Time),574485.3999999762,176_o_m_n_a.png,O,z,964,10,1,1744.3999999761581,572741.0,7104,NNB,B,8
5,prac,2,0.0,2-Back,1,m,Wed Apr 02 2025 11:27:34 GMT-0500 (Central Daylight Time),576752.1999999285,152_y_f_n_a.png,O,m,1412,11,1,2259.1999999284744,574493.0,7104,NNB,B,9
6,prac,2,0.0,2-Back,1,m,Wed Apr 02 2025 11:27:34 GMT-0500 (Central Daylight Time),578499.3999999762,178_m_m_n_a.png,O,m,960,12,1,1738.6000000238419,576760.7999999523,7104,NNB,B,10
0,test,1,0.0,2-Back,,,Wed Apr 02 2025 11:27:34 GMT-0500 (Central Daylight Time),578499.3999999762,153_y_m_n_a.png,O,space,9115,1,1,1738.6000000238419,576760.7999999523,7104,NNB,B,0
0,test,1,0.0,2-Back,,,Wed Apr 02 2025 11:27:34 GMT-0500 (Central Daylight Time),578499.3999999762,153_y_m_n_a.png,O,space,9115,2,1,1738.6000000238419,576760.7999999523,7104,NNB,B,0
0,test,1,0.0,2-Back,0,m,Wed Apr 02 2025 11:27:34 GMT-0500 (Central Daylight Time),603975.0999999046,086_o_f_n_a.png,O,z,1492,3,1,2510.2999999523163,601464.7999999523,7104,NNB,B,1
1,test,1,0.0,2-Back,1,m,Wed Apr 02 2025 11:27:34 GMT-0500 (Central Daylight Time),606524.2999999523,126_m_m_n_a.png,O,m,1530,4,1,2543.2999999523163,603981.0,7104,NNB,B,2
1,test,1,1.0,2-Back,0,z,Wed Apr 02 2025 11:27:34 GMT-0500 (Central Daylight Time),609390.7999999523,086_o_f_n_a.png,O,m,1833,5,1,2862.899999976158,606527.8999999762,7104,NNB,B,3
1,test,1,0.0,2-Back,0,m,Wed Apr 02 2025 11:27:34 GMT-0500 (Central Daylight Time),612423.0,152_y_f_n_a.png,O,None,2016,6,1,3026.4000000953674,609396.5999999046,7104,NNB,B,4
1,test,1,0.0,2-Back,0,m,Wed Apr 02 2025 11:27:34 GMT-0500 (Central Daylight Time),614488.2999999523,126_m_m_n_a.png,O,z,1047,7,1,2059.100000023842,612429.1999999285,7104,NNB,B,5
2,test,1,1.0,2-Back,1,z,Wed Apr 02 2025 11:27:34 GMT-0500 (Central Daylight Time),616821.3999999762,152_y_f_n_a.png,O,z,1303,8,1,2327.399999976158,614494.0,7104,NNB,B,6
3,test,1,0.0,2-Back,1,m,Wed Apr 02 2025 11:27:34 GMT-0500 (Central Daylight Time),618922.1999999285,013_y_m_n_a.png,O,m,1084,9,1,2093.7999999523163,616828.3999999762,7104,NNB,B,7
4,test,1,0.0,2-Back,1,m,Wed Apr 02 2025 11:27:34 GMT-0500 (Central Daylight Time),620986.6999999285,110_o_f_n_a.png,O,m,1048,10,1,2059.1999999284744,618927.5,7104,NNB,B,8
5,test,1,1.0,2-Back,1,z,Wed Apr 02 2025 11:27:34 GMT-0500 (Central Daylight Time),623885.5999999046,013_y_m_n_a.png,O,z,1868,11,1,2892.0,620993.5999999046,7104,NNB,B,9
6,test,1,0.0,2-Back,1,m,Wed Apr 02 2025 11:27:34 GMT-0500 (Central Daylight Time),626385.2999999523,029_m_f_n_a.png,O,m,1467,12,1,2493.899999976158,623891.3999999762,7104,NNB,B,10
7,test,1,0.0,2-Back,1,m,Wed Apr 02 2025 11:27:34 GMT-0500 (Central Daylight Time),629383.5999999046,029_m_f_n_a.png,O,m,1966,13,1,2991.6999999284744,626391.8999999762,7104,NNB,B,11
7,test,1,0.0,2-Back,0,m,Wed Apr 02 2025 11:27:34 GMT-0500 (Central Daylight Time),632416.1999999285,065_o_m_n_a.png,O,None,2015,14,1,3027.899999976158,629388.2999999523,7104,NNB,B,12
8,test,1,0.0,2-Back,1,m,Wed Apr 02 2025 11:27:34 GMT-0500 (Central Daylight Time),634632.3999999762,110_o_f_n_a.png,O,m,1183,15,1,2210.5,632421.8999999762,7104,NNB,B,13
9,test,1,1.0,2-Back,1,z,Wed Apr 02 2025 11:27:34 GMT-0500 (Central Daylight Time),636581.2999999523,065_o_m_n_a.png,O,z,927,16,1,1943.7000000476837,634637.5999999046,7104,NNB,B,14
10,test,1,0.0,2-Back,1,m,Wed Apr 02 2025 11:27:34 GMT-0500 (Central Daylight Time),638797.5999999046,097_m_f_n_a.png,O,m,1194,17,1,2209.5,636588.0999999046,7104,NNB,B,15
10,test,1,0.0,2-Back,0,m,Wed Apr 02 2025 11:27:34 GMT-0500 (Central Daylight Time),641230.0999999046,178_m_m_n_a.png,O,z,1404,18,1,2425.5,638804.5999999046,7104,NNB,B,16
0,test,2,0.0,2-Back,,,Wed Apr 02 2025 11:27:34 GMT-0500 (Central Daylight Time),641230.0999999046,178_m_m_n_a.png,O,space,3149,1,1,2425.5,638804.5999999046,7104,NNB,B,0
0,test,2,0.0,2-Back,,,Wed Apr 02 2025 11:27:34 GMT-0500 (Central Daylight Time),641230.0999999046,173_y_f_n_a.png,O,space,3149,2,1,2425.5,638804.5999999046,7104,NNB,B,0
1,test,2,1.0,2-Back,1,z,Wed Apr 02 2025 11:27:34 GMT-0500 (Central Daylight Time),651994.2999999523,178_m_m_n_a.png,O,z,1466,3,1,2477.600000023842,649516.6999999285,7104,NNB,B,1
2,test,2,0.0,2-Back,1,m,Wed Apr 02 2025 11:27:34 GMT-0500 (Central Daylight Time),654609.7999999523,097_m_f_n_a.png,O,m,1598,4,1,2609.100000023842,652000.6999999285,7104,NNB,B,2
2,test,2,0.0,2-Back,0,m,Wed Apr 02 2025 11:27:34 GMT-0500 (Central Daylight Time),657010.8999999762,173_y_f_n_a.png,O,z,1375,5,1,2395.2000000476837,654615.6999999285,7104,NNB,B,3
2,test,2,0.0,2-Back,0,m,Wed Apr 02 2025 11:27:34 GMT-0500 (Central Daylight Time),660041.5,065_o_m_n_a.png,O,None,2015,6,1,3026.600000023842,657014.8999999762,7104,NNB,B,4
3,test,2,0.0,2-Back,1,m,Wed Apr 02 2025 11:27:34 GMT-0500 (Central Daylight Time),662473.5999999046,152_y_f_n_a.png,O,m,1406,7,1,2425.7999999523163,660047.7999999523,7104,NNB,B,5
3,test,2,1.0,2-Back,0,z,Wed Apr 02 2025 11:27:34 GMT-0500 (Central Daylight Time),664990.3999999762,065_o_m_n_a.png,O,m,1487,8,1,2513.600000023842,662476.7999999523,7104,NNB,B,6
4,test,2,0.0,2-Back,1,m,Wed Apr 02 2025 11:27:34 GMT-0500 (Central Daylight Time),667104.5999999046,013_y_m_n_a.png,O,m,1088,9,1,2105.2999999523163,664999.2999999523,7104,NNB,B,7
4,test,2,0.0,2-Back,0,m,Wed Apr 02 2025 11:27:34 GMT-0500 (Central Daylight Time),669537.6999999285,013_y_m_n_a.png,O,z,1407,10,1,2426.1999999284744,667111.5,7104,NNB,B,8
5,test,2,0.0,2-Back,1,m,Wed Apr 02 2025 11:27:34 GMT-0500 (Central Daylight Time),671870.5999999046,029_m_f_n_a.png,O,m,1302,11,1,2325.5999999046326,669545.0,7104,NNB,B,9
5,test,2,0.0,2-Back,0,m,Wed Apr 02 2025 11:27:34 GMT-0500 (Central Daylight Time),674702.1999999285,173_y_f_n_a.png,O,z,1810,12,1,2823.0,671879.1999999285,7104,NNB,B,10
6,test,2,1.0,2-Back,1,z,Wed Apr 02 2025 11:27:34 GMT-0500 (Central Daylight Time),677218.2999999523,029_m_f_n_a.png,O,z,1487,13,1,2508.899999976158,674709.3999999762,7104,NNB,B,11
7,test,2,0.0,2-Back,1,m,Wed Apr 02 2025 11:27:34 GMT-0500 (Central Daylight Time),679284.7999999523,176_o_m_n_a.png,O,m,1038,14,1,2059.399999976158,677225.3999999762,7104,NNB,B,12
8,test,2,0.0,2-Back,1,m,Wed Apr 02 2025 11:27:34 GMT-0500 (Central Daylight Time),681666.5,176_o_m_n_a.png,O,m,1356,15,1,2374.5,679292.0,7104,NNB,B,13
9,test,2,0.0,2-Back,1,m,Wed Apr 02 2025 11:27:34 GMT-0500 (Central Daylight Time),683832.2999999523,110_o_f_n_a.png,O,m,1140,16,1,2158.5,681673.7999999523,7104,NNB,B,14
10,test,2,0.0,2-Back,1,m,Wed Apr 02 2025 11:27:34 GMT-0500 (Central Daylight Time),686266.0999999046,126_m_m_n_a.png,O,m,1406,17,1,2427.7999999523163,683838.2999999523,7104,NNB,B,15
11,test,2,1.0,2-Back,1,z,Wed Apr 02 2025 11:27:34 GMT-0500 (Central Daylight Time),688730.3999999762,110_o_f_n_a.png,O,z,1438,18,1,2457.2000000476837,686273.1999999285,7104,NNB,B,16
0,test,3,1.0,2-Back,,,Wed Apr 02 2025 11:27:34 GMT-0500 (Central Daylight Time),688730.3999999762,153_y_m_n_a.png,O,space,3709,1,1,2457.2000000476837,686273.1999999285,7104,NNB,B,0
0,test,3,1.0,2-Back,,,Wed Apr 02 2025 11:27:34 GMT-0500 (Central Daylight Time),688730.3999999762,153_y_m_n_a.png,O,space,3709,2,1,2457.2000000476837,686273.1999999285,7104,NNB,B,0
1,test,3,0.0,2-Back,1,m,Wed Apr 02 2025 11:27:34 GMT-0500 (Central Daylight Time),699793.3999999762,110_o_f_n_a.png,O,m,1189,3,1,2207.3000000715256,697586.0999999046,7104,NNB,B,1
2,test,3,0.0,2-Back,1,m,Wed Apr 02 2025 11:27:34 GMT-0500 (Central Daylight Time),701811.2999999523,178_m_m_n_a.png,O,m,1000,4,1,2011.6000000238419,699799.6999999285,7104,NNB,B,2
3,test,3,1.0,2-Back,1,z,Wed Apr 02 2025 11:27:34 GMT-0500 (Central Daylight Time),703828.0999999046,110_o_f_n_a.png,O,z,999,5,1,2011.0999999046326,701817.0,7104,NNB,B,3
4,test,3,0.0,2-Back,1,m,Wed Apr 02 2025 11:27:34 GMT-0500 (Central Daylight Time),706642.3999999762,013_y_m_n_a.png,O,m,1790,6,1,2807.100000023842,703835.2999999523,7104,NNB,B,4
4,test,3,0.0,2-Back,0,m,Wed Apr 02 2025 11:27:34 GMT-0500 (Central Daylight Time),708391.3999999762,178_m_m_n_a.png,O,z,725,7,1,1742.0,706649.3999999762,7104,NNB,B,5
4,test,3,1.0,2-Back,0,z,Wed Apr 02 2025 11:27:34 GMT-0500 (Central Daylight Time),710727.3999999762,013_y_m_n_a.png,O,m,1298,8,1,2328.899999976158,708398.5,7104,NNB,B,6
4,test,3,0.0,2-Back,0,m,Wed Apr 02 2025 11:27:34 GMT-0500 (Central Daylight Time),713309.0999999046,173_y_f_n_a.png,O,z,1564,9,1,2576.0999999046326,710733.0,7104,NNB,B,7
5,test,3,0.0,2-Back,1,m,Wed Apr 02 2025 11:27:34 GMT-0500 (Central Daylight Time),715707.5,126_m_m_n_a.png,O,m,1383,10,1,2395.4000000953674,713312.0999999046,7104,NNB,B,8
6,test,3,1.0,2-Back,1,z,Wed Apr 02 2025 11:27:34 GMT-0500 (Central Daylight Time),718123.0999999046,173_y_f_n_a.png,O,z,1399,11,1,2409.7999999523163,715713.2999999523,7104,NNB,B,9
7,test,3,1.0,2-Back,1,z,Wed Apr 02 2025 11:27:34 GMT-0500 (Central Daylight Time),720203.7999999523,126_m_m_n_a.png,O,z,1062,12,1,2074.2999999523163,718129.5,7104,NNB,B,10
8,test,3,0.0,2-Back,1,m,Wed Apr 02 2025 11:27:34 GMT-0500 (Central Daylight Time),722404.5,110_o_f_n_a.png,O,m,1181,13,1,2193.9000000953674,720210.5999999046,7104,NNB,B,11
9,test,3,0.0,2-Back,1,m,Wed Apr 02 2025 11:27:34 GMT-0500 (Central Daylight Time),724420.1999999285,097_m_f_n_a.png,O,m,988,14,1,2009.6000000238419,722410.5999999046,7104,NNB,B,12
10,test,3,0.0,2-Back,1,m,Wed Apr 02 2025 11:27:34 GMT-0500 (Central Daylight Time),726502.2999999523,065_o_m_n_a.png,O,m,1051,15,1,2076.5,724425.7999999523,7104,NNB,B,13
11,test,3,1.0,2-Back,1,z,Wed Apr 02 2025 11:27:34 GMT-0500 (Central Daylight Time),728753.2999999523,097_m_f_n_a.png,O,z,1233,16,1,2244.7000000476837,726508.5999999046,7104,NNB,B,14
12,test,3,0.0,2-Back,1,m,Wed Apr 02 2025 11:27:34 GMT-0500 (Central Daylight Time),731050.3999999762,086_o_f_n_a.png,O,m,1272,17,1,2290.5,728759.8999999762,7104,NNB,B,15
13,test,3,0.0,2-Back,1,m,Wed Apr 02 2025 11:27:34 GMT-0500 (Central Daylight Time),733566.1999999285,086_o_f_n_a.png,O,m,1485,18,1,2508.899999976158,731057.2999999523,7104,NNB,B,16
0,test,4,0.0,2-Back,,,Wed Apr 02 2025 11:27:34 GMT-0500 (Central Daylight Time),733566.1999999285,176_o_m_n_a.png,O,space,12547,1,1,2508.899999976158,731057.2999999523,7104,NNB,B,0
0,test,4,0.0,2-Back,,,Wed Apr 02 2025 11:27:34 GMT-0500 (Central Daylight Time),733566.1999999285,152_y_f_n_a.png,O,space,12547,2,1,2508.899999976158,731057.2999999523,7104,NNB,B,0
1,test,4,1.0,2-Back,1,z,Wed Apr 02 2025 11:27:34 GMT-0500 (Central Daylight Time),753860.8999999762,176_o_m_n_a.png,O,z,1504,3,1,2523.3000000715256,751337.5999999046,7104,NNB,B,1
1,test,4,1.0,2-Back,0,z,Wed Apr 02 2025 11:27:34 GMT-0500 (Central Daylight Time),756592.8999999762,152_y_f_n_a.png,O,m,1707,4,1,2725.7000000476837,753867.1999999285,7104,NNB,B,2
2,test,4,0.0,2-Back,1,m,Wed Apr 02 2025 11:27:34 GMT-0500 (Central Daylight Time),759092.6999999285,110_o_f_n_a.png,O,m,1465,5,1,2492.600000023842,756600.0999999046,7104,NNB,B,3
3,test,4,0.0,2-Back,1,m,Wed Apr 02 2025 11:27:34 GMT-0500 (Central Daylight Time),761625.3999999762,110_o_f_n_a.png,O,m,1499,6,1,2525.7000000476837,759099.6999999285,7104,NNB,B,4
4,test,4,0.0,2-Back,1,m,Wed Apr 02 2025 11:27:34 GMT-0500 (Central Daylight Time),763792.1999999285,029_m_f_n_a.png,O,m,1134,7,1,2159.5,761632.6999999285,7104,NNB,B,5
5,test,4,0.0,2-Back,1,m,Wed Apr 02 2025 11:27:34 GMT-0500 (Central Daylight Time),766490.5999999046,013_y_m_n_a.png,O,m,1672,8,1,2690.5999999046326,763800.0,7104,NNB,B,6
5,test,4,1.0,2-Back,0,z,Wed Apr 02 2025 11:27:34 GMT-0500 (Central Daylight Time),769455.3999999762,029_m_f_n_a.png,O,m,1943,9,1,2957.399999976158,766498.0,7104,NNB,B,7
6,test,4,0.0,2-Back,1,m,Wed Apr 02 2025 11:27:34 GMT-0500 (Central Daylight Time),771472.0999999046,126_m_m_n_a.png,O,m,990,10,1,2009.3999999761581,769462.6999999285,7104,NNB,B,8
7,test,4,0.0,2-Back,1,m,Wed Apr 02 2025 11:27:34 GMT-0500 (Central Daylight Time),773471.0999999046,013_y_m_n_a.png,O,m,967,11,1,1992.3999999761581,771478.6999999285,7104,NNB,B,9
8,test,4,0.0,2-Back,1,m,Wed Apr 02 2025 11:27:34 GMT-0500 (Central Daylight Time),776268.5,086_o_f_n_a.png,O,m,1767,12,1,2790.5,773478.0,7104,NNB,B,10
9,test,4,0.0,2-Back,1,m,Wed Apr 02 2025 11:27:34 GMT-0500 (Central Daylight Time),778203.5999999046,153_y_m_n_a.png,O,m,906,13,1,1928.3999999761581,776275.1999999285,7104,NNB,B,11
10,test,4,1.0,2-Back,1,z,Wed Apr 02 2025 11:27:34 GMT-0500 (Central Daylight Time),780686.0999999046,086_o_f_n_a.png,O,z,1462,14,1,2475.1999999284744,778210.8999999762,7104,NNB,B,12
10,test,4,1.0,2-Back,0,z,Wed Apr 02 2025 11:27:34 GMT-0500 (Central Daylight Time),782685.0,153_y_m_n_a.png,O,m,969,15,1,1992.0,780693.0,7104,NNB,B,13
11,test,4,0.0,2-Back,1,m,Wed Apr 02 2025 11:27:34 GMT-0500 (Central Daylight Time),785218.7999999523,178_m_m_n_a.png,O,m,1513,16,1,2525.100000023842,782693.6999999285,7104,NNB,B,14
12,test,4,0.0,2-Back,1,m,Wed Apr 02 2025 11:27:34 GMT-0500 (Central Daylight Time),787132.7999999523,097_m_f_n_a.png,O,m,894,17,1,1907.3999999761581,785225.3999999762,7104,NNB,B,15
13,test,4,1.0,2-Back,1,z,Wed Apr 02 2025 11:27:34 GMT-0500 (Central Daylight Time),789115.5,178_m_m_n_a.png,O,z,963,18,1,1974.3000000715256,787141.1999999285,7104,NNB,B,16
0,test,5,1.0,2-Back,,,Wed Apr 02 2025 11:27:34 GMT-0500 (Central Daylight Time),789115.5,153_y_m_n_a.png,O,space,4005,1,1,1974.3000000715256,787141.1999999285,7104,NNB,B,0
0,test,5,1.0,2-Back,,,Wed Apr 02 2025 11:27:34 GMT-0500 (Central Daylight Time),789115.5,097_m_f_n_a.png,O,space,4005,2,1,1974.3000000715256,787141.1999999285,7104,NNB,B,0
1,test,5,1.0,2-Back,1,z,Wed Apr 02 2025 11:27:34 GMT-0500 (Central Daylight Time),800146.7999999523,153_y_m_n_a.png,O,z,939,3,1,1960.3999999761581,798186.3999999762,7104,NNB,B,1
2,test,5,1.0,2-Back,1,z,Wed Apr 02 2025 11:27:34 GMT-0500 (Central Daylight Time),802394.2999999523,097_m_f_n_a.png,O,z,1222,4,1,2239.600000023842,800154.6999999285,7104,NNB,B,2
3,test,5,0.0,2-Back,1,m,Wed Apr 02 2025 11:27:34 GMT-0500 (Central Daylight Time),804760.6999999285,086_o_f_n_a.png,O,m,1340,5,1,2359.7999999523163,802400.8999999762,7104,NNB,B,3
4,test,5,0.0,2-Back,1,m,Wed Apr 02 2025 11:27:34 GMT-0500 (Central Daylight Time),807312.3999999762,153_y_m_n_a.png,O,m,1517,6,1,2544.8000000715256,804767.5999999046,7104,NNB,B,4
5,test,5,0.0,2-Back,1,m,Wed Apr 02 2025 11:27:34 GMT-0500 (Central Daylight Time),809576.5999999046,173_y_f_n_a.png,O,m,1240,7,1,2261.899999976158,807314.6999999285,7104,NNB,B,5
5,test,5,0.0,2-Back,0,m,Wed Apr 02 2025 11:27:34 GMT-0500 (Central Daylight Time),811742.3999999762,086_o_f_n_a.png,O,z,1143,8,1,2158.899999976158,809583.5,7104,NNB,B,6
6,test,5,1.0,2-Back,1,z,Wed Apr 02 2025 11:27:34 GMT-0500 (Central Daylight Time),814258.1999999285,173_y_f_n_a.png,O,z,1490,9,1,2508.6999999284744,811749.5,7104,NNB,B,7
7,test,5,0.0,2-Back,1,m,Wed Apr 02 2025 11:27:34 GMT-0500 (Central Daylight Time),816774.0999999046,065_o_m_n_a.png,O,m,1484,10,1,2508.5,814265.5999999046,7104,NNB,B,8
8,test,5,0.0,2-Back,1,m,Wed Apr 02 2025 11:27:34 GMT-0500 (Central Daylight Time),819222.5,029_m_f_n_a.png,O,m,1424,11,1,2440.600000023842,816781.8999999762,7104,NNB,B,9
9,test,5,0.0,2-Back,1,m,Wed Apr 02 2025 11:27:34 GMT-0500 (Central Daylight Time),822123.0999999046,126_m_m_n_a.png,O,m,1883,12,1,2894.0999999046326,819229.0,7104,NNB,B,10
9,test,5,0.0,2-Back,0,m,Wed Apr 02 2025 11:27:34 GMT-0500 (Central Daylight Time),824471.0999999046,065_o_m_n_a.png,O,z,1325,13,1,2340.399999976158,822130.6999999285,7104,NNB,B,11
10,test,5,1.0,2-Back,1,z,Wed Apr 02 2025 11:27:34 GMT-0500 (Central Daylight Time),827451.5,126_m_m_n_a.png,O,z,1958,14,1,2973.7000000476837,824477.7999999523,7104,NNB,B,12
11,test,5,0.0,2-Back,1,m,Wed Apr 02 2025 11:27:34 GMT-0500 (Central Daylight Time),829537.5999999046,152_y_f_n_a.png,O,m,1058,15,1,2083.6999999284744,827453.8999999762,7104,NNB,B,13
12,test,5,0.0,2-Back,1,m,Wed Apr 02 2025 11:27:34 GMT-0500 (Central Daylight Time),831618.8999999762,176_o_m_n_a.png,O,m,1062,16,1,2073.7000000476837,829545.1999999285,7104,NNB,B,14
13,test,5,0.0,2-Back,1,m,Wed Apr 02 2025 11:27:34 GMT-0500 (Central Daylight Time),833851.5999999046,029_m_f_n_a.png,O,m,1205,17,1,2224.0,831627.5999999046,7104,NNB,B,15
14,test,5,1.0,2-Back,1,z,Wed Apr 02 2025 11:27:34 GMT-0500 (Central Daylight Time),836219.0,176_o_m_n_a.png,O,z,1350,18,1,2360.0,833859.0,7104,NNB,B,16
