block_c,block_dur,condition,countdown,datetime,endtime,list,multichar_response,project,response,response_time,session_number,start_end,starttime,subject_id,task,task_vers,trial
,,,,Thu Apr 17 2025 17:33:32 GMT-0500 (Central Daylight Time),,,,O,space,632,1,,,7130,WL,B,
prac,,0,,Thu Apr 17 2025 17:33:32 GMT-0500 (Central Daylight Time),,NA,b,O,b,7780,1,,,7130,WL,B,1.0
prac,,0,,Thu Apr 17 2025 17:33:32 GMT-0500 (Central Daylight Time),,NA,bo,O,o,511,1,,,7130,WL,B,1.0
prac,,0,,Thu Apr 17 2025 17:33:32 GMT-0500 (Central Daylight Time),,NA,boo,O,o,156,1,,,7130,WL,B,1.0
prac,,0,,Thu Apr 17 2025 17:33:32 GMT-0500 (Central Daylight Time),,NA,boos,O,s,96,1,,,7130,WL,B,1.0
prac,,0,,Thu Apr 17 2025 17:33:32 GMT-0500 (Central Daylight Time),,NA,boost,O,t,286,1,,,7130,WL,B,1.0
prac,,0,,Thu Apr 17 2025 17:33:32 GMT-0500 (Central Daylight Time),,NA,boostenter,O,enter,2178,1,,,7130,WL,B,1.0
1,1.066999912261963,learn,58933.00008773804,Thu Apr 17 2025 17:33:32 GMT-0500 (Central Daylight Time),132685.5,A,s,O,s,1033,1,1066.300000011921,131619.19999998808,7130,WL,B,1.0
1,1.684000015258789,learn,58315.99998474121,Thu Apr 17 2025 17:33:32 GMT-0500 (Central Daylight Time),133301.69999998808,A,st,O,t,587,1,1682.5,131619.19999998808,7130,WL,B,1.0
1,1.932999849319458,learn,58067.00015068054,Thu Apr 17 2025 17:33:32 GMT-0500 (Central Daylight Time),133550.90000003576,A,str,O,r,213,1,1931.7000000476837,131619.19999998808,7130,WL,B,1.0
1,2.0829999446868896,learn,57917.00005531311,Thu Apr 17 2025 17:33:32 GMT-0500 (Central Daylight Time),133700.80000001192,A,stre,O,e,111,1,2081.600000023842,131619.19999998808,7130,WL,B,1.0
1,2.3320000171661377,learn,57667.99998283386,Thu Apr 17 2025 17:33:32 GMT-0500 (Central Daylight Time),133949.60000002384,A,stree,O,e,207,1,2330.400000035763,131619.19999998808,7130,WL,B,1.0
1,2.5989999771118164,learn,57401.00002288818,Thu Apr 17 2025 17:33:32 GMT-0500 (Central Daylight Time),134217.30000001192,A,street,O,t,246,1,2598.100000023842,131619.19999998808,7130,WL,B,1.0
1,4.2809998989105225,learn,55719.00010108948,Thu Apr 17 2025 17:33:32 GMT-0500 (Central Daylight Time),135899.0,A,streetenter,O,enter,1640,1,4279.800000011921,131619.19999998808,7130,WL,B,1.0
1,5.431999921798706,learn,54568.000078201294,Thu Apr 17 2025 17:33:32 GMT-0500 (Central Daylight Time),137049.60000002384,A,d,O,d,1128,1,1150.1000000238419,135899.5,7130,WL,B,2.0
1,5.580999851226807,learn,54419.00014877319,Thu Apr 17 2025 17:33:32 GMT-0500 (Central Daylight Time),137199.40000003576,A,do,O,o,117,1,1299.9000000357628,135899.5,7130,WL,B,2.0
1,5.747999906539917,learn,54252.00009346008,Thu Apr 17 2025 17:33:32 GMT-0500 (Central Daylight Time),137365.60000002384,A,doo,O,o,126,1,1466.1000000238419,135899.5,7130,WL,B,2.0
1,5.898000001907349,learn,54101.99999809265,Thu Apr 17 2025 17:33:32 GMT-0500 (Central Daylight Time),137516.0,A,door,O,r,116,1,1616.5,135899.5,7130,WL,B,2.0
1,6.579999923706055,learn,53420.000076293945,Thu Apr 17 2025 17:33:32 GMT-0500 (Central Daylight Time),138198.19999998808,A,doorenter,O,enter,652,1,2298.699999988079,135899.5,7130,WL,B,2.0
1,6.947999954223633,learn,53052.00004577637,Thu Apr 17 2025 17:33:32 GMT-0500 (Central Daylight Time),138565.90000003576,A,a,O,a,350,1,367.30000001192093,138198.60000002384,7130,WL,B,3.0
1,7.363999843597412,learn,52636.00015640259,Thu Apr 17 2025 17:33:32 GMT-0500 (Central Daylight Time),138982.19999998808,A,ar,O,r,379,1,783.5999999642372,138198.60000002384,7130,WL,B,3.0
1,7.547999858856201,learn,52452.0001411438,Thu Apr 17 2025 17:33:32 GMT-0500 (Central Daylight Time),139165.40000003576,A,arn,O,n,146,1,966.8000000119209,138198.60000002384,7130,WL,B,3.0
1,8.914000034332275,learn,51085.999965667725,Thu Apr 17 2025 17:33:32 GMT-0500 (Central Daylight Time),140531.80000001192,A,ar,O,backspace,1325,1,2333.199999988079,138198.60000002384,7130,WL,B,3.0
1,9.330999851226807,learn,50669.00014877319,Thu Apr 17 2025 17:33:32 GMT-0500 (Central Daylight Time),140948.90000003576,A,arm,O,m,388,1,2750.300000011921,138198.60000002384,7130,WL,B,3.0
1,10.146999835968018,learn,49853.00016403198,Thu Apr 17 2025 17:33:32 GMT-0500 (Central Daylight Time),141764.60000002384,A,armenter,O,enter,786,1,3566.0,138198.60000002384,7130,WL,B,3.0
1,14.095999956130981,learn,45904.00004386902,Thu Apr 17 2025 17:33:32 GMT-0500 (Central Daylight Time),145713.5,A,l,O,l,3936,1,3948.599999964237,141764.90000003576,7130,WL,B,4.0
1,14.227999925613403,learn,45772.0000743866,Thu Apr 17 2025 17:33:32 GMT-0500 (Central Daylight Time),145846.10000002384,A,la,O,a,94,1,4081.199999988079,141764.90000003576,7130,WL,B,4.0
1,14.994999885559082,learn,45005.00011444092,Thu Apr 17 2025 17:33:32 GMT-0500 (Central Daylight Time),146613.10000002384,A,lak,O,k,753,1,4848.199999988079,141764.90000003576,7130,WL,B,4.0
1,15.161999940872192,learn,44838.00005912781,Thu Apr 17 2025 17:33:32 GMT-0500 (Central Daylight Time),146779.90000003576,A,lake,O,e,130,1,5015.0,141764.90000003576,7130,WL,B,4.0
1,16.176999807357788,learn,43823.00019264221,Thu Apr 17 2025 17:33:32 GMT-0500 (Central Daylight Time),147795.10000002384,A,lakeenter,O,enter,986,1,6030.199999988079,141764.90000003576,7130,WL,B,4.0
1,17.027999877929688,learn,42972.00012207031,Thu Apr 17 2025 17:33:32 GMT-0500 (Central Daylight Time),148645.40000003576,A,c,O,c,841,1,849.9000000357628,147795.5,7130,WL,B,5.0
1,17.17799997329712,learn,42822.00002670288,Thu Apr 17 2025 17:33:32 GMT-0500 (Central Daylight Time),148795.69999998808,A,ca,O,a,109,1,1000.1999999880791,147795.5,7130,WL,B,5.0
1,17.442999839782715,learn,42557.000160217285,Thu Apr 17 2025 17:33:32 GMT-0500 (Central Daylight Time),149061.19999998808,A,cab,O,b,235,1,1265.699999988079,147795.5,7130,WL,B,5.0
1,17.5939998626709,learn,42406.0001373291,Thu Apr 17 2025 17:33:32 GMT-0500 (Central Daylight Time),149212.30000001192,A,cabi,O,i,133,1,1416.800000011921,147795.5,7130,WL,B,5.0
1,17.810999870300293,learn,42189.00012969971,Thu Apr 17 2025 17:33:32 GMT-0500 (Central Daylight Time),149428.69999998808,A,cabin,O,n,180,1,1633.199999988079,147795.5,7130,WL,B,5.0
1,18.592999935150146,learn,41407.00006484985,Thu Apr 17 2025 17:33:32 GMT-0500 (Central Daylight Time),150211.0,A,cabinenter,O,enter,742,1,2415.5,147795.5,7130,WL,B,5.0
1,19.393999814987183,learn,40606.00018501282,Thu Apr 17 2025 17:33:32 GMT-0500 (Central Daylight Time),151011.80000001192,A,s,O,s,786,1,800.5,150211.30000001192,7130,WL,B,6.0
1,19.57699990272522,learn,40423.00009727478,Thu Apr 17 2025 17:33:32 GMT-0500 (Central Daylight Time),151195.40000003576,A,si,O,i,139,1,984.1000000238419,150211.30000001192,7130,WL,B,6.0
1,19.859999895095825,learn,40140.000104904175,Thu Apr 17 2025 17:33:32 GMT-0500 (Central Daylight Time),151478.0,A,sif,O,f,255,1,1266.699999988079,150211.30000001192,7130,WL,B,6.0
1,19.97599983215332,learn,40024.00016784668,Thu Apr 17 2025 17:33:32 GMT-0500 (Central Daylight Time),151594.19999998808,A,sife,O,e,72,1,1382.8999999761581,150211.30000001192,7130,WL,B,6.0
1,20.460000038146973,learn,39539.99996185303,Thu Apr 17 2025 17:33:32 GMT-0500 (Central Daylight Time),152077.80000001192,A,sif,O,backspace,469,1,1866.5,150211.30000001192,7130,WL,B,6.0
1,20.609999895095825,learn,39390.000104904175,Thu Apr 17 2025 17:33:32 GMT-0500 (Central Daylight Time),152228.0,A,si,O,backspace,107,1,2016.699999988079,150211.30000001192,7130,WL,B,6.0
1,20.776999950408936,learn,39223.000049591064,Thu Apr 17 2025 17:33:32 GMT-0500 (Central Daylight Time),152394.60000002384,A,s,O,backspace,124,1,2183.300000011921,150211.30000001192,7130,WL,B,6.0
1,20.90999984741211,learn,39090.00015258789,Thu Apr 17 2025 17:33:32 GMT-0500 (Central Daylight Time),152528.0,A,,O,backspace,101,1,2316.699999988079,150211.30000001192,7130,WL,B,6.0
1,21.075999975204468,learn,38924.00002479553,Thu Apr 17 2025 17:33:32 GMT-0500 (Central Daylight Time),152693.80000001192,A,,O,backspace,138,1,2482.5,150211.30000001192,7130,WL,B,6.0
1,21.89299988746643,learn,38107.00011253357,Thu Apr 17 2025 17:33:32 GMT-0500 (Central Daylight Time),153510.90000003576,A,w,O,w,783,1,3299.600000023842,150211.30000001192,7130,WL,B,6.0
1,22.092999935150146,learn,37907.00006484985,Thu Apr 17 2025 17:33:32 GMT-0500 (Central Daylight Time),153710.80000001192,A,wi,O,i,174,1,3499.5,150211.30000001192,7130,WL,B,6.0
1,22.608999967575073,learn,37391.00003242493,Thu Apr 17 2025 17:33:32 GMT-0500 (Central Daylight Time),154227.19999998808,A,wif,O,f,475,1,4015.899999976158,150211.30000001192,7130,WL,B,6.0
1,22.842999935150146,learn,37157.00006484985,Thu Apr 17 2025 17:33:32 GMT-0500 (Central Daylight Time),154460.5,A,wife,O,e,199,1,4249.199999988079,150211.30000001192,7130,WL,B,6.0
1,24.174999952316284,learn,35825.000047683716,Thu Apr 17 2025 17:33:32 GMT-0500 (Central Daylight Time),155792.5,A,wifeenter,O,enter,1292,1,5581.199999988079,150211.30000001192,7130,WL,B,6.0
1,60.013999938964844,learn,-13.99993896484375,Thu Apr 17 2025 17:33:32 GMT-0500 (Central Daylight Time),191632.0,A,None,O,None,35832,1,35839.19999998808,155792.80000001192,7130,WL,B,7.0
2,0.7820000648498535,learn,59217.99993515015,Thu Apr 17 2025 17:33:32 GMT-0500 (Central Daylight Time),262457.5,A,s,O,s,750,1,781.1999999880791,261676.30000001192,7130,WL,B,1.0
2,0.9650001525878906,learn,59034.99984741211,Thu Apr 17 2025 17:33:32 GMT-0500 (Central Daylight Time),262640.8000000119,A,st,O,t,161,1,964.5,261676.30000001192,7130,WL,B,1.0
2,1.2339999675750732,learn,58766.00003242493,Thu Apr 17 2025 17:33:32 GMT-0500 (Central Daylight Time),262909.0,A,str,O,r,244,1,1232.699999988079,261676.30000001192,7130,WL,B,1.0
2,1.3650000095367432,learn,58634.99999046326,Thu Apr 17 2025 17:33:32 GMT-0500 (Central Daylight Time),263040.5,A,stre,O,e,83,1,1364.199999988079,261676.30000001192,7130,WL,B,1.0
2,1.5989999771118164,learn,58401.00002288818,Thu Apr 17 2025 17:33:32 GMT-0500 (Central Daylight Time),263274.40000003576,A,stree,O,e,213,1,1598.1000000238419,261676.30000001192,7130,WL,B,1.0
2,1.7660000324249268,learn,58233.99996757507,Thu Apr 17 2025 17:33:32 GMT-0500 (Central Daylight Time),263441.0,A,street,O,t,134,1,1764.699999988079,261676.30000001192,7130,WL,B,1.0
2,2.5480000972747803,learn,57451.99990272522,Thu Apr 17 2025 17:33:32 GMT-0500 (Central Daylight Time),264223.5,A,streetenter,O,enter,761,1,2547.199999988079,261676.30000001192,7130,WL,B,1.0
2,3.4820001125335693,learn,56517.99988746643,Thu Apr 17 2025 17:33:32 GMT-0500 (Central Daylight Time),265157.6999999881,A,g,O,g,918,1,933.7999999523163,264223.90000003576,7130,WL,B,2.0
2,3.7320001125335693,learn,56267.99988746643,Thu Apr 17 2025 17:33:32 GMT-0500 (Central Daylight Time),265407.60000002384,A,gr,O,r,208,1,1183.699999988079,264223.90000003576,7130,WL,B,2.0
2,3.999000072479248,learn,56000.99992752075,Thu Apr 17 2025 17:33:32 GMT-0500 (Central Daylight Time),265674.10000002384,A,gra,O,a,226,1,1450.199999988079,264223.90000003576,7130,WL,B,2.0
2,4.232000112533569,learn,55767.99988746643,Thu Apr 17 2025 17:33:32 GMT-0500 (Central Daylight Time),265907.1999999881,A,gras,O,s,199,1,1683.2999999523163,264223.90000003576,7130,WL,B,2.0
2,4.414999961853027,learn,55585.00003814697,Thu Apr 17 2025 17:33:32 GMT-0500 (Central Daylight Time),266090.5,A,grass,O,s,150,1,1866.5999999642372,264223.90000003576,7130,WL,B,2.0
2,5.0970001220703125,learn,54902.99987792969,Thu Apr 17 2025 17:33:32 GMT-0500 (Central Daylight Time),266772.60000002384,A,grassenter,O,enter,646,1,2548.699999988079,264223.90000003576,7130,WL,B,2.0
2,5.582000017166138,learn,54417.99998283386,Thu Apr 17 2025 17:33:32 GMT-0500 (Central Daylight Time),267256.90000003576,A,d,O,d,465,1,483.9000000357628,266773.0,7130,WL,B,3.0
2,5.765000104904175,learn,54234.999895095825,Thu Apr 17 2025 17:33:32 GMT-0500 (Central Daylight Time),267440.1999999881,A,do,O,o,153,1,667.1999999880791,266773.0,7130,WL,B,3.0
2,5.930999994277954,learn,54069.000005722046,Thu Apr 17 2025 17:33:32 GMT-0500 (Central Daylight Time),267606.8000000119,A,doo,O,o,138,1,833.8000000119209,266773.0,7130,WL,B,3.0
2,6.13100004196167,learn,53868.99995803833,Thu Apr 17 2025 17:33:32 GMT-0500 (Central Daylight Time),267805.8000000119,A,door,O,r,163,1,1032.800000011921,266773.0,7130,WL,B,3.0
2,6.897000074386597,learn,53102.9999256134,Thu Apr 17 2025 17:33:32 GMT-0500 (Central Daylight Time),268572.10000002384,A,doorenter,O,enter,744,1,1799.1000000238419,266773.0,7130,WL,B,3.0
2,7.231000185012817,learn,52768.99981498718,Thu Apr 17 2025 17:33:32 GMT-0500 (Central Daylight Time),268906.3000000119,A,a,O,a,322,1,333.89999997615814,268572.40000003576,7130,WL,B,4.0
2,7.46399998664856,learn,52536.00001335144,Thu Apr 17 2025 17:33:32 GMT-0500 (Central Daylight Time),269139.5,A,ar,O,r,190,1,567.0999999642372,268572.40000003576,7130,WL,B,4.0
2,7.664000034332275,learn,52335.999965667725,Thu Apr 17 2025 17:33:32 GMT-0500 (Central Daylight Time),269339.40000003576,A,arn,O,n,157,1,767.0,268572.40000003576,7130,WL,B,4.0
2,8.347000122070312,learn,51652.99987792969,Thu Apr 17 2025 17:33:32 GMT-0500 (Central Daylight Time),270022.40000003576,A,ar,O,backspace,657,1,1450.0,268572.40000003576,7130,WL,B,4.0
2,9.514000177383423,learn,50485.99982261658,Thu Apr 17 2025 17:33:32 GMT-0500 (Central Daylight Time),271189.1999999881,A,arm,O,m,1122,1,2616.7999999523163,268572.40000003576,7130,WL,B,4.0
2,10.129000186920166,learn,49870.999813079834,Thu Apr 17 2025 17:33:32 GMT-0500 (Central Daylight Time),271804.1999999881,A,armenter,O,enter,586,1,3231.7999999523163,268572.40000003576,7130,WL,B,4.0
2,10.980000019073486,learn,49019.999980926514,Thu Apr 17 2025 17:33:32 GMT-0500 (Central Daylight Time),272655.10000002384,A,w,O,w,842,1,850.6000000238419,271804.5,7130,WL,B,5.0
2,11.180000066757202,learn,48819.9999332428,Thu Apr 17 2025 17:33:32 GMT-0500 (Central Daylight Time),272854.90000003576,A,wi,O,i,171,1,1050.4000000357628,271804.5,7130,WL,B,5.0
2,11.479000091552734,learn,48520.999908447266,Thu Apr 17 2025 17:33:32 GMT-0500 (Central Daylight Time),273154.60000002384,A,win,O,n,265,1,1350.1000000238419,271804.5,7130,WL,B,5.0
2,11.663000106811523,learn,48336.99989318848,Thu Apr 17 2025 17:33:32 GMT-0500 (Central Daylight Time),273338.10000002384,A,wind,O,d,151,1,1533.6000000238419,271804.5,7130,WL,B,5.0
2,11.796000003814697,learn,48203.9999961853,Thu Apr 17 2025 17:33:32 GMT-0500 (Central Daylight Time),273471.3000000119,A,windo,O,o,103,1,1666.800000011921,271804.5,7130,WL,B,5.0
2,12.330000162124634,learn,47669.999837875366,Thu Apr 17 2025 17:33:32 GMT-0500 (Central Daylight Time),274004.8000000119,A,window,O,w,489,1,2200.300000011921,271804.5,7130,WL,B,5.0
2,12.695000171661377,learn,47304.99982833862,Thu Apr 17 2025 17:33:32 GMT-0500 (Central Daylight Time),274370.1999999881,A,windowenter,O,enter,332,1,2565.699999988079,271804.5,7130,WL,B,5.0
2,13.361999988555908,learn,46638.00001144409,Thu Apr 17 2025 17:33:32 GMT-0500 (Central Daylight Time),275037.3000000119,A,p,O,p,660,1,666.8000000119209,274370.5,7130,WL,B,6.0
2,13.611999988555908,learn,46388.00001144409,Thu Apr 17 2025 17:33:32 GMT-0500 (Central Daylight Time),275287.60000002384,A,pu,O,u,222,1,917.1000000238419,274370.5,7130,WL,B,6.0
2,13.812000036239624,learn,46187.999963760376,Thu Apr 17 2025 17:33:32 GMT-0500 (Central Daylight Time),275487.40000003576,A,pup,O,p,170,1,1116.9000000357628,274370.5,7130,WL,B,6.0
2,14.01200008392334,learn,45987.99991607666,Thu Apr 17 2025 17:33:32 GMT-0500 (Central Daylight Time),275687.6999999881,A,pupi,O,i,171,1,1317.199999988079,274370.5,7130,WL,B,6.0
2,14.26200008392334,learn,45737.99991607666,Thu Apr 17 2025 17:33:32 GMT-0500 (Central Daylight Time),275937.10000002384,A,pupil,O,l,216,1,1566.6000000238419,274370.5,7130,WL,B,6.0
2,14.778000116348267,learn,45221.99988365173,Thu Apr 17 2025 17:33:32 GMT-0500 (Central Daylight Time),276452.8000000119,A,pupilenter,O,enter,489,1,2082.300000011921,274370.5,7130,WL,B,6.0
2,15.710999965667725,learn,44289.000034332275,Thu Apr 17 2025 17:33:32 GMT-0500 (Central Daylight Time),277386.10000002384,A,w,O,w,920,1,933.0,276453.10000002384,7130,WL,B,7.0
2,15.878000020980835,learn,44121.999979019165,Thu Apr 17 2025 17:33:32 GMT-0500 (Central Daylight Time),277553.5,A,wi,O,i,142,1,1100.3999999761581,276453.10000002384,7130,WL,B,7.0
2,16.061000108718872,learn,43938.99989128113,Thu Apr 17 2025 17:33:32 GMT-0500 (Central Daylight Time),277736.60000002384,A,wif,O,f,152,1,1283.5,276453.10000002384,7130,WL,B,7.0
2,16.14400005340576,learn,43855.99994659424,Thu Apr 17 2025 17:33:32 GMT-0500 (Central Daylight Time),277819.3000000119,A,wife,O,e,49,1,1366.199999988079,276453.10000002384,7130,WL,B,7.0
2,16.544000148773193,learn,43455.99985122681,Thu Apr 17 2025 17:33:32 GMT-0500 (Central Daylight Time),278219.10000002384,A,wifeenter,O,enter,386,1,1766.0,276453.10000002384,7130,WL,B,7.0
2,17.594000101089478,learn,42405.99989891052,Thu Apr 17 2025 17:33:32 GMT-0500 (Central Daylight Time),279269.60000002384,A,s,O,s,1042,1,1050.300000011921,278219.3000000119,7130,WL,B,8.0
2,17.74399995803833,learn,42256.00004196167,Thu Apr 17 2025 17:33:32 GMT-0500 (Central Daylight Time),279419.60000002384,A,st,O,t,111,1,1200.300000011921,278219.3000000119,7130,WL,B,8.0
2,17.945000171661377,learn,42054.99982833862,Thu Apr 17 2025 17:33:32 GMT-0500 (Central Daylight Time),279619.90000003576,A,sta,O,a,177,1,1400.6000000238419,278219.3000000119,7130,WL,B,8.0
2,18.044000148773193,learn,41955.99985122681,Thu Apr 17 2025 17:33:32 GMT-0500 (Central Daylight Time),279718.8000000119,A,star,O,r,74,1,1499.5,278219.3000000119,7130,WL,B,8.0
2,18.493000030517578,learn,41506.99996948242,Thu Apr 17 2025 17:33:32 GMT-0500 (Central Daylight Time),280168.3000000119,A,starenter,O,enter,423,1,1949.0,278219.3000000119,7130,WL,B,8.0
2,25.225000143051147,learn,34774.99985694885,Thu Apr 17 2025 17:33:32 GMT-0500 (Central Daylight Time),286900.6999999881,A,g,O,g,6709,1,6732.099999964237,280168.60000002384,7130,WL,B,9.0
2,25.342000007629395,learn,34657.999992370605,Thu Apr 17 2025 17:33:32 GMT-0500 (Central Daylight Time),287017.10000002384,A,gl,O,l,77,1,6848.5,280168.60000002384,7130,WL,B,9.0
2,25.45800018310547,learn,34541.99981689453,Thu Apr 17 2025 17:33:32 GMT-0500 (Central Daylight Time),287133.10000002384,A,gla,O,a,87,1,6964.5,280168.60000002384,7130,WL,B,9.0
2,25.79100012779236,learn,34208.99987220764,Thu Apr 17 2025 17:33:32 GMT-0500 (Central Daylight Time),287466.6999999881,A,glas,O,s,304,1,7298.099999964237,280168.60000002384,7130,WL,B,9.0
2,26.29100012779236,learn,33708.99987220764,Thu Apr 17 2025 17:33:32 GMT-0500 (Central Daylight Time),287966.6999999881,A,glass,O,s,470,1,7798.099999964237,280168.60000002384,7130,WL,B,9.0
2,26.640000104904175,learn,33359.999895095825,Thu Apr 17 2025 17:33:32 GMT-0500 (Central Daylight Time),288315.60000002384,A,glassenter,O,enter,315,1,8147.0,280168.60000002384,7130,WL,B,9.0
2,32.6560001373291,learn,27343.9998626709,Thu Apr 17 2025 17:33:32 GMT-0500 (Central Daylight Time),294331.40000003576,A,c,O,c,5994,1,6015.5,288315.90000003576,7130,WL,B,10.0
2,32.789000034332275,learn,27210.999965667725,Thu Apr 17 2025 17:33:32 GMT-0500 (Central Daylight Time),294464.5,A,ca,O,a,105,1,6148.599999964237,288315.90000003576,7130,WL,B,10.0
2,32.98900008201599,learn,27010.99991798401,Thu Apr 17 2025 17:33:32 GMT-0500 (Central Daylight Time),294664.5,A,cab,O,b,159,1,6348.599999964237,288315.90000003576,7130,WL,B,10.0
2,33.13900017738342,learn,26860.999822616577,Thu Apr 17 2025 17:33:32 GMT-0500 (Central Daylight Time),294814.1999999881,A,cabi,O,i,122,1,6498.299999952316,288315.90000003576,7130,WL,B,10.0
2,33.305999994277954,learn,26694.000005722046,Thu Apr 17 2025 17:33:32 GMT-0500 (Central Daylight Time),294980.8000000119,A,cabin,O,n,146,1,6664.899999976158,288315.90000003576,7130,WL,B,10.0
2,33.687999963760376,learn,26312.000036239624,Thu Apr 17 2025 17:33:32 GMT-0500 (Central Daylight Time),295363.3000000119,A,cabinenter,O,enter,352,1,7047.399999976158,288315.90000003576,7130,WL,B,10.0
2,34.18900012969971,learn,25810.999870300293,Thu Apr 17 2025 17:33:32 GMT-0500 (Central Daylight Time),295864.1999999881,A,l,O,l,483,1,500.5999999642372,295363.60000002384,7130,WL,B,11.0
2,34.48900008201599,learn,25510.99991798401,Thu Apr 17 2025 17:33:32 GMT-0500 (Central Daylight Time),296164.0,A,la,O,a,261,1,800.3999999761581,295363.60000002384,7130,WL,B,11.0
2,34.88900017738342,learn,25110.999822616577,Thu Apr 17 2025 17:33:32 GMT-0500 (Central Daylight Time),296563.8000000119,A,lak,O,k,372,1,1200.199999988079,295363.60000002384,7130,WL,B,11.0
2,35.039000034332275,learn,24960.999965667725,Thu Apr 17 2025 17:33:32 GMT-0500 (Central Daylight Time),296713.8000000119,A,lake,O,e,111,1,1350.199999988079,295363.60000002384,7130,WL,B,11.0
2,35.42300009727478,learn,24576.99990272522,Thu Apr 17 2025 17:33:32 GMT-0500 (Central Daylight Time),297098.0,A,lakeenter,O,enter,350,1,1734.3999999761581,295363.60000002384,7130,WL,B,11.0
2,60.01400017738342,learn,-14.000177383422852,Thu Apr 17 2025 17:33:32 GMT-0500 (Central Daylight Time),321688.8000000119,A,None,O,None,24583,1,24590.600000023842,297098.1999999881,7130,WL,B,12.0
3,1.5169999599456787,learn,58483.00004005432,Thu Apr 17 2025 17:33:32 GMT-0500 (Central Daylight Time),393965.40000003576,A,s,O,s,1482,1,1515.9000000357628,392449.5,7130,WL,B,1.0
3,2.000999927520752,learn,57999.00007247925,Thu Apr 17 2025 17:33:32 GMT-0500 (Central Daylight Time),394449.8000000119,A,st,O,t,461,1,2000.300000011921,392449.5,7130,WL,B,1.0
3,2.2829999923706055,learn,57717.000007629395,Thu Apr 17 2025 17:33:32 GMT-0500 (Central Daylight Time),394732.0,A,str,O,r,248,1,2282.5,392449.5,7130,WL,B,1.0
3,2.4169998168945312,learn,57583.00018310547,Thu Apr 17 2025 17:33:32 GMT-0500 (Central Daylight Time),394865.60000002384,A,stre,O,e,94,1,2416.100000023842,392449.5,7130,WL,B,1.0
3,2.615999937057495,learn,57384.000062942505,Thu Apr 17 2025 17:33:32 GMT-0500 (Central Daylight Time),395064.90000003576,A,stree,O,e,168,1,2615.400000035763,392449.5,7130,WL,B,1.0
3,2.7819998264312744,learn,57218.000173568726,Thu Apr 17 2025 17:33:32 GMT-0500 (Central Daylight Time),395231.10000002384,A,street,O,t,139,1,2781.600000023842,392449.5,7130,WL,B,1.0
3,3.5820000171661377,learn,56417.99998283386,Thu Apr 17 2025 17:33:32 GMT-0500 (Central Daylight Time),396030.3000000119,A,streetenter,O,enter,761,1,3580.800000011921,392449.5,7130,WL,B,1.0
3,4.398999929428101,learn,55601.0000705719,Thu Apr 17 2025 17:33:32 GMT-0500 (Central Daylight Time),396847.5,A,g,O,g,800,1,816.8999999761581,396030.60000002384,7130,WL,B,2.0
3,4.631999969482422,learn,55368.00003051758,Thu Apr 17 2025 17:33:32 GMT-0500 (Central Daylight Time),397081.0,A,gr,O,r,194,1,1050.3999999761581,396030.60000002384,7130,WL,B,2.0
3,4.798999786376953,learn,55201.00021362305,Thu Apr 17 2025 17:33:32 GMT-0500 (Central Daylight Time),397247.6999999881,A,gra,O,a,132,1,1217.0999999642372,396030.60000002384,7130,WL,B,2.0
3,4.932999849319458,learn,55067.00015068054,Thu Apr 17 2025 17:33:32 GMT-0500 (Central Daylight Time),397381.3000000119,A,gras,O,s,105,1,1350.699999988079,396030.60000002384,7130,WL,B,2.0
3,5.181999921798706,learn,54818.000078201294,Thu Apr 17 2025 17:33:32 GMT-0500 (Central Daylight Time),397630.6999999881,A,grass,O,s,224,1,1600.0999999642372,396030.60000002384,7130,WL,B,2.0
3,5.413999795913696,learn,54586.000204086304,Thu Apr 17 2025 17:33:32 GMT-0500 (Central Daylight Time),397863.0,A,grassenter,O,enter,201,1,1832.3999999761581,396030.60000002384,7130,WL,B,2.0
3,7.546999931335449,learn,52453.00006866455,Thu Apr 17 2025 17:33:32 GMT-0500 (Central Daylight Time),399996.0,A,d,O,d,2118,1,2132.699999988079,397863.3000000119,7130,WL,B,3.0
3,8.014999866485596,learn,51985.000133514404,Thu Apr 17 2025 17:33:32 GMT-0500 (Central Daylight Time),400463.1999999881,A,do,O,o,439,1,2599.899999976158,397863.3000000119,7130,WL,B,3.0
3,8.180999994277954,learn,51819.000005722046,Thu Apr 17 2025 17:33:32 GMT-0500 (Central Daylight Time),400629.6999999881,A,doo,O,o,137,1,2766.399999976158,397863.3000000119,7130,WL,B,3.0
3,8.330999851226807,learn,51669.00014877319,Thu Apr 17 2025 17:33:32 GMT-0500 (Central Daylight Time),400779.8000000119,A,door,O,r,109,1,2916.5,397863.3000000119,7130,WL,B,3.0
3,8.646999835968018,learn,51353.00016403198,Thu Apr 17 2025 17:33:32 GMT-0500 (Central Daylight Time),401095.3000000119,A,doorenter,O,enter,286,1,3232.0,397863.3000000119,7130,WL,B,3.0
3,9.13099980354309,learn,50869.00019645691,Thu Apr 17 2025 17:33:32 GMT-0500 (Central Daylight Time),401579.40000003576,A,a,O,a,471,1,483.80000001192093,401095.60000002384,7130,WL,B,4.0
3,9.29699993133545,learn,50703.00006866455,Thu Apr 17 2025 17:33:32 GMT-0500 (Central Daylight Time),401746.10000002384,A,ar,O,r,137,1,650.5,401095.60000002384,7130,WL,B,4.0
3,9.563999891281128,learn,50436.00010871887,Thu Apr 17 2025 17:33:32 GMT-0500 (Central Daylight Time),402013.10000002384,A,arm,O,m,240,1,917.5,401095.60000002384,7130,WL,B,4.0
3,10.013000011444092,learn,49986.99998855591,Thu Apr 17 2025 17:33:32 GMT-0500 (Central Daylight Time),402461.5,A,armenter,O,enter,412,1,1365.8999999761581,401095.60000002384,7130,WL,B,4.0
3,10.813999891281128,learn,49186.00010871887,Thu Apr 17 2025 17:33:32 GMT-0500 (Central Daylight Time),403262.1999999881,A,w,O,w,784,1,800.3999999761581,402461.8000000119,7130,WL,B,5.0
3,10.929999828338623,learn,49070.00017166138,Thu Apr 17 2025 17:33:32 GMT-0500 (Central Daylight Time),403378.40000003576,A,wi,O,i,78,1,916.6000000238419,402461.8000000119,7130,WL,B,5.0
3,11.079999923706055,learn,48920.000076293945,Thu Apr 17 2025 17:33:32 GMT-0500 (Central Daylight Time),403529.10000002384,A,win,O,n,128,1,1067.300000011921,402461.8000000119,7130,WL,B,5.0
3,11.212999820709229,learn,48787.00017929077,Thu Apr 17 2025 17:33:32 GMT-0500 (Central Daylight Time),403662.10000002384,A,wind,O,d,100,1,1200.300000011921,402461.8000000119,7130,WL,B,5.0
3,11.36299991607666,learn,48637.00008392334,Thu Apr 17 2025 17:33:32 GMT-0500 (Central Daylight Time),403812.3000000119,A,windo,O,o,124,1,1350.5,402461.8000000119,7130,WL,B,5.0
3,11.478999853134155,learn,48521.000146865845,Thu Apr 17 2025 17:33:32 GMT-0500 (Central Daylight Time),403927.90000003576,A,window,O,w,86,1,1466.1000000238419,402461.8000000119,7130,WL,B,5.0
3,12.19599986076355,learn,47804.00013923645,Thu Apr 17 2025 17:33:32 GMT-0500 (Central Daylight Time),404644.1999999881,A,windowenter,O,enter,700,1,2182.399999976158,402461.8000000119,7130,WL,B,5.0
3,12.662999868392944,learn,47337.000131607056,Thu Apr 17 2025 17:33:32 GMT-0500 (Central Daylight Time),405111.8000000119,A,s,O,s,449,1,467.30000001192093,404644.5,7130,WL,B,6.0
3,12.79699993133545,learn,47203.00006866455,Thu Apr 17 2025 17:33:32 GMT-0500 (Central Daylight Time),405245.5,A,st,O,t,108,1,601.0,404644.5,7130,WL,B,6.0
3,13.078999996185303,learn,46921.0000038147,Thu Apr 17 2025 17:33:32 GMT-0500 (Central Daylight Time),405528.10000002384,A,sta,O,a,251,1,883.6000000238419,404644.5,7130,WL,B,6.0
3,13.228999853134155,learn,46771.000146865845,Thu Apr 17 2025 17:33:32 GMT-0500 (Central Daylight Time),405678.0,A,star,O,r,114,1,1033.5,404644.5,7130,WL,B,6.0
3,13.644999980926514,learn,46355.000019073486,Thu Apr 17 2025 17:33:32 GMT-0500 (Central Daylight Time),406093.6999999881,A,starenter,O,enter,379,1,1449.199999988079,404644.5,7130,WL,B,6.0
3,19.72699999809265,learn,40273.00000190735,Thu Apr 17 2025 17:33:32 GMT-0500 (Central Daylight Time),412175.5,A,c,O,c,6064,1,6081.599999964237,406093.90000003576,7130,WL,B,7.0
3,19.842999935150146,learn,40157.00006484985,Thu Apr 17 2025 17:33:32 GMT-0500 (Central Daylight Time),412291.6999999881,A,ca,O,a,89,1,6197.799999952316,406093.90000003576,7130,WL,B,7.0
3,20.126999855041504,learn,39873.000144958496,Thu Apr 17 2025 17:33:32 GMT-0500 (Central Daylight Time),412575.8000000119,A,cab,O,b,271,1,6481.899999976158,406093.90000003576,7130,WL,B,7.0
3,20.259999990463257,learn,39740.00000953674,Thu Apr 17 2025 17:33:32 GMT-0500 (Central Daylight Time),412709.1999999881,A,cabi,O,i,99,1,6615.299999952316,406093.90000003576,7130,WL,B,7.0
3,20.426999807357788,learn,39573.00019264221,Thu Apr 17 2025 17:33:32 GMT-0500 (Central Daylight Time),412875.90000003576,A,cabin,O,n,127,1,6782.0,406093.90000003576,7130,WL,B,7.0
3,20.70899987220764,learn,39291.00012779236,Thu Apr 17 2025 17:33:32 GMT-0500 (Central Daylight Time),413158.0,A,cabinenter,O,enter,244,1,7064.099999964237,406093.90000003576,7130,WL,B,7.0
3,22.542999982833862,learn,37457.00001716614,Thu Apr 17 2025 17:33:32 GMT-0500 (Central Daylight Time),414991.6999999881,A,l,O,l,1816,1,1833.3999999761581,413158.3000000119,7130,WL,B,8.0
3,22.63099980354309,learn,37369.00019645691,Thu Apr 17 2025 17:33:32 GMT-0500 (Central Daylight Time),415079.6999999881,A,la,O,a,33,1,1921.3999999761581,413158.3000000119,7130,WL,B,8.0
3,23.008999824523926,learn,36991.000175476074,Thu Apr 17 2025 17:33:32 GMT-0500 (Central Daylight Time),415458.3000000119,A,lak,O,k,356,1,2300.0,413158.3000000119,7130,WL,B,8.0
3,23.109999895095825,learn,36890.000104904175,Thu Apr 17 2025 17:33:32 GMT-0500 (Central Daylight Time),415558.3000000119,A,lake,O,e,63,1,2400.0,413158.3000000119,7130,WL,B,8.0
3,23.342000007629395,learn,36657.999992370605,Thu Apr 17 2025 17:33:32 GMT-0500 (Central Daylight Time),415790.5,A,lakeenter,O,enter,195,1,2632.199999988079,413158.3000000119,7130,WL,B,8.0
3,24.075999975204468,learn,35924.00002479553,Thu Apr 17 2025 17:33:32 GMT-0500 (Central Daylight Time),416524.5,A,s,O,s,719,1,733.6999999880791,415790.8000000119,7130,WL,B,9.0
3,24.241999864578247,learn,35758.00013542175,Thu Apr 17 2025 17:33:32 GMT-0500 (Central Daylight Time),416691.0,A,sk,O,k,138,1,900.1999999880791,415790.8000000119,7130,WL,B,9.0
3,24.45899987220764,learn,35541.00012779236,Thu Apr 17 2025 17:33:32 GMT-0500 (Central Daylight Time),416907.90000003576,A,ski,O,i,175,1,1117.1000000238419,415790.8000000119,7130,WL,B,9.0
3,24.592000007629395,learn,35407.999992370605,Thu Apr 17 2025 17:33:32 GMT-0500 (Central Daylight Time),417040.3000000119,A,skin,O,n,103,1,1249.5,415790.8000000119,7130,WL,B,9.0
3,24.89199995994568,learn,35108.00004005432,Thu Apr 17 2025 17:33:32 GMT-0500 (Central Daylight Time),417341.10000002384,A,skinenter,O,enter,288,1,1550.300000011921,415790.8000000119,7130,WL,B,9.0
3,25.441999912261963,learn,34558.00008773804,Thu Apr 17 2025 17:33:32 GMT-0500 (Central Daylight Time),417890.90000003576,A,c,O,c,529,1,549.5,417341.40000003576,7130,WL,B,10.0
3,25.524999856948853,learn,34475.00014305115,Thu Apr 17 2025 17:33:32 GMT-0500 (Central Daylight Time),417973.10000002384,A,cl,O,l,55,1,631.6999999880791,417341.40000003576,7130,WL,B,10.0
3,25.741999864578247,learn,34258.00013542175,Thu Apr 17 2025 17:33:32 GMT-0500 (Central Daylight Time),418190.60000002384,A,clo,O,o,201,1,849.1999999880791,417341.40000003576,7130,WL,B,10.0
3,26.024999856948853,learn,33975.00014305115,Thu Apr 17 2025 17:33:32 GMT-0500 (Central Daylight Time),418473.6999999881,A,cloc,O,c,251,1,1132.2999999523163,417341.40000003576,7130,WL,B,10.0
3,26.14199995994568,learn,33858.00004005432,Thu Apr 17 2025 17:33:32 GMT-0500 (Central Daylight Time),418590.10000002384,A,clock,O,k,93,1,1248.699999988079,417341.40000003576,7130,WL,B,10.0
3,26.62399983406067,learn,33376.00016593933,Thu Apr 17 2025 17:33:32 GMT-0500 (Central Daylight Time),419072.8000000119,A,clockenter,O,enter,445,1,1731.3999999761581,417341.40000003576,7130,WL,B,10.0
3,30.69099998474121,learn,29309.00001525879,Thu Apr 17 2025 17:33:32 GMT-0500 (Central Daylight Time),423139.10000002384,A,p,O,p,4045,1,4066.100000023842,419073.0,7130,WL,B,11.0
3,30.85699987411499,learn,29143.00012588501,Thu Apr 17 2025 17:33:32 GMT-0500 (Central Daylight Time),423305.8000000119,A,pi,O,i,133,1,4232.800000011921,419073.0,7130,WL,B,11.0
3,31.12399983406067,learn,28876.00016593933,Thu Apr 17 2025 17:33:32 GMT-0500 (Central Daylight Time),423572.10000002384,A,pip,O,p,237,1,4499.100000023842,419073.0,7130,WL,B,11.0
3,31.389999866485596,learn,28610.000133514404,Thu Apr 17 2025 17:33:32 GMT-0500 (Central Daylight Time),423838.60000002384,A,pipe,O,e,241,1,4765.600000023842,419073.0,7130,WL,B,11.0
3,31.655999898910522,learn,28344.000101089478,Thu Apr 17 2025 17:33:32 GMT-0500 (Central Daylight Time),424104.60000002384,A,pipeenter,O,enter,229,1,5031.600000023842,419073.0,7130,WL,B,11.0
3,60.013999938964844,learn,-13.99993896484375,Thu Apr 17 2025 17:33:32 GMT-0500 (Central Daylight Time),452462.6999999881,A,None,O,None,28351,1,28358.0,424104.6999999881,7130,WL,B,12.0
4,0.9340000152587891,learn,59065.99998474121,Thu Apr 17 2025 17:33:32 GMT-0500 (Central Daylight Time),524556.1000000238,A,s,O,s,896,1,933.0,523623.10000002384,7130,WL,B,1.0
4,1.3000001907348633,learn,58699.99980926514,Thu Apr 17 2025 17:33:32 GMT-0500 (Central Daylight Time),524922.4000000358,A,st,O,t,325,1,1299.300000011921,523623.10000002384,7130,WL,B,1.0
4,1.5500001907348633,learn,58449.99980926514,Thu Apr 17 2025 17:33:32 GMT-0500 (Central Daylight Time),525172.1000000238,A,str,O,r,216,1,1549.0,523623.10000002384,7130,WL,B,1.0
4,1.7830002307891846,learn,58216.999769210815,Thu Apr 17 2025 17:33:32 GMT-0500 (Central Daylight Time),525405.6999999881,A,stre,O,e,204,1,1782.5999999642372,523623.10000002384,7130,WL,B,1.0
4,1.9830000400543213,learn,58016.99995994568,Thu Apr 17 2025 17:33:32 GMT-0500 (Central Daylight Time),525605.6000000238,A,stree,O,e,171,1,1982.5,523623.10000002384,7130,WL,B,1.0
4,2.133000135421753,learn,57866.99986457825,Thu Apr 17 2025 17:33:32 GMT-0500 (Central Daylight Time),525755.4000000358,A,street,O,t,115,1,2132.300000011921,523623.10000002384,7130,WL,B,1.0
4,2.9150002002716064,learn,57084.99979972839,Thu Apr 17 2025 17:33:32 GMT-0500 (Central Daylight Time),526537.5,A,streetenter,O,enter,755,1,2914.399999976158,523623.10000002384,7130,WL,B,1.0
4,3.8990001678466797,learn,56100.99983215332,Thu Apr 17 2025 17:33:32 GMT-0500 (Central Daylight Time),527521.3000000119,A,d,O,d,972,1,983.3999999761581,526537.9000000358,7130,WL,B,2.0
4,4.0990002155303955,learn,55900.999784469604,Thu Apr 17 2025 17:33:32 GMT-0500 (Central Daylight Time),527721.4000000358,A,do,O,o,172,1,1183.5,526537.9000000358,7130,WL,B,2.0
4,4.666000127792358,learn,55333.99987220764,Thu Apr 17 2025 17:33:32 GMT-0500 (Central Daylight Time),528287.8000000119,A,d,O,backspace,529,1,1749.8999999761581,526537.9000000358,7130,WL,B,2.0
4,4.799000024795532,learn,55200.99997520447,Thu Apr 17 2025 17:33:32 GMT-0500 (Central Daylight Time),528421.4000000358,A,,O,backspace,108,1,1883.5,526537.9000000358,7130,WL,B,2.0
4,5.049000024795532,learn,54950.99997520447,Thu Apr 17 2025 17:33:32 GMT-0500 (Central Daylight Time),528671.1000000238,A,g,O,g,226,1,2133.199999988079,526537.9000000358,7130,WL,B,2.0
4,5.299000024795532,learn,54700.99997520447,Thu Apr 17 2025 17:33:32 GMT-0500 (Central Daylight Time),528921.1999999881,A,gr,O,r,210,1,2383.2999999523163,526537.9000000358,7130,WL,B,2.0
4,5.432000160217285,learn,54567.999839782715,Thu Apr 17 2025 17:33:32 GMT-0500 (Central Daylight Time),529054.3000000119,A,gra,O,a,99,1,2516.399999976158,526537.9000000358,7130,WL,B,2.0
4,5.5980000495910645,learn,54401.999950408936,Thu Apr 17 2025 17:33:32 GMT-0500 (Central Daylight Time),529220.5,A,gras,O,s,134,1,2682.599999964237,526537.9000000358,7130,WL,B,2.0
4,5.7820000648498535,learn,54217.99993515015,Thu Apr 17 2025 17:33:32 GMT-0500 (Central Daylight Time),529404.5,A,grass,O,s,150,1,2866.599999964237,526537.9000000358,7130,WL,B,2.0
4,5.998000144958496,learn,54001.999855041504,Thu Apr 17 2025 17:33:32 GMT-0500 (Central Daylight Time),529619.8000000119,A,grassenter,O,enter,182,1,3081.899999976158,526537.9000000358,7130,WL,B,2.0
4,6.615000009536743,learn,53384.99999046326,Thu Apr 17 2025 17:33:32 GMT-0500 (Central Daylight Time),530237.4000000358,A,d,O,d,611,1,617.2000000476837,529620.1999999881,7130,WL,B,3.0
4,6.865000009536743,learn,53134.99999046326,Thu Apr 17 2025 17:33:32 GMT-0500 (Central Daylight Time),530487.1999999881,A,do,O,o,227,1,867.0,529620.1999999881,7130,WL,B,3.0
4,7.0320000648498535,learn,52967.99993515015,Thu Apr 17 2025 17:33:32 GMT-0500 (Central Daylight Time),530653.8000000119,A,doo,O,o,140,1,1033.6000000238419,529620.1999999881,7130,WL,B,3.0
4,7.198000192642212,learn,52801.99980735779,Thu Apr 17 2025 17:33:32 GMT-0500 (Central Daylight Time),530820.6000000238,A,door,O,r,124,1,1200.4000000357628,529620.1999999881,7130,WL,B,3.0
4,7.531000137329102,learn,52468.9998626709,Thu Apr 17 2025 17:33:32 GMT-0500 (Central Daylight Time),531152.6999999881,A,doorenter,O,enter,295,1,1532.5,529620.1999999881,7130,WL,B,3.0
4,7.948000192642212,learn,52051.99980735779,Thu Apr 17 2025 17:33:32 GMT-0500 (Central Daylight Time),531570.1999999881,A,a,O,a,397,1,417.19999998807907,531153.0,7130,WL,B,4.0
4,8.098000049591064,learn,51901.999950408936,Thu Apr 17 2025 17:33:32 GMT-0500 (Central Daylight Time),531720.0,A,ar,O,r,122,1,567.0,531153.0,7130,WL,B,4.0
4,8.29800009727478,learn,51701.99990272522,Thu Apr 17 2025 17:33:32 GMT-0500 (Central Daylight Time),531919.9000000358,A,arm,O,m,165,1,766.9000000357628,531153.0,7130,WL,B,4.0
4,8.78000020980835,learn,51219.99979019165,Thu Apr 17 2025 17:33:32 GMT-0500 (Central Daylight Time),532402.4000000358,A,armenter,O,enter,446,1,1249.4000000357628,531153.0,7130,WL,B,4.0
4,10.647000074386597,learn,49352.9999256134,Thu Apr 17 2025 17:33:32 GMT-0500 (Central Daylight Time),534269.1999999881,A,w,O,w,1844,1,1866.5,532402.6999999881,7130,WL,B,5.0
4,10.764000177383423,learn,49235.99982261658,Thu Apr 17 2025 17:33:32 GMT-0500 (Central Daylight Time),534386.0,A,wi,O,i,87,1,1983.300000011921,532402.6999999881,7130,WL,B,5.0
4,10.914000034332275,learn,49085.999965667725,Thu Apr 17 2025 17:33:32 GMT-0500 (Central Daylight Time),534535.8000000119,A,win,O,n,120,1,2133.100000023842,532402.6999999881,7130,WL,B,5.0
4,11.03000020980835,learn,48969.99979019165,Thu Apr 17 2025 17:33:32 GMT-0500 (Central Daylight Time),534652.4000000358,A,wind,O,d,74,1,2249.7000000476837,532402.6999999881,7130,WL,B,5.0
4,11.19700002670288,learn,48802.99997329712,Thu Apr 17 2025 17:33:32 GMT-0500 (Central Daylight Time),534819.1000000238,A,windo,O,o,127,1,2416.400000035763,532402.6999999881,7130,WL,B,5.0
4,11.279000043869019,learn,48720.99995613098,Thu Apr 17 2025 17:33:32 GMT-0500 (Central Daylight Time),534901.6000000238,A,window,O,w,55,1,2498.900000035763,532402.6999999881,7130,WL,B,5.0
4,11.579000234603882,learn,48420.99976539612,Thu Apr 17 2025 17:33:32 GMT-0500 (Central Daylight Time),535201.3000000119,A,windowenter,O,enter,274,1,2798.600000023842,532402.6999999881,7130,WL,B,5.0
4,11.997000217437744,learn,48002.999782562256,Thu Apr 17 2025 17:33:32 GMT-0500 (Central Daylight Time),535619.1000000238,A,c,O,c,396,1,417.60000002384186,535201.5,7130,WL,B,6.0
4,12.09600019454956,learn,47903.99980545044,Thu Apr 17 2025 17:33:32 GMT-0500 (Central Daylight Time),535718.6000000238,A,ci,O,i,73,1,517.1000000238419,535201.5,7130,WL,B,6.0
4,12.330000162124634,learn,47669.999837875366,Thu Apr 17 2025 17:33:32 GMT-0500 (Central Daylight Time),535951.6999999881,A,cit,O,t,202,1,750.1999999880791,535201.5,7130,WL,B,6.0
4,12.513000011444092,learn,47486.99998855591,Thu Apr 17 2025 17:33:32 GMT-0500 (Central Daylight Time),536135.3000000119,A,city,O,y,158,1,933.8000000119209,535201.5,7130,WL,B,6.0
4,12.930000066757202,learn,47069.9999332428,Thu Apr 17 2025 17:33:32 GMT-0500 (Central Daylight Time),536552.0,A,cityenter,O,enter,384,1,1350.5,535201.5,7130,WL,B,6.0
4,14.463000059127808,learn,45536.99994087219,Thu Apr 17 2025 17:33:32 GMT-0500 (Central Daylight Time),538084.6999999881,A,w,O,w,1518,1,1532.3999999761581,536552.3000000119,7130,WL,B,7.0
4,14.630000114440918,learn,45369.99988555908,Thu Apr 17 2025 17:33:32 GMT-0500 (Central Daylight Time),538251.4000000358,A,wi,O,i,138,1,1699.1000000238419,536552.3000000119,7130,WL,B,7.0
4,14.779000043869019,learn,45220.99995613098,Thu Apr 17 2025 17:33:32 GMT-0500 (Central Daylight Time),538401.3000000119,A,wif,O,f,118,1,1849.0,536552.3000000119,7130,WL,B,7.0
4,14.946000099182129,learn,45053.99990081787,Thu Apr 17 2025 17:33:32 GMT-0500 (Central Daylight Time),538567.8000000119,A,wife,O,e,137,1,2015.5,536552.3000000119,7130,WL,B,7.0
4,15.528000116348267,learn,44471.99988365173,Thu Apr 17 2025 17:33:32 GMT-0500 (Central Daylight Time),539150.0,A,wifeenter,O,enter,546,1,2597.699999988079,536552.3000000119,7130,WL,B,7.0
4,18.478000164031982,learn,41521.99983596802,Thu Apr 17 2025 17:33:32 GMT-0500 (Central Daylight Time),542099.6999999881,A,p,O,p,2936,1,2949.399999976158,539150.3000000119,7130,WL,B,8.0
4,18.66100001335144,learn,41338.99998664856,Thu Apr 17 2025 17:33:32 GMT-0500 (Central Daylight Time),542283.3000000119,A,pi,O,i,153,1,3133.0,539150.3000000119,7130,WL,B,8.0
4,18.945000171661377,learn,41054.99982833862,Thu Apr 17 2025 17:33:32 GMT-0500 (Central Daylight Time),542566.5,A,pip,O,p,252,1,3416.199999988079,539150.3000000119,7130,WL,B,8.0
4,19.112000226974487,learn,40887.99977302551,Thu Apr 17 2025 17:33:32 GMT-0500 (Central Daylight Time),542733.8000000119,A,pipe,O,e,142,1,3583.5,539150.3000000119,7130,WL,B,8.0
4,19.377000093460083,learn,40622.99990653992,Thu Apr 17 2025 17:33:32 GMT-0500 (Central Daylight Time),542998.8000000119,A,pipeenter,O,enter,241,1,3848.5,539150.3000000119,7130,WL,B,8.0
4,21.527000188827515,learn,38472.999811172485,Thu Apr 17 2025 17:33:32 GMT-0500 (Central Daylight Time),545149.3000000119,A,c,O,c,2128,1,2150.199999988079,542999.1000000238,7130,WL,B,9.0
4,21.627000093460083,learn,38372.99990653992,Thu Apr 17 2025 17:33:32 GMT-0500 (Central Daylight Time),545248.8000000119,A,cl,O,l,59,1,2249.699999988079,542999.1000000238,7130,WL,B,9.0
4,21.794000148773193,learn,38205.99985122681,Thu Apr 17 2025 17:33:32 GMT-0500 (Central Daylight Time),545415.5,A,clo,O,o,140,1,2416.399999976158,542999.1000000238,7130,WL,B,9.0
4,21.960000038146973,learn,38039.99996185303,Thu Apr 17 2025 17:33:32 GMT-0500 (Central Daylight Time),545581.6000000238,A,cloc,O,c,130,1,2582.5,542999.1000000238,7130,WL,B,9.0
4,22.0770001411438,learn,37922.9998588562,Thu Apr 17 2025 17:33:32 GMT-0500 (Central Daylight Time),545698.8000000119,A,clock,O,k,84,1,2699.699999988079,542999.1000000238,7130,WL,B,9.0
4,22.37600016593933,learn,37623.99983406067,Thu Apr 17 2025 17:33:32 GMT-0500 (Central Daylight Time),545997.8000000119,A,clockenter,O,enter,272,1,2998.699999988079,542999.1000000238,7130,WL,B,9.0
4,23.277000188827515,learn,36722.999811172485,Thu Apr 17 2025 17:33:32 GMT-0500 (Central Daylight Time),546898.6000000238,A,w,O,w,880,1,900.5,545998.1000000238,7130,WL,B,10.0
4,23.392000198364258,learn,36607.99980163574,Thu Apr 17 2025 17:33:32 GMT-0500 (Central Daylight Time),547014.3000000119,A,wi,O,i,89,1,1016.1999999880791,545998.1000000238,7130,WL,B,10.0
4,23.526000022888184,learn,36473.99997711182,Thu Apr 17 2025 17:33:32 GMT-0500 (Central Daylight Time),547148.4000000358,A,wif,O,f,115,1,1150.300000011921,545998.1000000238,7130,WL,B,10.0
4,23.62600016593933,learn,36373.99983406067,Thu Apr 17 2025 17:33:32 GMT-0500 (Central Daylight Time),547248.0,A,wife,O,e,68,1,1249.8999999761581,545998.1000000238,7130,WL,B,10.0
4,23.925000190734863,learn,36074.99980926514,Thu Apr 17 2025 17:33:32 GMT-0500 (Central Daylight Time),547547.1999999881,A,wifeenter,O,enter,266,1,1549.0999999642372,545998.1000000238,7130,WL,B,10.0
4,24.693000078201294,learn,35306.999921798706,Thu Apr 17 2025 17:33:32 GMT-0500 (Central Daylight Time),548315.0,A,c,O,c,747,1,767.5999999642372,547547.4000000358,7130,WL,B,11.0
4,24.79200005531311,learn,35207.99994468689,Thu Apr 17 2025 17:33:32 GMT-0500 (Central Daylight Time),548414.0,A,ca,O,a,63,1,866.5999999642372,547547.4000000358,7130,WL,B,11.0
4,25.326000213623047,learn,34673.99978637695,Thu Apr 17 2025 17:33:32 GMT-0500 (Central Daylight Time),548948.0,A,can,O,n,496,1,1400.5999999642372,547547.4000000358,7130,WL,B,11.0
4,25.992000102996826,learn,34007.999897003174,Thu Apr 17 2025 17:33:32 GMT-0500 (Central Daylight Time),549614.0,A,ca,O,backspace,638,1,2066.599999964237,547547.4000000358,7130,WL,B,11.0
4,26.159000158309937,learn,33840.99984169006,Thu Apr 17 2025 17:33:32 GMT-0500 (Central Daylight Time),549781.3000000119,A,cab,O,b,138,1,2233.899999976158,547547.4000000358,7130,WL,B,11.0
4,26.359000205993652,learn,33640.99979400635,Thu Apr 17 2025 17:33:32 GMT-0500 (Central Daylight Time),549980.6999999881,A,cabi,O,i,169,1,2433.2999999523163,547547.4000000358,7130,WL,B,11.0
4,26.44100022315979,learn,33558.99977684021,Thu Apr 17 2025 17:33:32 GMT-0500 (Central Daylight Time),550063.1999999881,A,cabin,O,n,45,1,2515.7999999523163,547547.4000000358,7130,WL,B,11.0
4,26.77400016784668,learn,33225.99983215332,Thu Apr 17 2025 17:33:32 GMT-0500 (Central Daylight Time),550396.3000000119,A,cabinenter,O,enter,312,1,2848.899999976158,547547.4000000358,7130,WL,B,11.0
4,27.192000150680542,learn,32807.99984931946,Thu Apr 17 2025 17:33:32 GMT-0500 (Central Daylight Time),550813.8000000119,A,l,O,l,410,1,417.19999998807907,550396.6000000238,7130,WL,B,12.0
4,27.359000205993652,learn,32640.999794006348,Thu Apr 17 2025 17:33:32 GMT-0500 (Central Daylight Time),550980.4000000358,A,la,O,a,133,1,583.8000000119209,550396.6000000238,7130,WL,B,12.0
4,27.992000102996826,learn,32007.999897003174,Thu Apr 17 2025 17:33:32 GMT-0500 (Central Daylight Time),551613.6000000238,A,lak,O,k,600,1,1217.0,550396.6000000238,7130,WL,B,12.0
4,28.074000120162964,learn,31925.999879837036,Thu Apr 17 2025 17:33:32 GMT-0500 (Central Daylight Time),551696.1000000238,A,lake,O,e,48,1,1299.5,550396.6000000238,7130,WL,B,12.0
4,28.707000017166138,learn,31292.999982833862,Thu Apr 17 2025 17:33:32 GMT-0500 (Central Daylight Time),552329.1000000238,A,lakeenter,O,enter,619,1,1932.5,550396.6000000238,7130,WL,B,12.0
4,29.125,learn,30875.0,Thu Apr 17 2025 17:33:32 GMT-0500 (Central Daylight Time),552746.5,A,c,O,c,405,1,417.19999998807907,552329.3000000119,7130,WL,B,13.0
4,29.241000175476074,learn,30758.999824523926,Thu Apr 17 2025 17:33:32 GMT-0500 (Central Daylight Time),552862.6999999881,A,cl,O,l,90,1,533.3999999761581,552329.3000000119,7130,WL,B,13.0
4,29.674000024795532,learn,30325.999975204468,Thu Apr 17 2025 17:33:32 GMT-0500 (Central Daylight Time),553296.3000000119,A,clo,O,o,412,1,967.0,552329.3000000119,7130,WL,B,13.0
4,29.94100022315979,learn,30058.99977684021,Thu Apr 17 2025 17:33:32 GMT-0500 (Central Daylight Time),553562.9000000358,A,cloc,O,c,234,1,1233.6000000238419,552329.3000000119,7130,WL,B,13.0
4,30.058000087738037,learn,29941.999912261963,Thu Apr 17 2025 17:33:32 GMT-0500 (Central Daylight Time),553679.5,A,clock,O,k,90,1,1350.199999988079,552329.3000000119,7130,WL,B,13.0
4,30.457000017166138,learn,29542.999982833862,Thu Apr 17 2025 17:33:32 GMT-0500 (Central Daylight Time),554078.5,A,clockenter,O,enter,371,1,1749.199999988079,552329.3000000119,7130,WL,B,13.0
4,30.807000160217285,learn,29192.999839782715,Thu Apr 17 2025 17:33:32 GMT-0500 (Central Daylight Time),554429.3000000119,A,f,O,f,335,1,350.5,554078.8000000119,7130,WL,B,14.0
4,30.907000064849854,learn,29092.999935150146,Thu Apr 17 2025 17:33:32 GMT-0500 (Central Daylight Time),554529.1000000238,A,fi,O,i,63,1,450.30000001192093,554078.8000000119,7130,WL,B,14.0
4,31.174000024795532,learn,28825.999975204468,Thu Apr 17 2025 17:33:32 GMT-0500 (Central Daylight Time),554795.6999999881,A,fir,O,r,233,1,716.8999999761581,554078.8000000119,7130,WL,B,14.0
4,31.207000017166138,learn,28792.999982833862,Thu Apr 17 2025 17:33:32 GMT-0500 (Central Daylight Time),554828.6000000238,A,fire,O,e,11,1,749.8000000119209,554078.8000000119,7130,WL,B,14.0
4,31.639000177383423,learn,28360.999822616577,Thu Apr 17 2025 17:33:32 GMT-0500 (Central Daylight Time),555261.3000000119,A,fireenter,O,enter,415,1,1182.5,554078.8000000119,7130,WL,B,14.0
4,40.58800005912781,learn,19411.999940872192,Thu Apr 17 2025 17:33:32 GMT-0500 (Central Daylight Time),564209.6000000238,A,p,O,p,8929,1,8948.100000023842,555261.5,7130,WL,B,15.0
4,40.87100005149841,learn,19128.999948501587,Thu Apr 17 2025 17:33:32 GMT-0500 (Central Daylight Time),564493.4000000358,A,pu,O,u,259,1,9231.900000035763,555261.5,7130,WL,B,15.0
4,41.104000091552734,learn,18895.999908447266,Thu Apr 17 2025 17:33:32 GMT-0500 (Central Daylight Time),564725.9000000358,A,pup,O,p,196,1,9464.400000035763,555261.5,7130,WL,B,15.0
4,41.30400013923645,learn,18695.99986076355,Thu Apr 17 2025 17:33:32 GMT-0500 (Central Daylight Time),564925.8000000119,A,pupi,O,i,170,1,9664.300000011921,555261.5,7130,WL,B,15.0
4,41.48700022697449,learn,18512.999773025513,Thu Apr 17 2025 17:33:32 GMT-0500 (Central Daylight Time),565109.3000000119,A,pupil,O,l,157,1,9847.800000011921,555261.5,7130,WL,B,15.0
4,41.82000017166138,learn,18179.999828338623,Thu Apr 17 2025 17:33:32 GMT-0500 (Central Daylight Time),565441.6000000238,A,pupilenter,O,enter,295,1,10180.100000023842,555261.5,7130,WL,B,15.0
5,0.817000150680542,learn,60000.0,Thu Apr 17 2025 17:33:32 GMT-0500 (Central Daylight Time),639202.0,A,s,O,s,788,1,816.3000000119209,638385.6999999881,7130,WL,B,1.0
5,1.1670000553131104,learn,60000.0,Thu Apr 17 2025 17:33:32 GMT-0500 (Central Daylight Time),639551.8000000119,A,st,O,t,312,1,1166.1000000238419,638385.6999999881,7130,WL,B,1.0
5,1.4500000476837158,learn,60000.0,Thu Apr 17 2025 17:33:32 GMT-0500 (Central Daylight Time),639834.8000000119,A,str,O,r,243,1,1449.1000000238419,638385.6999999881,7130,WL,B,1.0
5,1.7170000076293945,learn,60000.0,Thu Apr 17 2025 17:33:32 GMT-0500 (Central Daylight Time),640101.6000000238,A,stre,O,e,241,1,1715.9000000357628,638385.6999999881,7130,WL,B,1.0
5,2.2829999923706055,learn,60000.0,Thu Apr 17 2025 17:33:32 GMT-0500 (Central Daylight Time),640667.8000000119,A,stree,O,e,533,1,2282.100000023842,638385.6999999881,7130,WL,B,1.0
5,2.450000047683716,learn,60000.0,Thu Apr 17 2025 17:33:32 GMT-0500 (Central Daylight Time),640834.5,A,street,O,t,124,1,2448.800000011921,638385.6999999881,7130,WL,B,1.0
5,3.315000057220459,learn,60000.0,Thu Apr 17 2025 17:33:32 GMT-0500 (Central Daylight Time),641699.6999999881,A,streetenter,O,enter,840,1,3314.0,638385.6999999881,7130,WL,B,1.0
5,4.0990002155303955,learn,60000.0,Thu Apr 17 2025 17:33:32 GMT-0500 (Central Daylight Time),642483.8000000119,A,g,O,g,762,1,783.8000000119209,641700.0,7130,WL,B,2.0
5,4.299000024795532,learn,60000.0,Thu Apr 17 2025 17:33:32 GMT-0500 (Central Daylight Time),642684.0,A,gr,O,r,165,1,984.0,641700.0,7130,WL,B,2.0
5,4.465000152587891,learn,60000.0,Thu Apr 17 2025 17:33:32 GMT-0500 (Central Daylight Time),642850.1000000238,A,gra,O,a,137,1,1150.1000000238419,641700.0,7130,WL,B,2.0
5,4.615000009536743,learn,60000.0,Thu Apr 17 2025 17:33:32 GMT-0500 (Central Daylight Time),643000.0,A,gras,O,s,119,1,1300.0,641700.0,7130,WL,B,2.0
5,4.8490002155303955,learn,60000.0,Thu Apr 17 2025 17:33:32 GMT-0500 (Central Daylight Time),643233.5,A,grass,O,s,194,1,1533.5,641700.0,7130,WL,B,2.0
5,5.46399998664856,learn,60000.0,Thu Apr 17 2025 17:33:32 GMT-0500 (Central Daylight Time),643849.0,A,grassenter,O,enter,581,1,2149.0,641700.0,7130,WL,B,2.0
5,6.549000024795532,learn,60000.0,Thu Apr 17 2025 17:33:32 GMT-0500 (Central Daylight Time),644933.6000000238,A,d,O,d,1077,1,1084.300000011921,643849.3000000119,7130,WL,B,3.0
5,6.715000152587891,learn,60000.0,Thu Apr 17 2025 17:33:32 GMT-0500 (Central Daylight Time),645099.5,A,do,O,o,124,1,1250.199999988079,643849.3000000119,7130,WL,B,3.0
5,6.8480000495910645,learn,60000.0,Thu Apr 17 2025 17:33:32 GMT-0500 (Central Daylight Time),645233.0,A,doo,O,o,102,1,1383.699999988079,643849.3000000119,7130,WL,B,3.0
5,6.998000144958496,learn,60000.0,Thu Apr 17 2025 17:33:32 GMT-0500 (Central Daylight Time),645383.1999999881,A,door,O,r,113,1,1533.8999999761581,643849.3000000119,7130,WL,B,3.0
5,7.264000177383423,learn,60000.0,Thu Apr 17 2025 17:33:32 GMT-0500 (Central Daylight Time),645648.5,A,doorenter,O,enter,234,1,1799.199999988079,643849.3000000119,7130,WL,B,3.0
5,7.664000034332275,learn,60000.0,Thu Apr 17 2025 17:33:32 GMT-0500 (Central Daylight Time),646049.1000000238,A,a,O,a,390,1,400.4000000357628,645648.6999999881,7130,WL,B,4.0
5,7.781000137329102,learn,60000.0,Thu Apr 17 2025 17:33:32 GMT-0500 (Central Daylight Time),646165.8000000119,A,ar,O,r,91,1,517.1000000238419,645648.6999999881,7130,WL,B,4.0
5,7.965000152587891,learn,60000.0,Thu Apr 17 2025 17:33:32 GMT-0500 (Central Daylight Time),646349.3000000119,A,arm,O,m,143,1,700.6000000238419,645648.6999999881,7130,WL,B,4.0
5,8.36300015449524,learn,60000.0,Thu Apr 17 2025 17:33:32 GMT-0500 (Central Daylight Time),646748.1000000238,A,armenter,O,enter,367,1,1099.4000000357628,645648.6999999881,7130,WL,B,4.0
5,10.180000066757202,learn,60000.0,Thu Apr 17 2025 17:33:32 GMT-0500 (Central Daylight Time),648565.1000000238,A,s,O,s,1803,1,1816.800000011921,646748.3000000119,7130,WL,B,5.0
5,10.914000034332275,learn,60000.0,Thu Apr 17 2025 17:33:32 GMT-0500 (Central Daylight Time),649298.6000000238,A,st,O,t,702,1,2550.300000011921,646748.3000000119,7130,WL,B,5.0
5,11.114000082015991,learn,60000.0,Thu Apr 17 2025 17:33:32 GMT-0500 (Central Daylight Time),649498.3000000119,A,sta,O,a,169,1,2750.0,646748.3000000119,7130,WL,B,5.0
5,11.380000114440918,learn,60000.0,Thu Apr 17 2025 17:33:32 GMT-0500 (Central Daylight Time),649764.9000000358,A,star,O,r,234,1,3016.600000023842,646748.3000000119,7130,WL,B,5.0
5,11.84600019454956,learn,60000.0,Thu Apr 17 2025 17:33:32 GMT-0500 (Central Daylight Time),650230.3000000119,A,starenter,O,enter,437,1,3482.0,646748.3000000119,7130,WL,B,5.0
5,12.446000099182129,learn,60000.0,Thu Apr 17 2025 17:33:32 GMT-0500 (Central Daylight Time),650830.9000000358,A,w,O,w,592,1,600.3000000119209,650230.6000000238,7130,WL,B,6.0
5,12.580000162124634,learn,60000.0,Thu Apr 17 2025 17:33:32 GMT-0500 (Central Daylight Time),650964.9000000358,A,wi,O,i,107,1,734.3000000119209,650230.6000000238,7130,WL,B,6.0
5,12.763000011444092,learn,60000.0,Thu Apr 17 2025 17:33:32 GMT-0500 (Central Daylight Time),651147.3000000119,A,wif,O,f,141,1,916.6999999880791,650230.6000000238,7130,WL,B,6.0
5,12.84500002861023,learn,60000.0,Thu Apr 17 2025 17:33:32 GMT-0500 (Central Daylight Time),651230.1000000238,A,wife,O,e,48,1,999.5,650230.6000000238,7130,WL,B,6.0
5,13.129000186920166,learn,60000.0,Thu Apr 17 2025 17:33:32 GMT-0500 (Central Daylight Time),651513.1000000238,A,wifeenter,O,enter,248,1,1282.5,650230.6000000238,7130,WL,B,6.0
5,16.295000076293945,learn,60000.0,Thu Apr 17 2025 17:33:32 GMT-0500 (Central Daylight Time),654679.8000000119,A,a,O,a,3156,1,3166.399999976158,651513.4000000358,7130,WL,B,7.0
5,17.212000131607056,learn,60000.0,Thu Apr 17 2025 17:33:32 GMT-0500 (Central Daylight Time),655596.3000000119,A,ar,O,r,875,1,4082.899999976158,651513.4000000358,7130,WL,B,7.0
5,17.344000101089478,learn,60000.0,Thu Apr 17 2025 17:33:32 GMT-0500 (Central Daylight Time),655728.9000000358,A,arm,O,m,94,1,4215.5,651513.4000000358,7130,WL,B,7.0
5,17.844000101089478,learn,60000.0,Thu Apr 17 2025 17:33:32 GMT-0500 (Central Daylight Time),656228.4000000358,A,armenter,O,enter,466,1,4715.0,651513.4000000358,7130,WL,B,7.0
5,22.943000078201294,learn,60000.0,Thu Apr 17 2025 17:33:32 GMT-0500 (Central Daylight Time),661327.8000000119,A,c,O,c,5082,1,5099.199999988079,656228.6000000238,7130,WL,B,8.0
5,23.0770001411438,learn,60000.0,Thu Apr 17 2025 17:33:32 GMT-0500 (Central Daylight Time),661461.0,A,ci,O,i,89,1,5232.399999976158,656228.6000000238,7130,WL,B,8.0
5,23.31000018119812,learn,60000.0,Thu Apr 17 2025 17:33:32 GMT-0500 (Central Daylight Time),661694.3000000119,A,cit,O,t,206,1,5465.699999988079,656228.6000000238,7130,WL,B,8.0
5,23.45900011062622,learn,60000.0,Thu Apr 17 2025 17:33:32 GMT-0500 (Central Daylight Time),661843.6000000238,A,city,O,y,109,1,5615.0,656228.6000000238,7130,WL,B,8.0
5,23.79200005531311,learn,60000.0,Thu Apr 17 2025 17:33:32 GMT-0500 (Central Daylight Time),662176.4000000358,A,cityenter,O,enter,301,1,5947.800000011921,656228.6000000238,7130,WL,B,8.0
5,26.54200005531311,learn,60000.0,Thu Apr 17 2025 17:33:32 GMT-0500 (Central Daylight Time),664925.9000000358,A,c,O,c,2741,1,2749.2000000476837,662176.6999999881,7130,WL,B,9.0
5,26.69100022315979,learn,60000.0,Thu Apr 17 2025 17:33:32 GMT-0500 (Central Daylight Time),665075.8000000119,A,ca,O,a,115,1,2899.100000023842,662176.6999999881,7130,WL,B,9.0
5,27.258000135421753,learn,60000.0,Thu Apr 17 2025 17:33:32 GMT-0500 (Central Daylight Time),665642.8000000119,A,cab,O,b,545,1,3466.100000023842,662176.6999999881,7130,WL,B,9.0
5,27.35800004005432,learn,60000.0,Thu Apr 17 2025 17:33:32 GMT-0500 (Central Daylight Time),665742.0,A,cabi,O,i,74,1,3565.300000011921,662176.6999999881,7130,WL,B,9.0
5,27.52500009536743,learn,60000.0,Thu Apr 17 2025 17:33:32 GMT-0500 (Central Daylight Time),665909.8000000119,A,cabin,O,n,159,1,3733.100000023842,662176.6999999881,7130,WL,B,9.0
5,27.824000120162964,learn,60000.0,Thu Apr 17 2025 17:33:32 GMT-0500 (Central Daylight Time),666208.4000000358,A,cabinenter,O,enter,263,1,4031.7000000476837,662176.6999999881,7130,WL,B,9.0
5,28.725000143051147,learn,60000.0,Thu Apr 17 2025 17:33:32 GMT-0500 (Central Daylight Time),667109.0,A,l,O,l,878,1,900.3999999761581,666208.6000000238,7130,WL,B,10.0
5,28.808000087738037,learn,60000.0,Thu Apr 17 2025 17:33:32 GMT-0500 (Central Daylight Time),667192.1999999881,A,la,O,a,46,1,983.5999999642372,666208.6000000238,7130,WL,B,10.0
5,28.974000215530396,learn,60000.0,Thu Apr 17 2025 17:33:32 GMT-0500 (Central Daylight Time),667358.6999999881,A,lak,O,k,148,1,1150.0999999642372,666208.6000000238,7130,WL,B,10.0
5,29.10800004005432,learn,60000.0,Thu Apr 17 2025 17:33:32 GMT-0500 (Central Daylight Time),667492.1999999881,A,lake,O,e,94,1,1283.5999999642372,666208.6000000238,7130,WL,B,10.0
5,29.307000160217285,learn,60000.0,Thu Apr 17 2025 17:33:32 GMT-0500 (Central Daylight Time),667691.1000000238,A,lakeenter,O,enter,157,1,1482.5,666208.6000000238,7130,WL,B,10.0
5,30.94100022315979,learn,60000.0,Thu Apr 17 2025 17:33:32 GMT-0500 (Central Daylight Time),669325.0,A,p,O,p,1612,1,1633.699999988079,667691.3000000119,7130,WL,B,11.0
5,31.157000064849854,learn,60000.0,Thu Apr 17 2025 17:33:32 GMT-0500 (Central Daylight Time),669541.5,A,pu,O,u,181,1,1850.199999988079,667691.3000000119,7130,WL,B,11.0
5,31.407000064849854,learn,60000.0,Thu Apr 17 2025 17:33:32 GMT-0500 (Central Daylight Time),669791.5,A,pup,O,p,223,1,2100.199999988079,667691.3000000119,7130,WL,B,11.0
5,31.640000104904175,learn,60000.0,Thu Apr 17 2025 17:33:32 GMT-0500 (Central Daylight Time),670024.6999999881,A,pupl,O,l,194,1,2333.399999976158,667691.3000000119,7130,WL,B,11.0
5,32.94000005722046,learn,60000.0,Thu Apr 17 2025 17:33:32 GMT-0500 (Central Daylight Time),671324.3000000119,A,pup,O,backspace,1269,1,3633.0,667691.3000000119,7130,WL,B,11.0
5,33.37400007247925,learn,60000.0,Thu Apr 17 2025 17:33:32 GMT-0500 (Central Daylight Time),671758.1999999881,A,pupi,O,i,406,1,4066.899999976158,667691.3000000119,7130,WL,B,11.0
5,33.790000200271606,learn,60000.0,Thu Apr 17 2025 17:33:32 GMT-0500 (Central Daylight Time),672174.1000000238,A,pupik,O,k,383,1,4482.800000011921,667691.3000000119,7130,WL,B,11.0
5,34.4060001373291,learn,60000.0,Thu Apr 17 2025 17:33:32 GMT-0500 (Central Daylight Time),672790.3000000119,A,pupi,O,backspace,588,1,5099.0,667691.3000000119,7130,WL,B,11.0
5,35.33899998664856,learn,60000.0,Thu Apr 17 2025 17:33:32 GMT-0500 (Central Daylight Time),673723.8000000119,A,pupil,O,l,892,1,6032.5,667691.3000000119,7130,WL,B,11.0
5,36.15500020980835,learn,60000.0,Thu Apr 17 2025 17:33:32 GMT-0500 (Central Daylight Time),674539.0,A,pupilenter,O,enter,782,1,6847.699999988079,667691.3000000119,7130,WL,B,11.0
5,39.188000202178955,learn,60000.0,Thu Apr 17 2025 17:33:32 GMT-0500 (Central Daylight Time),677572.1000000238,A,f,O,f,3019,1,3032.900000035763,674539.1999999881,7130,WL,B,12.0
5,39.30400013923645,learn,60000.0,Thu Apr 17 2025 17:33:32 GMT-0500 (Central Daylight Time),677688.3000000119,A,fi,O,i,77,1,3149.100000023842,674539.1999999881,7130,WL,B,12.0
5,39.437000036239624,learn,60000.0,Thu Apr 17 2025 17:33:32 GMT-0500 (Central Daylight Time),677821.4000000358,A,fir,O,r,100,1,3282.2000000476837,674539.1999999881,7130,WL,B,12.0
5,39.504000186920166,learn,60000.0,Thu Apr 17 2025 17:33:32 GMT-0500 (Central Daylight Time),677887.9000000358,A,fire,O,e,42,1,3348.7000000476837,674539.1999999881,7130,WL,B,12.0
5,39.70300006866455,learn,60000.0,Thu Apr 17 2025 17:33:32 GMT-0500 (Central Daylight Time),678087.6000000238,A,fireenter,O,enter,183,1,3548.400000035763,674539.1999999881,7130,WL,B,12.0
5,45.76900005340576,learn,60000.0,Thu Apr 17 2025 17:33:32 GMT-0500 (Central Daylight Time),684153.5,A,w,O,w,6047,1,6065.599999964237,678087.9000000358,7130,WL,B,13.0
5,45.85199999809265,learn,60000.0,Thu Apr 17 2025 17:33:32 GMT-0500 (Central Daylight Time),684236.5,A,wi,O,i,61,1,6148.599999964237,678087.9000000358,7130,WL,B,13.0
5,46.03600001335144,learn,60000.0,Thu Apr 17 2025 17:33:32 GMT-0500 (Central Daylight Time),684420.3000000119,A,win,O,n,154,1,6332.399999976158,678087.9000000358,7130,WL,B,13.0
5,46.16900014877319,learn,60000.0,Thu Apr 17 2025 17:33:32 GMT-0500 (Central Daylight Time),684553.3000000119,A,wind,O,d,105,1,6465.399999976158,678087.9000000358,7130,WL,B,13.0
5,46.41900014877319,learn,60000.0,Thu Apr 17 2025 17:33:32 GMT-0500 (Central Daylight Time),684803.4000000358,A,windo,O,o,209,1,6715.5,678087.9000000358,7130,WL,B,13.0
5,46.58500003814697,learn,60000.0,Thu Apr 17 2025 17:33:32 GMT-0500 (Central Daylight Time),684969.8000000119,A,window,O,w,128,1,6881.899999976158,678087.9000000358,7130,WL,B,13.0
5,47.218000173568726,learn,60000.0,Thu Apr 17 2025 17:33:32 GMT-0500 (Central Daylight Time),685602.1000000238,A,windowenter,O,enter,600,1,7514.199999988079,678087.9000000358,7130,WL,B,13.0
5,50.33400011062622,learn,60000.0,Thu Apr 17 2025 17:33:32 GMT-0500 (Central Daylight Time),688718.6999999881,A,p,O,p,3100,1,3116.399999976158,685602.3000000119,7130,WL,B,14.0
5,50.51700019836426,learn,60000.0,Thu Apr 17 2025 17:33:32 GMT-0500 (Central Daylight Time),688901.8000000119,A,pi,O,i,148,1,3299.5,685602.3000000119,7130,WL,B,14.0
5,50.73400020599365,learn,60000.0,Thu Apr 17 2025 17:33:32 GMT-0500 (Central Daylight Time),689118.1999999881,A,pip,O,p,181,1,3515.899999976158,685602.3000000119,7130,WL,B,14.0
5,50.93400001525879,learn,60000.0,Thu Apr 17 2025 17:33:32 GMT-0500 (Central Daylight Time),689318.1999999881,A,pipe,O,e,175,1,3715.899999976158,685602.3000000119,7130,WL,B,14.0
5,51.18300008773804,learn,60000.0,Thu Apr 17 2025 17:33:32 GMT-0500 (Central Daylight Time),689567.4000000358,A,pipeenter,O,enter,213,1,3965.100000023842,685602.3000000119,7130,WL,B,14.0
5,68.91200017929077,learn,60000.0,Thu Apr 17 2025 17:33:32 GMT-0500 (Central Daylight Time),707295.9000000358,A,c,O,c,17711,1,17728.200000047684,689567.6999999881,7130,WL,B,15.0
6,1.6489999294281006,distr,58351.0000705719,Thu Apr 17 2025 17:33:32 GMT-0500 (Central Daylight Time),786336.6000000238,B,b,O,b,1613,1,1648.699999988079,784687.9000000358,7130,WL,B,1.0
6,1.7829999923706055,distr,58217.000007629395,Thu Apr 17 2025 17:33:32 GMT-0500 (Central Daylight Time),786470.3000000119,B,ba,O,a,105,1,1782.3999999761581,784687.9000000358,7130,WL,B,1.0
6,2.3980000019073486,distr,57601.99999809265,Thu Apr 17 2025 17:33:32 GMT-0500 (Central Daylight Time),787085.9000000358,B,bab,O,b,586,1,2398.0,784687.9000000358,7130,WL,B,1.0
6,2.7660000324249268,distr,57233.99996757507,Thu Apr 17 2025 17:33:32 GMT-0500 (Central Daylight Time),787453.6000000238,B,baby,O,y,342,1,2765.699999988079,784687.9000000358,7130,WL,B,1.0
6,3.6640000343322754,distr,56335.999965667725,Thu Apr 17 2025 17:33:32 GMT-0500 (Central Daylight Time),788351.6999999881,B,babyenter,O,enter,861,1,3663.7999999523163,784687.9000000358,7130,WL,B,1.0
6,4.2149999141693115,distr,55785.00008583069,Thu Apr 17 2025 17:33:32 GMT-0500 (Central Daylight Time),788902.4000000358,B,o,O,o,535,1,550.4000000357628,788352.0,7130,WL,B,2.0
6,4.430999994277954,distr,55569.000005722046,Thu Apr 17 2025 17:33:32 GMT-0500 (Central Daylight Time),789118.5,B,oc,O,c,189,1,766.5,788352.0,7130,WL,B,2.0
6,4.73199987411499,distr,55268.00012588501,Thu Apr 17 2025 17:33:32 GMT-0500 (Central Daylight Time),789419.1000000238,B,oce,O,e,269,1,1067.1000000238419,788352.0,7130,WL,B,2.0
6,4.898000001907349,distr,55101.99999809265,Thu Apr 17 2025 17:33:32 GMT-0500 (Central Daylight Time),789585.6999999881,B,ocea,O,a,128,1,1233.699999988079,788352.0,7130,WL,B,2.0
6,5.047999858856201,distr,54952.0001411438,Thu Apr 17 2025 17:33:32 GMT-0500 (Central Daylight Time),789735.6999999881,B,ocean,O,n,115,1,1383.699999988079,788352.0,7130,WL,B,2.0
6,5.546999931335449,distr,54453.00006866455,Thu Apr 17 2025 17:33:32 GMT-0500 (Central Daylight Time),790234.4000000358,B,oceanenter,O,enter,469,1,1882.4000000357628,788352.0,7130,WL,B,2.0
6,23.47499990463257,distr,36525.00009536743,Thu Apr 17 2025 17:33:32 GMT-0500 (Central Daylight Time),808162.9000000358,B,f,O,f,17916,1,17928.200000047684,790234.6999999881,7130,WL,B,3.0
6,23.674999952316284,distr,36325.000047683716,Thu Apr 17 2025 17:33:32 GMT-0500 (Central Daylight Time),808362.5,B,fi,O,i,160,1,18127.80000001192,790234.6999999881,7130,WL,B,3.0
6,23.774999856948853,distr,36225.00014305115,Thu Apr 17 2025 17:33:32 GMT-0500 (Central Daylight Time),808462.1999999881,B,fir,O,r,73,1,18227.5,790234.6999999881,7130,WL,B,3.0
6,23.874000072479248,distr,36125.99992752075,Thu Apr 17 2025 17:33:32 GMT-0500 (Central Daylight Time),808561.9000000358,B,fire,O,e,75,1,18327.200000047684,790234.6999999881,7130,WL,B,3.0
6,24.075000047683716,distr,35924.999952316284,Thu Apr 17 2025 17:33:32 GMT-0500 (Central Daylight Time),808763.0,B,firen,O,n,184,1,18528.30000001192,790234.6999999881,7130,WL,B,3.0
6,24.69099998474121,distr,35309.00001525879,Thu Apr 17 2025 17:33:32 GMT-0500 (Central Daylight Time),809378.9000000358,B,fire,O,backspace,583,1,19144.200000047684,790234.6999999881,7130,WL,B,3.0
6,24.907999992370605,distr,35092.000007629395,Thu Apr 17 2025 17:33:32 GMT-0500 (Central Daylight Time),809595.6999999881,B,fir,O,backspace,175,1,19361.0,790234.6999999881,7130,WL,B,3.0
6,25.075000047683716,distr,34924.999952316284,Thu Apr 17 2025 17:33:32 GMT-0500 (Central Daylight Time),809762.4000000358,B,fi,O,backspace,137,1,19527.700000047684,790234.6999999881,7130,WL,B,3.0
6,25.45799994468689,distr,34542.00005531311,Thu Apr 17 2025 17:33:32 GMT-0500 (Central Daylight Time),810145.4000000358,B,f,O,backspace,354,1,19910.700000047684,790234.6999999881,7130,WL,B,3.0
6,25.69099998474121,distr,34309.00001525879,Thu Apr 17 2025 17:33:32 GMT-0500 (Central Daylight Time),810378.6999999881,B,fr,O,r,194,1,20144.0,790234.6999999881,7130,WL,B,3.0
6,25.907999992370605,distr,34092.000007629395,Thu Apr 17 2025 17:33:32 GMT-0500 (Central Daylight Time),810595.4000000358,B,fri,O,i,181,1,20360.700000047684,790234.6999999881,7130,WL,B,3.0
6,26.657000064849854,distr,33342.99993515015,Thu Apr 17 2025 17:33:32 GMT-0500 (Central Daylight Time),811344.9000000358,B,fr,O,backspace,710,1,21110.200000047684,790234.6999999881,7130,WL,B,3.0
6,26.990999937057495,distr,33009.000062942505,Thu Apr 17 2025 17:33:32 GMT-0500 (Central Daylight Time),811678.3000000119,B,fre,O,e,296,1,21443.600000023842,790234.6999999881,7130,WL,B,3.0
6,27.591000080108643,distr,32408.999919891357,Thu Apr 17 2025 17:33:32 GMT-0500 (Central Daylight Time),812278.0,B,fr,O,backspace,563,1,22043.30000001192,790234.6999999881,7130,WL,B,3.0
6,27.889999866485596,distr,32110.000133514404,Thu Apr 17 2025 17:33:32 GMT-0500 (Central Daylight Time),812578.0,B,fri,O,i,268,1,22343.30000001192,790234.6999999881,7130,WL,B,3.0
6,28.155999898910522,distr,31844.000101089478,Thu Apr 17 2025 17:33:32 GMT-0500 (Central Daylight Time),812843.4000000358,B,frie,O,e,241,1,22608.700000047684,790234.6999999881,7130,WL,B,3.0
6,28.723999977111816,distr,31276.000022888184,Thu Apr 17 2025 17:33:32 GMT-0500 (Central Daylight Time),813411.1000000238,B,frien,O,n,554,1,23176.400000035763,790234.6999999881,7130,WL,B,3.0
6,28.85599994659424,distr,31144.00005340576,Thu Apr 17 2025 17:33:32 GMT-0500 (Central Daylight Time),813543.6000000238,B,friend,O,d,106,1,23308.900000035763,790234.6999999881,7130,WL,B,3.0
6,29.1729998588562,distr,30827.0001411438,Thu Apr 17 2025 17:33:32 GMT-0500 (Central Daylight Time),813860.0,B,friendenter,O,enter,289,1,23625.30000001192,790234.6999999881,7130,WL,B,3.0
6,49.01699995994568,distr,10983.000040054321,Thu Apr 17 2025 17:33:32 GMT-0500 (Central Daylight Time),833704.5,B,l,O,l,19835,1,19844.19999998808,813860.3000000119,7130,WL,B,4.0
6,49.25,distr,10750.0,Thu Apr 17 2025 17:33:32 GMT-0500 (Central Daylight Time),833937.6000000238,B,li,O,i,202,1,20077.30000001192,813860.3000000119,7130,WL,B,4.0
6,49.51699995994568,distr,10483.000040054321,Thu Apr 17 2025 17:33:32 GMT-0500 (Central Daylight Time),834204.1999999881,B,lib,O,b,234,1,20343.899999976158,813860.3000000119,7130,WL,B,4.0
6,50.549999952316284,distr,9450.000047683716,Thu Apr 17 2025 17:33:32 GMT-0500 (Central Daylight Time),835237.6000000238,B,li,O,backspace,992,1,21377.30000001192,813860.3000000119,7130,WL,B,4.0
6,50.950000047683716,distr,9049.999952316284,Thu Apr 17 2025 17:33:32 GMT-0500 (Central Daylight Time),835637.1000000238,B,lip,O,p,364,1,21776.80000001192,813860.3000000119,7130,WL,B,4.0
6,51.41499996185303,distr,8585.000038146973,Thu Apr 17 2025 17:33:32 GMT-0500 (Central Daylight Time),836102.6999999881,B,lipenter,O,enter,431,1,22242.399999976158,813860.3000000119,7130,WL,B,4.0
6,60.01600003242493,distr,-16.000032424926758,Thu Apr 17 2025 17:33:32 GMT-0500 (Central Daylight Time),844700.8000000119,B,None,O,None,8591,1,8597.800000011921,836103.0,7130,WL,B,5.0
7,1.25,immed,58750.0,Thu Apr 17 2025 17:33:32 GMT-0500 (Central Daylight Time),858296.3000000119,A,s,O,s,1224,1,1249.300000011921,857047.0,7130,WL,B,1.0
7,1.5,immed,58500.0,Thu Apr 17 2025 17:33:32 GMT-0500 (Central Daylight Time),858546.1000000238,A,st,O,t,218,1,1499.1000000238419,857047.0,7130,WL,B,1.0
7,2.6489999294281006,immed,57351.0000705719,Thu Apr 17 2025 17:33:32 GMT-0500 (Central Daylight Time),859695.5,A,str,O,r,1121,1,2648.5,857047.0,7130,WL,B,1.0
7,2.932999849319458,immed,57067.00015068054,Thu Apr 17 2025 17:33:32 GMT-0500 (Central Daylight Time),859979.1999999881,A,stre,O,e,246,1,2932.199999988079,857047.0,7130,WL,B,1.0
7,3.115999937057495,immed,56884.000062942505,Thu Apr 17 2025 17:33:32 GMT-0500 (Central Daylight Time),860162.6000000238,A,stree,O,e,144,1,3115.600000023842,857047.0,7130,WL,B,1.0
7,3.2829999923706055,immed,56717.000007629395,Thu Apr 17 2025 17:33:32 GMT-0500 (Central Daylight Time),860328.9000000358,A,street,O,t,138,1,3281.900000035763,857047.0,7130,WL,B,1.0
7,4.332000017166138,immed,55667.99998283386,Thu Apr 17 2025 17:33:32 GMT-0500 (Central Daylight Time),861377.6999999881,A,streetenter,O,enter,1014,1,4330.699999988079,857047.0,7130,WL,B,1.0
7,4.848999977111816,immed,55151.00002288818,Thu Apr 17 2025 17:33:32 GMT-0500 (Central Daylight Time),861895.1999999881,A,g,O,g,500,1,517.2999999523163,861377.9000000358,7130,WL,B,2.0
7,5.048999786376953,immed,54951.00021362305,Thu Apr 17 2025 17:33:32 GMT-0500 (Central Daylight Time),862095.4000000358,A,gr,O,r,163,1,717.5,861377.9000000358,7130,WL,B,2.0
7,5.181999921798706,immed,54818.000078201294,Thu Apr 17 2025 17:33:32 GMT-0500 (Central Daylight Time),862228.6000000238,A,gra,O,a,93,1,850.6999999880791,861377.9000000358,7130,WL,B,2.0
7,5.398999929428101,immed,54601.0000705719,Thu Apr 17 2025 17:33:32 GMT-0500 (Central Daylight Time),862445.6000000238,A,gras,O,s,191,1,1067.699999988079,861377.9000000358,7130,WL,B,2.0
7,5.598999977111816,immed,54401.00002288818,Thu Apr 17 2025 17:33:32 GMT-0500 (Central Daylight Time),862644.8000000119,A,grass,O,s,166,1,1266.8999999761581,861377.9000000358,7130,WL,B,2.0
7,6.313999891281128,immed,53686.00010871887,Thu Apr 17 2025 17:33:32 GMT-0500 (Central Daylight Time),863360.5,A,grassenter,O,enter,677,1,1982.5999999642372,861377.9000000358,7130,WL,B,2.0
7,8.197999954223633,immed,51802.00004577637,Thu Apr 17 2025 17:33:32 GMT-0500 (Central Daylight Time),865244.0,A,d,O,d,1871,1,1883.300000011921,863360.6999999881,7130,WL,B,3.0
7,8.346999883651733,immed,51653.00011634827,Thu Apr 17 2025 17:33:32 GMT-0500 (Central Daylight Time),865393.6999999881,A,do,O,o,110,1,2033.0,863360.6999999881,7130,WL,B,3.0
7,8.513999938964844,immed,51486.000061035156,Thu Apr 17 2025 17:33:32 GMT-0500 (Central Daylight Time),865560.3000000119,A,doo,O,o,131,1,2199.600000023842,863360.6999999881,7130,WL,B,3.0
7,8.648000001907349,immed,51351.99999809265,Thu Apr 17 2025 17:33:32 GMT-0500 (Central Daylight Time),865694.1000000238,A,door,O,r,108,1,2333.400000035763,863360.6999999881,7130,WL,B,3.0
7,8.929999828338623,immed,51070.00017166138,Thu Apr 17 2025 17:33:32 GMT-0500 (Central Daylight Time),865976.1999999881,A,doorenter,O,enter,253,1,2615.5,863360.6999999881,7130,WL,B,3.0
7,11.645999908447266,immed,48354.000091552734,Thu Apr 17 2025 17:33:32 GMT-0500 (Central Daylight Time),868692.6000000238,A,w,O,w,2703,1,2716.199999988079,865976.4000000358,7130,WL,B,4.0
7,11.763000011444092,immed,48236.99998855591,Thu Apr 17 2025 17:33:32 GMT-0500 (Central Daylight Time),868809.3000000119,A,wi,O,i,79,1,2832.899999976158,865976.4000000358,7130,WL,B,4.0
7,11.946999788284302,immed,48053.0002117157,Thu Apr 17 2025 17:33:32 GMT-0500 (Central Daylight Time),868992.8000000119,A,win,O,n,147,1,3016.399999976158,865976.4000000358,7130,WL,B,4.0
7,12.04699993133545,immed,47953.00006866455,Thu Apr 17 2025 17:33:32 GMT-0500 (Central Daylight Time),869092.9000000358,A,wind,O,d,75,1,3116.5,865976.4000000358,7130,WL,B,4.0
7,12.246999979019165,immed,47753.000020980835,Thu Apr 17 2025 17:33:32 GMT-0500 (Central Daylight Time),869292.6999999881,A,windo,O,o,176,1,3316.2999999523163,865976.4000000358,7130,WL,B,4.0
7,12.379999876022339,immed,47620.00012397766,Thu Apr 17 2025 17:33:32 GMT-0500 (Central Daylight Time),869426.1000000238,A,window,O,w,94,1,3449.699999988079,865976.4000000358,7130,WL,B,4.0
7,12.744999885559082,immed,47255.00011444092,Thu Apr 17 2025 17:33:32 GMT-0500 (Central Daylight Time),869791.6000000238,A,windowenter,O,enter,335,1,3815.199999988079,865976.4000000358,7130,WL,B,4.0
7,13.179999828338623,immed,46820.00017166138,Thu Apr 17 2025 17:33:32 GMT-0500 (Central Daylight Time),870225.6999999881,A,s,O,s,415,1,433.89999997615814,869791.8000000119,7130,WL,B,5.0
7,13.328999996185303,immed,46671.0000038147,Thu Apr 17 2025 17:33:32 GMT-0500 (Central Daylight Time),870375.6999999881,A,st,O,t,116,1,583.8999999761581,869791.8000000119,7130,WL,B,5.0
7,13.895999908447266,immed,46104.000091552734,Thu Apr 17 2025 17:33:32 GMT-0500 (Central Daylight Time),870942.4000000358,A,sta,O,a,534,1,1150.6000000238419,869791.8000000119,7130,WL,B,5.0
7,14.061999797821045,immed,45938.000202178955,Thu Apr 17 2025 17:33:32 GMT-0500 (Central Daylight Time),871108.5,A,star,O,r,125,1,1316.699999988079,869791.8000000119,7130,WL,B,5.0
7,14.477999925613403,immed,45522.0000743866,Thu Apr 17 2025 17:33:32 GMT-0500 (Central Daylight Time),871524.3000000119,A,starenter,O,enter,378,1,1732.5,869791.8000000119,7130,WL,B,5.0
7,15.211999893188477,immed,44788.00010681152,Thu Apr 17 2025 17:33:32 GMT-0500 (Central Daylight Time),872258.4000000358,A,w,O,w,715,1,733.8000000119209,871524.6000000238,7130,WL,B,6.0
7,15.378999948501587,immed,44621.00005149841,Thu Apr 17 2025 17:33:32 GMT-0500 (Central Daylight Time),872424.9000000358,A,wi,O,i,135,1,900.3000000119209,871524.6000000238,7130,WL,B,6.0
7,15.51199984550476,immed,44488.00015449524,Thu Apr 17 2025 17:33:32 GMT-0500 (Central Daylight Time),872557.9000000358,A,wif,O,f,102,1,1033.300000011921,871524.6000000238,7130,WL,B,6.0
7,15.611999988555908,immed,44388.00001144409,Thu Apr 17 2025 17:33:32 GMT-0500 (Central Daylight Time),872657.9000000358,A,wife,O,e,66,1,1133.300000011921,871524.6000000238,7130,WL,B,6.0
7,15.91100001335144,immed,44088.99998664856,Thu Apr 17 2025 17:33:32 GMT-0500 (Central Daylight Time),872957.1000000238,A,wifeenter,O,enter,276,1,1432.5,871524.6000000238,7130,WL,B,6.0
7,17.26099991798401,immed,42739.00008201599,Thu Apr 17 2025 17:33:32 GMT-0500 (Central Daylight Time),874307.6999999881,A,p,O,p,1337,1,1350.2999999523163,872957.4000000358,7130,WL,B,7.0
7,17.42799997329712,immed,42572.00002670288,Thu Apr 17 2025 17:33:32 GMT-0500 (Central Daylight Time),874474.3000000119,A,pu,O,u,130,1,1516.8999999761581,872957.4000000358,7130,WL,B,7.0
7,17.644999980926514,immed,42355.000019073486,Thu Apr 17 2025 17:33:32 GMT-0500 (Central Daylight Time),874691.3000000119,A,pup,O,p,176,1,1733.8999999761581,872957.4000000358,7130,WL,B,7.0
7,17.860999822616577,immed,42139.00017738342,Thu Apr 17 2025 17:33:32 GMT-0500 (Central Daylight Time),874907.6000000238,A,pupi,O,i,175,1,1950.199999988079,872957.4000000358,7130,WL,B,7.0
7,18.044999837875366,immed,41955.000162124634,Thu Apr 17 2025 17:33:32 GMT-0500 (Central Daylight Time),875090.9000000358,A,pupil,O,l,148,1,2133.5,872957.4000000358,7130,WL,B,7.0
7,18.30999994277954,immed,41690.00005722046,Thu Apr 17 2025 17:33:32 GMT-0500 (Central Daylight Time),875356.4000000358,A,pupilenter,O,enter,237,1,2399.0,872957.4000000358,7130,WL,B,7.0
7,18.710999965667725,immed,41289.000034332275,Thu Apr 17 2025 17:33:32 GMT-0500 (Central Daylight Time),875757.1999999881,A,c,O,c,386,1,400.5,875356.6999999881,7130,WL,B,8.0
7,18.793999910354614,immed,41206.000089645386,Thu Apr 17 2025 17:33:32 GMT-0500 (Central Daylight Time),875840.0,A,ca,O,a,43,1,483.30000001192093,875356.6999999881,7130,WL,B,8.0
7,18.99399995803833,immed,41006.00004196167,Thu Apr 17 2025 17:33:32 GMT-0500 (Central Daylight Time),876040.5,A,cab,O,b,183,1,683.8000000119209,875356.6999999881,7130,WL,B,8.0
7,19.128000020980835,immed,40871.999979019165,Thu Apr 17 2025 17:33:32 GMT-0500 (Central Daylight Time),876174.0,A,cabi,O,i,91,1,817.3000000119209,875356.6999999881,7130,WL,B,8.0
7,19.242999792099,immed,40757.000207901,Thu Apr 17 2025 17:33:32 GMT-0500 (Central Daylight Time),876289.5,A,cabin,O,n,83,1,932.8000000119209,875356.6999999881,7130,WL,B,8.0
7,20.242999792099,immed,39757.000207901,Thu Apr 17 2025 17:33:32 GMT-0500 (Central Daylight Time),877289.3000000119,A,cabinenter,O,enter,976,1,1932.6000000238419,875356.6999999881,7130,WL,B,8.0
7,20.626999855041504,immed,39373.000144958496,Thu Apr 17 2025 17:33:32 GMT-0500 (Central Daylight Time),877673.4000000358,A,l,O,l,366,1,383.80000001192093,877289.6000000238,7130,WL,B,9.0
7,20.742999792099,immed,39257.000207901,Thu Apr 17 2025 17:33:32 GMT-0500 (Central Daylight Time),877789.3000000119,A,la,O,a,89,1,499.69999998807907,877289.6000000238,7130,WL,B,9.0
7,21.109999895095825,immed,38890.000104904175,Thu Apr 17 2025 17:33:32 GMT-0500 (Central Daylight Time),878156.3000000119,A,lak,O,k,339,1,866.6999999880791,877289.6000000238,7130,WL,B,9.0
7,21.192999839782715,immed,38807.000160217285,Thu Apr 17 2025 17:33:32 GMT-0500 (Central Daylight Time),878239.1000000238,A,lake,O,e,53,1,949.5,877289.6000000238,7130,WL,B,9.0
7,21.508999824523926,immed,38491.000175476074,Thu Apr 17 2025 17:33:32 GMT-0500 (Central Daylight Time),878555.4000000358,A,lakeenter,O,enter,288,1,1265.800000011921,877289.6000000238,7130,WL,B,9.0
7,22.07699990272522,immed,37923.00009727478,Thu Apr 17 2025 17:33:32 GMT-0500 (Central Daylight Time),879123.1000000238,A,f,O,f,547,1,567.5,878555.6000000238,7130,WL,B,10.0
7,22.174999952316284,immed,37825.000047683716,Thu Apr 17 2025 17:33:32 GMT-0500 (Central Daylight Time),879221.6000000238,A,fi,O,i,70,1,666.0,878555.6000000238,7130,WL,B,10.0
7,22.359999895095825,immed,37640.000104904175,Thu Apr 17 2025 17:33:32 GMT-0500 (Central Daylight Time),879406.1999999881,A,fir,O,r,168,1,850.5999999642372,878555.6000000238,7130,WL,B,10.0
7,22.425999879837036,immed,37574.000120162964,Thu Apr 17 2025 17:33:32 GMT-0500 (Central Daylight Time),879472.0,A,fire,O,e,36,1,916.3999999761581,878555.6000000238,7130,WL,B,10.0
7,22.941999912261963,immed,37058.00008773804,Thu Apr 17 2025 17:33:32 GMT-0500 (Central Daylight Time),879988.3000000119,A,fireenter,O,enter,501,1,1432.699999988079,878555.6000000238,7130,WL,B,10.0
7,23.64299988746643,immed,36357.00011253357,Thu Apr 17 2025 17:33:32 GMT-0500 (Central Daylight Time),880689.1999999881,A,s,O,s,681,1,700.6999999880791,879988.5,7130,WL,B,11.0
7,23.741999864578247,immed,36258.00013542175,Thu Apr 17 2025 17:33:32 GMT-0500 (Central Daylight Time),880788.5,A,sk,O,k,73,1,800.0,879988.5,7130,WL,B,11.0
7,23.991999864578247,immed,36008.00013542175,Thu Apr 17 2025 17:33:32 GMT-0500 (Central Daylight Time),881038.6000000238,A,ski,O,i,232,1,1050.1000000238419,879988.5,7130,WL,B,11.0
7,24.14299988746643,immed,35857.00011253357,Thu Apr 17 2025 17:33:32 GMT-0500 (Central Daylight Time),881188.9000000358,A,skin,O,n,118,1,1200.4000000357628,879988.5,7130,WL,B,11.0
7,24.47499990463257,immed,35525.00009536743,Thu Apr 17 2025 17:33:32 GMT-0500 (Central Daylight Time),881520.9000000358,A,skinenter,O,enter,301,1,1532.4000000357628,879988.5,7130,WL,B,11.0
7,29.340999841690063,immed,30659.000158309937,Thu Apr 17 2025 17:33:32 GMT-0500 (Central Daylight Time),886387.1999999881,A,p,O,p,4853,1,4866.0,881521.1999999881,7130,WL,B,12.0
7,29.94099998474121,immed,30059.00001525879,Thu Apr 17 2025 17:33:32 GMT-0500 (Central Daylight Time),886987.0,A,pi,O,i,569,1,5465.800000011921,881521.1999999881,7130,WL,B,12.0
7,30.348999977111816,immed,29651.000022888184,Thu Apr 17 2025 17:33:32 GMT-0500 (Central Daylight Time),887395.5,A,pip,O,p,369,1,5874.300000011921,881521.1999999881,7130,WL,B,12.0
7,30.490000009536743,immed,29509.999990463257,Thu Apr 17 2025 17:33:32 GMT-0500 (Central Daylight Time),887536.1999999881,A,pipe,O,e,109,1,6015.0,881521.1999999881,7130,WL,B,12.0
7,30.85599994659424,immed,29144.00005340576,Thu Apr 17 2025 17:33:32 GMT-0500 (Central Daylight Time),887902.3000000119,A,pipeenter,O,enter,348,1,6381.100000023842,881521.1999999881,7130,WL,B,12.0
7,37.6710000038147,immed,22328.999996185303,Thu Apr 17 2025 17:33:32 GMT-0500 (Central Daylight Time),894717.6000000238,A,d,O,d,6793,1,6815.0,887902.6000000238,7130,WL,B,13.0
7,37.855000019073486,immed,22144.999980926514,Thu Apr 17 2025 17:33:32 GMT-0500 (Central Daylight Time),894901.1000000238,A,do,O,o,141,1,6998.5,887902.6000000238,7130,WL,B,13.0
7,38.00499987602234,immed,21995.00012397766,Thu Apr 17 2025 17:33:32 GMT-0500 (Central Daylight Time),895050.6999999881,A,doo,O,o,110,1,7148.099999964237,887902.6000000238,7130,WL,B,13.0
7,38.120999813079834,immed,21879.000186920166,Thu Apr 17 2025 17:33:32 GMT-0500 (Central Daylight Time),895166.9000000358,A,door,O,r,81,1,7264.300000011921,887902.6000000238,7130,WL,B,13.0
7,38.436999797821045,immed,21563.000202178955,Thu Apr 17 2025 17:33:32 GMT-0500 (Central Daylight Time),895483.1999999881,A,doorenter,O,enter,292,1,7580.599999964237,887902.6000000238,7130,WL,B,13.0
7,42.70599985122681,immed,17294.000148773193,Thu Apr 17 2025 17:33:32 GMT-0500 (Central Daylight Time),899749.5,A,s,O,s,4252,1,4266.0,895483.5,7130,WL,B,14.0
7,42.787999868392944,immed,17212.000131607056,Thu Apr 17 2025 17:33:32 GMT-0500 (Central Daylight Time),899832.1000000238,A,sk,O,k,57,1,4348.600000023842,895483.5,7130,WL,B,14.0
7,43.90399980545044,immed,16096.00019454956,Thu Apr 17 2025 17:33:32 GMT-0500 (Central Daylight Time),900948.0,A,sky,O,y,1092,1,5464.5,895483.5,7130,WL,B,14.0
7,45.86999988555908,immed,14130.000114440918,Thu Apr 17 2025 17:33:32 GMT-0500 (Central Daylight Time),902914.1999999881,A,skyenter,O,enter,1952,1,7430.699999988079,895483.5,7130,WL,B,14.0
7,60.01599979400635,immed,-15.999794006347656,Thu Apr 17 2025 17:33:32 GMT-0500 (Central Daylight Time),917060.3000000119,A,None,O,None,14140,1,14145.899999976158,902914.4000000358,7130,WL,B,15.0
