acc_sum,block,block_c,condition,correct,correct_response,datetime,endtime,flanker,jitter,project,response,response_test_buffer_response,response_test_target_response,response_time,response_time_test_buffer_response,response_time_test_target_response,row_sel,session_number,start_end,starttime,subject_id,target,task,task_vers,time_test_buffer,time_test_buffer_response,time_test_constants,time_test_flanker,time_test_jitter,time_test_logger,time_test_target,time_test_target_response,time_test_variables,trial
0,prac,1,inc,0,m,Tue Apr 29 2025 09:53:41 GMT-0400 (Eastern Daylight Time),177222.60000038147,raisin,1100,I,None,,,1815,,,12,1,5174.300000190735,172048.30000019073,9015,cobalt,NF,C,,,,,,,,,,1
0,prac,1,con,0,z,Tue Apr 29 2025 09:53:41 GMT-0400 (Eastern Daylight Time),182305.69999980927,kiwi,1000,I,None,,,1799,,,7,1,5071.699999809265,177234.0,9015,kiwi,NF,C,,,,,,,,,,2
1,prac,1,con,1,m,Tue Apr 29 2025 09:53:41 GMT-0400 (Eastern Daylight Time),184472.39999961853,bronze,800,I,m,,,61,,,9,1,2156.5,182315.89999961853,9015,bronze,NF,C,,,,,,,,,,3
1,prac,1,inc,0,m,Tue Apr 29 2025 09:53:41 GMT-0400 (Eastern Daylight Time),187472.19999980927,plum,1100,I,z,,,587,,,16,1,2989.3999996185303,184482.80000019073,9015,lead,NF,C,,,,,,,,,,4
2,prac,1,inc,1,m,Tue Apr 29 2025 09:53:41 GMT-0400 (Eastern Daylight Time),190089.10000038147,pear,900,I,m,,,409,,,14,1,2605.1000003814697,187484.0,9015,iron,NF,C,,,,,,,,,,5
3,prac,1,con,1,z,Tue Apr 29 2025 09:53:41 GMT-0400 (Eastern Daylight Time),192905.80000019073,orange,1000,I,z,,,509,,,3,1,2806.6000003814697,190099.19999980927,9015,orange,NF,C,,,,,,,,,,6
4,prac,1,inc,1,z,Tue Apr 29 2025 09:53:41 GMT-0400 (Eastern Daylight Time),195522.39999961853,iron,900,I,z,,,400,,,6,1,2606.2999992370605,192916.10000038147,9015,pear,NF,C,,,,,,,,,,7
4,prac,1,inc,0,z,Tue Apr 29 2025 09:53:41 GMT-0400 (Eastern Daylight Time),198372.30000019073,lead,1100,I,m,,,448,,,8,1,2839.4000005722046,195532.89999961853,9015,plum,NF,C,,,,,,,,,,8
5,prac,1,con,1,m,Tue Apr 29 2025 09:53:41 GMT-0400 (Eastern Daylight Time),200872.19999980927,gold,800,I,m,,,394,,,13,1,2490.5999994277954,198381.60000038147,9015,gold,NF,C,,,,,,,,,,9
5,prac,1,inc,0,m,Tue Apr 29 2025 09:53:41 GMT-0400 (Eastern Daylight Time),203438.89999961853,cherry,900,I,z,,,354,,,10,1,2556.199999809265,200882.69999980927,9015,copper,NF,C,,,,,,,,,,10
6,prac,1,con,1,m,Tue Apr 29 2025 09:53:41 GMT-0400 (Eastern Daylight Time),206122.39999961853,silver,1000,I,m,,,375,,,11,1,2673.5,203448.89999961853,9015,silver,NF,C,,,,,,,,,,11
7,prac,1,con,1,z,Tue Apr 29 2025 09:53:41 GMT-0400 (Eastern Daylight Time),208572.30000019073,banana,800,I,z,,,339,,,1,1,2438.4000005722046,206133.89999961853,9015,banana,NF,C,,,,,,,,,,12
8,prac,1,inc,1,z,Tue Apr 29 2025 09:53:41 GMT-0400 (Eastern Daylight Time),211305.60000038147,copper,900,I,z,,,526,,,2,1,2724.6000003814697,208581.0,9015,cherry,NF,C,,,,,,,,,,13
9,prac,1,con,1,m,Tue Apr 29 2025 09:53:41 GMT-0400 (Eastern Daylight Time),213955.60000038147,zinc,1000,I,m,,,348,,,15,1,2641.800000190735,211313.80000019073,9015,zinc,NF,C,,,,,,,,,,14
10,prac,1,inc,1,z,Tue Apr 29 2025 09:53:41 GMT-0400 (Eastern Daylight Time),216789.10000038147,cobalt,1100,I,z,,,430,,,4,1,2824.5,213964.60000038147,9015,raisin,NF,C,,,,,,,,,,15
11,prac,1,con,1,z,Tue Apr 29 2025 09:53:41 GMT-0400 (Eastern Daylight Time),219355.69999980927,lime,800,I,z,,,457,,,5,1,2557.8999996185303,216797.80000019073,9015,lime,NF,C,,,,,,,,,,16
1,prac,2,con,1,z,Tue Apr 29 2025 09:53:41 GMT-0400 (Eastern Daylight Time),233388.80000019073,lime,800,I,z,,,506,,,5,1,2611.0,230777.80000019073,9015,lime,NF,C,,,,,,,,,,1
2,prac,2,con,1,m,Tue Apr 29 2025 09:53:41 GMT-0400 (Eastern Daylight Time),235855.5,bronze,800,I,m,,,353,,,9,1,2456.800000190735,233398.69999980927,9015,bronze,NF,C,,,,,,,,,,2
3,prac,2,con,1,z,Tue Apr 29 2025 09:53:41 GMT-0400 (Eastern Daylight Time),238372.19999980927,banana,800,I,z,,,415,,,1,1,2507.300000190735,235864.89999961853,9015,banana,NF,C,,,,,,,,,,3
4,prac,2,con,1,z,Tue Apr 29 2025 09:53:41 GMT-0400 (Eastern Daylight Time),241055.60000038147,orange,1000,I,z,,,370,,,3,1,2674.0,238381.60000038147,9015,orange,NF,C,,,,,,,,,,4
5,prac,2,con,1,m,Tue Apr 29 2025 09:53:41 GMT-0400 (Eastern Daylight Time),243455.60000038147,gold,800,I,m,,,287,,,13,1,2389.7000007629395,241065.89999961853,9015,gold,NF,C,,,,,,,,,,5
6,prac,2,inc,1,m,Tue Apr 29 2025 09:53:41 GMT-0400 (Eastern Daylight Time),246022.19999980927,pear,900,I,m,,,362,,,14,1,2557.800000190735,243464.39999961853,9015,iron,NF,C,,,,,,,,,,6
6,prac,2,inc,0,m,Tue Apr 29 2025 09:53:41 GMT-0400 (Eastern Daylight Time),248838.80000019073,raisin,1100,I,z,,,412,,,12,1,2807.4000005722046,246031.39999961853,9015,cobalt,NF,C,,,,,,,,,,7
6,prac,2,con,0,m,Tue Apr 29 2025 09:53:41 GMT-0400 (Eastern Daylight Time),251488.80000019073,silver,1000,I,z,,,335,,,11,1,2640.199999809265,248848.60000038147,9015,silver,NF,C,,,,,,,,,,8
7,prac,2,inc,1,m,Tue Apr 29 2025 09:53:41 GMT-0400 (Eastern Daylight Time),254438.89999961853,cherry,900,I,m,,,745,,,10,1,2940.0,251498.89999961853,9015,copper,NF,C,,,,,,,,,,9
8,prac,2,con,1,m,Tue Apr 29 2025 09:53:41 GMT-0400 (Eastern Daylight Time),257139.0,zinc,1000,I,m,,,383,,,15,1,2688.699999809265,254450.30000019073,9015,zinc,NF,C,,,,,,,,,,10
9,prac,2,inc,1,m,Tue Apr 29 2025 09:53:41 GMT-0400 (Eastern Daylight Time),259938.89999961853,plum,1100,I,m,,,383,,,16,1,2790.2999992370605,257148.60000038147,9015,lead,NF,C,,,,,,,,,,11
10,prac,2,inc,1,z,Tue Apr 29 2025 09:53:41 GMT-0400 (Eastern Daylight Time),262755.60000038147,lead,1100,I,z,,,399,,,8,1,2807.2000007629395,259948.39999961853,9015,plum,NF,C,,,,,,,,,,12
11,prac,2,con,1,z,Tue Apr 29 2025 09:53:41 GMT-0400 (Eastern Daylight Time),265439.0,kiwi,1000,I,z,,,371,,,7,1,2672.6000003814697,262766.39999961853,9015,kiwi,NF,C,,,,,,,,,,13
11,prac,2,inc,0,z,Tue Apr 29 2025 09:53:41 GMT-0400 (Eastern Daylight Time),268038.69999980927,copper,900,I,m,,,396,,,2,1,2588.5999994277954,265450.10000038147,9015,cherry,NF,C,,,,,,,,,,14
12,prac,2,inc,1,z,Tue Apr 29 2025 09:53:41 GMT-0400 (Eastern Daylight Time),270771.69999980927,iron,900,I,z,,,514,,,6,1,2718.0999994277954,268053.60000038147,9015,pear,NF,C,,,,,,,,,,15
13,prac,2,inc,1,z,Tue Apr 29 2025 09:53:41 GMT-0400 (Eastern Daylight Time),273655.69999980927,cobalt,1100,I,z,,,478,,,4,1,2878.5,270777.19999980927,9015,raisin,NF,C,,,,,,,,,,16
1,test,1,con,1,m,Tue Apr 29 2025 09:53:41 GMT-0400 (Eastern Daylight Time),309472.39999961853,copper,900,I,m,m,None,420,221.0,199.0,74,1,1858.2999992370605,307614.10000038147,9015,copper,NF,C,300904,300904,299279,300188,299280,301138,300705,300705,301137,1
2,test,1,con,1,m,Tue Apr 29 2025 09:53:41 GMT-0400 (Eastern Daylight Time),311305.60000038147,bronze,900,I,m,m,None,394,195.0,199.0,66,1,1824.5,309481.10000038147,9015,bronze,NF,C,302771,302771,301146,302055,301147,302971,302571,302571,302970,2
3,test,1,inc,1,z,Tue Apr 29 2025 09:53:41 GMT-0400 (Eastern Daylight Time),313338.60000038147,cobalt,1100,I,z,z,None,393,194.0,199.0,16,1,2021.7000007629395,311316.89999961853,9015,cherry,NF,C,304804,304804,302982,304088,302983,305004,304605,304605,305004,3
4,test,1,con,1,m,Tue Apr 29 2025 09:53:41 GMT-0400 (Eastern Daylight Time),315205.39999961853,zinc,900,I,m,m,None,431,232.0,199.0,114,1,1857.3999996185303,313348.0,9015,zinc,NF,C,306638,306638,305013,305921,305013,306871,306438,306438,306870,4
5,test,1,con,1,z,Tue Apr 29 2025 09:53:41 GMT-0400 (Eastern Daylight Time),317122.10000038147,cherry,1000,I,z,z,None,370,170.0,200.0,11,1,1908.2000007629395,315213.89999961853,9015,cherry,NF,C,308604,308604,306879,307888,306879,308787,308404,308404,308787,5
5,test,1,con,0,m,Tue Apr 29 2025 09:53:41 GMT-0400 (Eastern Daylight Time),318955.5,silver,900,I,z,z,None,392,193.0,199.0,82,1,1824.8000001907349,317130.69999980927,9015,silver,NF,C,310421,310421,308796,309704,308796,310621,310221,310221,310620,6
6,test,1,inc,1,z,Tue Apr 29 2025 09:53:41 GMT-0400 (Eastern Daylight Time),320972.10000038147,zinc,1000,I,z,z,None,475,276.0,199.0,63,1,2008.2000007629395,318963.89999961853,9015,plum,NF,C,312354,312354,310629,311638,310629,312637,312154,312155,312637,7
7,test,1,con,1,m,Tue Apr 29 2025 09:53:41 GMT-0400 (Eastern Daylight Time),322572.10000038147,gold,800,I,m,m,None,258,59.0,199.0,97,1,1588.4000005722046,320983.69999980927,9015,gold,NF,C,314170,314170,312649,313454,312649,314237,313971,313971,314237,8
8,test,1,con,1,z,Tue Apr 29 2025 09:53:41 GMT-0400 (Eastern Daylight Time),324272.19999980927,kiwi,800,I,z,z,None,354,155.0,199.0,49,1,1691.8000001907349,322580.39999961853,9015,kiwi,NF,C,315771,315771,314245,315055,314246,315937,315571,315571,315937,9
9,test,1,inc,1,z,Tue Apr 29 2025 09:53:41 GMT-0400 (Eastern Daylight Time),326188.69999980927,iron,900,I,z,z,None,475,276.0,199.0,62,1,1908.1999998092651,324280.5,9015,plum,NF,C,317570,317570,315946,316854,315946,317854,317371,317371,317854,10
9,test,1,inc,0,z,Tue Apr 29 2025 09:53:41 GMT-0400 (Eastern Daylight Time),328222.0,lead,1100,I,m,m,None,389,190.0,199.0,40,1,2024.8999996185303,326197.10000038147,9015,lime,NF,C,319688,319688,317862,318971,317863,319887,319488,319488,319887,11
9,test,1,inc,0,m,Tue Apr 29 2025 09:53:41 GMT-0400 (Eastern Daylight Time),330105.5,orange,1000,I,z,z,None,344,145.0,199.0,71,1,1874.8999996185303,328230.60000038147,9015,bronze,NF,C,321621,321621,319896,320904,319896,321771,321421,321421,321770,12
10,test,1,inc,1,m,Tue Apr 29 2025 09:53:41 GMT-0400 (Eastern Daylight Time),332055.39999961853,cherry,900,I,m,m,None,514,314.0,200.0,70,1,1941.0999994277954,330114.30000019073,9015,bronze,NF,C,323404,323404,321779,322688,321780,323720,323204,323204,323720,13
11,test,1,inc,1,z,Tue Apr 29 2025 09:53:41 GMT-0400 (Eastern Daylight Time),333855.5,iron,900,I,z,z,None,338,139.0,199.0,54,1,1785.1999998092651,332070.30000019073,9015,kiwi,NF,C,325371,325371,323735,324654,323737,325521,325171,325171,325520,14
12,test,1,con,1,z,Tue Apr 29 2025 09:53:41 GMT-0400 (Eastern Daylight Time),335955.5,orange,1000,I,z,z,None,550,351.0,199.0,19,1,2091.199999809265,333864.30000019073,9015,orange,NF,C,327254,327254,325529,326538,325530,327621,327055,327055,327620,15
13,test,1,inc,1,m,Tue Apr 29 2025 09:53:41 GMT-0400 (Eastern Daylight Time),337855.30000019073,pear,900,I,m,m,None,456,256.0,200.0,126,1,1891.0,335964.30000019073,9015,lead,NF,C,329254,329254,327629,328538,327630,329520,329054,329054,329520,16
14,test,1,con,1,m,Tue Apr 29 2025 09:53:41 GMT-0400 (Eastern Daylight Time),339905.39999961853,iron,1100,I,m,m,None,403,204.0,199.0,108,1,2040.8999996185303,337864.5,9015,iron,NF,C,331354,331354,329530,330638,329530,331571,331155,331155,331570,17
15,test,1,con,1,z,Tue Apr 29 2025 09:53:41 GMT-0400 (Eastern Daylight Time),342055.10000038147,raisin,1100,I,z,z,None,513,314.0,199.0,28,1,2138.800000190735,339916.30000019073,9015,raisin,NF,C,333404,333404,331581,332687,331582,333720,333204,333205,333720,18
16,test,1,inc,1,m,Tue Apr 29 2025 09:53:41 GMT-0400 (Eastern Daylight Time),344023.0,kiwi,1000,I,m,m,None,431,232.0,199.0,111,1,1958.6000003814697,342064.39999961853,9015,iron,NF,C,335454,335454,333729,334738,333730,335688,335254,335254,335688,19
17,test,1,con,1,m,Tue Apr 29 2025 09:53:41 GMT-0400 (Eastern Daylight Time),345989.39999961853,gold,1100,I,m,m,None,332,133.0,199.0,100,1,1958.2999992370605,344031.10000038147,9015,gold,NF,C,337521,337521,335696,336804,335697,337654,337321,337321,337654,20
18,test,1,con,1,m,Tue Apr 29 2025 09:53:41 GMT-0400 (Eastern Daylight Time),348038.5,bronze,1000,I,m,m,None,513,314.0,199.0,67,1,2041.3000001907349,345997.19999980927,9015,bronze,NF,C,339387,339388,337662,338671,337663,339704,339188,339188,339703,21
19,test,1,con,1,m,Tue Apr 29 2025 09:53:41 GMT-0400 (Eastern Daylight Time),350072.0,lead,1000,I,m,m,None,495,296.0,199.0,123,1,2025.1000003814697,348046.89999961853,9015,lead,NF,C,341437,341438,339712,340721,339712,341737,341238,341238,341737,22
19,test,1,con,0,z,Tue Apr 29 2025 09:53:41 GMT-0400 (Eastern Daylight Time),353505.30000019073,raisin,900,I,None,None,None,1799,1799.0,199.0,26,1,3424.6000003814697,350080.69999980927,9015,raisin,NF,C,343371,343371,341746,342654,341746,345170,343171,343171,345170,23
20,test,1,inc,1,z,Tue Apr 29 2025 09:53:41 GMT-0400 (Eastern Daylight Time),355455.5,zinc,1000,I,z,z,None,406,206.0,200.0,47,1,1941.3999996185303,353514.10000038147,9015,pear,NF,C,346904,346904,345179,346188,345180,347121,346704,346704,347120,24
21,test,1,con,1,z,Tue Apr 29 2025 09:53:41 GMT-0400 (Eastern Daylight Time),357521.89999961853,kiwi,1100,I,z,z,None,419,219.0,200.0,52,1,2055.699999809265,355466.19999980927,9015,kiwi,NF,C,348954,348954,347131,348238,347132,349187,348754,348754,349187,25
22,test,1,inc,1,m,Tue Apr 29 2025 09:53:41 GMT-0400 (Eastern Daylight Time),359388.5,cherry,900,I,m,m,None,424,225.0,199.0,86,1,1858.8999996185303,357529.60000038147,9015,silver,NF,C,350821,350821,349195,350104,349195,351054,350621,350621,351054,26
23,test,1,con,1,z,Tue Apr 29 2025 09:53:41 GMT-0400 (Eastern Daylight Time),361271.89999961853,cherry,900,I,z,z,None,446,246.0,200.0,10,1,1874.0,359397.89999961853,9015,cherry,NF,C,352687,352688,351063,351971,351063,352937,352487,352487,352937,27
24,test,1,con,1,m,Tue Apr 29 2025 09:53:41 GMT-0400 (Eastern Daylight Time),363189.19999980927,cobalt,1000,I,m,m,None,382,183.0,199.0,91,1,1908.5999994277954,361280.60000038147,9015,cobalt,NF,C,354671,354671,352946,353954,352946,354854,354471,354471,354854,28
25,test,1,inc,1,z,Tue Apr 29 2025 09:53:41 GMT-0400 (Eastern Daylight Time),365038.60000038147,gold,800,I,z,z,None,505,306.0,199.0,61,1,1841.0,363197.60000038147,9015,plum,NF,C,356387,356388,354863,355671,354863,356704,356188,356188,356704,29
25,test,1,con,0,m,Tue Apr 29 2025 09:53:41 GMT-0400 (Eastern Daylight Time),367071.89999961853,zinc,1100,I,z,z,None,387,188.0,199.0,116,1,2024.0,365047.89999961853,9015,zinc,NF,C,358538,358538,356713,357821,356713,358737,358338,358338,358737,30
26,test,1,inc,1,z,Tue Apr 29 2025 09:53:41 GMT-0400 (Eastern Daylight Time),369088.80000019073,silver,1000,I,z,z,None,470,271.0,199.0,23,1,2007.4000005722046,367081.39999961853,9015,orange,NF,C,360471,360471,358746,359754,358747,360754,360271,360271,360754,31
27,test,1,con,1,m,Tue Apr 29 2025 09:53:41 GMT-0400 (Eastern Daylight Time),370755.30000019073,bronze,800,I,m,m,None,316,117.0,199.0,65,1,1658.0,369097.30000019073,9015,bronze,NF,C,362288,362288,360762,361571,360763,362420,362088,362088,362420,32
28,test,1,con,1,z,Tue Apr 29 2025 09:53:41 GMT-0400 (Eastern Daylight Time),372888.39999961853,banana,1000,I,z,z,None,595,396.0,199.0,3,1,2123.5999994277954,370764.80000019073,9015,banana,NF,C,364154,364154,362430,363438,362430,364554,363954,363954,364553,33
29,test,1,con,1,m,Tue Apr 29 2025 09:53:41 GMT-0400 (Eastern Daylight Time),374788.89999961853,silver,1000,I,m,m,None,366,167.0,199.0,83,1,1891.5999994277954,372897.30000019073,9015,silver,NF,C,366287,366287,364562,365571,364563,366454,366088,366088,366454,34
30,test,1,inc,1,z,Tue Apr 29 2025 09:53:41 GMT-0400 (Eastern Daylight Time),376705.19999980927,bronze,800,I,z,z,None,569,370.0,199.0,5,1,1906.5999994277954,374798.60000038147,9015,banana,NF,C,367988,367988,366464,367271,366464,368370,367788,367788,368370,35
31,test,1,inc,1,z,Tue Apr 29 2025 09:53:41 GMT-0400 (Eastern Daylight Time),379038.60000038147,lead,1100,I,z,z,None,690,490.0,200.0,64,1,2323.4000005722046,376715.19999980927,9015,plum,NF,C,370204,370204,368380,369488,368381,370704,370004,370004,370704,36
32,test,1,inc,1,m,Tue Apr 29 2025 09:53:41 GMT-0400 (Eastern Daylight Time),381105.39999961853,lime,800,I,m,m,None,719,520.0,199.0,125,1,2057.5999994277954,379047.80000019073,9015,lead,NF,C,372237,372238,370713,371521,370713,372771,372038,372038,372770,37
33,test,1,con,1,m,Tue Apr 29 2025 09:53:41 GMT-0400 (Eastern Daylight Time),382855.10000038147,iron,900,I,m,m,None,313,114.0,199.0,106,1,1741.6000003814697,381113.5,9015,iron,NF,C,374404,374404,372779,373688,372779,374520,374204,374204,374520,38
34,test,1,con,1,m,Tue Apr 29 2025 09:53:41 GMT-0400 (Eastern Daylight Time),384688.5,lead,900,I,m,m,None,404,205.0,199.0,122,1,1824.3000001907349,382864.19999980927,9015,lead,NF,C,376137,376137,374529,375437,374530,376354,375938,375938,376354,39
35,test,1,inc,1,z,Tue Apr 29 2025 09:53:41 GMT-0400 (Eastern Daylight Time),386588.5,silver,1000,I,z,z,None,357,158.0,199.0,31,1,1890.3999996185303,384698.10000038147,9015,raisin,NF,C,378087,378088,376363,377371,376363,378254,377888,377888,378254,40
36,test,1,con,1,m,Tue Apr 29 2025 09:53:41 GMT-0400 (Eastern Daylight Time),388371.89999961853,iron,800,I,m,m,None,433,234.0,199.0,105,1,1772.6999998092651,386599.19999980927,9015,iron,NF,C,379787,379787,378264,379071,378265,380037,379588,379588,380037,41
37,test,1,con,1,z,Tue Apr 29 2025 09:53:41 GMT-0400 (Eastern Daylight Time),390521.89999961853,orange,1100,I,z,z,None,510,311.0,199.0,20,1,2141.0,388380.89999961853,9015,orange,NF,C,381871,381871,380046,381154,380046,382187,381671,381671,382187,42
38,test,1,inc,1,z,Tue Apr 29 2025 09:53:41 GMT-0400 (Eastern Daylight Time),392321.80000019073,bronze,800,I,z,z,None,452,253.0,199.0,21,1,1791.1000003814697,390530.69999980927,9015,orange,NF,C,383721,383721,382196,383004,382196,383987,383521,383521,383987,43
39,test,1,inc,1,z,Tue Apr 29 2025 09:53:41 GMT-0400 (Eastern Daylight Time),394355.19999980927,silver,1000,I,z,z,None,483,284.0,199.0,7,1,2024.3000001907349,392330.89999961853,9015,banana,NF,C,385721,385721,383996,385004,383996,386020,385521,385521,386020,44
40,test,1,con,1,z,Tue Apr 29 2025 09:53:41 GMT-0400 (Eastern Daylight Time),396272.10000038147,lime,800,I,z,z,None,571,371.0,200.0,33,1,1908.1000003814697,394364.0,9015,lime,NF,C,387555,387555,386029,386837,386030,387937,387354,387354,387937,45
41,test,1,inc,1,m,Tue Apr 29 2025 09:53:41 GMT-0400 (Eastern Daylight Time),398205.30000019073,kiwi,1000,I,m,m,None,390,191.0,199.0,127,1,1924.6000003814697,396280.69999980927,9015,lead,NF,C,389671,389671,387946,388954,387946,389870,389471,389471,389870,46
42,test,1,inc,1,m,Tue Apr 29 2025 09:53:41 GMT-0400 (Eastern Daylight Time),399972.0,lime,800,I,m,m,None,416,217.0,199.0,109,1,1758.5,398213.5,9015,iron,NF,C,391404,391404,389879,390688,389879,391637,391204,391204,391637,47
43,test,1,con,1,m,Tue Apr 29 2025 09:53:41 GMT-0400 (Eastern Daylight Time),401721.89999961853,silver,800,I,m,m,None,410,211.0,199.0,81,1,1739.0999994277954,399982.80000019073,9015,silver,NF,C,393171,393171,391648,392454,391648,393387,392971,392971,393387,48
44,test,1,con,1,m,Tue Apr 29 2025 09:53:41 GMT-0400 (Eastern Daylight Time),403638.39999961853,zinc,1000,I,m,m,None,379,180.0,199.0,115,1,1907.7999992370605,401730.60000038147,9015,zinc,NF,C,395121,395121,393396,394404,393396,395303,394921,394921,395303,49
45,test,1,inc,1,z,Tue Apr 29 2025 09:53:41 GMT-0400 (Eastern Daylight Time),405755.30000019073,cobalt,1100,I,z,z,None,476,277.0,199.0,8,1,2108.199999809265,403647.10000038147,9015,banana,NF,C,397137,397137,395312,396421,395313,397420,396938,396938,397420,50
46,test,1,con,1,z,Tue Apr 29 2025 09:53:41 GMT-0400 (Eastern Daylight Time),407755.19999980927,banana,1100,I,z,z,None,360,160.0,200.0,4,1,1991.5999994277954,405763.60000038147,9015,banana,NF,C,399254,399254,397429,398538,397429,399420,399054,399054,399420,51
47,test,1,inc,1,m,Tue Apr 29 2025 09:53:41 GMT-0400 (Eastern Daylight Time),409822.0,plum,1100,I,m,m,None,423,224.0,199.0,112,1,2057.199999809265,407764.80000019073,9015,iron,NF,C,401254,401254,399430,400538,399430,401487,401054,401054,401487,52
48,test,1,inc,1,z,Tue Apr 29 2025 09:53:41 GMT-0400 (Eastern Daylight Time),411621.60000038147,bronze,800,I,z,z,None,463,264.0,199.0,13,1,1790.0,409831.60000038147,9015,cherry,NF,C,403021,403021,401497,402304,401497,403287,402821,402821,403286,53
49,test,1,con,1,z,Tue Apr 29 2025 09:53:41 GMT-0400 (Eastern Daylight Time),413638.39999961853,kiwi,1000,I,z,z,None,480,281.0,199.0,51,1,2007.1999998092651,411631.19999980927,9015,kiwi,NF,C,405021,405021,403296,404304,403297,405303,404821,404821,405303,54
50,test,1,inc,1,m,Tue Apr 29 2025 09:53:41 GMT-0400 (Eastern Daylight Time),415438.5,pear,900,I,m,m,None,355,156.0,199.0,118,1,1791.3999996185303,413647.10000038147,9015,zinc,NF,C,406938,406938,405312,406221,405312,407104,406738,406738,407104,55
51,test,1,inc,1,z,Tue Apr 29 2025 09:53:41 GMT-0400 (Eastern Daylight Time),417355.19999980927,copper,900,I,z,z,None,476,277.0,199.0,6,1,1907.3000001907349,415447.89999961853,9015,banana,NF,C,408737,408737,407113,408021,407113,409020,408538,408538,409020,56
52,test,1,con,1,m,Tue Apr 29 2025 09:53:41 GMT-0400 (Eastern Daylight Time),419121.80000019073,cobalt,900,I,m,m,None,319,120.0,199.0,90,1,1757.6999998092651,417364.10000038147,9015,cobalt,NF,C,410654,410654,409029,409937,409029,410787,410454,410454,410787,57
53,test,1,inc,1,z,Tue Apr 29 2025 09:53:41 GMT-0400 (Eastern Daylight Time),420988.19999980927,copper,900,I,z,z,None,423,224.0,199.0,30,1,1856.6999998092651,419131.5,9015,raisin,NF,C,412421,412421,410797,411704,410797,412653,412221,412221,412653,58
54,test,1,inc,1,m,Tue Apr 29 2025 09:53:41 GMT-0400 (Eastern Daylight Time),423072.0,orange,1000,I,m,m,None,538,339.0,199.0,95,1,2078.0,420994.0,9015,cobalt,NF,C,414387,414387,412659,413671,412660,414737,414188,414188,414737,59
55,test,1,inc,1,z,Tue Apr 29 2025 09:53:41 GMT-0400 (Eastern Daylight Time),425105.19999980927,lead,1100,I,z,z,None,386,187.0,199.0,48,1,2024.3999996185303,423080.80000019073,9015,pear,NF,C,416571,416571,414746,415854,414746,416770,416371,416371,416770,60
56,test,1,con,1,m,Tue Apr 29 2025 09:53:41 GMT-0400 (Eastern Daylight Time),426788.39999961853,copper,800,I,m,m,None,333,134.0,199.0,73,1,1675.0999994277954,425113.30000019073,9015,copper,NF,C,418304,418304,416778,417588,416779,418454,418104,418104,418453,61
57,test,1,con,1,z,Tue Apr 29 2025 09:53:41 GMT-0400 (Eastern Daylight Time),428655.19999980927,orange,800,I,z,z,None,522,323.0,199.0,17,1,1857.5999994277954,426797.60000038147,9015,orange,NF,C,419987,419987,418463,419271,418463,420320,419788,419788,420320,62
58,test,1,inc,1,z,Tue Apr 29 2025 09:53:41 GMT-0400 (Eastern Daylight Time),430621.89999961853,copper,900,I,z,z,None,524,324.0,200.0,22,1,1956.3999996185303,428665.5,9015,orange,NF,C,421954,421954,420331,421237,420331,422287,421754,421754,422287,63
59,test,1,con,1,m,Tue Apr 29 2025 09:53:41 GMT-0400 (Eastern Daylight Time),432505.30000019073,copper,1000,I,m,m,None,343,144.0,199.0,75,1,1874.8000001907349,430630.5,9015,copper,NF,C,424021,424021,422296,423304,422296,424170,423821,423821,424170,64
59,test,1,inc,0,m,Tue Apr 29 2025 09:53:41 GMT-0400 (Eastern Daylight Time),434555.19999980927,raisin,1100,I,z,z,None,409,210.0,199.0,88,1,2041.8000001907349,432513.39999961853,9015,silver,NF,C,426004,426004,424178,425287,424179,426220,425804,425804,426220,65
60,test,1,con,1,m,Tue Apr 29 2025 09:53:41 GMT-0400 (Eastern Daylight Time),436655.10000038147,lead,1100,I,m,m,None,455,256.0,199.0,124,1,2090.300000190735,434564.80000019073,9015,lead,NF,C,428054,428054,426230,427337,426230,428320,427854,427854,428320,66
61,test,1,con,1,m,Tue Apr 29 2025 09:53:41 GMT-0400 (Eastern Daylight Time),438655.19999980927,silver,1100,I,m,m,None,355,156.0,199.0,84,1,1991.1999998092651,436664.0,9015,silver,NF,C,430154,430154,428329,429437,428329,430320,429954,429954,430320,67
62,test,1,inc,1,z,Tue Apr 29 2025 09:53:41 GMT-0400 (Eastern Daylight Time),440455.10000038147,iron,900,I,z,z,None,363,164.0,199.0,38,1,1790.9000005722046,438664.19999980927,9015,lime,NF,C,431954,431954,430329,431237,430330,432120,431754,431754,432120,68
63,test,1,inc,1,m,Tue Apr 29 2025 09:53:41 GMT-0400 (Eastern Daylight Time),442205.19999980927,banana,800,I,m,m,None,406,207.0,199.0,85,1,1741.0,440464.19999980927,9015,silver,NF,C,433654,433654,432129,432938,432130,433870,433454,433454,433870,69
64,test,1,inc,1,m,Tue Apr 29 2025 09:53:41 GMT-0400 (Eastern Daylight Time),444138.5,cherry,900,I,m,m,None,493,294.0,199.0,78,1,1924.8000001907349,442213.69999980927,9015,copper,NF,C,435504,435504,433879,434788,433879,435804,435304,435304,435803,70
65,test,1,con,1,z,Tue Apr 29 2025 09:53:41 GMT-0400 (Eastern Daylight Time),446288.39999961853,pear,1100,I,z,z,None,502,303.0,199.0,44,1,2140.5999994277954,444147.80000019073,9015,pear,NF,C,437637,437638,435813,436921,435813,437954,437438,437438,437953,71
66,test,1,inc,1,z,Tue Apr 29 2025 09:53:41 GMT-0400 (Eastern Daylight Time),448305.10000038147,copper,900,I,z,z,None,570,371.0,199.0,14,1,2005.9000005722046,446299.19999980927,9015,cherry,NF,C,439587,439587,437964,438871,437965,439970,439388,439388,439970,72
67,test,1,con,1,z,Tue Apr 29 2025 09:53:41 GMT-0400 (Eastern Daylight Time),450371.80000019073,lime,900,I,z,z,None,617,417.0,200.0,34,1,2057.800000190735,448314.0,9015,lime,NF,C,441604,441604,439979,440888,439979,442037,441404,441404,442037,73
68,test,1,con,1,m,Tue Apr 29 2025 09:53:41 GMT-0400 (Eastern Daylight Time),452371.80000019073,bronze,1100,I,m,m,None,350,151.0,199.0,68,1,1990.9000005722046,450380.89999961853,9015,bronze,NF,C,443870,443870,442046,443154,442046,444037,443671,443671,444037,74
69,test,1,inc,1,m,Tue Apr 29 2025 09:53:41 GMT-0400 (Eastern Daylight Time),454389.0,raisin,1100,I,m,m,None,381,182.0,199.0,72,1,2008.0,452381.0,9015,bronze,NF,C,445871,445871,444046,445154,444046,446054,445671,445671,446054,75
70,test,1,inc,1,m,Tue Apr 29 2025 09:53:41 GMT-0400 (Eastern Daylight Time),456455.10000038147,plum,1100,I,m,m,None,429,214.0,215.0,104,1,2058.0,454397.10000038147,9015,gold,NF,C,447904,447904,446062,447171,446063,448120,447689,447689,448120,76
71,test,1,inc,1,z,Tue Apr 29 2025 09:53:41 GMT-0400 (Eastern Daylight Time),458355.19999980927,bronze,800,I,z,z,None,551,352.0,199.0,29,1,1890.1999998092651,456465.0,9015,raisin,NF,C,449654,449654,448130,448937,448130,450020,449454,449454,450020,77
72,test,1,con,1,z,Tue Apr 29 2025 09:53:41 GMT-0400 (Eastern Daylight Time),460521.80000019073,cherry,1100,I,z,z,None,525,326.0,199.0,12,1,2155.800000190735,458366.0,9015,cherry,NF,C,451854,451855,450031,451137,450032,452187,451654,451654,452187,78
73,test,1,con,1,m,Tue Apr 29 2025 09:53:41 GMT-0400 (Eastern Daylight Time),462471.80000019073,iron,1000,I,m,m,None,411,212.0,199.0,107,1,1941.1999998092651,460530.60000038147,9015,iron,NF,C,453921,453921,452196,453205,452196,454137,453721,453721,454137,79
74,test,1,inc,1,m,Tue Apr 29 2025 09:53:41 GMT-0400 (Eastern Daylight Time),464388.5,kiwi,1000,I,m,m,None,366,167.0,199.0,103,1,1906.1000003814697,462482.39999961853,9015,gold,NF,C,455871,455871,454147,455154,454148,456054,455671,455671,456054,80
75,test,1,con,1,z,Tue Apr 29 2025 09:53:41 GMT-0400 (Eastern Daylight Time),466321.80000019073,raisin,800,I,z,z,None,585,386.0,199.0,25,1,1923.6999998092651,464398.10000038147,9015,raisin,NF,C,457587,457587,456063,456871,456064,457987,457388,457388,457987,81
76,test,1,con,1,z,Tue Apr 29 2025 09:53:41 GMT-0400 (Eastern Daylight Time),468088.39999961853,pear,800,I,z,z,None,427,228.0,199.0,41,1,1758.0,466330.39999961853,9015,pear,NF,C,459521,459521,457995,458804,457996,459754,459321,459321,459753,82
77,test,1,con,1,z,Tue Apr 29 2025 09:53:41 GMT-0400 (Eastern Daylight Time),470005.39999961853,banana,900,I,z,z,None,482,283.0,199.0,2,1,1908.7999992370605,468096.60000038147,9015,banana,NF,C,461387,461387,459762,460671,459762,461670,461188,461188,461670,83
78,test,1,inc,1,m,Tue Apr 29 2025 09:53:41 GMT-0400 (Eastern Daylight Time),471738.60000038147,banana,800,I,m,m,None,393,194.0,199.0,77,1,1725.1000003814697,470013.5,9015,copper,NF,C,463204,463204,461679,462487,461679,463404,463004,463004,463404,84
79,test,1,inc,1,m,Tue Apr 29 2025 09:53:41 GMT-0400 (Eastern Daylight Time),473438.30000019073,lime,800,I,m,m,None,356,157.0,199.0,101,1,1688.5,471749.80000019073,9015,gold,NF,C,464937,464937,463415,464221,463415,465103,464738,464738,465103,85
80,test,1,con,1,z,Tue Apr 29 2025 09:53:41 GMT-0400 (Eastern Daylight Time),475588.5,cherry,800,I,z,z,None,801,601.0,200.0,9,1,2141.5,473447.0,9015,cherry,NF,C,466637,466637,465112,465921,465112,467254,466437,466437,467253,86
81,test,1,inc,1,m,Tue Apr 29 2025 09:53:41 GMT-0400 (Eastern Daylight Time),477788.5,raisin,1100,I,m,m,None,557,358.0,199.0,96,1,2191.6000003814697,475596.89999961853,9015,cobalt,NF,C,469087,469087,467262,468371,467262,469454,468888,468888,469454,87
82,test,1,inc,1,z,Tue Apr 29 2025 09:53:41 GMT-0400 (Eastern Daylight Time),480071.69999980927,iron,900,I,z,z,None,846,647.0,199.0,46,1,2274.0,477797.69999980927,9015,pear,NF,C,471087,471087,469463,470371,469463,471737,470888,470888,471737,88
83,test,1,inc,1,m,Tue Apr 29 2025 09:53:41 GMT-0400 (Eastern Daylight Time),482288.5,raisin,1100,I,m,m,None,569,370.0,199.0,80,1,2207.8999996185303,480080.60000038147,9015,copper,NF,C,473570,473571,471746,472854,471746,473954,473371,473371,473953,89
84,test,1,con,1,m,Tue Apr 29 2025 09:53:41 GMT-0400 (Eastern Daylight Time),484821.60000038147,lead,800,I,m,m,None,1197,998.0,199.0,121,1,2522.800000190735,482298.80000019073,9015,lead,NF,C,475487,475487,473964,474771,473964,476487,475288,475288,476487,90
85,test,1,inc,1,m,Tue Apr 29 2025 09:53:41 GMT-0400 (Eastern Daylight Time),486971.89999961853,plum,1100,I,m,m,None,508,309.0,199.0,128,1,2142.199999809265,484829.69999980927,9015,lead,NF,C,478321,478321,476495,477604,476495,478637,478121,478121,478637,91
86,test,1,inc,1,z,Tue Apr 29 2025 09:53:41 GMT-0400 (Eastern Daylight Time),489288.60000038147,cobalt,1100,I,z,z,None,677,478.0,199.0,32,1,2308.0,486980.60000038147,9015,raisin,NF,C,480471,480471,478646,479754,478646,480954,480271,480271,480954,92
87,test,1,con,1,z,Tue Apr 29 2025 09:53:41 GMT-0400 (Eastern Daylight Time),491605.19999980927,lime,1000,I,z,z,None,767,567.0,200.0,35,1,2308.3999996185303,489296.80000019073,9015,lime,NF,C,482687,482687,480962,481971,480962,483270,482487,482487,483270,93
88,test,1,inc,1,m,Tue Apr 29 2025 09:53:41 GMT-0400 (Eastern Daylight Time),493721.60000038147,orange,1000,I,m,m,None,576,377.0,199.0,79,1,2107.2000007629395,491614.39999961853,9015,copper,NF,C,485004,485004,483279,484287,483280,485387,484804,484804,485387,94
89,test,1,con,1,z,Tue Apr 29 2025 09:53:41 GMT-0400 (Eastern Daylight Time),495721.80000019073,kiwi,900,I,z,z,None,559,360.0,199.0,50,1,1990.3000001907349,493731.5,9015,kiwi,NF,C,487021,487021,485397,486304,485397,487387,486821,486821,487387,95
90,test,1,con,1,z,Tue Apr 29 2025 09:53:41 GMT-0400 (Eastern Daylight Time),497621.5,plum,800,I,z,z,None,563,364.0,199.0,57,1,1891.0,495730.5,9015,plum,NF,C,488921,488921,487396,488204,487396,489287,488721,488721,489287,96
91,test,1,inc,1,z,Tue Apr 29 2025 09:53:41 GMT-0400 (Eastern Daylight Time),499638.19999980927,zinc,1000,I,z,z,None,480,281.0,199.0,39,1,2006.0999994277954,497632.10000038147,9015,lime,NF,C,491021,491021,489297,490304,489298,491303,490821,490821,491303,97
92,test,1,con,1,m,Tue Apr 29 2025 09:53:41 GMT-0400 (Eastern Daylight Time),501589.10000038147,cobalt,800,I,m,m,None,617,417.0,200.0,89,1,1942.1000003814697,499647.0,9015,cobalt,NF,C,492837,492837,491312,492121,491312,493254,492637,492637,493254,98
93,test,1,inc,1,z,Tue Apr 29 2025 09:53:41 GMT-0400 (Eastern Daylight Time),503654.89999961853,silver,1000,I,z,z,None,530,331.0,199.0,15,1,2059.0,501595.89999961853,9015,cherry,NF,C,494987,494987,493261,494271,493261,495320,494788,494788,495320,99
94,test,1,con,1,m,Tue Apr 29 2025 09:53:41 GMT-0400 (Eastern Daylight Time),505538.30000019073,gold,1000,I,m,m,None,334,135.0,199.0,99,1,1872.8000001907349,503665.5,9015,gold,NF,C,497054,497054,495331,496337,495331,497203,496854,496854,497203,100
95,test,1,inc,1,m,Tue Apr 29 2025 09:53:41 GMT-0400 (Eastern Daylight Time),507355.19999980927,pear,900,I,m,m,None,376,176.0,200.0,102,1,1808.0,505547.19999980927,9015,gold,NF,C,498837,498837,497212,498121,497213,499020,498637,498637,499020,101
96,test,1,con,1,z,Tue Apr 29 2025 09:53:41 GMT-0400 (Eastern Daylight Time),509438.39999961853,raisin,1000,I,z,z,None,538,339.0,199.0,27,1,2074.7999992370605,507363.60000038147,9015,raisin,NF,C,500754,500754,499029,500037,499029,501104,500554,500554,501103,102
97,test,1,inc,1,z,Tue Apr 29 2025 09:53:41 GMT-0400 (Eastern Daylight Time),511187.69999980927,gold,800,I,z,z,None,414,215.0,199.0,37,1,1741.0999994277954,509446.60000038147,9015,lime,NF,C,502637,502637,501112,501921,501112,502853,502437,502438,502853,103
98,test,1,inc,1,z,Tue Apr 29 2025 09:53:41 GMT-0400 (Eastern Daylight Time),513455.10000038147,lead,1100,I,z,z,None,621,422.0,199.0,56,1,2261.2000007629395,511193.89999961853,9015,kiwi,NF,C,504687,504687,502859,503971,502859,505120,504488,504488,505120,104
99,test,1,inc,1,m,Tue Apr 29 2025 09:53:41 GMT-0400 (Eastern Daylight Time),515421.60000038147,banana,800,I,m,m,None,622,423.0,199.0,69,1,1955.4000005722046,513466.19999980927,9015,bronze,NF,C,506654,506654,505131,505937,505132,507087,506454,506454,507087,105
100,test,1,con,1,z,Tue Apr 29 2025 09:53:41 GMT-0400 (Eastern Daylight Time),517405.19999980927,banana,800,I,z,z,None,640,441.0,199.0,1,1,1977.3000001907349,515427.89999961853,9015,banana,NF,C,508620,508620,507093,507904,507093,509070,508421,508421,509070,106
101,test,1,inc,1,m,Tue Apr 29 2025 09:53:41 GMT-0400 (Eastern Daylight Time),519538.30000019073,orange,1000,I,m,m,None,584,385.0,199.0,87,1,2124.5,517413.80000019073,9015,silver,NF,C,510804,510804,509079,510087,509079,511203,510604,510604,511203,107
102,test,1,inc,1,z,Tue Apr 29 2025 09:53:41 GMT-0400 (Eastern Daylight Time),521589.0,gold,800,I,z,z,None,716,516.0,200.0,53,1,2042.3000001907349,519546.69999980927,9015,kiwi,NF,C,512737,512737,511212,512021,511212,513254,512537,512537,513254,108
103,test,1,inc,1,z,Tue Apr 29 2025 09:53:41 GMT-0400 (Eastern Daylight Time),523888.30000019073,zinc,1000,I,z,z,None,753,554.0,199.0,55,1,2292.0,521596.30000019073,9015,kiwi,NF,C,514987,514987,513261,514271,513262,515553,514788,514788,515553,109
103,test,1,inc,0,z,Tue Apr 29 2025 09:53:41 GMT-0400 (Eastern Daylight Time),525721.8000001907,gold,800,I,m,m,None,495,295.0,200.0,45,1,1819.3000001907349,523902.5,9015,pear,NF,C,517087,517087,515568,516371,515569,517387,516887,516887,517387,110
103,test,1,con,0,z,Tue Apr 29 2025 09:53:41 GMT-0400 (Eastern Daylight Time),527622.6999998093,plum,1000,I,m,m,None,364,165.0,199.0,59,1,1891.8999996185303,525730.8000001907,9015,plum,NF,C,519120,519120,517396,518404,517396,519288,518921,518921,519288,111
104,test,1,con,1,z,Tue Apr 29 2025 09:53:41 GMT-0400 (Eastern Daylight Time),529721.8000001907,pear,1000,I,z,z,None,559,360.0,199.0,43,1,2090.6000003814697,527631.1999998093,9015,pear,NF,C,521020,521021,519296,520304,519297,521387,520821,520821,521387,112
105,test,1,con,1,z,Tue Apr 29 2025 09:53:41 GMT-0400 (Eastern Daylight Time),531588.8000001907,pear,900,I,z,z,None,431,232.0,199.0,42,1,1858.1999998092651,529730.6000003815,9015,pear,NF,C,523020,523021,521396,522304,521396,523254,522821,522821,523254,113
106,test,1,con,1,z,Tue Apr 29 2025 09:53:41 GMT-0400 (Eastern Daylight Time),533588.3000001907,plum,1100,I,z,z,None,349,150.0,199.0,60,1,1991.1000003814697,531597.1999998093,9015,plum,NF,C,525087,525087,523262,524371,523263,525253,524887,524888,525253,114
107,test,1,inc,1,m,Tue Apr 29 2025 09:53:41 GMT-0400 (Eastern Daylight Time),535438.5,cherry,900,I,m,m,None,406,206.0,200.0,94,1,1841.3999996185303,533597.1000003815,9015,cobalt,NF,C,526887,526887,525262,526171,525262,527104,526687,526687,527103,115
108,test,1,con,1,m,Tue Apr 29 2025 09:53:41 GMT-0400 (Eastern Daylight Time),537971.8000001907,copper,1100,I,m,m,None,884,685.0,199.0,76,1,2524.300000190735,535447.5,9015,copper,NF,C,528937,528937,527113,528221,527113,529637,528738,528738,529637,116
109,test,1,con,1,m,Tue Apr 29 2025 09:53:41 GMT-0400 (Eastern Daylight Time),539771.6999998093,gold,900,I,m,m,None,342,142.0,200.0,98,1,1784.3999996185303,537987.3000001907,9015,gold,NF,C,531287,531287,529652,530571,529654,531437,531087,531087,531437,117
110,test,1,inc,1,m,Tue Apr 29 2025 09:53:41 GMT-0400 (Eastern Daylight Time),541588.5,banana,800,I,m,m,None,466,267.0,199.0,93,1,1808.3999996185303,539780.1000003815,9015,cobalt,NF,C,532970,532970,531445,532254,531445,533254,532771,532771,533254,118
111,test,1,con,1,m,Tue Apr 29 2025 09:53:41 GMT-0400 (Eastern Daylight Time),543705.1000003815,cobalt,1100,I,m,m,None,478,278.0,200.0,92,1,2108.0,541597.1000003815,9015,cobalt,NF,C,535087,535087,533262,534371,533263,535370,534887,534887,535370,119
112,test,1,con,1,m,Tue Apr 29 2025 09:53:41 GMT-0400 (Eastern Daylight Time),545421.8000001907,zinc,800,I,m,m,None,372,173.0,199.0,113,1,1707.6000003814697,543714.1999998093,9015,zinc,NF,C,536904,536904,535379,536187,535380,537087,536704,536704,537087,120
112,test,1,con,0,z,Tue Apr 29 2025 09:53:41 GMT-0400 (Eastern Daylight Time),547488.3999996185,lime,1100,I,m,m,None,420,221.0,199.0,36,1,2058.199999809265,545430.1999998093,9015,lime,NF,C,538920,538920,537095,538204,537096,539153,538721,538721,539153,121
113,test,1,inc,1,z,Tue Apr 29 2025 09:53:41 GMT-0400 (Eastern Daylight Time),549688.3000001907,cobalt,1100,I,z,z,None,563,363.0,200.0,24,1,2191.4000005722046,547496.8999996185,9015,orange,NF,C,540987,540987,539162,540271,539162,541353,540787,540787,541353,122
114,test,1,con,1,z,Tue Apr 29 2025 09:53:41 GMT-0400 (Eastern Daylight Time),551588.5,orange,900,I,z,z,None,449,250.0,199.0,18,1,1890.8999996185303,549697.6000003815,9015,orange,NF,C,542987,542987,541363,542271,541363,543254,542787,542787,543253,123
115,test,1,inc,1,m,Tue Apr 29 2025 09:53:41 GMT-0400 (Eastern Daylight Time),553654.8999996185,plum,1100,I,m,m,None,430,230.0,200.0,120,1,2057.2999992370605,551597.6000003815,9015,zinc,NF,C,545087,545087,543263,544371,543263,545320,544887,544887,545320,124
116,test,1,con,1,z,Tue Apr 29 2025 09:53:41 GMT-0400 (Eastern Daylight Time),555555.1000003815,plum,900,I,z,z,None,450,251.0,199.0,58,1,1891.7000007629395,553663.3999996185,9015,plum,NF,C,546954,546954,545328,546237,545329,547220,546754,546754,547220,125
117,test,1,inc,1,m,Tue Apr 29 2025 09:53:41 GMT-0400 (Eastern Daylight Time),557505.0,lime,800,I,m,m,None,603,404.0,199.0,117,1,1942.0,555563.0,9015,zinc,NF,C,548754,548754,547228,548037,547228,549170,548554,548554,549170,126
118,test,1,inc,1,m,Tue Apr 29 2025 09:53:41 GMT-0400 (Eastern Daylight Time),559521.8000001907,pear,900,I,m,m,None,568,369.0,199.0,110,1,2007.0,557514.8000001907,9015,iron,NF,C,550804,550804,549180,550087,549180,551187,550604,550604,551187,127
119,test,1,inc,1,m,Tue Apr 29 2025 09:53:41 GMT-0400 (Eastern Daylight Time),561504.8999996185,kiwi,1000,I,m,m,None,437,238.0,199.0,119,1,1974.2999992370605,559530.6000003815,9015,zinc,NF,C,552920,552920,551196,552204,551196,553170,552721,552721,553170,128
