acc_sum,block,block_c,change,condition,correct,correct_response,datetime,endtime,face,project,response,response_time,row_sel,session_number,start_end,starttime,subject_id,task,task_vers,trial
0,prac,1,,1-Back,,,Tue Mar 11 2025 16:28:00 GMT-0500 (Central Daylight Time),,005_o_f_d_a.png,I,space,5664,1,3,,,8004,VNB,B,0
1,prac,1,0.0,1-Back,1,m,Tue Mar 11 2025 16:28:00 GMT-0500 (Central Daylight Time),110743.79999999702,020_y_f_n_a.png,I,m,1418,2,3,2291.1999999955297,108452.60000000149,8004,VNB,B,1
2,prac,1,0.0,1-Back,1,m,Tue Mar 11 2025 16:28:00 GMT-0500 (Central Daylight Time),112925.19999999553,007_m_m_h_a.png,I,m,1281,3,3,2175.6999999955297,110749.5,8004,VNB,B,2
3,prac,1,0.0,1-Back,1,m,Tue Mar 11 2025 16:28:00 GMT-0500 (Central Daylight Time),115440.89999999851,016_y_m_d_a.png,I,m,1620,4,3,2508.2999999970198,112932.60000000149,8004,VNB,B,3
4,prac,1,0.0,1-Back,1,m,Tue Mar 11 2025 16:28:00 GMT-0500 (Central Daylight Time),117990.0,005_o_f_n_a.png,I,m,1652,5,3,2542.10000000149,115447.89999999851,8004,VNB,B,4
5,prac,1,1.0,1-Back,1,z,Tue Mar 11 2025 16:28:00 GMT-0500 (Central Daylight Time),120307.10000000149,016_y_m_n_a.png,I,z,1420,6,3,2309.3000000044703,117997.79999999702,8004,VNB,B,5
6,prac,1,0.0,1-Back,1,m,Tue Mar 11 2025 16:28:00 GMT-0500 (Central Daylight Time),122671.89999999851,004_o_m_h_a.png,I,m,1491,7,3,2358.0,120313.89999999851,8004,VNB,B,6
7,prac,1,0.0,1-Back,1,m,Tue Mar 11 2025 16:28:00 GMT-0500 (Central Daylight Time),125071.19999999553,011_m_f_d_a.png,I,m,1502,8,3,2393.2999999970198,122677.89999999851,8004,VNB,B,7
8,prac,1,1.0,1-Back,1,z,Tue Mar 11 2025 16:28:00 GMT-0500 (Central Daylight Time),127087.10000000149,020_y_f_d_a.png,I,z,1135,9,3,2008.4000000059605,125078.69999999553,8004,VNB,B,8
9,prac,1,0.0,1-Back,1,m,Tue Mar 11 2025 16:28:00 GMT-0500 (Central Daylight Time),129103.5,007_m_m_n_a.png,I,m,1110,10,3,2008.8999999985099,127094.60000000149,8004,VNB,B,9
10,prac,1,0.0,1-Back,1,m,Tue Mar 11 2025 16:28:00 GMT-0500 (Central Daylight Time),130969.0,005_o_f_h_a.png,I,m,973,11,3,1859.6000000014901,129109.39999999851,8004,VNB,B,10
11,prac,1,0.0,1-Back,1,m,Tue Mar 11 2025 16:28:00 GMT-0500 (Central Daylight Time),133218.79999999702,016_y_m_d_a.png,I,m,1342,12,3,2241.7999999970198,130977.0,8004,VNB,B,11
0,test,1,0.0,1-Back,,,Tue Mar 11 2025 16:28:00 GMT-0500 (Central Daylight Time),133218.79999999702,020_y_f_d_a.png,I,space,6048,1,3,2241.7999999970198,130977.0,8004,VNB,B,0
1,test,1,0.0,1-Back,1,m,Tue Mar 11 2025 16:28:00 GMT-0500 (Central Daylight Time),147447.6000000015,011_m_f_n_a.png,I,m,803,2,3,1828.7000000029802,145618.8999999985,8004,VNB,B,1
2,test,1,0.0,1-Back,1,m,Tue Mar 11 2025 16:28:00 GMT-0500 (Central Daylight Time),149796.69999999553,004_o_m_h_a.png,I,m,1330,3,3,2345.1999999955297,147451.5,8004,VNB,B,2
3,test,1,1.0,1-Back,1,z,Tue Mar 11 2025 16:28:00 GMT-0500 (Central Daylight Time),151996.0,007_m_m_h_a.png,I,z,1181,4,3,2194.8000000044703,149801.19999999553,8004,VNB,B,3
4,test,1,0.0,1-Back,1,m,Tue Mar 11 2025 16:28:00 GMT-0500 (Central Daylight Time),154078.69999999553,005_o_f_n_a.png,I,m,1054,5,3,2078.2999999970198,152000.3999999985,8004,VNB,B,4
5,test,1,0.0,1-Back,1,m,Tue Mar 11 2025 16:28:00 GMT-0500 (Central Daylight Time),156328.0,016_y_m_d_a.png,I,m,1148,6,3,2245.10000000149,154082.8999999985,8004,VNB,B,5
6,test,1,1.0,1-Back,1,z,Tue Mar 11 2025 16:28:00 GMT-0500 (Central Daylight Time),158527.3999999985,011_m_f_d_a.png,I,z,1170,7,3,2195.10000000149,156332.29999999702,8004,VNB,B,6
7,test,1,0.0,1-Back,1,m,Tue Mar 11 2025 16:28:00 GMT-0500 (Central Daylight Time),160576.69999999553,020_y_f_h_a.png,I,m,1026,8,3,2045.1999999955297,158531.5,8004,VNB,B,7
8,test,1,0.0,1-Back,1,m,Tue Mar 11 2025 16:28:00 GMT-0500 (Central Daylight Time),162592.79999999702,004_o_m_n_a.png,I,m,984,9,3,2011.8999999985099,160580.8999999985,8004,VNB,B,8
9,test,1,0.0,1-Back,1,m,Tue Mar 11 2025 16:28:00 GMT-0500 (Central Daylight Time),164425.3999999985,016_y_m_h_a.png,I,m,810,10,3,1828.7000000029802,162596.69999999553,8004,VNB,B,9
10,test,1,0.0,1-Back,1,m,Tue Mar 11 2025 16:28:00 GMT-0500 (Central Daylight Time),166391.6000000015,004_o_m_d_a.png,I,m,937,11,3,1963.0,164428.6000000015,8004,VNB,B,10
11,test,1,1.0,1-Back,1,z,Tue Mar 11 2025 16:28:00 GMT-0500 (Central Daylight Time),168074.29999999702,005_o_f_d_a.png,I,z,651,12,3,1678.2999999970198,166396.0,8004,VNB,B,11
12,test,1,0.0,1-Back,1,m,Tue Mar 11 2025 16:28:00 GMT-0500 (Central Daylight Time),170006.69999999553,007_m_m_n_a.png,I,m,911,13,3,1928.0,168078.69999999553,8004,VNB,B,12
13,test,1,1.0,1-Back,1,z,Tue Mar 11 2025 16:28:00 GMT-0500 (Central Daylight Time),172006.6000000015,020_y_f_n_a.png,I,z,978,14,3,1996.0,170010.6000000015,8004,VNB,B,13
14,test,1,0.0,1-Back,1,m,Tue Mar 11 2025 16:28:00 GMT-0500 (Central Daylight Time),174022.6000000015,011_m_f_h_a.png,I,m,995,15,3,2011.5,172011.1000000015,8004,VNB,B,14
15,test,1,0.0,1-Back,1,m,Tue Mar 11 2025 16:28:00 GMT-0500 (Central Daylight Time),175905.1000000015,007_m_m_d_a.png,I,m,860,16,3,1877.7000000029802,174027.3999999985,8004,VNB,B,15
16,test,1,0.0,1-Back,1,m,Tue Mar 11 2025 16:28:00 GMT-0500 (Central Daylight Time),177671.3999999985,016_y_m_n_a.png,I,m,745,17,3,1761.7000000029802,175909.69999999553,8004,VNB,B,16
17,test,1,0.0,1-Back,1,m,Tue Mar 11 2025 16:28:00 GMT-0500 (Central Daylight Time),179372.0,005_o_f_h_a.png,I,m,673,18,3,1695.8999999985099,177676.1000000015,8004,VNB,B,17
0,test,2,0.0,1-Back,,,Tue Mar 11 2025 16:28:00 GMT-0500 (Central Daylight Time),179372.0,016_y_m_n_a.png,I,space,1334,1,3,1695.8999999985099,177676.1000000015,8004,VNB,B,0
1,test,2,0.0,1-Back,1,m,Tue Mar 11 2025 16:28:00 GMT-0500 (Central Daylight Time),184802.5,020_y_f_h_a.png,I,m,1034,2,3,2061.3000000044703,182741.19999999553,8004,VNB,B,1
2,test,2,1.0,1-Back,1,m,Tue Mar 11 2025 16:28:00 GMT-0500 (Central Daylight Time),186768.79999999702,004_o_m_n_a.png,I,m,936,3,3,1962.1999999955297,184806.6000000015,8004,VNB,B,2
3,test,2,0.0,1-Back,1,m,Tue Mar 11 2025 16:28:00 GMT-0500 (Central Daylight Time),188717.8999999985,011_m_f_d_a.png,I,m,922,4,3,1944.7000000029802,186773.19999999553,8004,VNB,B,3
4,test,2,0.0,1-Back,1,z,Tue Mar 11 2025 16:28:00 GMT-0500 (Central Daylight Time),190517.29999999702,007_m_m_d_a.png,I,z,780,5,3,1795.1999999955297,188722.1000000015,8004,VNB,B,4
5,test,2,0.0,1-Back,1,m,Tue Mar 11 2025 16:28:00 GMT-0500 (Central Daylight Time),192350.1000000015,016_y_m_h_a.png,I,m,805,6,3,1828.4000000059605,190521.69999999553,8004,VNB,B,5
6,test,2,1.0,1-Back,1,z,Tue Mar 11 2025 16:28:00 GMT-0500 (Central Daylight Time),194084.1000000015,005_o_f_h_a.png,I,z,708,7,3,1729.1000000014901,192355.0,8004,VNB,B,6
7,test,2,0.0,1-Back,1,m,Tue Mar 11 2025 16:28:00 GMT-0500 (Central Daylight Time),195749.1000000015,011_m_f_n_a.png,I,m,639,8,3,1660.5,194088.6000000015,8004,VNB,B,7
8,test,2,0.0,1-Back,1,m,Tue Mar 11 2025 16:28:00 GMT-0500 (Central Daylight Time),197882.8999999985,020_y_f_d_a.png,I,m,1100,9,3,2129.7000000029802,195753.19999999553,8004,VNB,B,8
9,test,2,0.0,1-Back,1,m,Tue Mar 11 2025 16:28:00 GMT-0500 (Central Daylight Time),199681.0,007_m_m_n_a.png,I,m,769,10,3,1794.7000000029802,197886.29999999702,8004,VNB,B,9
10,test,2,1.0,1-Back,1,m,Tue Mar 11 2025 16:28:00 GMT-0500 (Central Daylight Time),201647.19999999553,011_m_f_h_a.png,I,m,937,11,3,1962.3999999985099,199684.79999999702,8004,VNB,B,10
11,test,2,0.0,1-Back,1,z,Tue Mar 11 2025 16:28:00 GMT-0500 (Central Daylight Time),203746.69999999553,004_o_m_h_a.png,I,z,1082,12,3,2095.2999999970198,201651.3999999985,8004,VNB,B,11
12,test,2,0.0,1-Back,1,m,Tue Mar 11 2025 16:28:00 GMT-0500 (Central Daylight Time),205829.29999999702,016_y_m_d_a.png,I,m,1056,13,3,2078.2999999970198,203751.0,8004,VNB,B,12
13,test,2,0.0,1-Back,1,m,Tue Mar 11 2025 16:28:00 GMT-0500 (Central Daylight Time),207895.1000000015,005_o_f_n_a.png,I,m,1036,14,3,2061.8000000044703,205833.29999999702,8004,VNB,B,13
14,test,2,0.0,1-Back,1,z,Tue Mar 11 2025 16:28:00 GMT-0500 (Central Daylight Time),209928.19999999553,020_y_f_n_a.png,I,z,1003,15,3,2028.3999999985099,207899.79999999702,8004,VNB,B,14
15,test,2,1.0,1-Back,1,m,Tue Mar 11 2025 16:28:00 GMT-0500 (Central Daylight Time),211744.1000000015,007_m_m_h_a.png,I,m,786,16,3,1811.5,209932.6000000015,8004,VNB,B,15
16,test,2,0.0,1-Back,1,m,Tue Mar 11 2025 16:28:00 GMT-0500 (Central Daylight Time),213527.1000000015,005_o_f_d_a.png,I,m,754,17,3,1778.3000000044703,211748.79999999702,8004,VNB,B,16
17,test,2,1.0,1-Back,1,z,Tue Mar 11 2025 16:28:00 GMT-0500 (Central Daylight Time),215609.5,004_o_m_d_a.png,I,z,1059,18,3,2078.10000000149,213531.3999999985,8004,VNB,B,17
0,test,3,1.0,1-Back,,,Tue Mar 11 2025 16:28:00 GMT-0500 (Central Daylight Time),215609.5,005_o_f_h_a.png,I,space,1217,1,3,2078.10000000149,213531.3999999985,8004,VNB,B,0
1,test,3,0.0,1-Back,1,m,Tue Mar 11 2025 16:28:00 GMT-0500 (Central Daylight Time),220774.5,011_m_f_d_a.png,I,m,788,2,3,1811.1000000014901,218963.3999999985,8004,VNB,B,1
2,test,3,1.0,1-Back,1,m,Tue Mar 11 2025 16:28:00 GMT-0500 (Central Daylight Time),222474.1000000015,007_m_m_n_a.png,I,m,676,3,3,1695.8000000044703,220778.29999999702,8004,VNB,B,2
3,test,3,0.0,1-Back,1,z,Tue Mar 11 2025 16:28:00 GMT-0500 (Central Daylight Time),224373.5,005_o_f_n_a.png,I,z,871,4,3,1894.8999999985099,222478.6000000015,8004,VNB,B,3
4,test,3,1.0,1-Back,1,m,Tue Mar 11 2025 16:28:00 GMT-0500 (Central Daylight Time),226372.69999999553,004_o_m_d_a.png,I,m,973,5,3,1994.5,224378.19999999553,8004,VNB,B,4
5,test,3,0.0,1-Back,1,m,Tue Mar 11 2025 16:28:00 GMT-0500 (Central Daylight Time),228155.8999999985,020_y_f_h_a.png,I,m,757,6,3,1778.5,226377.3999999985,8004,VNB,B,5
6,test,3,0.0,1-Back,1,z,Tue Mar 11 2025 16:28:00 GMT-0500 (Central Daylight Time),229938.3999999985,016_y_m_h_a.png,I,z,759,7,3,1778.1000000014901,228160.29999999702,8004,VNB,B,6
7,test,3,0.0,1-Back,1,m,Tue Mar 11 2025 16:28:00 GMT-0500 (Central Daylight Time),231687.79999999702,011_m_f_n_a.png,I,m,720,8,3,1745.1000000014901,229942.69999999553,8004,VNB,B,7
8,test,3,0.0,1-Back,1,m,Tue Mar 11 2025 16:28:00 GMT-0500 (Central Daylight Time),233420.69999999553,020_y_f_d_a.png,I,m,714,9,3,1728.1999999955297,231692.5,8004,VNB,B,8
9,test,3,1.0,1-Back,1,m,Tue Mar 11 2025 16:28:00 GMT-0500 (Central Daylight Time),235069.8999999985,004_o_m_n_a.png,I,m,630,10,3,1644.7000000029802,233425.19999999553,8004,VNB,B,9
10,test,3,0.0,1-Back,1,m,Tue Mar 11 2025 16:28:00 GMT-0500 (Central Daylight Time),236803.0,007_m_m_h_a.png,I,m,708,11,3,1728.1000000014901,235074.8999999985,8004,VNB,B,10
11,test,3,0.0,1-Back,1,z,Tue Mar 11 2025 16:28:00 GMT-0500 (Central Daylight Time),238452.5,011_m_f_h_a.png,I,z,631,12,3,1645.0,236807.5,8004,VNB,B,11
12,test,3,1.0,1-Back,1,m,Tue Mar 11 2025 16:28:00 GMT-0500 (Central Daylight Time),240135.1000000015,005_o_f_d_a.png,I,m,662,13,3,1678.9000000059605,238456.19999999553,8004,VNB,B,12
13,test,3,0.0,1-Back,1,z,Tue Mar 11 2025 16:28:00 GMT-0500 (Central Daylight Time),242134.79999999702,007_m_m_d_a.png,I,z,971,14,3,1995.1999999955297,240139.6000000015,8004,VNB,B,13
14,test,3,0.0,1-Back,1,m,Tue Mar 11 2025 16:28:00 GMT-0500 (Central Daylight Time),244950.0,016_y_m_n_a.png,I,m,1787,15,3,2810.3000000044703,242139.69999999553,8004,VNB,B,14
15,test,3,1.0,1-Back,1,m,Tue Mar 11 2025 16:28:00 GMT-0500 (Central Daylight Time),246732.8999999985,004_o_m_h_a.png,I,m,756,16,3,1778.7000000029802,244954.19999999553,8004,VNB,B,15
16,test,3,0.0,1-Back,1,m,Tue Mar 11 2025 16:28:00 GMT-0500 (Central Daylight Time),248432.69999999553,016_y_m_d_a.png,I,m,668,17,3,1696.0,246736.69999999553,8004,VNB,B,16
17,test,3,1.0,1-Back,1,m,Tue Mar 11 2025 16:28:00 GMT-0500 (Central Daylight Time),250315.6000000015,020_y_f_n_a.png,I,m,866,18,3,1878.4000000059605,248437.19999999553,8004,VNB,B,17
0,test,4,1.0,1-Back,,,Tue Mar 11 2025 16:28:00 GMT-0500 (Central Daylight Time),250315.6000000015,007_m_m_d_a.png,I,space,1175,1,3,1878.4000000059605,248437.19999999553,8004,VNB,B,0
1,test,4,0.0,1-Back,1,z,Tue Mar 11 2025 16:28:00 GMT-0500 (Central Daylight Time),255380.3999999985,004_o_m_d_a.png,I,z,848,2,3,1862.8999999985099,253517.5,8004,VNB,B,1
2,test,4,0.0,1-Back,1,m,Tue Mar 11 2025 16:28:00 GMT-0500 (Central Daylight Time),257246.5,016_y_m_h_a.png,I,m,838,3,3,1862.3999999985099,255384.1000000015,8004,VNB,B,2
3,test,4,0.0,1-Back,1,m,Tue Mar 11 2025 16:28:00 GMT-0500 (Central Daylight Time),259229.1000000015,011_m_f_n_a.png,I,m,956,4,3,1978.1000000014901,257251.0,8004,VNB,B,3
4,test,4,1.0,1-Back,1,m,Tue Mar 11 2025 16:28:00 GMT-0500 (Central Daylight Time),261395.5,005_o_f_h_a.png,I,m,1133,5,3,2162.39999999851,259233.1000000015,8004,VNB,B,4
5,test,4,0.0,1-Back,1,m,Tue Mar 11 2025 16:28:00 GMT-0500 (Central Daylight Time),263178.1000000015,007_m_m_n_a.png,I,m,750,6,3,1777.9000000059605,261400.19999999553,8004,VNB,B,5
6,test,4,0.0,1-Back,1,m,Tue Mar 11 2025 16:28:00 GMT-0500 (Central Daylight Time),265243.6000000015,016_y_m_d_a.png,I,m,1048,7,3,2061.2000000029802,263182.3999999985,8004,VNB,B,6
7,test,4,1.0,1-Back,1,z,Tue Mar 11 2025 16:28:00 GMT-0500 (Central Daylight Time),267059.799999997,020_y_f_d_a.png,I,z,798,8,3,1812.0,265247.799999997,8004,VNB,B,7
8,test,4,0.0,1-Back,1,m,Tue Mar 11 2025 16:28:00 GMT-0500 (Central Daylight Time),269042.69999999553,011_m_f_h_a.png,I,m,957,9,3,1978.7999999970198,267063.8999999985,8004,VNB,B,8
9,test,4,0.0,1-Back,1,z,Tue Mar 11 2025 16:28:00 GMT-0500 (Central Daylight Time),271242.19999999553,004_o_m_h_a.png,I,z,1168,10,3,2195.39999999851,269046.799999997,8004,VNB,B,9
10,test,4,1.0,1-Back,1,m,Tue Mar 11 2025 16:28:00 GMT-0500 (Central Daylight Time),273024.6000000015,005_o_f_n_a.png,I,m,751,11,3,1776.1000000014901,271248.5,8004,VNB,B,10
10,test,4,0.0,1-Back,0,m,Tue Mar 11 2025 16:28:00 GMT-0500 (Central Daylight Time),275224.299999997,011_m_f_d_a.png,I,z,1177,12,3,2195.39999999851,273028.8999999985,8004,VNB,B,11
11,test,4,0.0,1-Back,1,m,Tue Mar 11 2025 16:28:00 GMT-0500 (Central Daylight Time),276773.6000000015,020_y_f_n_a.png,I,m,521,13,3,1545.0,275228.6000000015,8004,VNB,B,12
12,test,4,0.0,1-Back,1,m,Tue Mar 11 2025 16:28:00 GMT-0500 (Central Daylight Time),278756.5,005_o_f_d_a.png,I,m,956,14,3,1978.7000000029802,276777.799999997,8004,VNB,B,13
13,test,4,0.0,1-Back,1,m,Tue Mar 11 2025 16:28:00 GMT-0500 (Central Daylight Time),280622.5,020_y_f_h_a.png,I,m,846,15,3,1862.2000000029802,278760.299999997,8004,VNB,B,14
14,test,4,1.0,1-Back,1,z,Tue Mar 11 2025 16:28:00 GMT-0500 (Central Daylight Time),282405.299999997,007_m_m_h_a.png,I,z,764,16,3,1778.6999999955297,280626.6000000015,8004,VNB,B,15
15,test,4,0.0,1-Back,1,m,Tue Mar 11 2025 16:28:00 GMT-0500 (Central Daylight Time),284421.299999997,004_o_m_n_a.png,I,m,997,17,3,2011.6999999955297,282409.6000000015,8004,VNB,B,16
16,test,4,1.0,1-Back,1,z,Tue Mar 11 2025 16:28:00 GMT-0500 (Central Daylight Time),286354.0,016_y_m_n_a.png,I,z,900,18,3,1928.7000000029802,284425.299999997,8004,VNB,B,17
0,test,5,1.0,1-Back,,,Tue Mar 11 2025 16:28:00 GMT-0500 (Central Daylight Time),286354.0,004_o_m_n_a.png,I,space,1056,1,3,1928.7000000029802,284425.299999997,8004,VNB,B,0
1,test,5,1.0,1-Back,1,m,Tue Mar 11 2025 16:28:00 GMT-0500 (Central Daylight Time),291235.6000000015,005_o_f_h_a.png,I,m,782,2,3,1793.8000000044703,289441.799999997,8004,VNB,B,1
2,test,5,0.0,1-Back,1,m,Tue Mar 11 2025 16:28:00 GMT-0500 (Central Daylight Time),293035.3999999985,016_y_m_d_a.png,I,m,774,3,3,1795.5,291239.8999999985,8004,VNB,B,2
3,test,5,0.0,1-Back,1,z,Tue Mar 11 2025 16:28:00 GMT-0500 (Central Daylight Time),294867.799999997,004_o_m_d_a.png,I,z,815,4,3,1828.1999999955297,293039.6000000015,8004,VNB,B,3
4,test,5,0.0,1-Back,1,m,Tue Mar 11 2025 16:28:00 GMT-0500 (Central Daylight Time),296651.0,011_m_f_h_a.png,I,m,750,5,3,1778.5,294872.5,8004,VNB,B,4
5,test,5,0.0,1-Back,1,m,Tue Mar 11 2025 16:28:00 GMT-0500 (Central Daylight Time),298350.299999997,020_y_f_n_a.png,I,m,679,6,3,1695.8999999985099,296654.3999999985,8004,VNB,B,5
6,test,5,1.0,1-Back,1,z,Tue Mar 11 2025 16:28:00 GMT-0500 (Central Daylight Time),300466.299999997,005_o_f_n_a.png,I,z,1083,7,3,2111.60000000149,298354.69999999553,8004,VNB,B,6
7,test,5,0.0,1-Back,1,m,Tue Mar 11 2025 16:28:00 GMT-0500 (Central Daylight Time),302032.5,011_m_f_d_a.png,I,m,536,8,3,1562.7000000029802,300469.799999997,8004,VNB,B,7
8,test,5,0.0,1-Back,1,m,Tue Mar 11 2025 16:28:00 GMT-0500 (Central Daylight Time),303731.799999997,016_y_m_h_a.png,I,m,673,9,3,1695.2999999970198,302036.5,8004,VNB,B,8
9,test,5,0.0,1-Back,1,m,Tue Mar 11 2025 16:28:00 GMT-0500 (Central Daylight Time),305781.299999997,020_y_f_d_a.png,I,m,1022,10,3,2045.8999999985099,303735.3999999985,8004,VNB,B,9
10,test,5,0.0,1-Back,1,m,Tue Mar 11 2025 16:28:00 GMT-0500 (Central Daylight Time),307580.6000000015,007_m_m_n_a.png,I,m,780,11,3,1794.4000000059605,305786.19999999553,8004,VNB,B,10
11,test,5,1.0,1-Back,1,z,Tue Mar 11 2025 16:28:00 GMT-0500 (Central Daylight Time),309497.1000000015,011_m_f_n_a.png,I,z,885,12,3,1911.9000000059605,307585.19999999553,8004,VNB,B,11
12,test,5,0.0,1-Back,1,m,Tue Mar 11 2025 16:28:00 GMT-0500 (Central Daylight Time),311662.8999999985,004_o_m_h_a.png,I,m,1137,13,3,2162.7999999970198,309500.1000000015,8004,VNB,B,12
13,test,5,0.0,1-Back,1,z,Tue Mar 11 2025 16:28:00 GMT-0500 (Central Daylight Time),313362.299999997,007_m_m_h_a.png,I,z,675,14,3,1695.6000000014901,311666.69999999553,8004,VNB,B,13
14,test,5,1.0,1-Back,1,m,Tue Mar 11 2025 16:28:00 GMT-0500 (Central Daylight Time),315544.8999999985,005_o_f_d_a.png,I,m,1152,15,3,2179.2999999970198,313365.6000000015,8004,VNB,B,14
15,test,5,0.0,1-Back,1,m,Tue Mar 11 2025 16:28:00 GMT-0500 (Central Daylight Time),317444.3999999985,016_y_m_n_a.png,I,m,873,16,3,1895.3999999985099,315549.0,8004,VNB,B,15
16,test,5,0.0,1-Back,1,m,Tue Mar 11 2025 16:28:00 GMT-0500 (Central Daylight Time),319443.69999999553,020_y_f_h_a.png,I,m,982,17,3,1995.2999999970198,317448.3999999985,8004,VNB,B,16
17,test,5,0.0,1-Back,1,m,Tue Mar 11 2025 16:28:00 GMT-0500 (Central Daylight Time),321243.299999997,007_m_m_d_a.png,I,m,775,18,3,1795.6000000014901,319447.69999999553,8004,VNB,B,17
0,prac,1,0.0,2-Back,,,Tue Mar 11 2025 16:28:00 GMT-0500 (Central Daylight Time),321243.299999997,011_m_f_n_a.png,I,space,3923,1,3,1795.6000000014901,319447.69999999553,8004,VNB,B,0
0,prac,1,0.0,2-Back,,,Tue Mar 11 2025 16:28:00 GMT-0500 (Central Daylight Time),321243.299999997,005_o_f_h_a.png,I,space,3923,2,3,1795.6000000014901,319447.69999999553,8004,VNB,B,0
1,prac,1,0.0,2-Back,1,m,Tue Mar 11 2025 16:28:00 GMT-0500 (Central Daylight Time),406683.3999999985,004_o_m_d_a.png,I,m,1564,3,3,2425.5,404257.8999999985,8004,VNB,B,1
1,prac,1,1.0,2-Back,0,z,Tue Mar 11 2025 16:28:00 GMT-0500 (Central Daylight Time),409582.19999999553,007_m_m_h_a.png,I,None,2006,4,3,2892.1999999955297,406690.0,8004,VNB,B,2
2,prac,1,0.0,2-Back,1,m,Tue Mar 11 2025 16:28:00 GMT-0500 (Central Daylight Time),411964.799999997,020_y_f_n_a.png,I,m,1505,5,3,2375.1999999955297,409589.6000000015,8004,VNB,B,3
2,prac,1,1.0,2-Back,0,z,Tue Mar 11 2025 16:28:00 GMT-0500 (Central Daylight Time),414247.19999999553,004_o_m_h_a.png,I,m,1401,6,3,2275.7999999970198,411971.3999999985,8004,VNB,B,4
2,prac,1,1.0,2-Back,0,z,Tue Mar 11 2025 16:28:00 GMT-0500 (Central Daylight Time),416779.8999999985,016_y_m_n_a.png,I,m,1635,7,3,2526.5,414253.3999999985,8004,VNB,B,5
3,prac,1,0.0,2-Back,1,m,Tue Mar 11 2025 16:28:00 GMT-0500 (Central Daylight Time),419529.0,011_m_f_d_a.png,I,m,1865,8,3,2742.39999999851,416786.6000000015,8004,VNB,B,6
3,prac,1,0.0,2-Back,0,m,Tue Mar 11 2025 16:28:00 GMT-0500 (Central Daylight Time),422429.299999997,005_o_f_d_a.png,I,None,2013,9,3,2893.7999999970198,419535.5,8004,VNB,B,7
4,prac,1,0.0,2-Back,1,m,Tue Mar 11 2025 16:28:00 GMT-0500 (Central Daylight Time),424644.19999999553,007_m_m_h_a.png,I,m,1439,10,3,2208.5999999940395,422435.6000000015,8004,VNB,B,8
5,prac,1,1.0,2-Back,1,z,Tue Mar 11 2025 16:28:00 GMT-0500 (Central Daylight Time),426577.1000000015,020_y_f_d_a.png,I,z,1045,11,3,1926.9000000059605,424650.19999999553,8004,VNB,B,9
6,prac,1,0.0,2-Back,1,m,Tue Mar 11 2025 16:28:00 GMT-0500 (Central Daylight Time),428926.1000000015,004_o_m_n_a.png,I,m,1470,12,3,2342.9000000059605,426583.19999999553,8004,VNB,B,10
0,prac,2,0.0,2-Back,,,Tue Mar 11 2025 16:28:00 GMT-0500 (Central Daylight Time),428926.1000000015,011_m_f_n_a.png,I,a,5785,1,3,2342.9000000059605,426583.19999999553,8004,VNB,B,0
0,prac,2,0.0,2-Back,,,Tue Mar 11 2025 16:28:00 GMT-0500 (Central Daylight Time),428926.1000000015,005_o_f_h_a.png,I,a,5785,2,3,2342.9000000059605,426583.19999999553,8004,VNB,B,0
1,prac,2,0.0,2-Back,1,m,Tue Mar 11 2025 16:28:00 GMT-0500 (Central Daylight Time),442072.19999999553,004_o_m_d_a.png,I,m,1201,3,3,2076.0999999940395,439996.1000000015,8004,VNB,B,1
2,prac,2,1.0,2-Back,1,z,Tue Mar 11 2025 16:28:00 GMT-0500 (Central Daylight Time),444105.0,007_m_m_h_a.png,I,z,1244,4,3,2026.5,442078.5,8004,VNB,B,2
3,prac,2,0.0,2-Back,1,m,Tue Mar 11 2025 16:28:00 GMT-0500 (Central Daylight Time),446404.19999999553,020_y_f_n_a.png,I,m,1421,5,3,2294.1999999955297,444110.0,8004,VNB,B,3
4,prac,2,1.0,2-Back,1,z,Tue Mar 11 2025 16:28:00 GMT-0500 (Central Daylight Time),448553.3999999985,004_o_m_h_a.png,I,z,1270,6,3,2143.7999999970198,446409.6000000015,8004,VNB,B,4
5,prac,2,1.0,2-Back,1,z,Tue Mar 11 2025 16:28:00 GMT-0500 (Central Daylight Time),450752.69999999553,016_y_m_n_a.png,I,z,1291,7,3,2192.89999999851,448559.799999997,8004,VNB,B,5
5,prac,2,0.0,2-Back,0,m,Tue Mar 11 2025 16:28:00 GMT-0500 (Central Daylight Time),453268.6000000015,011_m_f_d_a.png,I,z,1618,8,3,2508.8000000044703,450759.799999997,8004,VNB,B,6
6,prac,2,0.0,2-Back,1,m,Tue Mar 11 2025 16:28:00 GMT-0500 (Central Daylight Time),455517.8999999985,005_o_f_d_a.png,I,m,1361,9,3,2242.89999999851,453275.0,8004,VNB,B,7
6,prac,2,0.0,2-Back,0,m,Tue Mar 11 2025 16:28:00 GMT-0500 (Central Daylight Time),457434.0,007_m_m_h_a.png,I,z,1134,10,3,1909.3999999985099,455524.6000000015,8004,VNB,B,8
7,prac,2,1.0,2-Back,1,z,Tue Mar 11 2025 16:28:00 GMT-0500 (Central Daylight Time),459966.3999999985,020_y_f_d_a.png,I,z,1653,11,3,2525.7000000029802,457440.69999999553,8004,VNB,B,9
8,prac,2,0.0,2-Back,1,m,Tue Mar 11 2025 16:28:00 GMT-0500 (Central Daylight Time),462433.3999999985,004_o_m_n_a.png,I,m,1594,12,3,2460.2999999970198,459973.1000000015,8004,VNB,B,10
0,test,1,0.0,2-Back,,,Tue Mar 11 2025 16:28:00 GMT-0500 (Central Daylight Time),462433.3999999985,016_y_m_h_a.png,I,space,6245,1,3,2460.2999999970198,459973.1000000015,8004,VNB,B,0
0,test,1,0.0,2-Back,,,Tue Mar 11 2025 16:28:00 GMT-0500 (Central Daylight Time),462433.3999999985,005_o_f_n_a.png,I,space,6245,2,3,2460.2999999970198,459973.1000000015,8004,VNB,B,0
1,test,1,0.0,2-Back,1,z,Tue Mar 11 2025 16:28:00 GMT-0500 (Central Daylight Time),481326.299999997,004_o_m_h_a.png,I,z,988,3,3,2011.5,479314.799999997,8004,VNB,B,1
2,test,1,0.0,2-Back,1,m,Tue Mar 11 2025 16:28:00 GMT-0500 (Central Daylight Time),483492.299999997,011_m_f_d_a.png,I,m,1148,4,3,2161.7999999970198,481330.5,8004,VNB,B,2
3,test,1,1.0,2-Back,1,m,Tue Mar 11 2025 16:28:00 GMT-0500 (Central Daylight Time),485575.0,016_y_m_n_a.png,I,m,932,5,3,2078.7000000029802,483496.299999997,8004,VNB,B,3
4,test,1,0.0,2-Back,1,z,Tue Mar 11 2025 16:28:00 GMT-0500 (Central Daylight Time),487641.0,020_y_f_d_a.png,I,z,1043,6,3,2062.0,485579.0,8004,VNB,B,4
5,test,1,0.0,2-Back,1,m,Tue Mar 11 2025 16:28:00 GMT-0500 (Central Daylight Time),489823.5,007_m_m_h_a.png,I,m,1160,7,3,2178.39999999851,487645.1000000015,8004,VNB,B,5
5,test,1,1.0,2-Back,0,m,Tue Mar 11 2025 16:28:00 GMT-0500 (Central Daylight Time),492856.19999999553,020_y_f_n_a.png,I,None,2015,8,3,3029.5999999940395,489826.6000000015,8004,VNB,B,6
6,test,1,0.0,2-Back,1,z,Tue Mar 11 2025 16:28:00 GMT-0500 (Central Daylight Time),494788.799999997,005_o_f_h_a.png,I,z,907,9,3,1928.6999999955297,492860.1000000015,8004,VNB,B,7
7,test,1,0.0,2-Back,1,m,Tue Mar 11 2025 16:28:00 GMT-0500 (Central Daylight Time),496788.1000000015,004_o_m_d_a.png,I,m,973,10,3,1995.2000000029802,494792.8999999985,8004,VNB,B,8
8,test,1,1.0,2-Back,1,m,Tue Mar 11 2025 16:28:00 GMT-0500 (Central Daylight Time),498937.69999999553,007_m_m_d_a.png,I,m,1118,11,3,2146.5999999940395,496791.1000000015,8004,VNB,B,9
9,test,1,0.0,2-Back,1,m,Tue Mar 11 2025 16:28:00 GMT-0500 (Central Daylight Time),501421.19999999553,011_m_f_n_a.png,I,m,1457,12,3,2479.5999999940395,498941.6000000015,8004,VNB,B,10
10,test,1,0.0,2-Back,1,m,Tue Mar 11 2025 16:28:00 GMT-0500 (Central Daylight Time),504169.19999999553,020_y_f_h_a.png,I,m,1726,13,3,2744.6999999955297,501424.5,8004,VNB,B,11
11,test,1,0.0,2-Back,1,z,Tue Mar 11 2025 16:28:00 GMT-0500 (Central Daylight Time),506151.8999999985,007_m_m_n_a.png,I,z,953,14,3,1978.8999999985099,504173.0,8004,VNB,B,12
12,test,1,0.0,2-Back,1,m,Tue Mar 11 2025 16:28:00 GMT-0500 (Central Daylight Time),508343.3999999985,016_y_m_d_a.png,I,m,1174,15,3,2187.2999999970198,506156.1000000015,8004,VNB,B,13
13,test,1,1.0,2-Back,1,m,Tue Mar 11 2025 16:28:00 GMT-0500 (Central Daylight Time),511000.6000000015,011_m_f_h_a.png,I,m,1635,16,3,2653.10000000149,508347.5,8004,VNB,B,14
14,test,1,0.0,2-Back,1,z,Tue Mar 11 2025 16:28:00 GMT-0500 (Central Daylight Time),513366.3999999985,005_o_f_d_a.png,I,z,1346,17,3,2361.10000000149,511005.299999997,8004,VNB,B,15
15,test,1,0.0,2-Back,1,m,Tue Mar 11 2025 16:28:00 GMT-0500 (Central Daylight Time),515748.8999999985,004_o_m_n_a.png,I,m,1356,18,3,2378.5,513370.3999999985,8004,VNB,B,16
0,test,2,0.0,2-Back,,,Tue Mar 11 2025 16:28:00 GMT-0500 (Central Daylight Time),515748.8999999985,007_m_m_h_a.png,I,space,1389,1,3,2378.5,513370.3999999985,8004,VNB,B,0
0,test,2,0.0,2-Back,,,Tue Mar 11 2025 16:28:00 GMT-0500 (Central Daylight Time),515748.8999999985,020_y_f_n_a.png,I,space,1389,2,3,2378.5,513370.3999999985,8004,VNB,B,0
1,test,2,1.0,2-Back,1,z,Tue Mar 11 2025 16:28:00 GMT-0500 (Central Daylight Time),524330.799999997,005_o_f_h_a.png,I,z,900,3,3,1929.1000000014901,522401.69999999553,8004,VNB,B,1
2,test,2,0.0,2-Back,1,m,Tue Mar 11 2025 16:28:00 GMT-0500 (Central Daylight Time),526728.8999999985,004_o_m_d_a.png,I,m,1369,4,3,2394.2999999970198,524334.6000000015,8004,VNB,B,2
3,test,2,0.0,2-Back,1,m,Tue Mar 11 2025 16:28:00 GMT-0500 (Central Daylight Time),529061.5,011_m_f_d_a.png,I,m,1314,5,3,2328.39999999851,526733.1000000015,8004,VNB,B,3
4,test,2,0.0,2-Back,1,m,Tue Mar 11 2025 16:28:00 GMT-0500 (Central Daylight Time),531210.6000000015,016_y_m_h_a.png,I,m,1116,6,3,2145.3000000044703,529065.299999997,8004,VNB,B,4
5,test,2,0.0,2-Back,1,m,Tue Mar 11 2025 16:28:00 GMT-0500 (Central Daylight Time),533909.6999999955,005_o_f_n_a.png,I,m,1679,7,3,2695.2999999970198,531214.3999999985,8004,VNB,B,5
6,test,2,1.0,2-Back,1,z,Tue Mar 11 2025 16:28:00 GMT-0500 (Central Daylight Time),536525.8999999985,004_o_m_h_a.png,I,z,1588,8,3,2612.10000000149,533913.799999997,8004,VNB,B,6
7,test,2,0.0,2-Back,1,m,Tue Mar 11 2025 16:28:00 GMT-0500 (Central Daylight Time),538841.6999999955,020_y_f_d_a.png,I,m,1292,9,3,2311.5999999940395,536530.1000000015,8004,VNB,B,7
7,test,2,0.0,2-Back,0,m,Tue Mar 11 2025 16:28:00 GMT-0500 (Central Daylight Time),541807.3999999985,016_y_m_d_a.png,I,z,1945,10,3,2961.7999999970198,538845.6000000015,8004,VNB,B,8
8,test,2,0.0,2-Back,1,m,Tue Mar 11 2025 16:28:00 GMT-0500 (Central Daylight Time),544806.299999997,007_m_m_n_a.png,I,m,1971,11,3,2994.60000000149,541811.6999999955,8004,VNB,B,9
9,test,2,0.0,2-Back,1,m,Tue Mar 11 2025 16:28:00 GMT-0500 (Central Daylight Time),546955.799999997,011_m_f_h_a.png,I,m,1123,12,3,2145.89999999851,544809.8999999985,8004,VNB,B,10
10,test,2,1.0,2-Back,1,z,Tue Mar 11 2025 16:28:00 GMT-0500 (Central Daylight Time),548955.0,004_o_m_n_a.png,I,z,974,13,3,1995.3000000044703,546959.6999999955,8004,VNB,B,11
11,test,2,0.0,2-Back,1,m,Tue Mar 11 2025 16:28:00 GMT-0500 (Central Daylight Time),551254.5,005_o_f_d_a.png,I,m,1279,14,3,2295.5,548959.0,8004,VNB,B,12
11,test,2,0.0,2-Back,0,m,Tue Mar 11 2025 16:28:00 GMT-0500 (Central Daylight Time),554053.6999999955,020_y_f_h_a.png,I,z,1772,15,3,2795.5,551258.1999999955,8004,VNB,B,13
11,test,2,0.0,2-Back,0,z,Tue Mar 11 2025 16:28:00 GMT-0500 (Central Daylight Time),556619.1999999955,007_m_m_d_a.png,I,m,1549,16,3,2561.1999999955297,554058.0,8004,VNB,B,14
12,test,2,0.0,2-Back,1,m,Tue Mar 11 2025 16:28:00 GMT-0500 (Central Daylight Time),559251.799999997,016_y_m_n_a.png,I,m,1615,17,3,2628.1999999955297,556623.6000000015,8004,VNB,B,15
13,test,2,1.0,2-Back,1,m,Tue Mar 11 2025 16:28:00 GMT-0500 (Central Daylight Time),561451.1000000015,011_m_f_n_a.png,I,m,1182,18,3,2195.3000000044703,559255.799999997,8004,VNB,B,16
0,test,3,1.0,2-Back,,,Tue Mar 11 2025 16:28:00 GMT-0500 (Central Daylight Time),561451.1000000015,004_o_m_n_a.png,I,space,1127,1,3,2195.3000000044703,559255.799999997,8004,VNB,B,0
0,test,3,1.0,2-Back,,,Tue Mar 11 2025 16:28:00 GMT-0500 (Central Daylight Time),561451.1000000015,005_o_f_d_a.png,I,space,1127,2,3,2195.3000000044703,559255.799999997,8004,VNB,B,0
1,test,3,0.0,2-Back,1,m,Tue Mar 11 2025 16:28:00 GMT-0500 (Central Daylight Time),570515.299999997,020_y_f_h_a.png,I,m,1657,3,3,2678.2999999970198,567837.0,8004,VNB,B,1
2,test,3,0.0,2-Back,1,z,Tue Mar 11 2025 16:28:00 GMT-0500 (Central Daylight Time),572781.0,011_m_f_d_a.png,I,z,1247,4,3,2261.7000000029802,570519.299999997,8004,VNB,B,2
3,test,3,1.0,2-Back,1,m,Tue Mar 11 2025 16:28:00 GMT-0500 (Central Daylight Time),575480.299999997,016_y_m_n_a.png,I,m,1669,5,3,2695.0,572785.299999997,8004,VNB,B,3
3,test,3,0.0,2-Back,0,m,Tue Mar 11 2025 16:28:00 GMT-0500 (Central Daylight Time),577979.3999999985,004_o_m_h_a.png,I,z,1474,6,3,2495.2999999970198,575484.1000000015,8004,VNB,B,4
3,test,3,0.0,2-Back,0,z,Tue Mar 11 2025 16:28:00 GMT-0500 (Central Daylight Time),581012.1999999955,020_y_f_n_a.png,I,None,2016,7,3,3029.0,577983.1999999955,8004,VNB,B,5
4,test,3,1.0,2-Back,1,m,Tue Mar 11 2025 16:28:00 GMT-0500 (Central Daylight Time),583161.1000000015,007_m_m_d_a.png,I,m,1118,8,3,2145.2000000029802,581015.8999999985,8004,VNB,B,6
5,test,3,0.0,2-Back,1,m,Tue Mar 11 2025 16:28:00 GMT-0500 (Central Daylight Time),585460.3999999985,016_y_m_d_a.png,I,m,1281,9,3,2295.5,583164.8999999985,8004,VNB,B,7
6,test,3,0.0,2-Back,1,m,Tue Mar 11 2025 16:28:00 GMT-0500 (Central Daylight Time),587709.799999997,005_o_f_h_a.png,I,m,1222,10,3,2245.60000000149,585464.1999999955,8004,VNB,B,8
6,test,3,1.0,2-Back,0,m,Tue Mar 11 2025 16:28:00 GMT-0500 (Central Daylight Time),589742.5,011_m_f_n_a.png,I,z,1004,11,3,2028.6000000014901,587713.8999999985,8004,VNB,B,9
7,test,3,1.0,2-Back,1,z,Tue Mar 11 2025 16:28:00 GMT-0500 (Central Daylight Time),592158.3999999985,007_m_m_h_a.png,I,z,1396,12,3,2411.89999999851,589746.5,8004,VNB,B,10
8,test,3,0.0,2-Back,1,m,Tue Mar 11 2025 16:28:00 GMT-0500 (Central Daylight Time),594457.5,020_y_f_d_a.png,I,m,1268,13,3,2294.89999999851,592162.6000000015,8004,VNB,B,11
9,test,3,0.0,2-Back,1,m,Tue Mar 11 2025 16:28:00 GMT-0500 (Central Daylight Time),597123.6999999955,005_o_f_n_a.png,I,m,1641,14,3,2662.1999999955297,594461.5,8004,VNB,B,12
9,test,3,0.0,2-Back,0,z,Tue Mar 11 2025 16:28:00 GMT-0500 (Central Daylight Time),600155.8999999985,004_o_m_d_a.png,I,None,2016,15,3,3028.2999999970198,597127.6000000015,8004,VNB,B,13
9,test,3,1.0,2-Back,0,m,Tue Mar 11 2025 16:28:00 GMT-0500 (Central Daylight Time),602021.8999999985,011_m_f_h_a.png,I,z,838,16,3,1862.3999999985099,600159.5,8004,VNB,B,14
9,test,3,0.0,2-Back,0,m,Tue Mar 11 2025 16:28:00 GMT-0500 (Central Daylight Time),604521.299999997,007_m_m_n_a.png,I,z,1468,17,3,2496.0,602025.299999997,8004,VNB,B,15
10,test,3,0.0,2-Back,1,z,Tue Mar 11 2025 16:28:00 GMT-0500 (Central Daylight Time),606953.6999999955,016_y_m_h_a.png,I,z,1409,18,3,2428.39999999851,604525.299999997,8004,VNB,B,16
0,test,4,0.0,2-Back,,,Tue Mar 11 2025 16:28:00 GMT-0500 (Central Daylight Time),606953.6999999955,011_m_f_n_a.png,I,space,993,1,3,2428.39999999851,604525.299999997,8004,VNB,B,0
0,test,4,0.0,2-Back,,,Tue Mar 11 2025 16:28:00 GMT-0500 (Central Daylight Time),606953.6999999955,004_o_m_n_a.png,I,space,993,2,3,2428.39999999851,604525.299999997,8004,VNB,B,0
1,test,4,1.0,2-Back,1,m,Tue Mar 11 2025 16:28:00 GMT-0500 (Central Daylight Time),615751.0,016_y_m_h_a.png,I,m,1537,3,3,2561.0,613190.0,8004,VNB,B,1
2,test,4,1.0,2-Back,1,m,Tue Mar 11 2025 16:28:00 GMT-0500 (Central Daylight Time),617950.1999999955,005_o_f_d_a.png,I,m,1171,4,3,2194.89999999851,615755.299999997,8004,VNB,B,2
3,test,4,0.0,2-Back,1,z,Tue Mar 11 2025 16:28:00 GMT-0500 (Central Daylight Time),620232.799999997,004_o_m_h_a.png,I,z,1259,5,3,2279.0,617953.799999997,8004,VNB,B,3
4,test,4,0.0,2-Back,1,m,Tue Mar 11 2025 16:28:00 GMT-0500 (Central Daylight Time),622165.6000000015,007_m_m_n_a.png,I,m,905,6,3,1928.8000000044703,620236.799999997,8004,VNB,B,4
5,test,4,0.0,2-Back,1,m,Tue Mar 11 2025 16:28:00 GMT-0500 (Central Daylight Time),624781.3999999985,011_m_f_d_a.png,I,m,1596,7,3,2611.60000000149,622169.799999997,8004,VNB,B,5
6,test,4,0.0,2-Back,1,z,Tue Mar 11 2025 16:28:00 GMT-0500 (Central Daylight Time),627313.8999999985,020_y_f_n_a.png,I,z,1386,8,3,2528.39999999851,624785.5,8004,VNB,B,6
6,test,4,1.0,2-Back,0,m,Tue Mar 11 2025 16:28:00 GMT-0500 (Central Daylight Time),629396.799999997,005_o_f_h_a.png,I,z,1056,9,3,2079.7999999970198,627317.0,8004,VNB,B,7
7,test,4,0.0,2-Back,1,m,Tue Mar 11 2025 16:28:00 GMT-0500 (Central Daylight Time),631462.799999997,007_m_m_h_a.png,I,m,1045,10,3,2062.7999999970198,629400.0,8004,VNB,B,8
8,test,4,0.0,2-Back,1,m,Tue Mar 11 2025 16:28:00 GMT-0500 (Central Daylight Time),634145.0,020_y_f_d_a.png,I,m,1651,11,3,2678.0,631467.0,8004,VNB,B,9
9,test,4,0.0,2-Back,1,m,Tue Mar 11 2025 16:28:00 GMT-0500 (Central Daylight Time),636894.3999999985,016_y_m_n_a.png,I,m,1729,12,3,2745.5,634148.8999999985,8004,VNB,B,10
9,test,4,0.0,2-Back,0,z,Tue Mar 11 2025 16:28:00 GMT-0500 (Central Daylight Time),638860.3999999985,004_o_m_d_a.png,I,m,940,13,3,1962.2999999970198,636898.1000000015,8004,VNB,B,11
9,test,4,1.0,2-Back,0,m,Tue Mar 11 2025 16:28:00 GMT-0500 (Central Daylight Time),641209.6999999955,011_m_f_h_a.png,I,z,1326,14,3,2345.2999999970198,638864.3999999985,8004,VNB,B,12
10,test,4,1.0,2-Back,1,m,Tue Mar 11 2025 16:28:00 GMT-0500 (Central Daylight Time),643775.5,020_y_f_h_a.png,I,m,1545,15,3,2562.3000000044703,641213.1999999955,8004,VNB,B,13
11,test,4,0.0,2-Back,1,m,Tue Mar 11 2025 16:28:00 GMT-0500 (Central Daylight Time),646724.6000000015,005_o_f_n_a.png,I,m,1923,16,3,2945.0,643779.6000000015,8004,VNB,B,14
11,test,4,0.0,2-Back,0,m,Tue Mar 11 2025 16:28:00 GMT-0500 (Central Daylight Time),649757.0,016_y_m_d_a.png,I,None,2016,17,3,3028.3000000044703,646728.6999999955,8004,VNB,B,15
11,test,4,1.0,2-Back,0,m,Tue Mar 11 2025 16:28:00 GMT-0500 (Central Daylight Time),651923.1000000015,007_m_m_d_a.png,I,z,1133,18,3,2162.9000000059605,649760.1999999955,8004,VNB,B,16
0,test,5,1.0,2-Back,,,Tue Mar 11 2025 16:28:00 GMT-0500 (Central Daylight Time),651923.1000000015,020_y_f_d_a.png,I,space,1079,1,3,2162.9000000059605,649760.1999999955,8004,VNB,B,0
0,test,5,1.0,2-Back,,,Tue Mar 11 2025 16:28:00 GMT-0500 (Central Daylight Time),651923.1000000015,005_o_f_h_a.png,I,space,1079,2,3,2162.9000000059605,649760.1999999955,8004,VNB,B,0
1,test,5,1.0,2-Back,1,z,Tue Mar 11 2025 16:28:00 GMT-0500 (Central Daylight Time),661103.5,004_o_m_d_a.png,I,z,1828,3,3,2845.39999999851,658258.1000000015,8004,VNB,B,1
2,test,5,1.0,2-Back,1,m,Tue Mar 11 2025 16:28:00 GMT-0500 (Central Daylight Time),663469.299999997,011_m_f_n_a.png,I,m,1347,4,3,2361.6999999955297,661107.6000000015,8004,VNB,B,2
2,test,5,0.0,2-Back,0,m,Tue Mar 11 2025 16:28:00 GMT-0500 (Central Daylight Time),665635.299999997,007_m_m_h_a.png,I,z,1141,5,3,2162.89999999851,663472.3999999985,8004,VNB,B,3
2,test,5,0.0,2-Back,0,z,Tue Mar 11 2025 16:28:00 GMT-0500 (Central Daylight Time),668218.6999999955,020_y_f_n_a.png,I,m,1567,6,3,2579.5,665639.1999999955,8004,VNB,B,4
3,test,5,0.0,2-Back,1,m,Tue Mar 11 2025 16:28:00 GMT-0500 (Central Daylight Time),670833.5,005_o_f_d_a.png,I,m,1584,7,3,2611.10000000149,668222.3999999985,8004,VNB,B,5
4,test,5,0.0,2-Back,1,m,Tue Mar 11 2025 16:28:00 GMT-0500 (Central Daylight Time),673125.6999999955,004_o_m_h_a.png,I,m,1275,8,3,2288.2999999970198,670837.3999999985,8004,VNB,B,6
4,test,5,1.0,2-Back,0,z,Tue Mar 11 2025 16:28:00 GMT-0500 (Central Daylight Time),675865.5,011_m_f_d_a.png,I,m,1718,9,3,2736.0,673129.5,8004,VNB,B,7
5,test,5,0.0,2-Back,1,m,Tue Mar 11 2025 16:28:00 GMT-0500 (Central Daylight Time),678631.299999997,016_y_m_n_a.png,I,m,1737,10,3,2761.7999999970198,675869.5,8004,VNB,B,8
6,test,5,0.0,2-Back,1,m,Tue Mar 11 2025 16:28:00 GMT-0500 (Central Daylight Time),681413.5,007_m_m_n_a.png,I,m,1755,11,3,2778.2000000029802,678635.299999997,8004,VNB,B,9
7,test,5,0.0,2-Back,1,m,Tue Mar 11 2025 16:28:00 GMT-0500 (Central Daylight Time),684129.5,020_y_f_h_a.png,I,m,1693,12,3,2712.10000000149,681417.3999999985,8004,VNB,B,10
8,test,5,0.0,2-Back,1,m,Tue Mar 11 2025 16:28:00 GMT-0500 (Central Daylight Time),686212.1000000015,016_y_m_d_a.png,I,m,1057,13,3,2078.7000000029802,684133.3999999985,8004,VNB,B,11
9,test,5,1.0,2-Back,1,z,Tue Mar 11 2025 16:28:00 GMT-0500 (Central Daylight Time),689094.6000000015,011_m_f_h_a.png,I,z,1854,14,3,2878.8000000044703,686215.799999997,8004,VNB,B,12
10,test,5,0.0,2-Back,1,m,Tue Mar 11 2025 16:28:00 GMT-0500 (Central Daylight Time),691943.8999999985,004_o_m_n_a.png,I,m,1820,15,3,2845.5,689098.3999999985,8004,VNB,B,13
11,test,5,0.0,2-Back,1,m,Tue Mar 11 2025 16:28:00 GMT-0500 (Central Daylight Time),694143.0,007_m_m_d_a.png,I,m,1170,16,3,2195.2000000029802,691947.799999997,8004,VNB,B,14
12,test,5,0.0,2-Back,1,z,Tue Mar 11 2025 16:28:00 GMT-0500 (Central Daylight Time),696539.5,005_o_f_n_a.png,I,z,1379,17,3,2392.60000000149,694146.8999999985,8004,VNB,B,15
13,test,5,1.0,2-Back,1,m,Tue Mar 11 2025 16:28:00 GMT-0500 (Central Daylight Time),698641.6999999955,016_y_m_h_a.png,I,m,1076,18,3,2098.2999999970198,696543.3999999985,8004,VNB,B,16
