acc_sum,block,block_c,change,condition,correct,correct_response,datetime,endtime,face,project,response,response_time,row_sel,session_number,start_end,starttime,subject_id,task,task_vers,trial
0,prac,1,,1-Back,,,Wed Sep 25 2024 09:04:41 GMT-0500 (Central Daylight Time),,012_o_f_d_a.png,I,space,8030,1,1,,,8004,VNB,C,0
1,prac,1,0.0,1-Back,1,m,Wed Sep 25 2024 09:04:41 GMT-0500 (Central Daylight Time),195881.30000000075,022_y_f_n_a.png,I,m,1633,2,1,2516.0,193365.30000000075,8004,VNB,C,1
2,prac,1,0.0,1-Back,1,m,Wed Sep 25 2024 09:04:41 GMT-0500 (Central Daylight Time),198163.8999999985,014_m_m_h_a.png,I,m,1411,3,1,2276.0,195887.8999999985,8004,VNB,C,2
3,prac,1,0.0,1-Back,1,m,Wed Sep 25 2024 09:04:41 GMT-0500 (Central Daylight Time),199813.5,025_y_m_d_a.png,I,m,779,4,1,1643.4000000022352,198170.09999999776,8004,VNB,C,3
4,prac,1,0.0,1-Back,1,m,Wed Sep 25 2024 09:04:41 GMT-0500 (Central Daylight Time),202164.0,012_o_f_n_a.png,I,m,1477,5,1,2344.400000002235,199819.59999999776,8004,VNB,C,4
5,prac,1,1.0,1-Back,1,z,Wed Sep 25 2024 09:04:41 GMT-0500 (Central Daylight Time),204045.5,025_y_m_n_a.png,I,z,1012,6,1,1875.699999999255,202169.80000000075,8004,VNB,C,5
6,prac,1,0.0,1-Back,1,m,Wed Sep 25 2024 09:04:41 GMT-0500 (Central Daylight Time),206428.30000000075,015_o_m_h_a.png,I,m,1488,7,1,2376.900000002235,204051.3999999985,8004,VNB,C,6
7,prac,1,0.0,1-Back,1,m,Wed Sep 25 2024 09:04:41 GMT-0500 (Central Daylight Time),208227.59999999776,019_m_f_d_a.png,I,m,908,8,1,1793.3999999985099,206434.19999999925,8004,VNB,C,7
8,prac,1,1.0,1-Back,1,z,Wed Sep 25 2024 09:04:41 GMT-0500 (Central Daylight Time),210310.09999999776,022_y_f_d_a.png,I,z,1188,9,1,2076.5,208233.59999999776,8004,VNB,C,8
9,prac,1,0.0,1-Back,1,m,Wed Sep 25 2024 09:04:41 GMT-0500 (Central Daylight Time),212959.5,014_m_m_n_a.png,I,m,1767,10,1,2643.60000000149,210315.8999999985,8004,VNB,C,9
10,prac,1,0.0,1-Back,1,m,Wed Sep 25 2024 09:04:41 GMT-0500 (Central Daylight Time),214825.5,012_o_f_h_a.png,I,m,981,11,1,1860.199999999255,212965.30000000075,8004,VNB,C,10
11,prac,1,0.0,1-Back,1,m,Wed Sep 25 2024 09:04:41 GMT-0500 (Central Daylight Time),216641.5,025_y_m_d_a.png,I,m,942,12,1,1810.300000000745,214831.19999999925,8004,VNB,C,11
0,test,1,0.0,1-Back,,,Wed Sep 25 2024 09:04:41 GMT-0500 (Central Daylight Time),216641.5,022_y_f_d_a.png,I,space,7470,1,1,1810.300000000745,214831.19999999925,8004,VNB,C,0
1,test,1,0.0,1-Back,1,m,Wed Sep 25 2024 09:04:41 GMT-0500 (Central Daylight Time),234552.59999999776,019_m_f_n_a.png,I,m,1286,2,1,2362.5,232190.09999999776,8004,VNB,C,1
2,test,1,0.0,1-Back,1,m,Wed Sep 25 2024 09:04:41 GMT-0500 (Central Daylight Time),236551.8999999985,015_o_m_h_a.png,I,m,927,3,1,1995.199999999255,234556.69999999925,8004,VNB,C,2
3,test,1,1.0,1-Back,1,z,Wed Sep 25 2024 09:04:41 GMT-0500 (Central Daylight Time),238751.19999999925,014_m_m_h_a.png,I,z,991,4,1,2195.300000000745,236555.8999999985,8004,VNB,C,3
4,test,1,0.0,1-Back,1,m,Wed Sep 25 2024 09:04:41 GMT-0500 (Central Daylight Time),240917.09999999776,012_o_f_n_a.png,I,m,1097,5,1,2162.2999999970198,238754.80000000075,8004,VNB,C,4
5,test,1,0.0,1-Back,1,m,Wed Sep 25 2024 09:04:41 GMT-0500 (Central Daylight Time),242933.30000000075,025_y_m_d_a.png,I,m,939,6,1,2012.2000000029802,240921.09999999776,8004,VNB,C,5
6,test,1,1.0,1-Back,1,z,Wed Sep 25 2024 09:04:41 GMT-0500 (Central Daylight Time),245065.8999999985,019_m_f_d_a.png,I,z,1025,7,1,2128.5,242937.3999999985,8004,VNB,C,6
7,test,1,0.0,1-Back,1,m,Wed Sep 25 2024 09:04:41 GMT-0500 (Central Daylight Time),247248.69999999925,022_y_f_h_a.png,I,m,1086,8,1,2179.0,245069.69999999925,8004,VNB,C,7
8,test,1,0.0,1-Back,1,m,Wed Sep 25 2024 09:04:41 GMT-0500 (Central Daylight Time),249214.59999999776,015_o_m_n_a.png,I,m,894,9,1,1962.199999999255,247252.3999999985,8004,VNB,C,8
9,test,1,0.0,1-Back,1,m,Wed Sep 25 2024 09:04:41 GMT-0500 (Central Daylight Time),251165.0,025_y_m_h_a.png,I,m,882,10,1,1946.699999999255,249218.30000000075,8004,VNB,C,9
10,test,1,0.0,1-Back,1,m,Wed Sep 25 2024 09:04:41 GMT-0500 (Central Daylight Time),253030.09999999776,015_o_m_d_a.png,I,m,796,11,1,1861.0999999977648,251169.0,8004,VNB,C,10
11,test,1,1.0,1-Back,1,z,Wed Sep 25 2024 09:04:41 GMT-0500 (Central Daylight Time),255362.59999999776,012_o_f_d_a.png,I,z,1257,12,1,2328.199999999255,253034.3999999985,8004,VNB,C,11
12,test,1,0.0,1-Back,1,m,Wed Sep 25 2024 09:04:41 GMT-0500 (Central Daylight Time),257278.59999999776,014_m_m_n_a.png,I,m,845,13,1,1912.3999999985099,255366.19999999925,8004,VNB,C,12
13,test,1,1.0,1-Back,1,z,Wed Sep 25 2024 09:04:41 GMT-0500 (Central Daylight Time),259295.09999999776,022_y_f_n_a.png,I,z,945,14,1,2012.699999999255,257282.3999999985,8004,VNB,C,13
14,test,1,0.0,1-Back,1,m,Wed Sep 25 2024 09:04:41 GMT-0500 (Central Daylight Time),261460.5,019_m_f_h_a.png,I,m,1063,15,1,2161.400000002235,259299.09999999776,8004,VNB,C,14
15,test,1,0.0,1-Back,1,m,Wed Sep 25 2024 09:04:41 GMT-0500 (Central Daylight Time),263726.5,014_m_m_d_a.png,I,m,1128,16,1,2261.800000000745,261464.69999999925,8004,VNB,C,15
16,test,1,0.0,1-Back,1,m,Wed Sep 25 2024 09:04:41 GMT-0500 (Central Daylight Time),266026.0,025_y_m_n_a.png,I,m,1226,17,1,2295.10000000149,263730.8999999985,8004,VNB,C,16
17,test,1,0.0,1-Back,1,m,Wed Sep 25 2024 09:04:41 GMT-0500 (Central Daylight Time),267808.80000000075,012_o_f_h_a.png,I,m,752,18,1,1778.4000000022352,266030.3999999985,8004,VNB,C,17
0,test,2,0.0,1-Back,,,Wed Sep 25 2024 09:04:41 GMT-0500 (Central Daylight Time),267808.80000000075,025_y_m_n_a.png,I,space,3793,1,1,1778.4000000022352,266030.3999999985,8004,VNB,C,0
1,test,2,0.0,1-Back,1,m,Wed Sep 25 2024 09:04:41 GMT-0500 (Central Daylight Time),275589.5,022_y_f_h_a.png,I,m,947,2,1,1962.300000000745,273627.19999999925,8004,VNB,C,1
2,test,2,1.0,1-Back,1,m,Wed Sep 25 2024 09:04:41 GMT-0500 (Central Daylight Time),277505.69999999925,015_o_m_n_a.png,I,m,883,3,1,1912.1000000014901,275593.59999999776,8004,VNB,C,2
3,test,2,0.0,1-Back,1,m,Wed Sep 25 2024 09:04:41 GMT-0500 (Central Daylight Time),279571.69999999925,019_m_f_d_a.png,I,m,1041,4,1,2062.10000000149,277509.59999999776,8004,VNB,C,3
4,test,2,0.0,1-Back,1,z,Wed Sep 25 2024 09:04:41 GMT-0500 (Central Daylight Time),281638.5,014_m_m_d_a.png,I,z,1046,5,1,2062.699999999255,279575.80000000075,8004,VNB,C,4
5,test,2,0.0,1-Back,1,m,Wed Sep 25 2024 09:04:41 GMT-0500 (Central Daylight Time),283670.3999999985,025_y_m_h_a.png,I,m,1011,6,1,2028.5999999977648,281641.80000000075,8004,VNB,C,5
6,test,2,1.0,1-Back,1,z,Wed Sep 25 2024 09:04:41 GMT-0500 (Central Daylight Time),285954.19999999925,012_o_f_h_a.png,I,z,1140,7,1,2280.300000000745,283673.8999999985,8004,VNB,C,6
7,test,2,0.0,1-Back,1,m,Wed Sep 25 2024 09:04:41 GMT-0500 (Central Daylight Time),287719.09999999776,019_m_f_n_a.png,I,m,745,8,1,1760.5,285958.59999999776,8004,VNB,C,7
8,test,2,0.0,1-Back,1,m,Wed Sep 25 2024 09:04:41 GMT-0500 (Central Daylight Time),289985.09999999776,022_y_f_d_a.png,I,m,1235,9,1,2262.39999999851,287722.69999999925,8004,VNB,C,8
9,test,2,0.0,1-Back,1,m,Wed Sep 25 2024 09:04:41 GMT-0500 (Central Daylight Time),292034.5,014_m_m_n_a.png,I,m,1024,10,1,2046.0,289988.5,8004,VNB,C,9
10,test,2,1.0,1-Back,1,m,Wed Sep 25 2024 09:04:41 GMT-0500 (Central Daylight Time),294017.19999999925,019_m_f_h_a.png,I,m,960,11,1,1978.800000000745,292038.3999999985,8004,VNB,C,10
11,test,2,0.0,1-Back,1,z,Wed Sep 25 2024 09:04:41 GMT-0500 (Central Daylight Time),296266.30000000075,015_o_m_h_a.png,I,z,1217,12,1,2245.300000000745,294021.0,8004,VNB,C,11
12,test,2,0.0,1-Back,1,m,Wed Sep 25 2024 09:04:41 GMT-0500 (Central Daylight Time),298115.80000000075,025_y_m_d_a.png,I,m,822,13,1,1845.4000000022352,296270.3999999985,8004,VNB,C,12
13,test,2,0.0,1-Back,1,m,Wed Sep 25 2024 09:04:41 GMT-0500 (Central Daylight Time),300215.19999999925,012_o_f_n_a.png,I,m,1078,14,1,2095.800000000745,298119.3999999985,8004,VNB,C,13
14,test,2,0.0,1-Back,1,z,Wed Sep 25 2024 09:04:41 GMT-0500 (Central Daylight Time),302164.59999999776,022_y_f_n_a.png,I,z,931,15,1,1945.7999999970198,300218.80000000075,8004,VNB,C,14
15,test,2,1.0,1-Back,1,m,Wed Sep 25 2024 09:04:41 GMT-0500 (Central Daylight Time),304497.30000000075,014_m_m_h_a.png,I,m,1301,16,1,2328.900000002235,302168.3999999985,8004,VNB,C,15
16,test,2,0.0,1-Back,1,m,Wed Sep 25 2024 09:04:41 GMT-0500 (Central Daylight Time),306296.59999999776,012_o_f_d_a.png,I,m,777,17,1,1795.5999999977648,304501.0,8004,VNB,C,16
17,test,2,1.0,1-Back,1,z,Wed Sep 25 2024 09:04:41 GMT-0500 (Central Daylight Time),308550.0,015_o_m_d_a.png,I,z,1227,18,1,2249.300000000745,306300.69999999925,8004,VNB,C,17
0,test,3,1.0,1-Back,,,Wed Sep 25 2024 09:04:41 GMT-0500 (Central Daylight Time),308550.0,012_o_f_h_a.png,I,space,2236,1,1,2249.300000000745,306300.69999999925,8004,VNB,C,0
1,test,3,0.0,1-Back,1,m,Wed Sep 25 2024 09:04:41 GMT-0500 (Central Daylight Time),314677.3999999985,019_m_f_d_a.png,I,m,739,2,1,1762.0,312915.3999999985,8004,VNB,C,1
2,test,3,1.0,1-Back,1,m,Wed Sep 25 2024 09:04:41 GMT-0500 (Central Daylight Time),316910.0,014_m_m_n_a.png,I,m,1203,3,1,2228.400000002235,314681.59999999776,8004,VNB,C,2
3,test,3,0.0,1-Back,1,z,Wed Sep 25 2024 09:04:41 GMT-0500 (Central Daylight Time),318610.80000000075,012_o_f_n_a.png,I,z,667,4,1,1696.6000000014901,316914.19999999925,8004,VNB,C,3
4,test,3,1.0,1-Back,1,m,Wed Sep 25 2024 09:04:41 GMT-0500 (Central Daylight Time),320542.19999999925,015_o_m_d_a.png,I,m,904,5,1,1927.6000000014901,318614.59999999776,8004,VNB,C,4
5,test,3,0.0,1-Back,1,m,Wed Sep 25 2024 09:04:41 GMT-0500 (Central Daylight Time),322608.30000000075,022_y_f_h_a.png,I,m,1035,6,1,2062.0,320546.30000000075,8004,VNB,C,5
6,test,3,0.0,1-Back,1,z,Wed Sep 25 2024 09:04:41 GMT-0500 (Central Daylight Time),324408.5,025_y_m_h_a.png,I,z,777,7,1,1796.699999999255,322611.80000000075,8004,VNB,C,6
7,test,3,0.0,1-Back,1,m,Wed Sep 25 2024 09:04:41 GMT-0500 (Central Daylight Time),326390.30000000075,019_m_f_n_a.png,I,m,963,8,1,1977.6000000014901,324412.69999999925,8004,VNB,C,7
8,test,3,0.0,1-Back,1,m,Wed Sep 25 2024 09:04:41 GMT-0500 (Central Daylight Time),328489.59999999776,022_y_f_d_a.png,I,m,1067,9,1,2095.2999999970198,326394.30000000075,8004,VNB,C,8
9,test,3,1.0,1-Back,1,m,Wed Sep 25 2024 09:04:41 GMT-0500 (Central Daylight Time),330405.69999999925,015_o_m_n_a.png,I,m,897,10,1,1912.199999999255,328493.5,8004,VNB,C,9
10,test,3,0.0,1-Back,1,m,Wed Sep 25 2024 09:04:41 GMT-0500 (Central Daylight Time),332305.19999999925,014_m_m_h_a.png,I,m,868,11,1,1894.5,330410.69999999925,8004,VNB,C,10
11,test,3,0.0,1-Back,1,z,Wed Sep 25 2024 09:04:41 GMT-0500 (Central Daylight Time),334304.3999999985,019_m_f_h_a.png,I,z,976,12,1,1995.0,332309.3999999985,8004,VNB,C,11
12,test,3,1.0,1-Back,1,m,Wed Sep 25 2024 09:04:41 GMT-0500 (Central Daylight Time),336170.80000000075,012_o_f_d_a.png,I,m,849,13,1,1862.6000000014901,334308.19999999925,8004,VNB,C,12
13,test,3,0.0,1-Back,1,z,Wed Sep 25 2024 09:04:41 GMT-0500 (Central Daylight Time),338053.30000000075,014_m_m_d_a.png,I,z,863,14,1,1878.9000000022352,336174.3999999985,8004,VNB,C,13
14,test,3,0.0,1-Back,1,m,Wed Sep 25 2024 09:04:41 GMT-0500 (Central Daylight Time),340685.8999999985,025_y_m_n_a.png,I,m,1562,15,1,2628.89999999851,338057.0,8004,VNB,C,14
15,test,3,1.0,1-Back,1,m,Wed Sep 25 2024 09:04:41 GMT-0500 (Central Daylight Time),342501.8999999985,015_o_m_h_a.png,I,m,737,16,1,1812.5999999977648,340689.30000000075,8004,VNB,C,15
16,test,3,0.0,1-Back,1,m,Wed Sep 25 2024 09:04:41 GMT-0500 (Central Daylight Time),344368.09999999776,025_y_m_d_a.png,I,m,786,17,1,1861.8999999985099,342506.19999999925,8004,VNB,C,16
17,test,3,1.0,1-Back,1,m,Wed Sep 25 2024 09:04:41 GMT-0500 (Central Daylight Time),346517.69999999925,022_y_f_n_a.png,I,m,1071,18,1,2146.10000000149,344371.59999999776,8004,VNB,C,17
0,test,4,1.0,1-Back,,,Wed Sep 25 2024 09:04:41 GMT-0500 (Central Daylight Time),346517.69999999925,014_m_m_d_a.png,I,space,4021,1,1,2146.10000000149,344371.59999999776,8004,VNB,C,0
1,test,4,0.0,1-Back,1,z,Wed Sep 25 2024 09:04:41 GMT-0500 (Central Daylight Time),354864.59999999776,015_o_m_d_a.png,I,z,1102,2,1,2193.89999999851,352670.69999999925,8004,VNB,C,1
2,test,4,0.0,1-Back,1,m,Wed Sep 25 2024 09:04:41 GMT-0500 (Central Daylight Time),356914.09999999776,025_y_m_h_a.png,I,m,942,3,1,2046.0,354868.09999999776,8004,VNB,C,2
3,test,4,0.0,1-Back,1,m,Wed Sep 25 2024 09:04:41 GMT-0500 (Central Daylight Time),358913.69999999925,019_m_f_n_a.png,I,m,926,4,1,1995.699999999255,356918.0,8004,VNB,C,3
4,test,4,1.0,1-Back,1,m,Wed Sep 25 2024 09:04:41 GMT-0500 (Central Daylight Time),360796.3999999985,012_o_f_h_a.png,I,m,815,5,1,1878.800000000745,358917.59999999776,8004,VNB,C,4
5,test,4,0.0,1-Back,1,m,Wed Sep 25 2024 09:04:41 GMT-0500 (Central Daylight Time),362529.19999999925,014_m_m_n_a.png,I,m,652,6,1,1728.8999999985099,360800.30000000075,8004,VNB,C,5
6,test,4,0.0,1-Back,1,m,Wed Sep 25 2024 09:04:41 GMT-0500 (Central Daylight Time),364728.3999999985,025_y_m_d_a.png,I,m,1118,7,1,2195.199999999255,362533.19999999925,8004,VNB,C,6
7,test,4,1.0,1-Back,1,z,Wed Sep 25 2024 09:04:41 GMT-0500 (Central Daylight Time),366577.80000000075,022_y_f_d_a.png,I,z,734,8,1,1845.1000000014901,364732.69999999925,8004,VNB,C,7
8,test,4,0.0,1-Back,1,m,Wed Sep 25 2024 09:04:41 GMT-0500 (Central Daylight Time),368377.19999999925,019_m_f_h_a.png,I,m,692,9,1,1795.800000000745,366581.3999999985,8004,VNB,C,8
9,test,4,0.0,1-Back,1,z,Wed Sep 25 2024 09:04:41 GMT-0500 (Central Daylight Time),370243.19999999925,015_o_m_h_a.png,I,z,799,10,1,1861.800000000745,368381.3999999985,8004,VNB,C,9
10,test,4,1.0,1-Back,1,m,Wed Sep 25 2024 09:04:41 GMT-0500 (Central Daylight Time),372093.80000000075,012_o_f_n_a.png,I,m,773,11,1,1845.0,370248.80000000075,8004,VNB,C,10
11,test,4,0.0,1-Back,1,m,Wed Sep 25 2024 09:04:41 GMT-0500 (Central Daylight Time),374358.5,019_m_f_d_a.png,I,m,1195,12,1,2261.10000000149,372097.3999999985,8004,VNB,C,11
12,test,4,0.0,1-Back,1,m,Wed Sep 25 2024 09:04:41 GMT-0500 (Central Daylight Time),376991.30000000075,022_y_f_n_a.png,I,m,1519,13,1,2628.7000000029802,374362.59999999776,8004,VNB,C,12
13,test,4,0.0,1-Back,1,m,Wed Sep 25 2024 09:04:41 GMT-0500 (Central Daylight Time),378904.69999999925,012_o_f_d_a.png,I,m,846,14,1,1909.3999999985099,376995.30000000075,8004,VNB,C,13
14,test,4,0.0,1-Back,1,m,Wed Sep 25 2024 09:04:41 GMT-0500 (Central Daylight Time),380706.59999999776,022_y_f_h_a.png,I,m,725,15,1,1798.2999999970198,378908.30000000075,8004,VNB,C,14
15,test,4,1.0,1-Back,1,z,Wed Sep 25 2024 09:04:41 GMT-0500 (Central Daylight Time),382539.5,014_m_m_h_a.png,I,z,758,16,1,1828.800000000745,380710.69999999925,8004,VNB,C,15
16,test,4,0.0,1-Back,1,m,Wed Sep 25 2024 09:04:41 GMT-0500 (Central Daylight Time),384505.5,015_o_m_n_a.png,I,m,885,17,1,1962.199999999255,382543.30000000075,8004,VNB,C,16
17,test,4,1.0,1-Back,1,z,Wed Sep 25 2024 09:04:41 GMT-0500 (Central Daylight Time),386521.80000000075,025_y_m_n_a.png,I,z,908,18,1,2012.4000000022352,384509.3999999985,8004,VNB,C,17
0,test,5,1.0,1-Back,,,Wed Sep 25 2024 09:04:41 GMT-0500 (Central Daylight Time),386521.80000000075,015_o_m_n_a.png,I,space,3569,1,1,2012.4000000022352,384509.3999999985,8004,VNB,C,0
1,test,5,1.0,1-Back,1,m,Wed Sep 25 2024 09:04:41 GMT-0500 (Central Daylight Time),393937.0,012_o_f_h_a.png,I,m,795,2,1,1813.1000000014901,392123.8999999985,8004,VNB,C,1
2,test,5,0.0,1-Back,1,m,Wed Sep 25 2024 09:04:41 GMT-0500 (Central Daylight Time),396018.59999999776,025_y_m_d_a.png,I,m,1001,3,1,2077.39999999851,393941.19999999925,8004,VNB,C,2
2,test,5,0.0,1-Back,0,z,Wed Sep 25 2024 09:04:41 GMT-0500 (Central Daylight Time),398184.59999999776,015_o_m_d_a.png,I,m,1077,4,1,2162.0,396022.59999999776,8004,VNB,C,3
3,test,5,0.0,1-Back,1,m,Wed Sep 25 2024 09:04:41 GMT-0500 (Central Daylight Time),400000.5,019_m_f_h_a.png,I,m,743,5,1,1811.800000000745,398188.69999999925,8004,VNB,C,4
4,test,5,0.0,1-Back,1,m,Wed Sep 25 2024 09:04:41 GMT-0500 (Central Daylight Time),401950.09999999776,022_y_f_n_a.png,I,m,880,6,1,1945.5999999977648,400004.5,8004,VNB,C,5
5,test,5,1.0,1-Back,1,z,Wed Sep 25 2024 09:04:41 GMT-0500 (Central Daylight Time),404099.19999999925,012_o_f_n_a.png,I,z,1074,7,1,2145.89999999851,401953.30000000075,8004,VNB,C,6
6,test,5,0.0,1-Back,1,m,Wed Sep 25 2024 09:04:41 GMT-0500 (Central Daylight Time),405815.5,019_m_f_d_a.png,I,m,636,8,1,1712.4000000022352,404103.09999999776,8004,VNB,C,7
7,test,5,0.0,1-Back,1,m,Wed Sep 25 2024 09:04:41 GMT-0500 (Central Daylight Time),407548.19999999925,025_y_m_h_a.png,I,m,664,9,1,1728.800000000745,405819.3999999985,8004,VNB,C,8
8,test,5,0.0,1-Back,1,m,Wed Sep 25 2024 09:04:41 GMT-0500 (Central Daylight Time),409447.8999999985,022_y_f_d_a.png,I,m,820,10,1,1896.3999999985099,407551.5,8004,VNB,C,9
9,test,5,0.0,1-Back,1,m,Wed Sep 25 2024 09:04:41 GMT-0500 (Central Daylight Time),411230.5,014_m_m_n_a.png,I,m,713,11,1,1779.5,409451.0,8004,VNB,C,10
10,test,5,1.0,1-Back,1,z,Wed Sep 25 2024 09:04:41 GMT-0500 (Central Daylight Time),413146.5,019_m_f_n_a.png,I,z,834,12,1,1911.5,411235.0,8004,VNB,C,11
11,test,5,0.0,1-Back,1,m,Wed Sep 25 2024 09:04:41 GMT-0500 (Central Daylight Time),414879.30000000075,015_o_m_h_a.png,I,m,621,13,1,1729.2000000029802,413150.09999999776,8004,VNB,C,12
12,test,5,0.0,1-Back,1,z,Wed Sep 25 2024 09:04:41 GMT-0500 (Central Daylight Time),416761.80000000075,014_m_m_h_a.png,I,z,767,14,1,1879.0,414882.80000000075,8004,VNB,C,13
13,test,5,1.0,1-Back,1,m,Wed Sep 25 2024 09:04:41 GMT-0500 (Central Daylight Time),419077.80000000075,012_o_f_d_a.png,I,m,1238,15,1,2312.0,416765.80000000075,8004,VNB,C,14
14,test,5,0.0,1-Back,1,m,Wed Sep 25 2024 09:04:41 GMT-0500 (Central Daylight Time),421227.3999999985,025_y_m_n_a.png,I,m,1074,16,1,2145.699999999255,419081.69999999925,8004,VNB,C,15
15,test,5,0.0,1-Back,1,m,Wed Sep 25 2024 09:04:41 GMT-0500 (Central Daylight Time),423176.59999999776,022_y_f_h_a.png,I,m,868,17,1,1945.5,421231.09999999776,8004,VNB,C,16
16,test,5,0.0,1-Back,1,m,Wed Sep 25 2024 09:04:41 GMT-0500 (Central Daylight Time),425009.3999999985,014_m_m_d_a.png,I,m,808,18,1,1829.699999999255,423179.69999999925,8004,VNB,C,17
0,prac,1,0.0,2-Back,,,Wed Sep 25 2024 09:04:41 GMT-0500 (Central Daylight Time),425009.3999999985,019_m_f_n_a.png,I,space,9450,1,1,1829.699999999255,423179.69999999925,8004,VNB,C,0
0,prac,1,0.0,2-Back,,,Wed Sep 25 2024 09:04:41 GMT-0500 (Central Daylight Time),425009.3999999985,012_o_f_h_a.png,I,space,9450,2,1,1829.699999999255,423179.69999999925,8004,VNB,C,0
1,prac,1,0.0,2-Back,1,m,Wed Sep 25 2024 09:04:41 GMT-0500 (Central Daylight Time),535158.3999999985,015_o_m_d_a.png,I,m,1235,3,1,2127.599999997765,533030.8000000007,8004,VNB,C,1
2,prac,1,1.0,2-Back,1,z,Wed Sep 25 2024 09:04:41 GMT-0500 (Central Daylight Time),537091.0,014_m_m_h_a.png,I,z,1056,4,1,1927.300000000745,535163.6999999993,8004,VNB,C,2
3,prac,1,0.0,2-Back,1,m,Wed Sep 25 2024 09:04:41 GMT-0500 (Central Daylight Time),539057.1999999993,022_y_f_n_a.png,I,m,1068,5,1,1960.300000000745,537096.8999999985,8004,VNB,C,3
4,prac,1,1.0,2-Back,1,z,Wed Sep 25 2024 09:04:41 GMT-0500 (Central Daylight Time),541174.1999999993,015_o_m_h_a.png,I,z,1214,6,1,2111.800000000745,539062.3999999985,8004,VNB,C,4
4,prac,1,1.0,2-Back,0,z,Wed Sep 25 2024 09:04:41 GMT-0500 (Central Daylight Time),543955.5,025_y_m_n_a.png,I,m,1906,7,1,2775.60000000149,541179.8999999985,8004,VNB,C,5
5,prac,1,0.0,2-Back,1,m,Wed Sep 25 2024 09:04:41 GMT-0500 (Central Daylight Time),546604.5,019_m_f_d_a.png,I,m,1755,8,1,2643.800000000745,543960.6999999993,8004,VNB,C,6
5,prac,1,0.0,2-Back,0,m,Wed Sep 25 2024 09:04:41 GMT-0500 (Central Daylight Time),548871.6999999993,012_o_f_d_a.png,I,z,1367,9,1,2262.10000000149,546609.5999999978,8004,VNB,C,7
5,prac,1,0.0,2-Back,0,m,Wed Sep 25 2024 09:04:41 GMT-0500 (Central Daylight Time),551654.1999999993,014_m_m_h_a.png,I,None,2010,10,1,2776.89999999851,548877.3000000007,8004,VNB,C,8
6,prac,1,1.0,2-Back,1,z,Wed Sep 25 2024 09:04:41 GMT-0500 (Central Daylight Time),553852.3999999985,022_y_f_d_a.png,I,z,1286,11,1,2192.599999997765,551659.8000000007,8004,VNB,C,9
7,prac,1,0.0,2-Back,1,m,Wed Sep 25 2024 09:04:41 GMT-0500 (Central Daylight Time),555685.3999999985,015_o_m_n_a.png,I,m,938,12,1,1827.0,553858.3999999985,8004,VNB,C,10
0,test,1,0.0,2-Back,,,Wed Sep 25 2024 09:04:41 GMT-0500 (Central Daylight Time),555685.3999999985,025_y_m_h_a.png,I,space,8144,1,1,1827.0,553858.3999999985,8004,VNB,C,0
0,test,1,0.0,2-Back,,,Wed Sep 25 2024 09:04:41 GMT-0500 (Central Daylight Time),555685.3999999985,012_o_f_n_a.png,I,space,8144,2,1,1827.0,553858.3999999985,8004,VNB,C,0
1,test,1,0.0,2-Back,1,z,Wed Sep 25 2024 09:04:41 GMT-0500 (Central Daylight Time),580177.3999999985,015_o_m_h_a.png,I,z,1235,3,1,2311.5,577865.8999999985,8004,VNB,C,1
2,test,1,0.0,2-Back,1,m,Wed Sep 25 2024 09:04:41 GMT-0500 (Central Daylight Time),582276.8000000007,019_m_f_d_a.png,I,m,1031,4,1,2095.900000002235,580180.8999999985,8004,VNB,C,2
3,test,1,1.0,2-Back,1,m,Wed Sep 25 2024 09:04:41 GMT-0500 (Central Daylight Time),584492.5999999978,025_y_m_n_a.png,I,m,1140,5,1,2212.099999997765,582280.5,8004,VNB,C,3
4,test,1,0.0,2-Back,1,z,Wed Sep 25 2024 09:04:41 GMT-0500 (Central Daylight Time),586741.5999999978,022_y_f_d_a.png,I,z,1179,6,1,2245.699999999255,584495.8999999985,8004,VNB,C,4
4,test,1,0.0,2-Back,0,m,Wed Sep 25 2024 09:04:41 GMT-0500 (Central Daylight Time),589391.0,014_m_m_h_a.png,I,z,1578,7,1,2645.5,586745.5,8004,VNB,C,5
5,test,1,1.0,2-Back,1,m,Wed Sep 25 2024 09:04:41 GMT-0500 (Central Daylight Time),591640.5,022_y_f_n_a.png,I,m,1169,8,1,2245.60000000149,589394.8999999985,8004,VNB,C,6
6,test,1,0.0,2-Back,1,z,Wed Sep 25 2024 09:04:41 GMT-0500 (Central Daylight Time),593390.0,012_o_f_h_a.png,I,z,680,9,1,1745.699999999255,591644.3000000007,8004,VNB,C,7
6,test,1,0.0,2-Back,0,m,Wed Sep 25 2024 09:04:41 GMT-0500 (Central Daylight Time),595739.1999999993,015_o_m_d_a.png,I,z,1267,10,1,2345.300000000745,593393.8999999985,8004,VNB,C,8
7,test,1,1.0,2-Back,1,m,Wed Sep 25 2024 09:04:41 GMT-0500 (Central Daylight Time),597972.8999999985,014_m_m_d_a.png,I,m,1164,11,1,2229.89999999851,595743.0,8004,VNB,C,9
8,test,1,0.0,2-Back,1,m,Wed Sep 25 2024 09:04:41 GMT-0500 (Central Daylight Time),600554.3999999985,019_m_f_n_a.png,I,m,1508,12,1,2578.699999999255,597975.6999999993,8004,VNB,C,10
9,test,1,0.0,2-Back,1,m,Wed Sep 25 2024 09:04:41 GMT-0500 (Central Daylight Time),602836.5999999978,022_y_f_h_a.png,I,m,1213,13,1,2278.699999999255,600557.8999999985,8004,VNB,C,11
10,test,1,0.0,2-Back,1,z,Wed Sep 25 2024 09:04:41 GMT-0500 (Central Daylight Time),605386.3000000007,014_m_m_n_a.png,I,z,1475,14,1,2546.10000000149,602840.1999999993,8004,VNB,C,12
10,test,1,0.0,2-Back,0,m,Wed Sep 25 2024 09:04:41 GMT-0500 (Central Daylight Time),608151.8999999985,025_y_m_d_a.png,I,z,1694,15,1,2761.800000000745,605390.0999999978,8004,VNB,C,13
11,test,1,1.0,2-Back,1,m,Wed Sep 25 2024 09:04:41 GMT-0500 (Central Daylight Time),610684.5999999978,019_m_f_h_a.png,I,m,1464,16,1,2529.0,608155.5999999978,8004,VNB,C,14
12,test,1,0.0,2-Back,1,z,Wed Sep 25 2024 09:04:41 GMT-0500 (Central Daylight Time),613117.0,012_o_f_d_a.png,I,z,1356,17,1,2428.699999999255,610688.3000000007,8004,VNB,C,15
12,test,1,0.0,2-Back,0,m,Wed Sep 25 2024 09:04:41 GMT-0500 (Central Daylight Time),616316.1999999993,015_o_m_n_a.png,I,None,2004,18,1,3195.39999999851,613120.8000000007,8004,VNB,C,16
0,test,2,0.0,2-Back,,,Wed Sep 25 2024 09:04:41 GMT-0500 (Central Daylight Time),616316.1999999993,014_m_m_h_a.png,I,space,2366,1,1,3195.39999999851,613120.8000000007,8004,VNB,C,0
0,test,2,0.0,2-Back,,,Wed Sep 25 2024 09:04:41 GMT-0500 (Central Daylight Time),616316.1999999993,022_y_f_n_a.png,I,space,2366,2,1,3195.39999999851,613120.8000000007,8004,VNB,C,0
1,test,2,1.0,2-Back,1,z,Wed Sep 25 2024 09:04:41 GMT-0500 (Central Daylight Time),625913.0,012_o_f_h_a.png,I,z,885,3,1,1962.199999999255,623950.8000000007,8004,VNB,C,1
2,test,2,0.0,2-Back,1,m,Wed Sep 25 2024 09:04:41 GMT-0500 (Central Daylight Time),627945.5999999978,015_o_m_d_a.png,I,m,959,4,1,2029.0,625916.5999999978,8004,VNB,C,2
3,test,2,0.0,2-Back,1,m,Wed Sep 25 2024 09:04:41 GMT-0500 (Central Daylight Time),630395.0,019_m_f_d_a.png,I,m,1366,5,1,2445.800000000745,627949.1999999993,8004,VNB,C,3
4,test,2,0.0,2-Back,1,m,Wed Sep 25 2024 09:04:41 GMT-0500 (Central Daylight Time),632778.6999999993,025_y_m_h_a.png,I,m,1301,6,1,2379.699999999255,630399.0,8004,VNB,C,4
5,test,2,0.0,2-Back,1,m,Wed Sep 25 2024 09:04:41 GMT-0500 (Central Daylight Time),635110.0999999978,012_o_f_n_a.png,I,m,1263,7,1,2327.89999999851,632782.1999999993,8004,VNB,C,5
6,test,2,1.0,2-Back,1,z,Wed Sep 25 2024 09:04:41 GMT-0500 (Central Daylight Time),637342.8999999985,015_o_m_h_a.png,I,z,1121,8,1,2228.699999999255,635114.1999999993,8004,VNB,C,6
7,test,2,0.0,2-Back,1,m,Wed Sep 25 2024 09:04:41 GMT-0500 (Central Daylight Time),639375.5,022_y_f_d_a.png,I,m,1012,9,1,2029.199999999255,637346.3000000007,8004,VNB,C,7
8,test,2,0.0,2-Back,1,m,Wed Sep 25 2024 09:04:41 GMT-0500 (Central Daylight Time),641959.0999999978,025_y_m_d_a.png,I,m,1505,10,1,2579.89999999851,639379.1999999993,8004,VNB,C,8
9,test,2,0.0,2-Back,1,m,Wed Sep 25 2024 09:04:41 GMT-0500 (Central Daylight Time),644257.1999999993,014_m_m_n_a.png,I,m,1218,11,1,2294.39999999851,641962.8000000007,8004,VNB,C,9
10,test,2,0.0,2-Back,1,m,Wed Sep 25 2024 09:04:41 GMT-0500 (Central Daylight Time),646456.6999999993,019_m_f_h_a.png,I,m,1119,12,1,2195.699999999255,644261.0,8004,VNB,C,10
11,test,2,1.0,2-Back,1,z,Wed Sep 25 2024 09:04:41 GMT-0500 (Central Daylight Time),648805.8000000007,015_o_m_n_a.png,I,z,1279,13,1,2345.10000000149,646460.6999999993,8004,VNB,C,11
11,test,2,0.0,2-Back,0,m,Wed Sep 25 2024 09:04:41 GMT-0500 (Central Daylight Time),651405.0999999978,012_o_f_d_a.png,I,z,1521,14,1,2596.0,648809.0999999978,8004,VNB,C,12
12,test,2,0.0,2-Back,1,m,Wed Sep 25 2024 09:04:41 GMT-0500 (Central Daylight Time),653487.5999999978,022_y_f_h_a.png,I,m,1004,15,1,2079.5,651408.0999999978,8004,VNB,C,13
13,test,2,0.0,2-Back,1,z,Wed Sep 25 2024 09:04:41 GMT-0500 (Central Daylight Time),655320.6999999993,014_m_m_d_a.png,I,z,761,16,1,1828.8999999985099,653491.8000000007,8004,VNB,C,14
14,test,2,0.0,2-Back,1,m,Wed Sep 25 2024 09:04:41 GMT-0500 (Central Daylight Time),657169.6999999993,025_y_m_n_a.png,I,m,768,17,1,1845.300000000745,655324.3999999985,8004,VNB,C,15
14,test,2,1.0,2-Back,0,m,Wed Sep 25 2024 09:04:41 GMT-0500 (Central Daylight Time),659868.8999999985,019_m_f_n_a.png,I,z,1622,18,1,2695.39999999851,657173.5,8004,VNB,C,16
0,test,3,1.0,2-Back,,,Wed Sep 25 2024 09:04:41 GMT-0500 (Central Daylight Time),659868.8999999985,015_o_m_n_a.png,I,space,1678,1,1,2695.39999999851,657173.5,8004,VNB,C,0
0,test,3,1.0,2-Back,,,Wed Sep 25 2024 09:04:41 GMT-0500 (Central Daylight Time),659868.8999999985,012_o_f_d_a.png,I,space,1678,2,1,2695.39999999851,657173.5,8004,VNB,C,0
1,test,3,0.0,2-Back,1,m,Wed Sep 25 2024 09:04:41 GMT-0500 (Central Daylight Time),668549.5999999978,022_y_f_h_a.png,I,m,814,3,1,1828.3999999985099,666721.1999999993,8004,VNB,C,1
1,test,3,0.0,2-Back,0,z,Wed Sep 25 2024 09:04:41 GMT-0500 (Central Daylight Time),671348.8999999985,019_m_f_d_a.png,I,m,1773,4,1,2796.099999997765,668552.8000000007,8004,VNB,C,2
1,test,3,1.0,2-Back,0,m,Wed Sep 25 2024 09:04:41 GMT-0500 (Central Daylight Time),673281.8000000007,025_y_m_n_a.png,I,z,900,5,1,1929.2000000029802,671352.5999999978,8004,VNB,C,3
2,test,3,0.0,2-Back,1,m,Wed Sep 25 2024 09:04:41 GMT-0500 (Central Daylight Time),675114.1999999993,015_o_m_h_a.png,I,m,809,6,1,1828.8999999985099,673285.3000000007,8004,VNB,C,4
2,test,3,0.0,2-Back,0,z,Wed Sep 25 2024 09:04:41 GMT-0500 (Central Daylight Time),677846.6999999993,022_y_f_n_a.png,I,m,1704,7,1,2728.300000000745,675118.3999999985,8004,VNB,C,5
2,test,3,1.0,2-Back,0,m,Wed Sep 25 2024 09:04:41 GMT-0500 (Central Daylight Time),680879.1999999993,014_m_m_d_a.png,I,None,2016,8,1,3028.300000000745,677850.8999999985,8004,VNB,C,6
3,test,3,0.0,2-Back,1,m,Wed Sep 25 2024 09:04:41 GMT-0500 (Central Daylight Time),683344.8000000007,025_y_m_d_a.png,I,m,1435,9,1,2461.800000000745,680883.0,8004,VNB,C,7
3,test,3,0.0,2-Back,0,m,Wed Sep 25 2024 09:04:41 GMT-0500 (Central Daylight Time),685811.0999999978,012_o_f_h_a.png,I,z,1440,10,1,2462.599999997765,683348.5,8004,VNB,C,8
3,test,3,1.0,2-Back,0,m,Wed Sep 25 2024 09:04:41 GMT-0500 (Central Daylight Time),687978.5999999978,019_m_f_n_a.png,I,z,1144,11,1,2164.2999999970198,685814.3000000007,8004,VNB,C,9
4,test,3,1.0,2-Back,1,z,Wed Sep 25 2024 09:04:41 GMT-0500 (Central Daylight Time),689626.3999999985,014_m_m_h_a.png,I,z,625,12,1,1643.800000000745,687982.5999999978,8004,VNB,C,10
5,test,3,0.0,2-Back,1,m,Wed Sep 25 2024 09:04:41 GMT-0500 (Central Daylight Time),692209.0,022_y_f_d_a.png,I,m,1560,13,1,2578.900000002235,689630.0999999978,8004,VNB,C,11
5,test,3,0.0,2-Back,0,m,Wed Sep 25 2024 09:04:41 GMT-0500 (Central Daylight Time),695241.3999999985,012_o_f_n_a.png,I,None,2015,14,1,3028.199999999255,692213.1999999993,8004,VNB,C,12
6,test,3,0.0,2-Back,1,z,Wed Sep 25 2024 09:04:41 GMT-0500 (Central Daylight Time),697423.8999999985,015_o_m_d_a.png,I,z,1161,15,1,2178.699999999255,695245.1999999993,8004,VNB,C,13
7,test,3,1.0,2-Back,1,m,Wed Sep 25 2024 09:04:41 GMT-0500 (Central Daylight Time),699689.8999999985,019_m_f_h_a.png,I,m,1233,16,1,2261.800000000745,697428.0999999978,8004,VNB,C,14
8,test,3,0.0,2-Back,1,m,Wed Sep 25 2024 09:04:41 GMT-0500 (Central Daylight Time),702305.8999999985,014_m_m_n_a.png,I,m,1585,17,1,2612.800000000745,699693.0999999978,8004,VNB,C,15
9,test,3,0.0,2-Back,1,z,Wed Sep 25 2024 09:04:41 GMT-0500 (Central Daylight Time),704322.5999999978,025_y_m_h_a.png,I,z,1000,18,1,2013.699999999255,702308.8999999985,8004,VNB,C,16
0,test,4,0.0,2-Back,,,Wed Sep 25 2024 09:04:41 GMT-0500 (Central Daylight Time),704322.5999999978,019_m_f_n_a.png,I,space,2320,1,1,2013.699999999255,702308.8999999985,8004,VNB,C,0
0,test,4,0.0,2-Back,,,Wed Sep 25 2024 09:04:41 GMT-0500 (Central Daylight Time),704322.5999999978,015_o_m_n_a.png,I,space,2320,2,1,2013.699999999255,702308.8999999985,8004,VNB,C,0
1,test,4,1.0,2-Back,1,m,Wed Sep 25 2024 09:04:41 GMT-0500 (Central Daylight Time),714651.6999999993,025_y_m_h_a.png,I,m,1690,3,1,2711.89999999851,711939.8000000007,8004,VNB,C,1
2,test,4,1.0,2-Back,1,m,Wed Sep 25 2024 09:04:41 GMT-0500 (Central Daylight Time),717084.3999999985,012_o_f_d_a.png,I,m,1364,4,1,2429.0,714655.3999999985,8004,VNB,C,2
3,test,4,0.0,2-Back,1,z,Wed Sep 25 2024 09:04:41 GMT-0500 (Central Daylight Time),718900.5,015_o_m_h_a.png,I,z,798,5,1,1812.800000000745,717087.6999999993,8004,VNB,C,3
4,test,4,0.0,2-Back,1,m,Wed Sep 25 2024 09:04:41 GMT-0500 (Central Daylight Time),720783.3000000007,014_m_m_n_a.png,I,m,804,6,1,1878.9000000022352,718904.3999999985,8004,VNB,C,4
5,test,4,0.0,2-Back,1,m,Wed Sep 25 2024 09:04:41 GMT-0500 (Central Daylight Time),723615.6999999993,019_m_f_d_a.png,I,m,1803,7,1,2828.89999999851,720786.8000000007,8004,VNB,C,5
6,test,4,0.0,2-Back,1,z,Wed Sep 25 2024 09:04:41 GMT-0500 (Central Daylight Time),725565.0,022_y_f_n_a.png,I,z,880,8,1,1945.1000000014901,723619.8999999985,8004,VNB,C,6
6,test,4,1.0,2-Back,0,m,Wed Sep 25 2024 09:04:41 GMT-0500 (Central Daylight Time),727664.6999999993,012_o_f_h_a.png,I,z,1028,9,1,2096.5,725568.1999999993,8004,VNB,C,7
7,test,4,0.0,2-Back,1,m,Wed Sep 25 2024 09:04:41 GMT-0500 (Central Daylight Time),729913.6999999993,014_m_m_h_a.png,I,m,1226,10,1,2246.0,727667.6999999993,8004,VNB,C,8
7,test,4,0.0,2-Back,0,m,Wed Sep 25 2024 09:04:41 GMT-0500 (Central Daylight Time),732263.1999999993,022_y_f_d_a.png,I,z,1329,11,1,2346.300000000745,729916.8999999985,8004,VNB,C,9
8,test,4,0.0,2-Back,1,m,Wed Sep 25 2024 09:04:41 GMT-0500 (Central Daylight Time),734262.3000000007,025_y_m_n_a.png,I,m,971,12,1,1995.300000000745,732267.0,8004,VNB,C,10
9,test,4,0.0,2-Back,1,z,Wed Sep 25 2024 09:04:41 GMT-0500 (Central Daylight Time),736045.0,015_o_m_d_a.png,I,z,763,13,1,1778.800000000745,734266.1999999993,8004,VNB,C,11
10,test,4,1.0,2-Back,1,m,Wed Sep 25 2024 09:04:41 GMT-0500 (Central Daylight Time),738428.8000000007,019_m_f_h_a.png,I,m,1365,14,1,2380.0,736048.8000000007,8004,VNB,C,12
10,test,4,1.0,2-Back,0,m,Wed Sep 25 2024 09:04:41 GMT-0500 (Central Daylight Time),741461.3999999985,022_y_f_h_a.png,I,None,2016,15,1,3029.39999999851,738432.0,8004,VNB,C,13
10,test,4,0.0,2-Back,0,m,Wed Sep 25 2024 09:04:41 GMT-0500 (Central Daylight Time),744009.5,012_o_f_n_a.png,I,z,1525,16,1,2544.5,741465.0,8004,VNB,C,14
11,test,4,0.0,2-Back,1,m,Wed Sep 25 2024 09:04:41 GMT-0500 (Central Daylight Time),746291.8000000007,025_y_m_d_a.png,I,m,1257,17,1,2278.400000002235,744013.3999999985,8004,VNB,C,15
11,test,4,1.0,2-Back,0,m,Wed Sep 25 2024 09:04:41 GMT-0500 (Central Daylight Time),748974.1999999993,014_m_m_d_a.png,I,z,1663,18,1,2678.60000000149,746295.5999999978,8004,VNB,C,16
0,test,5,1.0,2-Back,,,Wed Sep 25 2024 09:04:41 GMT-0500 (Central Daylight Time),748974.1999999993,022_y_f_d_a.png,I,space,3260,1,1,2678.60000000149,746295.5999999978,8004,VNB,C,0
0,test,5,1.0,2-Back,,,Wed Sep 25 2024 09:04:41 GMT-0500 (Central Daylight Time),748974.1999999993,012_o_f_h_a.png,I,space,3260,2,1,2678.60000000149,746295.5999999978,8004,VNB,C,0
1,test,5,1.0,2-Back,1,z,Wed Sep 25 2024 09:04:41 GMT-0500 (Central Daylight Time),759654.3999999985,015_o_m_d_a.png,I,z,1038,3,1,2062.099999997765,757592.3000000007,8004,VNB,C,1
2,test,5,1.0,2-Back,1,m,Wed Sep 25 2024 09:04:41 GMT-0500 (Central Daylight Time),761886.8000000007,019_m_f_n_a.png,I,m,1211,4,1,2228.60000000149,759658.1999999993,8004,VNB,C,2
2,test,5,0.0,2-Back,0,m,Wed Sep 25 2024 09:04:41 GMT-0500 (Central Daylight Time),764752.5999999978,014_m_m_h_a.png,I,z,1835,5,1,2862.099999997765,761890.5,8004,VNB,C,3
3,test,5,0.0,2-Back,1,z,Wed Sep 25 2024 09:04:41 GMT-0500 (Central Daylight Time),766618.8000000007,022_y_f_n_a.png,I,z,850,6,1,1862.800000000745,764756.0,8004,VNB,C,4
4,test,5,0.0,2-Back,1,m,Wed Sep 25 2024 09:04:41 GMT-0500 (Central Daylight Time),768818.1999999993,012_o_f_d_a.png,I,m,1168,7,1,2195.699999999255,766622.5,8004,VNB,C,5
4,test,5,0.0,2-Back,0,m,Wed Sep 25 2024 09:04:41 GMT-0500 (Central Daylight Time),771850.6999999993,015_o_m_h_a.png,I,None,2016,8,1,3029.0,768821.6999999993,8004,VNB,C,6
5,test,5,1.0,2-Back,1,z,Wed Sep 25 2024 09:04:41 GMT-0500 (Central Daylight Time),773750.1999999993,019_m_f_d_a.png,I,z,879,9,1,1896.3999999985099,771853.8000000007,8004,VNB,C,7
6,test,5,0.0,2-Back,1,m,Wed Sep 25 2024 09:04:41 GMT-0500 (Central Daylight Time),776149.1999999993,025_y_m_n_a.png,I,m,1380,10,1,2395.199999999255,773754.0,8004,VNB,C,8
6,test,5,0.0,2-Back,0,m,Wed Sep 25 2024 09:04:41 GMT-0500 (Central Daylight Time),778431.8999999985,014_m_m_n_a.png,I,z,1261,11,1,2279.300000000745,776152.5999999978,8004,VNB,C,9
7,test,5,0.0,2-Back,1,m,Wed Sep 25 2024 09:04:41 GMT-0500 (Central Daylight Time),781231.0999999978,022_y_f_h_a.png,I,m,1771,12,1,2795.099999997765,778436.0,8004,VNB,C,10
7,test,5,0.0,2-Back,0,m,Wed Sep 25 2024 09:04:41 GMT-0500 (Central Daylight Time),783280.3000000007,025_y_m_d_a.png,I,z,1019,13,1,2045.7000000029802,781234.5999999978,8004,VNB,C,11
8,test,5,1.0,2-Back,1,z,Wed Sep 25 2024 09:04:41 GMT-0500 (Central Daylight Time),785962.8000000007,019_m_f_h_a.png,I,z,1650,14,1,2678.7000000029802,783284.0999999978,8004,VNB,C,12
9,test,5,0.0,2-Back,1,m,Wed Sep 25 2024 09:04:41 GMT-0500 (Central Daylight Time),788712.0999999978,015_o_m_n_a.png,I,m,1720,15,1,2745.89999999851,785966.1999999993,8004,VNB,C,13
10,test,5,0.0,2-Back,1,m,Wed Sep 25 2024 09:04:41 GMT-0500 (Central Daylight Time),790611.3999999985,014_m_m_d_a.png,I,m,866,16,1,1895.300000000745,788716.0999999978,8004,VNB,C,14
10,test,5,0.0,2-Back,0,z,Wed Sep 25 2024 09:04:41 GMT-0500 (Central Daylight Time),793643.8999999985,012_o_f_n_a.png,I,None,2016,17,1,3028.199999999255,790615.6999999993,8004,VNB,C,15
10,test,5,1.0,2-Back,0,m,Wed Sep 25 2024 09:04:41 GMT-0500 (Central Daylight Time),796142.8000000007,025_y_m_h_a.png,I,z,1471,18,1,2495.60000000149,793647.1999999993,8004,VNB,C,16
