acc_sum,block,block_c,condition,correct,correct_response,datetime,endtime,flanker,jitter,project,response,response_test_buffer_response,response_test_target_response,response_time,response_time_test_buffer_response,response_time_test_target_response,row_sel,session_number,start_end,starttime,subject_id,target,task,task_vers,time_test_buffer,time_test_buffer_response,time_test_constants,time_test_flanker,time_test_jitter,time_test_logger,time_test_target,time_test_target_response,time_test_variables,trial
1,prac,1,inc,1,z,Wed Feb 26 2025 10:38:52 GMT-0600 (Central Standard Time),152057.30000001192,window,1100,O,z,,,899,,,16,1,3294.9000000059605,148762.40000000596,7068,temper,AF,B,,,,,,,,,,1
2,prac,1,inc,1,z,Wed Feb 26 2025 10:38:52 GMT-0600 (Central Standard Time),155206.20000001788,napkin,1100,O,z,,,744,,,12,1,3143.4000000059605,152062.80000001192,7068,friend,AF,B,,,,,,,,,,2
3,prac,1,inc,1,m,Wed Feb 26 2025 10:38:52 GMT-0600 (Central Standard Time),157905.10000002384,kind,900,O,m,,,499,,,2,1,2694.5,155210.60000002384,7068,rock,AF,B,,,,,,,,,,3
4,prac,1,con,1,m,Wed Feb 26 2025 10:38:52 GMT-0600 (Central Standard Time),161004.40000000596,remote,1000,O,m,,,795,,,7,1,3094.699999988079,157909.70000001788,7068,remote,AF,B,,,,,,,,,,4
5,prac,1,inc,1,z,Wed Feb 26 2025 10:38:52 GMT-0600 (Central Standard Time),163936.60000002384,rock,900,O,z,,,715,,,10,1,2927.800000011921,161008.80000001192,7068,kind,AF,B,,,,,,,,,,5
6,prac,1,inc,1,m,Wed Feb 26 2025 10:38:52 GMT-0600 (Central Standard Time),166985.80000001192,brutal,1100,O,m,,,648,,,8,1,3044.9000000059605,163940.90000000596,7068,window,AF,B,,,,,,,,,,6
7,prac,1,inc,1,z,Wed Feb 26 2025 10:38:52 GMT-0600 (Central Standard Time),169701.80000001192,film,900,O,z,,,511,,,14,1,2711.699999988079,166990.10000002384,7068,hate,AF,B,,,,,,,,,,7
8,prac,1,inc,1,m,Wed Feb 26 2025 10:38:52 GMT-0600 (Central Standard Time),172700.70000001788,hate,1100,O,m,,,595,,,4,1,2995.0,169705.70000001788,7068,film,AF,B,,,,,,,,,,8
9,prac,1,con,1,z,Wed Feb 26 2025 10:38:52 GMT-0600 (Central Standard Time),175466.40000000596,elated,800,O,z,,,664,,,9,1,2761.5,172704.90000000596,7068,elated,AF,B,,,,,,,,,,9
10,prac,1,con,1,z,Wed Feb 26 2025 10:38:52 GMT-0600 (Central Standard Time),178265.30000001192,love,1000,O,z,,,497,,,11,1,2794.4000000059605,175470.90000000596,7068,love,AF,B,,,,,,,,,,10
11,prac,1,con,1,m,Wed Feb 26 2025 10:38:52 GMT-0600 (Central Standard Time),180998.0,step,800,O,m,,,627,,,1,1,2728.0999999940395,178269.90000000596,7068,step,AF,B,,,,,,,,,,11
12,prac,1,con,1,m,Wed Feb 26 2025 10:38:52 GMT-0600 (Central Standard Time),183713.80000001192,jacket,800,O,m,,,607,,,5,1,2710.9000000059605,181002.90000000596,7068,jacket,AF,B,,,,,,,,,,12
13,prac,1,con,1,z,Wed Feb 26 2025 10:38:52 GMT-0600 (Central Standard Time),186846.30000001192,rage,1000,O,z,,,819,,,15,1,3128.199999988079,183718.10000002384,7068,rage,AF,B,,,,,,,,,,13
14,prac,1,inc,1,m,Wed Feb 26 2025 10:38:52 GMT-0600 (Central Standard Time),189695.5,elated,900,O,m,,,635,,,6,1,2845.0999999940395,186850.40000000596,7068,napkin,AF,B,,,,,,,,,,14
15,prac,1,con,1,z,Wed Feb 26 2025 10:38:52 GMT-0600 (Central Standard Time),192578.10000002384,brutal,800,O,z,,,782,,,13,1,2878.4000000059605,189699.70000001788,7068,brutal,AF,B,,,,,,,,,,15
16,prac,1,con,1,m,Wed Feb 26 2025 10:38:52 GMT-0600 (Central Standard Time),195543.40000000596,bell,1000,O,m,,,659,,,3,1,2961.199999988079,192582.20000001788,7068,bell,AF,B,,,,,,,,,,16
1,test,1,inc,1,z,Wed Feb 26 2025 10:38:52 GMT-0600 (Central Standard Time),214770.80000001192,jacket,800,O,z,z,None,699,500.0,199.0,29,1,2045.9000000059605,212724.90000000596,7068,friend,AF,B,206715,206715,205185,205998,205185,207231,206515,206515,207231,1
2,test,1,con,1,m,Wed Feb 26 2025 10:38:52 GMT-0600 (Central Standard Time),216936.90000000596,remote,1000,O,m,m,None,617,418.0,199.0,115,1,2161.199999988079,214775.70000001788,7068,remote,AF,B,208964,208964,207236,208248,207236,209397,208764,208764,209397,2
3,test,1,inc,1,z,Wed Feb 26 2025 10:38:52 GMT-0600 (Central Standard Time),219236.0,window,1100,O,z,z,None,657,456.0,201.0,32,1,2294.7999999821186,216941.20000001788,7068,friend,AF,B,211231,211231,209401,210514,209402,211696,211030,211030,211696,3
4,test,1,inc,1,z,Wed Feb 26 2025 10:38:52 GMT-0600 (Central Standard Time),221285.10000002384,rock,900,O,z,z,None,613,413.0,200.0,14,1,2044.9000000059605,219240.20000001788,7068,kind,AF,B,213329,213329,211700,212613,211701,213745,213129,213129,213745,4
5,test,1,con,1,m,Wed Feb 26 2025 10:38:52 GMT-0600 (Central Standard Time),223234.80000001192,window,800,O,m,m,None,607,408.0,199.0,121,1,1945.699999988079,221289.10000002384,7068,window,AF,B,215279,215279,213749,214562,213750,215695,215079,215079,215695,5
6,test,1,inc,1,m,Wed Feb 26 2025 10:38:52 GMT-0600 (Central Standard Time),225301.0,kind,900,O,m,m,None,630,431.0,199.0,94,1,2062.399999976158,223238.60000002384,7068,film,AF,B,217328,217328,215699,216612,215699,217761,217128,217128,217761,6
7,test,1,inc,1,z,Wed Feb 26 2025 10:38:52 GMT-0600 (Central Standard Time),227483.5,remote,1000,O,z,z,None,641,441.0,200.0,7,1,2178.5999999940395,225304.90000000596,7068,elated,AF,B,219494,219494,217765,218778,217765,219944,219294,219294,219944,7
8,test,1,con,1,m,Wed Feb 26 2025 10:38:52 GMT-0600 (Central Standard Time),229449.80000001192,remote,800,O,m,m,None,616,417.0,199.0,113,1,1962.5,227487.30000001192,7068,remote,AF,B,221477,221477,219947,220760,219948,221910,221277,221277,221910,8
9,test,1,con,1,z,Wed Feb 26 2025 10:38:52 GMT-0600 (Central Standard Time),231448.90000000596,kind,800,O,z,z,None,659,460.0,199.0,9,1,1995.199999988079,229453.70000001788,7068,kind,AF,B,223443,223443,221914,222726,221914,223909,223243,223243,223909,9
10,test,1,inc,1,z,Wed Feb 26 2025 10:38:52 GMT-0600 (Central Standard Time),233431.60000002384,step,800,O,z,z,None,636,436.0,200.0,13,1,1978.6000000238419,231453.0,7068,kind,AF,B,225442,225442,223913,224726,223913,225892,225242,225242,225892,10
11,test,1,inc,1,z,Wed Feb 26 2025 10:38:52 GMT-0600 (Central Standard Time),235581.0,napkin,900,O,z,z,None,689,490.0,199.0,6,1,2145.2999999821186,233435.70000001788,7068,elated,AF,B,227541,227541,225896,226835,225896,228041,227342,227342,228041,11
12,test,1,inc,1,z,Wed Feb 26 2025 10:38:52 GMT-0600 (Central Standard Time),237846.90000000596,window,1100,O,z,z,None,628,428.0,200.0,40,1,2261.9000000059605,235585.0,7068,brutal,AF,B,229874,229874,228045,229158,228045,230307,229674,229674,230307,12
13,test,1,inc,1,m,Wed Feb 26 2025 10:38:52 GMT-0600 (Central Standard Time),239779.80000001192,rage,800,O,m,m,None,591,391.0,200.0,69,1,1928.9000000059605,237850.90000000596,7068,step,AF,B,231840,231840,230311,231124,230311,232240,231640,231640,232240,13
14,test,1,con,1,z,Wed Feb 26 2025 10:38:52 GMT-0600 (Central Standard Time),241795.60000002384,brutal,800,O,z,z,None,682,482.0,200.0,33,1,2012.0,239783.60000002384,7068,brutal,AF,B,233773,233773,232244,233056,232244,234256,233573,233573,234256,14
15,test,1,con,1,z,Wed Feb 26 2025 10:38:52 GMT-0600 (Central Standard Time),244061.70000001788,kind,1100,O,z,z,None,629,430.0,199.0,12,1,2262.4000000059605,241799.30000001192,7068,kind,AF,B,236089,236089,234259,235372,234260,236522,235889,235889,236522,15
16,test,1,inc,1,z,Wed Feb 26 2025 10:38:52 GMT-0600 (Central Standard Time),246277.5,remote,1000,O,z,z,None,670,471.0,199.0,63,1,2212.0999999940395,244065.40000000596,7068,temper,AF,B,238255,238255,236525,237538,236526,238738,238055,238055,238738,16
17,test,1,con,1,m,Wed Feb 26 2025 10:38:52 GMT-0600 (Central Standard Time),248543.5,remote,1100,O,m,m,None,618,419.0,199.0,116,1,2261.7999999821186,246281.70000001788,7068,remote,AF,B,240571,240571,238742,239854,238742,241004,240371,240371,241003,17
18,test,1,inc,1,z,Wed Feb 26 2025 10:38:52 GMT-0600 (Central Standard Time),250709.60000002384,remote,1000,O,z,z,None,621,421.0,200.0,39,1,2162.300000011921,248547.30000001192,7068,brutal,AF,B,242737,242737,241007,242020,241008,243170,242537,242537,243170,18
19,test,1,con,1,z,Wed Feb 26 2025 10:38:52 GMT-0600 (Central Standard Time),252892.30000001192,friend,1000,O,z,z,None,639,440.0,199.0,27,1,2178.800000011921,250713.5,7068,friend,AF,B,244903,244903,243174,244186,243174,245352,244703,244703,245352,19
20,test,1,con,1,m,Wed Feb 26 2025 10:38:52 GMT-0600 (Central Standard Time),254858.30000001192,napkin,900,O,m,m,None,524,325.0,199.0,106,1,1962.0,252896.30000001192,7068,napkin,AF,B,246986,246986,245356,246269,245357,247318,246786,246786,247318,20
21,test,1,inc,1,m,Wed Feb 26 2025 10:38:52 GMT-0600 (Central Standard Time),256907.40000000596,rage,800,O,m,m,None,714,515.0,199.0,85,1,2045.0,254862.40000000596,7068,bell,AF,B,248851,248851,247322,248135,247323,249367,248652,248652,249367,21
22,test,1,inc,1,z,Wed Feb 26 2025 10:38:52 GMT-0600 (Central Standard Time),259107.10000002384,bell,1000,O,z,z,None,625,425.0,200.0,15,1,2194.300000011921,256912.80000001192,7068,kind,AF,B,251134,251134,249373,250421,249373,251567,250934,250934,251567,22
23,test,1,con,1,z,Wed Feb 26 2025 10:38:52 GMT-0600 (Central Standard Time),261156.0,elated,900,O,z,z,None,615,415.0,200.0,2,1,2044.8999999761581,259111.10000002384,7068,elated,AF,B,253200,253200,251571,252484,251571,253616,253000,253000,253616,23
24,test,1,inc,1,m,Wed Feb 26 2025 10:38:52 GMT-0600 (Central Standard Time),263305.7000000179,love,1000,O,m,m,None,599,400.0,199.0,95,1,2145.7000000178814,261160.0,7068,film,AF,B,255350,255350,253620,254633,253620,255766,255150,255150,255766,24
25,test,1,inc,1,m,Wed Feb 26 2025 10:38:52 GMT-0600 (Central Standard Time),265372.8000000119,brutal,900,O,m,m,None,632,432.0,200.0,110,1,2063.4000000059605,263309.40000000596,7068,napkin,AF,B,257399,257399,255769,256682,255770,257833,257199,257199,257833,25
26,test,1,inc,1,m,Wed Feb 26 2025 10:38:52 GMT-0600 (Central Standard Time),267620.8000000119,hate,1100,O,m,m,None,605,406.0,199.0,80,1,2244.0999999940395,265376.7000000179,7068,rock,AF,B,259665,259665,257837,258948,257837,260081,259465,259465,260081,26
27,test,1,con,1,z,Wed Feb 26 2025 10:38:52 GMT-0600 (Central Standard Time),269587.10000002384,elated,800,O,z,z,None,624,424.0,200.0,1,1,1961.7000000178814,267625.40000000596,7068,elated,AF,B,261614,261614,260085,260898,260086,262047,261414,261414,262047,27
28,test,1,inc,1,z,Wed Feb 26 2025 10:38:52 GMT-0600 (Central Standard Time),271869.60000002384,film,1100,O,z,z,None,639,439.0,200.0,24,1,2278.600000023842,269591.0,7068,love,AF,B,263880,263880,262051,263164,262051,264330,263680,263680,264330,28
29,test,1,con,1,z,Wed Feb 26 2025 10:38:52 GMT-0600 (Central Standard Time),274085.40000000596,brutal,1000,O,z,z,None,670,471.0,199.0,35,1,2212.0,271873.40000000596,7068,brutal,AF,B,266063,266063,264333,265346,264334,266545,265863,265863,266545,29
30,test,1,con,1,m,Wed Feb 26 2025 10:38:52 GMT-0600 (Central Standard Time),276001.60000002384,step,800,O,m,m,None,566,367.0,199.0,65,1,1911.4000000059605,274090.2000000179,7068,step,AF,B,268079,268079,266550,267362,266551,268462,267879,267879,268462,30
31,test,1,con,1,m,Wed Feb 26 2025 10:38:52 GMT-0600 (Central Standard Time),278234.3000000119,step,1100,O,m,m,None,592,391.0,201.0,68,1,2229.0,276005.3000000119,7068,step,AF,B,270296,270296,268465,269579,268466,270694,270095,270095,270694,31
32,test,1,inc,1,z,Wed Feb 26 2025 10:38:52 GMT-0600 (Central Standard Time),280516.90000000596,film,1100,O,z,z,None,639,440.0,199.0,48,1,2278.699999988079,278238.2000000179,7068,hate,AF,B,272527,272527,270698,271811,270699,272977,272328,272328,272977,32
33,test,1,con,1,m,Wed Feb 26 2025 10:38:52 GMT-0600 (Central Standard Time),282566.40000000596,window,900,O,m,m,None,537,338.0,199.0,122,1,2045.7999999821186,280520.60000002384,7068,window,AF,B,274677,274677,272981,273971,272981,275026,274477,274477,275026,33
34,test,1,inc,1,z,Wed Feb 26 2025 10:38:52 GMT-0600 (Central Standard Time),284549.10000002384,napkin,900,O,z,z,None,538,339.0,199.0,38,1,1979.1000000238419,282570.0,7068,brutal,AF,B,276659,276660,275030,275943,275030,277009,276460,276460,277009,34
35,test,1,inc,1,z,Wed Feb 26 2025 10:38:52 GMT-0600 (Central Standard Time),286548.3000000119,jacket,800,O,z,z,None,656,457.0,199.0,61,1,1995.4000000059605,284552.90000000596,7068,temper,AF,B,278542,278542,277013,277826,277013,279008,278342,278343,279008,35
36,test,1,inc,1,z,Wed Feb 26 2025 10:38:52 GMT-0600 (Central Standard Time),288747.8000000119,bell,1000,O,z,z,None,657,458.0,199.0,23,1,2195.9000000059605,286551.90000000596,7068,love,AF,B,280741,280741,279012,280025,279012,281208,280542,280542,281208,36
37,test,1,con,1,z,Wed Feb 26 2025 10:38:52 GMT-0600 (Central Standard Time),290747.0,kind,900,O,z,z,None,565,366.0,199.0,10,1,1995.2999999821186,288751.7000000179,7068,kind,AF,B,282841,282841,281212,282124,281212,283207,282641,282641,283207,37
38,test,1,con,1,z,Wed Feb 26 2025 10:38:52 GMT-0600 (Central Standard Time),292813.0,hate,900,O,z,z,None,631,431.0,200.0,42,1,2062.399999976158,290750.60000002384,7068,hate,AF,B,284840,284840,283211,284124,283211,285273,284640,284640,285273,38
39,test,1,con,1,z,Wed Feb 26 2025 10:38:52 GMT-0600 (Central Standard Time),294762.60000002384,rage,800,O,z,z,None,609,409.0,200.0,49,1,1945.9000000059605,292816.7000000179,7068,rage,AF,B,286806,286806,285277,286090,285277,287223,286606,286606,287223,39
40,test,1,con,1,z,Wed Feb 26 2025 10:38:52 GMT-0600 (Central Standard Time),296861.8000000119,love,1000,O,z,z,None,562,363.0,199.0,19,1,2095.0999999940395,294766.7000000179,7068,love,AF,B,288956,288956,287227,288239,287227,289322,288756,288756,289322,40
41,test,1,con,1,m,Wed Feb 26 2025 10:38:52 GMT-0600 (Central Standard Time),298794.60000002384,rock,800,O,m,m,None,591,391.0,200.0,73,1,1929.300000011921,296865.3000000119,7068,rock,AF,B,290855,290855,289325,290138,289326,291255,290655,290655,291255,41
42,test,1,inc,1,m,Wed Feb 26 2025 10:38:52 GMT-0600 (Central Standard Time),300710.60000002384,elated,800,O,m,m,None,571,370.0,201.0,117,1,1912.1000000238419,298798.5,7068,remote,AF,B,292789,292789,291259,292071,291259,293171,292588,292588,293171,42
43,test,1,inc,1,m,Wed Feb 26 2025 10:38:52 GMT-0600 (Central Standard Time),302759.90000000596,kind,900,O,m,m,None,603,403.0,200.0,78,1,2045.5999999940395,300714.3000000119,7068,rock,AF,B,294804,294804,293174,294087,293175,295220,294604,294604,295220,43
44,test,1,inc,1,m,Wed Feb 26 2025 10:38:52 GMT-0600 (Central Standard Time),304709.3000000119,rage,800,O,m,m,None,605,406.0,199.0,93,1,1945.9000000059605,302763.40000000596,7068,film,AF,B,296753,296753,295223,296036,295224,297169,296553,296554,297169,44
45,test,1,inc,1,m,Wed Feb 26 2025 10:38:52 GMT-0600 (Central Standard Time),306841.8000000119,love,1000,O,m,m,None,582,383.0,199.0,71,1,2128.199999988079,304713.60000002384,7068,step,AF,B,298903,298903,297174,298186,297174,299302,298703,298703,299302,45
46,test,1,inc,1,z,Wed Feb 26 2025 10:38:52 GMT-0600 (Central Standard Time),308774.8000000119,step,800,O,z,z,None,588,388.0,200.0,21,1,1929.0999999940395,306845.7000000179,7068,love,AF,B,300835,300835,299306,300119,299306,301235,300635,300635,301235,46
46,test,1,con,0,z,Wed Feb 26 2025 10:38:52 GMT-0600 (Central Standard Time),310890.90000000596,temper,1100,O,m,m,None,466,267.0,199.0,60,1,2112.2999999821186,308778.60000002384,7068,temper,AF,B,303068,303068,301239,302351,301239,303351,302868,302868,303351,47
47,test,1,con,1,z,Wed Feb 26 2025 10:38:52 GMT-0600 (Central Standard Time),312906.8000000119,temper,900,O,z,z,None,582,383.0,199.0,58,1,2012.0,310894.8000000119,7068,temper,AF,B,304984,304984,303355,304268,303355,305367,304784,304784,305367,48
48,test,1,con,1,m,Wed Feb 26 2025 10:38:52 GMT-0600 (Central Standard Time),314756.2000000179,jacket,900,O,m,m,None,423,224.0,199.0,98,1,1845.5,312910.7000000179,7068,jacket,AF,B,306983,306983,305371,306283,305371,307216,306784,306784,307216,49
49,test,1,con,1,z,Wed Feb 26 2025 10:38:52 GMT-0600 (Central Standard Time),316789.0,hate,1100,O,z,z,None,397,197.0,200.0,44,1,2028.8999999761581,314760.10000002384,7068,hate,AF,B,309049,309049,307220,308333,307220,309249,308849,308849,309249,50
50,test,1,con,1,z,Wed Feb 26 2025 10:38:52 GMT-0600 (Central Standard Time),318738.3000000119,brutal,900,O,z,z,None,500,300.0,200.0,34,1,1945.699999988079,316792.60000002384,7068,brutal,AF,B,310882,310882,309253,310166,309253,311198,310682,310682,311198,51
51,test,1,inc,1,z,Wed Feb 26 2025 10:38:52 GMT-0600 (Central Standard Time),320804.5,rock,900,O,z,z,None,624,424.0,200.0,46,1,2062.399999976158,318742.10000002384,7068,hate,AF,B,312831,312831,311202,312115,311202,313265,312631,312631,313264,52
52,test,1,inc,1,m,Wed Feb 26 2025 10:38:52 GMT-0600 (Central Standard Time),322737.10000002384,rage,800,O,m,m,None,592,393.0,199.0,77,1,1929.1000000238419,320808.0,7068,rock,AF,B,314798,314798,313268,314081,313268,315197,314598,314598,315197,53
53,test,1,inc,1,m,Wed Feb 26 2025 10:38:52 GMT-0600 (Central Standard Time),325002.90000000596,friend,1100,O,m,m,None,633,433.0,200.0,120,1,2261.699999988079,322741.2000000179,7068,remote,AF,B,317030,317030,315201,316314,315202,317463,316830,316830,317463,54
54,test,1,con,1,m,Wed Feb 26 2025 10:38:52 GMT-0600 (Central Standard Time),327002.2000000179,film,1000,O,m,m,None,459,259.0,200.0,91,1,1995.5,325006.7000000179,7068,film,AF,B,319196,319196,317467,318480,317467,319462,318996,318996,319462,55
55,test,1,con,1,m,Wed Feb 26 2025 10:38:52 GMT-0600 (Central Standard Time),328968.3000000119,bell,1000,O,m,m,None,412,202.0,210.0,83,1,1962.4000000059605,327005.90000000596,7068,bell,AF,B,321212,321212,319466,320479,319466,321428,321002,321002,321428,56
56,test,1,inc,1,m,Wed Feb 26 2025 10:38:52 GMT-0600 (Central Standard Time),331067.5,love,1000,O,m,m,None,564,364.0,200.0,79,1,2095.2999999821186,328972.2000000179,7068,rock,AF,B,323162,323162,321432,322445,321433,323528,322962,322962,323528,57
57,test,1,inc,1,m,Wed Feb 26 2025 10:38:52 GMT-0600 (Central Standard Time),333100.60000002384,kind,900,O,m,m,None,590,390.0,200.0,70,1,2029.4000000059605,331071.2000000179,7068,step,AF,B,325161,325161,323531,324445,323532,325561,324961,324961,325561,58
58,test,1,inc,1,m,Wed Feb 26 2025 10:38:52 GMT-0600 (Central Standard Time),335399.7000000179,temper,1000,O,m,m,None,760,561.0,199.0,119,1,2295.300000011921,333104.40000000596,7068,remote,AF,B,327294,327294,325564,326577,325565,327860,327094,327094,327860,59
59,test,1,inc,1,z,Wed Feb 26 2025 10:38:52 GMT-0600 (Central Standard Time),337499.10000002384,bell,1000,O,z,z,None,558,358.0,200.0,47,1,2096.0,335403.10000002384,7068,hate,AF,B,329593,329593,327863,328876,327864,329959,329393,329393,329959,60
60,test,1,con,1,z,Wed Feb 26 2025 10:38:52 GMT-0600 (Central Standard Time),339582.10000002384,kind,1000,O,z,z,None,546,346.0,200.0,11,1,2079.2000000178814,337502.90000000596,7068,kind,AF,B,331692,331692,329963,330976,329963,332042,331492,331492,332042,61
61,test,1,con,1,m,Wed Feb 26 2025 10:38:52 GMT-0600 (Central Standard Time),341731.10000002384,rock,1100,O,m,m,None,500,300.0,200.0,76,1,2145.2000000178814,339585.90000000596,7068,rock,AF,B,333875,333875,332046,333159,332046,334191,333675,333675,334191,62
62,test,1,inc,1,z,Wed Feb 26 2025 10:38:52 GMT-0600 (Central Standard Time),343980.5,film,1100,O,z,z,None,607,407.0,200.0,56,1,2245.5999999940395,341734.90000000596,7068,rage,AF,B,336024,336024,334195,335308,334195,336441,335824,335824,336441,63
63,test,1,inc,1,m,Wed Feb 26 2025 10:38:52 GMT-0600 (Central Standard Time),346163.0,hate,1100,O,m,m,None,549,350.0,199.0,72,1,2178.5999999940395,343984.40000000596,7068,step,AF,B,338273,338273,336444,337557,336445,338623,338074,338074,338623,64
64,test,1,con,1,m,Wed Feb 26 2025 10:38:52 GMT-0600 (Central Standard Time),348029.0,napkin,800,O,m,m,None,523,323.0,200.0,105,1,1862.3999999761581,346166.60000002384,7068,napkin,AF,B,340156,340156,338627,339440,338627,340489,339956,339956,340489,65
65,test,1,con,1,m,Wed Feb 26 2025 10:38:52 GMT-0600 (Central Standard Time),350061.7000000179,window,1000,O,m,m,None,497,297.0,200.0,123,1,2028.9000000059605,348032.8000000119,7068,window,AF,B,342222,342222,340493,341506,340493,342522,342022,342022,342522,66
66,test,1,con,1,z,Wed Feb 26 2025 10:38:52 GMT-0600 (Central Standard Time),352238.40000000596,rage,1100,O,z,z,None,526,326.0,200.0,52,1,2173.0999999940395,350065.3000000119,7068,rage,AF,B,344355,344355,342525,343638,342526,344698,344155,344155,344698,67
67,test,1,con,1,m,Wed Feb 26 2025 10:38:52 GMT-0600 (Central Standard Time),354094.0,film,900,O,m,m,None,422,222.0,200.0,90,1,1851.8999999761581,352242.10000002384,7068,film,AF,B,346321,346321,344702,345605,344702,346554,346121,346121,346554,68
68,test,1,con,1,z,Wed Feb 26 2025 10:38:52 GMT-0600 (Central Standard Time),356143.40000000596,hate,1000,O,z,z,None,512,312.0,200.0,43,1,2045.2999999821186,354098.10000002384,7068,hate,AF,B,348287,348287,346558,347571,346558,348604,348087,348087,348603,69
69,test,1,con,1,z,Wed Feb 26 2025 10:38:52 GMT-0600 (Central Standard Time),358242.90000000596,elated,1000,O,z,z,None,550,350.0,200.0,3,1,2095.9000000059605,356147.0,7068,elated,AF,B,350336,350336,348607,349620,348607,350703,350136,350136,350703,70
70,test,1,inc,1,m,Wed Feb 26 2025 10:38:52 GMT-0600 (Central Standard Time),360308.60000002384,brutal,900,O,m,m,None,622,422.0,200.0,118,1,2062.100000023842,358246.5,7068,remote,AF,B,352336,352336,350707,351619,350707,352769,352136,352136,352769,71
71,test,1,con,1,m,Wed Feb 26 2025 10:38:52 GMT-0600 (Central Standard Time),362558.0,step,1000,O,m,m,None,712,513.0,199.0,67,1,2245.899999976158,360312.10000002384,7068,step,AF,B,354502,354502,352772,353785,352772,355018,354302,354302,355018,72
72,test,1,con,1,m,Wed Feb 26 2025 10:38:52 GMT-0600 (Central Standard Time),364340.8000000119,jacket,800,O,m,m,None,439,239.0,200.0,97,1,1779.0999999940395,362561.7000000179,7068,jacket,AF,B,356551,356551,355022,355835,355022,356801,356351,356351,356801,73
73,test,1,con,1,z,Wed Feb 26 2025 10:38:52 GMT-0600 (Central Standard Time),366323.3000000119,rage,1000,O,z,z,None,449,249.0,200.0,51,1,1978.800000011921,364344.5,7068,rage,AF,B,358534,358534,356805,357818,356805,358783,358334,358334,358783,74
74,test,1,inc,1,z,Wed Feb 26 2025 10:38:52 GMT-0600 (Central Standard Time),368372.90000000596,rock,900,O,z,z,None,613,414.0,199.0,22,1,2046.0999999940395,366326.8000000119,7068,love,AF,B,360417,360417,358787,359700,358787,360833,360217,360217,360833,75
75,test,1,inc,1,z,Wed Feb 26 2025 10:38:52 GMT-0600 (Central Standard Time),370538.7000000179,window,1100,O,z,z,None,532,332.0,200.0,8,1,2162.0,368376.7000000179,7068,elated,AF,B,362666,362666,360837,361950,360837,362999,362466,362466,362999,76
76,test,1,inc,1,z,Wed Feb 26 2025 10:38:52 GMT-0600 (Central Standard Time),372488.3000000119,jacket,800,O,z,z,None,603,403.0,200.0,5,1,1945.800000011921,370542.5,7068,elated,AF,B,364532,364532,363003,363816,363003,364948,364332,364332,364948,77
77,test,1,inc,1,m,Wed Feb 26 2025 10:38:52 GMT-0600 (Central Standard Time),374720.90000000596,hate,1100,O,m,m,None,586,386.0,200.0,96,1,2228.9000000059605,372492.0,7068,film,AF,B,366781,366781,364952,366064,364952,367181,366581,366581,367181,78
78,test,1,con,1,z,Wed Feb 26 2025 10:38:52 GMT-0600 (Central Standard Time),376803.40000000596,brutal,1100,O,z,z,None,441,241.0,200.0,36,1,2078.5999999940395,374724.8000000119,7068,brutal,AF,B,369014,369014,367185,368300,367185,369264,368814,368814,369263,79
79,test,1,inc,1,z,Wed Feb 26 2025 10:38:52 GMT-0600 (Central Standard Time),378969.60000002384,bell,1000,O,z,z,None,617,418.0,199.0,55,1,2162.2000000178814,376807.40000000596,7068,rage,AF,B,370997,370997,369267,370280,369268,371430,370797,370797,371430,80
80,test,1,con,1,z,Wed Feb 26 2025 10:38:52 GMT-0600 (Central Standard Time),380835.60000002384,temper,800,O,z,z,None,523,323.0,200.0,57,1,1862.5,378973.10000002384,7068,temper,AF,B,372963,372963,371433,372246,371434,373296,372763,372763,373296,81
81,test,1,inc,1,z,Wed Feb 26 2025 10:38:52 GMT-0600 (Central Standard Time),382751.7000000179,step,800,O,z,z,None,577,378.0,199.0,53,1,1912.5,380839.2000000179,7068,rage,AF,B,374829,374829,373299,374113,373299,375212,374629,374629,375212,82
82,test,1,con,1,z,Wed Feb 26 2025 10:38:52 GMT-0600 (Central Standard Time),384834.5,temper,1000,O,z,z,None,533,334.0,199.0,59,1,2079.0999999940395,382755.40000000596,7068,temper,AF,B,376945,376945,375215,376228,375216,377295,376745,376745,377295,83
83,test,1,con,1,m,Wed Feb 26 2025 10:38:52 GMT-0600 (Central Standard Time),386800.40000000596,napkin,1000,O,m,m,None,428,228.0,200.0,107,1,1962.0,384838.40000000596,7068,napkin,AF,B,379027,379027,377298,378311,377299,379261,378827,378827,379260,84
84,test,1,con,1,z,Wed Feb 26 2025 10:38:52 GMT-0600 (Central Standard Time),388899.7000000179,love,1100,O,z,z,None,456,257.0,199.0,20,1,2095.7000000178814,386804.0,7068,love,AF,B,381093,381093,379264,380377,379264,381360,380894,380894,381360,85
85,test,1,con,1,m,Wed Feb 26 2025 10:38:52 GMT-0600 (Central Standard Time),390732.5,step,900,O,m,m,None,398,198.0,200.0,66,1,1829.2999999821186,388903.2000000179,7068,step,AF,B,382993,382993,381363,382277,381364,383193,382793,382793,383193,86
86,test,1,inc,1,m,Wed Feb 26 2025 10:38:52 GMT-0600 (Central Standard Time),392881.7000000179,temper,1000,O,m,m,None,608,409.0,199.0,111,1,2145.5,390736.2000000179,7068,napkin,AF,B,384926,384926,383196,384209,383196,385342,384726,384726,385342,87
87,test,1,inc,1,m,Wed Feb 26 2025 10:38:52 GMT-0600 (Central Standard Time),394998.10000002384,temper,1000,O,m,m,None,571,372.0,199.0,127,1,2112.600000023842,392885.5,7068,window,AF,B,387075,387075,385346,386358,385346,387458,386875,386875,387458,88
88,test,1,con,1,m,Wed Feb 26 2025 10:38:52 GMT-0600 (Central Standard Time),397063.7000000179,window,1100,O,m,m,None,427,227.0,200.0,124,1,2061.9000000059605,395001.8000000119,7068,window,AF,B,389291,389291,387462,388575,387462,389524,389091,389091,389524,89
89,test,1,inc,1,m,Wed Feb 26 2025 10:38:52 GMT-0600 (Central Standard Time),398996.60000002384,elated,800,O,m,m,None,590,390.0,200.0,125,1,1929.2000000178814,397067.40000000596,7068,window,AF,B,391057,391057,389527,390341,389528,391457,390857,390857,391457,90
90,test,1,con,1,m,Wed Feb 26 2025 10:38:52 GMT-0600 (Central Standard Time),401095.90000000596,jacket,1000,O,m,m,None,576,377.0,199.0,99,1,2095.699999988079,399000.2000000179,7068,jacket,AF,B,393173,393173,391460,392473,391461,393556,392974,392974,393556,91
91,test,1,con,1,z,Wed Feb 26 2025 10:38:52 GMT-0600 (Central Standard Time),403145.3000000119,hate,800,O,z,z,None,702,502.0,200.0,41,1,2045.5999999940395,401099.7000000179,7068,hate,AF,B,395089,395089,393560,394373,393560,395605,394889,394889,395605,92
92,test,1,inc,1,m,Wed Feb 26 2025 10:38:52 GMT-0600 (Central Standard Time),405344.40000000596,friend,1100,O,m,m,None,558,344.0,214.0,112,1,2195.5,403148.90000000596,7068,napkin,AF,B,397455,397455,395609,396722,395609,397804,397240,397240,397804,93
93,test,1,con,1,m,Wed Feb 26 2025 10:38:52 GMT-0600 (Central Standard Time),407360.7000000179,rock,900,O,m,m,None,575,376.0,199.0,74,1,2012.5,405348.2000000179,7068,rock,AF,B,399438,399438,397808,398721,397809,399821,399238,399238,399821,94
94,test,1,inc,1,z,Wed Feb 26 2025 10:38:52 GMT-0600 (Central Standard Time),409476.5,napkin,900,O,z,z,None,673,473.0,200.0,62,1,2112.0999999940395,407364.40000000596,7068,temper,AF,B,401454,401454,399824,400737,399825,401937,401254,401254,401936,95
95,test,1,con,1,m,Wed Feb 26 2025 10:38:52 GMT-0600 (Central Standard Time),411376.0,bell,900,O,m,m,None,460,261.0,199.0,82,1,1895.7999999821186,409480.2000000179,7068,bell,AF,B,403570,403570,401940,402853,401941,403836,403370,403370,403836,96
96,test,1,inc,1,z,Wed Feb 26 2025 10:38:52 GMT-0600 (Central Standard Time),413342.2000000179,jacket,800,O,z,z,None,620,405.0,215.0,37,1,1962.7000000178814,411379.5,7068,brutal,AF,B,405386,405386,403840,404653,403840,405802,405171,405171,405802,97
97,test,1,inc,1,z,Wed Feb 26 2025 10:38:52 GMT-0600 (Central Standard Time),415558.10000002384,window,1100,O,z,z,None,572,372.0,200.0,64,1,2212.2000000178814,413345.90000000596,7068,temper,AF,B,407635,407635,405806,406919,405806,408018,407435,407435,408018,98
98,test,1,con,1,m,Wed Feb 26 2025 10:38:52 GMT-0600 (Central Standard Time),417607.60000002384,film,1100,O,m,m,None,402,203.0,199.0,92,1,2046.0,415561.60000002384,7068,film,AF,B,409852,409852,408022,409135,408022,410068,409652,409652,410068,99
99,test,1,con,1,z,Wed Feb 26 2025 10:38:52 GMT-0600 (Central Standard Time),419423.8000000119,love,900,O,z,z,None,377,178.0,199.0,18,1,1812.5999999940395,417611.2000000179,7068,love,AF,B,411701,411701,410071,410984,410072,411884,411501,411501,411884,100
100,test,1,inc,1,m,Wed Feb 26 2025 10:38:52 GMT-0600 (Central Standard Time),421439.60000002384,kind,900,O,m,m,None,569,370.0,199.0,86,1,2012.4000000059605,419427.2000000179,7068,bell,AF,B,413517,413517,411887,412800,411888,413900,413317,413317,413900,101
101,test,1,con,1,z,Wed Feb 26 2025 10:38:52 GMT-0600 (Central Standard Time),423272.40000000596,friend,900,O,z,z,None,401,194.0,207.0,26,1,1828.9000000059605,421443.5,7068,friend,AF,B,415533,415533,413904,414816,413904,415733,415325,415325,415732,102
102,test,1,inc,1,m,Wed Feb 26 2025 10:38:52 GMT-0600 (Central Standard Time),425404.90000000596,friend,1100,O,m,m,None,497,298.0,199.0,128,1,2128.7999999821186,423276.10000002384,7068,window,AF,B,417565,417565,415736,416849,415736,417865,417365,417366,417865,103
103,test,1,inc,1,m,Wed Feb 26 2025 10:38:52 GMT-0600 (Central Standard Time),427471.0,temper,1000,O,m,m,None,521,321.0,200.0,103,1,2060.5,425410.5,7068,jacket,AF,B,419598,419598,417871,418882,417871,419931,419398,419398,419931,104
104,test,1,inc,1,m,Wed Feb 26 2025 10:38:52 GMT-0600 (Central Standard Time),429620.2000000179,friend,1100,O,m,m,None,514,314.0,200.0,104,1,2145.0,427475.2000000179,7068,jacket,AF,B,421764,421764,419935,421048,419935,422080,421564,421564,422080,105
105,test,1,inc,1,m,Wed Feb 26 2025 10:38:52 GMT-0600 (Central Standard Time),431569.60000002384,brutal,900,O,m,m,None,499,300.0,199.0,126,1,1945.6000000238419,429624.0,7068,window,AF,B,423714,423714,422084,422997,422084,424030,423514,423514,424030,106
106,test,1,con,1,m,Wed Feb 26 2025 10:38:52 GMT-0600 (Central Standard Time),433635.7000000179,napkin,1100,O,m,m,None,423,224.0,199.0,108,1,2062.5,431573.2000000179,7068,napkin,AF,B,425863,425863,424033,425146,424034,426096,425663,425663,426096,107
107,test,1,con,1,m,Wed Feb 26 2025 10:38:52 GMT-0600 (Central Standard Time),435601.7000000179,rock,1000,O,m,m,None,417,217.0,200.0,75,1,1962.2000000178814,433639.5,7068,rock,AF,B,427829,427829,426100,427112,426100,428062,427629,427629,428062,108
108,test,1,con,1,m,Wed Feb 26 2025 10:38:52 GMT-0600 (Central Standard Time),437668.0,bell,1100,O,m,m,None,424,224.0,200.0,84,1,2062.2999999821186,435605.7000000179,7068,bell,AF,B,429895,429895,428066,429178,428066,430128,429695,429695,430128,109
109,test,1,inc,1,z,Wed Feb 26 2025 10:38:52 GMT-0600 (Central Standard Time),439667.0,rock,900,O,z,z,None,557,357.0,200.0,54,1,1995.0999999940395,437671.90000000596,7068,rage,AF,B,431761,431761,430132,431045,430132,432127,431561,431561,432127,110
110,test,1,inc,1,m,Wed Feb 26 2025 10:38:52 GMT-0600 (Central Standard Time),441533.10000002384,elated,800,O,m,m,None,522,323.0,199.0,109,1,1861.800000011921,439671.3000000119,7068,napkin,AF,B,433660,433660,432131,432944,432132,433993,433461,433461,433993,111
111,test,1,con,1,m,Wed Feb 26 2025 10:38:52 GMT-0600 (Central Standard Time),443465.7000000179,bell,800,O,m,m,None,583,384.0,199.0,81,1,1929.2000000178814,441536.5,7068,bell,AF,B,435526,435526,433997,434810,433997,435926,435327,435327,435926,112
112,test,1,inc,1,z,Wed Feb 26 2025 10:38:52 GMT-0600 (Central Standard Time),445648.7000000179,film,1100,O,z,z,None,544,344.0,200.0,16,1,2179.4000000059605,443469.3000000119,7068,kind,AF,B,437759,437759,435929,437043,435930,438109,437559,437559,438109,113
113,test,1,con,1,m,Wed Feb 26 2025 10:38:52 GMT-0600 (Central Standard Time),447531.60000002384,remote,900,O,m,m,None,448,249.0,199.0,114,1,1879.4000000059605,445652.2000000179,7068,remote,AF,B,439742,439742,438112,439025,438113,439992,439542,439542,439992,114
114,test,1,con,1,m,Wed Feb 26 2025 10:38:52 GMT-0600 (Central Standard Time),449331.0,film,800,O,m,m,None,449,250.0,199.0,89,1,1795.8999999761581,447535.10000002384,7068,film,AF,B,441525,441525,439995,440808,439995,441791,441325,441325,441791,115
115,test,1,inc,1,z,Wed Feb 26 2025 10:38:52 GMT-0600 (Central Standard Time),451280.40000000596,step,800,O,z,z,None,611,411.0,200.0,45,1,1945.5999999940395,449334.8000000119,7068,hate,AF,B,443324,443324,441795,442608,441795,443741,443124,443124,443740,116
116,test,1,con,1,m,Wed Feb 26 2025 10:38:52 GMT-0600 (Central Standard Time),453379.60000002384,jacket,1100,O,m,m,None,458,258.0,200.0,100,1,2095.7000000178814,451283.90000000596,7068,jacket,AF,B,445573,445573,443744,444857,443744,445840,445373,445373,445840,117
117,test,1,inc,1,m,Wed Feb 26 2025 10:38:52 GMT-0600 (Central Standard Time),455595.7000000179,hate,1100,O,m,m,None,573,374.0,199.0,88,1,2212.4000000059605,453383.3000000119,7068,bell,AF,B,447673,447673,445843,446956,445844,448056,447473,447473,448056,118
118,test,1,con,1,z,Wed Feb 26 2025 10:38:52 GMT-0600 (Central Standard Time),457411.7000000179,love,800,O,z,z,None,473,274.0,199.0,17,1,1812.2000000178814,455599.5,7068,love,AF,B,449589,449589,448060,448872,448060,449872,449389,449389,449872,119
119,test,1,inc,1,z,Wed Feb 26 2025 10:38:52 GMT-0600 (Central Standard Time),459461.10000002384,napkin,900,O,z,z,None,605,406.0,199.0,30,1,2045.5,457415.60000002384,7068,friend,AF,B,451505,451505,449876,450788,449876,451921,451306,451306,451921,120
120,test,1,inc,1,z,Wed Feb 26 2025 10:38:52 GMT-0600 (Central Standard Time),461526.90000000596,remote,1000,O,z,z,None,528,328.0,200.0,31,1,2062.199999988079,459464.7000000179,7068,friend,AF,B,453654,453654,451925,452937,451925,453987,453454,453454,453987,121
121,test,1,con,1,z,Wed Feb 26 2025 10:38:52 GMT-0600 (Central Standard Time),463393.0,friend,800,O,z,z,None,518,319.0,199.0,25,1,1862.699999988079,461530.3000000119,7068,friend,AF,B,455520,455520,453990,454804,453991,455853,455321,455321,455853,122
122,test,1,con,1,z,Wed Feb 26 2025 10:38:52 GMT-0600 (Central Standard Time),465309.2000000179,rage,900,O,z,z,None,473,273.0,200.0,50,1,1912.2000000178814,463397.0,7068,rage,AF,B,457486,457486,455857,456770,455857,457769,457286,457286,457769,123
123,test,1,inc,1,m,Wed Feb 26 2025 10:38:52 GMT-0600 (Central Standard Time),467241.8000000119,elated,800,O,m,m,None,584,385.0,199.0,101,1,1928.800000011921,465313.0,7068,jacket,AF,B,459302,459302,457773,458586,457773,459702,459103,459103,459702,124
124,test,1,con,1,z,Wed Feb 26 2025 10:38:52 GMT-0600 (Central Standard Time),469391.3000000119,friend,1100,O,z,z,None,526,312.0,214.0,28,1,2146.0,467245.3000000119,7068,friend,AF,B,461535,461535,459705,460818,459706,461851,461320,461320,461851,125
125,test,1,con,1,z,Wed Feb 26 2025 10:38:52 GMT-0600 (Central Standard Time),471473.90000000596,elated,1100,O,z,z,None,434,234.0,200.0,4,1,2079.0,469394.90000000596,7068,elated,AF,B,463684,463684,461855,462968,461855,463934,463484,463484,463934,126
126,test,1,inc,1,m,Wed Feb 26 2025 10:38:52 GMT-0600 (Central Standard Time),473456.60000002384,brutal,900,O,m,m,None,544,344.0,200.0,102,1,1978.7000000178814,471477.90000000596,7068,jacket,AF,B,465567,465567,463938,464851,463938,465917,465367,465367,465917,127
127,test,1,inc,1,m,Wed Feb 26 2025 10:38:52 GMT-0600 (Central Standard Time),475522.90000000596,love,1000,O,m,m,None,532,333.0,199.0,87,1,2062.4000000059605,473460.5,7068,bell,AF,B,467650,467650,465921,466933,465921,467983,467450,467450,467983,128
