block_c,block_dur,condition,countdown,datetime,endtime,list,multichar_response,project,response,response_time,session_number,start_end,starttime,subject_id,task,task_vers,trial
,,,,Thu Apr 03 2025 14:21:45 GMT-0500 (Central Daylight Time),,,,O,space,571,1,,,7113,WL,A,
prac,,0,,Thu Apr 03 2025 14:21:45 GMT-0500 (Central Daylight Time),,NA,b,O,b,6727,1,,,7113,WL,A,1.0
prac,,0,,Thu Apr 03 2025 14:21:45 GMT-0500 (Central Daylight Time),,NA,bo,O,o,489,1,,,7113,WL,A,1.0
prac,,0,,Thu Apr 03 2025 14:21:45 GMT-0500 (Central Daylight Time),,NA,boo,O,o,360,1,,,7113,WL,A,1.0
prac,,0,,Thu Apr 03 2025 14:21:45 GMT-0500 (Central Daylight Time),,NA,boos,O,s,436,1,,,7113,WL,A,1.0
prac,,0,,Thu Apr 03 2025 14:21:45 GMT-0500 (Central Daylight Time),,NA,boost,O,t,749,1,,,7113,WL,A,1.0
prac,,0,,Thu Apr 03 2025 14:21:45 GMT-0500 (Central Daylight Time),,NA,boostenter,O,enter,1781,1,,,7113,WL,A,1.0
1,1.0999999046325684,learn,58900.00009536743,Thu Apr 03 2025 14:21:45 GMT-0500 (Central Daylight Time),138187.0,A,b,O,b,1066,1,1098.800000011921,137088.19999998808,7113,WL,A,1.0
1,1.4830000400543213,learn,58516.99995994568,Thu Apr 03 2025 14:21:45 GMT-0500 (Central Daylight Time),138570.19999998808,A,bi,O,i,347,1,1482.0,137088.19999998808,7113,WL,A,1.0
1,2.1659998893737793,learn,57834.00011062622,Thu Apr 03 2025 14:21:45 GMT-0500 (Central Daylight Time),139252.80000001192,A,b,O,backspace,635,1,2164.600000023842,137088.19999998808,7113,WL,A,1.0
1,2.6659998893737793,learn,57334.00011062622,Thu Apr 03 2025 14:21:45 GMT-0500 (Central Daylight Time),139752.69999998808,A,bo,O,o,463,1,2664.5,137088.19999998808,7113,WL,A,1.0
1,2.815000057220459,learn,57184.99994277954,Thu Apr 03 2025 14:21:45 GMT-0500 (Central Daylight Time),139902.30000001192,A,boo,O,o,120,1,2814.100000023842,137088.19999998808,7113,WL,A,1.0
1,3.0490000247955322,learn,56950.99997520447,Thu Apr 03 2025 14:21:45 GMT-0500 (Central Daylight Time),140135.89999997616,A,book,O,k,196,1,3047.699999988079,137088.19999998808,7113,WL,A,1.0
1,3.8980000019073486,learn,56101.99999809265,Thu Apr 03 2025 14:21:45 GMT-0500 (Central Daylight Time),140984.69999998808,A,bookenter,O,enter,805,1,3896.5,137088.19999998808,7113,WL,A,1.0
1,5.063999891281128,learn,54936.00010871887,Thu Apr 03 2025 14:21:45 GMT-0500 (Central Daylight Time),142151.39999997616,A,f,O,f,1147,1,1166.300000011921,140985.09999996424,7113,WL,A,2.0
1,5.5980000495910645,learn,54401.999950408936,Thu Apr 03 2025 14:21:45 GMT-0500 (Central Daylight Time),142684.80000001192,A,fl,O,l,497,1,1699.7000000476837,140985.09999996424,7113,WL,A,2.0
1,5.79800009727478,learn,54201.99990272522,Thu Apr 03 2025 14:21:45 GMT-0500 (Central Daylight Time),142885.0,A,flo,O,o,175,1,1899.9000000357628,140985.09999996424,7113,WL,A,2.0
1,5.947999954223633,learn,54052.00004577637,Thu Apr 03 2025 14:21:45 GMT-0500 (Central Daylight Time),143034.80000001192,A,flow,O,w,111,1,2049.7000000476837,140985.09999996424,7113,WL,A,2.0
1,6.197999954223633,learn,53802.00004577637,Thu Apr 03 2025 14:21:45 GMT-0500 (Central Daylight Time),143284.69999998808,A,flowe,O,e,211,1,2299.600000023842,140985.09999996424,7113,WL,A,2.0
1,6.296999931335449,learn,53703.00006866455,Thu Apr 03 2025 14:21:45 GMT-0500 (Central Daylight Time),143383.89999997616,A,flower,O,r,57,1,2398.800000011921,140985.09999996424,7113,WL,A,2.0
1,6.880000114440918,learn,53119.99988555908,Thu Apr 03 2025 14:21:45 GMT-0500 (Central Daylight Time),143966.89999997616,A,flowerenter,O,enter,570,1,2981.800000011921,140985.09999996424,7113,WL,A,2.0
1,7.763999938964844,learn,52236.000061035156,Thu Apr 03 2025 14:21:45 GMT-0500 (Central Daylight Time),144851.0,A,t,O,t,862,1,883.8000000119209,143967.19999998808,7113,WL,A,3.0
1,7.96399998664856,learn,52036.00001335144,Thu Apr 03 2025 14:21:45 GMT-0500 (Central Daylight Time),145050.69999998808,A,tr,O,r,166,1,1083.5,143967.19999998808,7113,WL,A,3.0
1,8.147000074386597,learn,51852.9999256134,Thu Apr 03 2025 14:21:45 GMT-0500 (Central Daylight Time),145234.19999998808,A,tra,O,a,155,1,1267.0,143967.19999998808,7113,WL,A,3.0
1,8.496999979019165,learn,51503.000020980835,Thu Apr 03 2025 14:21:45 GMT-0500 (Central Daylight Time),145584.09999996424,A,trai,O,i,309,1,1616.8999999761581,143967.19999998808,7113,WL,A,3.0
1,8.780999898910522,learn,51219.00010108948,Thu Apr 03 2025 14:21:45 GMT-0500 (Central Daylight Time),145867.80000001192,A,train,O,n,247,1,1900.6000000238419,143967.19999998808,7113,WL,A,3.0
1,9.312000036239624,learn,50687.999963760376,Thu Apr 03 2025 14:21:45 GMT-0500 (Central Daylight Time),146399.5,A,trainenter,O,enter,491,1,2432.300000011921,143967.19999998808,7113,WL,A,3.0
1,9.813999891281128,learn,50186.00010871887,Thu Apr 03 2025 14:21:45 GMT-0500 (Central Daylight Time),146900.89999997616,A,r,O,r,493,1,501.0,146399.89999997616,7113,WL,A,4.0
1,9.996000051498413,learn,50003.99994850159,Thu Apr 03 2025 14:21:45 GMT-0500 (Central Daylight Time),147083.39999997616,A,ri,O,i,147,1,683.5,146399.89999997616,7113,WL,A,4.0
1,10.329999923706055,learn,49670.000076293945,Thu Apr 03 2025 14:21:45 GMT-0500 (Central Daylight Time),147417.09999996424,A,rin,O,n,290,1,1017.1999999880791,146399.89999997616,7113,WL,A,4.0
1,10.496000051498413,learn,49503.99994850159,Thu Apr 03 2025 14:21:45 GMT-0500 (Central Daylight Time),147583.19999998808,A,ring,O,g,125,1,1183.300000011921,146399.89999997616,7113,WL,A,4.0
1,11.461999893188477,learn,48538.00010681152,Thu Apr 03 2025 14:21:45 GMT-0500 (Central Daylight Time),148548.69999998808,A,ringenter,O,enter,930,1,2148.800000011921,146399.89999997616,7113,WL,A,4.0
1,11.878999948501587,learn,48121.00005149841,Thu Apr 03 2025 14:21:45 GMT-0500 (Central Daylight Time),148966.19999998808,A,g,O,g,408,1,417.19999998807907,148549.0,7113,WL,A,5.0
1,12.494999885559082,learn,47505.00011444092,Thu Apr 03 2025 14:21:45 GMT-0500 (Central Daylight Time),149582.39999997616,A,go,O,o,590,1,1033.3999999761581,148549.0,7113,WL,A,5.0
1,12.746000051498413,learn,47253.99994850159,Thu Apr 03 2025 14:21:45 GMT-0500 (Central Daylight Time),149832.69999998808,A,gol,O,l,209,1,1283.699999988079,148549.0,7113,WL,A,5.0
1,12.861999988555908,learn,47138.00001144409,Thu Apr 03 2025 14:21:45 GMT-0500 (Central Daylight Time),149949.39999997616,A,gold,O,d,90,1,1400.3999999761581,148549.0,7113,WL,A,5.0
1,13.293999910354614,learn,46706.000089645386,Thu Apr 03 2025 14:21:45 GMT-0500 (Central Daylight Time),150381.5,A,goldenter,O,enter,403,1,1832.5,148549.0,7113,WL,A,5.0
1,15.045000076293945,learn,44954.999923706055,Thu Apr 03 2025 14:21:45 GMT-0500 (Central Daylight Time),152131.80000001192,A,b,O,b,1736,1,1750.0,150381.80000001192,7113,WL,A,6.0
1,15.194999933242798,learn,44805.0000667572,Thu Apr 03 2025 14:21:45 GMT-0500 (Central Daylight Time),152281.69999998808,A,bu,O,u,117,1,1899.8999999761581,150381.80000001192,7113,WL,A,6.0
1,15.42799997329712,learn,44572.00002670288,Thu Apr 03 2025 14:21:45 GMT-0500 (Central Daylight Time),152515.0,A,but,O,t,196,1,2133.199999988079,150381.80000001192,7113,WL,A,6.0
1,15.611000061035156,learn,44388.999938964844,Thu Apr 03 2025 14:21:45 GMT-0500 (Central Daylight Time),152698.19999998808,A,butt,O,t,149,1,2316.399999976158,150381.80000001192,7113,WL,A,6.0
1,15.977999925613403,learn,44022.0000743866,Thu Apr 03 2025 14:21:45 GMT-0500 (Central Daylight Time),153065.0,A,butto,O,o,326,1,2683.199999988079,150381.80000001192,7113,WL,A,6.0
1,16.26099991798401,learn,43739.00008201599,Thu Apr 03 2025 14:21:45 GMT-0500 (Central Daylight Time),153348.19999998808,A,button,O,n,240,1,2966.399999976158,150381.80000001192,7113,WL,A,6.0
1,16.66000008583069,learn,43339.99991416931,Thu Apr 03 2025 14:21:45 GMT-0500 (Central Daylight Time),153747.09999996424,A,buttonenter,O,enter,369,1,3365.2999999523163,150381.80000001192,7113,WL,A,6.0
1,16.960999965667725,learn,43039.000034332275,Thu Apr 03 2025 14:21:45 GMT-0500 (Central Daylight Time),154047.89999997616,A,c,O,c,291,1,300.5,153747.39999997616,7113,WL,A,7.0
1,17.210999965667725,learn,42789.000034332275,Thu Apr 03 2025 14:21:45 GMT-0500 (Central Daylight Time),154298.0,A,ch,O,h,210,1,550.6000000238419,153747.39999997616,7113,WL,A,7.0
1,17.444000005722046,learn,42555.999994277954,Thu Apr 03 2025 14:21:45 GMT-0500 (Central Daylight Time),154531.19999998808,A,chi,O,i,200,1,783.8000000119209,153747.39999997616,7113,WL,A,7.0
1,17.877000093460083,learn,42122.99990653992,Thu Apr 03 2025 14:21:45 GMT-0500 (Central Daylight Time),154964.39999997616,A,chim,O,m,390,1,1217.0,153747.39999997616,7113,WL,A,7.0
1,18.49399995803833,learn,41506.00004196167,Thu Apr 03 2025 14:21:45 GMT-0500 (Central Daylight Time),155580.69999998808,A,chimn,O,n,576,1,1833.300000011921,153747.39999997616,7113,WL,A,7.0
1,18.66000008583069,learn,41339.99991416931,Thu Apr 03 2025 14:21:45 GMT-0500 (Central Daylight Time),155747.39999997616,A,chimne,O,e,125,1,2000.0,153747.39999997616,7113,WL,A,7.0
1,18.925999879837036,learn,41074.000120162964,Thu Apr 03 2025 14:21:45 GMT-0500 (Central Daylight Time),156013.59999996424,A,chimney,O,y,243,1,2266.199999988079,153747.39999997616,7113,WL,A,7.0
1,20.075000047683716,learn,39924.999952316284,Thu Apr 03 2025 14:21:45 GMT-0500 (Central Daylight Time),157162.59999996424,A,chimneyenter,O,enter,1118,1,3415.199999988079,153747.39999997616,7113,WL,A,7.0
1,40.38700008392334,learn,19612.99991607666,Thu Apr 03 2025 14:21:45 GMT-0500 (Central Daylight Time),177473.5,A,r,O,r,20300,1,20310.600000023842,157162.89999997616,7113,WL,A,8.0
1,40.6029999256134,learn,19397.000074386597,Thu Apr 03 2025 14:21:45 GMT-0500 (Central Daylight Time),177689.59999996424,A,ru,O,u,180,1,20526.69999998808,157162.89999997616,7113,WL,A,8.0
1,40.8199999332428,learn,19180.000066757202,Thu Apr 03 2025 14:21:45 GMT-0500 (Central Daylight Time),177907.0,A,rug,O,g,196,1,20744.100000023842,157162.89999997616,7113,WL,A,8.0
1,41.18600010871887,learn,18813.999891281128,Thu Apr 03 2025 14:21:45 GMT-0500 (Central Daylight Time),178272.30000001192,A,rugenter,O,enter,332,1,21109.400000035763,157162.89999997616,7113,WL,A,8.0
1,60.013999938964844,learn,-13.99993896484375,Thu Apr 03 2025 14:21:45 GMT-0500 (Central Daylight Time),197100.5,A,None,O,None,18821,1,18827.900000035763,178272.59999996424,7113,WL,A,9.0
2,1.500999927520752,learn,58499.00007247925,Thu Apr 03 2025 14:21:45 GMT-0500 (Central Daylight Time),268494.1999999881,A,g,O,g,1494,1,1500.8999999761581,266993.3000000119,7113,WL,A,1.0
2,1.750999927520752,learn,58249.00007247925,Thu Apr 03 2025 14:21:45 GMT-0500 (Central Daylight Time),268743.6999999881,A,go,O,o,211,1,1750.3999999761581,266993.3000000119,7113,WL,A,1.0
2,1.9670000076293945,learn,58032.999992370605,Thu Apr 03 2025 14:21:45 GMT-0500 (Central Daylight Time),268960.1999999881,A,gol,O,l,184,1,1966.8999999761581,266993.3000000119,7113,WL,A,1.0
2,2.0989999771118164,learn,57901.00002288818,Thu Apr 03 2025 14:21:45 GMT-0500 (Central Daylight Time),269092.5,A,gold,O,d,95,1,2099.199999988079,266993.3000000119,7113,WL,A,1.0
2,2.315999984741211,learn,57684.00001525879,Thu Apr 03 2025 14:21:45 GMT-0500 (Central Daylight Time),269309.09999996424,A,goldenter,O,enter,196,1,2315.7999999523163,266993.3000000119,7113,WL,A,1.0
2,2.7159998416900635,learn,57284.00015830994,Thu Apr 03 2025 14:21:45 GMT-0500 (Central Daylight Time),269709.6999999881,A,b,O,b,393,1,400.30000001192093,269309.39999997616,7113,WL,A,2.0
2,3.0829999446868896,learn,56917.00005531311,Thu Apr 03 2025 14:21:45 GMT-0500 (Central Daylight Time),270076.59999996424,A,bo,O,o,332,1,767.1999999880791,269309.39999997616,7113,WL,A,2.0
2,3.25,learn,56750.0,Thu Apr 03 2025 14:21:45 GMT-0500 (Central Daylight Time),270242.8000000119,A,boo,O,o,128,1,933.4000000357628,269309.39999997616,7113,WL,A,2.0
2,3.566999912261963,learn,56433.00008773804,Thu Apr 03 2025 14:21:45 GMT-0500 (Central Daylight Time),270559.6999999881,A,book,O,k,294,1,1250.300000011921,269309.39999997616,7113,WL,A,2.0
2,3.9149999618530273,learn,56085.00003814697,Thu Apr 03 2025 14:21:45 GMT-0500 (Central Daylight Time),270908.39999997616,A,bookenter,O,enter,326,1,1599.0,269309.39999997616,7113,WL,A,2.0
2,4.233000040054321,learn,55766.99995994568,Thu Apr 03 2025 14:21:45 GMT-0500 (Central Daylight Time),271226.09999996424,A,r,O,r,296,1,317.5,270908.59999996424,7113,WL,A,3.0
2,4.531999826431274,learn,55468.000173568726,Thu Apr 03 2025 14:21:45 GMT-0500 (Central Daylight Time),271525.1999999881,A,ru,O,u,261,1,616.6000000238419,270908.59999996424,7113,WL,A,3.0
2,4.898000001907349,learn,55101.99999809265,Thu Apr 03 2025 14:21:45 GMT-0500 (Central Daylight Time),271891.59999996424,A,rug,O,g,347,1,983.0,270908.59999996424,7113,WL,A,3.0
2,5.3480000495910645,learn,54651.999950408936,Thu Apr 03 2025 14:21:45 GMT-0500 (Central Daylight Time),272341.3000000119,A,rugenter,O,enter,431,1,1432.7000000476837,270908.59999996424,7113,WL,A,3.0
2,5.764999866485596,learn,54235.000133514404,Thu Apr 03 2025 14:21:45 GMT-0500 (Central Daylight Time),272757.89999997616,A,f,O,f,399,1,416.19999998807907,272341.6999999881,7113,WL,A,4.0
2,5.930999994277954,learn,54069.000005722046,Thu Apr 03 2025 14:21:45 GMT-0500 (Central Daylight Time),272924.5,A,fi,O,i,158,1,582.8000000119209,272341.6999999881,7113,WL,A,4.0
2,6.180999994277954,learn,53819.000005722046,Thu Apr 03 2025 14:21:45 GMT-0500 (Central Daylight Time),273174.3000000119,A,fin,O,n,239,1,832.6000000238419,272341.6999999881,7113,WL,A,4.0
2,6.297999858856201,learn,53702.0001411438,Thu Apr 03 2025 14:21:45 GMT-0500 (Central Daylight Time),273291.0,A,fing,O,g,94,1,949.3000000119209,272341.6999999881,7113,WL,A,4.0
2,6.447999954223633,learn,53552.00004577637,Thu Apr 03 2025 14:21:45 GMT-0500 (Central Daylight Time),273440.89999997616,A,finge,O,e,136,1,1099.199999988079,272341.6999999881,7113,WL,A,4.0
2,6.56499981880188,learn,53435.00018119812,Thu Apr 03 2025 14:21:45 GMT-0500 (Central Daylight Time),273557.6999999881,A,finger,O,r,99,1,1216.0,272341.6999999881,7113,WL,A,4.0
2,6.813999891281128,learn,53186.00010871887,Thu Apr 03 2025 14:21:45 GMT-0500 (Central Daylight Time),273807.59999996424,A,fingerenter,O,enter,236,1,1465.8999999761581,272341.6999999881,7113,WL,A,4.0
2,7.063999891281128,learn,52936.00010871887,Thu Apr 03 2025 14:21:45 GMT-0500 (Central Daylight Time),274057.39999997616,A,a,O,a,236,1,249.39999997615814,273808.0,7113,WL,A,5.0
2,7.447000026702881,learn,52552.99997329712,Thu Apr 03 2025 14:21:45 GMT-0500 (Central Daylight Time),274440.59999996424,A,ap,O,p,370,1,632.5999999642372,273808.0,7113,WL,A,5.0
2,7.613999843597412,learn,52386.00015640259,Thu Apr 03 2025 14:21:45 GMT-0500 (Central Daylight Time),274607.1999999881,A,app,O,p,147,1,799.1999999880791,273808.0,7113,WL,A,5.0
2,7.914000034332275,learn,52085.999965667725,Thu Apr 03 2025 14:21:45 GMT-0500 (Central Daylight Time),274907.1999999881,A,appl,O,l,276,1,1099.199999988079,273808.0,7113,WL,A,5.0
2,7.996999979019165,learn,52003.000020980835,Thu Apr 03 2025 14:21:45 GMT-0500 (Central Daylight Time),274990.39999997616,A,apple,O,e,73,1,1182.3999999761581,273808.0,7113,WL,A,5.0
2,8.414000034332275,learn,51585.999965667725,Thu Apr 03 2025 14:21:45 GMT-0500 (Central Daylight Time),275407.09999996424,A,appleenter,O,enter,406,1,1599.0999999642372,273808.0,7113,WL,A,5.0
2,10.664000034332275,learn,49335.999965667725,Thu Apr 03 2025 14:21:45 GMT-0500 (Central Daylight Time),277657.39999997616,A,l,O,l,2231,1,2250.0,275407.39999997616,7113,WL,A,6.0
2,10.863999843597412,learn,49136.00015640259,Thu Apr 03 2025 14:21:45 GMT-0500 (Central Daylight Time),277857.3000000119,A,lo,O,o,161,1,2449.900000035763,275407.39999997616,7113,WL,A,6.0
2,10.980000019073486,learn,49019.999980926514,Thu Apr 03 2025 14:21:45 GMT-0500 (Central Daylight Time),277973.59999996424,A,log,O,g,80,1,2566.199999988079,275407.39999997616,7113,WL,A,6.0
2,11.296000003814697,learn,48703.9999961853,Thu Apr 03 2025 14:21:45 GMT-0500 (Central Daylight Time),278289.39999997616,A,logenter,O,enter,277,1,2882.0,275407.39999997616,7113,WL,A,6.0
2,11.86299991607666,learn,48137.00008392334,Thu Apr 03 2025 14:21:45 GMT-0500 (Central Daylight Time),278856.6999999881,A,r,O,r,556,1,567.1000000238419,278289.59999996424,7113,WL,A,7.0
2,11.980000019073486,learn,48019.999980926514,Thu Apr 03 2025 14:21:45 GMT-0500 (Central Daylight Time),278973.09999996424,A,ru,O,u,82,1,683.5,278289.59999996424,7113,WL,A,7.0
2,12.21399998664856,learn,47786.00001335144,Thu Apr 03 2025 14:21:45 GMT-0500 (Central Daylight Time),279206.8000000119,A,rug,O,g,211,1,917.2000000476837,278289.59999996424,7113,WL,A,7.0
2,12.395999908447266,learn,47604.000091552734,Thu Apr 03 2025 14:21:45 GMT-0500 (Central Daylight Time),279389.09999996424,A,rugenter,O,enter,154,1,1099.5,278289.59999996424,7113,WL,A,7.0
2,14.462999820709229,learn,45537.00017929077,Thu Apr 03 2025 14:21:45 GMT-0500 (Central Daylight Time),281456.0,A,t,O,t,2056,1,2066.699999988079,279389.3000000119,7113,WL,A,8.0
2,14.645999908447266,learn,45354.000091552734,Thu Apr 03 2025 14:21:45 GMT-0500 (Central Daylight Time),281639.39999997616,A,tr,O,r,154,1,2250.099999964237,279389.3000000119,7113,WL,A,8.0
2,14.878999948501587,learn,45121.00005149841,Thu Apr 03 2025 14:21:45 GMT-0500 (Central Daylight Time),281872.59999996424,A,tra,O,a,194,1,2483.2999999523163,279389.3000000119,7113,WL,A,8.0
2,15.029000043869019,learn,44970.99995613098,Thu Apr 03 2025 14:21:45 GMT-0500 (Central Daylight Time),282022.3000000119,A,trai,O,i,122,1,2633.0,279389.3000000119,7113,WL,A,8.0
2,15.19599986076355,learn,44804.00013923645,Thu Apr 03 2025 14:21:45 GMT-0500 (Central Daylight Time),282189.5,A,train,O,n,140,1,2800.199999988079,279389.3000000119,7113,WL,A,8.0
2,15.477999925613403,learn,44522.0000743866,Thu Apr 03 2025 14:21:45 GMT-0500 (Central Daylight Time),282471.39999997616,A,trainenter,O,enter,251,1,3082.099999964237,279389.3000000119,7113,WL,A,8.0
2,15.996000051498413,learn,44003.99994850159,Thu Apr 03 2025 14:21:45 GMT-0500 (Central Daylight Time),282988.6999999881,A,c,O,c,495,1,517.0,282471.6999999881,7113,WL,A,9.0
2,16.128999948501587,learn,43871.00005149841,Thu Apr 03 2025 14:21:45 GMT-0500 (Central Daylight Time),283122.1999999881,A,ch,O,h,102,1,650.5,282471.6999999881,7113,WL,A,9.0
2,16.296000003814697,learn,43703.9999961853,Thu Apr 03 2025 14:21:45 GMT-0500 (Central Daylight Time),283288.8000000119,A,chi,O,i,129,1,817.1000000238419,282471.6999999881,7113,WL,A,9.0
2,16.52900004386902,learn,43470.99995613098,Thu Apr 03 2025 14:21:45 GMT-0500 (Central Daylight Time),283522.09999996424,A,chim,O,m,202,1,1050.3999999761581,282471.6999999881,7113,WL,A,9.0
2,16.911999940872192,learn,43088.00005912781,Thu Apr 03 2025 14:21:45 GMT-0500 (Central Daylight Time),283905.3000000119,A,chime,O,e,353,1,1433.6000000238419,282471.6999999881,7113,WL,A,9.0
2,17.461999893188477,learn,42538.00010681152,Thu Apr 03 2025 14:21:45 GMT-0500 (Central Daylight Time),284455.09999996424,A,chim,O,backspace,524,1,1983.3999999761581,282471.6999999881,7113,WL,A,9.0
2,18.044999837875366,learn,41955.000162124634,Thu Apr 03 2025 14:21:45 GMT-0500 (Central Daylight Time),285038.0,A,chimn,O,n,543,1,2566.300000011921,282471.6999999881,7113,WL,A,9.0
2,18.211999893188477,learn,41788.00010681152,Thu Apr 03 2025 14:21:45 GMT-0500 (Central Daylight Time),285205.1999999881,A,chimne,O,e,139,1,2733.5,282471.6999999881,7113,WL,A,9.0
2,18.461999893188477,learn,41538.00010681152,Thu Apr 03 2025 14:21:45 GMT-0500 (Central Daylight Time),285454.8000000119,A,chimney,O,y,213,1,2983.100000023842,282471.6999999881,7113,WL,A,9.0
2,19.194000005722046,learn,40805.999994277954,Thu Apr 03 2025 14:21:45 GMT-0500 (Central Daylight Time),286186.89999997616,A,chimneyenter,O,enter,699,1,3715.199999988079,282471.6999999881,7113,WL,A,9.0
2,24.743000030517578,learn,35256.99996948242,Thu Apr 03 2025 14:21:45 GMT-0500 (Central Daylight Time),291736.3000000119,A,m,O,m,5532,1,5549.200000047684,286187.09999996424,7113,WL,A,10.0
2,24.875,learn,35125.0,Thu Apr 03 2025 14:21:45 GMT-0500 (Central Daylight Time),291868.39999997616,A,me,O,e,104,1,5681.300000011921,286187.09999996424,7113,WL,A,10.0
2,24.993000030517578,learn,35006.99996948242,Thu Apr 03 2025 14:21:45 GMT-0500 (Central Daylight Time),291986.0,A,mea,O,a,97,1,5798.900000035763,286187.09999996424,7113,WL,A,10.0
2,25.20899987220764,learn,34791.00012779236,Thu Apr 03 2025 14:21:45 GMT-0500 (Central Daylight Time),292202.39999997616,A,mead,O,d,177,1,6015.300000011921,286187.09999996424,7113,WL,A,10.0
2,25.425999879837036,learn,34574.000120162964,Thu Apr 03 2025 14:21:45 GMT-0500 (Central Daylight Time),292419.3000000119,A,meado,O,o,177,1,6232.200000047684,286187.09999996424,7113,WL,A,10.0
2,25.526000022888184,learn,34473.99997711182,Thu Apr 03 2025 14:21:45 GMT-0500 (Central Daylight Time),292519.0,A,meadow,O,w,71,1,6331.900000035763,286187.09999996424,7113,WL,A,10.0
2,25.807999849319458,learn,34192.00015068054,Thu Apr 03 2025 14:21:45 GMT-0500 (Central Daylight Time),292801.5,A,meadowenter,O,enter,248,1,6614.400000035763,286187.09999996424,7113,WL,A,10.0
2,32.10899996757507,learn,27891.000032424927,Thu Apr 03 2025 14:21:45 GMT-0500 (Central Daylight Time),299101.39999997616,A,b,O,b,6292,1,6299.699999988079,292801.6999999881,7113,WL,A,11.0
2,32.25699996948242,learn,27743.000030517578,Thu Apr 03 2025 14:21:45 GMT-0500 (Central Daylight Time),299249.8000000119,A,bu,O,u,116,1,6448.100000023842,292801.6999999881,7113,WL,A,11.0
2,32.42400002479553,learn,27575.999975204468,Thu Apr 03 2025 14:21:45 GMT-0500 (Central Daylight Time),299417.0,A,but,O,t,139,1,6615.300000011921,292801.6999999881,7113,WL,A,11.0
2,32.62399983406067,learn,27376.00016593933,Thu Apr 03 2025 14:21:45 GMT-0500 (Central Daylight Time),299616.8000000119,A,butt,O,t,163,1,6815.100000023842,292801.6999999881,7113,WL,A,11.0
2,32.74000000953674,learn,27259.999990463257,Thu Apr 03 2025 14:21:45 GMT-0500 (Central Daylight Time),299732.59999996424,A,butto,O,o,90,1,6930.899999976158,292801.6999999881,7113,WL,A,11.0
2,32.95599985122681,learn,27044.000148773193,Thu Apr 03 2025 14:21:45 GMT-0500 (Central Daylight Time),299949.09999996424,A,button,O,n,203,1,7147.399999976158,292801.6999999881,7113,WL,A,11.0
2,33.43999981880188,learn,26560.00018119812,Thu Apr 03 2025 14:21:45 GMT-0500 (Central Daylight Time),300432.3000000119,A,buttonenter,O,enter,455,1,7630.600000023842,292801.6999999881,7113,WL,A,11.0
2,40.52199983596802,learn,19478.000164031982,Thu Apr 03 2025 14:21:45 GMT-0500 (Central Daylight Time),307514.1999999881,A,r,O,r,7063,1,7081.600000023842,300432.59999996424,7113,WL,A,12.0
2,40.687999963760376,learn,19312.000036239624,Thu Apr 03 2025 14:21:45 GMT-0500 (Central Daylight Time),307680.8000000119,A,ru,O,u,136,1,7248.200000047684,300432.59999996424,7113,WL,A,12.0
2,40.88800001144409,learn,19111.99998855591,Thu Apr 03 2025 14:21:45 GMT-0500 (Central Daylight Time),307880.3000000119,A,rug,O,g,170,1,7447.700000047684,300432.59999996424,7113,WL,A,12.0
2,41.103999853134155,learn,18896.000146865845,Thu Apr 03 2025 14:21:45 GMT-0500 (Central Daylight Time),308096.3000000119,A,rugenter,O,enter,183,1,7663.700000047684,300432.59999996424,7113,WL,A,12.0
2,50.20199990272522,learn,9798.00009727478,Thu Apr 03 2025 14:21:45 GMT-0500 (Central Daylight Time),317194.3000000119,A,f,O,f,9078,1,9097.700000047684,308096.59999996424,7113,WL,A,13.0
2,50.36800003051758,learn,9631.999969482422,Thu Apr 03 2025 14:21:45 GMT-0500 (Central Daylight Time),317360.89999997616,A,fi,O,i,128,1,9264.300000011921,308096.59999996424,7113,WL,A,13.0
2,50.567999839782715,learn,9432.000160217285,Thu Apr 03 2025 14:21:45 GMT-0500 (Central Daylight Time),317560.5,A,fin,O,n,171,1,9463.900000035763,308096.59999996424,7113,WL,A,13.0
2,50.633999824523926,learn,9366.000175476074,Thu Apr 03 2025 14:21:45 GMT-0500 (Central Daylight Time),317626.5,A,fing,O,g,26,1,9529.900000035763,308096.59999996424,7113,WL,A,13.0
2,50.83500003814697,learn,9164.999961853027,Thu Apr 03 2025 14:21:45 GMT-0500 (Central Daylight Time),317827.5,A,finge,O,e,187,1,9730.900000035763,308096.59999996424,7113,WL,A,13.0
2,50.93400001525879,learn,9065.999984741211,Thu Apr 03 2025 14:21:45 GMT-0500 (Central Daylight Time),317926.6999999881,A,finger,O,r,62,1,9830.100000023842,308096.59999996424,7113,WL,A,13.0
2,51.08399987220764,learn,8916.000127792358,Thu Apr 03 2025 14:21:45 GMT-0500 (Central Daylight Time),318076.3000000119,A,fingerenter,O,enter,131,1,9979.700000047684,308096.59999996424,7113,WL,A,13.0
2,55.717000007629395,learn,4282.9999923706055,Thu Apr 03 2025 14:21:45 GMT-0500 (Central Daylight Time),322709.39999997616,A,g,O,g,4625,1,4632.800000011921,318076.59999996424,7113,WL,A,14.0
2,55.882999897003174,learn,4117.000102996826,Thu Apr 03 2025 14:21:45 GMT-0500 (Central Daylight Time),322875.8000000119,A,go,O,o,125,1,4799.200000047684,318076.59999996424,7113,WL,A,14.0
2,56.09999990463257,learn,3900.0000953674316,Thu Apr 03 2025 14:21:45 GMT-0500 (Central Daylight Time),323092.5,A,gol,O,l,175,1,5015.900000035763,318076.59999996424,7113,WL,A,14.0
2,56.25,learn,3750.0,Thu Apr 03 2025 14:21:45 GMT-0500 (Central Daylight Time),323242.5,A,gold,O,d,111,1,5165.900000035763,318076.59999996424,7113,WL,A,14.0
2,56.41499996185303,learn,3585.0000381469727,Thu Apr 03 2025 14:21:45 GMT-0500 (Central Daylight Time),323408.0,A,goldenter,O,enter,127,1,5331.400000035763,318076.59999996424,7113,WL,A,14.0
2,60.014999866485596,learn,-14.999866485595703,Thu Apr 03 2025 14:21:45 GMT-0500 (Central Daylight Time),327007.89999997616,A,None,O,None,3594,1,3599.5,323408.39999997616,7113,WL,A,15.0
3,0.6670000553131104,learn,59332.99994468689,Thu Apr 03 2025 14:21:45 GMT-0500 (Central Daylight Time),414745.8000000119,A,b,O,b,632,1,666.1000000238419,414079.6999999881,7113,WL,A,1.0
3,0.8840000629425049,learn,59115.999937057495,Thu Apr 03 2025 14:21:45 GMT-0500 (Central Daylight Time),414962.3000000119,A,bo,O,o,175,1,882.6000000238419,414079.6999999881,7113,WL,A,1.0
3,1.0499999523162842,learn,58950.000047683716,Thu Apr 03 2025 14:21:45 GMT-0500 (Central Daylight Time),415128.89999997616,A,boo,O,o,128,1,1049.199999988079,414079.6999999881,7113,WL,A,1.0
3,1.25,learn,58750.0,Thu Apr 03 2025 14:21:45 GMT-0500 (Central Daylight Time),415329.3000000119,A,book,O,k,162,1,1249.6000000238419,414079.6999999881,7113,WL,A,1.0
3,1.6990001201629639,learn,58300.999879837036,Thu Apr 03 2025 14:21:45 GMT-0500 (Central Daylight Time),415777.6999999881,A,bookenter,O,enter,416,1,1698.0,414079.6999999881,7113,WL,A,1.0
3,2.0329999923706055,learn,57967.000007629395,Thu Apr 03 2025 14:21:45 GMT-0500 (Central Daylight Time),416112.0,A,f,O,f,324,1,334.0,415778.0,7113,WL,A,2.0
3,2.2829999923706055,learn,57717.000007629395,Thu Apr 03 2025 14:21:45 GMT-0500 (Central Daylight Time),416361.8000000119,A,fl,O,l,212,1,583.8000000119209,415778.0,7113,WL,A,2.0
3,2.4830000400543213,learn,57516.99995994568,Thu Apr 03 2025 14:21:45 GMT-0500 (Central Daylight Time),416562.0,A,flo,O,o,161,1,784.0,415778.0,7113,WL,A,2.0
3,2.615999937057495,learn,57384.000062942505,Thu Apr 03 2025 14:21:45 GMT-0500 (Central Daylight Time),416695.0,A,flow,O,w,106,1,917.0,415778.0,7113,WL,A,2.0
3,2.7660000324249268,learn,57233.99996757507,Thu Apr 03 2025 14:21:45 GMT-0500 (Central Daylight Time),416844.6999999881,A,flowe,O,e,109,1,1066.699999988079,415778.0,7113,WL,A,2.0
3,2.881999969482422,learn,57118.00003051758,Thu Apr 03 2025 14:21:45 GMT-0500 (Central Daylight Time),416960.8000000119,A,flower,O,r,81,1,1182.800000011921,415778.0,7113,WL,A,2.0
3,3.0820000171661377,learn,56917.99998283386,Thu Apr 03 2025 14:21:45 GMT-0500 (Central Daylight Time),417160.6999999881,A,flowerenter,O,enter,176,1,1382.699999988079,415778.0,7113,WL,A,2.0
3,3.4660000801086426,learn,56533.99991989136,Thu Apr 03 2025 14:21:45 GMT-0500 (Central Daylight Time),417544.8000000119,A,r,O,r,373,1,383.9000000357628,417160.89999997616,7113,WL,A,3.0
3,3.6489999294281006,learn,56351.0000705719,Thu Apr 03 2025 14:21:45 GMT-0500 (Central Daylight Time),417728.09999996424,A,ru,O,u,154,1,567.1999999880791,417160.89999997616,7113,WL,A,3.0
3,3.865999937057495,learn,56134.000062942505,Thu Apr 03 2025 14:21:45 GMT-0500 (Central Daylight Time),417944.6999999881,A,rug,O,g,179,1,783.8000000119209,417160.89999997616,7113,WL,A,3.0
3,4.215000152587891,learn,55784.99984741211,Thu Apr 03 2025 14:21:45 GMT-0500 (Central Daylight Time),418293.5,A,rugenter,O,enter,317,1,1132.6000000238419,417160.89999997616,7113,WL,A,3.0
3,4.598999977111816,learn,55401.00002288818,Thu Apr 03 2025 14:21:45 GMT-0500 (Central Daylight Time),418677.6999999881,A,c,O,c,368,1,383.89999997615814,418293.8000000119,7113,WL,A,4.0
3,4.7820000648498535,learn,55217.99993515015,Thu Apr 03 2025 14:21:45 GMT-0500 (Central Daylight Time),418861.1999999881,A,ch,O,h,157,1,567.3999999761581,418293.8000000119,7113,WL,A,4.0
3,5.0320000648498535,learn,54967.99993515015,Thu Apr 03 2025 14:21:45 GMT-0500 (Central Daylight Time),419111.0,A,chi,O,i,221,1,817.1999999880791,418293.8000000119,7113,WL,A,4.0
3,5.381999969482422,learn,54618.00003051758,Thu Apr 03 2025 14:21:45 GMT-0500 (Central Daylight Time),419460.8000000119,A,chim,O,m,316,1,1167.0,418293.8000000119,7113,WL,A,4.0
3,5.982000112533569,learn,54017.99988746643,Thu Apr 03 2025 14:21:45 GMT-0500 (Central Daylight Time),420060.3000000119,A,chimn,O,n,565,1,1766.5,418293.8000000119,7113,WL,A,4.0
3,6.164999961853027,learn,53835.00003814697,Thu Apr 03 2025 14:21:45 GMT-0500 (Central Daylight Time),420244.0,A,chimne,O,e,150,1,1950.199999988079,418293.8000000119,7113,WL,A,4.0
3,6.332000017166138,learn,53667.99998283386,Thu Apr 03 2025 14:21:45 GMT-0500 (Central Daylight Time),420410.6999999881,A,chimney,O,y,125,1,2116.899999976158,418293.8000000119,7113,WL,A,4.0
3,7.046999931335449,learn,52953.00006866455,Thu Apr 03 2025 14:21:45 GMT-0500 (Central Daylight Time),421126.0,A,chimneyenter,O,enter,691,1,2832.199999988079,418293.8000000119,7113,WL,A,4.0
3,7.687999963760376,learn,52312.000036239624,Thu Apr 03 2025 14:21:45 GMT-0500 (Central Daylight Time),421767.0,A,g,O,g,616,1,640.8000000119209,421126.1999999881,7113,WL,A,5.0
3,7.88100004196167,learn,52118.99995803833,Thu Apr 03 2025 14:21:45 GMT-0500 (Central Daylight Time),421960.0,A,go,O,o,153,1,833.8000000119209,421126.1999999881,7113,WL,A,5.0
3,8.114000082015991,learn,51885.99991798401,Thu Apr 03 2025 14:21:45 GMT-0500 (Central Daylight Time),422193.1999999881,A,gol,O,l,194,1,1067.0,421126.1999999881,7113,WL,A,5.0
3,8.248000144958496,learn,51751.999855041504,Thu Apr 03 2025 14:21:45 GMT-0500 (Central Daylight Time),422326.3000000119,A,gold,O,d,106,1,1200.1000000238419,421126.1999999881,7113,WL,A,5.0
3,8.480000019073486,learn,51519.999980926514,Thu Apr 03 2025 14:21:45 GMT-0500 (Central Daylight Time),422558.6999999881,A,goldenter,O,enter,206,1,1432.5,421126.1999999881,7113,WL,A,5.0
3,8.748000144958496,learn,51251.999855041504,Thu Apr 03 2025 14:21:45 GMT-0500 (Central Daylight Time),422826.39999997616,A,f,O,f,255,1,267.39999997615814,422559.0,7113,WL,A,6.0
3,8.930999994277954,learn,51069.000005722046,Thu Apr 03 2025 14:21:45 GMT-0500 (Central Daylight Time),423009.6999999881,A,fi,O,i,144,1,450.69999998807907,422559.0,7113,WL,A,6.0
3,9.164000034332275,learn,50835.999965667725,Thu Apr 03 2025 14:21:45 GMT-0500 (Central Daylight Time),423242.89999997616,A,fin,O,n,202,1,683.8999999761581,422559.0,7113,WL,A,6.0
3,9.496999979019165,learn,50503.000020980835,Thu Apr 03 2025 14:21:45 GMT-0500 (Central Daylight Time),423576.09999996424,A,fing,O,g,303,1,1017.0999999642372,422559.0,7113,WL,A,6.0
3,9.69700002670288,learn,50302.99997329712,Thu Apr 03 2025 14:21:45 GMT-0500 (Central Daylight Time),423776.09999996424,A,finge,O,e,163,1,1217.0999999642372,422559.0,7113,WL,A,6.0
3,9.814000129699707,learn,50185.99987030029,Thu Apr 03 2025 14:21:45 GMT-0500 (Central Daylight Time),423893.1999999881,A,finger,O,r,91,1,1334.199999988079,422559.0,7113,WL,A,6.0
3,10.02999997138977,learn,49970.00002861023,Thu Apr 03 2025 14:21:45 GMT-0500 (Central Daylight Time),424108.3000000119,A,fingerenter,O,enter,176,1,1549.300000011921,422559.0,7113,WL,A,6.0
3,10.19700002670288,learn,49802.99997329712,Thu Apr 03 2025 14:21:45 GMT-0500 (Central Daylight Time),424275.89999997616,A,a,O,a,147,1,167.39999997615814,424108.5,7113,WL,A,7.0
3,10.69700002670288,learn,49302.99997329712,Thu Apr 03 2025 14:21:45 GMT-0500 (Central Daylight Time),424775.8000000119,A,ap,O,p,466,1,667.3000000119209,424108.5,7113,WL,A,7.0
3,10.847000122070312,learn,49152.99987792969,Thu Apr 03 2025 14:21:45 GMT-0500 (Central Daylight Time),424925.6999999881,A,app,O,p,114,1,817.1999999880791,424108.5,7113,WL,A,7.0
3,11.263000011444092,learn,48736.99998855591,Thu Apr 03 2025 14:21:45 GMT-0500 (Central Daylight Time),425342.09999996424,A,appl,O,l,380,1,1233.5999999642372,424108.5,7113,WL,A,7.0
3,11.44700002670288,learn,48552.99997329712,Thu Apr 03 2025 14:21:45 GMT-0500 (Central Daylight Time),425525.39999997616,A,apple,O,e,148,1,1416.8999999761581,424108.5,7113,WL,A,7.0
3,11.996000051498413,learn,48003.99994850159,Thu Apr 03 2025 14:21:45 GMT-0500 (Central Daylight Time),426074.39999997616,A,appleenter,O,enter,509,1,1965.8999999761581,424108.5,7113,WL,A,7.0
3,14.694999933242798,learn,45305.0000667572,Thu Apr 03 2025 14:21:45 GMT-0500 (Central Daylight Time),428774.3000000119,A,m,O,m,2691,1,2699.7000000476837,426074.59999996424,7113,WL,A,8.0
3,14.812000036239624,learn,45187.999963760376,Thu Apr 03 2025 14:21:45 GMT-0500 (Central Daylight Time),428890.3000000119,A,me,O,e,85,1,2815.7000000476837,426074.59999996424,7113,WL,A,8.0
3,14.91100001335144,learn,45088.99998664856,Thu Apr 03 2025 14:21:45 GMT-0500 (Central Daylight Time),428990.1999999881,A,mea,O,a,79,1,2915.600000023842,426074.59999996424,7113,WL,A,8.0
3,15.09500002861023,learn,44904.99997138977,Thu Apr 03 2025 14:21:45 GMT-0500 (Central Daylight Time),429173.89999997616,A,mead,O,d,168,1,3099.300000011921,426074.59999996424,7113,WL,A,8.0
3,15.296000003814697,learn,44703.9999961853,Thu Apr 03 2025 14:21:45 GMT-0500 (Central Daylight Time),429374.3000000119,A,meado,O,o,167,1,3299.7000000476837,426074.59999996424,7113,WL,A,8.0
3,15.394999980926514,learn,44605.000019073486,Thu Apr 03 2025 14:21:45 GMT-0500 (Central Daylight Time),429474.0,A,meadow,O,w,71,1,3399.400000035763,426074.59999996424,7113,WL,A,8.0
3,15.694000005722046,learn,44305.999994277954,Thu Apr 03 2025 14:21:45 GMT-0500 (Central Daylight Time),429773.09999996424,A,meadowenter,O,enter,272,1,3698.5,426074.59999996424,7113,WL,A,8.0
3,16.111000061035156,learn,43888.999938964844,Thu Apr 03 2025 14:21:45 GMT-0500 (Central Daylight Time),430190.0,A,s,O,s,409,1,416.60000002384186,429773.39999997616,7113,WL,A,9.0
3,16.261000156402588,learn,43738.99984359741,Thu Apr 03 2025 14:21:45 GMT-0500 (Central Daylight Time),430339.5,A,sa,O,a,127,1,566.1000000238419,429773.39999997616,7113,WL,A,9.0
3,16.394999980926514,learn,43605.000019073486,Thu Apr 03 2025 14:21:45 GMT-0500 (Central Daylight Time),430473.8000000119,A,sal,O,l,122,1,700.4000000357628,429773.39999997616,7113,WL,A,9.0
3,16.57800006866455,learn,43421.99993133545,Thu Apr 03 2025 14:21:45 GMT-0500 (Central Daylight Time),430657.39999997616,A,salt,O,t,145,1,884.0,429773.39999997616,7113,WL,A,9.0
3,16.761000156402588,learn,43238.99984359741,Thu Apr 03 2025 14:21:45 GMT-0500 (Central Daylight Time),430839.5,A,saltenter,O,enter,151,1,1066.1000000238419,429773.39999997616,7113,WL,A,9.0
3,20.55999994277954,learn,39440.00005722046,Thu Apr 03 2025 14:21:45 GMT-0500 (Central Daylight Time),434639.09999996424,A,r,O,r,3791,1,3799.399999976158,430839.6999999881,7113,WL,A,10.0
3,20.74399995803833,learn,39256.00004196167,Thu Apr 03 2025 14:21:45 GMT-0500 (Central Daylight Time),434822.3000000119,A,ra,O,a,155,1,3982.600000023842,430839.6999999881,7113,WL,A,10.0
3,20.993000030517578,learn,39006.99996948242,Thu Apr 03 2025 14:21:45 GMT-0500 (Central Daylight Time),435072.1999999881,A,rat,O,t,221,1,4232.5,430839.6999999881,7113,WL,A,10.0
3,21.24399995803833,learn,38756.00004196167,Thu Apr 03 2025 14:21:45 GMT-0500 (Central Daylight Time),435322.3000000119,A,ratt,O,t,211,1,4482.600000023842,430839.6999999881,7113,WL,A,10.0
3,21.592999935150146,learn,38407.00006484985,Thu Apr 03 2025 14:21:45 GMT-0500 (Central Daylight Time),435672.3000000119,A,rattl,O,l,312,1,4832.600000023842,430839.6999999881,7113,WL,A,10.0
3,21.710000038146973,learn,38289.99996185303,Thu Apr 03 2025 14:21:45 GMT-0500 (Central Daylight Time),435788.5,A,rattle,O,e,84,1,4948.800000011921,430839.6999999881,7113,WL,A,10.0
3,22.108999967575073,learn,37891.00003242493,Thu Apr 03 2025 14:21:45 GMT-0500 (Central Daylight Time),436187.5,A,rattleenter,O,enter,378,1,5347.800000011921,430839.6999999881,7113,WL,A,10.0
3,24.45900011062622,learn,35540.99988937378,Thu Apr 03 2025 14:21:45 GMT-0500 (Central Daylight Time),438538.0,A,l,O,l,2330,1,2350.199999988079,436187.8000000119,7113,WL,A,11.0
3,24.659000158309937,learn,35340.99984169006,Thu Apr 03 2025 14:21:45 GMT-0500 (Central Daylight Time),438737.6999999881,A,lo,O,o,162,1,2549.899999976158,436187.8000000119,7113,WL,A,11.0
3,24.80900001525879,learn,35190.99998474121,Thu Apr 03 2025 14:21:45 GMT-0500 (Central Daylight Time),438887.5,A,log,O,g,114,1,2699.699999988079,436187.8000000119,7113,WL,A,11.0
3,25.10800004005432,learn,34891.99995994568,Thu Apr 03 2025 14:21:45 GMT-0500 (Central Daylight Time),439186.6999999881,A,logenter,O,enter,265,1,2998.899999976158,436187.8000000119,7113,WL,A,11.0
3,28.125,learn,31875.0,Thu Apr 03 2025 14:21:45 GMT-0500 (Central Daylight Time),442203.39999997616,A,h,O,h,2995,1,3016.399999976158,439187.0,7113,WL,A,12.0
3,28.223999977111816,learn,31776.000022888184,Thu Apr 03 2025 14:21:45 GMT-0500 (Central Daylight Time),442302.59999996424,A,ha,O,a,65,1,3115.599999964237,439187.0,7113,WL,A,12.0
3,28.35700011253357,learn,31642.99988746643,Thu Apr 03 2025 14:21:45 GMT-0500 (Central Daylight Time),442436.1999999881,A,har,O,r,111,1,3249.199999988079,439187.0,7113,WL,A,12.0
3,28.824000120162964,learn,31175.999879837036,Thu Apr 03 2025 14:21:45 GMT-0500 (Central Daylight Time),442903.0,A,harp,O,p,435,1,3716.0,439187.0,7113,WL,A,12.0
3,29.207000017166138,learn,30792.999982833862,Thu Apr 03 2025 14:21:45 GMT-0500 (Central Daylight Time),443285.3000000119,A,harpenter,O,enter,347,1,4098.300000011921,439187.0,7113,WL,A,12.0
3,33.24000000953674,learn,26759.999990463257,Thu Apr 03 2025 14:21:45 GMT-0500 (Central Daylight Time),447318.39999997616,A,t,O,t,4018,1,4032.800000011921,443285.59999996424,7113,WL,A,13.0
3,33.58899998664856,learn,26411.00001335144,Thu Apr 03 2025 14:21:45 GMT-0500 (Central Daylight Time),447668.09999996424,A,tr,O,r,316,1,4382.5,443285.59999996424,7113,WL,A,13.0
3,34.25600004196167,learn,25743.99995803833,Thu Apr 03 2025 14:21:45 GMT-0500 (Central Daylight Time),448334.39999997616,A,tra,O,a,639,1,5048.800000011921,443285.59999996424,7113,WL,A,13.0
3,34.388999938964844,learn,25611.000061035156,Thu Apr 03 2025 14:21:45 GMT-0500 (Central Daylight Time),448468.0,A,trai,O,i,94,1,5182.400000035763,443285.59999996424,7113,WL,A,13.0
3,34.58899998664856,learn,25411.00001335144,Thu Apr 03 2025 14:21:45 GMT-0500 (Central Daylight Time),448667.8000000119,A,train,O,n,168,1,5382.200000047684,443285.59999996424,7113,WL,A,13.0
3,34.90499997138977,learn,25095.00002861023,Thu Apr 03 2025 14:21:45 GMT-0500 (Central Daylight Time),448983.59999996424,A,trainenter,O,enter,278,1,5698.0,443285.59999996424,7113,WL,A,13.0
3,40.4210000038147,learn,19578.999996185303,Thu Apr 03 2025 14:21:45 GMT-0500 (Central Daylight Time),454499.39999997616,A,h,O,h,5494,1,5515.599999964237,448983.8000000119,7113,WL,A,14.0
3,40.519999980926514,learn,19480.000019073486,Thu Apr 03 2025 14:21:45 GMT-0500 (Central Daylight Time),454598.39999997616,A,ha,O,a,73,1,5614.599999964237,448983.8000000119,7113,WL,A,14.0
3,40.8199999332428,learn,19180.000066757202,Thu Apr 03 2025 14:21:45 GMT-0500 (Central Daylight Time),454899.09999996424,A,har,O,r,274,1,5915.299999952316,448983.8000000119,7113,WL,A,14.0
3,40.97000002861023,learn,19029.99997138977,Thu Apr 03 2025 14:21:45 GMT-0500 (Central Daylight Time),455049.1999999881,A,harp,O,p,110,1,6065.399999976158,448983.8000000119,7113,WL,A,14.0
3,41.3199999332428,learn,18680.000066757202,Thu Apr 03 2025 14:21:45 GMT-0500 (Central Daylight Time),455399.09999996424,A,harpenter,O,enter,320,1,6415.299999952316,448983.8000000119,7113,WL,A,14.0
3,46.61800003051758,learn,13381.999969482422,Thu Apr 03 2025 14:21:45 GMT-0500 (Central Daylight Time),460697.0,A,b,O,b,5288,1,5297.699999988079,455399.3000000119,7113,WL,A,15.0
3,46.818000078201294,learn,13181.999921798706,Thu Apr 03 2025 14:21:45 GMT-0500 (Central Daylight Time),460897.0,A,bu,O,u,168,1,5497.699999988079,455399.3000000119,7113,WL,A,15.0
3,46.985000133514404,learn,13014.999866485596,Thu Apr 03 2025 14:21:45 GMT-0500 (Central Daylight Time),461063.39999997616,A,but,O,t,130,1,5664.099999964237,455399.3000000119,7113,WL,A,15.0
3,47.16799998283386,learn,12832.000017166138,Thu Apr 03 2025 14:21:45 GMT-0500 (Central Daylight Time),461246.89999997616,A,butt,O,t,157,1,5847.599999964237,455399.3000000119,7113,WL,A,15.0
3,47.319000005722046,learn,12680.999994277954,Thu Apr 03 2025 14:21:45 GMT-0500 (Central Daylight Time),461397.59999996424,A,butto,O,o,110,1,5998.299999952316,455399.3000000119,7113,WL,A,15.0
3,47.51900005340576,learn,12480.999946594238,Thu Apr 03 2025 14:21:45 GMT-0500 (Central Daylight Time),461597.39999997616,A,button,O,n,173,1,6198.099999964237,455399.3000000119,7113,WL,A,15.0
3,47.78400015830994,learn,12215.999841690063,Thu Apr 03 2025 14:21:45 GMT-0500 (Central Daylight Time),461862.59999996424,A,buttonenter,O,enter,228,1,6463.299999952316,455399.3000000119,7113,WL,A,15.0
4,1.2170000076293945,learn,58782.999992370605,Thu Apr 03 2025 14:21:45 GMT-0500 (Central Daylight Time),536155.6999999881,A,k,O,k,1185,1,1215.800000011921,534939.8999999762,7113,WL,A,1.0
4,1.366999864578247,learn,58633.00013542175,Thu Apr 03 2025 14:21:45 GMT-0500 (Central Daylight Time),536305.3000000119,A,ke,O,e,111,1,1365.4000000357628,534939.8999999762,7113,WL,A,1.0
4,1.5499999523162842,learn,58450.000047683716,Thu Apr 03 2025 14:21:45 GMT-0500 (Central Daylight Time),536488.8000000119,A,key,O,y,156,1,1548.9000000357628,534939.8999999762,7113,WL,A,1.0
4,2.049999952316284,learn,57950.000047683716,Thu Apr 03 2025 14:21:45 GMT-0500 (Central Daylight Time),536988.8999999762,A,keyenter,O,enter,474,1,2049.0,534939.8999999762,7113,WL,A,1.0
4,3.8489999771118164,learn,56151.00002288818,Thu Apr 03 2025 14:21:45 GMT-0500 (Central Daylight Time),538788.1999999881,A,f,O,f,1786,1,1799.0,536989.1999999881,7113,WL,A,2.0
4,3.9489998817443848,learn,56051.000118255615,Thu Apr 03 2025 14:21:45 GMT-0500 (Central Daylight Time),538887.5,A,fi,O,i,61,1,1898.300000011921,536989.1999999881,7113,WL,A,2.0
4,4.148999929428101,learn,55851.0000705719,Thu Apr 03 2025 14:21:45 GMT-0500 (Central Daylight Time),539088.3000000119,A,fin,O,n,179,1,2099.100000023842,536989.1999999881,7113,WL,A,2.0
4,4.23199987411499,learn,55768.00012588501,Thu Apr 03 2025 14:21:45 GMT-0500 (Central Daylight Time),539170.8999999762,A,fing,O,g,50,1,2181.699999988079,536989.1999999881,7113,WL,A,2.0
4,4.381999969482422,learn,55618.00003051758,Thu Apr 03 2025 14:21:45 GMT-0500 (Central Daylight Time),539321.3000000119,A,finge,O,e,122,1,2332.100000023842,536989.1999999881,7113,WL,A,2.0
4,4.4649999141693115,learn,55535.00008583069,Thu Apr 03 2025 14:21:45 GMT-0500 (Central Daylight Time),539404.0,A,finger,O,r,49,1,2414.800000011921,536989.1999999881,7113,WL,A,2.0
4,4.5980000495910645,learn,55401.999950408936,Thu Apr 03 2025 14:21:45 GMT-0500 (Central Daylight Time),539536.8999999762,A,fingerenter,O,enter,107,1,2547.699999988079,536989.1999999881,7113,WL,A,2.0
4,5.016000032424927,learn,54983.99996757507,Thu Apr 03 2025 14:21:45 GMT-0500 (Central Daylight Time),539954.5999999642,A,g,O,g,397,1,417.39999997615814,539537.1999999881,7113,WL,A,3.0
4,5.181999921798706,learn,54818.000078201294,Thu Apr 03 2025 14:21:45 GMT-0500 (Central Daylight Time),540121.0,A,go,O,o,137,1,583.8000000119209,539537.1999999881,7113,WL,A,3.0
4,5.431999921798706,learn,54568.000078201294,Thu Apr 03 2025 14:21:45 GMT-0500 (Central Daylight Time),540371.1999999881,A,gol,O,l,213,1,834.0,539537.1999999881,7113,WL,A,3.0
4,5.549000024795532,learn,54450.99997520447,Thu Apr 03 2025 14:21:45 GMT-0500 (Central Daylight Time),540487.8999999762,A,gold,O,d,80,1,950.6999999880791,539537.1999999881,7113,WL,A,3.0
4,5.7149999141693115,learn,54285.00008583069,Thu Apr 03 2025 14:21:45 GMT-0500 (Central Daylight Time),540653.3999999762,A,goldenter,O,enter,138,1,1116.199999988079,539537.1999999881,7113,WL,A,3.0
4,5.98199987411499,learn,54018.00012588501,Thu Apr 03 2025 14:21:45 GMT-0500 (Central Daylight Time),540921.0,A,b,O,b,248,1,267.30000001192093,540653.6999999881,7113,WL,A,4.0
4,6.131999969482422,learn,53868.00003051758,Thu Apr 03 2025 14:21:45 GMT-0500 (Central Daylight Time),541071.0,A,bo,O,o,113,1,417.30000001192093,540653.6999999881,7113,WL,A,4.0
4,6.315000057220459,learn,53684.99994277954,Thu Apr 03 2025 14:21:45 GMT-0500 (Central Daylight Time),541254.1999999881,A,boo,O,o,148,1,600.5,540653.6999999881,7113,WL,A,4.0
4,6.582000017166138,learn,53417.99998283386,Thu Apr 03 2025 14:21:45 GMT-0500 (Central Daylight Time),541520.5999999642,A,book,O,k,228,1,866.8999999761581,540653.6999999881,7113,WL,A,4.0
4,6.813999891281128,learn,53186.00010871887,Thu Apr 03 2025 14:21:45 GMT-0500 (Central Daylight Time),541753.0,A,bookenter,O,enter,201,1,1099.300000011921,540653.6999999881,7113,WL,A,4.0
4,6.997999906539917,learn,53002.00009346008,Thu Apr 03 2025 14:21:45 GMT-0500 (Central Daylight Time),541936.8999999762,A,f,O,f,173,1,183.5999999642372,541753.3000000119,7113,WL,A,5.0
4,7.164999961853027,learn,52835.00003814697,Thu Apr 03 2025 14:21:45 GMT-0500 (Central Daylight Time),542104.0,A,fl,O,l,130,1,350.69999998807907,541753.3000000119,7113,WL,A,5.0
4,7.381999969482422,learn,52618.00003051758,Thu Apr 03 2025 14:21:45 GMT-0500 (Central Daylight Time),542320.5,A,flo,O,o,190,1,567.1999999880791,541753.3000000119,7113,WL,A,5.0
4,7.497999906539917,learn,52502.00009346008,Thu Apr 03 2025 14:21:45 GMT-0500 (Central Daylight Time),542436.3999999762,A,flow,O,w,91,1,683.0999999642372,541753.3000000119,7113,WL,A,5.0
4,7.63100004196167,learn,52368.99995803833,Thu Apr 03 2025 14:21:45 GMT-0500 (Central Daylight Time),542570.3000000119,A,flowe,O,e,112,1,817.0,541753.3000000119,7113,WL,A,5.0
4,7.764999866485596,learn,52235.000133514404,Thu Apr 03 2025 14:21:45 GMT-0500 (Central Daylight Time),542703.6999999881,A,flower,O,r,98,1,950.3999999761581,541753.3000000119,7113,WL,A,5.0
4,8.030999898910522,learn,51969.00010108948,Thu Apr 03 2025 14:21:45 GMT-0500 (Central Daylight Time),542969.3000000119,A,flowerenter,O,enter,233,1,1216.0,541753.3000000119,7113,WL,A,5.0
4,8.530999898910522,learn,51469.00010108948,Thu Apr 03 2025 14:21:45 GMT-0500 (Central Daylight Time),543469.6999999881,A,t,O,t,492,1,500.0,542969.6999999881,7113,WL,A,6.0
4,8.730999946594238,learn,51269.00005340576,Thu Apr 03 2025 14:21:45 GMT-0500 (Central Daylight Time),543669.8000000119,A,tr,O,r,173,1,700.1000000238419,542969.6999999881,7113,WL,A,6.0
4,8.997999906539917,learn,51002.00009346008,Thu Apr 03 2025 14:21:45 GMT-0500 (Central Daylight Time),543936.6999999881,A,tra,O,a,237,1,967.0,542969.6999999881,7113,WL,A,6.0
4,9.148000001907349,learn,50851.99999809265,Thu Apr 03 2025 14:21:45 GMT-0500 (Central Daylight Time),544086.5,A,trai,O,i,120,1,1116.800000011921,542969.6999999881,7113,WL,A,6.0
4,9.38100004196167,learn,50618.99995803833,Thu Apr 03 2025 14:21:45 GMT-0500 (Central Daylight Time),544319.8000000119,A,train,O,n,209,1,1350.1000000238419,542969.6999999881,7113,WL,A,6.0
4,9.897000074386597,learn,50102.9999256134,Thu Apr 03 2025 14:21:45 GMT-0500 (Central Daylight Time),544835.3999999762,A,trainenter,O,enter,484,1,1865.699999988079,542969.6999999881,7113,WL,A,6.0
4,10.263999938964844,learn,49736.000061035156,Thu Apr 03 2025 14:21:45 GMT-0500 (Central Daylight Time),545202.8000000119,A,l,O,l,356,1,367.2000000476837,544835.5999999642,7113,WL,A,7.0
4,10.513999938964844,learn,49486.000061035156,Thu Apr 03 2025 14:21:45 GMT-0500 (Central Daylight Time),545452.8000000119,A,lo,O,o,217,1,617.2000000476837,544835.5999999642,7113,WL,A,7.0
4,10.664000034332275,learn,49335.999965667725,Thu Apr 03 2025 14:21:45 GMT-0500 (Central Daylight Time),545602.6999999881,A,log,O,g,110,1,767.1000000238419,544835.5999999642,7113,WL,A,7.0
4,11.013000011444092,learn,48986.99998855591,Thu Apr 03 2025 14:21:45 GMT-0500 (Central Daylight Time),545951.5999999642,A,logenter,O,enter,319,1,1116.0,544835.5999999642,7113,WL,A,7.0
4,11.680000066757202,learn,48319.9999332428,Thu Apr 03 2025 14:21:45 GMT-0500 (Central Daylight Time),546619.1999999881,A,m,O,m,646,1,667.1999999880791,545952.0,7113,WL,A,8.0
4,11.812999963760376,learn,48187.000036239624,Thu Apr 03 2025 14:21:45 GMT-0500 (Central Daylight Time),546752.3000000119,A,me,O,e,96,1,800.3000000119209,545952.0,7113,WL,A,8.0
4,11.94700002670288,learn,48052.99997329712,Thu Apr 03 2025 14:21:45 GMT-0500 (Central Daylight Time),546885.5999999642,A,mea,O,a,108,1,933.5999999642372,545952.0,7113,WL,A,8.0
4,12.11299991607666,learn,47887.00008392334,Thu Apr 03 2025 14:21:45 GMT-0500 (Central Daylight Time),547051.8999999762,A,mead,O,d,142,1,1099.8999999761581,545952.0,7113,WL,A,8.0
4,12.263000011444092,learn,47736.99998855591,Thu Apr 03 2025 14:21:45 GMT-0500 (Central Daylight Time),547202.0999999642,A,meado,O,o,115,1,1250.0999999642372,545952.0,7113,WL,A,8.0
4,12.36299991607666,learn,47637.00008392334,Thu Apr 03 2025 14:21:45 GMT-0500 (Central Daylight Time),547301.3000000119,A,meadow,O,w,75,1,1349.300000011921,545952.0,7113,WL,A,8.0
4,13.09500002861023,learn,46904.99997138977,Thu Apr 03 2025 14:21:45 GMT-0500 (Central Daylight Time),548034.1999999881,A,meadowenter,O,enter,707,1,2082.199999988079,545952.0,7113,WL,A,8.0
4,14.328999996185303,learn,45671.0000038147,Thu Apr 03 2025 14:21:45 GMT-0500 (Central Daylight Time),549268.0999999642,A,s,O,s,1220,1,1233.5999999642372,548034.5,7113,WL,A,9.0
4,14.496000051498413,learn,45503.99994850159,Thu Apr 03 2025 14:21:45 GMT-0500 (Central Daylight Time),549434.8000000119,A,sa,O,a,135,1,1400.300000011921,548034.5,7113,WL,A,9.0
4,14.69599986076355,learn,45304.00013923645,Thu Apr 03 2025 14:21:45 GMT-0500 (Central Daylight Time),549634.8000000119,A,sal,O,l,161,1,1600.300000011921,548034.5,7113,WL,A,9.0
4,14.878999948501587,learn,45121.00005149841,Thu Apr 03 2025 14:21:45 GMT-0500 (Central Daylight Time),549818.1999999881,A,salt,O,t,144,1,1783.699999988079,548034.5,7113,WL,A,9.0
4,15.41100001335144,learn,44588.99998664856,Thu Apr 03 2025 14:21:45 GMT-0500 (Central Daylight Time),550350.1999999881,A,saltenter,O,enter,495,1,2315.699999988079,548034.5,7113,WL,A,9.0
4,18.861000061035156,learn,41138.999938964844,Thu Apr 03 2025 14:21:45 GMT-0500 (Central Daylight Time),553799.8000000119,A,h,O,h,3440,1,3449.300000011921,550350.5,7113,WL,A,10.0
4,18.944000005722046,learn,41055.999994277954,Thu Apr 03 2025 14:21:45 GMT-0500 (Central Daylight Time),553882.5999999642,A,ha,O,a,54,1,3532.099999964237,550350.5,7113,WL,A,10.0
4,19.060999870300293,learn,40939.00012969971,Thu Apr 03 2025 14:21:45 GMT-0500 (Central Daylight Time),554000.0,A,har,O,r,94,1,3649.5,550350.5,7113,WL,A,10.0
4,19.310999870300293,learn,40689.00012969971,Thu Apr 03 2025 14:21:45 GMT-0500 (Central Daylight Time),554249.8000000119,A,harp,O,p,220,1,3899.300000011921,550350.5,7113,WL,A,10.0
4,19.743000030517578,learn,40256.99996948242,Thu Apr 03 2025 14:21:45 GMT-0500 (Central Daylight Time),554682.0999999642,A,harpenter,O,enter,401,1,4331.599999964237,550350.5,7113,WL,A,10.0
4,26.64199995994568,learn,33358.00004005432,Thu Apr 03 2025 14:21:45 GMT-0500 (Central Daylight Time),561581.0,A,g,O,g,6877,1,6898.699999988079,554682.3000000119,7113,WL,A,11.0
4,26.757999897003174,learn,33242.000102996826,Thu Apr 03 2025 14:21:45 GMT-0500 (Central Daylight Time),561696.8999999762,A,go,O,o,83,1,7014.599999964237,554682.3000000119,7113,WL,A,11.0
4,26.991999864578247,learn,33008.00013542175,Thu Apr 03 2025 14:21:45 GMT-0500 (Central Daylight Time),561930.6999999881,A,gol,O,l,205,1,7248.399999976158,554682.3000000119,7113,WL,A,11.0
4,27.091000080108643,learn,32908.99991989136,Thu Apr 03 2025 14:21:45 GMT-0500 (Central Daylight Time),562030.0999999642,A,gold,O,d,66,1,7347.799999952316,554682.3000000119,7113,WL,A,11.0
4,27.308000087738037,learn,32691.999912261963,Thu Apr 03 2025 14:21:45 GMT-0500 (Central Daylight Time),562246.3000000119,A,goldenter,O,enter,198,1,7564.0,554682.3000000119,7113,WL,A,11.0
4,32.58999991416931,learn,27410.00008583069,Thu Apr 03 2025 14:21:45 GMT-0500 (Central Daylight Time),567528.8000000119,A,r,O,r,5272,1,5282.200000047684,562246.5999999642,7113,WL,A,12.0
4,32.78999996185303,learn,27210.000038146973,Thu Apr 03 2025 14:21:45 GMT-0500 (Central Daylight Time),567728.5999999642,A,ra,O,a,169,1,5482.0,562246.5999999642,7113,WL,A,12.0
4,32.92300009727478,learn,27076.99990272522,Thu Apr 03 2025 14:21:45 GMT-0500 (Central Daylight Time),567861.3000000119,A,rat,O,t,108,1,5614.700000047684,562246.5999999642,7113,WL,A,12.0
4,33.19000005722046,learn,26809.99994277954,Thu Apr 03 2025 14:21:45 GMT-0500 (Central Daylight Time),568128.6999999881,A,ratt,O,t,248,1,5882.100000023842,562246.5999999642,7113,WL,A,12.0
4,33.37299990653992,learn,26627.000093460083,Thu Apr 03 2025 14:21:45 GMT-0500 (Central Daylight Time),568312.0,A,rattl,O,l,147,1,6065.400000035763,562246.5999999642,7113,WL,A,12.0
4,33.52300000190735,learn,26476.99999809265,Thu Apr 03 2025 14:21:45 GMT-0500 (Central Daylight Time),568462.0,A,rattle,O,e,115,1,6215.400000035763,562246.5999999642,7113,WL,A,12.0
4,33.68899989128113,learn,26311.000108718872,Thu Apr 03 2025 14:21:45 GMT-0500 (Central Daylight Time),568627.5999999642,A,rattleenter,O,enter,141,1,6381.0,562246.5999999642,7113,WL,A,12.0
4,38.00499987602234,learn,21995.00012397766,Thu Apr 03 2025 14:21:45 GMT-0500 (Central Daylight Time),572943.6999999881,A,b,O,b,4299,1,4315.899999976158,568627.8000000119,7113,WL,A,13.0
4,38.15499997138977,learn,21845.00002861023,Thu Apr 03 2025 14:21:45 GMT-0500 (Central Daylight Time),573093.6999999881,A,bu,O,u,116,1,4465.899999976158,568627.8000000119,7113,WL,A,13.0
4,38.287999868392944,learn,21712.000131607056,Thu Apr 03 2025 14:21:45 GMT-0500 (Central Daylight Time),573227.0999999642,A,but,O,t,96,1,4599.299999952316,568627.8000000119,7113,WL,A,13.0
4,38.47099995613098,learn,21529.00004386902,Thu Apr 03 2025 14:21:45 GMT-0500 (Central Daylight Time),573410.3000000119,A,butt,O,t,143,1,4782.5,568627.8000000119,7113,WL,A,13.0
4,38.58800005912781,learn,21411.999940872192,Thu Apr 03 2025 14:21:45 GMT-0500 (Central Daylight Time),573526.5999999642,A,butto,O,o,88,1,4898.799999952316,568627.8000000119,7113,WL,A,13.0
4,38.787999868392944,learn,21212.000131607056,Thu Apr 03 2025 14:21:45 GMT-0500 (Central Daylight Time),573726.5999999642,A,button,O,n,177,1,5098.799999952316,568627.8000000119,7113,WL,A,13.0
4,38.98699998855591,learn,21013.00001144409,Thu Apr 03 2025 14:21:45 GMT-0500 (Central Daylight Time),573925.8000000119,A,buttonenter,O,enter,165,1,5298.0,568627.8000000119,7113,WL,A,13.0
4,45.03600001335144,learn,14963.99998664856,Thu Apr 03 2025 14:21:45 GMT-0500 (Central Daylight Time),579974.8000000119,A,s,O,s,6041,1,6048.700000047684,573926.0999999642,7113,WL,A,14.0
4,45.18599987030029,learn,14814.000129699707,Thu Apr 03 2025 14:21:45 GMT-0500 (Central Daylight Time),580124.3999999762,A,sa,O,a,123,1,6198.300000011921,573926.0999999642,7113,WL,A,14.0
4,45.35199999809265,learn,14648.000001907349,Thu Apr 03 2025 14:21:45 GMT-0500 (Central Daylight Time),580291.0999999642,A,sal,O,l,146,1,6365.0,573926.0999999642,7113,WL,A,14.0
4,45.51900005340576,learn,14480.999946594238,Thu Apr 03 2025 14:21:45 GMT-0500 (Central Daylight Time),580457.8999999762,A,salt,O,t,139,1,6531.800000011921,573926.0999999642,7113,WL,A,14.0
4,45.66799998283386,learn,14332.000017166138,Thu Apr 03 2025 14:21:45 GMT-0500 (Central Daylight Time),580606.8999999762,A,saltenter,O,enter,113,1,6680.800000011921,573926.0999999642,7113,WL,A,14.0
4,52.58399987220764,learn,7416.000127792358,Thu Apr 03 2025 14:21:45 GMT-0500 (Central Daylight Time),587522.3999999762,A,s,O,s,6896,1,6915.199999988079,580607.1999999881,7113,WL,A,15.0
4,52.73300004005432,learn,7266.999959945679,Thu Apr 03 2025 14:21:45 GMT-0500 (Central Daylight Time),587671.6999999881,A,sa,O,a,116,1,7064.5,580607.1999999881,7113,WL,A,15.0
4,52.91599988937378,learn,7084.000110626221,Thu Apr 03 2025 14:21:45 GMT-0500 (Central Daylight Time),587855.3000000119,A,sal,O,l,160,1,7248.100000023842,580607.1999999881,7113,WL,A,15.0
4,53.06599998474121,learn,6934.000015258789,Thu Apr 03 2025 14:21:45 GMT-0500 (Central Daylight Time),588004.6999999881,A,salt,O,t,128,1,7397.5,580607.1999999881,7113,WL,A,15.0
4,53.24900007247925,learn,6750.999927520752,Thu Apr 03 2025 14:21:45 GMT-0500 (Central Daylight Time),588187.8000000119,A,saltenter,O,enter,169,1,7580.600000023842,580607.1999999881,7113,WL,A,15.0
5,1.184000015258789,learn,60000.0,Thu Apr 03 2025 14:21:45 GMT-0500 (Central Daylight Time),659365.8999999762,A,b,O,b,1152,1,1183.0999999642372,658182.8000000119,7113,WL,A,1.0
5,1.4670000076293945,learn,60000.0,Thu Apr 03 2025 14:21:45 GMT-0500 (Central Daylight Time),659648.8999999762,A,bo,O,o,254,1,1466.0999999642372,658182.8000000119,7113,WL,A,1.0
5,1.6159999370574951,learn,60000.0,Thu Apr 03 2025 14:21:45 GMT-0500 (Central Daylight Time),659798.5,A,boo,O,o,124,1,1615.699999988079,658182.8000000119,7113,WL,A,1.0
5,1.9839999675750732,learn,60000.0,Thu Apr 03 2025 14:21:45 GMT-0500 (Central Daylight Time),660165.3999999762,A,book,O,k,342,1,1982.5999999642372,658182.8000000119,7113,WL,A,1.0
5,2.315999984741211,learn,60000.0,Thu Apr 03 2025 14:21:45 GMT-0500 (Central Daylight Time),660497.3999999762,A,bookenter,O,enter,302,1,2314.599999964237,658182.8000000119,7113,WL,A,1.0
5,2.5829999446868896,learn,60000.0,Thu Apr 03 2025 14:21:45 GMT-0500 (Central Daylight Time),660764.8999999762,A,f,O,f,246,1,267.19999998807907,660497.6999999881,7113,WL,A,2.0
5,2.7160000801086426,learn,60000.0,Thu Apr 03 2025 14:21:45 GMT-0500 (Central Daylight Time),660898.3000000119,A,fl,O,l,102,1,400.60000002384186,660497.6999999881,7113,WL,A,2.0
5,2.950000047683716,learn,60000.0,Thu Apr 03 2025 14:21:45 GMT-0500 (Central Daylight Time),661131.3999999762,A,flo,O,o,202,1,633.6999999880791,660497.6999999881,7113,WL,A,2.0
5,3.065999984741211,learn,60000.0,Thu Apr 03 2025 14:21:45 GMT-0500 (Central Daylight Time),661247.6999999881,A,flow,O,w,86,1,750.0,660497.6999999881,7113,WL,A,2.0
5,3.183000087738037,learn,60000.0,Thu Apr 03 2025 14:21:45 GMT-0500 (Central Daylight Time),661365.3999999762,A,flowe,O,e,105,1,867.6999999880791,660497.6999999881,7113,WL,A,2.0
5,3.3329999446868896,learn,60000.0,Thu Apr 03 2025 14:21:45 GMT-0500 (Central Daylight Time),661514.8000000119,A,flower,O,r,108,1,1017.1000000238419,660497.6999999881,7113,WL,A,2.0
5,3.4649999141693115,learn,60000.0,Thu Apr 03 2025 14:21:45 GMT-0500 (Central Daylight Time),661647.0,A,flowerenter,O,enter,103,1,1149.300000011921,660497.6999999881,7113,WL,A,2.0
5,3.749000072479248,learn,60000.0,Thu Apr 03 2025 14:21:45 GMT-0500 (Central Daylight Time),661931.0999999642,A,t,O,t,272,1,283.7999999523163,661647.3000000119,7113,WL,A,3.0
5,3.949000120162964,learn,60000.0,Thu Apr 03 2025 14:21:45 GMT-0500 (Central Daylight Time),662131.0999999642,A,tr,O,r,170,1,483.7999999523163,661647.3000000119,7113,WL,A,3.0
5,4.166000127792358,learn,60000.0,Thu Apr 03 2025 14:21:45 GMT-0500 (Central Daylight Time),662347.8999999762,A,tra,O,a,179,1,700.5999999642372,661647.3000000119,7113,WL,A,3.0
5,4.265000104904175,learn,60000.0,Thu Apr 03 2025 14:21:45 GMT-0500 (Central Daylight Time),662446.8999999762,A,trai,O,i,71,1,799.5999999642372,661647.3000000119,7113,WL,A,3.0
5,4.482000112533569,learn,60000.0,Thu Apr 03 2025 14:21:45 GMT-0500 (Central Daylight Time),662664.3000000119,A,train,O,n,200,1,1017.0,661647.3000000119,7113,WL,A,3.0
5,4.931999921798706,learn,60000.0,Thu Apr 03 2025 14:21:45 GMT-0500 (Central Daylight Time),663114.3999999762,A,trainr,O,r,409,1,1467.0999999642372,661647.3000000119,7113,WL,A,3.0
5,5.598999977111816,learn,60000.0,Thu Apr 03 2025 14:21:45 GMT-0500 (Central Daylight Time),663780.8000000119,A,train,O,backspace,633,1,2133.5,661647.3000000119,7113,WL,A,3.0
5,6.398000001907349,learn,60000.0,Thu Apr 03 2025 14:21:45 GMT-0500 (Central Daylight Time),664579.3999999762,A,trainenter,O,enter,773,1,2932.099999964237,661647.3000000119,7113,WL,A,3.0
5,6.7820000648498535,learn,60000.0,Thu Apr 03 2025 14:21:45 GMT-0500 (Central Daylight Time),664963.5999999642,A,r,O,r,363,1,383.89999997615814,664579.6999999881,7113,WL,A,4.0
5,7.065000057220459,learn,60000.0,Thu Apr 03 2025 14:21:45 GMT-0500 (Central Daylight Time),665246.6999999881,A,ru,O,u,257,1,667.0,664579.6999999881,7113,WL,A,4.0
5,7.247999906539917,learn,60000.0,Thu Apr 03 2025 14:21:45 GMT-0500 (Central Daylight Time),665430.3999999762,A,rug,O,g,150,1,850.6999999880791,664579.6999999881,7113,WL,A,4.0
5,7.46399998664856,learn,60000.0,Thu Apr 03 2025 14:21:45 GMT-0500 (Central Daylight Time),665645.6999999881,A,rugenter,O,enter,182,1,1066.0,664579.6999999881,7113,WL,A,4.0
5,8.015000104904175,learn,60000.0,Thu Apr 03 2025 14:21:45 GMT-0500 (Central Daylight Time),666196.5999999642,A,r,O,r,528,1,550.5999999642372,665646.0,7113,WL,A,5.0
5,8.230999946594238,learn,60000.0,Thu Apr 03 2025 14:21:45 GMT-0500 (Central Daylight Time),666413.1999999881,A,ra,O,a,176,1,767.1999999880791,665646.0,7113,WL,A,5.0
5,8.431999921798706,learn,60000.0,Thu Apr 03 2025 14:21:45 GMT-0500 (Central Daylight Time),666613.5999999642,A,rat,O,t,176,1,967.5999999642372,665646.0,7113,WL,A,5.0
5,8.664000034332275,learn,60000.0,Thu Apr 03 2025 14:21:45 GMT-0500 (Central Daylight Time),666846.0999999642,A,ratt,O,t,198,1,1200.0999999642372,665646.0,7113,WL,A,5.0
5,8.814000129699707,learn,60000.0,Thu Apr 03 2025 14:21:45 GMT-0500 (Central Daylight Time),666996.1999999881,A,rattl,O,l,123,1,1350.199999988079,665646.0,7113,WL,A,5.0
5,8.947999954223633,learn,60000.0,Thu Apr 03 2025 14:21:45 GMT-0500 (Central Daylight Time),667129.5,A,rattle,O,e,103,1,1483.5,665646.0,7113,WL,A,5.0
5,9.130000114440918,learn,60000.0,Thu Apr 03 2025 14:21:45 GMT-0500 (Central Daylight Time),667311.8999999762,A,rattleenter,O,enter,143,1,1665.8999999761581,665646.0,7113,WL,A,5.0
5,9.29699993133545,learn,60000.0,Thu Apr 03 2025 14:21:45 GMT-0500 (Central Daylight Time),667478.8999999762,A,g,O,g,150,1,166.80000001192093,667312.0999999642,7113,WL,A,6.0
5,9.480999946594238,learn,60000.0,Thu Apr 03 2025 14:21:45 GMT-0500 (Central Daylight Time),667662.6999999881,A,go,O,o,153,1,350.60000002384186,667312.0999999642,7113,WL,A,6.0
5,9.730999946594238,learn,60000.0,Thu Apr 03 2025 14:21:45 GMT-0500 (Central Daylight Time),667912.5999999642,A,gol,O,l,220,1,600.5,667312.0999999642,7113,WL,A,6.0
5,9.848000049591064,learn,60000.0,Thu Apr 03 2025 14:21:45 GMT-0500 (Central Daylight Time),668029.5999999642,A,gold,O,d,93,1,717.5,667312.0999999642,7113,WL,A,6.0
5,10.046000003814697,learn,60000.0,Thu Apr 03 2025 14:21:45 GMT-0500 (Central Daylight Time),668228.1999999881,A,goldenter,O,enter,164,1,916.1000000238419,667312.0999999642,7113,WL,A,6.0
5,10.347000122070312,learn,60000.0,Thu Apr 03 2025 14:21:45 GMT-0500 (Central Daylight Time),668529.0999999642,A,s,O,s,283,1,300.69999998807907,668228.3999999762,7113,WL,A,7.0
5,10.496999979019165,learn,60000.0,Thu Apr 03 2025 14:21:45 GMT-0500 (Central Daylight Time),668678.8999999762,A,sa,O,a,123,1,450.5,668228.3999999762,7113,WL,A,7.0
5,10.664000034332275,learn,60000.0,Thu Apr 03 2025 14:21:45 GMT-0500 (Central Daylight Time),668845.6999999881,A,sal,O,l,133,1,617.3000000119209,668228.3999999762,7113,WL,A,7.0
5,10.897000074386597,learn,60000.0,Thu Apr 03 2025 14:21:45 GMT-0500 (Central Daylight Time),669078.8000000119,A,salt,O,t,199,1,850.4000000357628,668228.3999999762,7113,WL,A,7.0
5,11.095999956130981,learn,60000.0,Thu Apr 03 2025 14:21:45 GMT-0500 (Central Daylight Time),669277.8000000119,A,saltenter,O,enter,164,1,1049.4000000357628,668228.3999999762,7113,WL,A,7.0
5,11.562999963760376,learn,60000.0,Thu Apr 03 2025 14:21:45 GMT-0500 (Central Daylight Time),669745.3999999762,A,m,O,m,457,1,467.30000001192093,669278.0999999642,7113,WL,A,8.0
5,11.713000059127808,learn,60000.0,Thu Apr 03 2025 14:21:45 GMT-0500 (Central Daylight Time),669895.3000000119,A,me,O,e,114,1,617.2000000476837,669278.0999999642,7113,WL,A,8.0
5,11.845999956130981,learn,60000.0,Thu Apr 03 2025 14:21:45 GMT-0500 (Central Daylight Time),670028.1999999881,A,mea,O,a,90,1,750.1000000238419,669278.0999999642,7113,WL,A,8.0
5,12.032000064849854,learn,60000.0,Thu Apr 03 2025 14:21:45 GMT-0500 (Central Daylight Time),670213.8999999762,A,mead,O,d,157,1,935.8000000119209,669278.0999999642,7113,WL,A,8.0
5,12.213000059127808,learn,60000.0,Thu Apr 03 2025 14:21:45 GMT-0500 (Central Daylight Time),670395.3999999762,A,meado,O,o,141,1,1117.300000011921,669278.0999999642,7113,WL,A,8.0
5,12.329999923706055,learn,60000.0,Thu Apr 03 2025 14:21:45 GMT-0500 (Central Daylight Time),670511.8000000119,A,meadow,O,w,80,1,1233.7000000476837,669278.0999999642,7113,WL,A,8.0
5,12.745000123977661,learn,60000.0,Thu Apr 03 2025 14:21:45 GMT-0500 (Central Daylight Time),670927.3000000119,A,meadowenter,O,enter,388,1,1649.2000000476837,669278.0999999642,7113,WL,A,8.0
5,16.144999980926514,learn,60000.0,Thu Apr 03 2025 14:21:45 GMT-0500 (Central Daylight Time),674327.3000000119,A,f,O,f,3384,1,3399.7000000476837,670927.5999999642,7113,WL,A,9.0
5,16.24500012397766,learn,60000.0,Thu Apr 03 2025 14:21:45 GMT-0500 (Central Daylight Time),674426.5999999642,A,fi,O,i,67,1,3499.0,670927.5999999642,7113,WL,A,9.0
5,16.477999925613403,learn,60000.0,Thu Apr 03 2025 14:21:45 GMT-0500 (Central Daylight Time),674660.3999999762,A,fin,O,n,204,1,3732.800000011921,670927.5999999642,7113,WL,A,9.0
5,16.561000108718872,learn,60000.0,Thu Apr 03 2025 14:21:45 GMT-0500 (Central Daylight Time),674742.6999999881,A,fing,O,g,53,1,3815.100000023842,670927.5999999642,7113,WL,A,9.0
5,16.712000131607056,learn,60000.0,Thu Apr 03 2025 14:21:45 GMT-0500 (Central Daylight Time),674893.5999999642,A,finge,O,e,142,1,3966.0,670927.5999999642,7113,WL,A,9.0
5,16.82800006866455,learn,60000.0,Thu Apr 03 2025 14:21:45 GMT-0500 (Central Daylight Time),675010.3000000119,A,finger,O,r,86,1,4082.7000000476837,670927.5999999642,7113,WL,A,9.0
5,16.927000045776367,learn,60000.0,Thu Apr 03 2025 14:21:45 GMT-0500 (Central Daylight Time),675109.3000000119,A,fingerenter,O,enter,73,1,4181.700000047684,670927.5999999642,7113,WL,A,9.0
5,17.128000020980835,learn,60000.0,Thu Apr 03 2025 14:21:45 GMT-0500 (Central Daylight Time),675309.6999999881,A,a,O,a,192,1,200.19999998807907,675109.5,7113,WL,A,10.0
5,17.311000108718872,learn,60000.0,Thu Apr 03 2025 14:21:45 GMT-0500 (Central Daylight Time),675493.3000000119,A,ap,O,p,150,1,383.80000001192093,675109.5,7113,WL,A,10.0
5,17.51099991798401,learn,60000.0,Thu Apr 03 2025 14:21:45 GMT-0500 (Central Daylight Time),675693.1999999881,A,app,O,p,165,1,583.6999999880791,675109.5,7113,WL,A,10.0
5,17.82800006866455,learn,60000.0,Thu Apr 03 2025 14:21:45 GMT-0500 (Central Daylight Time),676009.5999999642,A,appl,O,l,281,1,900.0999999642372,675109.5,7113,WL,A,10.0
5,18.01099991798401,learn,60000.0,Thu Apr 03 2025 14:21:45 GMT-0500 (Central Daylight Time),676193.1999999881,A,apple,O,e,147,1,1083.699999988079,675109.5,7113,WL,A,10.0
5,18.30999994277954,learn,60000.0,Thu Apr 03 2025 14:21:45 GMT-0500 (Central Daylight Time),676492.1999999881,A,appleenter,O,enter,265,1,1382.699999988079,675109.5,7113,WL,A,10.0
5,18.91100001335144,learn,60000.0,Thu Apr 03 2025 14:21:45 GMT-0500 (Central Daylight Time),677093.0,A,l,O,l,586,1,600.4000000357628,676492.5999999642,7113,WL,A,11.0
5,19.14400005340576,learn,60000.0,Thu Apr 03 2025 14:21:45 GMT-0500 (Central Daylight Time),677325.5999999642,A,lo,O,o,208,1,833.0,676492.5999999642,7113,WL,A,11.0
5,19.293999910354614,learn,60000.0,Thu Apr 03 2025 14:21:45 GMT-0500 (Central Daylight Time),677475.6999999881,A,log,O,g,110,1,983.1000000238419,676492.5999999642,7113,WL,A,11.0
5,19.693000078201294,learn,60000.0,Thu Apr 03 2025 14:21:45 GMT-0500 (Central Daylight Time),677875.0,A,logenter,O,enter,367,1,1382.4000000357628,676492.5999999642,7113,WL,A,11.0
5,21.64300012588501,learn,60000.0,Thu Apr 03 2025 14:21:45 GMT-0500 (Central Daylight Time),679825.3000000119,A,h,O,h,1939,1,1949.9000000357628,677875.3999999762,7113,WL,A,12.0
5,21.743000030517578,learn,60000.0,Thu Apr 03 2025 14:21:45 GMT-0500 (Central Daylight Time),679924.5999999642,A,ha,O,a,65,1,2049.199999988079,677875.3999999762,7113,WL,A,12.0
5,21.877000093460083,learn,60000.0,Thu Apr 03 2025 14:21:45 GMT-0500 (Central Daylight Time),680058.5999999642,A,har,O,r,109,1,2183.199999988079,677875.3999999762,7113,WL,A,12.0
5,22.04200005531311,learn,60000.0,Thu Apr 03 2025 14:21:45 GMT-0500 (Central Daylight Time),680224.3000000119,A,harp,O,p,136,1,2348.900000035763,677875.3999999762,7113,WL,A,12.0
5,22.441999912261963,learn,60000.0,Thu Apr 03 2025 14:21:45 GMT-0500 (Central Daylight Time),680624.0999999642,A,harpenter,O,enter,384,1,2748.699999988079,677875.3999999762,7113,WL,A,12.0
5,33.02300000190735,learn,60000.0,Thu Apr 03 2025 14:21:45 GMT-0500 (Central Daylight Time),691205.0,A,f,O,f,10567,1,10580.600000023842,680624.3999999762,7113,WL,A,13.0
5,33.19000005722046,learn,60000.0,Thu Apr 03 2025 14:21:45 GMT-0500 (Central Daylight Time),691371.5999999642,A,fo,O,o,131,1,10747.199999988079,680624.3999999762,7113,WL,A,13.0
5,33.35599994659424,learn,60000.0,Thu Apr 03 2025 14:21:45 GMT-0500 (Central Daylight Time),691538.0999999642,A,fol,O,l,135,1,10913.699999988079,680624.3999999762,7113,WL,A,13.0
5,33.52300000190735,learn,60000.0,Thu Apr 03 2025 14:21:45 GMT-0500 (Central Daylight Time),691704.8000000119,A,fold,O,d,138,1,11080.400000035763,680624.3999999762,7113,WL,A,13.0
5,33.956000089645386,learn,60000.0,Thu Apr 03 2025 14:21:45 GMT-0500 (Central Daylight Time),692138.0,A,fol,O,backspace,402,1,11513.600000023842,680624.3999999762,7113,WL,A,13.0
5,34.10599994659424,learn,60000.0,Thu Apr 03 2025 14:21:45 GMT-0500 (Central Daylight Time),692287.6999999881,A,fo,O,backspace,123,1,11663.300000011921,680624.3999999762,7113,WL,A,13.0
5,34.27300000190735,learn,60000.0,Thu Apr 03 2025 14:21:45 GMT-0500 (Central Daylight Time),692454.5,A,f,O,backspace,131,1,11830.100000023842,680624.3999999762,7113,WL,A,13.0
5,34.42199993133545,learn,60000.0,Thu Apr 03 2025 14:21:45 GMT-0500 (Central Daylight Time),692604.3999999762,A,,O,backspace,107,1,11980.0,680624.3999999762,7113,WL,A,13.0
5,35.00600004196167,learn,60000.0,Thu Apr 03 2025 14:21:45 GMT-0500 (Central Daylight Time),693187.3999999762,A,g,O,g,545,1,12563.0,680624.3999999762,7113,WL,A,13.0
5,35.2720000743866,learn,60000.0,Thu Apr 03 2025 14:21:45 GMT-0500 (Central Daylight Time),693454.0,A,go,O,o,233,1,12829.600000023842,680624.3999999762,7113,WL,A,13.0
5,35.50600004196167,learn,60000.0,Thu Apr 03 2025 14:21:45 GMT-0500 (Central Daylight Time),693687.5,A,gol,O,l,207,1,13063.100000023842,680624.3999999762,7113,WL,A,13.0
5,35.638999938964844,learn,60000.0,Thu Apr 03 2025 14:21:45 GMT-0500 (Central Daylight Time),693820.8999999762,A,gold,O,d,108,1,13196.5,680624.3999999762,7113,WL,A,13.0
5,35.90499997138977,learn,60000.0,Thu Apr 03 2025 14:21:45 GMT-0500 (Central Daylight Time),694086.3999999762,A,goldenter,O,enter,239,1,13462.0,680624.3999999762,7113,WL,A,13.0
5,41.5699999332428,learn,60000.0,Thu Apr 03 2025 14:21:45 GMT-0500 (Central Daylight Time),699752.1999999881,A,c,O,c,5649,1,5665.600000023842,694086.5999999642,7113,WL,A,14.0
5,41.75399994850159,learn,60000.0,Thu Apr 03 2025 14:21:45 GMT-0500 (Central Daylight Time),699935.3999999762,A,ch,O,h,155,1,5848.800000011921,694086.5999999642,7113,WL,A,14.0
5,41.95300006866455,learn,60000.0,Thu Apr 03 2025 14:21:45 GMT-0500 (Central Daylight Time),700135.3999999762,A,chi,O,i,170,1,6048.800000011921,694086.5999999642,7113,WL,A,14.0
5,42.170000076293945,learn,60000.0,Thu Apr 03 2025 14:21:45 GMT-0500 (Central Daylight Time),700351.8999999762,A,chim,O,m,180,1,6265.300000011921,694086.5999999642,7113,WL,A,14.0
5,42.8529999256134,learn,60000.0,Thu Apr 03 2025 14:21:45 GMT-0500 (Central Daylight Time),701035.0,A,chimn,O,n,653,1,6948.400000035763,694086.5999999642,7113,WL,A,14.0
5,43.003000020980835,learn,60000.0,Thu Apr 03 2025 14:21:45 GMT-0500 (Central Daylight Time),701184.8999999762,A,chimne,O,e,111,1,7098.300000011921,694086.5999999642,7113,WL,A,14.0
5,43.236000061035156,learn,60000.0,Thu Apr 03 2025 14:21:45 GMT-0500 (Central Daylight Time),701418.3000000119,A,chimney,O,y,196,1,7331.700000047684,694086.5999999642,7113,WL,A,14.0
5,43.61899995803833,learn,60000.0,Thu Apr 03 2025 14:21:45 GMT-0500 (Central Daylight Time),701800.5,A,chimneyenter,O,enter,354,1,7713.900000035763,694086.5999999642,7113,WL,A,14.0
5,47.71799993515015,learn,60000.0,Thu Apr 03 2025 14:21:45 GMT-0500 (Central Daylight Time),705900.1999999881,A,s,O,s,4087,1,4099.399999976158,701800.8000000119,7113,WL,A,15.0
5,47.86800003051758,learn,60000.0,Thu Apr 03 2025 14:21:45 GMT-0500 (Central Daylight Time),706050.0,A,sa,O,a,121,1,4249.199999988079,701800.8000000119,7113,WL,A,15.0
5,48.00099992752075,learn,60000.0,Thu Apr 03 2025 14:21:45 GMT-0500 (Central Daylight Time),706182.8999999762,A,sal,O,l,98,1,4382.099999964237,701800.8000000119,7113,WL,A,15.0
5,48.151000022888184,learn,60000.0,Thu Apr 03 2025 14:21:45 GMT-0500 (Central Daylight Time),706333.0999999642,A,salt,O,t,119,1,4532.299999952316,701800.8000000119,7113,WL,A,15.0
5,48.33400011062622,learn,60000.0,Thu Apr 03 2025 14:21:45 GMT-0500 (Central Daylight Time),706515.5,A,saltenter,O,enter,159,1,4714.699999988079,701800.8000000119,7113,WL,A,15.0
6,1.0490000247955322,distr,58950.99997520447,Thu Apr 03 2025 14:21:45 GMT-0500 (Central Daylight Time),787806.3000000119,B,b,O,b,1030,1,1049.300000011921,786757.0,7113,WL,A,1.0
6,1.2999999523162842,distr,58700.000047683716,Thu Apr 03 2025 14:21:45 GMT-0500 (Central Daylight Time),788056.5,B,bo,O,o,221,1,1299.5,786757.0,7113,WL,A,1.0
6,1.4490001201629639,distr,58550.999879837036,Thu Apr 03 2025 14:21:45 GMT-0500 (Central Daylight Time),788206.0,B,bow,O,w,123,1,1449.0,786757.0,7113,WL,A,1.0
6,1.6159999370574951,distr,58384.000062942505,Thu Apr 03 2025 14:21:45 GMT-0500 (Central Daylight Time),788373.0999999642,B,bowl,O,l,135,1,1616.0999999642372,786757.0,7113,WL,A,1.0
6,1.9149999618530273,distr,58085.00003814697,Thu Apr 03 2025 14:21:45 GMT-0500 (Central Daylight Time),788672.0,B,bowlenter,O,enter,272,1,1915.0,786757.0,7113,WL,A,1.0
6,2.183000087738037,distr,57816.99991226196,Thu Apr 03 2025 14:21:45 GMT-0500 (Central Daylight Time),788939.6999999881,B,d,O,d,247,1,267.39999997615814,788672.3000000119,7113,WL,A,2.0
6,2.3320000171661377,distr,57667.99998283386,Thu Apr 03 2025 14:21:45 GMT-0500 (Central Daylight Time),789089.5,B,da,O,a,114,1,417.19999998807907,788672.3000000119,7113,WL,A,2.0
6,2.565999984741211,distr,57434.00001525879,Thu Apr 03 2025 14:21:45 GMT-0500 (Central Daylight Time),789322.8000000119,B,daw,O,w,205,1,650.5,788672.3000000119,7113,WL,A,2.0
6,2.881999969482422,distr,57118.00003051758,Thu Apr 03 2025 14:21:45 GMT-0500 (Central Daylight Time),789639.5,B,dawn,O,n,281,1,967.1999999880791,788672.3000000119,7113,WL,A,2.0
6,3.133000135421753,distr,56866.99986457825,Thu Apr 03 2025 14:21:45 GMT-0500 (Central Daylight Time),789889.3999999762,B,dawnenter,O,enter,217,1,1217.0999999642372,788672.3000000119,7113,WL,A,2.0
6,3.3480000495910645,distr,56651.999950408936,Thu Apr 03 2025 14:21:45 GMT-0500 (Central Daylight Time),790105.3000000119,B,g,O,g,204,1,215.60000002384186,789889.6999999881,7113,WL,A,3.0
6,3.5490000247955322,distr,56450.99997520447,Thu Apr 03 2025 14:21:45 GMT-0500 (Central Daylight Time),790305.6999999881,B,gr,O,r,174,1,416.0,789889.6999999881,7113,WL,A,3.0
6,3.748000144958496,distr,56251.999855041504,Thu Apr 03 2025 14:21:45 GMT-0500 (Central Daylight Time),790505.3000000119,B,gra,O,a,160,1,615.6000000238419,789889.6999999881,7113,WL,A,3.0
6,3.9820001125335693,distr,56017.99988746643,Thu Apr 03 2025 14:21:45 GMT-0500 (Central Daylight Time),790738.6999999881,B,gran,O,n,213,1,849.0,789889.6999999881,7113,WL,A,3.0
6,4.148999929428101,distr,55851.0000705719,Thu Apr 03 2025 14:21:45 GMT-0500 (Central Daylight Time),790905.6999999881,B,grant,O,t,133,1,1016.0,789889.6999999881,7113,WL,A,3.0
6,4.38100004196167,distr,55618.99995803833,Thu Apr 03 2025 14:21:45 GMT-0500 (Central Daylight Time),791137.8999999762,B,grantenter,O,enter,192,1,1248.199999988079,789889.6999999881,7113,WL,A,3.0
6,7.397000074386597,distr,52602.9999256134,Thu Apr 03 2025 14:21:45 GMT-0500 (Central Daylight Time),794154.0999999642,B,s,O,s,2995,1,3015.899999976158,791138.1999999881,7113,WL,A,4.0
6,7.531000137329102,distr,52468.9998626709,Thu Apr 03 2025 14:21:45 GMT-0500 (Central Daylight Time),794287.6999999881,B,sh,O,h,114,1,3149.5,791138.1999999881,7113,WL,A,4.0
6,7.680999994277954,distr,52319.000005722046,Thu Apr 03 2025 14:21:45 GMT-0500 (Central Daylight Time),794437.5999999642,B,she,O,e,117,1,3299.399999976158,791138.1999999881,7113,WL,A,4.0
6,7.8480000495910645,distr,52151.999950408936,Thu Apr 03 2025 14:21:45 GMT-0500 (Central Daylight Time),794605.5,B,shee,O,e,143,1,3467.300000011921,791138.1999999881,7113,WL,A,4.0
6,8.013999938964844,distr,51986.000061035156,Thu Apr 03 2025 14:21:45 GMT-0500 (Central Daylight Time),794771.1999999881,B,sheep,O,p,126,1,3633.0,791138.1999999881,7113,WL,A,4.0
6,8.646000146865845,distr,51353.999853134155,Thu Apr 03 2025 14:21:45 GMT-0500 (Central Daylight Time),795403.3000000119,B,sheepenter,O,enter,599,1,4265.100000023842,791138.1999999881,7113,WL,A,4.0
6,9.413000106811523,distr,50586.99989318848,Thu Apr 03 2025 14:21:45 GMT-0500 (Central Daylight Time),796170.3999999762,B,m,O,m,756,1,767.0,795403.3999999762,7113,WL,A,5.0
6,9.513000011444092,distr,50486.99998855591,Thu Apr 03 2025 14:21:45 GMT-0500 (Central Daylight Time),796270.0999999642,B,me,O,e,74,1,866.6999999880791,795403.3999999762,7113,WL,A,5.0
6,9.630000114440918,distr,50369.99988555908,Thu Apr 03 2025 14:21:45 GMT-0500 (Central Daylight Time),796387.1999999881,B,mea,O,a,84,1,983.8000000119209,795403.3999999762,7113,WL,A,5.0
6,9.79699993133545,distr,50203.00006866455,Thu Apr 03 2025 14:21:45 GMT-0500 (Central Daylight Time),796553.6999999881,B,meal,O,l,132,1,1150.300000011921,795403.3999999762,7113,WL,A,5.0
6,10.161999940872192,distr,49838.00005912781,Thu Apr 03 2025 14:21:45 GMT-0500 (Central Daylight Time),796919.3000000119,B,mealenter,O,enter,337,1,1515.9000000357628,795403.3999999762,7113,WL,A,5.0
6,15.59500002861023,distr,44404.99997138977,Thu Apr 03 2025 14:21:45 GMT-0500 (Central Daylight Time),802351.8999999762,B,p,O,p,5416,1,5432.300000011921,796919.5999999642,7113,WL,A,6.0
6,16.128000020980835,distr,43871.999979019165,Thu Apr 03 2025 14:21:45 GMT-0500 (Central Daylight Time),802885.3000000119,B,po,O,o,492,1,5965.700000047684,796919.5999999642,7113,WL,A,6.0
6,16.295000076293945,distr,43704.999923706055,Thu Apr 03 2025 14:21:45 GMT-0500 (Central Daylight Time),803051.8999999762,B,poo,O,o,127,1,6132.300000011921,796919.5999999642,7113,WL,A,6.0
6,16.511000156402588,distr,43488.99984359741,Thu Apr 03 2025 14:21:45 GMT-0500 (Central Daylight Time),803267.5,B,pool,O,l,183,1,6347.900000035763,796919.5999999642,7113,WL,A,6.0
6,16.927000045776367,distr,43072.99995422363,Thu Apr 03 2025 14:21:45 GMT-0500 (Central Daylight Time),803683.6999999881,B,poolenter,O,enter,396,1,6764.100000023842,796919.5999999642,7113,WL,A,6.0
6,20.460000038146973,distr,39539.99996185303,Thu Apr 03 2025 14:21:45 GMT-0500 (Central Daylight Time),807217.0,B,g,O,g,3523,1,3533.0,803684.0,7113,WL,A,7.0
6,20.693000078201294,distr,39306.999921798706,Thu Apr 03 2025 14:21:45 GMT-0500 (Central Daylight Time),807450.3000000119,B,gr,O,r,208,1,3766.300000011921,803684.0,7113,WL,A,7.0
6,20.860000133514404,distr,39139.999866485596,Thu Apr 03 2025 14:21:45 GMT-0500 (Central Daylight Time),807616.8000000119,B,gra,O,a,133,1,3932.800000011921,803684.0,7113,WL,A,7.0
6,21.026000022888184,distr,38973.99997711182,Thu Apr 03 2025 14:21:45 GMT-0500 (Central Daylight Time),807783.1999999881,B,gran,O,n,140,1,4099.199999988079,803684.0,7113,WL,A,7.0
6,21.14300012588501,distr,38856.99987411499,Thu Apr 03 2025 14:21:45 GMT-0500 (Central Daylight Time),807899.8000000119,B,grant,O,t,89,1,4215.800000011921,803684.0,7113,WL,A,7.0
6,21.375999927520752,distr,38624.00007247925,Thu Apr 03 2025 14:21:45 GMT-0500 (Central Daylight Time),808132.3999999762,B,grantenter,O,enter,201,1,4448.399999976158,803684.0,7113,WL,A,7.0
6,26.891000032424927,distr,33108.99996757507,Thu Apr 03 2025 14:21:45 GMT-0500 (Central Daylight Time),813648.0999999642,B,c,O,c,5507,1,5515.5,808132.5999999642,7113,WL,A,8.0
6,27.10800004005432,distr,32891.99995994568,Thu Apr 03 2025 14:21:45 GMT-0500 (Central Daylight Time),813864.6999999881,B,co,O,o,185,1,5732.100000023842,808132.5999999642,7113,WL,A,8.0
6,27.240000009536743,distr,32759.999990463257,Thu Apr 03 2025 14:21:45 GMT-0500 (Central Daylight Time),813997.0999999642,B,coa,O,a,106,1,5864.5,808132.5999999642,7113,WL,A,8.0
6,27.407999992370605,distr,32592.000007629395,Thu Apr 03 2025 14:21:45 GMT-0500 (Central Daylight Time),814164.6999999881,B,coat,O,t,147,1,6032.100000023842,808132.5999999642,7113,WL,A,8.0
6,27.572999954223633,distr,32427.000045776367,Thu Apr 03 2025 14:21:45 GMT-0500 (Central Daylight Time),814330.3999999762,B,coatenter,O,enter,126,1,6197.800000011921,808132.5999999642,7113,WL,A,8.0
6,60.013999938964844,distr,-13.99993896484375,Thu Apr 03 2025 14:21:45 GMT-0500 (Central Daylight Time),846770.8000000119,B,None,O,None,32434,1,32440.200000047684,814330.5999999642,7113,WL,A,9.0
7,0.6330001354217529,immed,59366.99986457825,Thu Apr 03 2025 14:21:45 GMT-0500 (Central Daylight Time),864813.5,A,r,O,r,617,1,632.9000000357628,864180.5999999642,7113,WL,A,1.0
7,0.7660000324249268,immed,59233.99996757507,Thu Apr 03 2025 14:21:45 GMT-0500 (Central Daylight Time),864946.8000000119,A,ru,O,u,117,1,766.2000000476837,864180.5999999642,7113,WL,A,1.0
7,0.9660000801086426,immed,59033.99991989136,Thu Apr 03 2025 14:21:45 GMT-0500 (Central Daylight Time),865146.8000000119,A,rug,O,g,178,1,966.2000000476837,864180.5999999642,7113,WL,A,1.0
7,1.1660001277923584,immed,58833.99987220764,Thu Apr 03 2025 14:21:45 GMT-0500 (Central Daylight Time),865346.8999999762,A,rugenter,O,enter,185,1,1166.300000011921,864180.5999999642,7113,WL,A,1.0
7,1.7170000076293945,immed,58282.999992370605,Thu Apr 03 2025 14:21:45 GMT-0500 (Central Daylight Time),865897.3999999762,A,l,O,l,530,1,550.1999999880791,865347.1999999881,7113,WL,A,2.0
7,1.9509999752044678,immed,58049.00002479553,Thu Apr 03 2025 14:21:45 GMT-0500 (Central Daylight Time),866131.1999999881,A,lo,O,o,198,1,784.0,865347.1999999881,7113,WL,A,2.0
7,2.0829999446868896,immed,57917.00005531311,Thu Apr 03 2025 14:21:45 GMT-0500 (Central Daylight Time),866263.5,A,log,O,g,106,1,916.3000000119209,865347.1999999881,7113,WL,A,2.0
7,2.383000135421753,immed,57616.99986457825,Thu Apr 03 2025 14:21:45 GMT-0500 (Central Daylight Time),866563.1999999881,A,logenter,O,enter,273,1,1216.0,865347.1999999881,7113,WL,A,2.0
7,2.7839999198913574,immed,57216.00008010864,Thu Apr 03 2025 14:21:45 GMT-0500 (Central Daylight Time),866964.0999999642,A,t,O,t,388,1,400.69999998807907,866563.3999999762,7113,WL,A,3.0
7,3.0169999599456787,immed,56983.00004005432,Thu Apr 03 2025 14:21:45 GMT-0500 (Central Daylight Time),867197.8999999762,A,tr,O,r,207,1,634.5,866563.3999999762,7113,WL,A,3.0
7,3.3499999046325684,immed,56650.00009536743,Thu Apr 03 2025 14:21:45 GMT-0500 (Central Daylight Time),867530.5,A,tra,O,a,294,1,967.1000000238419,866563.3999999762,7113,WL,A,3.0
7,3.450000047683716,immed,56549.999952316284,Thu Apr 03 2025 14:21:45 GMT-0500 (Central Daylight Time),867630.1999999881,A,trai,O,i,73,1,1066.800000011921,866563.3999999762,7113,WL,A,3.0
7,3.633000135421753,immed,56366.99986457825,Thu Apr 03 2025 14:21:45 GMT-0500 (Central Daylight Time),867813.8999999762,A,train,O,n,163,1,1250.5,866563.3999999762,7113,WL,A,3.0
7,3.8989999294281006,immed,56101.0000705719,Thu Apr 03 2025 14:21:45 GMT-0500 (Central Daylight Time),868079.3999999762,A,trainenter,O,enter,242,1,1516.0,866563.3999999762,7113,WL,A,3.0
7,4.099999904632568,immed,55900.00009536743,Thu Apr 03 2025 14:21:45 GMT-0500 (Central Daylight Time),868280.3000000119,A,b,O,b,184,1,200.70000004768372,868079.5999999642,7113,WL,A,4.0
7,4.299999952316284,immed,55700.000047683716,Thu Apr 03 2025 14:21:45 GMT-0500 (Central Daylight Time),868480.3999999762,A,bo,O,o,164,1,400.80000001192093,868079.5999999642,7113,WL,A,4.0
7,4.466000080108643,immed,55533.99991989136,Thu Apr 03 2025 14:21:45 GMT-0500 (Central Daylight Time),868646.8999999762,A,boo,O,o,131,1,567.3000000119209,868079.5999999642,7113,WL,A,4.0
7,4.716000080108643,immed,55283.99991989136,Thu Apr 03 2025 14:21:45 GMT-0500 (Central Daylight Time),868896.3999999762,A,book,O,k,222,1,816.8000000119209,868079.5999999642,7113,WL,A,4.0
7,5.0320000648498535,immed,54967.99993515015,Thu Apr 03 2025 14:21:45 GMT-0500 (Central Daylight Time),869212.3000000119,A,bookenter,O,enter,286,1,1132.7000000476837,868079.5999999642,7113,WL,A,4.0
7,5.648999929428101,immed,54351.0000705719,Thu Apr 03 2025 14:21:45 GMT-0500 (Central Daylight Time),869829.8000000119,A,m,O,m,610,1,617.3000000119209,869212.5,7113,WL,A,5.0
7,5.747999906539917,immed,54252.00009346008,Thu Apr 03 2025 14:21:45 GMT-0500 (Central Daylight Time),869928.8000000119,A,me,O,e,61,1,716.3000000119209,869212.5,7113,WL,A,5.0
7,5.865999937057495,immed,54134.000062942505,Thu Apr 03 2025 14:21:45 GMT-0500 (Central Daylight Time),870046.0999999642,A,mea,O,a,93,1,833.5999999642372,869212.5,7113,WL,A,5.0
7,6.015000104904175,immed,53984.999895095825,Thu Apr 03 2025 14:21:45 GMT-0500 (Central Daylight Time),870195.6999999881,A,mead,O,d,117,1,983.1999999880791,869212.5,7113,WL,A,5.0
7,6.181999921798706,immed,53818.000078201294,Thu Apr 03 2025 14:21:45 GMT-0500 (Central Daylight Time),870362.5,A,meado,O,o,137,1,1150.0,869212.5,7113,WL,A,5.0
7,6.2820000648498535,immed,53717.99993515015,Thu Apr 03 2025 14:21:45 GMT-0500 (Central Daylight Time),870462.8999999762,A,meadow,O,w,69,1,1250.3999999761581,869212.5,7113,WL,A,5.0
7,6.765000104904175,immed,53234.999895095825,Thu Apr 03 2025 14:21:45 GMT-0500 (Central Daylight Time),870945.0999999642,A,meadowenter,O,enter,445,1,1732.5999999642372,869212.5,7113,WL,A,5.0
7,9.38100004196167,immed,50618.99995803833,Thu Apr 03 2025 14:21:45 GMT-0500 (Central Daylight Time),873561.8999999762,A,s,O,s,2598,1,2616.599999964237,870945.3000000119,7113,WL,A,6.0
7,9.497999906539917,immed,50502.00009346008,Thu Apr 03 2025 14:21:45 GMT-0500 (Central Daylight Time),873678.0,A,sa,O,a,89,1,2732.699999988079,870945.3000000119,7113,WL,A,6.0
7,9.697999954223633,immed,50302.00004577637,Thu Apr 03 2025 14:21:45 GMT-0500 (Central Daylight Time),873878.3999999762,A,sal,O,l,168,1,2933.099999964237,870945.3000000119,7113,WL,A,6.0
7,9.864000082015991,immed,50135.99991798401,Thu Apr 03 2025 14:21:45 GMT-0500 (Central Daylight Time),874044.8999999762,A,salt,O,t,125,1,3099.599999964237,870945.3000000119,7113,WL,A,6.0
7,10.013999938964844,immed,49986.000061035156,Thu Apr 03 2025 14:21:45 GMT-0500 (Central Daylight Time),874194.0,A,saltenter,O,enter,119,1,3248.699999988079,870945.3000000119,7113,WL,A,6.0
7,10.29800009727478,immed,49701.99990272522,Thu Apr 03 2025 14:21:45 GMT-0500 (Central Daylight Time),874478.3000000119,A,a,O,a,269,1,284.0,874194.3000000119,7113,WL,A,7.0
7,10.598000049591064,immed,49401.999950408936,Thu Apr 03 2025 14:21:45 GMT-0500 (Central Daylight Time),874778.0999999642,A,ap,O,p,261,1,583.7999999523163,874194.3000000119,7113,WL,A,7.0
7,10.77999997138977,immed,49220.00002861023,Thu Apr 03 2025 14:21:45 GMT-0500 (Central Daylight Time),874960.8000000119,A,app,O,p,144,1,766.5,874194.3000000119,7113,WL,A,7.0
7,11.21399998664856,immed,48786.00001335144,Thu Apr 03 2025 14:21:45 GMT-0500 (Central Daylight Time),875394.6999999881,A,appl,O,l,405,1,1200.3999999761581,874194.3000000119,7113,WL,A,7.0
7,11.397000074386597,immed,48602.9999256134,Thu Apr 03 2025 14:21:45 GMT-0500 (Central Daylight Time),875578.0,A,apple,O,e,144,1,1383.699999988079,874194.3000000119,7113,WL,A,7.0
7,11.579999923706055,immed,48420.000076293945,Thu Apr 03 2025 14:21:45 GMT-0500 (Central Daylight Time),875760.3000000119,A,appleenter,O,enter,146,1,1566.0,874194.3000000119,7113,WL,A,7.0
7,11.781000137329102,immed,48218.9998626709,Thu Apr 03 2025 14:21:45 GMT-0500 (Central Daylight Time),875961.0999999642,A,f,O,f,183,1,200.5999999642372,875760.5,7113,WL,A,8.0
7,11.930000066757202,immed,48069.9999332428,Thu Apr 03 2025 14:21:45 GMT-0500 (Central Daylight Time),876110.0,A,fi,O,i,122,1,349.5,875760.5,7113,WL,A,8.0
7,12.19700002670288,immed,47802.99997329712,Thu Apr 03 2025 14:21:45 GMT-0500 (Central Daylight Time),876377.3999999762,A,fin,O,n,247,1,616.8999999761581,875760.5,7113,WL,A,8.0
7,12.296000003814697,immed,47703.9999961853,Thu Apr 03 2025 14:21:45 GMT-0500 (Central Daylight Time),876476.5999999642,A,fing,O,g,72,1,716.0999999642372,875760.5,7113,WL,A,8.0
7,12.430000066757202,immed,47569.9999332428,Thu Apr 03 2025 14:21:45 GMT-0500 (Central Daylight Time),876610.8999999762,A,finge,O,e,118,1,850.3999999761581,875760.5,7113,WL,A,8.0
7,12.54699993133545,immed,47453.00006866455,Thu Apr 03 2025 14:21:45 GMT-0500 (Central Daylight Time),876727.5,A,finger,O,r,79,1,967.0,875760.5,7113,WL,A,8.0
7,12.663000106811523,immed,47336.99989318848,Thu Apr 03 2025 14:21:45 GMT-0500 (Central Daylight Time),876843.0,A,fingerenter,O,enter,83,1,1082.5,875760.5,7113,WL,A,8.0
7,12.914000034332275,immed,47085.999965667725,Thu Apr 03 2025 14:21:45 GMT-0500 (Central Daylight Time),877094.0,A,g,O,g,235,1,250.69999998807907,876843.3000000119,7113,WL,A,9.0
7,13.029000043869019,immed,46970.99995613098,Thu Apr 03 2025 14:21:45 GMT-0500 (Central Daylight Time),877210.0,A,go,O,o,84,1,366.69999998807907,876843.3000000119,7113,WL,A,9.0
7,13.27999997138977,immed,46720.00002861023,Thu Apr 03 2025 14:21:45 GMT-0500 (Central Daylight Time),877460.5,A,gol,O,l,236,1,617.1999999880791,876843.3000000119,7113,WL,A,9.0
7,13.397000074386597,immed,46602.9999256134,Thu Apr 03 2025 14:21:45 GMT-0500 (Central Daylight Time),877577.3999999762,A,gold,O,d,102,1,734.0999999642372,876843.3000000119,7113,WL,A,9.0
7,13.845999956130981,immed,46154.00004386902,Thu Apr 03 2025 14:21:45 GMT-0500 (Central Daylight Time),878026.0,A,goldenter,O,enter,409,1,1182.699999988079,876843.3000000119,7113,WL,A,9.0
7,20.861000061035156,immed,39138.999938964844,Thu Apr 03 2025 14:21:45 GMT-0500 (Central Daylight Time),885041.3999999762,A,h,O,h,6997,1,7015.099999964237,878026.3000000119,7113,WL,A,10.0
7,20.944000005722046,immed,39055.999994277954,Thu Apr 03 2025 14:21:45 GMT-0500 (Central Daylight Time),885124.0999999642,A,ha,O,a,57,1,7097.799999952316,878026.3000000119,7113,WL,A,10.0
7,21.127000093460083,immed,38872.99990653992,Thu Apr 03 2025 14:21:45 GMT-0500 (Central Daylight Time),885307.6999999881,A,har,O,r,157,1,7281.399999976158,878026.3000000119,7113,WL,A,10.0
7,21.311000108718872,immed,38688.99989128113,Thu Apr 03 2025 14:21:45 GMT-0500 (Central Daylight Time),885491.1999999881,A,harp,O,p,155,1,7464.899999976158,878026.3000000119,7113,WL,A,10.0
7,21.825999975204468,immed,38174.00002479553,Thu Apr 03 2025 14:21:45 GMT-0500 (Central Daylight Time),886006.6999999881,A,harpenter,O,enter,486,1,7980.399999976158,878026.3000000119,7113,WL,A,10.0
7,30.342000007629395,immed,29657.999992370605,Thu Apr 03 2025 14:21:45 GMT-0500 (Central Daylight Time),894521.5999999642,A,l,O,l,8496,1,8514.599999964237,886007.0,7113,WL,A,11.0
7,30.575000047683716,immed,29424.999952316284,Thu Apr 03 2025 14:21:45 GMT-0500 (Central Daylight Time),894755.0,A,lo,O,o,193,1,8748.0,886007.0,7113,WL,A,11.0
7,30.707000017166138,immed,29292.999982833862,Thu Apr 03 2025 14:21:45 GMT-0500 (Central Daylight Time),894887.3999999762,A,log,O,g,95,1,8880.399999976158,886007.0,7113,WL,A,11.0
7,31.006999969482422,immed,28993.000030517578,Thu Apr 03 2025 14:21:45 GMT-0500 (Central Daylight Time),895187.0999999642,A,logenter,O,enter,282,1,9180.099999964237,886007.0,7113,WL,A,11.0
7,39.32200002670288,immed,20677.99997329712,Thu Apr 03 2025 14:21:45 GMT-0500 (Central Daylight Time),903502.0,A,s,O,s,8299,1,8314.699999988079,895187.3000000119,7113,WL,A,12.0
7,39.47099995613098,immed,20529.00004386902,Thu Apr 03 2025 14:21:45 GMT-0500 (Central Daylight Time),903651.5,A,sa,O,a,108,1,8464.199999988079,895187.3000000119,7113,WL,A,12.0
7,39.63800001144409,immed,20361.99998855591,Thu Apr 03 2025 14:21:45 GMT-0500 (Central Daylight Time),903818.5,A,sal,O,l,138,1,8631.199999988079,895187.3000000119,7113,WL,A,12.0
7,39.82200002670288,immed,20177.99997329712,Thu Apr 03 2025 14:21:45 GMT-0500 (Central Daylight Time),904001.8000000119,A,salt,O,t,144,1,8814.5,895187.3000000119,7113,WL,A,12.0
7,39.9539999961853,immed,20046.000003814697,Thu Apr 03 2025 14:21:45 GMT-0500 (Central Daylight Time),904134.0999999642,A,saltenter,O,enter,106,1,8946.799999952316,895187.3000000119,7113,WL,A,12.0
7,54.5,immed,5500.0,Thu Apr 03 2025 14:21:45 GMT-0500 (Central Daylight Time),918680.3999999762,A,g,O,g,14529,1,14546.0,904134.3999999762,7113,WL,A,13.0
7,54.700000047683716,immed,5299.999952316284,Thu Apr 03 2025 14:21:45 GMT-0500 (Central Daylight Time),918880.5999999642,A,go,O,o,162,1,14746.199999988079,904134.3999999762,7113,WL,A,13.0
7,54.91700005531311,immed,5082.99994468689,Thu Apr 03 2025 14:21:45 GMT-0500 (Central Daylight Time),919097.0,A,gol,O,l,180,1,14962.600000023842,904134.3999999762,7113,WL,A,13.0
7,55.33299994468689,immed,4667.00005531311,Thu Apr 03 2025 14:21:45 GMT-0500 (Central Daylight Time),919513.3999999762,A,gold,O,d,379,1,15379.0,904134.3999999762,7113,WL,A,13.0
7,55.58200001716614,immed,4417.999982833862,Thu Apr 03 2025 14:21:45 GMT-0500 (Central Daylight Time),919762.3999999762,A,goldenter,O,enter,216,1,15628.0,904134.3999999762,7113,WL,A,13.0
7,60.015000104904175,immed,-15.000104904174805,Thu Apr 03 2025 14:21:45 GMT-0500 (Central Daylight Time),924195.0,A,None,O,None,4427,1,4432.300000011921,919762.6999999881,7113,WL,A,14.0
