acc_sum,block,block_c,condition,correct,correct_response,datetime,endtime,flanker,jitter,project,response,response_test_buffer_response,response_test_target_response,response_time,response_time_test_buffer_response,response_time_test_target_response,row_sel,session_number,start_end,starttime,subject_id,target,task,task_vers,time_test_buffer,time_test_buffer_response,time_test_constants,time_test_flanker,time_test_jitter,time_test_logger,time_test_target,time_test_target_response,time_test_variables,trial
1,prac,1,inc,1,m,Mon Apr 07 2025 09:10:42 GMT-0500 (Central Daylight Time),93149.5,elated,900,O,m,,,969,,,6,1,3174.7000000476837,89974.79999995232,7118,napkin,AF,A,,,,,,,,,,1
2,prac,1,con,1,z,Mon Apr 07 2025 09:10:42 GMT-0500 (Central Daylight Time),95731.59999990463,brutal,800,O,z,,,455,,,13,1,2557.7999999523163,93173.79999995232,7118,brutal,AF,A,,,,,,,,,,2
3,prac,1,con,1,m,Mon Apr 07 2025 09:10:42 GMT-0500 (Central Daylight Time),98913.69999992847,jacket,800,O,m,,,1056,,,5,1,3159.100000023842,95754.59999990463,7118,jacket,AF,A,,,,,,,,,,3
4,prac,1,inc,1,z,Mon Apr 07 2025 09:10:42 GMT-0500 (Central Daylight Time),101879.39999997616,film,900,O,z,,,734,,,14,1,2944.5,98934.89999997616,7118,hate,AF,A,,,,,,,,,,4
5,prac,1,inc,1,m,Mon Apr 07 2025 09:10:42 GMT-0500 (Central Daylight Time),104812.0,kind,900,O,m,,,705,,,2,1,2909.5,101902.5,7118,rock,AF,A,,,,,,,,,,5
6,prac,1,inc,1,z,Mon Apr 07 2025 09:10:42 GMT-0500 (Central Daylight Time),107977.59999990463,napkin,1100,O,z,,,732,,,12,1,3142.6999999284744,104834.89999997616,7118,friend,AF,A,,,,,,,,,,6
7,prac,1,con,1,m,Mon Apr 07 2025 09:10:42 GMT-0500 (Central Daylight Time),110792.69999992847,step,800,O,m,,,681,,,1,1,2797.1999999284744,107995.5,7118,step,AF,A,,,,,,,,,,7
8,prac,1,con,1,z,Mon Apr 07 2025 09:10:42 GMT-0500 (Central Daylight Time),113558.89999997616,rage,1000,O,z,,,452,,,15,1,2752.7000000476837,110806.19999992847,7118,rage,AF,A,,,,,,,,,,8
9,prac,1,con,1,m,Mon Apr 07 2025 09:10:42 GMT-0500 (Central Daylight Time),116741.19999992847,bell,1000,O,m,,,854,,,3,1,3159.600000023842,113581.59999990463,7118,bell,AF,A,,,,,,,,,,9
10,prac,1,con,1,z,Mon Apr 07 2025 09:10:42 GMT-0500 (Central Daylight Time),119407.19999992847,love,1000,O,z,,,343,,,11,1,2642.399999976158,116764.79999995232,7118,love,AF,A,,,,,,,,,,10
11,prac,1,inc,1,m,Mon Apr 07 2025 09:10:42 GMT-0500 (Central Daylight Time),122373.0,brutal,1100,O,m,,,545,,,8,1,2946.3000000715256,119426.69999992847,7118,window,AF,A,,,,,,,,,,11
12,prac,1,inc,1,m,Mon Apr 07 2025 09:10:42 GMT-0500 (Central Daylight Time),125455.0,hate,1100,O,m,,,662,,,4,1,3061.5,122393.5,7118,film,AF,A,,,,,,,,,,12
13,prac,1,con,1,z,Mon Apr 07 2025 09:10:42 GMT-0500 (Central Daylight Time),127971.0,elated,800,O,z,,,397,,,9,1,2492.2000000476837,125478.79999995232,7118,elated,AF,A,,,,,,,,,,13
14,prac,1,con,1,m,Mon Apr 07 2025 09:10:42 GMT-0500 (Central Daylight Time),130919.79999995232,remote,1000,O,m,,,625,,,7,1,2926.100000023842,127993.69999992847,7118,remote,AF,A,,,,,,,,,,14
15,prac,1,inc,1,z,Mon Apr 07 2025 09:10:42 GMT-0500 (Central Daylight Time),134235.39999997616,rock,900,O,z,,,1088,,,10,1,3292.3000000715256,130943.09999990463,7118,kind,AF,A,,,,,,,,,,15
16,prac,1,inc,1,z,Mon Apr 07 2025 09:10:42 GMT-0500 (Central Daylight Time),137368.0,window,1100,O,z,,,702,,,16,1,3109.0,134259.0,7118,temper,AF,A,,,,,,,,,,16
1,test,1,inc,1,z,Mon Apr 07 2025 09:10:42 GMT-0500 (Central Daylight Time),149197.19999992847,window,1100,O,z,z,None,730,531.0,199.0,40,1,2362.0,146835.19999992847,7118,brutal,AF,A,145029,145029,143199,144312,143201,145561,144829,144829,145561,1
2,test,1,con,1,m,Mon Apr 07 2025 09:10:42 GMT-0500 (Central Daylight Time),150979.89999997616,rock,800,O,m,m,None,432,233.0,199.0,73,1,1764.6000000238419,149215.29999995232,7118,rock,AF,A,147111,147111,145579,146394,145580,147344,146911,146911,147344,2
3,test,1,inc,1,m,Mon Apr 07 2025 09:10:42 GMT-0500 (Central Daylight Time),152929.29999995232,elated,800,O,m,m,None,584,369.0,215.0,101,1,1929.2000000476837,151000.09999990463,7118,jacket,AF,A,148911,148911,147364,148178,147366,149293,148695,148695,149293,3
3,test,1,inc,0,z,Mon Apr 07 2025 09:10:42 GMT-0500 (Central Daylight Time),154845.19999992847,napkin,900,O,m,m,None,455,240.0,215.0,38,1,1894.8999999761581,152950.29999995232,7118,brutal,AF,A,150960,150960,149314,150227,149316,151209,150744,150744,151209,4
4,test,1,con,1,z,Mon Apr 07 2025 09:10:42 GMT-0500 (Central Daylight Time),156678.0,rage,900,O,z,z,None,382,182.0,200.0,50,1,1810.2000000476837,154867.79999995232,7118,rage,AF,A,152858,152858,151232,152143,151234,153042,152658,152658,153042,5
5,test,1,con,1,m,Mon Apr 07 2025 09:10:42 GMT-0500 (Central Daylight Time),158744.09999990463,window,900,O,m,m,None,610,411.0,199.0,122,1,2043.5,156700.59999990463,7118,window,AF,A,154693,154693,153065,153976,153066,155108,154493,154493,155108,6
6,test,1,con,1,m,Mon Apr 07 2025 09:10:42 GMT-0500 (Central Daylight Time),160826.69999992847,rock,1000,O,m,m,None,527,327.0,200.0,75,1,2060.7999999523163,158765.89999997616,7118,rock,AF,A,156857,156857,155130,156142,155132,157191,156657,156657,157191,7
7,test,1,inc,1,z,Mon Apr 07 2025 09:10:42 GMT-0500 (Central Daylight Time),162909.39999997616,film,1100,O,z,z,None,422,223.0,199.0,48,1,2060.0,160849.39999997616,7118,hate,AF,A,159041,159041,157213,158325,157215,159273,158841,158841,159273,8
8,test,1,con,1,z,Mon Apr 07 2025 09:10:42 GMT-0500 (Central Daylight Time),165042.09999990463,elated,1100,O,z,z,None,467,268.0,199.0,4,1,2110.5,162931.59999990463,7118,elated,AF,A,161123,161124,159296,160407,159298,161406,160924,160924,161406,9
9,test,1,inc,1,z,Mon Apr 07 2025 09:10:42 GMT-0500 (Central Daylight Time),167091.39999997616,rock,900,O,z,z,None,590,375.0,215.0,22,1,2027.1000000238419,165064.29999995232,7118,love,AF,A,163073,163073,161428,162340,161430,163456,162857,162857,163455,10
10,test,1,con,1,z,Mon Apr 07 2025 09:10:42 GMT-0500 (Central Daylight Time),169307.29999995232,temper,1100,O,z,z,None,557,358.0,199.0,60,1,2193.100000023842,167114.19999992847,7118,temper,AF,A,165306,165306,163478,164589,163481,165671,165106,165106,165671,11
11,test,1,inc,1,m,Mon Apr 07 2025 09:10:42 GMT-0500 (Central Daylight Time),171290.0,brutal,900,O,m,m,None,527,327.0,200.0,126,1,1960.1000000238419,169329.89999997616,7118,window,AF,A,167321,167321,165694,166605,165696,167654,167120,167120,167654,12
12,test,1,inc,1,m,Mon Apr 07 2025 09:10:42 GMT-0500 (Central Daylight Time),173289.29999995232,rage,800,O,m,m,None,635,436.0,199.0,69,1,1978.1000000238419,171311.19999992847,7118,step,AF,A,169204,169204,167675,168488,167677,169653,169004,169004,169653,13
13,test,1,inc,1,m,Mon Apr 07 2025 09:10:42 GMT-0500 (Central Daylight Time),175272.09999990463,elated,800,O,m,m,None,627,412.0,215.0,109,1,1960.5999999046326,173311.5,7118,napkin,AF,A,171220,171220,169676,170487,169678,171636,171004,171004,171636,14
14,test,1,inc,1,z,Mon Apr 07 2025 09:10:42 GMT-0500 (Central Daylight Time),177388.09999990463,remote,1000,O,z,z,None,557,358.0,199.0,31,1,2095.0999999046326,175293.0,7118,friend,AF,A,173386,173386,171657,172670,171659,173752,173186,173186,173752,15
15,test,1,inc,1,m,Mon Apr 07 2025 09:10:42 GMT-0500 (Central Daylight Time),179620.59999990463,hate,1100,O,m,m,None,573,374.0,199.0,72,1,2210.399999976158,177410.19999992847,7118,step,AF,A,175602,175602,173774,174886,173776,175985,175402,175402,175985,16
16,test,1,inc,1,m,Mon Apr 07 2025 09:10:42 GMT-0500 (Central Daylight Time),181653.09999990463,kind,900,O,m,m,None,579,364.0,215.0,94,1,2010.2999999523163,179642.79999995232,7118,film,AF,A,177652,177652,176007,176918,176009,178017,177435,177436,178017,17
17,test,1,con,1,m,Mon Apr 07 2025 09:10:42 GMT-0500 (Central Daylight Time),184352.19999992847,bell,1100,O,m,m,None,1043,828.0,215.0,84,1,2679.5,181672.69999992847,7118,bell,AF,A,179884,179884,178037,179151,178038,180716,179668,179668,180716,18
18,test,1,inc,1,z,Mon Apr 07 2025 09:10:42 GMT-0500 (Central Daylight Time),186235.09999990463,jacket,800,O,z,z,None,516,317.0,199.0,61,1,1862.5999999046326,184372.5,7118,temper,AF,A,182267,182267,180737,181550,180737,182599,182067,182067,182599,19
19,test,1,con,1,m,Mon Apr 07 2025 09:10:42 GMT-0500 (Central Daylight Time),188651.09999990463,window,1100,O,m,m,None,757,542.0,215.0,124,1,2392.7999999523163,186258.29999995232,7118,window,AF,A,184466,184466,182622,183733,182624,185015,184250,184250,185015,20
20,test,1,con,1,z,Mon Apr 07 2025 09:10:42 GMT-0500 (Central Daylight Time),190400.29999995232,elated,800,O,z,z,None,385,170.0,215.0,1,1,1726.3999999761581,188673.89999997616,7118,elated,AF,A,186582,186582,185038,185849,185040,186764,186366,186366,186764,21
21,test,1,inc,1,z,Mon Apr 07 2025 09:10:42 GMT-0500 (Central Daylight Time),192599.59999990463,bell,1000,O,z,z,None,644,445.0,199.0,15,1,2172.399999976158,190427.19999992847,7118,kind,AF,A,188515,188515,186791,187798,186794,188964,188315,188315,188964,22
22,test,1,con,1,m,Mon Apr 07 2025 09:10:42 GMT-0500 (Central Daylight Time),194848.0,jacket,1100,O,m,m,None,593,394.0,199.0,100,1,2227.4000000953674,192620.59999990463,7118,jacket,AF,A,190813,190813,188985,190096,188986,191212,190613,190613,191212,23
23,test,1,con,1,m,Mon Apr 07 2025 09:10:42 GMT-0500 (Central Daylight Time),196814.89999997616,step,800,O,m,m,None,620,421.0,199.0,65,1,1960.3999999761581,194854.5,7118,step,AF,A,192746,192747,191219,192030,191219,193179,192547,192547,193179,24
24,test,1,con,1,m,Mon Apr 07 2025 09:10:42 GMT-0500 (Central Daylight Time),198731.0,napkin,900,O,m,m,None,450,251.0,199.0,106,1,1894.6000000238419,196836.39999997616,7118,napkin,AF,A,194829,194829,193200,194113,193202,195095,194629,194629,195095,25
25,test,1,con,1,m,Mon Apr 07 2025 09:10:42 GMT-0500 (Central Daylight Time),200763.79999995232,step,1100,O,m,m,None,365,150.0,215.0,68,1,2012.0,198751.79999995232,7118,step,AF,A,196962,196962,195116,196229,195118,197128,196746,196746,197128,26
26,test,1,inc,1,z,Mon Apr 07 2025 09:10:42 GMT-0500 (Central Daylight Time),203062.79999995232,film,1100,O,z,z,None,637,438.0,199.0,56,1,2280.100000023842,200782.69999992847,7118,rage,AF,A,198978,198978,197147,198262,197148,199427,198778,198778,199427,27
27,test,1,con,1,m,Mon Apr 07 2025 09:10:42 GMT-0500 (Central Daylight Time),204928.89999997616,rock,900,O,m,m,None,409,194.0,215.0,74,1,1845.3000000715256,203083.59999990463,7118,rock,AF,A,201093,201094,199448,200362,199449,201293,200878,200878,201293,28
28,test,1,con,1,m,Mon Apr 07 2025 09:10:42 GMT-0500 (Central Daylight Time),207028.39999997616,napkin,1000,O,m,m,None,539,324.0,215.0,107,1,2077.899999976158,204950.5,7118,napkin,AF,A,203060,203060,201315,202327,201316,203392,202844,202844,203392,29
29,test,1,con,1,m,Mon Apr 07 2025 09:10:42 GMT-0500 (Central Daylight Time),209260.89999997616,rock,1100,O,m,m,None,572,373.0,199.0,76,1,2212.600000023842,207048.29999995232,7118,rock,AF,A,205242,205243,203412,204526,203414,205625,205043,205043,205625,30
30,test,1,con,1,m,Mon Apr 07 2025 09:10:42 GMT-0500 (Central Daylight Time),211309.69999992847,film,1000,O,m,m,None,498,298.0,200.0,91,1,2028.2999999523163,209281.39999997616,7118,film,AF,A,207374,207374,205645,206659,205647,207674,207174,207174,207674,31
31,test,1,inc,1,z,Mon Apr 07 2025 09:10:42 GMT-0500 (Central Daylight Time),213159.39999997616,napkin,900,O,z,z,None,394,179.0,215.0,6,1,1830.0,211329.39999997616,7118,elated,AF,A,209341,209341,207693,208608,207695,209524,209125,209125,209523,32
32,test,1,inc,1,z,Mon Apr 07 2025 09:10:42 GMT-0500 (Central Daylight Time),215292.0,window,1100,O,z,z,None,465,266.0,199.0,8,1,2112.7000000476837,213179.29999995232,7118,elated,AF,A,211373,211374,209543,210658,209545,211656,211174,211174,211656,33
33,test,1,inc,1,z,Mon Apr 07 2025 09:10:42 GMT-0500 (Central Daylight Time),217041.5,jacket,800,O,z,z,None,395,195.0,200.0,37,1,1729.3000000715256,215312.19999992847,7118,brutal,AF,A,213205,213205,211676,212490,211678,213406,213005,213005,213405,34
34,test,1,con,1,z,Mon Apr 07 2025 09:10:42 GMT-0500 (Central Daylight Time),219107.69999992847,elated,1000,O,z,z,None,497,283.0,214.0,3,1,2045.7999999523163,217061.89999997616,7118,elated,AF,A,215173,215173,213426,214440,213428,215472,214957,214957,215472,35
35,test,1,inc,1,m,Mon Apr 07 2025 09:10:42 GMT-0500 (Central Daylight Time),221406.09999990463,friend,1100,O,m,m,None,645,430.0,215.0,128,1,2276.0999999046326,219130.0,7118,window,AF,A,217337,217337,215494,216605,215496,217770,217122,217122,217770,36
36,test,1,inc,1,m,Mon Apr 07 2025 09:10:42 GMT-0500 (Central Daylight Time),223523.0,love,1000,O,m,m,None,566,367.0,199.0,95,1,2111.600000023842,221411.39999997616,7118,film,AF,A,219505,219505,217775,218788,217776,219887,219304,219305,219887,37
37,test,1,con,1,z,Mon Apr 07 2025 09:10:42 GMT-0500 (Central Daylight Time),225505.5,kind,1000,O,z,z,None,418,219.0,199.0,11,1,1962.3000000715256,223543.19999992847,7118,kind,AF,A,221637,221637,219907,220921,219909,221870,221437,221437,221869,38
38,test,1,con,1,m,Mon Apr 07 2025 09:10:42 GMT-0500 (Central Daylight Time),227321.5,film,900,O,m,m,None,360,161.0,199.0,90,1,1795.2000000476837,225526.29999995232,7118,film,AF,A,223519,223519,221890,222803,221892,223686,223320,223320,223685,39
39,test,1,inc,1,m,Mon Apr 07 2025 09:10:42 GMT-0500 (Central Daylight Time),229336.69999992847,love,1000,O,m,m,None,450,251.0,199.0,87,1,1990.5,227346.19999992847,7118,bell,AF,A,225436,225436,223710,224719,223713,225701,225236,225236,225701,40
40,test,1,inc,1,m,Mon Apr 07 2025 09:10:42 GMT-0500 (Central Daylight Time),231486.29999995232,love,1000,O,m,m,None,613,413.0,200.0,71,1,2144.2000000476837,229342.09999990463,7118,step,AF,A,227434,227434,225706,226719,225707,227850,227234,227234,227850,41
41,test,1,inc,1,m,Mon Apr 07 2025 09:10:42 GMT-0500 (Central Daylight Time),233336.19999992847,rage,800,O,m,m,None,502,303.0,199.0,85,1,1836.3999999761581,231499.79999995232,7118,bell,AF,A,229385,229385,227864,228668,227865,229700,229185,229185,229700,42
42,test,1,con,1,z,Mon Apr 07 2025 09:10:42 GMT-0500 (Central Daylight Time),235302.0,brutal,1000,O,z,z,None,415,215.0,200.0,35,1,1945.1000000238419,233356.89999997616,7118,brutal,AF,A,231449,231449,229721,230734,229722,231666,231249,231249,231666,43
43,test,1,inc,1,m,Mon Apr 07 2025 09:10:42 GMT-0500 (Central Daylight Time),237201.39999997616,brutal,900,O,m,m,None,443,244.0,199.0,102,1,1878.6000000238419,235322.79999995232,7118,jacket,AF,A,233316,233316,231687,232600,231689,233565,233117,233117,233565,44
44,test,1,inc,1,z,Mon Apr 07 2025 09:10:42 GMT-0500 (Central Daylight Time),239567.5,window,1100,O,z,z,None,719,504.0,215.0,32,1,2352.7000000476837,237214.79999995232,7118,friend,AF,A,235416,235416,233579,234683,233580,235932,235200,235200,235931,45
45,test,1,con,1,m,Mon Apr 07 2025 09:10:42 GMT-0500 (Central Daylight Time),241382.89999997616,remote,800,O,m,m,None,454,254.0,200.0,113,1,1794.0,239588.89999997616,7118,remote,AF,A,237481,237481,235953,236764,235955,237747,237281,237281,237747,46
46,test,1,con,1,m,Mon Apr 07 2025 09:10:42 GMT-0500 (Central Daylight Time),243083.19999992847,bell,800,O,m,m,None,357,142.0,215.0,81,1,1694.1999999284744,241389.0,7118,bell,AF,A,239298,239298,237753,238565,237754,239447,239081,239082,239447,47
46,test,1,inc,0,z,Mon Apr 07 2025 09:10:42 GMT-0500 (Central Daylight Time),245049.0,step,800,O,m,m,None,602,403.0,199.0,45,1,1945.6000000238419,243103.39999997616,7118,hate,AF,A,240997,240997,239467,240281,239469,241413,240797,240797,241413,48
47,test,1,con,1,z,Mon Apr 07 2025 09:10:42 GMT-0500 (Central Daylight Time),247331.5,friend,1000,O,z,z,None,715,500.0,215.0,27,1,2262.4000000953674,245069.09999990463,7118,friend,AF,A,243180,243180,241433,242447,241435,243696,242964,242964,243696,49
48,test,1,con,1,m,Mon Apr 07 2025 09:10:42 GMT-0500 (Central Daylight Time),249514.09999990463,napkin,1100,O,m,m,None,517,318.0,199.0,108,1,2160.399999976158,247353.69999992847,7118,napkin,AF,A,245546,245546,243718,244829,243719,245878,245346,245346,245878,50
49,test,1,con,1,m,Mon Apr 07 2025 09:10:42 GMT-0500 (Central Daylight Time),251980.09999990463,film,1100,O,m,m,None,806,591.0,215.0,92,1,2446.6999999284744,249533.39999997616,7118,film,AF,A,247745,247745,245897,247012,245898,248344,247529,247529,248344,51
50,test,1,con,1,m,Mon Apr 07 2025 09:10:42 GMT-0500 (Central Daylight Time),253962.69999992847,jacket,1000,O,m,m,None,425,226.0,199.0,99,1,1963.1999999284744,251999.5,7118,jacket,AF,A,250094,250094,248364,249378,248365,250327,249894,249894,250327,52
51,test,1,con,1,z,Mon Apr 07 2025 09:10:42 GMT-0500 (Central Daylight Time),255678.19999992847,friend,800,O,z,z,None,353,154.0,199.0,25,1,1695.6999999284744,253982.5,7118,friend,AF,A,251877,251877,250347,251161,250348,252042,251677,251677,252042,53
52,test,1,con,1,m,Mon Apr 07 2025 09:10:42 GMT-0500 (Central Daylight Time),257628.29999995232,step,900,O,m,m,None,507,308.0,199.0,66,1,1942.2999999523163,255686.0,7118,step,AF,A,253676,253676,252050,252960,252051,253992,253477,253477,253992,54
53,test,1,inc,1,z,Mon Apr 07 2025 09:10:42 GMT-0500 (Central Daylight Time),259777.69999992847,remote,1000,O,z,z,None,585,386.0,199.0,39,1,2129.100000023842,257648.59999990463,7118,brutal,AF,A,255742,255742,254013,255026,254014,256142,255543,255543,256142,55
54,test,1,inc,1,z,Mon Apr 07 2025 09:10:42 GMT-0500 (Central Daylight Time),262010.19999992847,window,1100,O,z,z,None,576,361.0,215.0,64,1,2212.6999999284744,259797.5,7118,temper,AF,A,258007,258007,256161,257275,256163,258374,257792,257792,258374,56
55,test,1,con,1,m,Mon Apr 07 2025 09:10:42 GMT-0500 (Central Daylight Time),263809.59999990463,film,800,O,m,m,None,434,219.0,215.0,89,1,1778.0,262031.59999990463,7118,film,AF,A,259941,259941,258396,259208,258397,260174,259725,259725,260174,57
56,test,1,con,1,m,Mon Apr 07 2025 09:10:42 GMT-0500 (Central Daylight Time),265775.6999999285,bell,1000,O,m,m,None,403,204.0,199.0,83,1,1945.7999999523163,263829.89999997616,7118,bell,AF,A,261924,261924,260194,261208,260196,262140,261724,261724,262140,58
57,test,1,inc,1,z,Mon Apr 07 2025 09:10:42 GMT-0500 (Central Daylight Time),267708.2999999523,step,800,O,z,z,None,572,357.0,215.0,13,1,1912.2999999523163,265796.0,7118,kind,AF,A,263706,263706,262160,262974,262162,264072,263491,263491,264072,59
58,test,1,con,1,z,Mon Apr 07 2025 09:10:42 GMT-0500 (Central Daylight Time),269790.89999997616,kind,900,O,z,z,None,645,446.0,199.0,10,1,2074.8000000715256,267716.09999990463,7118,kind,AF,A,265706,265706,264080,264990,264081,266155,265506,265506,266155,60
59,test,1,con,1,z,Mon Apr 07 2025 09:10:42 GMT-0500 (Central Daylight Time),271773.0,love,900,O,z,z,None,520,305.0,215.0,18,1,1961.6000000238419,269811.39999997616,7118,love,AF,A,267822,267822,266175,267089,266176,268137,267605,267606,268137,61
60,test,1,con,1,z,Mon Apr 07 2025 09:10:42 GMT-0500 (Central Daylight Time),273739.59999990463,love,1000,O,z,z,None,425,226.0,199.0,19,1,1961.3999999761581,271778.1999999285,7118,love,AF,A,269870,269870,268142,269155,268143,270104,269671,269671,270104,62
61,test,1,inc,1,m,Mon Apr 07 2025 09:10:42 GMT-0500 (Central Daylight Time),275905.59999990463,brutal,900,O,m,m,None,717,502.0,215.0,118,1,2153.899999976158,273751.6999999285,7118,remote,AF,A,271754,271754,270116,271021,270117,272270,271538,271538,272270,63
62,test,1,inc,1,z,Mon Apr 07 2025 09:10:42 GMT-0500 (Central Daylight Time),277838.39999997616,rock,900,O,z,z,None,471,272.0,199.0,54,1,1912.0,275926.39999997616,7118,rage,AF,A,273920,273920,272290,273203,272292,274202,273720,273720,274202,64
63,test,1,con,1,z,Mon Apr 07 2025 09:10:42 GMT-0500 (Central Daylight Time),280087.5,friend,900,O,z,z,None,794,579.0,215.0,26,1,2227.8000000715256,277859.6999999285,7118,friend,AF,A,275869,275869,274224,275136,274225,276452,275653,275653,276451,65
64,test,1,con,1,m,Mon Apr 07 2025 09:10:42 GMT-0500 (Central Daylight Time),282437.2999999523,window,1000,O,m,m,None,798,599.0,199.0,123,1,2328.5,280108.7999999523,7118,window,AF,A,278202,278202,276473,277485,276474,278801,278002,278002,278801,66
65,test,1,inc,1,z,Mon Apr 07 2025 09:10:42 GMT-0500 (Central Daylight Time),284552.59999990463,bell,1000,O,z,z,None,560,361.0,199.0,23,1,2094.399999976158,282458.1999999285,7118,love,AF,A,280551,280551,278822,279835,278824,280917,280351,280351,280917,67
66,test,1,con,1,z,Mon Apr 07 2025 09:10:42 GMT-0500 (Central Daylight Time),286502.0,brutal,900,O,z,z,None,495,280.0,215.0,34,1,1930.0,284572.0,7118,brutal,AF,A,282584,282584,280936,281850,280937,282866,282368,282368,282866,68
67,test,1,inc,1,m,Mon Apr 07 2025 09:10:42 GMT-0500 (Central Daylight Time),288468.0,kind,900,O,m,m,None,498,283.0,215.0,78,1,1946.3000000715256,286521.6999999285,7118,rock,AF,A,284533,284533,282886,283800,282887,284832,284317,284317,284832,69
68,test,1,inc,1,z,Mon Apr 07 2025 09:10:42 GMT-0500 (Central Daylight Time),290584.09999990463,remote,1000,O,z,z,None,552,337.0,215.0,7,1,2094.6999999284744,288489.39999997616,7118,elated,AF,A,286599,286599,284853,285866,284855,286948,286383,286383,286948,70
69,test,1,con,1,z,Mon Apr 07 2025 09:10:42 GMT-0500 (Central Daylight Time),292700.5,love,1100,O,z,z,None,464,249.0,215.0,20,1,2095.600000023842,290604.89999997616,7118,love,AF,A,288815,288815,286969,288082,286970,289065,288599,288599,289064,71
70,test,1,con,1,z,Mon Apr 07 2025 09:10:42 GMT-0500 (Central Daylight Time),294782.6999999285,friend,1100,O,z,z,None,428,213.0,215.0,28,1,2062.7999999523163,292719.89999997616,7118,friend,AF,A,290931,290931,289084,290198,289086,291147,290714,290715,291147,72
71,test,1,con,1,m,Mon Apr 07 2025 09:10:42 GMT-0500 (Central Daylight Time),296965.5,remote,1100,O,m,m,None,531,332.0,199.0,116,1,2163.5,294802.0,7118,remote,AF,A,292997,292997,291166,292281,291167,293330,292797,292797,293330,73
72,test,1,inc,1,z,Mon Apr 07 2025 09:10:42 GMT-0500 (Central Daylight Time),299214.6999999285,film,1100,O,z,z,None,587,372.0,215.0,24,1,2229.0,296985.6999999285,7118,love,AF,A,295196,295196,293350,294463,293351,295579,294980,294980,295579,74
73,test,1,con,1,m,Mon Apr 07 2025 09:10:42 GMT-0500 (Central Daylight Time),301263.7999999523,remote,1000,O,m,m,None,510,295.0,215.0,115,1,2028.0,299235.7999999523,7118,remote,AF,A,297329,297329,295600,296611,295601,297628,297113,297113,297628,75
74,test,1,inc,1,z,Mon Apr 07 2025 09:10:42 GMT-0500 (Central Daylight Time),303229.89999997616,jacket,800,O,z,z,None,605,406.0,199.0,29,1,1947.3999999761581,301282.5,7118,friend,AF,A,299178,299178,297647,298462,297647,299594,298978,298978,299594,76
75,test,1,inc,1,z,Mon Apr 07 2025 09:10:42 GMT-0500 (Central Daylight Time),305229.0,step,800,O,z,z,None,646,431.0,215.0,53,1,1979.6000000238419,303249.39999997616,7118,rage,AF,A,301161,301161,299613,300428,299615,301593,300944,300945,301593,77
76,test,1,inc,1,m,Mon Apr 07 2025 09:10:42 GMT-0500 (Central Daylight Time),307428.6999999285,kind,900,O,m,m,None,733,534.0,199.0,86,1,2179.0,305249.6999999285,7118,bell,AF,A,303243,303243,301614,302527,301615,303793,303044,303044,303793,78
77,test,1,inc,1,m,Mon Apr 07 2025 09:10:42 GMT-0500 (Central Daylight Time),309744.5,friend,1100,O,m,m,None,652,453.0,199.0,112,1,2296.0,307448.5,7118,napkin,AF,A,305643,305643,303813,304926,303814,306109,305443,305443,306108,79
78,test,1,con,1,z,Mon Apr 07 2025 09:10:42 GMT-0500 (Central Daylight Time),311760.5,love,800,O,z,z,None,661,462.0,199.0,17,1,1996.0,309764.5,7118,love,AF,A,307658,307658,306129,306942,306130,308125,307459,307459,308125,80
79,test,1,inc,1,z,Mon Apr 07 2025 09:10:42 GMT-0500 (Central Daylight Time),314126.0,film,1100,O,z,z,None,706,506.0,200.0,16,1,2344.9000000953674,311781.09999990463,7118,kind,AF,A,309973,309973,308145,309257,308146,310490,309773,309773,310490,81
80,test,1,inc,1,z,Mon Apr 07 2025 09:10:42 GMT-0500 (Central Daylight Time),316159.0,napkin,900,O,z,z,None,595,396.0,199.0,62,1,2021.3000000715256,314137.6999999285,7118,temper,AF,A,312124,312124,310502,311406,310503,312523,311924,311924,312523,82
81,test,1,con,1,z,Mon Apr 07 2025 09:10:42 GMT-0500 (Central Daylight Time),318158.1999999285,rage,800,O,z,z,None,647,432.0,215.0,49,1,1979.7999999523163,316178.39999997616,7118,rage,AF,A,314089,314089,312542,313357,312544,314522,313874,313874,314522,83
82,test,1,inc,1,z,Mon Apr 07 2025 09:10:42 GMT-0500 (Central Daylight Time),320074.59999990463,step,800,O,z,z,None,550,351.0,199.0,21,1,1896.5999999046326,318178.0,7118,love,AF,A,316073,316073,314542,315356,314544,316439,315873,315873,316439,84
83,test,1,inc,1,z,Mon Apr 07 2025 09:10:42 GMT-0500 (Central Daylight Time),322207.09999990463,bell,1000,O,z,z,None,579,380.0,199.0,47,1,2113.899999976158,320093.1999999285,7118,hate,AF,A,318188,318188,316457,317472,316458,318571,317989,317989,318571,85
84,test,1,con,1,m,Mon Apr 07 2025 09:10:42 GMT-0500 (Central Daylight Time),323939.89999997616,jacket,800,O,m,m,None,373,157.0,216.0,97,1,1715.1000000238419,322224.7999999523,7118,jacket,AF,A,320139,320139,318589,319405,318590,320304,319921,319922,320304,86
84,test,1,con,0,m,Mon Apr 07 2025 09:10:42 GMT-0500 (Central Daylight Time),326105.7999999523,step,1000,O,z,z,None,609,410.0,199.0,67,1,2145.5,323960.2999999523,7118,step,AF,A,322054,322054,320324,321337,320326,322470,321854,321854,322470,87
85,test,1,inc,1,m,Mon Apr 07 2025 09:10:42 GMT-0500 (Central Daylight Time),328321.5,hate,1100,O,m,m,None,560,361.0,199.0,80,1,2197.8000000715256,326123.6999999285,7118,rock,AF,A,324320,324320,322488,323604,322489,324686,324120,324120,324686,88
86,test,1,inc,1,m,Mon Apr 07 2025 09:10:42 GMT-0500 (Central Daylight Time),330487.7999999523,temper,1000,O,m,m,None,602,386.0,216.0,127,1,2145.600000023842,328342.1999999285,7118,window,AF,A,326454,326454,324706,325720,324707,326852,326237,326237,326852,89
87,test,1,con,1,z,Mon Apr 07 2025 09:10:42 GMT-0500 (Central Daylight Time),332803.2999999523,hate,1100,O,z,z,None,649,450.0,199.0,44,1,2293.600000023842,330509.6999999285,7118,hate,AF,A,328702,328702,326874,327985,326876,329167,328502,328502,329167,90
88,test,1,con,1,z,Mon Apr 07 2025 09:10:42 GMT-0500 (Central Daylight Time),334802.89999997616,rage,1000,O,z,z,None,458,259.0,199.0,51,1,1986.2000000476837,332816.6999999285,7118,rage,AF,A,330901,330901,329181,330185,329182,331167,330701,330701,331167,91
89,test,1,con,1,z,Mon Apr 07 2025 09:10:42 GMT-0500 (Central Daylight Time),336935.59999990463,temper,1000,O,z,z,None,569,354.0,215.0,59,1,2113.1999999284744,334822.39999997616,7118,temper,AF,A,332934,332934,331186,332202,331187,333300,332718,332718,333300,92
90,test,1,con,1,z,Mon Apr 07 2025 09:10:42 GMT-0500 (Central Daylight Time),338934.89999997616,kind,800,O,z,z,None,639,439.0,200.0,9,1,1978.0,336956.89999997616,7118,kind,AF,A,334849,334849,333321,334134,333322,335299,334649,334649,335299,93
91,test,1,con,1,m,Mon Apr 07 2025 09:10:42 GMT-0500 (Central Daylight Time),340784.2999999523,jacket,900,O,m,m,None,385,170.0,215.0,98,1,1829.1000000238419,338955.1999999285,7118,jacket,AF,A,336965,336966,335319,336233,335321,337148,336749,336750,337148,94
92,test,1,inc,1,m,Mon Apr 07 2025 09:10:42 GMT-0500 (Central Daylight Time),342816.7999999523,kind,900,O,m,m,None,568,369.0,199.0,70,1,2013.1000000238419,340803.6999999285,7118,step,AF,A,338798,338799,337168,338082,337169,339181,338599,338599,339181,95
93,test,1,con,1,z,Mon Apr 07 2025 09:10:42 GMT-0500 (Central Daylight Time),345066.1999999285,brutal,800,O,z,z,None,884,685.0,199.0,33,1,2229.399999976158,342836.7999999523,7118,brutal,AF,A,340731,340731,339201,340015,339202,341430,340531,340531,341430,96
94,test,1,con,1,z,Mon Apr 07 2025 09:10:42 GMT-0500 (Central Daylight Time),347015.39999997616,hate,1000,O,z,z,None,395,196.0,199.0,43,1,1929.0,345086.39999997616,7118,hate,AF,A,343180,343180,341450,342464,341452,343380,342981,342981,343379,97
95,test,1,inc,1,z,Mon Apr 07 2025 09:10:42 GMT-0500 (Central Daylight Time),349164.09999990463,bell,1000,O,z,z,None,589,390.0,199.0,55,1,2130.5,347033.59999990463,7118,rage,AF,A,345129,345129,343398,344413,343398,345528,344929,344929,345528,98
96,test,1,inc,1,z,Mon Apr 07 2025 09:10:42 GMT-0500 (Central Daylight Time),351165.0,jacket,800,O,z,z,None,663,448.0,215.0,5,1,1993.6000000238419,349171.39999997616,7118,elated,AF,A,347080,347080,345535,346347,345536,347529,346863,346863,347529,99
97,test,1,con,1,z,Mon Apr 07 2025 09:10:42 GMT-0500 (Central Daylight Time),353030.2999999523,hate,800,O,z,z,None,513,298.0,215.0,41,1,1844.7000000476837,351185.59999990463,7118,hate,AF,A,349094,349094,347550,348362,347552,349394,348879,348879,349394,100
98,test,1,inc,1,m,Mon Apr 07 2025 09:10:42 GMT-0500 (Central Daylight Time),355195.5,love,1000,O,m,m,None,608,407.0,201.0,79,1,2144.9000000953674,353050.59999990463,7118,rock,AF,A,351144,351144,349415,350428,349416,351560,350943,350943,351559,101
99,test,1,inc,1,m,Mon Apr 07 2025 09:10:42 GMT-0500 (Central Daylight Time),357478.0,friend,1100,O,m,m,None,637,437.0,200.0,120,1,2277.2000000476837,355200.7999999523,7118,remote,AF,A,353394,353394,351565,352676,351565,353842,353193,353193,353842,102
100,test,1,inc,1,z,Mon Apr 07 2025 09:10:42 GMT-0500 (Central Daylight Time),359444.89999997616,napkin,900,O,z,z,None,517,317.0,200.0,30,1,1960.2000000476837,357484.6999999285,7118,friend,AF,A,355476,355476,353849,354759,353849,355809,355276,355276,355809,103
101,test,1,con,1,z,Mon Apr 07 2025 09:10:42 GMT-0500 (Central Daylight Time),361444.09999990463,elated,900,O,z,z,None,531,316.0,215.0,2,1,1979.6999999284744,359464.39999997616,7118,elated,AF,A,357476,357476,355828,356743,355830,357808,357260,357260,357808,104
102,test,1,inc,1,m,Mon Apr 07 2025 09:10:42 GMT-0500 (Central Daylight Time),363576.2999999523,temper,1000,O,m,m,None,575,360.0,215.0,103,1,2113.7999999523163,361462.5,7118,jacket,AF,A,359575,359575,357827,358842,357827,359940,359359,359359,359940,105
103,test,1,inc,1,m,Mon Apr 07 2025 09:10:42 GMT-0500 (Central Daylight Time),365443.2999999523,elated,800,O,m,m,None,516,317.0,199.0,125,1,1858.7000000476837,363584.59999990463,7118,window,AF,A,361475,361475,359949,360758,359949,361807,361275,361275,361807,106
104,test,1,inc,1,m,Mon Apr 07 2025 09:10:42 GMT-0500 (Central Daylight Time),367658.89999997616,friend,1100,O,m,m,None,550,351.0,199.0,104,1,2193.600000023842,365465.2999999523,7118,jacket,AF,A,363657,363657,361829,362941,361831,364023,363457,363457,364023,107
105,test,1,inc,1,m,Mon Apr 07 2025 09:10:42 GMT-0500 (Central Daylight Time),369608.1999999285,rage,800,O,m,m,None,595,396.0,199.0,93,1,1929.5,367678.6999999285,7118,film,AF,A,365573,365573,364043,364857,364044,365972,365373,365373,365972,108
106,test,1,inc,1,m,Mon Apr 07 2025 09:10:42 GMT-0500 (Central Daylight Time),371724.1999999285,temper,1000,O,m,m,None,556,341.0,215.0,111,1,2095.6999999284744,369628.5,7118,napkin,AF,A,367739,367739,365993,367005,365994,368088,367523,367523,368088,109
107,test,1,con,1,m,Mon Apr 07 2025 09:10:42 GMT-0500 (Central Daylight Time),373773.5,napkin,800,O,m,m,None,688,473.0,215.0,105,1,2028.4000000953674,371745.09999990463,7118,napkin,AF,A,369655,369655,368109,368922,368111,370138,369438,369439,370137,110
108,test,1,con,1,m,Mon Apr 07 2025 09:10:42 GMT-0500 (Central Daylight Time),375639.5,bell,900,O,m,m,None,403,204.0,199.0,82,1,1846.4000000953674,373793.09999990463,7118,bell,AF,A,371788,371788,370157,371071,370158,372004,371588,371588,372004,111
109,test,1,con,1,z,Mon Apr 07 2025 09:10:42 GMT-0500 (Central Daylight Time),377738.89999997616,kind,1100,O,z,z,None,441,242.0,199.0,12,1,2079.3000000715256,375659.59999990463,7118,kind,AF,A,373854,373854,372024,373137,372025,374103,373654,373654,374103,112
109,test,1,inc,0,m,Mon Apr 07 2025 09:10:42 GMT-0500 (Central Daylight Time),379571.5,rage,800,O,z,z,None,467,267.0,200.0,77,1,1813.4000000953674,377758.09999990463,7118,rock,AF,A,375653,375653,374122,374937,374124,375936,375453,375453,375935,113
110,test,1,inc,1,z,Mon Apr 07 2025 09:10:42 GMT-0500 (Central Daylight Time),382287.39999997616,remote,1000,O,z,z,None,1161,962.0,199.0,63,1,2695.2000000476837,379592.1999999285,7118,temper,AF,A,377686,377686,375956,376970,375958,378651,377486,377486,378651,114
111,test,1,inc,1,m,Mon Apr 07 2025 09:10:42 GMT-0500 (Central Daylight Time),384453.5,hate,1100,O,m,m,None,515,316.0,199.0,88,1,2145.9000000953674,382307.59999990463,7118,bell,AF,A,380501,380501,378672,379785,378673,380818,380302,380302,380818,115
112,test,1,inc,1,z,Mon Apr 07 2025 09:10:42 GMT-0500 (Central Daylight Time),386602.6999999285,rock,900,O,z,z,None,683,484.0,199.0,46,1,2130.1999999284744,384472.5,7118,hate,AF,A,382468,382468,380837,381751,380837,382967,382268,382268,382967,116
113,test,1,con,1,z,Mon Apr 07 2025 09:10:42 GMT-0500 (Central Daylight Time),388968.2999999523,rage,1100,O,z,z,None,710,511.0,199.0,52,1,2344.600000023842,386623.6999999285,7118,rage,AF,A,384817,384817,382988,384100,382989,385332,384617,384617,385332,117
114,test,1,inc,1,m,Mon Apr 07 2025 09:10:42 GMT-0500 (Central Daylight Time),391034.5,temper,1000,O,m,m,None,509,310.0,199.0,119,1,2045.6000000238419,388988.89999997616,7118,remote,AF,A,387082,387082,385353,386366,385354,387399,386883,386883,387399,118
115,test,1,inc,1,m,Mon Apr 07 2025 09:10:42 GMT-0500 (Central Daylight Time),393133.89999997616,elated,800,O,m,m,None,739,540.0,199.0,117,1,2080.0,391053.89999997616,7118,remote,AF,A,388948,388948,387418,388233,387419,389498,388749,388749,389498,119
116,test,1,con,1,z,Mon Apr 07 2025 09:10:42 GMT-0500 (Central Daylight Time),394949.59999990463,temper,800,O,z,z,None,463,264.0,199.0,57,1,1794.1999999284744,393155.39999997616,7118,temper,AF,A,391048,391048,389519,390331,389521,391314,390848,390848,391314,120
117,test,1,con,1,m,Mon Apr 07 2025 09:10:42 GMT-0500 (Central Daylight Time),397082.5,window,800,O,m,m,None,775,576.0,199.0,121,1,2113.5,394969.0,7118,window,AF,A,392864,392864,391333,392148,391334,393447,392664,392664,393447,121
118,test,1,con,1,z,Mon Apr 07 2025 09:10:42 GMT-0500 (Central Daylight Time),399065.2999999523,temper,900,O,z,z,None,526,327.0,199.0,58,1,1963.5,397101.7999999523,7118,temper,AF,A,395096,395097,393466,394381,393467,395429,394897,394897,395429,122
118,test,1,con,0,m,Mon Apr 07 2025 09:10:42 GMT-0500 (Central Daylight Time),401214.5,remote,900,O,z,z,None,689,490.0,199.0,114,1,2131.4000000953674,399083.09999990463,7118,remote,AF,A,397079,397079,395447,396363,395448,397579,396880,396880,397579,123
119,test,1,inc,1,z,Mon Apr 07 2025 09:10:42 GMT-0500 (Central Daylight Time),403380.39999997616,rock,900,O,z,z,None,706,507.0,199.0,14,1,2146.399999976158,401234.0,7118,kind,AF,A,399228,399229,397598,398512,397599,399745,399029,399029,399744,124
120,test,1,con,1,z,Mon Apr 07 2025 09:10:42 GMT-0500 (Central Daylight Time),405413.1999999285,hate,900,O,z,z,None,572,373.0,199.0,42,1,2012.1000000238419,403401.09999990463,7118,hate,AF,A,401395,401395,399765,400679,399766,401777,401195,401195,401777,125
121,test,1,inc,1,m,Mon Apr 07 2025 09:10:42 GMT-0500 (Central Daylight Time),407429.5,brutal,900,O,m,m,None,564,349.0,215.0,110,1,1996.5,405433.0,7118,napkin,AF,A,403444,403444,401797,402711,401799,403794,403228,403228,403793,126
122,test,1,inc,1,m,Mon Apr 07 2025 09:10:42 GMT-0500 (Central Daylight Time),409895.0,hate,1100,O,m,m,None,804,605.0,199.0,96,1,2445.7000000476837,407449.2999999523,7118,film,AF,A,405643,405643,403813,404927,403815,406259,405443,405443,406259,127
123,test,1,con,1,z,Mon Apr 07 2025 09:10:42 GMT-0500 (Central Daylight Time),412194.1999999285,brutal,1100,O,z,z,None,643,444.0,199.0,36,1,2279.100000023842,409915.09999990463,7118,brutal,AF,A,408109,408109,406279,407393,406281,408558,407909,407909,408558,128
