acc_sum,block_c,block_dur,condition,correct,correct_response,countdown,datetime,endtime,project,response,response_time,response_time_test1_response,response_time_test2_response,row_sel,same,session_number,start_end,starttime,stim1,stim2,subject_id,task,task_vers,time_test1,time_test2,trial
1,1,0.0,prac,1,m,30000.0,Tue Apr 08 2025 10:39:20 GMT-0500 (Central Daylight Time),37641.40000000596,I,m,1734,,,1,no,2,3278.0,34363.40000000596,RNV,FNV,8020,LC,A,,,1
2,1,0.0,prac,1,z,30000.0,Tue Apr 08 2025 10:39:20 GMT-0500 (Central Daylight Time),45155.90000000596,I,z,5945,,,6,yes,2,7507.79999999702,37648.10000000894,CSDBFPHXZ,CSDBFPHXZ,8020,LC,A,,,2
3,1,0.0,prac,1,z,30000.0,Tue Apr 08 2025 10:39:20 GMT-0500 (Central Daylight Time),48621.30000001192,I,z,1928,,,4,yes,2,3461.4000000059605,45159.90000000596,RSM,RSM,8020,LC,A,,,3
4,1,0.0,prac,1,z,30000.0,Tue Apr 08 2025 10:39:20 GMT-0500 (Central Daylight Time),53103.30000001192,I,z,2927,,,2,yes,2,4477.5,48625.80000001192,NBGFSM,NBGFSM,8020,LC,A,,,4
5,1,0.0,prac,1,m,30000.0,Tue Apr 08 2025 10:39:20 GMT-0500 (Central Daylight Time),57984.90000000596,I,m,3325,,,5,no,2,4877.29999999702,53107.60000000894,LNDPRSKQB,LNDPRSJQB,8020,LC,A,,,5
6,1,0.0,prac,1,m,30000.0,Tue Apr 08 2025 10:39:20 GMT-0500 (Central Daylight Time),62167.10000000894,I,m,2636,,,3,no,2,4177.9000000059605,57989.20000000298,QHZXPC,QHZWPC,8020,LC,A,,,6
1,1,1.9830000400543213,test,1,m,28016.99995994568,Tue Apr 08 2025 10:39:20 GMT-0500 (Central Daylight Time),73847.0,I,m,1951,1951,,1,no,2,1980.0,71867.0,HCF,RCF,8020,LC,A,68584,,1
2,1,5.014999866485596,test,1,m,24985.000133514404,Tue Apr 08 2025 10:39:20 GMT-0500 (Central Daylight Time),76879.30000001192,I,m,2999,2999,,2,no,2,3028.800000011921,73850.5,QTPRJX,QTPNJX,8020,LC,A,70568,,2
3,1,9.19700002670288,test,1,m,20802.99997329712,Tue Apr 08 2025 10:39:20 GMT-0500 (Central Daylight Time),81061.40000000596,I,m,4158,4158,,3,no,2,4178.9000000059605,76882.5,MZDYGVGKQ,MZDYGLBKQ,8020,LC,A,73600,,3
4,1,10.54699993133545,test,1,m,19453.00006866455,Tue Apr 08 2025 10:39:20 GMT-0500 (Central Daylight Time),82410.80000001192,I,m,1312,1312,,4,no,2,1346.1000000089407,81064.70000000298,FQTNMK,JQTNMK,8020,LC,A,77783,,4
5,1,11.94599986076355,test,1,z,18054.00013923645,Tue Apr 08 2025 10:39:20 GMT-0500 (Central Daylight Time),83810.20000000298,I,z,1395,1395,,5,yes,2,1396.0999999940395,82414.10000000894,CLJ,CLJ,8020,LC,A,79132,,5
6,1,14.046000003814697,test,1,m,15953.999996185303,Tue Apr 08 2025 10:39:20 GMT-0500 (Central Daylight Time),85909.80000001192,I,m,2092,2092,,6,no,2,2096.5,83813.30000001192,JGDMNSVPW,JGZMNSVPW,8020,LC,A,80531,,6
7,1,18.310999870300293,test,1,z,11689.000129699707,Tue Apr 08 2025 10:39:20 GMT-0500 (Central Daylight Time),90175.0,I,z,4232,4232,,7,yes,2,4261.699999988079,85913.30000001192,FPTVHKCBJ,FPTVHKCBJ,8020,LC,A,82631,,7
8,1,19.793999910354614,test,1,m,10206.000089645386,Tue Apr 08 2025 10:39:20 GMT-0500 (Central Daylight Time),91657.90000000596,I,m,1455,1455,,8,no,2,1479.7999999970198,90178.10000000894,XRPZBS,ZRPBDH,8020,LC,A,86896,,8
9,1,21.460000038146973,test,1,m,8539.999961853027,Tue Apr 08 2025 10:39:20 GMT-0500 (Central Daylight Time),93324.10000000894,I,m,1637,1637,,9,no,2,1663.1000000089407,91661.0,ZSQ,ZSP,8020,LC,A,88378,,9
10,1,24.22599983215332,test,1,z,5774.00016784668,Tue Apr 08 2025 10:39:20 GMT-0500 (Central Daylight Time),96090.0,I,z,2762,2762,,10,yes,2,2762.5999999940395,93327.40000000596,MPZRXL,MPZRXL,8020,LC,A,90045,,10
11,1,26.358999967575073,test,1,m,3641.0000324249268,Tue Apr 08 2025 10:39:20 GMT-0500 (Central Daylight Time),98222.80000001192,I,m,2100,2100,,11,no,2,2129.6000000089407,96093.20000000298,KJH,KRH,8020,LC,A,92811,,11
11,1,30.006999969482422,test,0,z,-6.999969482421875,Tue Apr 08 2025 10:39:20 GMT-0500 (Central Daylight Time),101871.40000000596,I,None,3645,3645,,12,yes,2,3645.5,98225.90000000596,SMNHVTFCB,SMNHVTFCB,8020,LC,A,94943,,12
1,2,4.398000001907349,test,1,z,25601.99999809265,Tue Apr 08 2025 10:39:20 GMT-0500 (Central Daylight Time),107686.30000001192,I,z,4367,,4367.0,1,yes,2,9460.40000000596,98225.90000000596,PRDBZTYFN,PRDBZTYFN,8020,LC,A,,100008.0,1
2,2,7.513999938964844,test,1,m,22486.000061035156,Tue Apr 08 2025 10:39:20 GMT-0500 (Central Daylight Time),110802.20000000298,I,m,3087,,3087.0,2,no,2,12576.29999999702,98225.90000000596,NCWJDZ,NCMJDZ,8020,LC,A,,104408.0,2
3,2,9.345999956130981,test,1,m,20654.00004386902,Tue Apr 08 2025 10:39:20 GMT-0500 (Central Daylight Time),112634.60000000894,I,m,1828,,1828.0,3,no,2,14408.70000000298,98225.90000000596,KHW,KBW,8020,LC,A,,107523.0,3
4,2,12.078999996185303,test,1,m,17921.000003814697,Tue Apr 08 2025 10:39:20 GMT-0500 (Central Daylight Time),115367.30000001192,I,m,2724,,2724.0,4,no,2,17141.40000000596,98225.90000000596,ZRBGMF,ZRBCMF,8020,LC,A,,109355.0,4
5,2,13.529000043869019,test,1,m,16470.99995613098,Tue Apr 08 2025 10:39:20 GMT-0500 (Central Daylight Time),116816.80000001192,I,m,1439,,1439.0,5,no,2,18590.90000000596,98225.90000000596,BTH,BYH,8020,LC,A,,112088.0,5
6,2,18.426999807357788,test,1,z,11573.000192642212,Tue Apr 08 2025 10:39:20 GMT-0500 (Central Daylight Time),121715.30000001192,I,z,4877,,4877.0,6,yes,2,23489.40000000596,98225.90000000596,XWKQRYCNZ,XWKQRYCNZ,8020,LC,A,,113538.0,6
7,2,20.991999864578247,test,1,z,9008.000135421753,Tue Apr 08 2025 10:39:20 GMT-0500 (Central Daylight Time),124280.80000001192,I,z,2555,,2555.0,7,yes,2,26054.90000000596,98225.90000000596,HNPDLK,HNPDLK,8020,LC,A,,118436.0,7
8,2,24.875,test,1,m,5125.0,Tue Apr 08 2025 10:39:20 GMT-0500 (Central Daylight Time),128163.20000000298,I,m,3862,,3862.0,8,no,2,29937.29999999702,98225.90000000596,WMQTRSGLZ,WMQTRZGLZ,8020,LC,A,,121001.0,8
9,2,26.756999969482422,test,1,z,3243.000030517578,Tue Apr 08 2025 10:39:20 GMT-0500 (Central Daylight Time),130045.80000001192,I,z,1867,,1867.0,9,yes,2,31819.90000000596,98225.90000000596,JPN,JPN,8020,LC,A,,124884.0,9
9,2,30.02300000190735,test,0,m,-23.000001907348633,Tue Apr 08 2025 10:39:20 GMT-0500 (Central Daylight Time),133311.60000000894,I,None,3261,,3261.0,10,no,2,35085.70000000298,98225.90000000596,QLXSVT,QLNSVT,8020,LC,A,,126766.0,10
