acc_sum,block,block_c,change,condition,correct,correct_response,datetime,endtime,face,project,response,response_time,row_sel,session_number,start_end,starttime,subject_id,task,task_vers,trial
0,prac,1,,1-Back,,,Tue Nov 12 2024 14:55:10 GMT-0500 (Eastern Standard Time),,124_o_f_d_a.png,I,space,12801,1,1,,,9003,VNB,A,0
1,prac,1,0.0,1-Back,1,m,Tue Nov 12 2024 14:55:10 GMT-0500 (Eastern Standard Time),148627.69999980927,071_y_f_n_a.png,I,m,726,2,1,1551.6999998092651,147076.0,9003,VNB,A,1
2,prac,1,0.0,1-Back,1,m,Tue Nov 12 2024 14:55:10 GMT-0500 (Eastern Standard Time),150395.0,165_m_m_h_a.png,I,m,939,3,1,1756.0,148639.0,9003,VNB,A,2
3,prac,1,0.0,1-Back,1,m,Tue Nov 12 2024 14:55:10 GMT-0500 (Eastern Standard Time),151945.0,109_y_m_d_a.png,I,m,712,4,1,1535.2000002861023,150409.7999997139,9003,VNB,A,3
4,prac,1,0.0,1-Back,1,m,Tue Nov 12 2024 14:55:10 GMT-0500 (Eastern Standard Time),153928.0,124_o_f_n_a.png,I,m,1107,5,1,1967.4000000953674,151960.59999990463,9003,VNB,A,4
5,prac,1,1.0,1-Back,1,z,Tue Nov 12 2024 14:55:10 GMT-0500 (Eastern Standard Time),155811.5,109_y_m_n_a.png,I,z,1033,6,1,1868.2000002861023,153943.2999997139,9003,VNB,A,5
6,prac,1,0.0,1-Back,1,m,Tue Nov 12 2024 14:55:10 GMT-0500 (Eastern Standard Time),157444.5,039_o_m_h_a.png,I,m,793,7,1,1618.3000001907349,155826.19999980927,9003,VNB,A,6
7,prac,1,0.0,1-Back,1,m,Tue Nov 12 2024 14:55:10 GMT-0500 (Eastern Standard Time),159094.89999961853,139_m_f_d_a.png,I,m,823,8,1,1635.5,157459.39999961853,9003,VNB,A,7
8,prac,1,1.0,1-Back,1,z,Tue Nov 12 2024 14:55:10 GMT-0500 (Eastern Standard Time),160744.69999980927,071_y_f_d_a.png,I,z,824,9,1,1635.3000001907349,159109.39999961853,9003,VNB,A,8
9,prac,1,0.0,1-Back,1,m,Tue Nov 12 2024 14:55:10 GMT-0500 (Eastern Standard Time),162294.69999980927,165_m_m_n_a.png,I,m,722,10,1,1535.4000000953674,160759.2999997139,9003,VNB,A,9
10,prac,1,0.0,1-Back,1,m,Tue Nov 12 2024 14:55:10 GMT-0500 (Eastern Standard Time),163844.0,124_o_f_h_a.png,I,m,678,11,1,1529.2000002861023,162314.7999997139,9003,VNB,A,10
11,prac,1,0.0,1-Back,1,m,Tue Nov 12 2024 14:55:10 GMT-0500 (Eastern Standard Time),165227.69999980927,109_y_m_d_a.png,I,m,593,12,1,1368.3000001907349,163859.39999961853,9003,VNB,A,11
0,test,1,0.0,1-Back,,,Tue Nov 12 2024 14:55:10 GMT-0500 (Eastern Standard Time),165227.69999980927,071_y_f_d_a.png,I,space,12305,1,1,1368.3000001907349,163859.39999961853,9003,VNB,A,0
1,test,1,0.0,1-Back,1,m,Tue Nov 12 2024 14:55:10 GMT-0500 (Eastern Standard Time),185911.19999980927,139_m_f_n_a.png,I,m,648,2,1,1667.0999999046326,184244.09999990463,9003,VNB,A,1
2,test,1,0.0,1-Back,1,m,Tue Nov 12 2024 14:55:10 GMT-0500 (Eastern Standard Time),187711.5,039_o_m_h_a.png,I,m,774,3,1,1787.0,185924.5,9003,VNB,A,2
3,test,1,1.0,1-Back,1,z,Tue Nov 12 2024 14:55:10 GMT-0500 (Eastern Standard Time),189844.69999980927,165_m_m_h_a.png,I,z,1102,4,1,2119.199999809265,187725.5,9003,VNB,A,3
4,test,1,0.0,1-Back,1,m,Tue Nov 12 2024 14:55:10 GMT-0500 (Eastern Standard Time),191711.2999997139,124_o_f_n_a.png,I,m,840,5,1,1853.5999999046326,189857.69999980927,9003,VNB,A,4
5,test,1,0.0,1-Back,1,m,Tue Nov 12 2024 14:55:10 GMT-0500 (Eastern Standard Time),193611.0,109_y_m_d_a.png,I,m,876,6,1,1885.9000000953674,191725.09999990463,9003,VNB,A,5
6,test,1,1.0,1-Back,1,z,Tue Nov 12 2024 14:55:10 GMT-0500 (Eastern Standard Time),195411.2999997139,139_m_f_d_a.png,I,z,770,7,1,1788.0,193623.2999997139,9003,VNB,A,6
7,test,1,0.0,1-Back,1,m,Tue Nov 12 2024 14:55:10 GMT-0500 (Eastern Standard Time),197361.2999997139,071_y_f_h_a.png,I,m,921,8,1,1935.5999999046326,195425.69999980927,9003,VNB,A,7
8,test,1,0.0,1-Back,1,m,Tue Nov 12 2024 14:55:10 GMT-0500 (Eastern Standard Time),199094.69999980927,039_o_m_n_a.png,I,m,715,9,1,1719.8000001907349,197374.89999961853,9003,VNB,A,8
9,test,1,0.0,1-Back,1,m,Tue Nov 12 2024 14:55:10 GMT-0500 (Eastern Standard Time),200794.59999990463,109_y_m_h_a.png,I,m,678,10,1,1686.4000000953674,199108.19999980927,9003,VNB,A,9
10,test,1,0.0,1-Back,1,m,Tue Nov 12 2024 14:55:10 GMT-0500 (Eastern Standard Time),202528.0,039_o_m_d_a.png,I,m,706,11,1,1718.8000001907349,200809.19999980927,9003,VNB,A,10
11,test,1,1.0,1-Back,1,z,Tue Nov 12 2024 14:55:10 GMT-0500 (Eastern Standard Time),204494.39999961853,124_o_f_d_a.png,I,z,940,12,1,1954.1999998092651,202540.19999980927,9003,VNB,A,11
12,test,1,0.0,1-Back,1,m,Tue Nov 12 2024 14:55:10 GMT-0500 (Eastern Standard Time),206178.0,165_m_m_n_a.png,I,m,655,13,1,1672.0,204506.0,9003,VNB,A,12
13,test,1,1.0,1-Back,1,z,Tue Nov 12 2024 14:55:10 GMT-0500 (Eastern Standard Time),208161.39999961853,071_y_f_n_a.png,I,z,955,14,1,1969.5,206191.89999961853,9003,VNB,A,13
14,test,1,0.0,1-Back,1,m,Tue Nov 12 2024 14:55:10 GMT-0500 (Eastern Standard Time),210061.19999980927,139_m_f_h_a.png,I,m,859,15,1,1879.5,208181.69999980927,9003,VNB,A,14
15,test,1,0.0,1-Back,1,m,Tue Nov 12 2024 14:55:10 GMT-0500 (Eastern Standard Time),211794.69999980927,165_m_m_d_a.png,I,m,704,16,1,1721.1999998092651,210073.5,9003,VNB,A,15
16,test,1,0.0,1-Back,1,m,Tue Nov 12 2024 14:55:10 GMT-0500 (Eastern Standard Time),213428.0,109_y_m_n_a.png,I,m,602,17,1,1620.6000003814697,211807.39999961853,9003,VNB,A,16
17,test,1,0.0,1-Back,1,m,Tue Nov 12 2024 14:55:10 GMT-0500 (Eastern Standard Time),215094.69999980927,124_o_f_h_a.png,I,m,616,18,1,1651.9000000953674,213442.7999997139,9003,VNB,A,17
0,test,2,0.0,1-Back,,,Tue Nov 12 2024 14:55:10 GMT-0500 (Eastern Standard Time),215094.69999980927,109_y_m_n_a.png,I,space,2998,1,1,1651.9000000953674,213442.7999997139,9003,VNB,A,0
1,test,2,0.0,1-Back,1,m,Tue Nov 12 2024 14:55:10 GMT-0500 (Eastern Standard Time),221878.09999990463,071_y_f_h_a.png,I,m,733,2,1,1753.0999999046326,220125.0,9003,VNB,A,1
2,test,2,1.0,1-Back,1,m,Tue Nov 12 2024 14:55:10 GMT-0500 (Eastern Standard Time),223577.89999961853,039_o_m_n_a.png,I,m,679,3,1,1685.0,221892.89999961853,9003,VNB,A,2
3,test,2,0.0,1-Back,1,m,Tue Nov 12 2024 14:55:10 GMT-0500 (Eastern Standard Time),225511.0,139_m_f_d_a.png,I,m,915,4,1,1918.7000002861023,223592.2999997139,9003,VNB,A,3
4,test,2,0.0,1-Back,1,z,Tue Nov 12 2024 14:55:10 GMT-0500 (Eastern Standard Time),227294.69999980927,165_m_m_d_a.png,I,z,757,5,1,1771.5999999046326,225523.09999990463,9003,VNB,A,4
5,test,2,0.0,1-Back,1,m,Tue Nov 12 2024 14:55:10 GMT-0500 (Eastern Standard Time),228927.89999961853,109_y_m_h_a.png,I,m,607,6,1,1618.8999996185303,227309.0,9003,VNB,A,5
6,test,2,1.0,1-Back,1,z,Tue Nov 12 2024 14:55:10 GMT-0500 (Eastern Standard Time),230694.89999961853,124_o_f_h_a.png,I,z,733,7,1,1752.0999999046326,228942.7999997139,9003,VNB,A,6
7,test,2,0.0,1-Back,1,m,Tue Nov 12 2024 14:55:10 GMT-0500 (Eastern Standard Time),232311.19999980927,139_m_f_n_a.png,I,m,598,8,1,1603.4000000953674,230707.7999997139,9003,VNB,A,7
8,test,2,0.0,1-Back,1,m,Tue Nov 12 2024 14:55:10 GMT-0500 (Eastern Standard Time),234194.89999961853,071_y_f_d_a.png,I,m,853,9,1,1871.3999996185303,232323.5,9003,VNB,A,8
9,test,2,0.0,1-Back,1,m,Tue Nov 12 2024 14:55:10 GMT-0500 (Eastern Standard Time),235794.7999997139,165_m_m_n_a.png,I,m,570,10,1,1587.4000000953674,234207.39999961853,9003,VNB,A,9
10,test,2,1.0,1-Back,1,m,Tue Nov 12 2024 14:55:10 GMT-0500 (Eastern Standard Time),237411.2999997139,139_m_f_h_a.png,I,m,586,11,1,1603.5,235807.7999997139,9003,VNB,A,10
11,test,2,0.0,1-Back,1,z,Tue Nov 12 2024 14:55:10 GMT-0500 (Eastern Standard Time),239361.2999997139,039_o_m_h_a.png,I,z,921,12,1,1935.0,237426.2999997139,9003,VNB,A,11
12,test,2,0.0,1-Back,1,m,Tue Nov 12 2024 14:55:10 GMT-0500 (Eastern Standard Time),241010.89999961853,109_y_m_d_a.png,I,m,602,13,1,1633.5,239377.39999961853,9003,VNB,A,12
13,test,2,0.0,1-Back,1,m,Tue Nov 12 2024 14:55:10 GMT-0500 (Eastern Standard Time),242595.0,124_o_f_n_a.png,I,m,553,14,1,1572.5,241022.5,9003,VNB,A,13
13,test,2,0.0,1-Back,0,z,Tue Nov 12 2024 14:55:10 GMT-0500 (Eastern Standard Time),244377.89999961853,071_y_f_n_a.png,I,m,745,15,1,1766.5,242611.39999961853,9003,VNB,A,14
14,test,2,1.0,1-Back,1,m,Tue Nov 12 2024 14:55:10 GMT-0500 (Eastern Standard Time),246194.69999980927,165_m_m_h_a.png,I,m,787,16,1,1803.3000001907349,244391.39999961853,9003,VNB,A,15
15,test,2,0.0,1-Back,1,m,Tue Nov 12 2024 14:55:10 GMT-0500 (Eastern Standard Time),247827.89999961853,124_o_f_d_a.png,I,m,603,17,1,1620.0,246207.89999961853,9003,VNB,A,16
16,test,2,1.0,1-Back,1,z,Tue Nov 12 2024 14:55:10 GMT-0500 (Eastern Standard Time),249477.69999980927,039_o_m_d_a.png,I,z,631,18,1,1635.3000001907349,247842.39999961853,9003,VNB,A,17
0,test,3,1.0,1-Back,,,Tue Nov 12 2024 14:55:10 GMT-0500 (Eastern Standard Time),249477.69999980927,124_o_f_h_a.png,I,space,2591,1,1,1635.3000001907349,247842.39999961853,9003,VNB,A,0
1,test,3,0.0,1-Back,1,m,Tue Nov 12 2024 14:55:10 GMT-0500 (Eastern Standard Time),255844.69999980927,139_m_f_d_a.png,I,m,652,2,1,1671.3000001907349,254173.39999961853,9003,VNB,A,1
2,test,3,1.0,1-Back,1,m,Tue Nov 12 2024 14:55:10 GMT-0500 (Eastern Standard Time),257510.89999961853,165_m_m_n_a.png,I,m,631,3,1,1649.1999998092651,255861.69999980927,9003,VNB,A,2
3,test,3,0.0,1-Back,1,z,Tue Nov 12 2024 14:55:10 GMT-0500 (Eastern Standard Time),259494.69999980927,124_o_f_n_a.png,I,z,965,4,1,1971.6999998092651,257523.0,9003,VNB,A,3
4,test,3,1.0,1-Back,1,m,Tue Nov 12 2024 14:55:10 GMT-0500 (Eastern Standard Time),261128.09999990463,039_o_m_d_a.png,I,m,614,5,1,1621.2000002861023,259506.89999961853,9003,VNB,A,4
5,test,3,0.0,1-Back,1,m,Tue Nov 12 2024 14:55:10 GMT-0500 (Eastern Standard Time),262728.0,071_y_f_h_a.png,I,m,581,6,1,1584.9000000953674,261143.09999990463,9003,VNB,A,5
6,test,3,0.0,1-Back,1,z,Tue Nov 12 2024 14:55:10 GMT-0500 (Eastern Standard Time),264394.7999997139,109_y_m_h_a.png,I,z,645,7,1,1653.0,262741.7999997139,9003,VNB,A,6
7,test,3,0.0,1-Back,1,m,Tue Nov 12 2024 14:55:10 GMT-0500 (Eastern Standard Time),266061.2999997139,139_m_f_n_a.png,I,m,625,8,1,1651.1999998092651,264410.09999990463,9003,VNB,A,7
8,test,3,0.0,1-Back,1,m,Tue Nov 12 2024 14:55:10 GMT-0500 (Eastern Standard Time),267894.7999997139,071_y_f_d_a.png,I,m,799,9,1,1820.0,266074.7999997139,9003,VNB,A,8
9,test,3,1.0,1-Back,1,m,Tue Nov 12 2024 14:55:10 GMT-0500 (Eastern Standard Time),269511.19999980927,039_o_m_n_a.png,I,m,598,10,1,1601.8000001907349,267909.39999961853,9003,VNB,A,9
10,test,3,0.0,1-Back,1,m,Tue Nov 12 2024 14:55:10 GMT-0500 (Eastern Standard Time),271328.0,165_m_m_h_a.png,I,m,789,11,1,1803.7000002861023,269524.2999997139,9003,VNB,A,10
11,test,3,0.0,1-Back,1,z,Tue Nov 12 2024 14:55:10 GMT-0500 (Eastern Standard Time),272978.09999990463,139_m_f_h_a.png,I,z,621,12,1,1636.5,271341.59999990463,9003,VNB,A,11
12,test,3,1.0,1-Back,1,m,Tue Nov 12 2024 14:55:10 GMT-0500 (Eastern Standard Time),274644.7999997139,124_o_f_d_a.png,I,m,635,13,1,1653.5999999046326,272991.19999980927,9003,VNB,A,12
13,test,3,0.0,1-Back,1,z,Tue Nov 12 2024 14:55:10 GMT-0500 (Eastern Standard Time),276394.5,165_m_m_d_a.png,I,z,728,14,1,1735.6000003814697,274658.89999961853,9003,VNB,A,13
14,test,3,0.0,1-Back,1,m,Tue Nov 12 2024 14:55:10 GMT-0500 (Eastern Standard Time),277944.59999990463,109_y_m_n_a.png,I,m,530,15,1,1537.8000001907349,276406.7999997139,9003,VNB,A,14
15,test,3,1.0,1-Back,1,m,Tue Nov 12 2024 14:55:10 GMT-0500 (Eastern Standard Time),279561.59999990463,039_o_m_h_a.png,I,m,580,16,1,1601.3000001907349,277960.2999997139,9003,VNB,A,15
16,test,3,0.0,1-Back,1,m,Tue Nov 12 2024 14:55:10 GMT-0500 (Eastern Standard Time),281378.0,109_y_m_d_a.png,I,m,771,17,1,1800.3000001907349,279577.69999980927,9003,VNB,A,16
17,test,3,1.0,1-Back,1,m,Tue Nov 12 2024 14:55:10 GMT-0500 (Eastern Standard Time),283444.0,071_y_f_n_a.png,I,m,1049,18,1,2053.4000000953674,281390.59999990463,9003,VNB,A,17
0,test,4,1.0,1-Back,,,Tue Nov 12 2024 14:55:10 GMT-0500 (Eastern Standard Time),283444.0,165_m_m_d_a.png,I,space,2720,1,1,2053.4000000953674,281390.59999990463,9003,VNB,A,0
1,test,4,0.0,1-Back,1,z,Tue Nov 12 2024 14:55:10 GMT-0500 (Eastern Standard Time),290044.69999980927,039_o_m_d_a.png,I,z,826,2,1,1837.5,288207.19999980927,9003,VNB,A,1
2,test,4,0.0,1-Back,1,m,Tue Nov 12 2024 14:55:10 GMT-0500 (Eastern Standard Time),291644.89999961853,109_y_m_h_a.png,I,m,576,3,1,1586.8999996185303,290058.0,9003,VNB,A,2
3,test,4,0.0,1-Back,1,m,Tue Nov 12 2024 14:55:10 GMT-0500 (Eastern Standard Time),293278.0,139_m_f_n_a.png,I,m,608,4,1,1619.2000002861023,291658.7999997139,9003,VNB,A,3
4,test,4,1.0,1-Back,1,m,Tue Nov 12 2024 14:55:10 GMT-0500 (Eastern Standard Time),294878.19999980927,124_o_f_h_a.png,I,m,574,5,1,1587.5,293290.69999980927,9003,VNB,A,4
5,test,4,0.0,1-Back,1,m,Tue Nov 12 2024 14:55:10 GMT-0500 (Eastern Standard Time),296444.7999997139,165_m_m_n_a.png,I,m,543,6,1,1553.7999997138977,294891.0,9003,VNB,A,5
6,test,4,0.0,1-Back,1,m,Tue Nov 12 2024 14:55:10 GMT-0500 (Eastern Standard Time),298128.09999990463,109_y_m_d_a.png,I,m,656,7,1,1669.5999999046326,296458.5,9003,VNB,A,6
7,test,4,1.0,1-Back,1,z,Tue Nov 12 2024 14:55:10 GMT-0500 (Eastern Standard Time),299895.0,071_y_f_d_a.png,I,z,733,8,1,1752.6000003814697,298142.39999961853,9003,VNB,A,7
8,test,4,0.0,1-Back,1,m,Tue Nov 12 2024 14:55:10 GMT-0500 (Eastern Standard Time),301527.89999961853,139_m_f_h_a.png,I,m,614,9,1,1618.3999996185303,299909.5,9003,VNB,A,8
9,test,4,0.0,1-Back,1,z,Tue Nov 12 2024 14:55:10 GMT-0500 (Eastern Standard Time),303344.69999980927,039_o_m_h_a.png,I,z,789,10,1,1804.0999999046326,301540.59999990463,9003,VNB,A,9
10,test,4,1.0,1-Back,1,m,Tue Nov 12 2024 14:55:10 GMT-0500 (Eastern Standard Time),304994.7999997139,124_o_f_n_a.png,I,m,620,11,1,1636.0999999046326,303358.69999980927,9003,VNB,A,10
11,test,4,0.0,1-Back,1,m,Tue Nov 12 2024 14:55:10 GMT-0500 (Eastern Standard Time),306644.7999997139,139_m_f_d_a.png,I,m,618,12,1,1636.4000000953674,305008.39999961853,9003,VNB,A,11
12,test,4,0.0,1-Back,1,m,Tue Nov 12 2024 14:55:10 GMT-0500 (Eastern Standard Time),308211.39999961853,071_y_f_n_a.png,I,m,536,13,1,1553.8999996185303,306657.5,9003,VNB,A,12
13,test,4,0.0,1-Back,1,m,Tue Nov 12 2024 14:55:10 GMT-0500 (Eastern Standard Time),309861.59999990463,124_o_f_d_a.png,I,m,617,14,1,1637.5999999046326,308224.0,9003,VNB,A,13
14,test,4,0.0,1-Back,1,m,Tue Nov 12 2024 14:55:10 GMT-0500 (Eastern Standard Time),311811.59999990463,071_y_f_h_a.png,I,m,919,15,1,1937.4000000953674,309874.19999980927,9003,VNB,A,14
15,test,4,1.0,1-Back,1,z,Tue Nov 12 2024 14:55:10 GMT-0500 (Eastern Standard Time),313344.89999961853,165_m_m_h_a.png,I,z,505,16,1,1518.5999999046326,311826.2999997139,9003,VNB,A,15
16,test,4,0.0,1-Back,1,m,Tue Nov 12 2024 14:55:10 GMT-0500 (Eastern Standard Time),314961.5,039_o_m_n_a.png,I,m,588,17,1,1602.4000000953674,313359.09999990463,9003,VNB,A,16
17,test,4,1.0,1-Back,1,z,Tue Nov 12 2024 14:55:10 GMT-0500 (Eastern Standard Time),317161.19999980927,109_y_m_n_a.png,I,z,1162,18,1,2181.199999809265,314980.0,9003,VNB,A,17
0,test,5,1.0,1-Back,,,Tue Nov 12 2024 14:55:10 GMT-0500 (Eastern Standard Time),317161.19999980927,039_o_m_n_a.png,I,space,2900,1,1,2181.199999809265,314980.0,9003,VNB,A,0
1,test,5,1.0,1-Back,1,m,Tue Nov 12 2024 14:55:10 GMT-0500 (Eastern Standard Time),323878.0,124_o_f_h_a.png,I,m,750,2,1,1769.3000001907349,322108.69999980927,9003,VNB,A,1
2,test,5,0.0,1-Back,1,m,Tue Nov 12 2024 14:55:10 GMT-0500 (Eastern Standard Time),325677.7999997139,109_y_m_d_a.png,I,m,775,3,1,1788.2999997138977,323889.5,9003,VNB,A,2
3,test,5,0.0,1-Back,1,z,Tue Nov 12 2024 14:55:10 GMT-0500 (Eastern Standard Time),327278.0,039_o_m_d_a.png,I,z,575,4,1,1586.3000001907349,325691.69999980927,9003,VNB,A,3
4,test,5,0.0,1-Back,1,m,Tue Nov 12 2024 14:55:10 GMT-0500 (Eastern Standard Time),328961.5,139_m_f_h_a.png,I,m,655,5,1,1670.2000002861023,327291.2999997139,9003,VNB,A,4
5,test,5,0.0,1-Back,1,m,Tue Nov 12 2024 14:55:10 GMT-0500 (Eastern Standard Time),330627.69999980927,071_y_f_n_a.png,I,m,634,6,1,1651.8000001907349,328975.89999961853,9003,VNB,A,5
6,test,5,1.0,1-Back,1,z,Tue Nov 12 2024 14:55:10 GMT-0500 (Eastern Standard Time),332128.0,124_o_f_n_a.png,I,z,473,7,1,1489.4000000953674,330638.59999990463,9003,VNB,A,6
7,test,5,0.0,1-Back,1,m,Tue Nov 12 2024 14:55:10 GMT-0500 (Eastern Standard Time),333644.89999961853,139_m_f_d_a.png,I,m,493,8,1,1502.8999996185303,332142.0,9003,VNB,A,7
8,test,5,0.0,1-Back,1,m,Tue Nov 12 2024 14:55:10 GMT-0500 (Eastern Standard Time),335194.89999961853,109_y_m_h_a.png,I,m,512,9,1,1530.5999999046326,333664.2999997139,9003,VNB,A,8
9,test,5,0.0,1-Back,1,m,Tue Nov 12 2024 14:55:10 GMT-0500 (Eastern Standard Time),336811.09999990463,071_y_f_d_a.png,I,m,593,10,1,1602.2000002861023,335208.89999961853,9003,VNB,A,9
10,test,5,0.0,1-Back,1,m,Tue Nov 12 2024 14:55:10 GMT-0500 (Eastern Standard Time),338461.5,165_m_m_n_a.png,I,m,626,11,1,1640.5,336821.0,9003,VNB,A,10
11,test,5,1.0,1-Back,1,z,Tue Nov 12 2024 14:55:10 GMT-0500 (Eastern Standard Time),340028.19999980927,139_m_f_n_a.png,I,z,543,12,1,1552.6999998092651,338475.5,9003,VNB,A,11
12,test,5,0.0,1-Back,1,m,Tue Nov 12 2024 14:55:10 GMT-0500 (Eastern Standard Time),341777.69999980927,039_o_m_h_a.png,I,m,720,13,1,1737.0999999046326,340040.59999990463,9003,VNB,A,12
13,test,5,0.0,1-Back,1,z,Tue Nov 12 2024 14:55:10 GMT-0500 (Eastern Standard Time),343261.5,165_m_m_h_a.png,I,z,459,14,1,1474.1000003814697,341787.39999961853,9003,VNB,A,13
14,test,5,1.0,1-Back,1,m,Tue Nov 12 2024 14:55:10 GMT-0500 (Eastern Standard Time),344811.59999990463,124_o_f_d_a.png,I,m,527,15,1,1536.0,343275.59999990463,9003,VNB,A,14
15,test,5,0.0,1-Back,1,m,Tue Nov 12 2024 14:55:10 GMT-0500 (Eastern Standard Time),346361.5,109_y_m_n_a.png,I,m,531,16,1,1535.8000001907349,344825.69999980927,9003,VNB,A,15
16,test,5,0.0,1-Back,1,m,Tue Nov 12 2024 14:55:10 GMT-0500 (Eastern Standard Time),347944.59999990463,071_y_f_h_a.png,I,m,547,17,1,1566.3000001907349,346378.2999997139,9003,VNB,A,16
17,test,5,0.0,1-Back,1,m,Tue Nov 12 2024 14:55:10 GMT-0500 (Eastern Standard Time),349528.0,165_m_m_d_a.png,I,m,564,18,1,1570.2000002861023,347957.7999997139,9003,VNB,A,17
0,prac,1,0.0,2-Back,,,Tue Nov 12 2024 14:55:10 GMT-0500 (Eastern Standard Time),349528.0,139_m_f_n_a.png,I,space,8256,1,1,1570.2000002861023,347957.7999997139,9003,VNB,A,0
0,prac,1,0.0,2-Back,,,Tue Nov 12 2024 14:55:10 GMT-0500 (Eastern Standard Time),349528.0,124_o_f_h_a.png,I,space,8256,2,1,1570.2000002861023,347957.7999997139,9003,VNB,A,0
1,prac,1,0.0,2-Back,1,m,Tue Nov 12 2024 14:55:10 GMT-0500 (Eastern Standard Time),455427.7999997139,039_o_m_d_a.png,I,m,1128,3,1,1953.0,453474.7999997139,9003,VNB,A,1
1,prac,1,1.0,2-Back,0,z,Tue Nov 12 2024 14:55:10 GMT-0500 (Eastern Standard Time),458261.39999961853,165_m_m_h_a.png,I,None,2001,4,1,2815.0,455446.39999961853,9003,VNB,A,2
1,prac,1,0.0,2-Back,0,m,Tue Nov 12 2024 14:55:10 GMT-0500 (Eastern Standard Time),461094.2999997139,071_y_f_n_a.png,I,None,2005,5,1,2817.699999809265,458276.59999990463,9003,VNB,A,3
1,prac,1,1.0,2-Back,0,z,Tue Nov 12 2024 14:55:10 GMT-0500 (Eastern Standard Time),463195.39999961853,039_o_m_h_a.png,I,m,1269,6,1,2086.0,461109.39999961853,9003,VNB,A,4
1,prac,1,1.0,2-Back,0,z,Tue Nov 12 2024 14:55:10 GMT-0500 (Eastern Standard Time),465161.69999980927,109_y_m_n_a.png,I,m,1128,7,1,1954.0,463207.69999980927,9003,VNB,A,5
1,prac,1,0.0,2-Back,0,m,Tue Nov 12 2024 14:55:10 GMT-0500 (Eastern Standard Time),467544.5,139_m_f_d_a.png,I,z,1550,8,1,2368.6000003814697,465175.89999961853,9003,VNB,A,6
1,prac,1,0.0,2-Back,0,m,Tue Nov 12 2024 14:55:10 GMT-0500 (Eastern Standard Time),469611.19999980927,124_o_f_d_a.png,I,z,1192,9,1,2053.9000000953674,467557.2999997139,9003,VNB,A,7
1,prac,1,0.0,2-Back,0,m,Tue Nov 12 2024 14:55:10 GMT-0500 (Eastern Standard Time),471928.2999997139,165_m_m_h_a.png,I,z,1488,10,1,2301.4000000953674,469626.89999961853,9003,VNB,A,8
2,prac,1,1.0,2-Back,1,z,Tue Nov 12 2024 14:55:10 GMT-0500 (Eastern Standard Time),474661.7999997139,071_y_f_d_a.png,I,z,1891,11,1,2717.199999809265,471944.59999990463,9003,VNB,A,9
2,prac,1,0.0,2-Back,0,m,Tue Nov 12 2024 14:55:10 GMT-0500 (Eastern Standard Time),477494.89999961853,039_o_m_n_a.png,I,None,2006,12,1,2816.7999997138977,474678.09999990463,9003,VNB,A,10
0,prac,2,0.0,2-Back,,,Tue Nov 12 2024 14:55:10 GMT-0500 (Eastern Standard Time),477494.89999961853,139_m_f_n_a.png,I,a,4335,1,1,2816.7999997138977,474678.09999990463,9003,VNB,A,0
0,prac,2,0.0,2-Back,,,Tue Nov 12 2024 14:55:10 GMT-0500 (Eastern Standard Time),477494.89999961853,124_o_f_h_a.png,I,a,4335,2,1,2816.7999997138977,474678.09999990463,9003,VNB,A,0
1,prac,2,0.0,2-Back,1,m,Tue Nov 12 2024 14:55:10 GMT-0500 (Eastern Standard Time),489061.7999997139,039_o_m_d_a.png,I,m,1244,3,1,2051.7999997138977,487010.0,9003,VNB,A,1
1,prac,2,1.0,2-Back,0,z,Tue Nov 12 2024 14:55:10 GMT-0500 (Eastern Standard Time),490995.0,165_m_m_h_a.png,I,m,1094,4,1,1918.4000000953674,489076.59999990463,9003,VNB,A,2
1,prac,2,0.0,2-Back,0,m,Tue Nov 12 2024 14:55:10 GMT-0500 (Eastern Standard Time),493444.89999961853,071_y_f_n_a.png,I,z,1608,5,1,2435.199999809265,491009.69999980927,9003,VNB,A,3
1,prac,2,1.0,2-Back,0,z,Tue Nov 12 2024 14:55:10 GMT-0500 (Eastern Standard Time),496278.5,039_o_m_h_a.png,I,None,2011,6,1,2818.2000002861023,493460.2999997139,9003,VNB,A,4
1,prac,2,1.0,2-Back,0,z,Tue Nov 12 2024 14:55:10 GMT-0500 (Eastern Standard Time),497911.59999990463,109_y_m_n_a.png,I,m,796,7,1,1617.7000002861023,496293.89999961853,9003,VNB,A,5
2,prac,2,0.0,2-Back,1,m,Tue Nov 12 2024 14:55:10 GMT-0500 (Eastern Standard Time),500111.09999990463,139_m_f_d_a.png,I,m,1366,8,1,2185.0,497926.09999990463,9003,VNB,A,6
2,prac,2,0.0,2-Back,0,m,Tue Nov 12 2024 14:55:10 GMT-0500 (Eastern Standard Time),502278.2999997139,124_o_f_d_a.png,I,z,1294,9,1,2150.7999997138977,500127.5,9003,VNB,A,7
3,prac,2,0.0,2-Back,1,m,Tue Nov 12 2024 14:55:10 GMT-0500 (Eastern Standard Time),505011.89999961853,165_m_m_h_a.png,I,m,1950,10,1,2715.7999997138977,502296.09999990463,9003,VNB,A,8
4,prac,2,1.0,2-Back,1,z,Tue Nov 12 2024 14:55:10 GMT-0500 (Eastern Standard Time),507061.7999997139,071_y_f_d_a.png,I,z,1223,11,1,2033.7999997138977,505028.0,9003,VNB,A,9
4,prac,2,0.0,2-Back,0,m,Tue Nov 12 2024 14:55:10 GMT-0500 (Eastern Standard Time),509411.2999997139,039_o_m_n_a.png,I,z,1509,12,1,2330.5,507080.7999997139,9003,VNB,A,10
0,test,1,0.0,2-Back,,,Tue Nov 12 2024 14:55:10 GMT-0500 (Eastern Standard Time),509411.2999997139,109_y_m_h_a.png,I,space,11420,1,1,2330.5,507080.7999997139,9003,VNB,A,0
0,test,1,0.0,2-Back,,,Tue Nov 12 2024 14:55:10 GMT-0500 (Eastern Standard Time),509411.2999997139,124_o_f_n_a.png,I,space,11420,2,1,2330.5,507080.7999997139,9003,VNB,A,0
1,test,1,0.0,2-Back,1,z,Tue Nov 12 2024 14:55:10 GMT-0500 (Eastern Standard Time),538795.1999998093,039_o_m_h_a.png,I,z,962,3,1,1968.4000000953674,536826.7999997139,9003,VNB,A,1
2,test,1,0.0,2-Back,1,m,Tue Nov 12 2024 14:55:10 GMT-0500 (Eastern Standard Time),541178.2999997139,139_m_f_d_a.png,I,m,1362,4,1,2369.2999997138977,538809.0,9003,VNB,A,2
2,test,1,1.0,2-Back,0,m,Tue Nov 12 2024 14:55:10 GMT-0500 (Eastern Standard Time),543611.6999998093,109_y_m_n_a.png,I,z,1378,5,1,2393.5999999046326,541218.0999999046,9003,VNB,A,3
3,test,1,0.0,2-Back,1,z,Tue Nov 12 2024 14:55:10 GMT-0500 (Eastern Standard Time),546311.5,071_y_f_d_a.png,I,z,1681,6,1,2686.2000002861023,543625.2999997139,9003,VNB,A,4
4,test,1,0.0,2-Back,1,m,Tue Nov 12 2024 14:55:10 GMT-0500 (Eastern Standard Time),548228.1999998093,165_m_m_h_a.png,I,m,885,7,1,1903.8000001907349,546324.3999996185,9003,VNB,A,5
5,test,1,1.0,2-Back,1,m,Tue Nov 12 2024 14:55:10 GMT-0500 (Eastern Standard Time),550128.3999996185,071_y_f_n_a.png,I,m,873,8,1,1886.1999998092651,548242.1999998093,9003,VNB,A,6
6,test,1,0.0,2-Back,1,z,Tue Nov 12 2024 14:55:10 GMT-0500 (Eastern Standard Time),551761.1999998093,124_o_f_h_a.png,I,z,605,9,1,1617.4000000953674,550143.7999997139,9003,VNB,A,7
7,test,1,0.0,2-Back,1,m,Tue Nov 12 2024 14:55:10 GMT-0500 (Eastern Standard Time),553628.5,039_o_m_d_a.png,I,m,844,10,1,1857.3000001907349,551771.1999998093,9003,VNB,A,8
8,test,1,1.0,2-Back,1,m,Tue Nov 12 2024 14:55:10 GMT-0500 (Eastern Standard Time),555445.0999999046,165_m_m_d_a.png,I,m,785,11,1,1803.5999999046326,553641.5,9003,VNB,A,9
8,test,1,0.0,2-Back,0,m,Tue Nov 12 2024 14:55:10 GMT-0500 (Eastern Standard Time),557595.0,139_m_f_n_a.png,I,z,1129,12,1,2135.7000002861023,555459.2999997139,9003,VNB,A,10
9,test,1,0.0,2-Back,1,m,Tue Nov 12 2024 14:55:10 GMT-0500 (Eastern Standard Time),559895.0999999046,071_y_f_h_a.png,I,m,1283,13,1,2287.0,557608.0999999046,9003,VNB,A,11
10,test,1,0.0,2-Back,1,z,Tue Nov 12 2024 14:55:10 GMT-0500 (Eastern Standard Time),561628.1999998093,165_m_m_n_a.png,I,z,693,14,1,1715.9000000953674,559912.2999997139,9003,VNB,A,12
11,test,1,0.0,2-Back,1,m,Tue Nov 12 2024 14:55:10 GMT-0500 (Eastern Standard Time),563178.3999996185,109_y_m_d_a.png,I,m,528,15,1,1537.0999999046326,561641.2999997139,9003,VNB,A,13
12,test,1,1.0,2-Back,1,m,Tue Nov 12 2024 14:55:10 GMT-0500 (Eastern Standard Time),565045.1999998093,139_m_f_h_a.png,I,m,819,16,1,1850.0,563195.1999998093,9003,VNB,A,14
12,test,1,0.0,2-Back,0,z,Tue Nov 12 2024 14:55:10 GMT-0500 (Eastern Standard Time),567061.5999999046,124_o_f_d_a.png,I,m,984,17,1,2001.0,565060.5999999046,9003,VNB,A,15
12,test,1,0.0,2-Back,0,m,Tue Nov 12 2024 14:55:10 GMT-0500 (Eastern Standard Time),569461.6999998093,039_o_m_n_a.png,I,z,1351,18,1,2384.0999999046326,567077.5999999046,9003,VNB,A,16
0,test,2,0.0,2-Back,,,Tue Nov 12 2024 14:55:10 GMT-0500 (Eastern Standard Time),569461.6999998093,165_m_m_h_a.png,I,space,2623,1,1,2384.0999999046326,567077.5999999046,9003,VNB,A,0
0,test,2,0.0,2-Back,,,Tue Nov 12 2024 14:55:10 GMT-0500 (Eastern Standard Time),569461.6999998093,071_y_f_n_a.png,I,space,2623,2,1,2384.0999999046326,567077.5999999046,9003,VNB,A,0
1,test,2,1.0,2-Back,1,z,Tue Nov 12 2024 14:55:10 GMT-0500 (Eastern Standard Time),579144.6999998093,124_o_f_h_a.png,I,z,913,3,1,1919.0999999046326,577225.5999999046,9003,VNB,A,1
2,test,2,0.0,2-Back,1,m,Tue Nov 12 2024 14:55:10 GMT-0500 (Eastern Standard Time),581678.2999997139,039_o_m_d_a.png,I,m,1508,4,1,2523.2999997138977,579155.0,9003,VNB,A,2
3,test,2,0.0,2-Back,1,m,Tue Nov 12 2024 14:55:10 GMT-0500 (Eastern Standard Time),584478.2999997139,139_m_f_d_a.png,I,m,1758,5,1,2783.4000000953674,581694.8999996185,9003,VNB,A,3
4,test,2,0.0,2-Back,1,m,Tue Nov 12 2024 14:55:10 GMT-0500 (Eastern Standard Time),586528.2999997139,109_y_m_h_a.png,I,m,1006,6,1,2033.7999997138977,584494.5,9003,VNB,A,4
5,test,2,0.0,2-Back,1,m,Tue Nov 12 2024 14:55:10 GMT-0500 (Eastern Standard Time),588478.0,124_o_f_n_a.png,I,m,924,7,1,1937.1000003814697,586540.8999996185,9003,VNB,A,5
6,test,2,1.0,2-Back,1,z,Tue Nov 12 2024 14:55:10 GMT-0500 (Eastern Standard Time),590011.2999997139,039_o_m_h_a.png,I,z,511,8,1,1520.1999998092651,588491.0999999046,9003,VNB,A,6
7,test,2,0.0,2-Back,1,m,Tue Nov 12 2024 14:55:10 GMT-0500 (Eastern Standard Time),591911.2999997139,071_y_f_d_a.png,I,m,883,9,1,1888.0,590023.2999997139,9003,VNB,A,7
7,test,2,0.0,2-Back,0,m,Tue Nov 12 2024 14:55:10 GMT-0500 (Eastern Standard Time),594228.5,109_y_m_d_a.png,I,z,1269,10,1,2300.1000003814697,591928.3999996185,9003,VNB,A,8
7,test,2,0.0,2-Back,0,m,Tue Nov 12 2024 14:55:10 GMT-0500 (Eastern Standard Time),596694.6999998093,165_m_m_n_a.png,I,z,1433,11,1,2452.0999999046326,594242.5999999046,9003,VNB,A,9
7,test,2,0.0,2-Back,0,m,Tue Nov 12 2024 14:55:10 GMT-0500 (Eastern Standard Time),598611.7999997139,139_m_f_h_a.png,I,z,886,12,1,1902.1999998092651,596709.5999999046,9003,VNB,A,10
8,test,2,1.0,2-Back,1,z,Tue Nov 12 2024 14:55:10 GMT-0500 (Eastern Standard Time),600344.6999998093,039_o_m_n_a.png,I,z,714,13,1,1719.9000000953674,598624.7999997139,9003,VNB,A,11
9,test,2,0.0,2-Back,1,m,Tue Nov 12 2024 14:55:10 GMT-0500 (Eastern Standard Time),601961.7999997139,124_o_f_d_a.png,I,m,596,14,1,1602.0,600359.7999997139,9003,VNB,A,12
10,test,2,0.0,2-Back,1,m,Tue Nov 12 2024 14:55:10 GMT-0500 (Eastern Standard Time),603828.1999998093,071_y_f_h_a.png,I,m,836,15,1,1852.9000000953674,601975.2999997139,9003,VNB,A,13
11,test,2,0.0,2-Back,1,z,Tue Nov 12 2024 14:55:10 GMT-0500 (Eastern Standard Time),605995.0999999046,165_m_m_d_a.png,I,z,1145,16,1,2153.2000002861023,603841.8999996185,9003,VNB,A,14
11,test,2,0.0,2-Back,0,m,Tue Nov 12 2024 14:55:10 GMT-0500 (Eastern Standard Time),608428.5999999046,109_y_m_n_a.png,I,z,1411,17,1,2418.800000190735,606009.7999997139,9003,VNB,A,15
12,test,2,1.0,2-Back,1,m,Tue Nov 12 2024 14:55:10 GMT-0500 (Eastern Standard Time),610678.3999996185,139_m_f_n_a.png,I,m,1217,18,1,2236.0999999046326,608442.2999997139,9003,VNB,A,16
0,test,3,1.0,2-Back,,,Tue Nov 12 2024 14:55:10 GMT-0500 (Eastern Standard Time),610678.3999996185,039_o_m_n_a.png,I,space,2678,1,1,2236.0999999046326,608442.2999997139,9003,VNB,A,0
0,test,3,1.0,2-Back,,,Tue Nov 12 2024 14:55:10 GMT-0500 (Eastern Standard Time),610678.3999996185,124_o_f_d_a.png,I,space,2678,2,1,2236.0999999046326,608442.2999997139,9003,VNB,A,0
1,test,3,0.0,2-Back,1,m,Tue Nov 12 2024 14:55:10 GMT-0500 (Eastern Standard Time),620428.2999997139,071_y_f_h_a.png,I,m,878,3,1,1885.9000000953674,618542.3999996185,9003,VNB,A,1
1,test,3,0.0,2-Back,0,z,Tue Nov 12 2024 14:55:10 GMT-0500 (Eastern Standard Time),623462.0,139_m_f_d_a.png,I,None,2016,4,1,3019.800000190735,620442.1999998093,9003,VNB,A,2
1,test,3,1.0,2-Back,0,m,Tue Nov 12 2024 14:55:10 GMT-0500 (Eastern Standard Time),626495.0999999046,109_y_m_n_a.png,I,None,2016,5,1,3018.9000000953674,623476.1999998093,9003,VNB,A,3
1,test,3,0.0,2-Back,0,m,Tue Nov 12 2024 14:55:10 GMT-0500 (Eastern Standard Time),628228.5,039_o_m_h_a.png,I,z,702,6,1,1720.9000000953674,626507.5999999046,9003,VNB,A,4
2,test,3,0.0,2-Back,1,z,Tue Nov 12 2024 14:55:10 GMT-0500 (Eastern Standard Time),630728.3999996185,071_y_f_n_a.png,I,z,1480,7,1,2487.7999997138977,628240.5999999046,9003,VNB,A,5
2,test,3,1.0,2-Back,0,m,Tue Nov 12 2024 14:55:10 GMT-0500 (Eastern Standard Time),633778.5,165_m_m_d_a.png,I,None,2016,8,1,3033.7000002861023,630744.7999997139,9003,VNB,A,6
3,test,3,0.0,2-Back,1,m,Tue Nov 12 2024 14:55:10 GMT-0500 (Eastern Standard Time),635678.5999999046,109_y_m_d_a.png,I,m,859,9,1,1884.2000002861023,633794.3999996185,9003,VNB,A,7
3,test,3,0.0,2-Back,0,m,Tue Nov 12 2024 14:55:10 GMT-0500 (Eastern Standard Time),638711.7999997139,124_o_f_h_a.png,I,None,2017,10,1,3018.9000000953674,635692.8999996185,9003,VNB,A,8
3,test,3,1.0,2-Back,0,m,Tue Nov 12 2024 14:55:10 GMT-0500 (Eastern Standard Time),641745.0,139_m_f_n_a.png,I,None,2016,11,1,3019.5,638725.5,9003,VNB,A,9
3,test,3,1.0,2-Back,0,z,Tue Nov 12 2024 14:55:10 GMT-0500 (Eastern Standard Time),643711.7999997139,165_m_m_h_a.png,I,m,941,12,1,1952.4000000953674,641759.3999996185,9003,VNB,A,10
4,test,3,0.0,2-Back,1,m,Tue Nov 12 2024 14:55:10 GMT-0500 (Eastern Standard Time),646378.1999998093,071_y_f_d_a.png,I,m,1645,13,1,2653.0,643725.1999998093,9003,VNB,A,11
5,test,3,0.0,2-Back,1,m,Tue Nov 12 2024 14:55:10 GMT-0500 (Eastern Standard Time),648928.0,124_o_f_n_a.png,I,m,1523,14,1,2538.6000003814697,646389.3999996185,9003,VNB,A,12
6,test,3,0.0,2-Back,1,z,Tue Nov 12 2024 14:55:10 GMT-0500 (Eastern Standard Time),650795.1999998093,039_o_m_d_a.png,I,z,846,15,1,1855.9000000953674,648939.2999997139,9003,VNB,A,13
6,test,3,1.0,2-Back,0,m,Tue Nov 12 2024 14:55:10 GMT-0500 (Eastern Standard Time),653228.1999998093,139_m_f_h_a.png,I,z,1411,16,1,2420.0999999046326,650808.0999999046,9003,VNB,A,14
7,test,3,0.0,2-Back,1,m,Tue Nov 12 2024 14:55:10 GMT-0500 (Eastern Standard Time),655078.3999996185,165_m_m_n_a.png,I,m,801,17,1,1832.8999996185303,653245.5,9003,VNB,A,15
7,test,3,0.0,2-Back,0,z,Tue Nov 12 2024 14:55:10 GMT-0500 (Eastern Standard Time),657311.2999997139,109_y_m_h_a.png,I,m,1206,18,1,2219.5999999046326,655091.6999998093,9003,VNB,A,16
0,test,4,0.0,2-Back,,,Tue Nov 12 2024 14:55:10 GMT-0500 (Eastern Standard Time),657311.2999997139,139_m_f_n_a.png,I,space,2743,1,1,2219.5999999046326,655091.6999998093,9003,VNB,A,0
0,test,4,0.0,2-Back,,,Tue Nov 12 2024 14:55:10 GMT-0500 (Eastern Standard Time),657311.2999997139,039_o_m_n_a.png,I,space,2743,2,1,2219.5999999046326,655091.6999998093,9003,VNB,A,0
0,test,4,1.0,2-Back,0,m,Tue Nov 12 2024 14:55:10 GMT-0500 (Eastern Standard Time),668178.5999999046,109_y_m_h_a.png,I,None,2016,3,1,3019.5999999046326,665159.0,9003,VNB,A,1
1,test,4,1.0,2-Back,1,m,Tue Nov 12 2024 14:55:10 GMT-0500 (Eastern Standard Time),670278.5999999046,124_o_f_d_a.png,I,m,1066,4,1,2085.2000002861023,668193.3999996185,9003,VNB,A,2
2,test,4,0.0,2-Back,1,z,Tue Nov 12 2024 14:55:10 GMT-0500 (Eastern Standard Time),672661.5999999046,039_o_m_h_a.png,I,z,1350,5,1,2368.7000002861023,670292.8999996185,9003,VNB,A,3
3,test,4,0.0,2-Back,1,m,Tue Nov 12 2024 14:55:10 GMT-0500 (Eastern Standard Time),674561.8999996185,165_m_m_n_a.png,I,m,872,6,1,1885.5999999046326,672676.2999997139,9003,VNB,A,4
4,test,4,0.0,2-Back,1,m,Tue Nov 12 2024 14:55:10 GMT-0500 (Eastern Standard Time),676295.1999998093,139_m_f_d_a.png,I,m,683,7,1,1715.9000000953674,674579.2999997139,9003,VNB,A,5
5,test,4,0.0,2-Back,1,z,Tue Nov 12 2024 14:55:10 GMT-0500 (Eastern Standard Time),678145.0999999046,071_y_f_n_a.png,I,z,823,8,1,1836.3000001907349,676308.7999997139,9003,VNB,A,6
6,test,4,1.0,2-Back,1,m,Tue Nov 12 2024 14:55:10 GMT-0500 (Eastern Standard Time),680061.6999998093,124_o_f_h_a.png,I,m,892,9,1,1903.1999998092651,678158.5,9003,VNB,A,7
7,test,4,0.0,2-Back,1,m,Tue Nov 12 2024 14:55:10 GMT-0500 (Eastern Standard Time),682628.5,165_m_m_h_a.png,I,m,1518,10,1,2542.2000002861023,680086.2999997139,9003,VNB,A,8
8,test,4,0.0,2-Back,1,m,Tue Nov 12 2024 14:55:10 GMT-0500 (Eastern Standard Time),684745.1999998093,071_y_f_d_a.png,I,m,1097,11,1,2103.0,682642.1999998093,9003,VNB,A,9
9,test,4,0.0,2-Back,1,m,Tue Nov 12 2024 14:55:10 GMT-0500 (Eastern Standard Time),686761.8999996185,109_y_m_n_a.png,I,m,997,12,1,2003.2999997138977,684758.5999999046,9003,VNB,A,10
10,test,4,0.0,2-Back,1,z,Tue Nov 12 2024 14:55:10 GMT-0500 (Eastern Standard Time),688628.5999999046,039_o_m_d_a.png,I,z,836,13,1,1852.8000001907349,686775.7999997139,9003,VNB,A,11
11,test,4,1.0,2-Back,1,m,Tue Nov 12 2024 14:55:10 GMT-0500 (Eastern Standard Time),690328.0999999046,139_m_f_h_a.png,I,m,680,14,1,1686.2000002861023,688641.8999996185,9003,VNB,A,12
11,test,4,1.0,2-Back,0,m,Tue Nov 12 2024 14:55:10 GMT-0500 (Eastern Standard Time),692344.8999996185,071_y_f_h_a.png,I,z,980,15,1,1997.0,690347.8999996185,9003,VNB,A,13
11,test,4,0.0,2-Back,0,m,Tue Nov 12 2024 14:55:10 GMT-0500 (Eastern Standard Time),694562.0,124_o_f_n_a.png,I,z,1189,16,1,2203.9000000953674,692358.0999999046,9003,VNB,A,14
12,test,4,0.0,2-Back,1,m,Tue Nov 12 2024 14:55:10 GMT-0500 (Eastern Standard Time),696645.1999998093,109_y_m_d_a.png,I,m,1052,17,1,2068.300000190735,694576.8999996185,9003,VNB,A,15
13,test,4,1.0,2-Back,1,m,Tue Nov 12 2024 14:55:10 GMT-0500 (Eastern Standard Time),698961.5,165_m_m_d_a.png,I,m,1288,18,1,2301.7000002861023,696659.7999997139,9003,VNB,A,16
0,test,5,1.0,2-Back,,,Tue Nov 12 2024 14:55:10 GMT-0500 (Eastern Standard Time),698961.5,071_y_f_d_a.png,I,space,2581,1,1,2301.7000002861023,696659.7999997139,9003,VNB,A,0
0,test,5,1.0,2-Back,,,Tue Nov 12 2024 14:55:10 GMT-0500 (Eastern Standard Time),698961.5,124_o_f_h_a.png,I,space,2581,2,1,2301.7000002861023,696659.7999997139,9003,VNB,A,0
1,test,5,1.0,2-Back,1,z,Tue Nov 12 2024 14:55:10 GMT-0500 (Eastern Standard Time),708345.0,039_o_m_d_a.png,I,z,631,3,1,1637.0,706708.0,9003,VNB,A,1
2,test,5,1.0,2-Back,1,m,Tue Nov 12 2024 14:55:10 GMT-0500 (Eastern Standard Time),710444.8999996185,139_m_f_n_a.png,I,m,1075,4,1,2087.199999809265,708357.6999998093,9003,VNB,A,2
3,test,5,0.0,2-Back,1,m,Tue Nov 12 2024 14:55:10 GMT-0500 (Eastern Standard Time),712477.7999997139,165_m_m_h_a.png,I,m,1008,5,1,2022.0,710455.7999997139,9003,VNB,A,3
4,test,5,0.0,2-Back,1,z,Tue Nov 12 2024 14:55:10 GMT-0500 (Eastern Standard Time),714162.0,071_y_f_n_a.png,I,z,655,6,1,1671.7000002861023,712490.2999997139,9003,VNB,A,4
5,test,5,0.0,2-Back,1,m,Tue Nov 12 2024 14:55:10 GMT-0500 (Eastern Standard Time),716096.7999997139,124_o_f_d_a.png,I,m,908,7,1,1921.4000000953674,714175.3999996185,9003,VNB,A,5
5,test,5,0.0,2-Back,0,m,Tue Nov 12 2024 14:55:10 GMT-0500 (Eastern Standard Time),718695.0999999046,039_o_m_h_a.png,I,z,1567,8,1,2585.7000002861023,716109.3999996185,9003,VNB,A,6
6,test,5,1.0,2-Back,1,z,Tue Nov 12 2024 14:55:10 GMT-0500 (Eastern Standard Time),720695.3999996185,139_m_f_d_a.png,I,z,983,9,1,1986.0,718709.3999996185,9003,VNB,A,7
7,test,5,0.0,2-Back,1,m,Tue Nov 12 2024 14:55:10 GMT-0500 (Eastern Standard Time),722845.5999999046,109_y_m_n_a.png,I,m,1127,10,1,2135.5999999046326,720710.0,9003,VNB,A,8
7,test,5,0.0,2-Back,0,m,Tue Nov 12 2024 14:55:10 GMT-0500 (Eastern Standard Time),725045.1999998093,165_m_m_n_a.png,I,z,1169,11,1,2189.5,722855.6999998093,9003,VNB,A,9
8,test,5,0.0,2-Back,1,m,Tue Nov 12 2024 14:55:10 GMT-0500 (Eastern Standard Time),726945.2999997139,071_y_f_h_a.png,I,m,872,12,1,1886.7999997138977,725058.5,9003,VNB,A,10
9,test,5,0.0,2-Back,1,m,Tue Nov 12 2024 14:55:10 GMT-0500 (Eastern Standard Time),729594.7999997139,109_y_m_d_a.png,I,m,1611,13,1,2631.7999997138977,726963.0,9003,VNB,A,11
10,test,5,1.0,2-Back,1,z,Tue Nov 12 2024 14:55:10 GMT-0500 (Eastern Standard Time),731111.5999999046,139_m_f_h_a.png,I,z,498,14,1,1505.5,729606.0999999046,9003,VNB,A,12
11,test,5,0.0,2-Back,1,m,Tue Nov 12 2024 14:55:10 GMT-0500 (Eastern Standard Time),733395.2999997139,039_o_m_n_a.png,I,m,1254,15,1,2268.5999999046326,731126.6999998093,9003,VNB,A,13
12,test,5,0.0,2-Back,1,m,Tue Nov 12 2024 14:55:10 GMT-0500 (Eastern Standard Time),735895.3999996185,165_m_m_d_a.png,I,m,1467,16,1,2484.5,733410.8999996185,9003,VNB,A,14
13,test,5,0.0,2-Back,1,z,Tue Nov 12 2024 14:55:10 GMT-0500 (Eastern Standard Time),737445.3999996185,124_o_f_n_a.png,I,z,519,17,1,1536.5,735908.8999996185,9003,VNB,A,15
14,test,5,1.0,2-Back,1,m,Tue Nov 12 2024 14:55:10 GMT-0500 (Eastern Standard Time),739445.1999998093,109_y_m_h_a.png,I,m,952,18,1,1983.8000001907349,737461.3999996185,9003,VNB,A,16
