block_c,block_dur,condition,countdown,datetime,endtime,list,multichar_response,project,response,response_time,session_number,start_end,starttime,subject_id,task,task_vers,trial
,,,,Wed Apr 23 2025 08:56:38 GMT-0500 (Central Daylight Time),,,,O,space,516,1,,,7132,WL,B,
prac,,0,,Wed Apr 23 2025 08:56:38 GMT-0500 (Central Daylight Time),,NA,b,O,b,1340,1,,,7132,WL,B,1.0
prac,,0,,Wed Apr 23 2025 08:56:38 GMT-0500 (Central Daylight Time),,NA,bo,O,o,273,1,,,7132,WL,B,1.0
prac,,0,,Wed Apr 23 2025 08:56:38 GMT-0500 (Central Daylight Time),,NA,boo,O,o,166,1,,,7132,WL,B,1.0
prac,,0,,Wed Apr 23 2025 08:56:38 GMT-0500 (Central Daylight Time),,NA,boos,O,s,54,1,,,7132,WL,B,1.0
prac,,0,,Wed Apr 23 2025 08:56:38 GMT-0500 (Central Daylight Time),,NA,boost,O,t,157,1,,,7132,WL,B,1.0
prac,,0,,Wed Apr 23 2025 08:56:38 GMT-0500 (Central Daylight Time),,NA,boostenter,O,enter,2144,1,,,7132,WL,B,1.0
1,1.1499998569488525,learn,58850.00014305115,Wed Apr 23 2025 08:56:38 GMT-0500 (Central Daylight Time),144472.40000003576,A,s,O,s,1133,1,1149.1000000238419,143323.30000001192,7132,WL,B,1.0
1,2.3339998722076416,learn,57666.00012779236,Wed Apr 23 2025 08:56:38 GMT-0500 (Central Daylight Time),145656.60000002384,A,st,O,t,1168,1,2333.300000011921,143323.30000001192,7132,WL,B,1.0
1,2.816999912261963,learn,57183.00008773804,Wed Apr 23 2025 08:56:38 GMT-0500 (Central Daylight Time),146139.80000001192,A,str,O,r,473,1,2816.5,143323.30000001192,7132,WL,B,1.0
1,2.9169998168945312,learn,57083.00018310547,Wed Apr 23 2025 08:56:38 GMT-0500 (Central Daylight Time),146239.70000004768,A,stre,O,e,84,1,2916.400000035763,143323.30000001192,7132,WL,B,1.0
1,3.133999824523926,learn,56866.000175476074,Wed Apr 23 2025 08:56:38 GMT-0500 (Central Daylight Time),146456.70000004768,A,stree,O,e,201,1,3133.400000035763,143323.30000001192,7132,WL,B,1.0
1,3.299999952316284,learn,56700.000047683716,Wed Apr 23 2025 08:56:38 GMT-0500 (Central Daylight Time),146622.90000003576,A,street,O,t,152,1,3299.600000023842,143323.30000001192,7132,WL,B,1.0
1,5.7170000076293945,learn,54282.999992370605,Wed Apr 23 2025 08:56:38 GMT-0500 (Central Daylight Time),149039.5,A,streetenter,O,enter,2409,1,5716.199999988079,143323.30000001192,7132,WL,B,1.0
1,7.31499981880188,learn,52685.00018119812,Wed Apr 23 2025 08:56:38 GMT-0500 (Central Daylight Time),150637.80000001192,A,g,O,g,1585,1,1597.5999999642372,149040.20000004768,7132,WL,B,2.0
1,7.56499981880188,learn,52435.00018119812,Wed Apr 23 2025 08:56:38 GMT-0500 (Central Daylight Time),150887.60000002384,A,gr,O,r,235,1,1847.3999999761581,149040.20000004768,7132,WL,B,2.0
1,7.7149999141693115,learn,52285.00008583069,Wed Apr 23 2025 08:56:38 GMT-0500 (Central Daylight Time),151037.70000004768,A,gra,O,a,129,1,1997.5,149040.20000004768,7132,WL,B,2.0
1,8.132999897003174,learn,51867.000102996826,Wed Apr 23 2025 08:56:38 GMT-0500 (Central Daylight Time),151455.80000001192,A,gras,O,s,411,1,2415.599999964237,149040.20000004768,7132,WL,B,2.0
1,8.332000017166138,learn,51667.99998283386,Wed Apr 23 2025 08:56:38 GMT-0500 (Central Daylight Time),151654.80000001192,A,grass,O,s,178,1,2614.599999964237,149040.20000004768,7132,WL,B,2.0
1,9.280999898910522,learn,50719.00010108948,Wed Apr 23 2025 08:56:38 GMT-0500 (Central Daylight Time),152604.10000002384,A,grassenter,O,enter,938,1,3563.899999976158,149040.20000004768,7132,WL,B,2.0
1,10.198999881744385,learn,49801.000118255615,Wed Apr 23 2025 08:56:38 GMT-0500 (Central Daylight Time),153521.70000004768,A,a,O,a,911,1,917.1000000238419,152604.60000002384,7132,WL,B,3.0
1,10.365000009536743,learn,49634.99999046326,Wed Apr 23 2025 08:56:38 GMT-0500 (Central Daylight Time),153688.0,A,ar,O,r,160,1,1083.3999999761581,152604.60000002384,7132,WL,B,3.0
1,10.763999938964844,learn,49236.000061035156,Wed Apr 23 2025 08:56:38 GMT-0500 (Central Daylight Time),154086.80000001192,A,arn,O,n,385,1,1482.199999988079,152604.60000002384,7132,WL,B,3.0
1,11.245999813079834,learn,48754.000186920166,Wed Apr 23 2025 08:56:38 GMT-0500 (Central Daylight Time),154568.40000003576,A,arnenter,O,enter,475,1,1963.800000011921,152604.60000002384,7132,WL,B,3.0
1,15.61299991607666,learn,44387.00008392334,Wed Apr 23 2025 08:56:38 GMT-0500 (Central Daylight Time),158935.70000004768,A,p,O,p,4361,1,4367.0,154568.70000004768,7132,WL,B,4.0
1,15.980000019073486,learn,44019.999980926514,Wed Apr 23 2025 08:56:38 GMT-0500 (Central Daylight Time),159302.5,A,pu,O,u,344,1,4733.799999952316,154568.70000004768,7132,WL,B,4.0
1,16.378999948501587,learn,43621.00005149841,Wed Apr 23 2025 08:56:38 GMT-0500 (Central Daylight Time),159702.10000002384,A,pup,O,p,377,1,5133.399999976158,154568.70000004768,7132,WL,B,4.0
1,16.828999996185303,learn,43171.0000038147,Wed Apr 23 2025 08:56:38 GMT-0500 (Central Daylight Time),160151.90000003576,A,pupi,O,i,434,1,5583.199999988079,154568.70000004768,7132,WL,B,4.0
1,17.062000036239624,learn,42937.999963760376,Wed Apr 23 2025 08:56:38 GMT-0500 (Central Daylight Time),160385.20000004768,A,pupil,O,l,217,1,5816.5,154568.70000004768,7132,WL,B,4.0
1,17.495999813079834,learn,42504.000186920166,Wed Apr 23 2025 08:56:38 GMT-0500 (Central Daylight Time),160818.60000002384,A,pupilenter,O,enter,409,1,6249.899999976158,154568.70000004768,7132,WL,B,4.0
1,18.0939998626709,learn,41906.0001373291,Wed Apr 23 2025 08:56:38 GMT-0500 (Central Daylight Time),161417.10000002384,A,c,O,c,581,1,598.1000000238419,160819.0,7132,WL,B,5.0
1,18.294999837875366,learn,41705.000162124634,Wed Apr 23 2025 08:56:38 GMT-0500 (Central Daylight Time),161618.30000001192,A,ci,O,i,185,1,799.3000000119209,160819.0,7132,WL,B,5.0
1,18.477999925613403,learn,41522.0000743866,Wed Apr 23 2025 08:56:38 GMT-0500 (Central Daylight Time),161800.80000001192,A,cit,O,t,165,1,981.8000000119209,160819.0,7132,WL,B,5.0
1,18.661999940872192,learn,41338.00005912781,Wed Apr 23 2025 08:56:38 GMT-0500 (Central Daylight Time),161984.70000004768,A,city,O,y,168,1,1165.7000000476837,160819.0,7132,WL,B,5.0
1,19.393999814987183,learn,40606.00018501282,Wed Apr 23 2025 08:56:38 GMT-0500 (Central Daylight Time),162716.70000004768,A,cityenter,O,enter,712,1,1897.7000000476837,160819.0,7132,WL,B,5.0
1,20.977999925613403,learn,39022.0000743866,Wed Apr 23 2025 08:56:38 GMT-0500 (Central Daylight Time),164300.80000001192,A,w,O,w,1564,1,1583.800000011921,162717.0,7132,WL,B,6.0
1,21.15999984741211,learn,38840.00015258789,Wed Apr 23 2025 08:56:38 GMT-0500 (Central Daylight Time),164483.30000001192,A,wi,O,i,171,1,1766.300000011921,162717.0,7132,WL,B,6.0
1,21.84500002861023,learn,38154.99997138977,Wed Apr 23 2025 08:56:38 GMT-0500 (Central Daylight Time),165167.5,A,wif,O,f,663,1,2450.5,162717.0,7132,WL,B,6.0
1,21.89199995994568,learn,38108.00004005432,Wed Apr 23 2025 08:56:38 GMT-0500 (Central Daylight Time),165214.30000001192,A,wife,O,e,33,1,2497.300000011921,162717.0,7132,WL,B,6.0
1,22.644999980926514,learn,37355.000019073486,Wed Apr 23 2025 08:56:38 GMT-0500 (Central Daylight Time),165967.40000003576,A,wifeenter,O,enter,747,1,3250.400000035763,162717.0,7132,WL,B,6.0
1,23.243000030517578,learn,36756.99996948242,Wed Apr 23 2025 08:56:38 GMT-0500 (Central Daylight Time),166565.70000004768,A,f,O,f,587,1,597.9000000357628,165967.80000001192,7132,WL,B,7.0
1,23.426999807357788,learn,36573.00019264221,Wed Apr 23 2025 08:56:38 GMT-0500 (Central Daylight Time),166749.60000002384,A,fi,O,i,170,1,781.8000000119209,165967.80000001192,7132,WL,B,7.0
1,23.55999994277954,learn,36440.00005722046,Wed Apr 23 2025 08:56:38 GMT-0500 (Central Daylight Time),166882.70000004768,A,fir,O,r,117,1,914.9000000357628,165967.80000001192,7132,WL,B,7.0
1,23.65999984741211,learn,36340.00015258789,Wed Apr 23 2025 08:56:38 GMT-0500 (Central Daylight Time),166983.40000003576,A,fire,O,e,77,1,1015.6000000238419,165967.80000001192,7132,WL,B,7.0
1,24.14299988746643,learn,35857.00011253357,Wed Apr 23 2025 08:56:38 GMT-0500 (Central Daylight Time),167465.70000004768,A,firec,O,c,474,1,1497.9000000357628,165967.80000001192,7132,WL,B,7.0
1,24.24399995803833,learn,35756.00004196167,Wed Apr 23 2025 08:56:38 GMT-0500 (Central Daylight Time),167566.70000004768,A,fireca,O,a,79,1,1598.9000000357628,165967.80000001192,7132,WL,B,7.0
1,25.358999967575073,learn,34641.00003242493,Wed Apr 23 2025 08:56:38 GMT-0500 (Central Daylight Time),168681.80000001192,A,firec,O,backspace,1097,1,2714.0,165967.80000001192,7132,WL,B,7.0
1,25.55900001525879,learn,34440.99998474121,Wed Apr 23 2025 08:56:38 GMT-0500 (Central Daylight Time),168882.30000001192,A,fire,O,backspace,183,1,2914.5,165967.80000001192,7132,WL,B,7.0
1,25.991999864578247,learn,34008.00013542175,Wed Apr 23 2025 08:56:38 GMT-0500 (Central Daylight Time),169314.60000002384,A,fireenter,O,enter,423,1,3346.800000011921,165967.80000001192,7132,WL,B,7.0
1,26.90999984741211,learn,33090.00015258789,Wed Apr 23 2025 08:56:38 GMT-0500 (Central Daylight Time),170232.60000002384,A,c,O,c,903,1,917.6999999880791,169314.90000003576,7132,WL,B,8.0
1,27.024999856948853,learn,32975.00014305115,Wed Apr 23 2025 08:56:38 GMT-0500 (Central Daylight Time),170347.80000001192,A,ca,O,a,96,1,1032.8999999761581,169314.90000003576,7132,WL,B,8.0
1,27.408999919891357,learn,32591.000080108643,Wed Apr 23 2025 08:56:38 GMT-0500 (Central Daylight Time),170732.10000002384,A,cam,O,m,372,1,1417.199999988079,169314.90000003576,7132,WL,B,8.0
1,27.656999826431274,learn,32343.000173568726,Wed Apr 23 2025 08:56:38 GMT-0500 (Central Daylight Time),170980.20000004768,A,camp,O,p,238,1,1665.300000011921,169314.90000003576,7132,WL,B,8.0
1,28.990999937057495,learn,31009.000062942505,Wed Apr 23 2025 08:56:38 GMT-0500 (Central Daylight Time),172314.20000004768,A,campenter,O,enter,1328,1,2999.300000011921,169314.90000003576,7132,WL,B,8.0
1,30.77300000190735,learn,29226.99999809265,Wed Apr 23 2025 08:56:38 GMT-0500 (Central Daylight Time),174096.30000001192,A,l,O,l,1767,1,1781.800000011921,172314.5,7132,WL,B,9.0
1,30.94099998474121,learn,29059.00001525879,Wed Apr 23 2025 08:56:38 GMT-0500 (Central Daylight Time),174263.40000003576,A,la,O,a,150,1,1948.9000000357628,172314.5,7132,WL,B,9.0
1,31.090999841690063,learn,28909.000158309937,Wed Apr 23 2025 08:56:38 GMT-0500 (Central Daylight Time),174413.80000001192,A,lak,O,k,130,1,2099.300000011921,172314.5,7132,WL,B,9.0
1,31.222999811172485,learn,28777.000188827515,Wed Apr 23 2025 08:56:38 GMT-0500 (Central Daylight Time),174545.80000001192,A,lake,O,e,124,1,2231.300000011921,172314.5,7132,WL,B,9.0
1,31.756999969482422,learn,28243.000030517578,Wed Apr 23 2025 08:56:38 GMT-0500 (Central Daylight Time),175079.70000004768,A,lakeenter,O,enter,519,1,2765.2000000476837,172314.5,7132,WL,B,9.0
1,34.35699987411499,learn,25643.00012588501,Wed Apr 23 2025 08:56:38 GMT-0500 (Central Daylight Time),177680.40000003576,A,s,O,s,2595,1,2600.400000035763,175080.0,7132,WL,B,10.0
1,34.573999881744385,learn,25426.000118255615,Wed Apr 23 2025 08:56:38 GMT-0500 (Central Daylight Time),177897.70000004768,A,st,O,t,209,1,2817.7000000476837,175080.0,7132,WL,B,10.0
1,34.74000000953674,learn,25259.999990463257,Wed Apr 23 2025 08:56:38 GMT-0500 (Central Daylight Time),178062.80000001192,A,sta,O,a,148,1,2982.800000011921,175080.0,7132,WL,B,10.0
1,34.90599989891052,learn,25094.000101089478,Wed Apr 23 2025 08:56:38 GMT-0500 (Central Daylight Time),178229.10000002384,A,star,O,r,157,1,3149.100000023842,175080.0,7132,WL,B,10.0
1,35.92199993133545,learn,24078.00006866455,Wed Apr 23 2025 08:56:38 GMT-0500 (Central Daylight Time),179244.90000003576,A,starenter,O,enter,996,1,4164.900000035763,175080.0,7132,WL,B,10.0
1,45.253000020980835,learn,14746.999979019165,Wed Apr 23 2025 08:56:38 GMT-0500 (Central Daylight Time),188576.60000002384,A,enter,O,enter,9326,1,9331.399999976158,179245.20000004768,7132,WL,B,11.0
1,45.51799988746643,learn,14482.00011253357,Wed Apr 23 2025 08:56:38 GMT-0500 (Central Daylight Time),188841.20000004768,A,enter,O,enter,257,1,264.30000001192093,188576.90000003576,7132,WL,B,12.0
1,45.7189998626709,learn,14281.000137329102,Wed Apr 23 2025 08:56:38 GMT-0500 (Central Daylight Time),189041.70000004768,A,enter,O,enter,192,1,200.20000004768372,188841.5,7132,WL,B,13.0
1,46.21799993515015,learn,13782.000064849854,Wed Apr 23 2025 08:56:38 GMT-0500 (Central Daylight Time),189541.40000003576,A,enter,O,enter,488,1,499.19999998807907,189042.20000004768,7132,WL,B,14.0
1,46.651000022888184,learn,13348.999977111816,Wed Apr 23 2025 08:56:38 GMT-0500 (Central Daylight Time),189974.5,A,enter,O,enter,420,1,432.89999997615814,189541.60000002384,7132,WL,B,15.0
2,0.8999998569488525,learn,59100.00014305115,Wed Apr 23 2025 08:56:38 GMT-0500 (Central Daylight Time),262618.5,A,c,O,c,878,1,899.6999999880791,261718.80000001192,7132,WL,B,1.0
2,1.116999864578247,learn,58883.00013542175,Wed Apr 23 2025 08:56:38 GMT-0500 (Central Daylight Time),262835.90000003576,A,cl,O,l,199,1,1117.1000000238419,261718.80000001192,7132,WL,B,1.0
2,1.3659999370574951,learn,58634.000062942505,Wed Apr 23 2025 08:56:38 GMT-0500 (Central Daylight Time),263084.5,A,clo,O,o,228,1,1365.699999988079,261718.80000001192,7132,WL,B,1.0
2,2.2339999675750732,learn,57766.00003242493,Wed Apr 23 2025 08:56:38 GMT-0500 (Central Daylight Time),263952.3000000119,A,cloc,O,c,852,1,2233.5,261718.80000001192,7132,WL,B,1.0
2,2.432999849319458,learn,57567.00015068054,Wed Apr 23 2025 08:56:38 GMT-0500 (Central Daylight Time),264151.3000000119,A,clock,O,k,177,1,2432.5,261718.80000001192,7132,WL,B,1.0
2,3.1670000553131104,learn,56832.99994468689,Wed Apr 23 2025 08:56:38 GMT-0500 (Central Daylight Time),264885.3000000119,A,clockenter,O,enter,711,1,3166.5,261718.80000001192,7132,WL,B,1.0
2,3.450000047683716,learn,56549.999952316284,Wed Apr 23 2025 08:56:38 GMT-0500 (Central Daylight Time),265169.0,A,s,O,s,268,1,283.39999997615814,264885.60000002384,7132,WL,B,2.0
2,3.631999969482422,learn,56368.00003051758,Wed Apr 23 2025 08:56:38 GMT-0500 (Central Daylight Time),265350.8000000119,A,sk,O,k,168,1,465.19999998807907,264885.60000002384,7132,WL,B,2.0
2,3.8309998512268066,learn,56169.00014877319,Wed Apr 23 2025 08:56:38 GMT-0500 (Central Daylight Time),265550.10000002384,A,ski,O,i,187,1,664.5,264885.60000002384,7132,WL,B,2.0
2,4.066999912261963,learn,55933.00008773804,Wed Apr 23 2025 08:56:38 GMT-0500 (Central Daylight Time),265786.0,A,skin,O,n,229,1,900.3999999761581,264885.60000002384,7132,WL,B,2.0
2,4.366999864578247,learn,55633.00013542175,Wed Apr 23 2025 08:56:38 GMT-0500 (Central Daylight Time),266085.2000000477,A,skinenter,O,enter,287,1,1199.6000000238419,264885.60000002384,7132,WL,B,2.0
2,5.3480000495910645,learn,54651.999950408936,Wed Apr 23 2025 08:56:38 GMT-0500 (Central Daylight Time),267066.3000000119,A,s,O,s,972,1,980.6999999880791,266085.60000002384,7132,WL,B,3.0
2,5.598999977111816,learn,54401.00002288818,Wed Apr 23 2025 08:56:38 GMT-0500 (Central Daylight Time),267318.0,A,st,O,t,230,1,1232.3999999761581,266085.60000002384,7132,WL,B,3.0
2,5.815999984741211,learn,54184.00001525879,Wed Apr 23 2025 08:56:38 GMT-0500 (Central Daylight Time),267534.3000000119,A,str,O,r,203,1,1448.699999988079,266085.60000002384,7132,WL,B,3.0
2,5.930999994277954,learn,54069.000005722046,Wed Apr 23 2025 08:56:38 GMT-0500 (Central Daylight Time),267650.2000000477,A,stre,O,e,99,1,1564.6000000238419,266085.60000002384,7132,WL,B,3.0
2,6.115999937057495,learn,53884.000062942505,Wed Apr 23 2025 08:56:38 GMT-0500 (Central Daylight Time),267834.60000002384,A,stree,O,e,177,1,1749.0,266085.60000002384,7132,WL,B,3.0
2,6.281999826431274,learn,53718.000173568726,Wed Apr 23 2025 08:56:38 GMT-0500 (Central Daylight Time),268000.90000003576,A,street,O,t,152,1,1915.300000011921,266085.60000002384,7132,WL,B,3.0
2,6.513999938964844,learn,53486.000061035156,Wed Apr 23 2025 08:56:38 GMT-0500 (Central Daylight Time),268233.0,A,streetenter,O,enter,227,1,2147.399999976158,266085.60000002384,7132,WL,B,3.0
2,7.281999826431274,learn,52718.000173568726,Wed Apr 23 2025 08:56:38 GMT-0500 (Central Daylight Time),269000.7000000477,A,g,O,g,753,1,767.5,268233.2000000477,7132,WL,B,4.0
2,7.546999931335449,learn,52453.00006866455,Wed Apr 23 2025 08:56:38 GMT-0500 (Central Daylight Time),269265.5,A,gr,O,r,248,1,1032.2999999523163,268233.2000000477,7132,WL,B,4.0
2,7.681999921798706,learn,52318.000078201294,Wed Apr 23 2025 08:56:38 GMT-0500 (Central Daylight Time),269401.0,A,gra,O,a,118,1,1167.7999999523163,268233.2000000477,7132,WL,B,4.0
2,7.948999881744385,learn,52051.000118255615,Wed Apr 23 2025 08:56:38 GMT-0500 (Central Daylight Time),269667.10000002384,A,gras,O,s,248,1,1433.8999999761581,268233.2000000477,7132,WL,B,4.0
2,8.148000001907349,learn,51851.99999809265,Wed Apr 23 2025 08:56:38 GMT-0500 (Central Daylight Time),269866.2000000477,A,grass,O,s,182,1,1633.0,268233.2000000477,7132,WL,B,4.0
2,9.580999851226807,learn,50419.00014877319,Wed Apr 23 2025 08:56:38 GMT-0500 (Central Daylight Time),271299.60000002384,A,grassenter,O,enter,1423,1,3066.399999976158,268233.2000000477,7132,WL,B,4.0
2,10.313999891281128,learn,49686.00010871887,Wed Apr 23 2025 08:56:38 GMT-0500 (Central Daylight Time),272032.2000000477,A,c,O,c,717,1,732.4000000357628,271299.8000000119,7132,WL,B,5.0
2,10.396999835968018,learn,49603.00016403198,Wed Apr 23 2025 08:56:38 GMT-0500 (Central Daylight Time),272115.8000000119,A,ca,O,a,74,1,816.0,271299.8000000119,7132,WL,B,5.0
2,10.714999914169312,learn,49285.00008583069,Wed Apr 23 2025 08:56:38 GMT-0500 (Central Daylight Time),272433.60000002384,A,cab,O,b,311,1,1133.800000011921,271299.8000000119,7132,WL,B,5.0
2,10.912999868392944,learn,49087.000131607056,Wed Apr 23 2025 08:56:38 GMT-0500 (Central Daylight Time),272632.10000002384,A,cabi,O,i,181,1,1332.300000011921,271299.8000000119,7132,WL,B,5.0
2,11.128999948501587,learn,48871.00005149841,Wed Apr 23 2025 08:56:38 GMT-0500 (Central Daylight Time),272848.0,A,cabin,O,n,201,1,1548.199999988079,271299.8000000119,7132,WL,B,5.0
2,11.52999997138977,learn,48470.00002861023,Wed Apr 23 2025 08:56:38 GMT-0500 (Central Daylight Time),273248.60000002384,A,cabinenter,O,enter,394,1,1948.800000011921,271299.8000000119,7132,WL,B,5.0
2,12.04699993133545,learn,47953.00006866455,Wed Apr 23 2025 08:56:38 GMT-0500 (Central Daylight Time),273765.5,A,l,O,l,496,1,516.5999999642372,273248.90000003576,7132,WL,B,6.0
2,12.180999994277954,learn,47819.000005722046,Wed Apr 23 2025 08:56:38 GMT-0500 (Central Daylight Time),273899.60000002384,A,la,O,a,123,1,650.6999999880791,273248.90000003576,7132,WL,B,6.0
2,12.379999876022339,learn,47620.00012397766,Wed Apr 23 2025 08:56:38 GMT-0500 (Central Daylight Time),274098.2000000477,A,lak,O,k,193,1,849.3000000119209,273248.90000003576,7132,WL,B,6.0
2,12.51199984550476,learn,47488.00015449524,Wed Apr 23 2025 08:56:38 GMT-0500 (Central Daylight Time),274230.2000000477,A,lake,O,e,118,1,981.3000000119209,273248.90000003576,7132,WL,B,6.0
2,13.513000011444092,learn,46486.99998855591,Wed Apr 23 2025 08:56:38 GMT-0500 (Central Daylight Time),275231.40000003576,A,lakea,O,a,982,1,1982.5,273248.90000003576,7132,WL,B,6.0
2,13.679999828338623,learn,46320.00017166138,Wed Apr 23 2025 08:56:38 GMT-0500 (Central Daylight Time),275398.3000000119,A,lakear,O,r,144,1,2149.399999976158,273248.90000003576,7132,WL,B,6.0
2,13.796000003814697,learn,46203.9999961853,Wed Apr 23 2025 08:56:38 GMT-0500 (Central Daylight Time),275514.8000000119,A,lakeare,O,e,107,1,2265.899999976158,273248.90000003576,7132,WL,B,6.0
2,14.279000043869019,learn,45720.99995613098,Wed Apr 23 2025 08:56:38 GMT-0500 (Central Daylight Time),275997.90000003576,A,lakear,O,backspace,469,1,2749.0,273248.90000003576,7132,WL,B,6.0
2,14.562999963760376,learn,45437.000036239624,Wed Apr 23 2025 08:56:38 GMT-0500 (Central Daylight Time),276281.3000000119,A,lakearm,O,m,267,1,3032.399999976158,273248.90000003576,7132,WL,B,6.0
2,15.513999938964844,learn,44486.000061035156,Wed Apr 23 2025 08:56:38 GMT-0500 (Central Daylight Time),277232.2000000477,A,lakear,O,backspace,944,1,3983.300000011921,273248.90000003576,7132,WL,B,6.0
2,15.71399998664856,learn,44286.00001335144,Wed Apr 23 2025 08:56:38 GMT-0500 (Central Daylight Time),277432.5,A,lakea,O,backspace,195,1,4183.599999964237,273248.90000003576,7132,WL,B,6.0
2,15.896999835968018,learn,44103.00016403198,Wed Apr 23 2025 08:56:38 GMT-0500 (Central Daylight Time),277615.7000000477,A,lake,O,backspace,177,1,4366.800000011921,273248.90000003576,7132,WL,B,6.0
2,16.57799983024597,learn,43422.00016975403,Wed Apr 23 2025 08:56:38 GMT-0500 (Central Daylight Time),278296.3000000119,A,lakeenter,O,enter,664,1,5047.399999976158,273248.90000003576,7132,WL,B,6.0
2,17.161999940872192,learn,42838.00005912781,Wed Apr 23 2025 08:56:38 GMT-0500 (Central Daylight Time),278880.40000003576,A,a,O,a,571,1,583.8000000119209,278296.60000002384,7132,WL,B,7.0
2,17.361999988555908,learn,42638.00001144409,Wed Apr 23 2025 08:56:38 GMT-0500 (Central Daylight Time),279080.8000000119,A,ar,O,r,185,1,784.1999999880791,278296.60000002384,7132,WL,B,7.0
2,17.578999996185303,learn,42421.0000038147,Wed Apr 23 2025 08:56:38 GMT-0500 (Central Daylight Time),279297.60000002384,A,arm,O,m,200,1,1001.0,278296.60000002384,7132,WL,B,7.0
2,17.92899990081787,learn,42071.00009918213,Wed Apr 23 2025 08:56:38 GMT-0500 (Central Daylight Time),279647.60000002384,A,armenter,O,enter,345,1,1351.0,278296.60000002384,7132,WL,B,7.0
2,18.34500002861023,learn,41654.99997138977,Wed Apr 23 2025 08:56:38 GMT-0500 (Central Daylight Time),280063.90000003576,A,d,O,d,394,1,416.0,279647.90000003576,7132,WL,B,8.0
2,18.64400005340576,learn,41355.99994659424,Wed Apr 23 2025 08:56:38 GMT-0500 (Central Daylight Time),280363.10000002384,A,do,O,o,290,1,715.1999999880791,279647.90000003576,7132,WL,B,8.0
2,18.82699990272522,learn,41173.00009727478,Wed Apr 23 2025 08:56:38 GMT-0500 (Central Daylight Time),280545.90000003576,A,doo,O,o,166,1,898.0,279647.90000003576,7132,WL,B,8.0
2,19.043999910354614,learn,40956.000089645386,Wed Apr 23 2025 08:56:38 GMT-0500 (Central Daylight Time),280763.2000000477,A,door,O,r,199,1,1115.300000011921,279647.90000003576,7132,WL,B,8.0
2,22.376999855041504,learn,37623.000144958496,Wed Apr 23 2025 08:56:38 GMT-0500 (Central Daylight Time),284095.7000000477,A,doorw,O,w,3312,1,4447.800000011921,279647.90000003576,7132,WL,B,8.0
2,22.55999994277954,learn,37440.00005722046,Wed Apr 23 2025 08:56:38 GMT-0500 (Central Daylight Time),284278.40000003576,A,doorwi,O,i,169,1,4630.5,279647.90000003576,7132,WL,B,8.0
2,22.744999885559082,learn,37255.00011444092,Wed Apr 23 2025 08:56:38 GMT-0500 (Central Daylight Time),284464.0,A,doorwin,O,n,179,1,4816.099999964237,279647.90000003576,7132,WL,B,8.0
2,23.39199995994568,learn,36608.00004005432,Wed Apr 23 2025 08:56:38 GMT-0500 (Central Daylight Time),285110.5,A,doorwind,O,d,633,1,5462.599999964237,279647.90000003576,7132,WL,B,8.0
2,23.55999994277954,learn,36440.00005722046,Wed Apr 23 2025 08:56:38 GMT-0500 (Central Daylight Time),285278.7000000477,A,doorwindo,O,o,146,1,5630.800000011921,279647.90000003576,7132,WL,B,8.0
2,23.72599983215332,learn,36274.00016784668,Wed Apr 23 2025 08:56:38 GMT-0500 (Central Daylight Time),285444.8000000119,A,doorwindow,O,w,155,1,5796.899999976158,279647.90000003576,7132,WL,B,8.0
2,24.542999982833862,learn,35457.00001716614,Wed Apr 23 2025 08:56:38 GMT-0500 (Central Daylight Time),286261.8000000119,A,doorwindo,O,backspace,797,1,6613.899999976158,279647.90000003576,7132,WL,B,8.0
2,24.743000030517578,learn,35256.99996948242,Wed Apr 23 2025 08:56:38 GMT-0500 (Central Daylight Time),286461.60000002384,A,doorwind,O,backspace,178,1,6813.699999988079,279647.90000003576,7132,WL,B,8.0
2,24.927000045776367,learn,35072.99995422363,Wed Apr 23 2025 08:56:38 GMT-0500 (Central Daylight Time),286645.3000000119,A,doorwin,O,backspace,163,1,6997.399999976158,279647.90000003576,7132,WL,B,8.0
2,25.109999895095825,learn,34890.000104904175,Wed Apr 23 2025 08:56:38 GMT-0500 (Central Daylight Time),286829.10000002384,A,doorwi,O,backspace,163,1,7181.199999988079,279647.90000003576,7132,WL,B,8.0
2,25.276000022888184,learn,34723.99997711182,Wed Apr 23 2025 08:56:38 GMT-0500 (Central Daylight Time),286994.7000000477,A,doorw,O,backspace,149,1,7346.800000011921,279647.90000003576,7132,WL,B,8.0
2,25.64400005340576,learn,34355.99994659424,Wed Apr 23 2025 08:56:38 GMT-0500 (Central Daylight Time),287362.2000000477,A,door,O,backspace,361,1,7714.300000011921,279647.90000003576,7132,WL,B,8.0
2,26.174999952316284,learn,33825.000047683716,Wed Apr 23 2025 08:56:38 GMT-0500 (Central Daylight Time),287893.90000003576,A,doorenter,O,enter,513,1,8246.0,279647.90000003576,7132,WL,B,8.0
2,26.792999982833862,learn,33207.00001716614,Wed Apr 23 2025 08:56:38 GMT-0500 (Central Daylight Time),288511.8000000119,A,w,O,w,612,1,617.5999999642372,287894.2000000477,7132,WL,B,9.0
2,27.307999849319458,learn,32692.000150680542,Wed Apr 23 2025 08:56:38 GMT-0500 (Central Daylight Time),289026.7000000477,A,wi,O,i,506,1,1132.5,287894.2000000477,7132,WL,B,9.0
2,27.54200005531311,learn,32457.99994468689,Wed Apr 23 2025 08:56:38 GMT-0500 (Central Daylight Time),289260.60000002384,A,win,O,n,214,1,1366.3999999761581,287894.2000000477,7132,WL,B,9.0
2,27.825000047683716,learn,32174.999952316284,Wed Apr 23 2025 08:56:38 GMT-0500 (Central Daylight Time),289543.8000000119,A,wind,O,d,269,1,1649.5999999642372,287894.2000000477,7132,WL,B,9.0
2,27.991999864578247,learn,32008.000135421753,Wed Apr 23 2025 08:56:38 GMT-0500 (Central Daylight Time),289710.8000000119,A,windo,O,o,145,1,1816.5999999642372,287894.2000000477,7132,WL,B,9.0
2,28.158999919891357,learn,31841.000080108643,Wed Apr 23 2025 08:56:38 GMT-0500 (Central Daylight Time),289877.8000000119,A,window,O,w,155,1,1983.5999999642372,287894.2000000477,7132,WL,B,9.0
2,28.990999937057495,learn,31009.000062942505,Wed Apr 23 2025 08:56:38 GMT-0500 (Central Daylight Time),290709.60000002384,A,windowenter,O,enter,819,1,2815.399999976158,287894.2000000477,7132,WL,B,9.0
2,29.557999849319458,learn,30442.000150680542,Wed Apr 23 2025 08:56:38 GMT-0500 (Central Daylight Time),291276.90000003576,A,l,O,l,557,1,567.0,290709.90000003576,7132,WL,B,10.0
2,29.69000005722046,learn,30309.99994277954,Wed Apr 23 2025 08:56:38 GMT-0500 (Central Daylight Time),291409.10000002384,A,la,O,a,112,1,699.1999999880791,290709.90000003576,7132,WL,B,10.0
2,29.822999954223633,learn,30177.000045776367,Wed Apr 23 2025 08:56:38 GMT-0500 (Central Daylight Time),291541.7000000477,A,lak,O,k,121,1,831.8000000119209,290709.90000003576,7132,WL,B,10.0
2,29.973999977111816,learn,30026.000022888184,Wed Apr 23 2025 08:56:38 GMT-0500 (Central Daylight Time),291692.3000000119,A,lake,O,e,142,1,982.3999999761581,290709.90000003576,7132,WL,B,10.0
2,30.907999992370605,learn,29092.000007629395,Wed Apr 23 2025 08:56:38 GMT-0500 (Central Daylight Time),292626.5,A,lakeenter,O,enter,920,1,1916.5999999642372,290709.90000003576,7132,WL,B,10.0
2,31.323999881744385,learn,28676.000118255615,Wed Apr 23 2025 08:56:38 GMT-0500 (Central Daylight Time),293042.3000000119,A,w,O,w,399,1,415.30000001192093,292627.0,7132,WL,B,11.0
2,31.506999969482422,learn,28493.000030517578,Wed Apr 23 2025 08:56:38 GMT-0500 (Central Daylight Time),293225.7000000477,A,wi,O,i,177,1,598.7000000476837,292627.0,7132,WL,B,11.0
2,32.03999996185303,learn,27960.000038146973,Wed Apr 23 2025 08:56:38 GMT-0500 (Central Daylight Time),293758.5,A,wif,O,f,510,1,1131.5,292627.0,7132,WL,B,11.0
2,32.15599989891052,learn,27844.000101089478,Wed Apr 23 2025 08:56:38 GMT-0500 (Central Daylight Time),293875.0,A,wife,O,e,98,1,1248.0,292627.0,7132,WL,B,11.0
2,32.82299995422363,learn,27177.000045776367,Wed Apr 23 2025 08:56:38 GMT-0500 (Central Daylight Time),294541.60000002384,A,wifeenter,O,enter,645,1,1914.6000000238419,292627.0,7132,WL,B,11.0
2,34.02300000190735,learn,25976.99999809265,Wed Apr 23 2025 08:56:38 GMT-0500 (Central Daylight Time),295742.10000002384,A,p,O,p,1190,1,1200.199999988079,294541.90000003576,7132,WL,B,12.0
2,34.33899998664856,learn,25661.00001335144,Wed Apr 23 2025 08:56:38 GMT-0500 (Central Daylight Time),296057.5,A,pu,O,u,300,1,1515.5999999642372,294541.90000003576,7132,WL,B,12.0
2,34.556999921798706,learn,25443.000078201294,Wed Apr 23 2025 08:56:38 GMT-0500 (Central Daylight Time),296275.3000000119,A,pup,O,p,206,1,1733.3999999761581,294541.90000003576,7132,WL,B,12.0
2,35.42199993133545,learn,24578.00006866455,Wed Apr 23 2025 08:56:38 GMT-0500 (Central Daylight Time),297140.8000000119,A,pupi,O,i,854,1,2598.899999976158,294541.90000003576,7132,WL,B,12.0
2,35.6729998588562,learn,24327.0001411438,Wed Apr 23 2025 08:56:38 GMT-0500 (Central Daylight Time),297391.7000000477,A,pupil,O,l,243,1,2849.800000011921,294541.90000003576,7132,WL,B,12.0
2,36.704999923706055,learn,23295.000076293945,Wed Apr 23 2025 08:56:38 GMT-0500 (Central Daylight Time),298423.60000002384,A,pupilenter,O,enter,1017,1,3881.699999988079,294541.90000003576,7132,WL,B,12.0
2,41.13800001144409,learn,18861.99998855591,Wed Apr 23 2025 08:56:38 GMT-0500 (Central Daylight Time),302856.7000000477,A,s,O,s,4428,1,4432.800000011921,298423.90000003576,7132,WL,B,13.0
2,41.40299987792969,learn,18597.000122070312,Wed Apr 23 2025 08:56:38 GMT-0500 (Central Daylight Time),303121.8000000119,A,st,O,t,258,1,4697.899999976158,298423.90000003576,7132,WL,B,13.0
2,41.65400004386902,learn,18345.99995613098,Wed Apr 23 2025 08:56:38 GMT-0500 (Central Daylight Time),303373.10000002384,A,str,O,r,232,1,4949.199999988079,298423.90000003576,7132,WL,B,13.0
2,41.73599982261658,learn,18264.000177383423,Wed Apr 23 2025 08:56:38 GMT-0500 (Central Daylight Time),303455.0,A,stre,O,e,76,1,5031.099999964237,298423.90000003576,7132,WL,B,13.0
2,41.9539999961853,learn,18046.000003814697,Wed Apr 23 2025 08:56:38 GMT-0500 (Central Daylight Time),303673.10000002384,A,stree,O,e,204,1,5249.199999988079,298423.90000003576,7132,WL,B,13.0
2,42.103999853134155,learn,17896.000146865845,Wed Apr 23 2025 08:56:38 GMT-0500 (Central Daylight Time),303823.60000002384,A,street,O,t,145,1,5399.699999988079,298423.90000003576,7132,WL,B,13.0
2,43.519999980926514,learn,16480.000019073486,Wed Apr 23 2025 08:56:38 GMT-0500 (Central Daylight Time),305238.90000003576,A,streetenter,O,enter,1401,1,6815.0,298423.90000003576,7132,WL,B,13.0
2,47.01799988746643,learn,12982.00011253357,Wed Apr 23 2025 08:56:38 GMT-0500 (Central Daylight Time),308737.5,A,c,O,c,3493,1,3498.399999976158,305239.10000002384,7132,WL,B,14.0
2,47.20099997520447,learn,12799.000024795532,Wed Apr 23 2025 08:56:38 GMT-0500 (Central Daylight Time),308920.60000002384,A,ci,O,i,174,1,3681.5,305239.10000002384,7132,WL,B,14.0
2,47.3529999256134,learn,12647.000074386597,Wed Apr 23 2025 08:56:38 GMT-0500 (Central Daylight Time),309071.8000000119,A,cit,O,t,142,1,3832.699999988079,305239.10000002384,7132,WL,B,14.0
2,47.53699994087219,learn,12463.000059127808,Wed Apr 23 2025 08:56:38 GMT-0500 (Central Daylight Time),309255.90000003576,A,city,O,y,156,1,4016.800000011921,305239.10000002384,7132,WL,B,14.0
2,47.85199999809265,learn,12148.000001907349,Wed Apr 23 2025 08:56:38 GMT-0500 (Central Daylight Time),309570.7000000477,A,cityenter,O,enter,296,1,4331.600000023842,305239.10000002384,7132,WL,B,14.0
2,51.401000022888184,learn,8598.999977111816,Wed Apr 23 2025 08:56:38 GMT-0500 (Central Daylight Time),313120.2000000477,A,g,O,g,3543,1,3549.300000011921,309570.90000003576,7132,WL,B,15.0
2,51.651000022888184,learn,8348.999977111816,Wed Apr 23 2025 08:56:38 GMT-0500 (Central Daylight Time),313369.90000003576,A,gr,O,r,231,1,3799.0,309570.90000003576,7132,WL,B,15.0
2,51.76799988746643,learn,8232.00011253357,Wed Apr 23 2025 08:56:38 GMT-0500 (Central Daylight Time),313486.8000000119,A,gra,O,a,101,1,3915.899999976158,309570.90000003576,7132,WL,B,15.0
2,52.20199990272522,learn,7798.00009727478,Wed Apr 23 2025 08:56:38 GMT-0500 (Central Daylight Time),313920.8000000119,A,gras,O,s,427,1,4349.899999976158,309570.90000003576,7132,WL,B,15.0
2,52.383999824523926,learn,7616.000175476074,Wed Apr 23 2025 08:56:38 GMT-0500 (Central Daylight Time),314103.5,A,grass,O,s,167,1,4532.599999964237,309570.90000003576,7132,WL,B,15.0
2,53.931999921798706,learn,6068.000078201294,Wed Apr 23 2025 08:56:38 GMT-0500 (Central Daylight Time),315650.8000000119,A,grassenter,O,enter,1533,1,6079.899999976158,309570.90000003576,7132,WL,B,15.0
3,0.4330000877380371,learn,59566.99991226196,Wed Apr 23 2025 08:56:38 GMT-0500 (Central Daylight Time),383331.3000000119,A,s,O,s,414,1,432.80000001192093,382898.5,7132,WL,B,1.0
3,0.6990001201629639,learn,59300.999879837036,Wed Apr 23 2025 08:56:38 GMT-0500 (Central Daylight Time),383597.0,A,st,O,t,255,1,698.5,382898.5,7132,WL,B,1.0
3,1.5150001049041748,learn,58484.999895095825,Wed Apr 23 2025 08:56:38 GMT-0500 (Central Daylight Time),384413.2000000477,A,str,O,r,796,1,1514.7000000476837,382898.5,7132,WL,B,1.0
3,1.6319999694824219,learn,58368.00003051758,Wed Apr 23 2025 08:56:38 GMT-0500 (Central Daylight Time),384530.2000000477,A,stre,O,e,99,1,1631.7000000476837,382898.5,7132,WL,B,1.0
3,1.8340001106262207,learn,58165.99988937378,Wed Apr 23 2025 08:56:38 GMT-0500 (Central Daylight Time),384732.2000000477,A,stree,O,e,177,1,1833.7000000476837,382898.5,7132,WL,B,1.0
3,2.0310001373291016,learn,57968.9998626709,Wed Apr 23 2025 08:56:38 GMT-0500 (Central Daylight Time),384929.7000000477,A,street,O,t,179,1,2031.2000000476837,382898.5,7132,WL,B,1.0
3,3.2150001525878906,learn,56784.99984741211,Wed Apr 23 2025 08:56:38 GMT-0500 (Central Daylight Time),386113.5,A,streetenter,O,enter,1175,1,3215.0,382898.5,7132,WL,B,1.0
3,3.6470000743865967,learn,56352.9999256134,Wed Apr 23 2025 08:56:38 GMT-0500 (Central Daylight Time),386545.60000002384,A,g,O,g,424,1,431.80000001192093,386113.8000000119,7132,WL,B,2.0
3,3.9820001125335693,learn,56017.99988746643,Wed Apr 23 2025 08:56:38 GMT-0500 (Central Daylight Time),386880.10000002384,A,gr,O,r,328,1,766.3000000119209,386113.8000000119,7132,WL,B,2.0
3,4.130000114440918,learn,55869.99988555908,Wed Apr 23 2025 08:56:38 GMT-0500 (Central Daylight Time),387028.40000003576,A,gra,O,a,129,1,914.6000000238419,386113.8000000119,7132,WL,B,2.0
3,4.546999931335449,learn,55453.00006866455,Wed Apr 23 2025 08:56:38 GMT-0500 (Central Daylight Time),387445.60000002384,A,gras,O,s,404,1,1331.800000011921,386113.8000000119,7132,WL,B,2.0
3,4.730999946594238,learn,55269.00005340576,Wed Apr 23 2025 08:56:38 GMT-0500 (Central Daylight Time),387629.60000002384,A,grass,O,s,164,1,1515.800000011921,386113.8000000119,7132,WL,B,2.0
3,5.380000114440918,learn,54619.99988555908,Wed Apr 23 2025 08:56:38 GMT-0500 (Central Daylight Time),388278.5,A,grassenter,O,enter,627,1,2164.699999988079,386113.8000000119,7132,WL,B,2.0
3,5.749000072479248,learn,54250.99992752075,Wed Apr 23 2025 08:56:38 GMT-0500 (Central Daylight Time),388647.10000002384,A,d,O,d,356,1,368.39999997615814,388278.7000000477,7132,WL,B,3.0
3,6.29800009727478,learn,53701.99990272522,Wed Apr 23 2025 08:56:38 GMT-0500 (Central Daylight Time),389196.2000000477,A,do,O,o,539,1,917.5,388278.7000000477,7132,WL,B,3.0
3,6.480000019073486,learn,53519.999980926514,Wed Apr 23 2025 08:56:38 GMT-0500 (Central Daylight Time),389378.5,A,doo,O,o,164,1,1099.7999999523163,388278.7000000477,7132,WL,B,3.0
3,6.680000066757202,learn,53319.9999332428,Wed Apr 23 2025 08:56:38 GMT-0500 (Central Daylight Time),389578.90000003576,A,door,O,r,194,1,1300.199999988079,388278.7000000477,7132,WL,B,3.0
3,7.230000019073486,learn,52769.999980926514,Wed Apr 23 2025 08:56:38 GMT-0500 (Central Daylight Time),390128.7000000477,A,doorenter,O,enter,542,1,1850.0,388278.7000000477,7132,WL,B,3.0
3,7.815000057220459,learn,52184.99994277954,Wed Apr 23 2025 08:56:38 GMT-0500 (Central Daylight Time),390713.0,A,a,O,a,579,1,584.0,390129.0,7132,WL,B,4.0
3,7.996000051498413,learn,52003.99994850159,Wed Apr 23 2025 08:56:38 GMT-0500 (Central Daylight Time),390894.8000000119,A,ar,O,r,160,1,765.8000000119209,390129.0,7132,WL,B,4.0
3,8.38100004196167,learn,51618.99995803833,Wed Apr 23 2025 08:56:38 GMT-0500 (Central Daylight Time),391279.0,A,arm,O,m,369,1,1150.0,390129.0,7132,WL,B,4.0
3,9.01200008392334,learn,50987.99991607666,Wed Apr 23 2025 08:56:38 GMT-0500 (Central Daylight Time),391910.40000003576,A,armenter,O,enter,618,1,1781.4000000357628,390129.0,7132,WL,B,4.0
3,10.896000146865845,learn,49103.999853134155,Wed Apr 23 2025 08:56:38 GMT-0500 (Central Daylight Time),393794.40000003576,A,s,O,s,1869,1,1883.699999988079,391910.7000000477,7132,WL,B,5.0
3,11.128999948501587,learn,48871.00005149841,Wed Apr 23 2025 08:56:38 GMT-0500 (Central Daylight Time),394027.0,A,st,O,t,225,1,2116.2999999523163,391910.7000000477,7132,WL,B,5.0
3,11.311000108718872,learn,48688.99989128113,Wed Apr 23 2025 08:56:38 GMT-0500 (Central Daylight Time),394209.60000002384,A,sta,O,a,161,1,2298.899999976158,391910.7000000477,7132,WL,B,5.0
3,11.496999979019165,learn,48503.000020980835,Wed Apr 23 2025 08:56:38 GMT-0500 (Central Daylight Time),394395.0,A,star,O,r,178,1,2484.2999999523163,391910.7000000477,7132,WL,B,5.0
3,12.111999988555908,learn,47888.00001144409,Wed Apr 23 2025 08:56:38 GMT-0500 (Central Daylight Time),395010.3000000119,A,starenter,O,enter,605,1,3099.599999964237,391910.7000000477,7132,WL,B,5.0
3,14.712000131607056,learn,45287.999868392944,Wed Apr 23 2025 08:56:38 GMT-0500 (Central Daylight Time),397610.2000000477,A,w,O,w,2595,1,2599.600000023842,395010.60000002384,7132,WL,B,6.0
3,14.91100001335144,learn,45088.99998664856,Wed Apr 23 2025 08:56:38 GMT-0500 (Central Daylight Time),397809.60000002384,A,wi,O,i,184,1,2799.0,395010.60000002384,7132,WL,B,6.0
3,15.177000045776367,learn,44822.99995422363,Wed Apr 23 2025 08:56:38 GMT-0500 (Central Daylight Time),398075.8000000119,A,win,O,n,257,1,3065.199999988079,395010.60000002384,7132,WL,B,6.0
3,15.377000093460083,learn,44622.99990653992,Wed Apr 23 2025 08:56:38 GMT-0500 (Central Daylight Time),398275.3000000119,A,wind,O,d,182,1,3264.699999988079,395010.60000002384,7132,WL,B,6.0
3,15.57800006866455,learn,44421.99993133545,Wed Apr 23 2025 08:56:38 GMT-0500 (Central Daylight Time),398476.60000002384,A,windo,O,o,190,1,3466.0,395010.60000002384,7132,WL,B,6.0
3,15.74399995803833,learn,44256.00004196167,Wed Apr 23 2025 08:56:38 GMT-0500 (Central Daylight Time),398642.10000002384,A,window,O,w,158,1,3631.5,395010.60000002384,7132,WL,B,6.0
3,16.07800006866455,learn,43921.99993133545,Wed Apr 23 2025 08:56:38 GMT-0500 (Central Daylight Time),398976.3000000119,A,windowenter,O,enter,327,1,3965.699999988079,395010.60000002384,7132,WL,B,6.0
3,16.878000020980835,learn,43121.999979019165,Wed Apr 23 2025 08:56:38 GMT-0500 (Central Daylight Time),399776.8000000119,A,c,O,c,795,1,800.1999999880791,398976.60000002384,7132,WL,B,7.0
3,17.061000108718872,learn,42938.99989128113,Wed Apr 23 2025 08:56:38 GMT-0500 (Central Daylight Time),399959.7000000477,A,cl,O,l,160,1,983.1000000238419,398976.60000002384,7132,WL,B,7.0
3,17.278000116348267,learn,42721.99988365173,Wed Apr 23 2025 08:56:38 GMT-0500 (Central Daylight Time),400176.7000000477,A,clo,O,o,208,1,1200.1000000238419,398976.60000002384,7132,WL,B,7.0
3,17.5770001411438,learn,42422.9998588562,Wed Apr 23 2025 08:56:38 GMT-0500 (Central Daylight Time),400475.0,A,cloc,O,c,280,1,1498.3999999761581,398976.60000002384,7132,WL,B,7.0
3,17.727999925613403,learn,42272.0000743866,Wed Apr 23 2025 08:56:38 GMT-0500 (Central Daylight Time),400626.40000003576,A,clock,O,k,129,1,1649.800000011921,398976.60000002384,7132,WL,B,7.0
3,18.944000005722046,learn,41055.999994277954,Wed Apr 23 2025 08:56:38 GMT-0500 (Central Daylight Time),401842.2000000477,A,clockenter,O,enter,1198,1,2865.600000023842,398976.60000002384,7132,WL,B,7.0
3,19.710000038146973,learn,40289.99996185303,Wed Apr 23 2025 08:56:38 GMT-0500 (Central Daylight Time),402608.0,A,c,O,c,752,1,765.5,401842.5,7132,WL,B,8.0
3,19.776000022888184,learn,40223.99997711182,Wed Apr 23 2025 08:56:38 GMT-0500 (Central Daylight Time),402674.0,A,ca,O,a,60,1,831.5,401842.5,7132,WL,B,8.0
3,20.20900011062622,learn,39790.99988937378,Wed Apr 23 2025 08:56:38 GMT-0500 (Central Daylight Time),403107.8000000119,A,cab,O,b,422,1,1265.300000011921,401842.5,7132,WL,B,8.0
3,20.409000158309937,learn,39590.99984169006,Wed Apr 23 2025 08:56:38 GMT-0500 (Central Daylight Time),403307.8000000119,A,cabi,O,i,183,1,1465.300000011921,401842.5,7132,WL,B,8.0
3,21.509999990463257,learn,38490.00000953674,Wed Apr 23 2025 08:56:38 GMT-0500 (Central Daylight Time),404408.60000002384,A,cabin,O,n,1095,1,2566.100000023842,401842.5,7132,WL,B,8.0
3,21.926000118255615,learn,38073.999881744385,Wed Apr 23 2025 08:56:38 GMT-0500 (Central Daylight Time),404824.2000000477,A,cabinenter,O,enter,401,1,2981.7000000476837,401842.5,7132,WL,B,8.0
3,22.39199995994568,learn,37608.00004005432,Wed Apr 23 2025 08:56:38 GMT-0500 (Central Daylight Time),405290.40000003576,A,l,O,l,450,1,465.9000000357628,404824.5,7132,WL,B,9.0
3,22.52500009536743,learn,37474.99990463257,Wed Apr 23 2025 08:56:38 GMT-0500 (Central Daylight Time),405423.5,A,la,O,a,120,1,599.0,404824.5,7132,WL,B,9.0
3,22.759000062942505,learn,37240.999937057495,Wed Apr 23 2025 08:56:38 GMT-0500 (Central Daylight Time),405657.7000000477,A,lak,O,k,228,1,833.2000000476837,404824.5,7132,WL,B,9.0
3,22.9760000705719,learn,37023.9999294281,Wed Apr 23 2025 08:56:38 GMT-0500 (Central Daylight Time),405874.2000000477,A,lake,O,e,212,1,1049.7000000476837,404824.5,7132,WL,B,9.0
3,23.975000143051147,learn,36024.99985694885,Wed Apr 23 2025 08:56:38 GMT-0500 (Central Daylight Time),406873.0,A,lakeenter,O,enter,992,1,2048.5,404824.5,7132,WL,B,9.0
3,24.35800004005432,learn,35641.99995994568,Wed Apr 23 2025 08:56:38 GMT-0500 (Central Daylight Time),407255.90000003576,A,f,O,f,368,1,382.69999998807907,406873.2000000477,7132,WL,B,10.0
3,24.490000009536743,learn,35509.99999046326,Wed Apr 23 2025 08:56:38 GMT-0500 (Central Daylight Time),407388.8000000119,A,fi,O,i,122,1,515.5999999642372,406873.2000000477,7132,WL,B,10.0
3,24.6560001373291,learn,35343.9998626709,Wed Apr 23 2025 08:56:38 GMT-0500 (Central Daylight Time),407554.8000000119,A,fir,O,r,155,1,681.5999999642372,406873.2000000477,7132,WL,B,10.0
3,24.740000009536743,learn,35259.99999046326,Wed Apr 23 2025 08:56:38 GMT-0500 (Central Daylight Time),407638.3000000119,A,fire,O,e,72,1,765.0999999642372,406873.2000000477,7132,WL,B,10.0
3,25.240999937057495,learn,34759.000062942505,Wed Apr 23 2025 08:56:38 GMT-0500 (Central Daylight Time),408139.7000000477,A,firep,O,p,485,1,1266.5,406873.2000000477,7132,WL,B,10.0
3,25.789999961853027,learn,34210.00003814697,Wed Apr 23 2025 08:56:38 GMT-0500 (Central Daylight Time),408688.40000003576,A,fire,O,backspace,534,1,1815.199999988079,406873.2000000477,7132,WL,B,10.0
3,25.973999977111816,learn,34026.00002288818,Wed Apr 23 2025 08:56:38 GMT-0500 (Central Daylight Time),408872.7000000477,A,fir,O,backspace,168,1,1999.5,406873.2000000477,7132,WL,B,10.0
3,27.091000080108643,learn,32908.99991989136,Wed Apr 23 2025 08:56:38 GMT-0500 (Central Daylight Time),409989.10000002384,A,fire,O,e,1096,1,3115.899999976158,406873.2000000477,7132,WL,B,10.0
3,27.289999961853027,learn,32710.000038146973,Wed Apr 23 2025 08:56:38 GMT-0500 (Central Daylight Time),410188.10000002384,A,fireenter,O,enter,189,1,3314.899999976158,406873.2000000477,7132,WL,B,10.0
3,28.558000087738037,learn,31441.999912261963,Wed Apr 23 2025 08:56:38 GMT-0500 (Central Daylight Time),411456.2000000477,A,p,O,p,1262,1,1267.9000000357628,410188.3000000119,7132,WL,B,11.0
3,28.841000080108643,learn,31158.999919891357,Wed Apr 23 2025 08:56:38 GMT-0500 (Central Daylight Time),411739.3000000119,A,pi,O,i,272,1,1551.0,410188.3000000119,7132,WL,B,11.0
3,29.055000066757202,learn,30944.999933242798,Wed Apr 23 2025 08:56:38 GMT-0500 (Central Daylight Time),411953.8000000119,A,pip,O,p,194,1,1765.5,410188.3000000119,7132,WL,B,11.0
3,29.32200002670288,learn,30677.99997329712,Wed Apr 23 2025 08:56:38 GMT-0500 (Central Daylight Time),412220.60000002384,A,pipe,O,e,247,1,2032.300000011921,410188.3000000119,7132,WL,B,11.0
3,30.13700008392334,learn,29862.99991607666,Wed Apr 23 2025 08:56:38 GMT-0500 (Central Daylight Time),413035.5,A,pipeenter,O,enter,797,1,2847.199999988079,410188.3000000119,7132,WL,B,11.0
3,31.704999923706055,learn,28295.000076293945,Wed Apr 23 2025 08:56:38 GMT-0500 (Central Daylight Time),414603.0,A,w,O,w,1560,1,1567.199999988079,413035.8000000119,7132,WL,B,12.0
3,31.9060001373291,learn,28093.9998626709,Wed Apr 23 2025 08:56:38 GMT-0500 (Central Daylight Time),414804.40000003576,A,wi,O,i,181,1,1768.6000000238419,413035.8000000119,7132,WL,B,12.0
3,32.087000131607056,learn,27912.999868392944,Wed Apr 23 2025 08:56:38 GMT-0500 (Central Daylight Time),414985.60000002384,A,wif,O,f,173,1,1949.800000011921,413035.8000000119,7132,WL,B,12.0
3,32.204999923706055,learn,27795.000076293945,Wed Apr 23 2025 08:56:38 GMT-0500 (Central Daylight Time),415104.0,A,wife,O,e,103,1,2068.199999988079,413035.8000000119,7132,WL,B,12.0
3,32.73800015449524,learn,27261.99984550476,Wed Apr 23 2025 08:56:38 GMT-0500 (Central Daylight Time),415636.5,A,wifeenter,O,enter,520,1,2600.699999988079,413035.8000000119,7132,WL,B,12.0
3,33.57200002670288,learn,26427.99997329712,Wed Apr 23 2025 08:56:38 GMT-0500 (Central Daylight Time),416470.3000000119,A,c,O,c,821,1,833.5,415636.8000000119,7132,WL,B,13.0
3,33.82200002670288,learn,26177.99997329712,Wed Apr 23 2025 08:56:38 GMT-0500 (Central Daylight Time),416721.0,A,ci,O,i,244,1,1084.199999988079,415636.8000000119,7132,WL,B,13.0
3,33.97200012207031,learn,26027.999877929688,Wed Apr 23 2025 08:56:38 GMT-0500 (Central Daylight Time),416870.5,A,cit,O,t,126,1,1233.699999988079,415636.8000000119,7132,WL,B,13.0
3,34.17199993133545,learn,25828.00006866455,Wed Apr 23 2025 08:56:38 GMT-0500 (Central Daylight Time),417070.3000000119,A,city,O,y,179,1,1433.5,415636.8000000119,7132,WL,B,13.0
3,34.47000002861023,learn,25529.99997138977,Wed Apr 23 2025 08:56:38 GMT-0500 (Central Daylight Time),417368.5,A,cityenter,O,enter,283,1,1731.699999988079,415636.8000000119,7132,WL,B,13.0
3,39.134000062942505,learn,20865.999937057495,Wed Apr 23 2025 08:56:38 GMT-0500 (Central Daylight Time),422032.3000000119,A,s,O,s,4656,1,4663.5,417368.8000000119,7132,WL,B,14.0
3,39.269999980926514,learn,20730.000019073486,Wed Apr 23 2025 08:56:38 GMT-0500 (Central Daylight Time),422169.2000000477,A,sk,O,k,133,1,4800.400000035763,417368.8000000119,7132,WL,B,14.0
3,39.47099995613098,learn,20529.00004386902,Wed Apr 23 2025 08:56:38 GMT-0500 (Central Daylight Time),422369.40000003576,A,ski,O,i,183,1,5000.600000023842,417368.8000000119,7132,WL,B,14.0
3,39.71799993515015,learn,20282.000064849854,Wed Apr 23 2025 08:56:38 GMT-0500 (Central Daylight Time),422617.2000000477,A,skin,O,n,233,1,5248.400000035763,417368.8000000119,7132,WL,B,14.0
3,40.00099992752075,learn,19999.000072479248,Wed Apr 23 2025 08:56:38 GMT-0500 (Central Daylight Time),422900.10000002384,A,skinenter,O,enter,264,1,5531.300000011921,417368.8000000119,7132,WL,B,14.0
3,51.28200006484985,learn,8717.999935150146,Wed Apr 23 2025 08:56:38 GMT-0500 (Central Daylight Time),434180.40000003576,A,enter,O,enter,11262,1,11280.0,422900.40000003576,7132,WL,B,15.0
4,1.1510000228881836,learn,58848.99997711182,Wed Apr 23 2025 08:56:38 GMT-0500 (Central Daylight Time),504225.8000000119,A,s,O,s,1131,1,1150.5999999642372,503075.2000000477,7132,WL,B,1.0
4,1.3989999294281006,learn,58601.0000705719,Wed Apr 23 2025 08:56:38 GMT-0500 (Central Daylight Time),504474.60000002384,A,st,O,t,240,1,1399.3999999761581,503075.2000000477,7132,WL,B,1.0
4,1.6659998893737793,learn,58334.00011062622,Wed Apr 23 2025 08:56:38 GMT-0500 (Central Daylight Time),504741.7000000477,A,str,O,r,254,1,1666.5,503075.2000000477,7132,WL,B,1.0
4,1.75,learn,58250.0,Wed Apr 23 2025 08:56:38 GMT-0500 (Central Daylight Time),504825.10000002384,A,stre,O,e,66,1,1749.8999999761581,503075.2000000477,7132,WL,B,1.0
4,2.0319998264312744,learn,57968.000173568726,Wed Apr 23 2025 08:56:38 GMT-0500 (Central Daylight Time),505107.5,A,stree,O,e,263,1,2032.2999999523163,503075.2000000477,7132,WL,B,1.0
4,2.182999849319458,learn,57817.00015068054,Wed Apr 23 2025 08:56:38 GMT-0500 (Central Daylight Time),505258.7000000477,A,street,O,t,144,1,2183.5,503075.2000000477,7132,WL,B,1.0
4,3.0999999046325684,learn,56900.00009536743,Wed Apr 23 2025 08:56:38 GMT-0500 (Central Daylight Time),506175.60000002384,A,streetenter,O,enter,913,1,3100.399999976158,503075.2000000477,7132,WL,B,1.0
4,4.065999984741211,learn,55934.00001525879,Wed Apr 23 2025 08:56:38 GMT-0500 (Central Daylight Time),507141.2000000477,A,g,O,g,946,1,965.2000000476837,506176.0,7132,WL,B,2.0
4,4.398999929428101,learn,55601.0000705719,Wed Apr 23 2025 08:56:38 GMT-0500 (Central Daylight Time),507473.90000003576,A,gr,O,r,313,1,1297.9000000357628,506176.0,7132,WL,B,2.0
4,4.5,learn,55500.0,Wed Apr 23 2025 08:56:38 GMT-0500 (Central Daylight Time),507575.10000002384,A,gra,O,a,96,1,1399.1000000238419,506176.0,7132,WL,B,2.0
4,5.365000009536743,learn,54634.99999046326,Wed Apr 23 2025 08:56:38 GMT-0500 (Central Daylight Time),508440.0,A,gras,O,s,851,1,2264.0,506176.0,7132,WL,B,2.0
4,5.514999866485596,learn,54485.000133514404,Wed Apr 23 2025 08:56:38 GMT-0500 (Central Daylight Time),508590.60000002384,A,grass,O,s,138,1,2414.600000023842,506176.0,7132,WL,B,2.0
4,5.832000017166138,learn,54167.99998283386,Wed Apr 23 2025 08:56:38 GMT-0500 (Central Daylight Time),508906.8000000119,A,grassenter,O,enter,307,1,2730.800000011921,506176.0,7132,WL,B,2.0
4,9.79699993133545,learn,50203.00006866455,Wed Apr 23 2025 08:56:38 GMT-0500 (Central Daylight Time),512872.7000000477,A,d,O,d,3952,1,3965.7000000476837,508907.0,7132,WL,B,3.0
4,10.13099980354309,learn,49869.00019645691,Wed Apr 23 2025 08:56:38 GMT-0500 (Central Daylight Time),513205.8000000119,A,do,O,o,313,1,4298.800000011921,508907.0,7132,WL,B,3.0
4,10.280999898910522,learn,49719.00010108948,Wed Apr 23 2025 08:56:38 GMT-0500 (Central Daylight Time),513355.90000003576,A,doo,O,o,140,1,4448.900000035763,508907.0,7132,WL,B,3.0
4,10.414000034332275,learn,49585.999965667725,Wed Apr 23 2025 08:56:38 GMT-0500 (Central Daylight Time),513489.0,A,door,O,r,117,1,4582.0,508907.0,7132,WL,B,3.0
4,10.63099980354309,learn,49369.00019645691,Wed Apr 23 2025 08:56:38 GMT-0500 (Central Daylight Time),513705.90000003576,A,doorenter,O,enter,208,1,4798.900000035763,508907.0,7132,WL,B,3.0
4,11.629999876022339,learn,48370.00012397766,Wed Apr 23 2025 08:56:38 GMT-0500 (Central Daylight Time),514705.7000000477,A,s,O,s,994,1,999.5,513706.2000000477,7132,WL,B,4.0
4,11.879999876022339,learn,48120.00012397766,Wed Apr 23 2025 08:56:38 GMT-0500 (Central Daylight Time),514955.0,A,st,O,t,239,1,1248.7999999523163,513706.2000000477,7132,WL,B,4.0
4,12.02899980545044,learn,47971.00019454956,Wed Apr 23 2025 08:56:38 GMT-0500 (Central Daylight Time),515104.7000000477,A,sta,O,a,144,1,1398.5,513706.2000000477,7132,WL,B,4.0
4,12.245999813079834,learn,47754.000186920166,Wed Apr 23 2025 08:56:38 GMT-0500 (Central Daylight Time),515321.60000002384,A,star,O,r,200,1,1615.3999999761581,513706.2000000477,7132,WL,B,4.0
4,12.978999853134155,learn,47021.000146865845,Wed Apr 23 2025 08:56:38 GMT-0500 (Central Daylight Time),516054.7000000477,A,starenter,O,enter,719,1,2348.5,513706.2000000477,7132,WL,B,4.0
4,13.546000003814697,learn,46453.9999961853,Wed Apr 23 2025 08:56:38 GMT-0500 (Central Daylight Time),516621.2000000477,A,a,O,a,547,1,566.2000000476837,516055.0,7132,WL,B,5.0
4,13.780999898910522,learn,46219.00010108948,Wed Apr 23 2025 08:56:38 GMT-0500 (Central Daylight Time),516856.2000000477,A,ar,O,r,228,1,801.2000000476837,516055.0,7132,WL,B,5.0
4,14.062999963760376,learn,45937.000036239624,Wed Apr 23 2025 08:56:38 GMT-0500 (Central Daylight Time),517138.10000002384,A,arm,O,m,264,1,1083.1000000238419,516055.0,7132,WL,B,5.0
4,14.343999862670898,learn,45656.0001373291,Wed Apr 23 2025 08:56:38 GMT-0500 (Central Daylight Time),517419.40000003576,A,armenter,O,enter,263,1,1364.4000000357628,516055.0,7132,WL,B,5.0
4,14.763999938964844,learn,45236.000061035156,Wed Apr 23 2025 08:56:38 GMT-0500 (Central Daylight Time),517839.60000002384,A,w,O,w,415,1,420.0,517419.60000002384,7132,WL,B,6.0
4,14.978999853134155,learn,45021.000146865845,Wed Apr 23 2025 08:56:38 GMT-0500 (Central Daylight Time),518054.3000000119,A,wi,O,i,203,1,634.6999999880791,517419.60000002384,7132,WL,B,6.0
4,15.361999988555908,learn,44638.00001144409,Wed Apr 23 2025 08:56:38 GMT-0500 (Central Daylight Time),518437.60000002384,A,wif,O,f,371,1,1018.0,517419.60000002384,7132,WL,B,6.0
4,15.978999853134155,learn,44021.000146865845,Wed Apr 23 2025 08:56:38 GMT-0500 (Central Daylight Time),519054.0,A,wife,O,e,603,1,1634.3999999761581,517419.60000002384,7132,WL,B,6.0
4,17.05999994277954,learn,42940.00005722046,Wed Apr 23 2025 08:56:38 GMT-0500 (Central Daylight Time),520135.5,A,wifeenter,O,enter,1075,1,2715.899999976158,517419.60000002384,7132,WL,B,6.0
4,17.429999828338623,learn,42570.00017166138,Wed Apr 23 2025 08:56:38 GMT-0500 (Central Daylight Time),520504.8000000119,A,c,O,c,354,1,369.0,520135.8000000119,7132,WL,B,7.0
4,17.611999988555908,learn,42388.00001144409,Wed Apr 23 2025 08:56:38 GMT-0500 (Central Daylight Time),520687.5,A,ci,O,i,170,1,551.6999999880791,520135.8000000119,7132,WL,B,7.0
4,17.77999997138977,learn,42220.00002861023,Wed Apr 23 2025 08:56:38 GMT-0500 (Central Daylight Time),520855.7000000477,A,cit,O,t,161,1,719.9000000357628,520135.8000000119,7132,WL,B,7.0
4,17.995999813079834,learn,42004.000186920166,Wed Apr 23 2025 08:56:38 GMT-0500 (Central Daylight Time),521070.8000000119,A,city,O,y,190,1,935.0,520135.8000000119,7132,WL,B,7.0
4,18.794999837875366,learn,41205.000162124634,Wed Apr 23 2025 08:56:38 GMT-0500 (Central Daylight Time),521870.2000000477,A,cityenter,O,enter,778,1,1734.4000000357628,520135.8000000119,7132,WL,B,7.0
4,20.393999814987183,learn,39606.00018501282,Wed Apr 23 2025 08:56:38 GMT-0500 (Central Daylight Time),523469.60000002384,A,p,O,p,1587,1,1599.1000000238419,521870.5,7132,WL,B,8.0
4,20.84599995613098,learn,39154.00004386902,Wed Apr 23 2025 08:56:38 GMT-0500 (Central Daylight Time),523921.60000002384,A,pu,O,u,428,1,2051.100000023842,521870.5,7132,WL,B,8.0
4,21.42799997329712,learn,38572.00002670288,Wed Apr 23 2025 08:56:38 GMT-0500 (Central Daylight Time),524502.8000000119,A,pup,O,p,558,1,2632.300000011921,521870.5,7132,WL,B,8.0
4,21.645999908447266,learn,38354.000091552734,Wed Apr 23 2025 08:56:38 GMT-0500 (Central Daylight Time),524721.2000000477,A,pupi,O,i,193,1,2850.7000000476837,521870.5,7132,WL,B,8.0
4,21.82799983024597,learn,38172.00016975403,Wed Apr 23 2025 08:56:38 GMT-0500 (Central Daylight Time),524903.0,A,pupil,O,l,162,1,3032.5,521870.5,7132,WL,B,8.0
4,22.276999950408936,learn,37723.000049591064,Wed Apr 23 2025 08:56:38 GMT-0500 (Central Daylight Time),525351.9000000358,A,pupilenter,O,enter,433,1,3481.400000035763,521870.5,7132,WL,B,8.0
4,22.64299988746643,learn,37357.00011253357,Wed Apr 23 2025 08:56:38 GMT-0500 (Central Daylight Time),525718.0,A,w,O,w,354,1,365.69999998807907,525352.3000000119,7132,WL,B,9.0
4,22.80999994277954,learn,37190.00005722046,Wed Apr 23 2025 08:56:38 GMT-0500 (Central Daylight Time),525885.3000000119,A,wi,O,i,156,1,533.0,525352.3000000119,7132,WL,B,9.0
4,23.0939998626709,learn,36906.0001373291,Wed Apr 23 2025 08:56:38 GMT-0500 (Central Daylight Time),526168.7000000477,A,win,O,n,268,1,816.4000000357628,525352.3000000119,7132,WL,B,9.0
4,23.276000022888184,learn,36723.99997711182,Wed Apr 23 2025 08:56:38 GMT-0500 (Central Daylight Time),526351.3000000119,A,wind,O,d,160,1,999.0,525352.3000000119,7132,WL,B,9.0
4,23.424999952316284,learn,36575.000047683716,Wed Apr 23 2025 08:56:38 GMT-0500 (Central Daylight Time),526500.7000000477,A,windo,O,o,137,1,1148.4000000357628,525352.3000000119,7132,WL,B,9.0
4,23.592999935150146,learn,36407.00006484985,Wed Apr 23 2025 08:56:38 GMT-0500 (Central Daylight Time),526668.5,A,window,O,w,148,1,1316.199999988079,525352.3000000119,7132,WL,B,9.0
4,23.89299988746643,learn,36107.00011253357,Wed Apr 23 2025 08:56:38 GMT-0500 (Central Daylight Time),526968.4000000358,A,windowenter,O,enter,291,1,1616.1000000238419,525352.3000000119,7132,WL,B,9.0
4,24.408999919891357,learn,35591.00008010864,Wed Apr 23 2025 08:56:38 GMT-0500 (Central Daylight Time),527484.7000000477,A,c,O,c,498,1,516.0,526968.7000000477,7132,WL,B,10.0
4,24.49399995803833,learn,35506.00004196167,Wed Apr 23 2025 08:56:38 GMT-0500 (Central Daylight Time),527569.1000000238,A,ca,O,a,78,1,600.3999999761581,526968.7000000477,7132,WL,B,10.0
4,25.509999990463257,learn,34490.00000953674,Wed Apr 23 2025 08:56:38 GMT-0500 (Central Daylight Time),528585.7000000477,A,cab,O,b,1000,1,1617.0,526968.7000000477,7132,WL,B,10.0
4,26.075999975204468,learn,33924.00002479553,Wed Apr 23 2025 08:56:38 GMT-0500 (Central Daylight Time),529150.7000000477,A,cabi,O,i,558,1,2182.0,526968.7000000477,7132,WL,B,10.0
4,26.674999952316284,learn,33325.000047683716,Wed Apr 23 2025 08:56:38 GMT-0500 (Central Daylight Time),529749.9000000358,A,cabin,O,n,580,1,2781.199999988079,526968.7000000477,7132,WL,B,10.0
4,27.35800004005432,learn,32641.99995994568,Wed Apr 23 2025 08:56:38 GMT-0500 (Central Daylight Time),530433.2000000477,A,cabinenter,O,enter,666,1,3464.5,526968.7000000477,7132,WL,B,10.0
4,27.80900001525879,learn,32190.99998474121,Wed Apr 23 2025 08:56:38 GMT-0500 (Central Daylight Time),530883.9000000358,A,f,O,f,442,1,450.4000000357628,530433.5,7132,WL,B,11.0
4,27.990999937057495,learn,32009.000062942505,Wed Apr 23 2025 08:56:38 GMT-0500 (Central Daylight Time),531065.9000000358,A,fi,O,i,165,1,632.4000000357628,530433.5,7132,WL,B,11.0
4,28.22699999809265,learn,31773.00000190735,Wed Apr 23 2025 08:56:38 GMT-0500 (Central Daylight Time),531302.1000000238,A,fir,O,r,212,1,868.6000000238419,530433.5,7132,WL,B,11.0
4,28.3439998626709,learn,31656.0001373291,Wed Apr 23 2025 08:56:38 GMT-0500 (Central Daylight Time),531418.9000000358,A,fire,O,e,109,1,985.4000000357628,530433.5,7132,WL,B,11.0
4,29.289999961853027,learn,30710.000038146973,Wed Apr 23 2025 08:56:38 GMT-0500 (Central Daylight Time),532365.2000000477,A,fireenter,O,enter,923,1,1931.7000000476837,530433.5,7132,WL,B,11.0
4,29.889999866485596,learn,30110.000133514404,Wed Apr 23 2025 08:56:38 GMT-0500 (Central Daylight Time),532965.0,A,l,O,l,580,1,599.5,532365.5,7132,WL,B,12.0
4,30.19099998474121,learn,29809.00001525879,Wed Apr 23 2025 08:56:38 GMT-0500 (Central Daylight Time),533266.7000000477,A,la,O,a,287,1,901.2000000476837,532365.5,7132,WL,B,12.0
4,30.391000032424927,learn,29608.999967575073,Wed Apr 23 2025 08:56:38 GMT-0500 (Central Daylight Time),533466.1000000238,A,lak,O,k,183,1,1100.6000000238419,532365.5,7132,WL,B,12.0
4,30.573999881744385,learn,29426.000118255615,Wed Apr 23 2025 08:56:38 GMT-0500 (Central Daylight Time),533649.1000000238,A,lake,O,e,175,1,1283.6000000238419,532365.5,7132,WL,B,12.0
4,31.90499997138977,learn,28095.00002861023,Wed Apr 23 2025 08:56:38 GMT-0500 (Central Daylight Time),534980.5,A,lakep,O,p,1309,1,2615.0,532365.5,7132,WL,B,12.0
4,32.74199986457825,learn,27258.000135421753,Wed Apr 23 2025 08:56:38 GMT-0500 (Central Daylight Time),535817.7000000477,A,lake,O,backspace,832,1,3452.2000000476837,532365.5,7132,WL,B,12.0
4,33.139999866485596,learn,26860.000133514404,Wed Apr 23 2025 08:56:38 GMT-0500 (Central Daylight Time),536215.5,A,lakeenter,O,enter,383,1,3850.0,532365.5,7132,WL,B,12.0
4,34.055999994277954,learn,25944.000005722046,Wed Apr 23 2025 08:56:38 GMT-0500 (Central Daylight Time),537131.7000000477,A,p,O,p,899,1,915.9000000357628,536215.8000000119,7132,WL,B,13.0
4,34.33999991416931,learn,25660.00008583069,Wed Apr 23 2025 08:56:38 GMT-0500 (Central Daylight Time),537416.0,A,pu,O,u,276,1,1200.199999988079,536215.8000000119,7132,WL,B,13.0
4,34.556999921798706,learn,25443.000078201294,Wed Apr 23 2025 08:56:38 GMT-0500 (Central Daylight Time),537632.5,A,pup,O,p,209,1,1416.699999988079,536215.8000000119,7132,WL,B,13.0
4,34.70599985122681,learn,25294.000148773193,Wed Apr 23 2025 08:56:38 GMT-0500 (Central Daylight Time),537781.8000000119,A,pupi,O,i,126,1,1566.0,536215.8000000119,7132,WL,B,13.0
4,34.99000000953674,learn,25009.999990463257,Wed Apr 23 2025 08:56:38 GMT-0500 (Central Daylight Time),538065.3000000119,A,pupil,O,l,276,1,1849.5,536215.8000000119,7132,WL,B,13.0
4,37.569000005722046,learn,22430.999994277954,Wed Apr 23 2025 08:56:38 GMT-0500 (Central Daylight Time),540644.7000000477,A,pupilenter,O,enter,2568,1,4428.900000035763,536215.8000000119,7132,WL,B,13.0
4,38.537999868392944,learn,21462.000131607056,Wed Apr 23 2025 08:56:38 GMT-0500 (Central Daylight Time),541613.9000000358,A,s,O,s,958,1,969.0,540644.9000000358,7132,WL,B,14.0
4,38.72000002861023,learn,21279.99997138977,Wed Apr 23 2025 08:56:38 GMT-0500 (Central Daylight Time),541795.5,A,sk,O,k,171,1,1150.5999999642372,540644.9000000358,7132,WL,B,14.0
4,38.919999837875366,learn,21080.000162124634,Wed Apr 23 2025 08:56:38 GMT-0500 (Central Daylight Time),541995.1000000238,A,ski,O,i,184,1,1350.199999988079,540644.9000000358,7132,WL,B,14.0
4,39.1729998588562,learn,20827.0001411438,Wed Apr 23 2025 08:56:38 GMT-0500 (Central Daylight Time),542248.3000000119,A,skin,O,n,244,1,1603.3999999761581,540644.9000000358,7132,WL,B,14.0
4,40.28699994087219,learn,19713.000059127808,Wed Apr 23 2025 08:56:38 GMT-0500 (Central Daylight Time),543362.8000000119,A,skinenter,O,enter,1097,1,2717.899999976158,540644.9000000358,7132,WL,B,14.0
4,41.019999980926514,learn,18980.000019073486,Wed Apr 23 2025 08:56:38 GMT-0500 (Central Daylight Time),544095.6000000238,A,c,O,c,720,1,732.5,543363.1000000238,7132,WL,B,15.0
4,41.20299983024597,learn,18797.00016975403,Wed Apr 23 2025 08:56:38 GMT-0500 (Central Daylight Time),544279.0,A,cl,O,l,169,1,915.8999999761581,543363.1000000238,7132,WL,B,15.0
4,41.40399980545044,learn,18596.00019454956,Wed Apr 23 2025 08:56:38 GMT-0500 (Central Daylight Time),544479.7000000477,A,clo,O,o,186,1,1116.6000000238419,543363.1000000238,7132,WL,B,15.0
4,41.63800001144409,learn,18361.99998855591,Wed Apr 23 2025 08:56:38 GMT-0500 (Central Daylight Time),544713.7000000477,A,cloc,O,c,227,1,1350.6000000238419,543363.1000000238,7132,WL,B,15.0
4,41.787999868392944,learn,18212.000131607056,Wed Apr 23 2025 08:56:38 GMT-0500 (Central Daylight Time),544863.5,A,clock,O,k,142,1,1500.3999999761581,543363.1000000238,7132,WL,B,15.0
4,42.40399980545044,learn,17596.00019454956,Wed Apr 23 2025 08:56:38 GMT-0500 (Central Daylight Time),545480.1000000238,A,clockenter,O,enter,607,1,2117.0,543363.1000000238,7132,WL,B,15.0
5,1.434000015258789,learn,60000.0,Wed Apr 23 2025 08:56:38 GMT-0500 (Central Daylight Time),613758.1000000238,A,s,O,s,1414,1,1434.3999999761581,612323.7000000477,7132,WL,B,1.0
5,1.75,learn,60000.0,Wed Apr 23 2025 08:56:38 GMT-0500 (Central Daylight Time),614074.2000000477,A,st,O,t,300,1,1750.5,612323.7000000477,7132,WL,B,1.0
5,2.0989999771118164,learn,60000.0,Wed Apr 23 2025 08:56:38 GMT-0500 (Central Daylight Time),614423.2000000477,A,str,O,r,335,1,2099.5,612323.7000000477,7132,WL,B,1.0
5,2.2160000801086426,learn,60000.0,Wed Apr 23 2025 08:56:38 GMT-0500 (Central Daylight Time),614540.0,A,stre,O,e,107,1,2216.2999999523163,612323.7000000477,7132,WL,B,1.0
5,2.431999921798706,learn,60000.0,Wed Apr 23 2025 08:56:38 GMT-0500 (Central Daylight Time),614756.5,A,stree,O,e,205,1,2432.7999999523163,612323.7000000477,7132,WL,B,1.0
5,2.6660001277923584,learn,60000.0,Wed Apr 23 2025 08:56:38 GMT-0500 (Central Daylight Time),614990.0,A,street,O,t,212,1,2666.2999999523163,612323.7000000477,7132,WL,B,1.0
5,3.2990000247955322,learn,60000.0,Wed Apr 23 2025 08:56:38 GMT-0500 (Central Daylight Time),615622.6000000238,A,streetenter,O,enter,613,1,3298.899999976158,612323.7000000477,7132,WL,B,1.0
5,3.7149999141693115,learn,60000.0,Wed Apr 23 2025 08:56:38 GMT-0500 (Central Daylight Time),616038.6000000238,A,g,O,g,395,1,415.69999998807907,615622.9000000358,7132,WL,B,2.0
5,3.9509999752044678,learn,60000.0,Wed Apr 23 2025 08:56:38 GMT-0500 (Central Daylight Time),616275.3000000119,A,gr,O,r,231,1,652.3999999761581,615622.9000000358,7132,WL,B,2.0
5,4.0980000495910645,learn,60000.0,Wed Apr 23 2025 08:56:38 GMT-0500 (Central Daylight Time),616422.4000000358,A,gra,O,a,134,1,799.5,615622.9000000358,7132,WL,B,2.0
5,4.449000120162964,learn,60000.0,Wed Apr 23 2025 08:56:38 GMT-0500 (Central Daylight Time),616772.7000000477,A,gras,O,s,339,1,1149.800000011921,615622.9000000358,7132,WL,B,2.0
5,4.631999969482422,learn,60000.0,Wed Apr 23 2025 08:56:38 GMT-0500 (Central Daylight Time),616955.7000000477,A,grass,O,s,164,1,1332.800000011921,615622.9000000358,7132,WL,B,2.0
5,5.164000034332275,learn,60000.0,Wed Apr 23 2025 08:56:38 GMT-0500 (Central Daylight Time),617488.0,A,grassenter,O,enter,517,1,1865.0999999642372,615622.9000000358,7132,WL,B,2.0
5,7.513999938964844,learn,60000.0,Wed Apr 23 2025 08:56:38 GMT-0500 (Central Daylight Time),619838.3000000119,A,a,O,a,2329,1,2350.0,617488.3000000119,7132,WL,B,3.0
5,7.699000120162964,learn,60000.0,Wed Apr 23 2025 08:56:38 GMT-0500 (Central Daylight Time),620022.7000000477,A,ar,O,r,172,1,2534.400000035763,617488.3000000119,7132,WL,B,3.0
5,8.097000122070312,learn,60000.0,Wed Apr 23 2025 08:56:38 GMT-0500 (Central Daylight Time),620421.3000000119,A,arm,O,m,388,1,2933.0,617488.3000000119,7132,WL,B,3.0
5,8.697999954223633,learn,60000.0,Wed Apr 23 2025 08:56:38 GMT-0500 (Central Daylight Time),621021.6000000238,A,armenter,O,enter,580,1,3533.300000011921,617488.3000000119,7132,WL,B,3.0
5,9.414000034332275,learn,60000.0,Wed Apr 23 2025 08:56:38 GMT-0500 (Central Daylight Time),621737.9000000358,A,s,O,s,700,1,716.0,621021.9000000358,7132,WL,B,4.0
5,9.664000034332275,learn,60000.0,Wed Apr 23 2025 08:56:38 GMT-0500 (Central Daylight Time),621987.7000000477,A,st,O,t,230,1,965.8000000119209,621021.9000000358,7132,WL,B,4.0
5,9.828999996185303,learn,60000.0,Wed Apr 23 2025 08:56:38 GMT-0500 (Central Daylight Time),622153.4000000358,A,sta,O,a,156,1,1131.5,621021.9000000358,7132,WL,B,4.0
5,10.029000043869019,learn,60000.0,Wed Apr 23 2025 08:56:38 GMT-0500 (Central Daylight Time),622353.2000000477,A,star,O,r,193,1,1331.300000011921,621021.9000000358,7132,WL,B,4.0
5,10.54699993133545,learn,60000.0,Wed Apr 23 2025 08:56:38 GMT-0500 (Central Daylight Time),622871.1000000238,A,starenter,O,enter,496,1,1849.199999988079,621021.9000000358,7132,WL,B,4.0
5,10.94700002670288,learn,60000.0,Wed Apr 23 2025 08:56:38 GMT-0500 (Central Daylight Time),623271.4000000358,A,d,O,d,387,1,400.0,622871.4000000358,7132,WL,B,5.0
5,11.180000066757202,learn,60000.0,Wed Apr 23 2025 08:56:38 GMT-0500 (Central Daylight Time),623504.2000000477,A,do,O,o,219,1,632.8000000119209,622871.4000000358,7132,WL,B,5.0
5,11.348999977111816,learn,60000.0,Wed Apr 23 2025 08:56:38 GMT-0500 (Central Daylight Time),623672.5,A,doo,O,o,164,1,801.0999999642372,622871.4000000358,7132,WL,B,5.0
5,11.52999997138977,learn,60000.0,Wed Apr 23 2025 08:56:38 GMT-0500 (Central Daylight Time),623854.4000000358,A,door,O,r,170,1,983.0,622871.4000000358,7132,WL,B,5.0
5,12.062000036239624,learn,60000.0,Wed Apr 23 2025 08:56:38 GMT-0500 (Central Daylight Time),624386.1000000238,A,doorenter,O,enter,524,1,1514.699999988079,622871.4000000358,7132,WL,B,5.0
5,12.895999908447266,learn,60000.0,Wed Apr 23 2025 08:56:38 GMT-0500 (Central Daylight Time),625219.7000000477,A,w,O,w,825,1,833.4000000357628,624386.3000000119,7132,WL,B,6.0
5,13.030999898910522,learn,60000.0,Wed Apr 23 2025 08:56:38 GMT-0500 (Central Daylight Time),625355.1000000238,A,wi,O,i,131,1,968.8000000119209,624386.3000000119,7132,WL,B,6.0
5,13.27999997138977,learn,60000.0,Wed Apr 23 2025 08:56:38 GMT-0500 (Central Daylight Time),625604.4000000358,A,win,O,n,237,1,1218.1000000238419,624386.3000000119,7132,WL,B,6.0
5,13.446000099182129,learn,60000.0,Wed Apr 23 2025 08:56:38 GMT-0500 (Central Daylight Time),625770.3000000119,A,wind,O,d,149,1,1384.0,624386.3000000119,7132,WL,B,6.0
5,13.644999980926514,learn,60000.0,Wed Apr 23 2025 08:56:38 GMT-0500 (Central Daylight Time),625969.0,A,windo,O,o,183,1,1582.699999988079,624386.3000000119,7132,WL,B,6.0
5,14.145999908447266,learn,60000.0,Wed Apr 23 2025 08:56:38 GMT-0500 (Central Daylight Time),626469.8000000119,A,window,O,w,489,1,2083.5,624386.3000000119,7132,WL,B,6.0
5,14.579999923706055,learn,60000.0,Wed Apr 23 2025 08:56:38 GMT-0500 (Central Daylight Time),626903.9000000358,A,windowenter,O,enter,421,1,2517.600000023842,624386.3000000119,7132,WL,B,6.0
5,15.01200008392334,learn,60000.0,Wed Apr 23 2025 08:56:38 GMT-0500 (Central Daylight Time),627335.7000000477,A,c,O,c,412,1,431.5,626904.2000000477,7132,WL,B,7.0
5,15.178999900817871,learn,60000.0,Wed Apr 23 2025 08:56:38 GMT-0500 (Central Daylight Time),627503.3000000119,A,ci,O,i,162,1,599.0999999642372,626904.2000000477,7132,WL,B,7.0
5,15.345999956130981,learn,60000.0,Wed Apr 23 2025 08:56:38 GMT-0500 (Central Daylight Time),627669.8000000119,A,cit,O,t,156,1,765.5999999642372,626904.2000000477,7132,WL,B,7.0
5,15.562000036239624,learn,60000.0,Wed Apr 23 2025 08:56:38 GMT-0500 (Central Daylight Time),627885.8000000119,A,city,O,y,204,1,981.5999999642372,626904.2000000477,7132,WL,B,7.0
5,16.628999948501587,learn,60000.0,Wed Apr 23 2025 08:56:38 GMT-0500 (Central Daylight Time),628953.4000000358,A,cityenter,O,enter,1062,1,2049.199999988079,626904.2000000477,7132,WL,B,7.0
5,17.44600009918213,learn,60000.0,Wed Apr 23 2025 08:56:38 GMT-0500 (Central Daylight Time),629770.0,A,p,O,p,811,1,816.2999999523163,628953.7000000477,7132,WL,B,8.0
5,17.677000045776367,learn,60000.0,Wed Apr 23 2025 08:56:38 GMT-0500 (Central Daylight Time),630001.0,A,pu,O,u,224,1,1047.2999999523163,628953.7000000477,7132,WL,B,8.0
5,17.861999988555908,learn,60000.0,Wed Apr 23 2025 08:56:38 GMT-0500 (Central Daylight Time),630185.6000000238,A,pup,O,p,179,1,1231.8999999761581,628953.7000000477,7132,WL,B,8.0
5,18.14400005340576,learn,60000.0,Wed Apr 23 2025 08:56:38 GMT-0500 (Central Daylight Time),630468.4000000358,A,pupi,O,i,272,1,1514.699999988079,628953.7000000477,7132,WL,B,8.0
5,18.394999980926514,learn,60000.0,Wed Apr 23 2025 08:56:38 GMT-0500 (Central Daylight Time),630719.2000000477,A,pupil,O,l,230,1,1765.5,628953.7000000477,7132,WL,B,8.0
5,18.72699999809265,learn,60000.0,Wed Apr 23 2025 08:56:38 GMT-0500 (Central Daylight Time),631051.0,A,pupilenter,O,enter,322,1,2097.2999999523163,628953.7000000477,7132,WL,B,8.0
5,19.02900004386902,learn,60000.0,Wed Apr 23 2025 08:56:38 GMT-0500 (Central Daylight Time),631352.7000000477,A,c,O,c,287,1,301.5,631051.2000000477,7132,WL,B,9.0
5,19.127000093460083,learn,60000.0,Wed Apr 23 2025 08:56:38 GMT-0500 (Central Daylight Time),631451.3000000119,A,ca,O,a,81,1,400.0999999642372,631051.2000000477,7132,WL,B,9.0
5,19.64400005340576,learn,60000.0,Wed Apr 23 2025 08:56:38 GMT-0500 (Central Daylight Time),631968.0,A,caa,O,a,503,1,916.7999999523163,631051.2000000477,7132,WL,B,9.0
5,20.17799997329712,learn,60000.0,Wed Apr 23 2025 08:56:38 GMT-0500 (Central Daylight Time),632501.8000000119,A,caab,O,b,522,1,1450.5999999642372,631051.2000000477,7132,WL,B,9.0
5,20.59500002861023,learn,60000.0,Wed Apr 23 2025 08:56:38 GMT-0500 (Central Daylight Time),632919.1000000238,A,caa,O,backspace,405,1,1867.8999999761581,631051.2000000477,7132,WL,B,9.0
5,20.844000101089478,learn,60000.0,Wed Apr 23 2025 08:56:38 GMT-0500 (Central Daylight Time),633167.6000000238,A,ca,O,backspace,236,1,2116.399999976158,631051.2000000477,7132,WL,B,9.0
5,21.543999910354614,learn,60000.0,Wed Apr 23 2025 08:56:38 GMT-0500 (Central Daylight Time),633868.2000000477,A,cab,O,b,683,1,2817.0,631051.2000000477,7132,WL,B,9.0
5,21.743000030517578,learn,60000.0,Wed Apr 23 2025 08:56:38 GMT-0500 (Central Daylight Time),634066.7000000477,A,cabi,O,i,191,1,3015.5,631051.2000000477,7132,WL,B,9.0
5,21.97699999809265,learn,60000.0,Wed Apr 23 2025 08:56:38 GMT-0500 (Central Daylight Time),634300.6000000238,A,cabin,O,n,223,1,3249.399999976158,631051.2000000477,7132,WL,B,9.0
5,22.66000008583069,learn,60000.0,Wed Apr 23 2025 08:56:38 GMT-0500 (Central Daylight Time),634984.1000000238,A,cabinenter,O,enter,677,1,3932.899999976158,631051.2000000477,7132,WL,B,9.0
5,23.16000008583069,learn,60000.0,Wed Apr 23 2025 08:56:38 GMT-0500 (Central Daylight Time),635483.5,A,l,O,l,489,1,499.0999999642372,634984.4000000358,7132,WL,B,10.0
5,23.342000007629395,learn,60000.0,Wed Apr 23 2025 08:56:38 GMT-0500 (Central Daylight Time),635666.5,A,la,O,a,173,1,682.0999999642372,634984.4000000358,7132,WL,B,10.0
5,23.4760000705719,learn,60000.0,Wed Apr 23 2025 08:56:38 GMT-0500 (Central Daylight Time),635800.0,A,lak,O,k,119,1,815.5999999642372,634984.4000000358,7132,WL,B,10.0
5,23.625999927520752,learn,60000.0,Wed Apr 23 2025 08:56:38 GMT-0500 (Central Daylight Time),635949.7000000477,A,lake,O,e,137,1,965.3000000119209,634984.4000000358,7132,WL,B,10.0
5,27.075999975204468,learn,60000.0,Wed Apr 23 2025 08:56:38 GMT-0500 (Central Daylight Time),639400.2000000477,A,lakeenter,O,enter,3437,1,4415.800000011921,634984.4000000358,7132,WL,B,10.0
5,30.075000047683716,learn,60000.0,Wed Apr 23 2025 08:56:38 GMT-0500 (Central Daylight Time),642398.6000000238,A,p,O,p,2977,1,2998.199999988079,639400.4000000358,7132,WL,B,11.0
5,30.305999994277954,learn,60000.0,Wed Apr 23 2025 08:56:38 GMT-0500 (Central Daylight Time),642629.7000000477,A,pi,O,i,217,1,3229.300000011921,639400.4000000358,7132,WL,B,11.0
5,30.52500009536743,learn,60000.0,Wed Apr 23 2025 08:56:38 GMT-0500 (Central Daylight Time),642849.4000000358,A,pip,O,p,216,1,3449.0,639400.4000000358,7132,WL,B,11.0
5,31.125,learn,60000.0,Wed Apr 23 2025 08:56:38 GMT-0500 (Central Daylight Time),643448.9000000358,A,pipe,O,e,592,1,4048.5,639400.4000000358,7132,WL,B,11.0
5,31.622999906539917,learn,60000.0,Wed Apr 23 2025 08:56:38 GMT-0500 (Central Daylight Time),643947.3000000119,A,pipeenter,O,enter,488,1,4546.899999976158,639400.4000000358,7132,WL,B,11.0
5,34.039000034332275,learn,60000.0,Wed Apr 23 2025 08:56:38 GMT-0500 (Central Daylight Time),646363.0,A,c,O,c,2408,1,2415.399999976158,643947.6000000238,7132,WL,B,12.0
5,34.25600004196167,learn,60000.0,Wed Apr 23 2025 08:56:38 GMT-0500 (Central Daylight Time),646580.0,A,cl,O,l,199,1,2632.399999976158,643947.6000000238,7132,WL,B,12.0
5,34.47200012207031,learn,60000.0,Wed Apr 23 2025 08:56:38 GMT-0500 (Central Daylight Time),646796.7000000477,A,clo,O,o,206,1,2849.100000023842,643947.6000000238,7132,WL,B,12.0
5,34.79100012779236,learn,60000.0,Wed Apr 23 2025 08:56:38 GMT-0500 (Central Daylight Time),647114.8000000119,A,cloc,O,c,311,1,3167.199999988079,643947.6000000238,7132,WL,B,12.0
5,34.94000005722046,learn,60000.0,Wed Apr 23 2025 08:56:38 GMT-0500 (Central Daylight Time),647264.2000000477,A,clock,O,k,142,1,3316.600000023842,643947.6000000238,7132,WL,B,12.0
5,35.72200012207031,learn,60000.0,Wed Apr 23 2025 08:56:38 GMT-0500 (Central Daylight Time),648045.9000000358,A,clockenter,O,enter,768,1,4098.300000011921,643947.6000000238,7132,WL,B,12.0
5,35.805999994277954,learn,60000.0,Wed Apr 23 2025 08:56:38 GMT-0500 (Central Daylight Time),648129.6000000238,A,enter,O,enter,67,1,83.39999997615814,648046.2000000477,7132,WL,B,13.0
5,37.32299995422363,learn,60000.0,Wed Apr 23 2025 08:56:38 GMT-0500 (Central Daylight Time),649647.4000000358,A,s,O,s,1513,1,1517.5,648129.9000000358,7132,WL,B,14.0
5,37.48799991607666,learn,60000.0,Wed Apr 23 2025 08:56:38 GMT-0500 (Central Daylight Time),649812.1000000238,A,sk,O,k,146,1,1682.199999988079,648129.9000000358,7132,WL,B,14.0
5,37.67300009727478,learn,60000.0,Wed Apr 23 2025 08:56:38 GMT-0500 (Central Daylight Time),649996.6000000238,A,ski,O,i,173,1,1866.699999988079,648129.9000000358,7132,WL,B,14.0
5,37.871999979019165,learn,60000.0,Wed Apr 23 2025 08:56:38 GMT-0500 (Central Daylight Time),650195.5,A,skin,O,n,180,1,2065.599999964237,648129.9000000358,7132,WL,B,14.0
5,38.05299997329712,learn,60000.0,Wed Apr 23 2025 08:56:38 GMT-0500 (Central Daylight Time),650377.5,A,sking,O,g,173,1,2247.599999964237,648129.9000000358,7132,WL,B,14.0
5,39.0220000743866,learn,60000.0,Wed Apr 23 2025 08:56:38 GMT-0500 (Central Daylight Time),651345.7000000477,A,skin,O,backspace,951,1,3215.800000011921,648129.9000000358,7132,WL,B,14.0
5,40.32100009918213,learn,60000.0,Wed Apr 23 2025 08:56:38 GMT-0500 (Central Daylight Time),652645.2000000477,A,skinenter,O,enter,1280,1,4515.300000011921,648129.9000000358,7132,WL,B,14.0
5,42.50200009346008,learn,60000.0,Wed Apr 23 2025 08:56:38 GMT-0500 (Central Daylight Time),654826.2000000477,A,w,O,w,2174,1,2180.7000000476837,652645.5,7132,WL,B,15.0
5,42.82200002670288,learn,60000.0,Wed Apr 23 2025 08:56:38 GMT-0500 (Central Daylight Time),655145.6000000238,A,wi,O,i,313,1,2500.100000023842,652645.5,7132,WL,B,15.0
5,43.46900010108948,learn,60000.0,Wed Apr 23 2025 08:56:38 GMT-0500 (Central Daylight Time),655792.9000000358,A,win,O,n,631,1,3147.400000035763,652645.5,7132,WL,B,15.0
5,43.62000012397766,learn,60000.0,Wed Apr 23 2025 08:56:38 GMT-0500 (Central Daylight Time),655944.4000000358,A,wind,O,d,128,1,3298.900000035763,652645.5,7132,WL,B,15.0
5,43.80299997329712,learn,60000.0,Wed Apr 23 2025 08:56:38 GMT-0500 (Central Daylight Time),656127.1000000238,A,windo,O,o,159,1,3481.600000023842,652645.5,7132,WL,B,15.0
5,43.920000076293945,learn,60000.0,Wed Apr 23 2025 08:56:38 GMT-0500 (Central Daylight Time),656244.5,A,window,O,w,96,1,3599.0,652645.5,7132,WL,B,15.0
5,44.1029999256134,learn,60000.0,Wed Apr 23 2025 08:56:38 GMT-0500 (Central Daylight Time),656427.2000000477,A,windowenter,O,enter,169,1,3781.7000000476837,652645.5,7132,WL,B,15.0
6,0.9500000476837158,distr,59049.999952316284,Wed Apr 23 2025 08:56:38 GMT-0500 (Central Daylight Time),726255.6000000238,B,b,O,b,942,1,949.3999999761581,725306.2000000477,7132,WL,B,1.0
6,1.133000135421753,distr,58866.99986457825,Wed Apr 23 2025 08:56:38 GMT-0500 (Central Daylight Time),726438.5,B,ba,O,a,161,1,1132.2999999523163,725306.2000000477,7132,WL,B,1.0
6,1.2990000247955322,distr,58700.99997520447,Wed Apr 23 2025 08:56:38 GMT-0500 (Central Daylight Time),726604.6000000238,B,bab,O,b,147,1,1298.3999999761581,725306.2000000477,7132,WL,B,1.0
6,1.5830001831054688,distr,58416.99981689453,Wed Apr 23 2025 08:56:38 GMT-0500 (Central Daylight Time),726889.0,B,baby,O,y,278,1,1582.7999999523163,725306.2000000477,7132,WL,B,1.0
6,1.9320001602172852,distr,58067.999839782715,Wed Apr 23 2025 08:56:38 GMT-0500 (Central Daylight Time),727238.1000000238,B,babyenter,O,enter,335,1,1931.8999999761581,725306.2000000477,7132,WL,B,1.0
6,2.615000009536743,distr,57384.99999046326,Wed Apr 23 2025 08:56:38 GMT-0500 (Central Daylight Time),727921.2000000477,B,o,O,o,669,1,682.9000000357628,727238.3000000119,7132,WL,B,2.0
6,2.765000104904175,distr,57234.999895095825,Wed Apr 23 2025 08:56:38 GMT-0500 (Central Daylight Time),728071.2000000477,B,oc,O,c,136,1,832.9000000357628,727238.3000000119,7132,WL,B,2.0
6,3.0,distr,57000.0,Wed Apr 23 2025 08:56:38 GMT-0500 (Central Daylight Time),728305.5,B,oce,O,e,228,1,1067.199999988079,727238.3000000119,7132,WL,B,2.0
6,3.1500000953674316,distr,56849.99990463257,Wed Apr 23 2025 08:56:38 GMT-0500 (Central Daylight Time),728455.3000000119,B,ocea,O,a,136,1,1217.0,727238.3000000119,7132,WL,B,2.0
6,3.365000009536743,distr,56634.99999046326,Wed Apr 23 2025 08:56:38 GMT-0500 (Central Daylight Time),728670.4000000358,B,ocean,O,n,202,1,1432.1000000238419,727238.3000000119,7132,WL,B,2.0
6,3.8320000171661377,distr,56167.99998283386,Wed Apr 23 2025 08:56:38 GMT-0500 (Central Daylight Time),729137.6000000238,B,oceanenter,O,enter,461,1,1899.300000011921,727238.3000000119,7132,WL,B,2.0
6,4.447000026702881,distr,55552.99997329712,Wed Apr 23 2025 08:56:38 GMT-0500 (Central Daylight Time),729752.9000000358,B,p,O,p,600,1,615.1000000238419,729137.8000000119,7132,WL,B,3.0
6,4.617000102996826,distr,55382.999897003174,Wed Apr 23 2025 08:56:38 GMT-0500 (Central Daylight Time),729922.5,B,pa,O,a,152,1,784.6999999880791,729137.8000000119,7132,WL,B,3.0
6,4.7829999923706055,distr,55217.000007629395,Wed Apr 23 2025 08:56:38 GMT-0500 (Central Daylight Time),730088.8000000119,B,pal,O,l,162,1,951.0,729137.8000000119,7132,WL,B,3.0
6,4.897000074386597,distr,55102.9999256134,Wed Apr 23 2025 08:56:38 GMT-0500 (Central Daylight Time),730202.4000000358,B,pala,O,a,105,1,1064.6000000238419,729137.8000000119,7132,WL,B,3.0
6,5.547000169754028,distr,54452.99983024597,Wed Apr 23 2025 08:56:38 GMT-0500 (Central Daylight Time),730853.4000000358,B,palac,O,c,630,1,1715.6000000238419,729137.8000000119,7132,WL,B,3.0
6,5.631999969482422,distr,54368.00003051758,Wed Apr 23 2025 08:56:38 GMT-0500 (Central Daylight Time),730937.5,B,palace,O,e,68,1,1799.699999988079,729137.8000000119,7132,WL,B,3.0
6,6.2799999713897705,distr,53720.00002861023,Wed Apr 23 2025 08:56:38 GMT-0500 (Central Daylight Time),731586.0,B,palaceenter,O,enter,640,1,2448.199999988079,729137.8000000119,7132,WL,B,3.0
6,6.79800009727478,distr,53201.99990272522,Wed Apr 23 2025 08:56:38 GMT-0500 (Central Daylight Time),732103.9000000358,B,d,O,d,496,1,517.6999999880791,731586.2000000477,7132,WL,B,4.0
6,7.080000162124634,distr,52919.999837875366,Wed Apr 23 2025 08:56:38 GMT-0500 (Central Daylight Time),732386.3000000119,B,dr,O,r,266,1,800.0999999642372,731586.2000000477,7132,WL,B,4.0
6,7.163000106811523,distr,52836.99989318848,Wed Apr 23 2025 08:56:38 GMT-0500 (Central Daylight Time),732468.5,B,dre,O,e,62,1,882.2999999523163,731586.2000000477,7132,WL,B,4.0
6,7.430999994277954,distr,52569.000005722046,Wed Apr 23 2025 08:56:38 GMT-0500 (Central Daylight Time),732736.7000000477,B,dres,O,s,252,1,1150.5,731586.2000000477,7132,WL,B,4.0
6,7.613000154495239,distr,52386.99984550476,Wed Apr 23 2025 08:56:38 GMT-0500 (Central Daylight Time),732918.7000000477,B,dress,O,s,170,1,1332.5,731586.2000000477,7132,WL,B,4.0
6,8.34500002861023,distr,51654.99997138977,Wed Apr 23 2025 08:56:38 GMT-0500 (Central Daylight Time),733651.1000000238,B,dressenter,O,enter,714,1,2064.899999976158,731586.2000000477,7132,WL,B,4.0
6,9.163000106811523,distr,50836.99989318848,Wed Apr 23 2025 08:56:38 GMT-0500 (Central Daylight Time),734468.8000000119,B,s,O,s,808,1,817.3999999761581,733651.4000000358,7132,WL,B,5.0
6,9.416000127792358,distr,50583.99987220764,Wed Apr 23 2025 08:56:38 GMT-0500 (Central Daylight Time),734721.7000000477,B,st,O,t,247,1,1070.300000011921,733651.4000000358,7132,WL,B,5.0
6,9.764000177383423,distr,50235.99982261658,Wed Apr 23 2025 08:56:38 GMT-0500 (Central Daylight Time),735069.5,B,ste,O,e,330,1,1418.0999999642372,733651.4000000358,7132,WL,B,5.0
6,9.913000106811523,distr,50086.99989318848,Wed Apr 23 2025 08:56:38 GMT-0500 (Central Daylight Time),735219.3000000119,B,ster,O,r,132,1,1567.8999999761581,733651.4000000358,7132,WL,B,5.0
6,10.347000122070312,distr,49652.99987792969,Wed Apr 23 2025 08:56:38 GMT-0500 (Central Daylight Time),735652.3000000119,B,ste,O,backspace,422,1,2000.8999999761581,733651.4000000358,7132,WL,B,5.0
6,10.462000131607056,distr,49537.999868392944,Wed Apr 23 2025 08:56:38 GMT-0500 (Central Daylight Time),735768.2000000477,B,stea,O,a,100,1,2116.800000011921,733651.4000000358,7132,WL,B,5.0
6,10.67900013923645,distr,49320.99986076355,Wed Apr 23 2025 08:56:38 GMT-0500 (Central Daylight Time),735985.0,B,steam,O,m,211,1,2333.599999964237,733651.4000000358,7132,WL,B,5.0
6,11.67900013923645,distr,48320.99986076355,Wed Apr 23 2025 08:56:38 GMT-0500 (Central Daylight Time),736984.4000000358,B,steamenter,O,enter,992,1,3333.0,733651.4000000358,7132,WL,B,5.0
6,12.111999988555908,distr,47888.00001144409,Wed Apr 23 2025 08:56:38 GMT-0500 (Central Daylight Time),737418.0,B,a,O,a,427,1,433.39999997615814,736984.6000000238,7132,WL,B,6.0
6,12.32800006866455,distr,47671.99993133545,Wed Apr 23 2025 08:56:38 GMT-0500 (Central Daylight Time),737633.8000000119,B,ar,O,r,206,1,649.1999999880791,736984.6000000238,7132,WL,B,6.0
6,12.513000011444092,distr,47486.99998855591,Wed Apr 23 2025 08:56:38 GMT-0500 (Central Daylight Time),737818.6000000238,B,arm,O,m,179,1,834.0,736984.6000000238,7132,WL,B,6.0
6,13.01200008392334,distr,46987.99991607666,Wed Apr 23 2025 08:56:38 GMT-0500 (Central Daylight Time),738317.8000000119,B,army,O,y,478,1,1333.199999988079,736984.6000000238,7132,WL,B,6.0
6,14.062000036239624,distr,45937.999963760376,Wed Apr 23 2025 08:56:38 GMT-0500 (Central Daylight Time),739367.9000000358,B,armyenter,O,enter,1044,1,2383.300000011921,736984.6000000238,7132,WL,B,6.0
6,14.594000101089478,distr,45405.99989891052,Wed Apr 23 2025 08:56:38 GMT-0500 (Central Daylight Time),739899.8000000119,B,c,O,c,522,1,531.6999999880791,739368.1000000238,7132,WL,B,7.0
6,14.745000123977661,distr,45254.99987602234,Wed Apr 23 2025 08:56:38 GMT-0500 (Central Daylight Time),740050.5,B,ce,O,e,135,1,682.3999999761581,739368.1000000238,7132,WL,B,7.0
6,15.046000003814697,distr,44953.9999961853,Wed Apr 23 2025 08:56:38 GMT-0500 (Central Daylight Time),740351.5,B,cel,O,l,277,1,983.3999999761581,739368.1000000238,7132,WL,B,7.0
6,15.228000164031982,distr,44771.99983596802,Wed Apr 23 2025 08:56:38 GMT-0500 (Central Daylight Time),740533.5,B,cell,O,l,162,1,1165.3999999761581,739368.1000000238,7132,WL,B,7.0
6,17.108999967575073,distr,42891.00003242493,Wed Apr 23 2025 08:56:38 GMT-0500 (Central Daylight Time),742415.0,B,cellenter,O,enter,1867,1,3046.899999976158,739368.1000000238,7132,WL,B,7.0
6,19.193000078201294,distr,40806.999921798706,Wed Apr 23 2025 08:56:38 GMT-0500 (Central Daylight Time),744499.2000000477,B,v,O,v,2075,1,2083.900000035763,742415.3000000119,7132,WL,B,8.0
6,19.444000005722046,distr,40555.999994277954,Wed Apr 23 2025 08:56:38 GMT-0500 (Central Daylight Time),744750.0,B,vi,O,i,232,1,2334.699999988079,742415.3000000119,7132,WL,B,8.0
6,19.677000045776367,distr,40322.99995422363,Wed Apr 23 2025 08:56:38 GMT-0500 (Central Daylight Time),744983.0,B,vil,O,l,221,1,2567.699999988079,742415.3000000119,7132,WL,B,8.0
6,19.842000007629395,distr,40157.999992370605,Wed Apr 23 2025 08:56:38 GMT-0500 (Central Daylight Time),745147.6000000238,B,vill,O,l,154,1,2732.300000011921,742415.3000000119,7132,WL,B,8.0
6,19.874000072479248,distr,40125.99992752075,Wed Apr 23 2025 08:56:38 GMT-0500 (Central Daylight Time),745179.8000000119,B,villa,O,a,21,1,2764.5,742415.3000000119,7132,WL,B,8.0
6,20.042999982833862,distr,39957.00001716614,Wed Apr 23 2025 08:56:38 GMT-0500 (Central Daylight Time),745349.1000000238,B,villag,O,g,151,1,2933.800000011921,742415.3000000119,7132,WL,B,8.0
6,20.159000158309937,distr,39840.99984169006,Wed Apr 23 2025 08:56:38 GMT-0500 (Central Daylight Time),745464.7000000477,B,village,O,e,93,1,3049.400000035763,742415.3000000119,7132,WL,B,8.0
6,20.37600016593933,distr,39623.99983406067,Wed Apr 23 2025 08:56:38 GMT-0500 (Central Daylight Time),745681.6000000238,B,villageenter,O,enter,200,1,3266.300000011921,742415.3000000119,7132,WL,B,8.0
6,22.992000102996826,distr,37007.999897003174,Wed Apr 23 2025 08:56:38 GMT-0500 (Central Daylight Time),748297.8000000119,B,c,O,c,2610,1,2616.0,745681.8000000119,7132,WL,B,9.0
6,23.159000158309937,distr,36840.99984169006,Wed Apr 23 2025 08:56:38 GMT-0500 (Central Daylight Time),748464.7000000477,B,co,O,o,151,1,2782.900000035763,745681.8000000119,7132,WL,B,9.0
6,23.37600016593933,distr,36623.99983406067,Wed Apr 23 2025 08:56:38 GMT-0500 (Central Daylight Time),748681.9000000358,B,coi,O,i,210,1,3000.100000023842,745681.8000000119,7132,WL,B,9.0
6,23.625,distr,36375.0,Wed Apr 23 2025 08:56:38 GMT-0500 (Central Daylight Time),748930.7000000477,B,coin,O,n,240,1,3248.900000035763,745681.8000000119,7132,WL,B,9.0
6,24.058000087738037,distr,35941.99991226196,Wed Apr 23 2025 08:56:38 GMT-0500 (Central Daylight Time),749364.0,B,coinenter,O,enter,422,1,3682.199999988079,745681.8000000119,7132,WL,B,9.0
6,28.222000122070312,distr,31777.999877929688,Wed Apr 23 2025 08:56:38 GMT-0500 (Central Daylight Time),753528.3000000119,B,l,O,l,4151,1,4164.0,749364.3000000119,7132,WL,B,10.0
6,28.490000009536743,distr,31509.999990463257,Wed Apr 23 2025 08:56:38 GMT-0500 (Central Daylight Time),753795.9000000358,B,li,O,i,250,1,4431.600000023842,749364.3000000119,7132,WL,B,10.0
6,28.822999954223633,distr,31177.000045776367,Wed Apr 23 2025 08:56:38 GMT-0500 (Central Daylight Time),754129.1000000238,B,lip,O,p,317,1,4764.800000011921,749364.3000000119,7132,WL,B,10.0
6,29.322999954223633,distr,30677.000045776367,Wed Apr 23 2025 08:56:38 GMT-0500 (Central Daylight Time),754629.1000000238,B,lipenter,O,enter,486,1,5264.800000011921,749364.3000000119,7132,WL,B,10.0
6,31.207000017166138,distr,28792.999982833862,Wed Apr 23 2025 08:56:38 GMT-0500 (Central Daylight Time),756513.2000000477,B,enter,O,enter,1869,1,1883.800000011921,754629.4000000358,7132,WL,B,11.0
6,31.4060001373291,distr,28593.9998626709,Wed Apr 23 2025 08:56:38 GMT-0500 (Central Daylight Time),756712.0,B,enter,O,enter,194,1,198.5,756513.5,7132,WL,B,12.0
6,31.60700011253357,distr,28392.99988746643,Wed Apr 23 2025 08:56:38 GMT-0500 (Central Daylight Time),756912.5,B,enter,O,enter,195,1,200.19999998807907,756712.3000000119,7132,WL,B,13.0
6,31.805000066757202,distr,28194.999933242798,Wed Apr 23 2025 08:56:38 GMT-0500 (Central Daylight Time),757110.9000000358,B,enter,O,enter,178,1,198.0,756912.9000000358,7132,WL,B,14.0
6,32.42300009727478,distr,27576.99990272522,Wed Apr 23 2025 08:56:38 GMT-0500 (Central Daylight Time),757729.0,B,enter,O,enter,612,1,617.7999999523163,757111.2000000477,7132,WL,B,15.0
7,1.998000144958496,immed,58001.999855041504,Wed Apr 23 2025 08:56:38 GMT-0500 (Central Daylight Time),765458.5,A,s,O,s,1992,1,1997.5999999642372,763460.9000000358,7132,WL,B,1.0
7,3.88100004196167,immed,56118.99995803833,Wed Apr 23 2025 08:56:38 GMT-0500 (Central Daylight Time),767341.7000000477,A,st,O,t,1871,1,3880.800000011921,763460.9000000358,7132,WL,B,1.0
7,4.230000019073486,immed,55769.999980926514,Wed Apr 23 2025 08:56:38 GMT-0500 (Central Daylight Time),767691.2000000477,A,str,O,r,333,1,4230.300000011921,763460.9000000358,7132,WL,B,1.0
7,4.313000202178955,immed,55686.999797821045,Wed Apr 23 2025 08:56:38 GMT-0500 (Central Daylight Time),767774.2000000477,A,stre,O,e,61,1,4313.300000011921,763460.9000000358,7132,WL,B,1.0
7,4.830000162124634,immed,55169.999837875366,Wed Apr 23 2025 08:56:38 GMT-0500 (Central Daylight Time),768290.8000000119,A,stree,O,e,507,1,4829.899999976158,763460.9000000358,7132,WL,B,1.0
7,5.080000162124634,immed,54919.999837875366,Wed Apr 23 2025 08:56:38 GMT-0500 (Central Daylight Time),768540.7000000477,A,street,O,t,232,1,5079.800000011921,763460.9000000358,7132,WL,B,1.0
7,5.814000129699707,immed,54185.99987030029,Wed Apr 23 2025 08:56:38 GMT-0500 (Central Daylight Time),769274.4000000358,A,streetenter,O,enter,717,1,5813.5,763460.9000000358,7132,WL,B,1.0
7,6.613000154495239,immed,53386.99984550476,Wed Apr 23 2025 08:56:38 GMT-0500 (Central Daylight Time),770073.6000000238,A,g,O,g,784,1,799.0,769274.6000000238,7132,WL,B,2.0
7,6.8460001945495605,immed,53153.99980545044,Wed Apr 23 2025 08:56:38 GMT-0500 (Central Daylight Time),770307.2000000477,A,gr,O,r,215,1,1032.6000000238419,769274.6000000238,7132,WL,B,2.0
7,6.946000099182129,immed,53053.99990081787,Wed Apr 23 2025 08:56:38 GMT-0500 (Central Daylight Time),770407.1000000238,A,gra,O,a,78,1,1132.5,769274.6000000238,7132,WL,B,2.0
7,7.197000026702881,immed,52802.99997329712,Wed Apr 23 2025 08:56:38 GMT-0500 (Central Daylight Time),770657.4000000358,A,gras,O,s,233,1,1382.800000011921,769274.6000000238,7132,WL,B,2.0
7,7.38100004196167,immed,52618.99995803833,Wed Apr 23 2025 08:56:38 GMT-0500 (Central Daylight Time),770842.1000000238,A,grass,O,s,179,1,1567.5,769274.6000000238,7132,WL,B,2.0
7,7.564000129699707,immed,52435.99987030029,Wed Apr 23 2025 08:56:38 GMT-0500 (Central Daylight Time),771024.6000000238,A,grassenter,O,enter,177,1,1750.0,769274.6000000238,7132,WL,B,2.0
7,7.913000106811523,immed,52086.99989318848,Wed Apr 23 2025 08:56:38 GMT-0500 (Central Daylight Time),771373.9000000358,A,a,O,a,338,1,349.0,771024.9000000358,7132,WL,B,3.0
7,8.114000082015991,immed,51885.99991798401,Wed Apr 23 2025 08:56:38 GMT-0500 (Central Daylight Time),771574.5,A,ar,O,r,188,1,549.5999999642372,771024.9000000358,7132,WL,B,3.0
7,8.746999979019165,immed,51253.000020980835,Wed Apr 23 2025 08:56:38 GMT-0500 (Central Daylight Time),772207.9000000358,A,arm,O,m,612,1,1183.0,771024.9000000358,7132,WL,B,3.0
7,9.428000211715698,immed,50571.9997882843,Wed Apr 23 2025 08:56:38 GMT-0500 (Central Daylight Time),772889.0,A,armenter,O,enter,673,1,1864.0999999642372,771024.9000000358,7132,WL,B,3.0
7,9.980000019073486,immed,50019.999980926514,Wed Apr 23 2025 08:56:38 GMT-0500 (Central Daylight Time),773440.5,A,s,O,s,546,1,551.1999999880791,772889.3000000119,7132,WL,B,4.0
7,10.245000123977661,immed,49754.99987602234,Wed Apr 23 2025 08:56:38 GMT-0500 (Central Daylight Time),773705.7000000477,A,st,O,t,248,1,816.4000000357628,772889.3000000119,7132,WL,B,4.0
7,10.36300015449524,immed,49636.99984550476,Wed Apr 23 2025 08:56:38 GMT-0500 (Central Daylight Time),773824.1000000238,A,sta,O,a,113,1,934.8000000119209,772889.3000000119,7132,WL,B,4.0
7,10.627000093460083,immed,49372.99990653992,Wed Apr 23 2025 08:56:38 GMT-0500 (Central Daylight Time),774087.7000000477,A,star,O,r,250,1,1198.4000000357628,772889.3000000119,7132,WL,B,4.0
7,11.478000164031982,immed,48521.99983596802,Wed Apr 23 2025 08:56:38 GMT-0500 (Central Daylight Time),774938.5,A,starenter,O,enter,834,1,2049.199999988079,772889.3000000119,7132,WL,B,4.0
7,12.09500002861023,immed,47904.99997138977,Wed Apr 23 2025 08:56:38 GMT-0500 (Central Daylight Time),775556.0,A,s,O,s,609,1,617.2999999523163,774938.7000000477,7132,WL,B,5.0
7,13.078999996185303,immed,46921.0000038147,Wed Apr 23 2025 08:56:38 GMT-0500 (Central Daylight Time),776540.6000000238,A,,O,backspace,963,1,1601.8999999761581,774938.7000000477,7132,WL,B,5.0
7,13.31000018119812,immed,46689.99981880188,Wed Apr 23 2025 08:56:38 GMT-0500 (Central Daylight Time),776771.3000000119,A,d,O,d,221,1,1832.5999999642372,774938.7000000477,7132,WL,B,5.0
7,13.461000204086304,immed,46538.999795913696,Wed Apr 23 2025 08:56:38 GMT-0500 (Central Daylight Time),776922.4000000358,A,do,O,o,135,1,1983.699999988079,774938.7000000477,7132,WL,B,5.0
7,13.677000045776367,immed,46322.99995422363,Wed Apr 23 2025 08:56:38 GMT-0500 (Central Daylight Time),777138.2000000477,A,doo,O,o,199,1,2199.5,774938.7000000477,7132,WL,B,5.0
7,13.89300012588501,immed,46106.99987411499,Wed Apr 23 2025 08:56:38 GMT-0500 (Central Daylight Time),777354.5,A,door,O,r,210,1,2415.7999999523163,774938.7000000477,7132,WL,B,5.0
7,14.210000038146973,immed,45789.99996185303,Wed Apr 23 2025 08:56:38 GMT-0500 (Central Daylight Time),777671.1000000238,A,doorenter,O,enter,295,1,2732.399999976158,774938.7000000477,7132,WL,B,5.0
7,14.74400019645691,immed,45255.99980354309,Wed Apr 23 2025 08:56:38 GMT-0500 (Central Daylight Time),778205.0,A,w,O,w,515,1,533.6999999880791,777671.3000000119,7132,WL,B,6.0
7,15.527000188827515,immed,44472.999811172485,Wed Apr 23 2025 08:56:38 GMT-0500 (Central Daylight Time),778988.3000000119,A,wi,O,i,765,1,1317.0,777671.3000000119,7132,WL,B,6.0
7,15.726999998092651,immed,44273.00000190735,Wed Apr 23 2025 08:56:38 GMT-0500 (Central Daylight Time),779187.7000000477,A,wif,O,f,190,1,1516.4000000357628,777671.3000000119,7132,WL,B,6.0
7,15.82800006866455,immed,44171.99993133545,Wed Apr 23 2025 08:56:38 GMT-0500 (Central Daylight Time),779288.8000000119,A,wife,O,e,95,1,1617.5,777671.3000000119,7132,WL,B,6.0
7,16.41000008583069,immed,43589.99991416931,Wed Apr 23 2025 08:56:38 GMT-0500 (Central Daylight Time),779871.6000000238,A,wifeenter,O,enter,569,1,2200.300000011921,777671.3000000119,7132,WL,B,6.0
7,16.81000018119812,immed,43189.99981880188,Wed Apr 23 2025 08:56:38 GMT-0500 (Central Daylight Time),780271.6000000238,A,w,O,w,388,1,399.80000001192093,779871.8000000119,7132,WL,B,7.0
7,16.993000030517578,immed,43006.99996948242,Wed Apr 23 2025 08:56:38 GMT-0500 (Central Daylight Time),780454.2000000477,A,wi,O,i,161,1,582.4000000357628,779871.8000000119,7132,WL,B,7.0
7,17.193000078201294,immed,42806.999921798706,Wed Apr 23 2025 08:56:38 GMT-0500 (Central Daylight Time),780653.7000000477,A,win,O,n,186,1,781.9000000357628,779871.8000000119,7132,WL,B,7.0
7,17.593000173568726,immed,42406.999826431274,Wed Apr 23 2025 08:56:38 GMT-0500 (Central Daylight Time),781053.8000000119,A,wind,O,d,388,1,1182.0,779871.8000000119,7132,WL,B,7.0
7,17.877000093460083,immed,42122.99990653992,Wed Apr 23 2025 08:56:38 GMT-0500 (Central Daylight Time),781338.5,A,windo,O,o,278,1,1466.699999988079,779871.8000000119,7132,WL,B,7.0
7,18.10800004005432,immed,41891.99995994568,Wed Apr 23 2025 08:56:38 GMT-0500 (Central Daylight Time),781569.2000000477,A,window,O,w,225,1,1697.4000000357628,779871.8000000119,7132,WL,B,7.0
7,18.77500009536743,immed,41224.99990463257,Wed Apr 23 2025 08:56:38 GMT-0500 (Central Daylight Time),782236.0,A,windowenter,O,enter,647,1,2364.199999988079,779871.8000000119,7132,WL,B,7.0
7,19.545000076293945,immed,40454.999923706055,Wed Apr 23 2025 08:56:38 GMT-0500 (Central Daylight Time),783006.2000000477,A,c,O,c,761,1,770.0,782236.2000000477,7132,WL,B,8.0
7,19.692000150680542,immed,40307.99984931946,Wed Apr 23 2025 08:56:38 GMT-0500 (Central Daylight Time),783153.4000000358,A,ci,O,i,133,1,917.1999999880791,782236.2000000477,7132,WL,B,8.0
7,19.859000205993652,immed,40140.99979400635,Wed Apr 23 2025 08:56:38 GMT-0500 (Central Daylight Time),783319.8000000119,A,cit,O,t,152,1,1083.5999999642372,782236.2000000477,7132,WL,B,8.0
7,20.007000207901,immed,39992.999792099,Wed Apr 23 2025 08:56:38 GMT-0500 (Central Daylight Time),783468.5,A,city,O,y,130,1,1232.2999999523163,782236.2000000477,7132,WL,B,8.0
7,20.558000087738037,immed,39441.99991226196,Wed Apr 23 2025 08:56:38 GMT-0500 (Central Daylight Time),784019.3000000119,A,cityenter,O,enter,532,1,1783.0999999642372,782236.2000000477,7132,WL,B,8.0
7,21.009000062942505,immed,38990.999937057495,Wed Apr 23 2025 08:56:38 GMT-0500 (Central Daylight Time),784469.8000000119,A,p,O,p,440,1,450.30000001192093,784019.5,7132,WL,B,9.0
7,21.259999990463257,immed,38740.00000953674,Wed Apr 23 2025 08:56:38 GMT-0500 (Central Daylight Time),784721.3000000119,A,pu,O,u,246,1,701.8000000119209,784019.5,7132,WL,B,9.0
7,21.475000143051147,immed,38524.99985694885,Wed Apr 23 2025 08:56:38 GMT-0500 (Central Daylight Time),784936.5,A,pup,O,p,200,1,917.0,784019.5,7132,WL,B,9.0
7,21.85700011253357,immed,38142.99988746643,Wed Apr 23 2025 08:56:38 GMT-0500 (Central Daylight Time),785318.1000000238,A,pupi,O,i,369,1,1298.6000000238419,784019.5,7132,WL,B,9.0
7,22.10800004005432,immed,37891.99995994568,Wed Apr 23 2025 08:56:38 GMT-0500 (Central Daylight Time),785569.7000000477,A,pupil,O,l,242,1,1550.2000000476837,784019.5,7132,WL,B,9.0
7,22.70800018310547,immed,37291.99981689453,Wed Apr 23 2025 08:56:38 GMT-0500 (Central Daylight Time),786169.4000000358,A,pupilenter,O,enter,582,1,2149.900000035763,784019.5,7132,WL,B,9.0
7,24.091000080108643,immed,35908.99991989136,Wed Apr 23 2025 08:56:38 GMT-0500 (Central Daylight Time),787552.7000000477,A,c,O,c,1369,1,1383.1000000238419,786169.6000000238,7132,WL,B,10.0
7,24.17300009727478,immed,35826.99990272522,Wed Apr 23 2025 08:56:38 GMT-0500 (Central Daylight Time),787634.2000000477,A,ca,O,a,73,1,1464.6000000238419,786169.6000000238,7132,WL,B,10.0
7,24.374000072479248,immed,35625.99992752075,Wed Apr 23 2025 08:56:38 GMT-0500 (Central Daylight Time),787835.3000000119,A,cab,O,b,194,1,1665.699999988079,786169.6000000238,7132,WL,B,10.0
7,24.558000087738037,immed,35441.99991226196,Wed Apr 23 2025 08:56:38 GMT-0500 (Central Daylight Time),788019.6000000238,A,cabi,O,i,165,1,1850.0,786169.6000000238,7132,WL,B,10.0
7,24.807000160217285,immed,35192.999839782715,Wed Apr 23 2025 08:56:38 GMT-0500 (Central Daylight Time),788268.3000000119,A,cabin,O,n,236,1,2098.699999988079,786169.6000000238,7132,WL,B,10.0
7,25.45900011062622,immed,34540.99988937378,Wed Apr 23 2025 08:56:38 GMT-0500 (Central Daylight Time),788919.7000000477,A,cabinenter,O,enter,646,1,2750.100000023842,786169.6000000238,7132,WL,B,10.0
7,26.074000120162964,immed,33925.999879837036,Wed Apr 23 2025 08:56:38 GMT-0500 (Central Daylight Time),789535.6000000238,A,l,O,l,603,1,615.6000000238419,788920.0,7132,WL,B,11.0
7,26.241000175476074,immed,33758.999824523926,Wed Apr 23 2025 08:56:38 GMT-0500 (Central Daylight Time),789701.9000000358,A,la,O,a,152,1,781.9000000357628,788920.0,7132,WL,B,11.0
7,26.439000129699707,immed,33560.99987030029,Wed Apr 23 2025 08:56:38 GMT-0500 (Central Daylight Time),789900.4000000358,A,lak,O,k,179,1,980.4000000357628,788920.0,7132,WL,B,11.0
