acc_sum,block,block_c,change,condition,correct,correct_response,datetime,endtime,face,project,response,response_time,row_sel,session_number,start_end,starttime,subject_id,task,task_vers,trial
0,prac,1,,1-Back,,,Mon Feb 24 2025 14:05:07 GMT-0600 (Central Standard Time),,005_o_f_d_a.png,O,space,11679,1,1,,,7063,VNB,B,0
0,prac,1,0.0,1-Back,0,m,Mon Feb 24 2025 14:05:07 GMT-0600 (Central Standard Time),165789.6000000001,020_y_f_n_a.png,O,None,2012,2,1,2875.7000000001863,162913.8999999999,7063,VNB,B,1
0,prac,1,0.0,1-Back,0,m,Mon Feb 24 2025 14:05:07 GMT-0600 (Central Standard Time),168688.7000000002,007_m_m_h_a.png,O,None,2010,3,1,2893.600000000093,165795.1000000001,7063,VNB,B,2
0,prac,1,0.0,1-Back,0,m,Mon Feb 24 2025 14:05:07 GMT-0600 (Central Standard Time),170721.2999999998,016_y_m_d_a.png,O,z,1124,4,1,2026.5999999996275,168694.7000000002,7063,VNB,B,3
0,prac,1,0.0,1-Back,0,m,Mon Feb 24 2025 14:05:07 GMT-0600 (Central Standard Time),172603.8999999999,005_o_f_n_a.png,O,z,986,5,1,1875.3999999999069,170728.5,7063,VNB,B,4
1,prac,1,1.0,1-Back,1,z,Mon Feb 24 2025 14:05:07 GMT-0600 (Central Standard Time),174536.7000000002,016_y_m_n_a.png,O,z,1028,6,1,1927.4000000003725,172609.2999999998,7063,VNB,B,5
2,prac,1,0.0,1-Back,1,m,Mon Feb 24 2025 14:05:07 GMT-0600 (Central Standard Time),176152.8999999999,004_o_m_h_a.png,O,m,736,7,1,1610.1999999997206,174542.7000000002,7063,VNB,B,6
2,prac,1,0.0,1-Back,0,m,Mon Feb 24 2025 14:05:07 GMT-0600 (Central Standard Time),177885.7999999998,011_m_f_d_a.png,O,z,845,8,1,1726.5,176159.2999999998,7063,VNB,B,7
2,prac,1,1.0,1-Back,0,z,Mon Feb 24 2025 14:05:07 GMT-0600 (Central Standard Time),180768.0,020_y_f_d_a.png,O,None,2008,9,1,2874.899999999907,177893.1000000001,7063,VNB,B,8
2,prac,1,0.0,1-Back,0,m,Mon Feb 24 2025 14:05:07 GMT-0600 (Central Standard Time),183150.7000000002,007_m_m_n_a.png,O,z,1484,10,1,2375.100000000093,180775.6000000001,7063,VNB,B,9
3,prac,1,0.0,1-Back,1,m,Mon Feb 24 2025 14:05:07 GMT-0600 (Central Standard Time),185583.2999999998,005_o_f_h_a.png,O,m,1521,11,1,2425.0,183158.2999999998,7063,VNB,B,10
4,prac,1,0.0,1-Back,1,m,Mon Feb 24 2025 14:05:07 GMT-0600 (Central Standard Time),187282.7999999998,016_y_m_d_a.png,O,m,804,12,1,1692.8999999999069,185589.8999999999,7063,VNB,B,11
0,prac,2,0.0,1-Back,,,Mon Feb 24 2025 14:05:07 GMT-0600 (Central Standard Time),187282.7999999998,005_o_f_d_a.png,O,a,20803,1,1,1692.8999999999069,185589.8999999999,7063,VNB,B,0
1,prac,2,0.0,1-Back,1,m,Mon Feb 24 2025 14:05:07 GMT-0600 (Central Standard Time),213574.7000000002,020_y_f_n_a.png,O,m,1571,2,1,2441.5,211133.2000000002,7063,VNB,B,1
2,prac,2,0.0,1-Back,1,m,Mon Feb 24 2025 14:05:07 GMT-0600 (Central Standard Time),215340.3999999999,007_m_m_h_a.png,O,m,864,3,1,1759.5,213580.8999999999,7063,VNB,B,2
3,prac,2,0.0,1-Back,1,m,Mon Feb 24 2025 14:05:07 GMT-0600 (Central Standard Time),217123.3999999999,016_y_m_d_a.png,O,m,1008,4,1,1776.8999999999069,215346.5,7063,VNB,B,3
4,prac,2,0.0,1-Back,1,m,Mon Feb 24 2025 14:05:07 GMT-0600 (Central Standard Time),219222.7000000002,005_o_f_n_a.png,O,m,1212,5,1,2093.8000000002794,217128.8999999999,7063,VNB,B,4
5,prac,2,1.0,1-Back,1,z,Mon Feb 24 2025 14:05:07 GMT-0600 (Central Standard Time),221155.5,016_y_m_n_a.png,O,z,1028,6,1,1926.2000000001863,219229.2999999998,7063,VNB,B,5
6,prac,2,0.0,1-Back,1,m,Mon Feb 24 2025 14:05:07 GMT-0600 (Central Standard Time),222821.7000000002,004_o_m_h_a.png,O,m,798,7,1,1660.6000000000931,221161.1000000001,7063,VNB,B,6
7,prac,2,0.0,1-Back,1,m,Mon Feb 24 2025 14:05:07 GMT-0600 (Central Standard Time),224687.7000000002,011_m_f_d_a.png,O,m,968,8,1,1859.7000000001863,222828.0,7063,VNB,B,7
7,prac,2,1.0,1-Back,0,z,Mon Feb 24 2025 14:05:07 GMT-0600 (Central Standard Time),226703.6000000001,020_y_f_d_a.png,O,m,1130,9,1,2010.1000000000931,224693.5,7063,VNB,B,8
8,prac,2,0.0,1-Back,1,m,Mon Feb 24 2025 14:05:07 GMT-0600 (Central Standard Time),229267.2999999998,007_m_m_n_a.png,O,m,1534,10,1,2556.899999999907,226710.3999999999,7063,VNB,B,9
9,prac,2,0.0,1-Back,1,m,Mon Feb 24 2025 14:05:07 GMT-0600 (Central Standard Time),231068.8999999999,005_o_f_h_a.png,O,m,907,11,1,1795.3999999999069,229273.5,7063,VNB,B,10
10,prac,2,0.0,1-Back,1,m,Mon Feb 24 2025 14:05:07 GMT-0600 (Central Standard Time),233001.7000000002,016_y_m_d_a.png,O,m,1031,12,1,1927.2000000001863,231074.5,7063,VNB,B,11
0,test,1,0.0,1-Back,,,Mon Feb 24 2025 14:05:07 GMT-0600 (Central Standard Time),233001.7000000002,020_y_f_d_a.png,O,space,12025,1,1,1927.2000000001863,231074.5,7063,VNB,B,0
1,test,1,0.0,1-Back,1,m,Mon Feb 24 2025 14:05:07 GMT-0600 (Central Standard Time),261309.6000000001,011_m_f_n_a.png,O,m,1672,2,1,2694.5,258615.1000000001,7063,VNB,B,1
2,test,1,0.0,1-Back,1,m,Mon Feb 24 2025 14:05:07 GMT-0600 (Central Standard Time),263209.2000000002,004_o_m_h_a.png,O,m,876,3,1,1895.6000000000931,261313.6000000001,7063,VNB,B,2
3,test,1,1.0,1-Back,1,z,Mon Feb 24 2025 14:05:07 GMT-0600 (Central Standard Time),265191.6000000001,007_m_m_h_a.png,O,z,961,4,1,1978.1000000000931,263213.5,7063,VNB,B,3
4,test,1,0.0,1-Back,1,m,Mon Feb 24 2025 14:05:07 GMT-0600 (Central Standard Time),267024.3999999999,005_o_f_n_a.png,O,m,811,5,1,1828.3999999999069,265196.0,7063,VNB,B,4
5,test,1,0.0,1-Back,1,m,Mon Feb 24 2025 14:05:07 GMT-0600 (Central Standard Time),269073.7000000002,016_y_m_d_a.png,O,m,1026,6,1,2045.1000000000931,267028.6000000001,7063,VNB,B,5
6,test,1,1.0,1-Back,1,z,Mon Feb 24 2025 14:05:07 GMT-0600 (Central Standard Time),271389.8999999999,011_m_f_d_a.png,O,z,1296,7,1,2311.600000000093,269078.2999999998,7063,VNB,B,6
7,test,1,0.0,1-Back,1,m,Mon Feb 24 2025 14:05:07 GMT-0600 (Central Standard Time),273189.2999999998,020_y_f_h_a.png,O,m,779,8,1,1796.1999999997206,271393.1000000001,7063,VNB,B,7
8,test,1,0.0,1-Back,1,m,Mon Feb 24 2025 14:05:07 GMT-0600 (Central Standard Time),275605.1000000001,004_o_m_n_a.png,O,m,1397,9,1,2412.600000000093,273192.5,7063,VNB,B,8
9,test,1,0.0,1-Back,1,m,Mon Feb 24 2025 14:05:07 GMT-0600 (Central Standard Time),277754.2999999998,016_y_m_h_a.png,O,m,1118,10,1,2144.6999999997206,275609.6000000001,7063,VNB,B,9
10,test,1,0.0,1-Back,1,m,Mon Feb 24 2025 14:05:07 GMT-0600 (Central Standard Time),279887.1000000001,004_o_m_d_a.png,O,m,1112,11,1,2128.7000000001863,277758.3999999999,7063,VNB,B,10
11,test,1,1.0,1-Back,1,z,Mon Feb 24 2025 14:05:07 GMT-0600 (Central Standard Time),281753.1000000001,005_o_f_d_a.png,O,z,835,12,1,1862.6000000000931,279890.5,7063,VNB,B,11
12,test,1,0.0,1-Back,1,m,Mon Feb 24 2025 14:05:07 GMT-0600 (Central Standard Time),283902.5,007_m_m_n_a.png,O,m,1129,13,1,2146.100000000093,281756.3999999999,7063,VNB,B,12
13,test,1,1.0,1-Back,1,z,Mon Feb 24 2025 14:05:07 GMT-0600 (Central Standard Time),286352.0,020_y_f_n_a.png,O,z,1419,14,1,2445.2000000001863,283906.7999999998,7063,VNB,B,13
14,test,1,0.0,1-Back,1,m,Mon Feb 24 2025 14:05:07 GMT-0600 (Central Standard Time),288201.1000000001,011_m_f_h_a.png,O,m,818,15,1,1845.1000000000931,286356.0,7063,VNB,B,14
15,test,1,0.0,1-Back,1,m,Mon Feb 24 2025 14:05:07 GMT-0600 (Central Standard Time),290200.7000000002,007_m_m_d_a.png,O,m,977,16,1,1995.6000000000931,288205.1000000001,7063,VNB,B,15
16,test,1,0.0,1-Back,1,m,Mon Feb 24 2025 14:05:07 GMT-0600 (Central Standard Time),292499.7999999998,016_y_m_n_a.png,O,m,1273,17,1,2294.2999999998137,290205.5,7063,VNB,B,16
17,test,1,0.0,1-Back,1,m,Mon Feb 24 2025 14:05:07 GMT-0600 (Central Standard Time),294382.6000000001,005_o_f_h_a.png,O,m,862,18,1,1879.5,292503.1000000001,7063,VNB,B,17
0,test,2,0.0,1-Back,,,Mon Feb 24 2025 14:05:07 GMT-0600 (Central Standard Time),294382.6000000001,016_y_m_n_a.png,O,space,2028,1,1,1879.5,292503.1000000001,7063,VNB,B,0
1,test,2,0.0,1-Back,1,m,Mon Feb 24 2025 14:05:07 GMT-0600 (Central Standard Time),300547.2999999998,020_y_f_h_a.png,O,m,1099,2,1,2111.1999999997206,298436.1000000001,7063,VNB,B,1
2,test,2,1.0,1-Back,1,m,Mon Feb 24 2025 14:05:07 GMT-0600 (Central Standard Time),302413.3999999999,004_o_m_n_a.png,O,m,846,3,1,1862.0,300551.3999999999,7063,VNB,B,2
3,test,2,0.0,1-Back,1,m,Mon Feb 24 2025 14:05:07 GMT-0600 (Central Standard Time),304612.7000000002,011_m_f_d_a.png,O,m,1181,4,1,2195.2000000001863,302417.5,7063,VNB,B,3
4,test,2,0.0,1-Back,1,z,Mon Feb 24 2025 14:05:07 GMT-0600 (Central Standard Time),306795.2999999998,007_m_m_d_a.png,O,z,1165,5,1,2178.399999999907,304616.8999999999,7063,VNB,B,4
5,test,2,0.0,1-Back,1,m,Mon Feb 24 2025 14:05:07 GMT-0600 (Central Standard Time),308595.0,016_y_m_h_a.png,O,m,767,6,1,1796.5,306798.5,7063,VNB,B,5
6,test,2,1.0,1-Back,1,z,Mon Feb 24 2025 14:05:07 GMT-0600 (Central Standard Time),310760.7000000002,005_o_f_h_a.png,O,z,1136,7,1,2161.3000000002794,308599.3999999999,7063,VNB,B,6
7,test,2,0.0,1-Back,1,m,Mon Feb 24 2025 14:05:07 GMT-0600 (Central Standard Time),312644.7999999998,011_m_f_n_a.png,O,m,865,8,1,1879.5999999996275,310765.2000000002,7063,VNB,B,7
8,test,2,0.0,1-Back,1,m,Mon Feb 24 2025 14:05:07 GMT-0600 (Central Standard Time),314942.8999999999,020_y_f_d_a.png,O,m,1270,9,1,2293.0,312649.8999999999,7063,VNB,B,8
9,test,2,0.0,1-Back,1,m,Mon Feb 24 2025 14:05:07 GMT-0600 (Central Standard Time),317192.2000000002,007_m_m_n_a.png,O,m,1220,10,1,2244.9000000003725,314947.2999999998,7063,VNB,B,9
10,test,2,1.0,1-Back,1,m,Mon Feb 24 2025 14:05:07 GMT-0600 (Central Standard Time),319174.7999999998,011_m_f_h_a.png,O,m,962,11,1,1978.6999999997206,317196.1000000001,7063,VNB,B,10
11,test,2,0.0,1-Back,1,z,Mon Feb 24 2025 14:05:07 GMT-0600 (Central Standard Time),321140.8999999999,004_o_m_h_a.png,O,z,939,12,1,1961.7999999998137,319179.1000000001,7063,VNB,B,11
12,test,2,0.0,1-Back,1,m,Mon Feb 24 2025 14:05:07 GMT-0600 (Central Standard Time),323107.2000000002,016_y_m_d_a.png,O,m,948,13,1,1962.5,321144.7000000002,7063,VNB,B,12
13,test,2,0.0,1-Back,1,m,Mon Feb 24 2025 14:05:07 GMT-0600 (Central Standard Time),325423.0,005_o_f_n_a.png,O,m,1295,14,1,2312.600000000093,323110.3999999999,7063,VNB,B,13
14,test,2,0.0,1-Back,1,z,Mon Feb 24 2025 14:05:07 GMT-0600 (Central Standard Time),327722.2999999998,020_y_f_n_a.png,O,z,1275,15,1,2295.399999999907,325426.8999999999,7063,VNB,B,14
15,test,2,1.0,1-Back,1,m,Mon Feb 24 2025 14:05:07 GMT-0600 (Central Standard Time),329571.5,007_m_m_h_a.png,O,m,832,16,1,1845.1000000000931,327726.3999999999,7063,VNB,B,15
16,test,2,0.0,1-Back,1,m,Mon Feb 24 2025 14:05:07 GMT-0600 (Central Standard Time),331920.7999999998,005_o_f_d_a.png,O,m,1319,17,1,2344.7999999998137,329576.0,7063,VNB,B,16
17,test,2,1.0,1-Back,1,z,Mon Feb 24 2025 14:05:07 GMT-0600 (Central Standard Time),334436.7999999998,004_o_m_d_a.png,O,z,1488,18,1,2512.0,331924.7999999998,7063,VNB,B,17
0,test,3,1.0,1-Back,,,Mon Feb 24 2025 14:05:07 GMT-0600 (Central Standard Time),334436.7999999998,005_o_f_h_a.png,O,space,1886,1,1,2512.0,331924.7999999998,7063,VNB,B,0
1,test,3,0.0,1-Back,1,m,Mon Feb 24 2025 14:05:07 GMT-0600 (Central Standard Time),340635.0,011_m_f_d_a.png,O,m,1166,2,1,2179.899999999907,338455.1000000001,7063,VNB,B,1
2,test,3,1.0,1-Back,1,m,Mon Feb 24 2025 14:05:07 GMT-0600 (Central Standard Time),342867.3999999999,007_m_m_n_a.png,O,m,1201,3,1,2228.0,340639.3999999999,7063,VNB,B,2
3,test,3,0.0,1-Back,1,z,Mon Feb 24 2025 14:05:07 GMT-0600 (Central Standard Time),344833.3999999999,005_o_f_n_a.png,O,z,942,4,1,1962.6000000000931,342870.7999999998,7063,VNB,B,3
4,test,3,1.0,1-Back,1,m,Mon Feb 24 2025 14:05:07 GMT-0600 (Central Standard Time),346766.2000000002,004_o_m_d_a.png,O,m,905,5,1,1928.5,344837.7000000002,7063,VNB,B,4
5,test,3,0.0,1-Back,1,m,Mon Feb 24 2025 14:05:07 GMT-0600 (Central Standard Time),348848.8999999999,020_y_f_h_a.png,O,m,1052,6,1,2077.600000000093,346771.2999999998,7063,VNB,B,5
6,test,3,0.0,1-Back,1,z,Mon Feb 24 2025 14:05:07 GMT-0600 (Central Standard Time),350748.1000000001,016_y_m_h_a.png,O,z,881,7,1,1893.1000000000931,348855.0,7063,VNB,B,6
7,test,3,0.0,1-Back,1,m,Mon Feb 24 2025 14:05:07 GMT-0600 (Central Standard Time),352647.8999999999,011_m_f_n_a.png,O,m,870,8,1,1896.7999999998137,350751.1000000001,7063,VNB,B,7
8,test,3,0.0,1-Back,1,m,Mon Feb 24 2025 14:05:07 GMT-0600 (Central Standard Time),355130.2999999998,020_y_f_d_a.png,O,m,1450,9,1,2478.1999999997206,352652.1000000001,7063,VNB,B,8
8,test,3,1.0,1-Back,0,m,Mon Feb 24 2025 14:05:07 GMT-0600 (Central Standard Time),357179.5,004_o_m_n_a.png,O,z,1032,10,1,2045.1000000000931,355134.3999999999,7063,VNB,B,9
9,test,3,0.0,1-Back,1,m,Mon Feb 24 2025 14:05:07 GMT-0600 (Central Standard Time),359112.2999999998,007_m_m_h_a.png,O,m,903,11,1,1929.6999999997206,357182.6000000001,7063,VNB,B,10
10,test,3,0.0,1-Back,1,z,Mon Feb 24 2025 14:05:07 GMT-0600 (Central Standard Time),361145.1000000001,011_m_f_h_a.png,O,z,1002,12,1,2028.6000000000931,359116.5,7063,VNB,B,11
11,test,3,1.0,1-Back,1,m,Mon Feb 24 2025 14:05:07 GMT-0600 (Central Standard Time),363111.1000000001,005_o_f_d_a.png,O,m,946,13,1,1962.3999999999069,361148.7000000002,7063,VNB,B,12
11,test,3,0.0,1-Back,0,z,Mon Feb 24 2025 14:05:07 GMT-0600 (Central Standard Time),365711.1000000001,007_m_m_d_a.png,O,m,1571,14,1,2596.2000000001863,363114.8999999999,7063,VNB,B,13
12,test,3,0.0,1-Back,1,m,Mon Feb 24 2025 14:05:07 GMT-0600 (Central Standard Time),368159.7000000002,016_y_m_n_a.png,O,m,1420,15,1,2445.3000000002794,365714.3999999999,7063,VNB,B,14
13,test,3,1.0,1-Back,1,m,Mon Feb 24 2025 14:05:07 GMT-0600 (Central Standard Time),370092.2000000002,004_o_m_h_a.png,O,m,915,16,1,1929.4000000003725,368162.7999999998,7063,VNB,B,15
14,test,3,0.0,1-Back,1,m,Mon Feb 24 2025 14:05:07 GMT-0600 (Central Standard Time),372224.7999999998,016_y_m_d_a.png,O,m,1110,17,1,2128.5999999996275,370096.2000000002,7063,VNB,B,16
15,test,3,1.0,1-Back,1,m,Mon Feb 24 2025 14:05:07 GMT-0600 (Central Standard Time),374857.7000000002,020_y_f_n_a.png,O,m,1609,18,1,2629.0,372228.7000000002,7063,VNB,B,17
0,test,4,1.0,1-Back,,,Mon Feb 24 2025 14:05:07 GMT-0600 (Central Standard Time),374857.7000000002,007_m_m_d_a.png,O,space,1897,1,1,2629.0,372228.7000000002,7063,VNB,B,0
1,test,4,0.0,1-Back,1,z,Mon Feb 24 2025 14:05:07 GMT-0600 (Central Standard Time),380872.2999999998,004_o_m_d_a.png,O,z,977,2,1,1994.6999999997206,378877.6000000001,7063,VNB,B,1
2,test,4,0.0,1-Back,1,m,Mon Feb 24 2025 14:05:07 GMT-0600 (Central Standard Time),382588.0,016_y_m_h_a.png,O,m,689,3,1,1710.7999999998137,380877.2000000002,7063,VNB,B,2
3,test,4,0.0,1-Back,1,m,Mon Feb 24 2025 14:05:07 GMT-0600 (Central Standard Time),384621.0,011_m_f_n_a.png,O,m,1006,4,1,2028.5,382592.5,7063,VNB,B,3
4,test,4,1.0,1-Back,1,m,Mon Feb 24 2025 14:05:07 GMT-0600 (Central Standard Time),386403.5,005_o_f_h_a.png,O,m,765,5,1,1778.6000000000931,384624.8999999999,7063,VNB,B,4
5,test,4,0.0,1-Back,1,m,Mon Feb 24 2025 14:05:07 GMT-0600 (Central Standard Time),388354.5,007_m_m_n_a.png,O,m,918,6,1,1947.8999999999069,386406.6000000001,7063,VNB,B,5
6,test,4,0.0,1-Back,1,m,Mon Feb 24 2025 14:05:07 GMT-0600 (Central Standard Time),390585.8999999999,016_y_m_d_a.png,O,m,1209,7,1,2228.0,388357.8999999999,7063,VNB,B,6
7,test,4,1.0,1-Back,1,z,Mon Feb 24 2025 14:05:07 GMT-0600 (Central Standard Time),392485.2999999998,020_y_f_d_a.png,O,z,872,8,1,1895.3999999999069,390589.8999999999,7063,VNB,B,7
8,test,4,0.0,1-Back,1,m,Mon Feb 24 2025 14:05:07 GMT-0600 (Central Standard Time),394267.8999999999,011_m_f_h_a.png,O,m,765,9,1,1778.3999999999069,392489.5,7063,VNB,B,8
9,test,4,0.0,1-Back,1,z,Mon Feb 24 2025 14:05:07 GMT-0600 (Central Standard Time),396283.7999999998,004_o_m_h_a.png,O,z,998,10,1,2012.6999999997206,394271.1000000001,7063,VNB,B,9
10,test,4,1.0,1-Back,1,m,Mon Feb 24 2025 14:05:07 GMT-0600 (Central Standard Time),398200.0,005_o_f_n_a.png,O,m,894,11,1,1912.6000000000931,396287.3999999999,7063,VNB,B,10
10,test,4,0.0,1-Back,0,m,Mon Feb 24 2025 14:05:07 GMT-0600 (Central Standard Time),400515.8999999999,011_m_f_d_a.png,O,z,1298,12,1,2311.899999999907,398204.0,7063,VNB,B,11
10,test,4,0.0,1-Back,0,m,Mon Feb 24 2025 14:05:07 GMT-0600 (Central Standard Time),402432.2000000002,020_y_f_n_a.png,O,z,894,13,1,1912.6000000000931,400519.6000000001,7063,VNB,B,12
11,test,4,0.0,1-Back,1,m,Mon Feb 24 2025 14:05:07 GMT-0600 (Central Standard Time),404764.5,005_o_f_d_a.png,O,m,1314,14,1,2329.0,402435.5,7063,VNB,B,13
12,test,4,0.0,1-Back,1,m,Mon Feb 24 2025 14:05:07 GMT-0600 (Central Standard Time),406797.6000000001,020_y_f_h_a.png,O,m,1013,15,1,2029.7000000001863,404767.8999999999,7063,VNB,B,14
12,test,4,1.0,1-Back,0,z,Mon Feb 24 2025 14:05:07 GMT-0600 (Central Standard Time),408880.0,007_m_m_h_a.png,O,m,1061,16,1,2078.5,406801.5,7063,VNB,B,15
13,test,4,0.0,1-Back,1,m,Mon Feb 24 2025 14:05:07 GMT-0600 (Central Standard Time),410962.8999999999,004_o_m_n_a.png,O,m,1050,17,1,2079.7999999998137,408883.1000000001,7063,VNB,B,16
14,test,4,1.0,1-Back,1,z,Mon Feb 24 2025 14:05:07 GMT-0600 (Central Standard Time),412845.7000000002,016_y_m_n_a.png,O,z,856,18,1,1878.2000000001863,410967.5,7063,VNB,B,17
0,test,5,1.0,1-Back,,,Mon Feb 24 2025 14:05:07 GMT-0600 (Central Standard Time),412845.7000000002,004_o_m_n_a.png,O,space,1933,1,1,1878.2000000001863,410967.5,7063,VNB,B,0
1,test,5,1.0,1-Back,1,m,Mon Feb 24 2025 14:05:07 GMT-0600 (Central Standard Time),418593.7999999998,005_o_f_h_a.png,O,m,751,2,1,1779.7999999998137,416814.0,7063,VNB,B,1
2,test,5,0.0,1-Back,1,m,Mon Feb 24 2025 14:05:07 GMT-0600 (Central Standard Time),420726.2999999998,016_y_m_d_a.png,O,m,1104,3,1,2129.1999999997206,418597.1000000001,7063,VNB,B,2
3,test,5,0.0,1-Back,1,z,Mon Feb 24 2025 14:05:07 GMT-0600 (Central Standard Time),422626.0,004_o_m_d_a.png,O,z,868,4,1,1895.7999999998137,420730.2000000002,7063,VNB,B,3
4,test,5,0.0,1-Back,1,m,Mon Feb 24 2025 14:05:07 GMT-0600 (Central Standard Time),424325.2999999998,011_m_f_h_a.png,O,m,680,5,1,1696.1999999997206,422629.1000000001,7063,VNB,B,4
5,test,5,0.0,1-Back,1,m,Mon Feb 24 2025 14:05:07 GMT-0600 (Central Standard Time),426574.7000000002,020_y_f_n_a.png,O,m,1229,6,1,2246.0,424328.7000000002,7063,VNB,B,5
6,test,5,1.0,1-Back,1,z,Mon Feb 24 2025 14:05:07 GMT-0600 (Central Standard Time),428374.0,005_o_f_n_a.png,O,z,779,7,1,1796.1000000000931,426577.8999999999,7063,VNB,B,6
7,test,5,0.0,1-Back,1,m,Mon Feb 24 2025 14:05:07 GMT-0600 (Central Standard Time),430823.2000000002,011_m_f_d_a.png,O,m,1420,8,1,2445.8000000002794,428377.3999999999,7063,VNB,B,7
8,test,5,0.0,1-Back,1,m,Mon Feb 24 2025 14:05:07 GMT-0600 (Central Standard Time),432706.0,016_y_m_h_a.png,O,m,859,9,1,1879.7999999998137,430826.2000000002,7063,VNB,B,8
9,test,5,0.0,1-Back,1,m,Mon Feb 24 2025 14:05:07 GMT-0600 (Central Standard Time),434888.8999999999,020_y_f_d_a.png,O,m,1152,10,1,2179.600000000093,432709.2999999998,7063,VNB,B,9
10,test,5,0.0,1-Back,1,m,Mon Feb 24 2025 14:05:07 GMT-0600 (Central Standard Time),437087.8999999999,007_m_m_n_a.png,O,m,1178,11,1,2194.899999999907,434893.0,7063,VNB,B,10
11,test,5,1.0,1-Back,1,z,Mon Feb 24 2025 14:05:07 GMT-0600 (Central Standard Time),439120.7999999998,011_m_f_n_a.png,O,z,1002,12,1,2029.0,437091.7999999998,7063,VNB,B,11
12,test,5,0.0,1-Back,1,m,Mon Feb 24 2025 14:05:07 GMT-0600 (Central Standard Time),440953.3999999999,004_o_m_h_a.png,O,m,802,13,1,1828.6999999997206,439124.7000000002,7063,VNB,B,12
13,test,5,0.0,1-Back,1,z,Mon Feb 24 2025 14:05:07 GMT-0600 (Central Standard Time),442836.0,007_m_m_h_a.png,O,z,865,14,1,1878.8999999999069,440957.1000000001,7063,VNB,B,13
14,test,5,1.0,1-Back,1,m,Mon Feb 24 2025 14:05:07 GMT-0600 (Central Standard Time),444819.1000000001,005_o_f_d_a.png,O,m,966,15,1,1979.1000000000931,442840.0,7063,VNB,B,14
15,test,5,0.0,1-Back,1,m,Mon Feb 24 2025 14:05:07 GMT-0600 (Central Standard Time),447518.1000000001,016_y_m_n_a.png,O,m,1671,16,1,2695.3000000002794,444822.7999999998,7063,VNB,B,15
16,test,5,0.0,1-Back,1,m,Mon Feb 24 2025 14:05:07 GMT-0600 (Central Standard Time),449485.2999999998,020_y_f_h_a.png,O,m,948,17,1,1963.0999999996275,447522.2000000002,7063,VNB,B,16
17,test,5,0.0,1-Back,1,m,Mon Feb 24 2025 14:05:07 GMT-0600 (Central Standard Time),451617.0,007_m_m_d_a.png,O,m,1102,18,1,2127.7000000001863,449489.2999999998,7063,VNB,B,17
0,prac,1,0.0,2-Back,,,Mon Feb 24 2025 14:05:07 GMT-0600 (Central Standard Time),451617.0,011_m_f_n_a.png,O,space,14040,1,1,2127.7000000001863,449489.2999999998,7063,VNB,B,0
0,prac,1,0.0,2-Back,,,Mon Feb 24 2025 14:05:07 GMT-0600 (Central Standard Time),451617.0,005_o_f_h_a.png,O,space,14040,2,1,2127.7000000001863,449489.2999999998,7063,VNB,B,0
1,prac,1,0.0,2-Back,1,m,Mon Feb 24 2025 14:05:07 GMT-0600 (Central Standard Time),566331.2999999998,004_o_m_d_a.png,O,m,1835,3,1,2693.7999999998137,563637.5,7063,VNB,B,1
1,prac,1,1.0,2-Back,0,z,Mon Feb 24 2025 14:05:07 GMT-0600 (Central Standard Time),569230.1000000001,007_m_m_h_a.png,O,None,2004,4,1,2891.899999999907,566338.2000000002,7063,VNB,B,2
1,prac,1,0.0,2-Back,0,m,Mon Feb 24 2025 14:05:07 GMT-0600 (Central Standard Time),571229.5,020_y_f_n_a.png,O,z,1117,5,1,1992.8999999999069,569236.6000000001,7063,VNB,B,3
1,prac,1,1.0,2-Back,0,z,Mon Feb 24 2025 14:05:07 GMT-0600 (Central Standard Time),573545.5,004_o_m_h_a.png,O,m,1440,6,1,2309.2999999998137,571236.2000000002,7063,VNB,B,4
1,prac,1,1.0,2-Back,0,z,Mon Feb 24 2025 14:05:07 GMT-0600 (Central Standard Time),576078.1000000001,016_y_m_n_a.png,O,m,1633,7,1,2526.0,573552.1000000001,7063,VNB,B,5
1,prac,1,0.0,2-Back,0,m,Mon Feb 24 2025 14:05:07 GMT-0600 (Central Standard Time),578660.5,011_m_f_d_a.png,O,z,1693,8,1,2576.899999999907,576083.6000000001,7063,VNB,B,6
1,prac,1,0.0,2-Back,0,m,Mon Feb 24 2025 14:05:07 GMT-0600 (Central Standard Time),581559.3999999999,005_o_f_d_a.png,O,None,2006,9,1,2892.2999999998137,578667.1000000001,7063,VNB,B,7
2,prac,1,0.0,2-Back,1,m,Mon Feb 24 2025 14:05:07 GMT-0600 (Central Standard Time),583692.2000000002,007_m_m_h_a.png,O,m,1349,10,1,2126.8000000002794,581565.3999999999,7063,VNB,B,8
2,prac,1,1.0,2-Back,0,z,Mon Feb 24 2025 14:05:07 GMT-0600 (Central Standard Time),585874.8999999999,020_y_f_d_a.png,O,m,1300,11,1,2177.1999999997206,583697.7000000002,7063,VNB,B,9
3,prac,1,0.0,2-Back,1,m,Mon Feb 24 2025 14:05:07 GMT-0600 (Central Standard Time),588640.8999999999,004_o_m_n_a.png,O,m,1882,12,1,2759.2999999998137,585881.6000000001,7063,VNB,B,10
0,prac,2,0.0,2-Back,,,Mon Feb 24 2025 14:05:07 GMT-0600 (Central Standard Time),588640.8999999999,011_m_f_n_a.png,O,a,16078,1,1,2759.2999999998137,585881.6000000001,7063,VNB,B,0
0,prac,2,0.0,2-Back,,,Mon Feb 24 2025 14:05:07 GMT-0600 (Central Standard Time),588640.8999999999,005_o_f_h_a.png,O,a,16078,2,1,2759.2999999998137,585881.6000000001,7063,VNB,B,0
1,prac,2,0.0,2-Back,1,m,Mon Feb 24 2025 14:05:07 GMT-0600 (Central Standard Time),612766.6000000001,004_o_m_d_a.png,O,m,1905,3,1,2776.0,609990.6000000001,7063,VNB,B,1
1,prac,2,1.0,2-Back,0,z,Mon Feb 24 2025 14:05:07 GMT-0600 (Central Standard Time),614566.2000000002,007_m_m_h_a.png,O,m,1021,4,1,1793.1000000000931,612773.1000000001,7063,VNB,B,2
1,prac,2,0.0,2-Back,0,m,Mon Feb 24 2025 14:05:07 GMT-0600 (Central Standard Time),617065.2000000002,020_y_f_n_a.png,O,z,1610,5,1,2492.100000000093,614573.1000000001,7063,VNB,B,3
1,prac,2,1.0,2-Back,0,z,Mon Feb 24 2025 14:05:07 GMT-0600 (Central Standard Time),619248.1000000001,004_o_m_h_a.png,O,m,1301,6,1,2176.899999999907,617071.2000000002,7063,VNB,B,4
2,prac,2,1.0,2-Back,1,z,Mon Feb 24 2025 14:05:07 GMT-0600 (Central Standard Time),621963.7999999998,016_y_m_n_a.png,O,z,1816,7,1,2710.5999999996275,619253.2000000002,7063,VNB,B,5
3,prac,2,0.0,2-Back,1,m,Mon Feb 24 2025 14:05:07 GMT-0600 (Central Standard Time),624129.6000000001,011_m_f_d_a.png,O,m,1283,8,1,2160.8000000002794,621968.7999999998,7063,VNB,B,6
4,prac,2,0.0,2-Back,1,m,Mon Feb 24 2025 14:05:07 GMT-0600 (Central Standard Time),626162.3999999999,005_o_f_d_a.png,O,m,1149,9,1,2027.3999999999069,624135.0,7063,VNB,B,7
5,prac,2,0.0,2-Back,1,m,Mon Feb 24 2025 14:05:07 GMT-0600 (Central Standard Time),628345.2000000002,007_m_m_h_a.png,O,m,1402,10,1,2176.5,626168.7000000002,7063,VNB,B,8
6,prac,2,1.0,2-Back,1,z,Mon Feb 24 2025 14:05:07 GMT-0600 (Central Standard Time),630411.1000000001,020_y_f_d_a.png,O,z,1191,11,1,2060.2000000001863,628350.8999999999,7063,VNB,B,9
7,prac,2,0.0,2-Back,1,m,Mon Feb 24 2025 14:05:07 GMT-0600 (Central Standard Time),633010.2000000002,004_o_m_n_a.png,O,m,1719,12,1,2593.9000000003725,630416.2999999998,7063,VNB,B,10
0,test,1,0.0,2-Back,,,Mon Feb 24 2025 14:05:07 GMT-0600 (Central Standard Time),633010.2000000002,016_y_m_h_a.png,O,space,13967,1,1,2593.9000000003725,630416.2999999998,7063,VNB,B,0
0,test,1,0.0,2-Back,,,Mon Feb 24 2025 14:05:07 GMT-0600 (Central Standard Time),633010.2000000002,005_o_f_n_a.png,O,space,13967,2,1,2593.9000000003725,630416.2999999998,7063,VNB,B,0
0,test,1,0.0,2-Back,0,z,Mon Feb 24 2025 14:05:07 GMT-0600 (Central Standard Time),663834.0,004_o_m_h_a.png,O,m,1076,3,1,2096.2000000001863,661737.7999999998,7063,VNB,B,1
1,test,1,0.0,2-Back,1,m,Mon Feb 24 2025 14:05:07 GMT-0600 (Central Standard Time),666249.7999999998,011_m_f_d_a.png,O,m,1384,4,1,2411.5999999996275,663838.2000000002,7063,VNB,B,2
2,test,1,1.0,2-Back,1,m,Mon Feb 24 2025 14:05:07 GMT-0600 (Central Standard Time),668915.5999999996,016_y_m_n_a.png,O,m,1648,5,1,2662.0999999996275,666253.5,7063,VNB,B,3
3,test,1,0.0,2-Back,1,z,Mon Feb 24 2025 14:05:07 GMT-0600 (Central Standard Time),671281.4000000004,020_y_f_d_a.png,O,z,1342,6,1,2362.0,668919.4000000004,7063,VNB,B,4
4,test,1,0.0,2-Back,1,m,Mon Feb 24 2025 14:05:07 GMT-0600 (Central Standard Time),673963.9000000004,007_m_m_h_a.png,O,m,1665,7,1,2678.100000000559,671285.7999999998,7063,VNB,B,5
4,test,1,1.0,2-Back,0,m,Mon Feb 24 2025 14:05:07 GMT-0600 (Central Standard Time),676279.7000000002,020_y_f_n_a.png,O,z,1286,8,1,2312.2000000001863,673967.5,7063,VNB,B,6
5,test,1,0.0,2-Back,1,z,Mon Feb 24 2025 14:05:07 GMT-0600 (Central Standard Time),679295.9000000004,005_o_f_h_a.png,O,z,1986,9,1,3010.100000000559,676285.7999999998,7063,VNB,B,7
6,test,1,0.0,2-Back,1,m,Mon Feb 24 2025 14:05:07 GMT-0600 (Central Standard Time),682077.9000000004,004_o_m_d_a.png,O,m,1762,10,1,2778.600000000559,679299.2999999998,7063,VNB,B,8
7,test,1,1.0,2-Back,1,m,Mon Feb 24 2025 14:05:07 GMT-0600 (Central Standard Time),684860.5999999996,007_m_m_d_a.png,O,m,1764,11,1,2779.2999999998137,682081.2999999998,7063,VNB,B,9
7,test,1,0.0,2-Back,0,m,Mon Feb 24 2025 14:05:07 GMT-0600 (Central Standard Time),687893.0999999996,011_m_f_n_a.png,O,None,2016,12,1,3029.0999999996275,684864.0,7063,VNB,B,10
8,test,1,0.0,2-Back,1,m,Mon Feb 24 2025 14:05:07 GMT-0600 (Central Standard Time),689959.2000000002,020_y_f_h_a.png,O,m,1037,13,1,2063.0,687896.2000000002,7063,VNB,B,11
9,test,1,0.0,2-Back,1,z,Mon Feb 24 2025 14:05:07 GMT-0600 (Central Standard Time),692291.7000000002,007_m_m_n_a.png,O,z,1307,14,1,2329.2000000001863,689962.5,7063,VNB,B,12
10,test,1,0.0,2-Back,1,m,Mon Feb 24 2025 14:05:07 GMT-0600 (Central Standard Time),694607.5,016_y_m_d_a.png,O,m,1295,15,1,2312.0999999996275,692295.4000000004,7063,VNB,B,13
11,test,1,1.0,2-Back,1,m,Mon Feb 24 2025 14:05:07 GMT-0600 (Central Standard Time),697606.5999999996,011_m_f_h_a.png,O,m,1970,16,1,2995.0999999996275,694611.5,7063,VNB,B,14
11,test,1,0.0,2-Back,0,z,Mon Feb 24 2025 14:05:07 GMT-0600 (Central Standard Time),700639.4000000004,005_o_f_d_a.png,O,None,2016,17,1,3029.5,697609.9000000004,7063,VNB,B,15
11,test,1,0.0,2-Back,0,m,Mon Feb 24 2025 14:05:07 GMT-0600 (Central Standard Time),703204.9000000004,004_o_m_n_a.png,O,z,1547,18,1,2561.9000000003725,700643.0,7063,VNB,B,16
0,test,2,0.0,2-Back,,,Mon Feb 24 2025 14:05:07 GMT-0600 (Central Standard Time),703204.9000000004,007_m_m_h_a.png,O,space,3861,1,1,2561.9000000003725,700643.0,7063,VNB,B,0
0,test,2,0.0,2-Back,,,Mon Feb 24 2025 14:05:07 GMT-0600 (Central Standard Time),703204.9000000004,020_y_f_n_a.png,O,space,3861,2,1,2561.9000000003725,700643.0,7063,VNB,B,0
0,test,2,1.0,2-Back,0,z,Mon Feb 24 2025 14:05:07 GMT-0600 (Central Standard Time),714268.0999999996,005_o_f_h_a.png,O,m,940,3,1,1962.2999999998137,712305.7999999998,7063,VNB,B,1
1,test,2,0.0,2-Back,1,m,Mon Feb 24 2025 14:05:07 GMT-0600 (Central Standard Time),716817.4000000004,004_o_m_d_a.png,O,m,1526,4,1,2545.7000000001863,714271.7000000002,7063,VNB,B,2
2,test,2,0.0,2-Back,1,m,Mon Feb 24 2025 14:05:07 GMT-0600 (Central Standard Time),719699.5,011_m_f_d_a.png,O,m,1857,5,1,2878.0,716821.5,7063,VNB,B,3
3,test,2,0.0,2-Back,1,m,Mon Feb 24 2025 14:05:07 GMT-0600 (Central Standard Time),721782.5,016_y_m_h_a.png,O,m,1054,6,1,2078.7999999998137,719703.7000000002,7063,VNB,B,4
4,test,2,0.0,2-Back,1,m,Mon Feb 24 2025 14:05:07 GMT-0600 (Central Standard Time),724148.2999999998,005_o_f_n_a.png,O,m,1340,7,1,2362.5999999996275,721785.7000000002,7063,VNB,B,5
4,test,2,1.0,2-Back,0,z,Mon Feb 24 2025 14:05:07 GMT-0600 (Central Standard Time),726380.7000000002,004_o_m_h_a.png,O,m,1214,8,1,2228.9000000003725,724151.7999999998,7063,VNB,B,6
5,test,2,0.0,2-Back,1,m,Mon Feb 24 2025 14:05:07 GMT-0600 (Central Standard Time),728780.0999999996,020_y_f_d_a.png,O,m,1381,9,1,2395.7999999998137,726384.2999999998,7063,VNB,B,7
6,test,2,0.0,2-Back,1,m,Mon Feb 24 2025 14:05:07 GMT-0600 (Central Standard Time),731429.5,016_y_m_d_a.png,O,m,1622,10,1,2645.7000000001863,728783.7999999998,7063,VNB,B,8
7,test,2,0.0,2-Back,1,m,Mon Feb 24 2025 14:05:07 GMT-0600 (Central Standard Time),733946.2999999998,007_m_m_n_a.png,O,m,1485,11,1,2512.7999999998137,731433.5,7063,VNB,B,9
8,test,2,0.0,2-Back,1,m,Mon Feb 24 2025 14:05:07 GMT-0600 (Central Standard Time),736594.7000000002,011_m_f_h_a.png,O,m,1625,12,1,2644.7999999998137,733949.9000000004,7063,VNB,B,10
9,test,2,1.0,2-Back,1,z,Mon Feb 24 2025 14:05:07 GMT-0600 (Central Standard Time),739277.0,004_o_m_n_a.png,O,z,1664,13,1,2679.0,736598.0,7063,VNB,B,11
10,test,2,0.0,2-Back,1,m,Mon Feb 24 2025 14:05:07 GMT-0600 (Central Standard Time),741643.7000000002,005_o_f_d_a.png,O,m,1350,14,1,2363.100000000559,739280.5999999996,7063,VNB,B,12
11,test,2,0.0,2-Back,1,m,Mon Feb 24 2025 14:05:07 GMT-0600 (Central Standard Time),743941.7999999998,020_y_f_h_a.png,O,m,1271,15,1,2294.5,741647.2999999998,7063,VNB,B,13
12,test,2,0.0,2-Back,1,z,Mon Feb 24 2025 14:05:07 GMT-0600 (Central Standard Time),746041.7000000002,007_m_m_d_a.png,O,z,1068,16,1,2095.9000000003725,743945.7999999998,7063,VNB,B,14
13,test,2,0.0,2-Back,1,m,Mon Feb 24 2025 14:05:07 GMT-0600 (Central Standard Time),748457.4000000004,016_y_m_n_a.png,O,m,1400,17,1,2411.9000000003725,746045.5,7063,VNB,B,15
14,test,2,1.0,2-Back,1,m,Mon Feb 24 2025 14:05:07 GMT-0600 (Central Standard Time),750823.5999999996,011_m_f_n_a.png,O,m,1337,18,1,2362.5,748461.0999999996,7063,VNB,B,16
0,test,3,1.0,2-Back,,,Mon Feb 24 2025 14:05:07 GMT-0600 (Central Standard Time),750823.5999999996,004_o_m_n_a.png,O,space,3267,1,1,2362.5,748461.0999999996,7063,VNB,B,0
0,test,3,1.0,2-Back,,,Mon Feb 24 2025 14:05:07 GMT-0600 (Central Standard Time),750823.5999999996,005_o_f_d_a.png,O,space,3267,2,1,2362.5,748461.0999999996,7063,VNB,B,0
1,test,3,0.0,2-Back,1,m,Mon Feb 24 2025 14:05:07 GMT-0600 (Central Standard Time),761737.9000000004,020_y_f_h_a.png,O,m,1477,3,1,2497.300000000745,759240.5999999996,7063,VNB,B,1
2,test,3,0.0,2-Back,1,z,Mon Feb 24 2025 14:05:07 GMT-0600 (Central Standard Time),763802.7999999998,011_m_f_d_a.png,O,z,1033,4,1,2061.5999999996275,761741.2000000002,7063,VNB,B,2
3,test,3,1.0,2-Back,1,m,Mon Feb 24 2025 14:05:07 GMT-0600 (Central Standard Time),766435.2000000002,016_y_m_n_a.png,O,m,1607,5,1,2628.4000000003725,763806.7999999998,7063,VNB,B,3
4,test,3,0.0,2-Back,1,m,Mon Feb 24 2025 14:05:07 GMT-0600 (Central Standard Time),769217.5999999996,004_o_m_h_a.png,O,m,1759,6,1,2778.699999999255,766438.9000000004,7063,VNB,B,4
5,test,3,0.0,2-Back,1,z,Mon Feb 24 2025 14:05:07 GMT-0600 (Central Standard Time),771283.9000000004,020_y_f_n_a.png,O,z,1034,7,1,2063.0,769220.9000000004,7063,VNB,B,5
6,test,3,1.0,2-Back,1,m,Mon Feb 24 2025 14:05:07 GMT-0600 (Central Standard Time),773599.5999999996,007_m_m_d_a.png,O,m,1287,8,1,2312.0,771287.5999999996,7063,VNB,B,6
7,test,3,0.0,2-Back,1,m,Mon Feb 24 2025 14:05:07 GMT-0600 (Central Standard Time),775815.0999999996,016_y_m_d_a.png,O,m,1194,9,1,2211.699999999255,773603.4000000004,7063,VNB,B,7
8,test,3,0.0,2-Back,1,m,Mon Feb 24 2025 14:05:07 GMT-0600 (Central Standard Time),778014.9000000004,005_o_f_h_a.png,O,m,1179,10,1,2195.9000000003725,775819.0,7063,VNB,B,8
8,test,3,1.0,2-Back,0,m,Mon Feb 24 2025 14:05:07 GMT-0600 (Central Standard Time),780364.2000000002,011_m_f_n_a.png,O,z,1323,11,1,2346.100000000559,778018.0999999996,7063,VNB,B,9
9,test,3,1.0,2-Back,1,z,Mon Feb 24 2025 14:05:07 GMT-0600 (Central Standard Time),783196.2999999998,007_m_m_h_a.png,O,z,1814,12,1,2828.899999999441,780367.4000000004,7063,VNB,B,10
9,test,3,0.0,2-Back,0,m,Mon Feb 24 2025 14:05:07 GMT-0600 (Central Standard Time),785362.5,020_y_f_d_a.png,O,z,1133,13,1,2162.5999999996275,783199.9000000004,7063,VNB,B,11
10,test,3,0.0,2-Back,1,m,Mon Feb 24 2025 14:05:07 GMT-0600 (Central Standard Time),787578.5,005_o_f_n_a.png,O,m,1184,14,1,2212.4000000003725,785366.0999999996,7063,VNB,B,12
10,test,3,0.0,2-Back,0,z,Mon Feb 24 2025 14:05:07 GMT-0600 (Central Standard Time),790361.0999999996,004_o_m_d_a.png,O,m,1751,15,1,2778.899999999441,787582.2000000002,7063,VNB,B,13
11,test,3,1.0,2-Back,1,m,Mon Feb 24 2025 14:05:07 GMT-0600 (Central Standard Time),792393.9000000004,011_m_f_h_a.png,O,m,1001,16,1,2029.2000000001863,790364.7000000002,7063,VNB,B,14
11,test,3,0.0,2-Back,0,m,Mon Feb 24 2025 14:05:07 GMT-0600 (Central Standard Time),794759.4000000004,007_m_m_n_a.png,O,z,1344,17,1,2362.0,792397.4000000004,7063,VNB,B,15
11,test,3,0.0,2-Back,0,z,Mon Feb 24 2025 14:05:07 GMT-0600 (Central Standard Time),797375.5,016_y_m_h_a.png,O,m,1595,18,1,2612.5999999996275,794762.9000000004,7063,VNB,B,16
0,test,4,0.0,2-Back,,,Mon Feb 24 2025 14:05:07 GMT-0600 (Central Standard Time),797375.5,011_m_f_n_a.png,O,space,2963,1,1,2612.5999999996275,794762.9000000004,7063,VNB,B,0
0,test,4,0.0,2-Back,,,Mon Feb 24 2025 14:05:07 GMT-0600 (Central Standard Time),797375.5,004_o_m_n_a.png,O,space,2963,2,1,2612.5999999996275,794762.9000000004,7063,VNB,B,0
1,test,4,1.0,2-Back,1,m,Mon Feb 24 2025 14:05:07 GMT-0600 (Central Standard Time),807838.7000000002,016_y_m_h_a.png,O,m,1236,3,1,2261.7000000001863,805577.0,7063,VNB,B,1
2,test,4,1.0,2-Back,1,m,Mon Feb 24 2025 14:05:07 GMT-0600 (Central Standard Time),809938.2999999998,005_o_f_d_a.png,O,m,1075,4,1,2095.7999999998137,807842.5,7063,VNB,B,2
3,test,4,0.0,2-Back,1,z,Mon Feb 24 2025 14:05:07 GMT-0600 (Central Standard Time),812520.7999999998,004_o_m_h_a.png,O,z,1552,5,1,2579.2999999998137,809941.5,7063,VNB,B,3
3,test,4,0.0,2-Back,0,m,Mon Feb 24 2025 14:05:07 GMT-0600 (Central Standard Time),814686.7000000002,007_m_m_n_a.png,O,z,1137,6,1,2162.9000000003725,812523.7999999998,7063,VNB,B,4
3,test,4,0.0,2-Back,0,m,Mon Feb 24 2025 14:05:07 GMT-0600 (Central Standard Time),816652.7999999998,011_m_f_d_a.png,O,z,939,7,1,1962.2999999998137,814690.5,7063,VNB,B,5
4,test,4,0.0,2-Back,1,z,Mon Feb 24 2025 14:05:07 GMT-0600 (Central Standard Time),818702.2000000002,020_y_f_n_a.png,O,z,980,8,1,2046.2000000001863,816656.0,7063,VNB,B,6
5,test,4,1.0,2-Back,1,m,Mon Feb 24 2025 14:05:07 GMT-0600 (Central Standard Time),820784.9000000004,005_o_f_h_a.png,O,m,1052,9,1,2079.300000000745,818705.5999999996,7063,VNB,B,7
6,test,4,0.0,2-Back,1,m,Mon Feb 24 2025 14:05:07 GMT-0600 (Central Standard Time),823017.7000000002,007_m_m_h_a.png,O,m,1201,10,1,2229.5,820788.2000000002,7063,VNB,B,8
6,test,4,0.0,2-Back,0,m,Mon Feb 24 2025 14:05:07 GMT-0600 (Central Standard Time),824983.5,020_y_f_d_a.png,O,z,945,11,1,1962.5999999996275,823020.9000000004,7063,VNB,B,9
7,test,4,0.0,2-Back,1,m,Mon Feb 24 2025 14:05:07 GMT-0600 (Central Standard Time),827099.5999999996,016_y_m_n_a.png,O,m,1084,12,1,2112.699999999255,824986.9000000004,7063,VNB,B,10
7,test,4,0.0,2-Back,0,z,Mon Feb 24 2025 14:05:07 GMT-0600 (Central Standard Time),829715.5999999996,004_o_m_d_a.png,O,m,1599,13,1,2612.5,827103.0999999996,7063,VNB,B,11
8,test,4,1.0,2-Back,1,m,Mon Feb 24 2025 14:05:07 GMT-0600 (Central Standard Time),831598.2999999998,011_m_f_h_a.png,O,m,855,14,1,1878.7999999998137,829719.5,7063,VNB,B,12
9,test,4,1.0,2-Back,1,m,Mon Feb 24 2025 14:05:07 GMT-0600 (Central Standard Time),833947.5,020_y_f_h_a.png,O,m,1317,15,1,2346.2000000001863,831601.2999999998,7063,VNB,B,13
9,test,4,0.0,2-Back,0,m,Mon Feb 24 2025 14:05:07 GMT-0600 (Central Standard Time),836230.0999999996,005_o_f_n_a.png,O,z,1255,16,1,2279.0,833951.0999999996,7063,VNB,B,14
10,test,4,0.0,2-Back,1,m,Mon Feb 24 2025 14:05:07 GMT-0600 (Central Standard Time),838629.2999999998,016_y_m_d_a.png,O,m,1380,17,1,2396.0,836233.2999999998,7063,VNB,B,15
11,test,4,1.0,2-Back,1,m,Mon Feb 24 2025 14:05:07 GMT-0600 (Central Standard Time),841045.2999999998,007_m_m_d_a.png,O,m,1390,18,1,2412.0999999996275,838633.2000000002,7063,VNB,B,16
0,test,5,1.0,2-Back,,,Mon Feb 24 2025 14:05:07 GMT-0600 (Central Standard Time),841045.2999999998,020_y_f_d_a.png,O,space,2421,1,1,2412.0999999996275,838633.2000000002,7063,VNB,B,0
0,test,5,1.0,2-Back,,,Mon Feb 24 2025 14:05:07 GMT-0600 (Central Standard Time),841045.2999999998,005_o_f_h_a.png,O,space,2421,2,1,2412.0999999996275,838633.2000000002,7063,VNB,B,0
1,test,5,1.0,2-Back,1,z,Mon Feb 24 2025 14:05:07 GMT-0600 (Central Standard Time),851208.7000000002,004_o_m_d_a.png,O,z,1478,3,1,2495.100000000559,848713.5999999996,7063,VNB,B,1
2,test,5,1.0,2-Back,1,m,Mon Feb 24 2025 14:05:07 GMT-0600 (Central Standard Time),853174.9000000004,011_m_f_n_a.png,O,m,945,4,1,1962.5,851212.4000000004,7063,VNB,B,2
2,test,5,0.0,2-Back,0,m,Mon Feb 24 2025 14:05:07 GMT-0600 (Central Standard Time),855624.2000000002,007_m_m_h_a.png,O,z,1419,5,1,2445.5,853178.7000000002,7063,VNB,B,3
3,test,5,0.0,2-Back,1,z,Mon Feb 24 2025 14:05:07 GMT-0600 (Central Standard Time),857739.7999999998,020_y_f_n_a.png,O,z,1098,6,1,2112.0,855627.7999999998,7063,VNB,B,4
4,test,5,0.0,2-Back,1,m,Mon Feb 24 2025 14:05:07 GMT-0600 (Central Standard Time),859772.9000000004,005_o_f_d_a.png,O,m,1006,7,1,2029.6000000005588,857743.2999999998,7063,VNB,B,5
5,test,5,0.0,2-Back,1,m,Mon Feb 24 2025 14:05:07 GMT-0600 (Central Standard Time),861838.7999999998,004_o_m_h_a.png,O,m,1037,8,1,2061.899999999441,859776.9000000004,7063,VNB,B,6
6,test,5,1.0,2-Back,1,z,Mon Feb 24 2025 14:05:07 GMT-0600 (Central Standard Time),863904.7999999998,011_m_f_d_a.png,O,z,1035,9,1,2063.0999999996275,861841.7000000002,7063,VNB,B,7
7,test,5,0.0,2-Back,1,m,Mon Feb 24 2025 14:05:07 GMT-0600 (Central Standard Time),866104.2000000002,016_y_m_n_a.png,O,m,1174,10,1,2196.2999999998137,863907.9000000004,7063,VNB,B,8
8,test,5,0.0,2-Back,1,m,Mon Feb 24 2025 14:05:07 GMT-0600 (Central Standard Time),868386.5999999996,007_m_m_n_a.png,O,m,1258,11,1,2278.5999999996275,866108.0,7063,VNB,B,9
9,test,5,0.0,2-Back,1,m,Mon Feb 24 2025 14:05:07 GMT-0600 (Central Standard Time),870436.0999999996,020_y_f_h_a.png,O,m,1024,12,1,2046.2999999998137,868389.7999999998,7063,VNB,B,10
9,test,5,0.0,2-Back,0,m,Mon Feb 24 2025 14:05:07 GMT-0600 (Central Standard Time),873052.0,016_y_m_d_a.png,O,z,1582,13,1,2612.0,870440.0,7063,VNB,B,11
10,test,5,1.0,2-Back,1,z,Mon Feb 24 2025 14:05:07 GMT-0600 (Central Standard Time),875118.0,011_m_f_h_a.png,O,z,1046,14,1,2062.2999999998137,873055.7000000002,7063,VNB,B,12
10,test,5,0.0,2-Back,0,m,Mon Feb 24 2025 14:05:07 GMT-0600 (Central Standard Time),877500.2000000002,004_o_m_n_a.png,O,z,1364,15,1,2378.2000000001863,875122.0,7063,VNB,B,13
10,test,5,0.0,2-Back,0,m,Mon Feb 24 2025 14:05:07 GMT-0600 (Central Standard Time),880033.2999999998,007_m_m_d_a.png,O,z,1502,16,1,2529.5999999996275,877503.7000000002,7063,VNB,B,14
10,test,5,0.0,2-Back,0,z,Mon Feb 24 2025 14:05:07 GMT-0600 (Central Standard Time),882132.2000000002,005_o_f_n_a.png,O,m,1081,17,1,2096.100000000559,880036.0999999996,7063,VNB,B,15
11,test,5,1.0,2-Back,1,m,Mon Feb 24 2025 14:05:07 GMT-0600 (Central Standard Time),884465.0999999996,016_y_m_h_a.png,O,m,1302,18,1,2329.699999999255,882135.4000000004,7063,VNB,B,16
