Number,acc_sum,block,block_c,block_cond,con_img,correct,correct_response,datetime,endtime,jitter,project,response,response_time,row_sel,session_number,start_end,starttime,subject_id,task,task_vers,trial
7,1,prac,1,A,circle.png,1,m,Thu Feb 06 2025 10:48:57 GMT-0600 (Central Standard Time),71108.70000001788,1700,I,m,1143,6,1,3626.800000011921,67481.90000000596,8022,NTS,A,1
9,2,prac,1,A,circle.png,1,m,Thu Feb 06 2025 10:48:57 GMT-0600 (Central Standard Time),74141.10000002384,1500,I,m,735,8,1,3025.9000000059605,71115.20000001788,8022,NTS,A,2
1,3,prac,1,A,circle.png,1,z,Thu Feb 06 2025 10:48:57 GMT-0600 (Central Standard Time),76540.30000001192,1000,I,z,602,1,1,2394.0,74146.30000001192,8022,NTS,A,3
1,4,prac,1,A,circle.png,1,z,Thu Feb 06 2025 10:48:57 GMT-0600 (Central Standard Time),79072.80000001192,1000,I,z,739,1,1,2527.0,76545.80000001192,8022,NTS,A,4
8,5,prac,1,A,circle.png,1,m,Thu Feb 06 2025 10:48:57 GMT-0600 (Central Standard Time),82138.60000002384,1600,I,m,670,7,1,3060.2000000178814,79078.40000000596,8022,NTS,A,5
4,6,prac,1,A,circle.png,1,z,Thu Feb 06 2025 10:48:57 GMT-0600 (Central Standard Time),85020.90000000596,1400,I,z,692,4,1,2876.9000000059605,82144.0,8022,NTS,A,6
9,7,prac,1,A,circle.png,1,m,Thu Feb 06 2025 10:48:57 GMT-0600 (Central Standard Time),87853.60000002384,1500,I,m,535,8,1,2827.600000023842,85026.0,8022,NTS,A,7
4,8,prac,1,A,circle.png,1,z,Thu Feb 06 2025 10:48:57 GMT-0600 (Central Standard Time),90885.70000001788,1400,I,z,834,4,1,3026.800000011921,87858.90000000596,8022,NTS,A,8
2,9,prac,1,A,circle.png,1,z,Thu Feb 06 2025 10:48:57 GMT-0600 (Central Standard Time),94201.5,2000,I,z,530,2,1,3310.2999999821186,90891.20000001788,8022,NTS,A,9
3,10,prac,1,A,circle.png,1,z,Thu Feb 06 2025 10:48:57 GMT-0600 (Central Standard Time),96717.40000000596,1200,I,z,518,3,1,2510.199999988079,94207.20000001788,8022,NTS,A,10
6,11,prac,1,A,circle.png,1,m,Thu Feb 06 2025 10:48:57 GMT-0600 (Central Standard Time),100083.10000002384,1900,I,m,677,5,1,3360.300000011921,96722.80000001192,8022,NTS,A,11
3,12,prac,1,A,circle.png,1,z,Thu Feb 06 2025 10:48:57 GMT-0600 (Central Standard Time),102848.80000001192,1200,I,z,763,3,1,2760.699999988079,100088.10000002384,8022,NTS,A,12
9,1,prac,1,B,triangle.png,1,z,Thu Feb 06 2025 10:48:57 GMT-0600 (Central Standard Time),139337.5,1400,I,z,1363,8,1,3544.699999988079,135792.80000001192,8022,NTS,A,1
1,2,prac,1,B,triangle.png,1,z,Thu Feb 06 2025 10:48:57 GMT-0600 (Central Standard Time),142719.60000002384,1900,I,z,682,1,1,3376.800000011921,139342.80000001192,8022,NTS,A,2
4,3,prac,1,B,triangle.png,1,m,Thu Feb 06 2025 10:48:57 GMT-0600 (Central Standard Time),145735.5,1500,I,m,723,4,1,3011.0,142724.5,8022,NTS,A,3
6,4,prac,1,B,triangle.png,1,m,Thu Feb 06 2025 10:48:57 GMT-0600 (Central Standard Time),148701.0,1000,I,m,1177,5,1,2960.699999988079,145740.30000001192,8022,NTS,A,4
2,5,prac,1,B,triangle.png,1,m,Thu Feb 06 2025 10:48:57 GMT-0600 (Central Standard Time),151933.40000000596,1700,I,m,743,2,1,3227.0999999940395,148706.30000001192,8022,NTS,A,5
4,6,prac,1,B,triangle.png,1,m,Thu Feb 06 2025 10:48:57 GMT-0600 (Central Standard Time),154849.20000001788,1500,I,m,623,4,1,2910.5,151938.70000001788,8022,NTS,A,6
3,7,prac,1,B,triangle.png,1,z,Thu Feb 06 2025 10:48:57 GMT-0600 (Central Standard Time),157948.10000002384,1600,I,z,703,3,1,3093.9000000059605,154854.20000001788,8022,NTS,A,7
7,8,prac,1,B,triangle.png,1,z,Thu Feb 06 2025 10:48:57 GMT-0600 (Central Standard Time),161580.5,2000,I,z,836,6,1,3627.0999999940395,157953.40000000596,8022,NTS,A,8
8,9,prac,1,B,triangle.png,1,m,Thu Feb 06 2025 10:48:57 GMT-0600 (Central Standard Time),164262.60000002384,1200,I,m,683,7,1,2677.600000023842,161585.0,8022,NTS,A,9
6,10,prac,1,B,triangle.png,1,m,Thu Feb 06 2025 10:48:57 GMT-0600 (Central Standard Time),166729.0,1000,I,m,680,5,1,2461.5999999940395,164267.40000000596,8022,NTS,A,10
3,11,prac,1,B,triangle.png,1,z,Thu Feb 06 2025 10:48:57 GMT-0600 (Central Standard Time),169794.40000000596,1600,I,z,679,3,1,3060.5999999940395,166733.80000001192,8022,NTS,A,11
2,12,prac,1,B,triangle.png,1,m,Thu Feb 06 2025 10:48:57 GMT-0600 (Central Standard Time),173426.40000000596,1700,I,m,1138,2,1,3626.7999999821186,169799.60000002384,8022,NTS,A,12
1,1,test,1,A,circle.png,1,z,Thu Feb 06 2025 10:48:57 GMT-0600 (Central Standard Time),196669.5,1000,I,z,928,1,1,1945.0,194724.5,8022,NTS,A,1
9,2,test,1,A,circle.png,1,m,Thu Feb 06 2025 10:48:57 GMT-0600 (Central Standard Time),198935.10000002384,1500,I,m,734,8,1,2261.0,196674.10000002384,8022,NTS,A,2
3,3,test,1,A,circle.png,1,z,Thu Feb 06 2025 10:48:57 GMT-0600 (Central Standard Time),201284.60000002384,1200,I,z,1120,3,1,2346.0,198938.60000002384,8022,NTS,A,3
2,4,test,1,A,circle.png,1,z,Thu Feb 06 2025 10:48:57 GMT-0600 (Central Standard Time),204217.0,2000,I,z,898,2,1,2928.7999999821186,201288.20000001788,8022,NTS,A,4
6,5,test,1,A,circle.png,1,m,Thu Feb 06 2025 10:48:57 GMT-0600 (Central Standard Time),207016.0,1900,I,m,875,5,1,2795.5,204220.5,8022,NTS,A,5
4,5,test,1,A,circle.png,0,z,Thu Feb 06 2025 10:48:57 GMT-0600 (Central Standard Time),209598.60000002384,1400,I,m,1159,4,1,2578.800000011921,207019.80000001192,8022,NTS,A,6
3,6,test,1,A,circle.png,1,z,Thu Feb 06 2025 10:48:57 GMT-0600 (Central Standard Time),212281.0,1200,I,z,1457,3,1,2678.899999976158,209602.10000002384,8022,NTS,A,7
1,7,test,1,A,circle.png,1,z,Thu Feb 06 2025 10:48:57 GMT-0600 (Central Standard Time),213830.60000002384,1000,I,z,518,1,1,1545.9000000059605,212284.70000001788,8022,NTS,A,8
9,8,test,1,A,circle.png,1,m,Thu Feb 06 2025 10:48:57 GMT-0600 (Central Standard Time),215930.0,1500,I,m,581,8,1,2096.0,213834.0,8022,NTS,A,9
4,9,test,1,A,circle.png,1,z,Thu Feb 06 2025 10:48:57 GMT-0600 (Central Standard Time),218079.30000001192,1400,I,z,726,4,1,2145.699999988079,215933.60000002384,8022,NTS,A,10
2,10,test,1,A,circle.png,1,z,Thu Feb 06 2025 10:48:57 GMT-0600 (Central Standard Time),221394.80000001192,2000,I,z,1288,2,1,3311.800000011921,218083.0,8022,NTS,A,11
9,11,test,1,A,circle.png,1,m,Thu Feb 06 2025 10:48:57 GMT-0600 (Central Standard Time),223694.30000001192,1500,I,m,769,8,1,2295.5999999940395,221398.70000001788,8022,NTS,A,12
1,12,test,1,A,circle.png,1,z,Thu Feb 06 2025 10:48:57 GMT-0600 (Central Standard Time),225376.90000000596,1000,I,z,657,1,1,1679.199999988079,223697.70000001788,8022,NTS,A,13
1,13,test,1,A,circle.png,1,z,Thu Feb 06 2025 10:48:57 GMT-0600 (Central Standard Time),226993.20000001788,1000,I,z,590,1,1,1612.5999999940395,225380.60000002384,8022,NTS,A,14
6,14,test,1,A,circle.png,1,m,Thu Feb 06 2025 10:48:57 GMT-0600 (Central Standard Time),229842.20000001788,1900,I,m,923,5,1,2845.2000000178814,226997.0,8022,NTS,A,15
7,15,test,1,A,circle.png,1,m,Thu Feb 06 2025 10:48:57 GMT-0600 (Central Standard Time),232491.5,1700,I,m,921,6,1,2645.399999976158,229846.10000002384,8022,NTS,A,16
8,16,test,1,A,circle.png,1,m,Thu Feb 06 2025 10:48:57 GMT-0600 (Central Standard Time),234757.5,1600,I,m,644,7,1,2262.399999976158,232495.10000002384,8022,NTS,A,17
7,17,test,1,A,circle.png,1,m,Thu Feb 06 2025 10:48:57 GMT-0600 (Central Standard Time),237090.20000001788,1700,I,m,598,6,1,2329.0999999940395,234761.10000002384,8022,NTS,A,18
8,18,test,1,A,circle.png,1,m,Thu Feb 06 2025 10:48:57 GMT-0600 (Central Standard Time),239305.90000000596,1600,I,m,590,7,1,2211.7999999821186,237094.10000002384,8022,NTS,A,19
4,19,test,1,A,circle.png,1,z,Thu Feb 06 2025 10:48:57 GMT-0600 (Central Standard Time),241238.70000001788,1400,I,z,502,4,1,1929.4000000059605,239309.30000001192,8022,NTS,A,20
9,20,test,1,A,circle.png,1,m,Thu Feb 06 2025 10:48:57 GMT-0600 (Central Standard Time),243338.20000001788,1500,I,m,581,8,1,2095.9000000059605,241242.30000001192,8022,NTS,A,21
3,21,test,1,A,circle.png,1,z,Thu Feb 06 2025 10:48:57 GMT-0600 (Central Standard Time),245120.80000001192,1200,I,z,548,3,1,1779.0999999940395,243341.70000001788,8022,NTS,A,22
7,22,test,1,A,circle.png,1,m,Thu Feb 06 2025 10:48:57 GMT-0600 (Central Standard Time),247570.0,1700,I,m,715,6,1,2445.5999999940395,245124.40000000596,8022,NTS,A,23
8,23,test,1,A,circle.png,1,m,Thu Feb 06 2025 10:48:57 GMT-0600 (Central Standard Time),249802.30000001192,1600,I,m,613,7,1,2228.9000000059605,247573.40000000596,8022,NTS,A,24
8,1,test,1,B,triangle.png,1,m,Thu Feb 06 2025 10:48:57 GMT-0600 (Central Standard Time),262232.10000002384,1200,I,m,625,7,1,1846.300000011921,260385.80000001192,8022,NTS,A,1
1,2,test,1,B,triangle.png,1,z,Thu Feb 06 2025 10:48:57 GMT-0600 (Central Standard Time),264248.2000000179,1400,I,z,592,9,1,2012.0999999940395,262236.10000002384,8022,NTS,A,2
6,3,test,1,B,triangle.png,1,m,Thu Feb 06 2025 10:48:57 GMT-0600 (Central Standard Time),266030.90000000596,1000,I,m,759,5,1,1779.199999988079,264251.7000000179,8022,NTS,A,3
9,4,test,1,B,triangle.png,1,z,Thu Feb 06 2025 10:48:57 GMT-0600 (Central Standard Time),268530.0,1400,I,z,1073,8,1,2495.0999999940395,266034.90000000596,8022,NTS,A,4
3,5,test,1,B,triangle.png,1,z,Thu Feb 06 2025 10:48:57 GMT-0600 (Central Standard Time),271229.5,1600,I,z,1070,3,1,2695.699999988079,268533.8000000119,8022,NTS,A,5
7,6,test,1,B,triangle.png,1,z,Thu Feb 06 2025 10:48:57 GMT-0600 (Central Standard Time),273728.60000002384,1600,I,z,875,14,1,2495.600000023842,271233.0,8022,NTS,A,6
3,7,test,1,B,triangle.png,1,z,Thu Feb 06 2025 10:48:57 GMT-0600 (Central Standard Time),276361.2000000179,2000,I,z,599,11,1,2629.0,273732.2000000179,8022,NTS,A,7
7,8,test,1,B,triangle.png,1,z,Thu Feb 06 2025 10:48:57 GMT-0600 (Central Standard Time),278993.7000000179,2000,I,z,607,6,1,2628.9000000059605,276364.8000000119,8022,NTS,A,8
7,9,test,1,B,triangle.png,1,z,Thu Feb 06 2025 10:48:57 GMT-0600 (Central Standard Time),281143.0,1600,I,z,518,14,1,2145.5999999940395,278997.40000000596,8022,NTS,A,9
6,10,test,1,B,triangle.png,1,m,Thu Feb 06 2025 10:48:57 GMT-0600 (Central Standard Time),283292.3000000119,1500,I,m,629,13,1,2145.5,281146.8000000119,8022,NTS,A,10
7,10,test,1,B,triangle.png,0,z,Thu Feb 06 2025 10:48:57 GMT-0600 (Central Standard Time),286024.8000000119,2000,I,m,708,6,1,2728.5999999940395,283296.2000000179,8022,NTS,A,11
2,11,test,1,B,triangle.png,1,m,Thu Feb 06 2025 10:48:57 GMT-0600 (Central Standard Time),288557.2000000179,1700,I,m,811,2,1,2528.5999999940395,286028.60000002384,8022,NTS,A,12
2,12,test,1,B,triangle.png,1,m,Thu Feb 06 2025 10:48:57 GMT-0600 (Central Standard Time),290906.5,1200,I,m,1123,10,1,2345.5999999940395,288560.90000000596,8022,NTS,A,13
1,13,test,1,B,triangle.png,1,z,Thu Feb 06 2025 10:48:57 GMT-0600 (Central Standard Time),293522.40000000596,1900,I,z,690,1,1,2612.4000000059605,290910.0,8022,NTS,A,14
6,14,test,1,B,triangle.png,1,m,Thu Feb 06 2025 10:48:57 GMT-0600 (Central Standard Time),295688.2000000179,1500,I,m,642,13,1,2162.4000000059605,293525.8000000119,8022,NTS,A,15
1,15,test,1,B,triangle.png,1,z,Thu Feb 06 2025 10:48:57 GMT-0600 (Central Standard Time),298404.10000002384,1900,I,z,796,1,1,2712.0,295692.10000002384,8022,NTS,A,16
4,16,test,1,B,triangle.png,1,m,Thu Feb 06 2025 10:48:57 GMT-0600 (Central Standard Time),300236.8000000119,1000,I,m,804,12,1,1828.9000000059605,298407.90000000596,8022,NTS,A,17
9,16,test,1,B,triangle.png,0,z,Thu Feb 06 2025 10:48:57 GMT-0600 (Central Standard Time),303669.3000000119,1900,I,None,1514,16,1,3429.0,300240.3000000119,8022,NTS,A,18
4,17,test,1,B,triangle.png,1,m,Thu Feb 06 2025 10:48:57 GMT-0600 (Central Standard Time),306001.8000000119,1500,I,m,815,4,1,2328.9000000059605,303672.90000000596,8022,NTS,A,19
8,18,test,1,B,triangle.png,1,m,Thu Feb 06 2025 10:48:57 GMT-0600 (Central Standard Time),308051.10000002384,1200,I,m,822,7,1,2045.7000000178814,306005.40000000596,8022,NTS,A,20
4,19,test,1,B,triangle.png,1,m,Thu Feb 06 2025 10:48:57 GMT-0600 (Central Standard Time),310267.2000000179,1000,I,m,1189,12,1,2212.4000000059605,308054.8000000119,8022,NTS,A,21
2,20,test,1,B,triangle.png,1,m,Thu Feb 06 2025 10:48:57 GMT-0600 (Central Standard Time),312749.7000000179,1700,I,m,753,2,1,2478.9000000059605,310270.8000000119,8022,NTS,A,22
1,21,test,1,B,triangle.png,1,z,Thu Feb 06 2025 10:48:57 GMT-0600 (Central Standard Time),314832.2000000179,1400,I,z,658,9,1,2078.5999999940395,312753.60000002384,8022,NTS,A,23
8,22,test,1,B,triangle.png,1,m,Thu Feb 06 2025 10:48:57 GMT-0600 (Central Standard Time),317398.10000002384,1700,I,m,844,15,1,2562.5,314835.60000002384,8022,NTS,A,24
1,0,prac,1,C,circle.png,0,z,Thu Feb 06 2025 10:48:57 GMT-0600 (Central Standard Time),457754.40000000596,1700,I,None,1514,1,1,3994.0,453760.40000000596,8022,NTS,A,1
7,0,prac,1,C,triangle.png,0,z,Thu Feb 06 2025 10:48:57 GMT-0600 (Central Standard Time),461253.2000000179,1200,I,None,1514,6,1,3493.5,457759.7000000179,8022,NTS,A,2
9,0,prac,1,C,circle.png,0,m,Thu Feb 06 2025 10:48:57 GMT-0600 (Central Standard Time),465451.90000000596,1900,I,None,1514,8,1,4193.9000000059605,461258.0,8022,NTS,A,3
6,0,prac,1,C,circle.png,0,m,Thu Feb 06 2025 10:48:57 GMT-0600 (Central Standard Time),469750.5,2000,I,None,1514,5,1,4293.799999982119,465456.7000000179,8022,NTS,A,4
7,0,prac,1,C,triangle.png,0,z,Thu Feb 06 2025 10:48:57 GMT-0600 (Central Standard Time),473249.40000000596,1200,I,None,1514,6,1,3494.0,469755.40000000596,8022,NTS,A,5
2,1,prac,1,C,triangle.png,1,m,Thu Feb 06 2025 10:48:57 GMT-0600 (Central Standard Time),477048.3000000119,1600,I,m,1398,2,1,3794.0,473254.3000000119,8022,NTS,A,6
8,2,prac,1,C,triangle.png,1,m,Thu Feb 06 2025 10:48:57 GMT-0600 (Central Standard Time),480180.7000000179,1400,I,m,943,7,1,3127.5999999940395,477053.10000002384,8022,NTS,A,7
1,2,prac,1,C,circle.png,0,z,Thu Feb 06 2025 10:48:57 GMT-0600 (Central Standard Time),484179.5,1700,I,None,1513,1,1,3993.699999988079,480185.8000000119,8022,NTS,A,8
4,2,prac,1,C,circle.png,0,z,Thu Feb 06 2025 10:48:57 GMT-0600 (Central Standard Time),487478.2000000179,1000,I,None,1514,4,1,3294.0999999940395,484184.10000002384,8022,NTS,A,9
3,3,prac,1,C,triangle.png,1,z,Thu Feb 06 2025 10:48:57 GMT-0600 (Central Standard Time),490794.0,1500,I,z,1029,3,1,3309.199999988079,487484.8000000119,8022,NTS,A,10
6,4,prac,1,C,circle.png,1,m,Thu Feb 06 2025 10:48:57 GMT-0600 (Central Standard Time),494509.5,2000,I,m,926,5,1,3710.0999999940395,490799.40000000596,8022,NTS,A,11
3,5,prac,1,C,triangle.png,1,z,Thu Feb 06 2025 10:48:57 GMT-0600 (Central Standard Time),497758.7000000179,1500,I,z,958,3,1,3244.5,494514.2000000179,8022,NTS,A,12
9,1,prac,2,C,circle.png,1,m,Thu Feb 06 2025 10:48:57 GMT-0600 (Central Standard Time),507822.0,1900,I,m,1384,8,1,4077.5,503744.5,8022,NTS,A,1
8,2,prac,2,C,triangle.png,1,m,Thu Feb 06 2025 10:48:57 GMT-0600 (Central Standard Time),510937.8000000119,1400,I,m,930,7,1,3110.4000000059605,507827.40000000596,8022,NTS,A,2
3,2,prac,2,C,triangle.png,0,z,Thu Feb 06 2025 10:48:57 GMT-0600 (Central Standard Time),514403.10000002384,1500,I,m,1178,3,1,3460.9000000059605,510942.2000000179,8022,NTS,A,3
7,3,prac,2,C,triangle.png,1,z,Thu Feb 06 2025 10:48:57 GMT-0600 (Central Standard Time),517318.90000000596,1200,I,z,924,6,1,2910.9000000059605,514408.0,8022,NTS,A,4
3,4,prac,2,C,triangle.png,1,z,Thu Feb 06 2025 10:48:57 GMT-0600 (Central Standard Time),520401.3000000119,1500,I,z,797,3,1,3077.4000000059605,517323.90000000596,8022,NTS,A,5
1,5,prac,2,C,circle.png,1,z,Thu Feb 06 2025 10:48:57 GMT-0600 (Central Standard Time),523700.5,1700,I,z,802,1,1,3294.5,520406.0,8022,NTS,A,6
6,6,prac,2,C,circle.png,1,m,Thu Feb 06 2025 10:48:57 GMT-0600 (Central Standard Time),527282.7000000179,2000,I,m,788,5,1,3577.5999999940395,523705.10000002384,8022,NTS,A,7
2,7,prac,2,C,triangle.png,1,m,Thu Feb 06 2025 10:48:57 GMT-0600 (Central Standard Time),530531.8000000119,1600,I,m,853,2,1,3244.0999999940395,527287.7000000179,8022,NTS,A,8
4,8,prac,2,C,circle.png,1,z,Thu Feb 06 2025 10:48:57 GMT-0600 (Central Standard Time),533460.400000006,1000,I,z,1028,4,1,2923.5,530536.900000006,8022,NTS,A,9
1,9,prac,2,C,circle.png,1,z,Thu Feb 06 2025 10:48:57 GMT-0600 (Central Standard Time),536746.5,1700,I,z,788,1,1,3279.699999988079,533466.8000000119,8022,NTS,A,10
2,10,prac,2,C,triangle.png,1,m,Thu Feb 06 2025 10:48:57 GMT-0600 (Central Standard Time),540228.6000000238,1600,I,m,1085,2,1,3477.2000000178814,536751.400000006,8022,NTS,A,11
9,11,prac,2,C,circle.png,1,m,Thu Feb 06 2025 10:48:57 GMT-0600 (Central Standard Time),543694.1000000238,1900,I,m,767,8,1,3460.9000000059605,540233.2000000179,8022,NTS,A,12
6,1,test,1,C,triangle.png,1,m,Thu Feb 06 2025 10:48:57 GMT-0600 (Central Standard Time),592845.3000000119,1000,I,m,1303,13,1,2329.300000011921,590516.0,8022,NTS,A,1
6,2,test,1,C,circle.png,1,m,Thu Feb 06 2025 10:48:57 GMT-0600 (Central Standard Time),595911.0,1900,I,m,1134,21,1,3062.0999999940395,592848.900000006,8022,NTS,A,2
4,3,test,1,C,circle.png,1,z,Thu Feb 06 2025 10:48:57 GMT-0600 (Central Standard Time),598210.400000006,1400,I,z,865,4,1,2295.699999988079,595914.7000000179,8022,NTS,A,3
3,4,test,1,C,triangle.png,1,z,Thu Feb 06 2025 10:48:57 GMT-0600 (Central Standard Time),600442.7000000179,1200,I,z,1013,3,1,2228.9000000059605,598213.8000000119,8022,NTS,A,4
8,5,test,1,C,triangle.png,1,m,Thu Feb 06 2025 10:48:57 GMT-0600 (Central Standard Time),603158.8000000119,1600,I,m,1093,7,1,2712.300000011921,600446.5,8022,NTS,A,5
9,6,test,1,C,circle.png,1,m,Thu Feb 06 2025 10:48:57 GMT-0600 (Central Standard Time),605624.8000000119,1500,I,m,933,24,1,2462.199999988079,603162.6000000238,8022,NTS,A,6
7,7,test,1,C,triangle.png,1,z,Thu Feb 06 2025 10:48:57 GMT-0600 (Central Standard Time),608407.2000000179,1700,I,z,1051,22,1,2778.7000000178814,605628.5,8022,NTS,A,7
3,8,test,1,C,circle.png,1,z,Thu Feb 06 2025 10:48:57 GMT-0600 (Central Standard Time),610873.0,1600,I,z,841,19,1,2461.899999976158,608411.1000000238,8022,NTS,A,8
9,9,test,1,C,circle.png,1,m,Thu Feb 06 2025 10:48:57 GMT-0600 (Central Standard Time),613322.400000006,1500,I,m,931,8,1,2445.7999999821186,610876.6000000238,8022,NTS,A,9
4,10,test,1,C,triangle.png,1,m,Thu Feb 06 2025 10:48:57 GMT-0600 (Central Standard Time),616071.6000000238,1500,I,m,1226,20,1,2745.7000000178814,613325.900000006,8022,NTS,A,10
3,11,test,1,C,circle.png,1,z,Thu Feb 06 2025 10:48:57 GMT-0600 (Central Standard Time),618720.7000000179,1600,I,z,1024,11,1,2644.300000011921,616076.400000006,8022,NTS,A,11
9,12,test,1,C,triangle.png,1,z,Thu Feb 06 2025 10:48:57 GMT-0600 (Central Standard Time),621219.8000000119,1400,I,z,1071,16,1,2495.300000011921,618724.5,8022,NTS,A,12
2,13,test,1,C,circle.png,1,z,Thu Feb 06 2025 10:48:57 GMT-0600 (Central Standard Time),624052.1000000238,1700,I,z,1112,10,1,2828.5,621223.6000000238,8022,NTS,A,13
7,14,test,1,C,circle.png,1,m,Thu Feb 06 2025 10:48:57 GMT-0600 (Central Standard Time),626918.1000000238,2000,I,m,844,14,1,2862.300000011921,624055.8000000119,8022,NTS,A,14
1,14,test,1,C,triangle.png,0,z,Thu Feb 06 2025 10:48:57 GMT-0600 (Central Standard Time),630200.3000000119,1900,I,m,1350,17,1,3278.800000011921,626921.5,8022,NTS,A,15
7,14,test,1,C,triangle.png,0,z,Thu Feb 06 2025 10:48:57 GMT-0600 (Central Standard Time),633416.0,1700,I,m,1483,6,1,3211.899999976158,630204.1000000238,8022,NTS,A,16
6,15,test,1,C,circle.png,1,m,Thu Feb 06 2025 10:48:57 GMT-0600 (Central Standard Time),636165.1000000238,1900,I,m,820,5,1,2745.4000000059605,633419.7000000179,8022,NTS,A,17
1,16,test,1,C,circle.png,1,z,Thu Feb 06 2025 10:48:57 GMT-0600 (Central Standard Time),638081.1000000238,1000,I,z,890,1,1,1912.0,636169.1000000238,8022,NTS,A,18
8,17,test,1,C,triangle.png,1,m,Thu Feb 06 2025 10:48:57 GMT-0600 (Central Standard Time),640697.1000000238,1600,I,m,990,23,1,2612.2000000178814,638084.900000006,8022,NTS,A,19
1,18,test,1,C,triangle.png,1,z,Thu Feb 06 2025 10:48:57 GMT-0600 (Central Standard Time),643612.900000006,1900,I,z,995,9,1,2912.0,640700.900000006,8022,NTS,A,20
2,19,test,1,C,circle.png,1,z,Thu Feb 06 2025 10:48:57 GMT-0600 (Central Standard Time),646162.3000000119,1700,I,z,831,18,1,2545.5,643616.8000000119,8022,NTS,A,21
4,20,test,1,C,triangle.png,1,m,Thu Feb 06 2025 10:48:57 GMT-0600 (Central Standard Time),648577.8000000119,1500,I,m,890,12,1,2412.0,646165.8000000119,8022,NTS,A,22
8,20,test,1,C,circle.png,0,m,Thu Feb 06 2025 10:48:57 GMT-0600 (Central Standard Time),650677.2000000179,1200,I,z,878,15,1,2095.4000000059605,648581.8000000119,8022,NTS,A,23
2,21,test,1,C,triangle.png,1,m,Thu Feb 06 2025 10:48:57 GMT-0600 (Central Standard Time),653759.7000000179,2000,I,m,1059,2,1,3078.9000000059605,650680.8000000119,8022,NTS,A,24
4,1,test,2,C,triangle.png,1,m,Thu Feb 06 2025 10:48:57 GMT-0600 (Central Standard Time),668971.7000000179,1500,I,m,763,12,1,2279.5,666692.2000000179,8022,NTS,A,1
8,2,test,2,C,circle.png,1,m,Thu Feb 06 2025 10:48:57 GMT-0600 (Central Standard Time),671087.6000000238,1200,I,m,892,15,1,2111.9000000059605,668975.7000000179,8022,NTS,A,2
2,3,test,2,C,triangle.png,1,m,Thu Feb 06 2025 10:48:57 GMT-0600 (Central Standard Time),674170.0,2000,I,m,1048,2,1,3078.699999988079,671091.3000000119,8022,NTS,A,3
3,4,test,2,C,circle.png,1,z,Thu Feb 06 2025 10:48:57 GMT-0600 (Central Standard Time),676385.900000006,1600,I,z,590,11,1,2212.199999988079,674173.7000000179,8022,NTS,A,4
6,5,test,2,C,circle.png,1,m,Thu Feb 06 2025 10:48:57 GMT-0600 (Central Standard Time),679784.900000006,1900,I,m,1466,5,1,3395.2999999821186,676389.6000000238,8022,NTS,A,5
1,6,test,2,C,triangle.png,1,z,Thu Feb 06 2025 10:48:57 GMT-0600 (Central Standard Time),683050.400000006,1900,I,z,1331,9,1,3261.7999999821186,679788.6000000238,8022,NTS,A,6
4,7,test,2,C,circle.png,1,z,Thu Feb 06 2025 10:48:57 GMT-0600 (Central Standard Time),685416.3000000119,1400,I,z,933,4,1,2362.0,683054.3000000119,8022,NTS,A,7
3,8,test,2,C,circle.png,1,z,Thu Feb 06 2025 10:48:57 GMT-0600 (Central Standard Time),687948.900000006,1600,I,z,903,19,1,2529.0999999940395,685419.8000000119,8022,NTS,A,8
2,9,test,2,C,circle.png,1,z,Thu Feb 06 2025 10:48:57 GMT-0600 (Central Standard Time),690398.1000000238,1700,I,z,727,10,1,2445.600000023842,687952.5,8022,NTS,A,9
6,10,test,2,C,triangle.png,1,m,Thu Feb 06 2025 10:48:57 GMT-0600 (Central Standard Time),692247.6000000238,1000,I,m,825,21,1,1845.1000000238419,690402.5,8022,NTS,A,10
8,11,test,2,C,circle.png,1,m,Thu Feb 06 2025 10:48:57 GMT-0600 (Central Standard Time),694581.400000006,1200,I,m,1112,23,1,2330.199999988079,692251.2000000179,8022,NTS,A,11
1,12,test,2,C,circle.png,1,z,Thu Feb 06 2025 10:48:57 GMT-0600 (Central Standard Time),696463.0,1000,I,z,851,1,1,1877.5999999940395,694585.400000006,8022,NTS,A,12
9,13,test,2,C,circle.png,1,m,Thu Feb 06 2025 10:48:57 GMT-0600 (Central Standard Time),698945.7000000179,1500,I,m,949,8,1,2479.0,696466.7000000179,8022,NTS,A,13
1,14,test,2,C,triangle.png,1,z,Thu Feb 06 2025 10:48:57 GMT-0600 (Central Standard Time),701977.900000006,1900,I,z,1098,17,1,3028.5999999940395,698949.3000000119,8022,NTS,A,14
9,15,test,2,C,triangle.png,1,z,Thu Feb 06 2025 10:48:57 GMT-0600 (Central Standard Time),704427.1000000238,1400,I,z,1022,16,1,2445.4000000059605,701981.7000000179,8022,NTS,A,15
9,16,test,2,C,triangle.png,1,z,Thu Feb 06 2025 10:48:57 GMT-0600 (Central Standard Time),707159.6000000238,1400,I,z,1300,24,1,2728.600000023842,704431.0,8022,NTS,A,16
7,17,test,2,C,circle.png,1,m,Thu Feb 06 2025 10:48:57 GMT-0600 (Central Standard Time),710208.7000000179,2000,I,m,1024,22,1,3045.300000011921,707163.400000006,8022,NTS,A,17
6,17,test,2,C,triangle.png,0,m,Thu Feb 06 2025 10:48:57 GMT-0600 (Central Standard Time),712741.400000006,1000,I,None,1514,13,1,2529.2999999821186,710212.1000000238,8022,NTS,A,18
7,18,test,2,C,circle.png,1,m,Thu Feb 06 2025 10:48:57 GMT-0600 (Central Standard Time),715790.1000000238,2000,I,m,1019,14,1,3045.0,712745.1000000238,8022,NTS,A,19
4,19,test,2,C,triangle.png,1,m,Thu Feb 06 2025 10:48:57 GMT-0600 (Central Standard Time),718222.900000006,1500,I,m,901,20,1,2429.0999999940395,715793.8000000119,8022,NTS,A,20
3,20,test,2,C,triangle.png,1,z,Thu Feb 06 2025 10:48:57 GMT-0600 (Central Standard Time),720322.3000000119,1200,I,z,881,3,1,2095.9000000059605,718226.400000006,8022,NTS,A,21
2,21,test,2,C,circle.png,1,z,Thu Feb 06 2025 10:48:57 GMT-0600 (Central Standard Time),722738.8000000119,1700,I,z,686,18,1,2412.5,720326.3000000119,8022,NTS,A,22
8,22,test,2,C,triangle.png,1,m,Thu Feb 06 2025 10:48:57 GMT-0600 (Central Standard Time),725337.3000000119,1600,I,m,966,7,1,2595.0999999940395,722742.2000000179,8022,NTS,A,23
7,22,test,2,C,triangle.png,0,z,Thu Feb 06 2025 10:48:57 GMT-0600 (Central Standard Time),728003.2000000179,1700,I,m,938,6,1,2662.2000000178814,725341.0,8022,NTS,A,24
3,1,test,3,C,triangle.png,1,z,Thu Feb 06 2025 10:48:57 GMT-0600 (Central Standard Time),739233.0,1200,I,z,1091,3,1,2313.0999999940395,736919.900000006,8022,NTS,A,1
9,2,test,3,C,circle.png,1,m,Thu Feb 06 2025 10:48:57 GMT-0600 (Central Standard Time),741549.0,1500,I,m,786,24,1,2312.0999999940395,739236.900000006,8022,NTS,A,2
1,3,test,3,C,circle.png,1,z,Thu Feb 06 2025 10:48:57 GMT-0600 (Central Standard Time),743181.6000000238,1000,I,z,611,17,1,1629.1000000238419,741552.5,8022,NTS,A,3
8,4,test,3,C,triangle.png,1,m,Thu Feb 06 2025 10:48:57 GMT-0600 (Central Standard Time),745574.5,1600,I,m,774,23,1,2389.2999999821186,743185.2000000179,8022,NTS,A,4
7,5,test,3,C,triangle.png,1,z,Thu Feb 06 2025 10:48:57 GMT-0600 (Central Standard Time),748196.8000000119,1700,I,z,887,6,1,2618.4000000059605,745578.400000006,8022,NTS,A,5
2,6,test,3,C,triangle.png,1,m,Thu Feb 06 2025 10:48:57 GMT-0600 (Central Standard Time),751295.8000000119,2000,I,m,1067,18,1,3095.300000011921,748200.5,8022,NTS,A,6
2,7,test,3,C,triangle.png,1,m,Thu Feb 06 2025 10:48:57 GMT-0600 (Central Standard Time),754178.1000000238,2000,I,m,848,2,1,2876.7000000178814,751301.400000006,8022,NTS,A,7
6,8,test,3,C,triangle.png,1,m,Thu Feb 06 2025 10:48:57 GMT-0600 (Central Standard Time),755961.1000000238,1000,I,m,758,13,1,1778.4000000059605,754182.7000000179,8022,NTS,A,8
1,9,test,3,C,circle.png,1,z,Thu Feb 06 2025 10:48:57 GMT-0600 (Central Standard Time),757610.5,1000,I,z,628,1,1,1645.8999999761581,755964.6000000238,8022,NTS,A,9
8,10,test,3,C,triangle.png,1,m,Thu Feb 06 2025 10:48:57 GMT-0600 (Central Standard Time),760193.1000000238,1600,I,m,957,7,1,2579.2000000178814,757613.900000006,8022,NTS,A,10
8,10,test,3,C,circle.png,0,m,Thu Feb 06 2025 10:48:57 GMT-0600 (Central Standard Time),762225.6000000238,1200,I,z,806,15,1,2028.800000011921,760196.8000000119,8022,NTS,A,11
3,10,test,3,C,triangle.png,0,z,Thu Feb 06 2025 10:48:57 GMT-0600 (Central Standard Time),764241.8000000119,1200,I,m,790,19,1,2012.5,762229.3000000119,8022,NTS,A,12
4,11,test,3,C,circle.png,1,z,Thu Feb 06 2025 10:48:57 GMT-0600 (Central Standard Time),766591.1000000238,1400,I,z,918,20,1,2345.600000023842,764245.5,8022,NTS,A,13
4,12,test,3,C,triangle.png,1,m,Thu Feb 06 2025 10:48:57 GMT-0600 (Central Standard Time),769002.400000006,1500,I,m,892,12,1,2407.9000000059605,766594.5,8022,NTS,A,14
2,13,test,3,C,circle.png,1,z,Thu Feb 06 2025 10:48:57 GMT-0600 (Central Standard Time),771506.3000000119,1700,I,z,765,10,1,2498.9000000059605,769007.400000006,8022,NTS,A,15
4,13,test,3,C,circle.png,0,z,Thu Feb 06 2025 10:48:57 GMT-0600 (Central Standard Time),773955.3000000119,1400,I,m,1030,4,1,2445.199999988079,771510.1000000238,8022,NTS,A,16
9,14,test,3,C,triangle.png,1,z,Thu Feb 06 2025 10:48:57 GMT-0600 (Central Standard Time),776322.400000006,1400,I,z,940,16,1,2362.9000000059605,773959.5,8022,NTS,A,17
3,15,test,3,C,circle.png,1,z,Thu Feb 06 2025 10:48:57 GMT-0600 (Central Standard Time),778770.6000000238,1600,I,z,823,11,1,2444.4000000059605,776326.2000000179,8022,NTS,A,18
1,15,test,3,C,triangle.png,0,z,Thu Feb 06 2025 10:48:57 GMT-0600 (Central Standard Time),782202.900000006,1900,I,None,1514,9,1,3428.5,778774.400000006,8022,NTS,A,19
7,16,test,3,C,triangle.png,1,z,Thu Feb 06 2025 10:48:57 GMT-0600 (Central Standard Time),784951.900000006,1700,I,z,1017,22,1,2745.2999999821186,782206.6000000238,8022,NTS,A,20
7,17,test,3,C,circle.png,1,m,Thu Feb 06 2025 10:48:57 GMT-0600 (Central Standard Time),787884.400000006,2000,I,m,904,14,1,2928.2999999821186,784956.1000000238,8022,NTS,A,21
6,18,test,3,C,circle.png,1,m,Thu Feb 06 2025 10:48:57 GMT-0600 (Central Standard Time),790883.400000006,1900,I,m,1071,5,1,2995.5999999940395,787887.8000000119,8022,NTS,A,22
6,19,test,3,C,circle.png,1,m,Thu Feb 06 2025 10:48:57 GMT-0600 (Central Standard Time),793599.3000000119,1900,I,m,784,21,1,2712.300000011921,790887.0,8022,NTS,A,23
9,20,test,3,C,circle.png,1,m,Thu Feb 06 2025 10:48:57 GMT-0600 (Central Standard Time),796081.900000006,1500,I,m,948,8,1,2479.0,793602.900000006,8022,NTS,A,24
7,1,test,4,C,triangle.png,1,z,Thu Feb 06 2025 10:48:57 GMT-0600 (Central Standard Time),804429.3000000119,1700,I,z,1311,6,1,3029.4000000059605,801399.900000006,8022,NTS,A,1
9,2,test,4,C,circle.png,1,m,Thu Feb 06 2025 10:48:57 GMT-0600 (Central Standard Time),806811.7000000179,1500,I,m,862,24,1,2377.0999999940395,804434.6000000238,8022,NTS,A,2
8,3,test,4,C,circle.png,1,m,Thu Feb 06 2025 10:48:57 GMT-0600 (Central Standard Time),809127.7000000179,1200,I,m,1084,15,1,2312.2000000178814,806815.5,8022,NTS,A,3
3,4,test,4,C,triangle.png,1,z,Thu Feb 06 2025 10:48:57 GMT-0600 (Central Standard Time),811277.0,1200,I,z,928,19,1,2145.2999999821186,809131.7000000179,8022,NTS,A,4
4,5,test,4,C,circle.png,1,z,Thu Feb 06 2025 10:48:57 GMT-0600 (Central Standard Time),813609.8000000119,1400,I,z,898,20,1,2329.300000011921,811280.5,8022,NTS,A,5
2,6,test,4,C,triangle.png,1,m,Thu Feb 06 2025 10:48:57 GMT-0600 (Central Standard Time),816975.5,2000,I,m,1342,2,1,3362.2999999821186,813613.2000000179,8022,NTS,A,6
6,7,test,4,C,circle.png,1,m,Thu Feb 06 2025 10:48:57 GMT-0600 (Central Standard Time),819807.7000000179,1900,I,m,908,21,1,2827.9000000059605,816979.8000000119,8022,NTS,A,7
7,8,test,4,C,triangle.png,1,z,Thu Feb 06 2025 10:48:57 GMT-0600 (Central Standard Time),822656.8000000119,1700,I,z,1116,22,1,2845.5999999940395,819811.2000000179,8022,NTS,A,8
2,9,test,4,C,triangle.png,1,m,Thu Feb 06 2025 10:48:57 GMT-0600 (Central Standard Time),825622.5,2000,I,m,943,18,1,2962.0999999940395,822660.400000006,8022,NTS,A,9
9,10,test,4,C,triangle.png,1,z,Thu Feb 06 2025 10:48:57 GMT-0600 (Central Standard Time),828038.400000006,1400,I,z,994,16,1,2412.0999999940395,825626.3000000119,8022,NTS,A,10
1,11,test,4,C,circle.png,1,z,Thu Feb 06 2025 10:48:57 GMT-0600 (Central Standard Time),829771.3000000119,1000,I,z,705,1,1,1728.9000000059605,828042.400000006,8022,NTS,A,11
4,12,test,4,C,circle.png,1,z,Thu Feb 06 2025 10:48:57 GMT-0600 (Central Standard Time),832503.7000000179,1400,I,z,1300,4,1,2728.7000000178814,829775.0,8022,NTS,A,12
8,13,test,4,C,triangle.png,1,m,Thu Feb 06 2025 10:48:57 GMT-0600 (Central Standard Time),835386.2000000179,1600,I,m,1256,23,1,2878.7000000178814,832507.5,8022,NTS,A,13
6,14,test,4,C,triangle.png,1,m,Thu Feb 06 2025 10:48:57 GMT-0600 (Central Standard Time),837202.3000000119,1000,I,m,789,13,1,1812.5999999940395,835389.7000000179,8022,NTS,A,14
1,15,test,4,C,circle.png,1,z,Thu Feb 06 2025 10:48:57 GMT-0600 (Central Standard Time),838901.7000000179,1000,I,z,669,17,1,1695.7000000178814,837206.0,8022,NTS,A,15
7,16,test,4,C,circle.png,1,m,Thu Feb 06 2025 10:48:57 GMT-0600 (Central Standard Time),842268.400000006,2000,I,m,1347,14,1,3363.0,838905.400000006,8022,NTS,A,16
3,17,test,4,C,triangle.png,1,z,Thu Feb 06 2025 10:48:57 GMT-0600 (Central Standard Time),844533.3000000119,1200,I,z,1036,3,1,2261.5999999940395,842271.7000000179,8022,NTS,A,17
8,18,test,4,C,triangle.png,1,m,Thu Feb 06 2025 10:48:57 GMT-0600 (Central Standard Time),846982.5,1600,I,m,818,7,1,2445.5999999940395,844536.900000006,8022,NTS,A,18
1,19,test,4,C,triangle.png,1,z,Thu Feb 06 2025 10:48:57 GMT-0600 (Central Standard Time),849848.3000000119,1900,I,z,941,9,1,2862.199999988079,846986.1000000238,8022,NTS,A,19
3,20,test,4,C,circle.png,1,z,Thu Feb 06 2025 10:48:57 GMT-0600 (Central Standard Time),852297.6000000238,1600,I,z,815,11,1,2445.4000000059605,849852.2000000179,8022,NTS,A,20
4,21,test,4,C,triangle.png,1,m,Thu Feb 06 2025 10:48:57 GMT-0600 (Central Standard Time),854980.1000000238,1500,I,m,1154,12,1,2678.600000023842,852301.5,8022,NTS,A,21
6,22,test,4,C,circle.png,1,m,Thu Feb 06 2025 10:48:57 GMT-0600 (Central Standard Time),857912.6000000238,1900,I,m,1000,5,1,2928.800000011921,854983.8000000119,8022,NTS,A,22
2,23,test,4,C,circle.png,1,z,Thu Feb 06 2025 10:48:57 GMT-0600 (Central Standard Time),860494.900000006,1700,I,z,851,10,1,2578.4000000059605,857916.5,8022,NTS,A,23
9,24,test,4,C,circle.png,1,m,Thu Feb 06 2025 10:48:57 GMT-0600 (Central Standard Time),862860.6000000238,1500,I,m,837,8,1,2361.7000000178814,860498.900000006,8022,NTS,A,24
