block_c,block_dur,condition,countdown,datetime,endtime,list,multichar_response,project,response,response_time,session_number,start_end,starttime,subject_id,task,task_vers,trial
,,,,Tue Oct 08 2024 10:07:27 GMT-0500 (Central Daylight Time),,,,O,space,910,1,,,7020,WL,B,
prac,,0,,Tue Oct 08 2024 10:07:27 GMT-0500 (Central Daylight Time),,NA,b,O,b,4039,1,,,7020,WL,B,1.0
prac,,0,,Tue Oct 08 2024 10:07:27 GMT-0500 (Central Daylight Time),,NA,bo,O,o,257,1,,,7020,WL,B,1.0
prac,,0,,Tue Oct 08 2024 10:07:27 GMT-0500 (Central Daylight Time),,NA,boo,O,o,111,1,,,7020,WL,B,1.0
prac,,0,,Tue Oct 08 2024 10:07:27 GMT-0500 (Central Daylight Time),,NA,boos,O,s,931,1,,,7020,WL,B,1.0
prac,,0,,Tue Oct 08 2024 10:07:27 GMT-0500 (Central Daylight Time),,NA,boost,O,t,149,1,,,7020,WL,B,1.0
prac,,0,,Tue Oct 08 2024 10:07:27 GMT-0500 (Central Daylight Time),,NA,boostenter,O,enter,4671,1,,,7020,WL,B,1.0
1,0.5829999446868896,learn,59417.00005531311,Tue Oct 08 2024 10:07:27 GMT-0500 (Central Daylight Time),135420.29999995232,A,s,O,s,567,1,582.6999999880791,134837.59999996424,7020,WL,B,1.0
1,0.8499999046325684,learn,59150.00009536743,Tue Oct 08 2024 10:07:27 GMT-0500 (Central Daylight Time),135687.29999995232,A,st,O,t,255,1,849.6999999880791,134837.59999996424,7020,WL,B,1.0
1,1.1329998970031738,learn,58867.000102996826,Tue Oct 08 2024 10:07:27 GMT-0500 (Central Daylight Time),135970.39999997616,A,str,O,r,263,1,1132.800000011921,134837.59999996424,7020,WL,B,1.0
1,1.3329999446868896,learn,58667.00005531311,Tue Oct 08 2024 10:07:27 GMT-0500 (Central Daylight Time),136170.39999997616,A,stre,O,e,194,1,1332.800000011921,134837.59999996424,7020,WL,B,1.0
1,1.6979999542236328,learn,58302.00004577637,Tue Oct 08 2024 10:07:27 GMT-0500 (Central Daylight Time),136535.19999998808,A,stree,O,e,359,1,1697.6000000238419,134837.59999996424,7020,WL,B,1.0
1,1.8840000629425049,learn,58115.999937057495,Tue Oct 08 2024 10:07:27 GMT-0500 (Central Daylight Time),136721.19999998808,A,street,O,t,164,1,1883.6000000238419,134837.59999996424,7020,WL,B,1.0
1,3.132999897003174,learn,56867.000102996826,Tue Oct 08 2024 10:07:27 GMT-0500 (Central Daylight Time),137970.29999995232,A,streetenter,O,enter,1233,1,3132.699999988079,134837.59999996424,7020,WL,B,1.0
1,3.6649999618530273,learn,56335.00003814697,Tue Oct 08 2024 10:07:27 GMT-0500 (Central Daylight Time),138503.0,A,p,O,p,514,1,532.1000000238419,137970.89999997616,7020,WL,B,2.0
1,4.232000112533569,learn,55767.99988746643,Tue Oct 08 2024 10:07:27 GMT-0500 (Central Daylight Time),139069.39999997616,A,pu,O,u,558,1,1098.5,137970.89999997616,7020,WL,B,2.0
1,4.648000001907349,learn,55351.99999809265,Tue Oct 08 2024 10:07:27 GMT-0500 (Central Daylight Time),139486.0,A,pup,O,p,400,1,1515.1000000238419,137970.89999997616,7020,WL,B,2.0
1,4.881999969482422,learn,55118.00003051758,Tue Oct 08 2024 10:07:27 GMT-0500 (Central Daylight Time),139719.19999998808,A,pupi,O,i,222,1,1748.300000011921,137970.89999997616,7020,WL,B,2.0
1,5.082000017166138,learn,54917.99998283386,Tue Oct 08 2024 10:07:27 GMT-0500 (Central Daylight Time),139919.29999995232,A,pupil,O,l,190,1,1948.3999999761581,137970.89999997616,7020,WL,B,2.0
1,5.398000001907349,learn,54601.99999809265,Tue Oct 08 2024 10:07:27 GMT-0500 (Central Daylight Time),140235.79999995232,A,pupilenter,O,enter,310,1,2264.899999976158,137970.89999997616,7020,WL,B,2.0
1,5.766000032424927,learn,54233.99996757507,Tue Oct 08 2024 10:07:27 GMT-0500 (Central Daylight Time),140603.39999997616,A,a,O,a,353,1,367.0,140236.39999997616,7020,WL,B,3.0
1,5.865000009536743,learn,54134.99999046326,Tue Oct 08 2024 10:07:27 GMT-0500 (Central Daylight Time),140702.19999998808,A,ar,O,r,82,1,465.80000001192093,140236.39999997616,7020,WL,B,3.0
1,5.999000072479248,learn,54000.99992752075,Tue Oct 08 2024 10:07:27 GMT-0500 (Central Daylight Time),140836.39999997616,A,arm,O,m,126,1,600.0,140236.39999997616,7020,WL,B,3.0
1,6.2809998989105225,learn,53719.00010108948,Tue Oct 08 2024 10:07:27 GMT-0500 (Central Daylight Time),141119.0,A,armenter,O,enter,273,1,882.6000000238419,140236.39999997616,7020,WL,B,3.0
1,6.71399998664856,learn,53286.00001335144,Tue Oct 08 2024 10:07:27 GMT-0500 (Central Daylight Time),141551.89999997616,A,c,O,c,422,1,432.60000002384186,141119.29999995232,7020,WL,B,4.0
1,6.7809998989105225,learn,53219.00010108948,Tue Oct 08 2024 10:07:27 GMT-0500 (Central Daylight Time),141618.5,A,cl,O,l,61,1,499.2000000476837,141119.29999995232,7020,WL,B,4.0
1,6.997999906539917,learn,53002.00009346008,Tue Oct 08 2024 10:07:27 GMT-0500 (Central Daylight Time),141835.19999998808,A,clo,O,o,203,1,715.9000000357628,141119.29999995232,7020,WL,B,4.0
1,7.081000089645386,learn,52918.999910354614,Tue Oct 08 2024 10:07:27 GMT-0500 (Central Daylight Time),141918.59999996424,A,cloc,O,c,66,1,799.3000000119209,141119.29999995232,7020,WL,B,4.0
1,7.230999946594238,learn,52769.00005340576,Tue Oct 08 2024 10:07:27 GMT-0500 (Central Daylight Time),142068.5,A,clock,O,k,143,1,949.2000000476837,141119.29999995232,7020,WL,B,4.0
1,7.564000129699707,learn,52435.99987030029,Tue Oct 08 2024 10:07:27 GMT-0500 (Central Daylight Time),142401.69999998808,A,clockenter,O,enter,313,1,1282.4000000357628,141119.29999995232,7020,WL,B,4.0
1,8.581000089645386,learn,51418.999910354614,Tue Oct 08 2024 10:07:27 GMT-0500 (Central Daylight Time),143418.09999996424,A,f,O,f,995,1,1016.0,142402.09999996424,7020,WL,B,5.0
1,8.680000066757202,learn,51319.9999332428,Tue Oct 08 2024 10:07:27 GMT-0500 (Central Daylight Time),143518.0,A,fi,O,i,91,1,1115.9000000357628,142402.09999996424,7020,WL,B,5.0
1,8.79800009727478,learn,51201.99990272522,Tue Oct 08 2024 10:07:27 GMT-0500 (Central Daylight Time),143635.5,A,fir,O,r,112,1,1233.4000000357628,142402.09999996424,7020,WL,B,5.0
1,8.88100004196167,learn,51118.99995803833,Tue Oct 08 2024 10:07:27 GMT-0500 (Central Daylight Time),143718.0,A,fire,O,e,65,1,1315.9000000357628,142402.09999996424,7020,WL,B,5.0
1,9.164000034332275,learn,50835.999965667725,Tue Oct 08 2024 10:07:27 GMT-0500 (Central Daylight Time),144001.19999998808,A,fireenter,O,enter,263,1,1599.1000000238419,142402.09999996424,7020,WL,B,5.0
1,9.597000122070312,learn,50402.99987792969,Tue Oct 08 2024 10:07:27 GMT-0500 (Central Daylight Time),144434.39999997616,A,l,O,l,428,1,432.89999997615814,144001.5,7020,WL,B,6.0
1,9.680000066757202,learn,50319.9999332428,Tue Oct 08 2024 10:07:27 GMT-0500 (Central Daylight Time),144517.79999995232,A,la,O,a,67,1,516.2999999523163,144001.5,7020,WL,B,6.0
1,9.77999997138977,learn,50220.00002861023,Tue Oct 08 2024 10:07:27 GMT-0500 (Central Daylight Time),144617.69999998808,A,lak,O,k,88,1,616.1999999880791,144001.5,7020,WL,B,6.0
1,9.880000114440918,learn,50119.99988555908,Tue Oct 08 2024 10:07:27 GMT-0500 (Central Daylight Time),144717.39999997616,A,lake,O,e,83,1,715.8999999761581,144001.5,7020,WL,B,6.0
1,10.013000011444092,learn,49986.99998855591,Tue Oct 08 2024 10:07:27 GMT-0500 (Central Daylight Time),144850.69999998808,A,lakeenter,O,enter,127,1,849.1999999880791,144001.5,7020,WL,B,6.0
1,10.413000106811523,learn,49586.99989318848,Tue Oct 08 2024 10:07:27 GMT-0500 (Central Daylight Time),145250.59999996424,A,c,O,c,395,1,399.5999999642372,144851.0,7020,WL,B,7.0
1,10.52999997138977,learn,49470.00002861023,Tue Oct 08 2024 10:07:27 GMT-0500 (Central Daylight Time),145367.5,A,ca,O,a,105,1,516.5,144851.0,7020,WL,B,7.0
1,10.79699993133545,learn,49203.00006866455,Tue Oct 08 2024 10:07:27 GMT-0500 (Central Daylight Time),145634.09999996424,A,cab,O,b,245,1,783.0999999642372,144851.0,7020,WL,B,7.0
1,10.86299991607666,learn,49137.00008392334,Tue Oct 08 2024 10:07:27 GMT-0500 (Central Daylight Time),145700.59999996424,A,cabi,O,i,59,1,849.5999999642372,144851.0,7020,WL,B,7.0
1,10.913000106811523,learn,49086.99989318848,Tue Oct 08 2024 10:07:27 GMT-0500 (Central Daylight Time),145750.5,A,cabin,O,n,33,1,899.5,144851.0,7020,WL,B,7.0
1,11.77999997138977,learn,48220.00002861023,Tue Oct 08 2024 10:07:27 GMT-0500 (Central Daylight Time),146617.19999998808,A,cabinenter,O,enter,847,1,1766.199999988079,144851.0,7020,WL,B,7.0
1,14.480000019073486,learn,45519.999980926514,Tue Oct 08 2024 10:07:27 GMT-0500 (Central Daylight Time),149317.79999995232,A,w,O,w,2684,1,2700.2999999523163,146617.5,7020,WL,B,8.0
1,14.611999988555908,learn,45388.00001144409,Tue Oct 08 2024 10:07:27 GMT-0500 (Central Daylight Time),149449.69999998808,A,wi,O,i,112,1,2832.199999988079,146617.5,7020,WL,B,8.0
1,14.694999933242798,learn,45305.0000667572,Tue Oct 08 2024 10:07:27 GMT-0500 (Central Daylight Time),149532.59999996424,A,wif,O,f,68,1,2915.099999964237,146617.5,7020,WL,B,8.0
1,14.745000123977661,learn,45254.99987602234,Tue Oct 08 2024 10:07:27 GMT-0500 (Central Daylight Time),149582.89999997616,A,wife,O,e,41,1,2965.399999976158,146617.5,7020,WL,B,8.0
1,14.962000131607056,learn,45037.999868392944,Tue Oct 08 2024 10:07:27 GMT-0500 (Central Daylight Time),149799.29999995232,A,wifeenter,O,enter,199,1,3181.7999999523163,146617.5,7020,WL,B,8.0
1,15.67799997329712,learn,44322.00002670288,Tue Oct 08 2024 10:07:27 GMT-0500 (Central Daylight Time),150515.79999995232,A,c,O,c,702,1,716.0,149799.79999995232,7020,WL,B,9.0
1,15.745000123977661,learn,44254.99987602234,Tue Oct 08 2024 10:07:27 GMT-0500 (Central Daylight Time),150582.39999997616,A,ci,O,i,58,1,782.6000000238419,149799.79999995232,7020,WL,B,9.0
1,15.894999980926514,learn,44105.000019073486,Tue Oct 08 2024 10:07:27 GMT-0500 (Central Daylight Time),150732.19999998808,A,cit,O,t,135,1,932.4000000357628,149799.79999995232,7020,WL,B,9.0
1,15.960999965667725,learn,44039.000034332275,Tue Oct 08 2024 10:07:27 GMT-0500 (Central Daylight Time),150798.89999997616,A,city,O,y,57,1,999.1000000238419,149799.79999995232,7020,WL,B,9.0
1,16.26099991798401,learn,43739.00008201599,Tue Oct 08 2024 10:07:27 GMT-0500 (Central Daylight Time),151098.69999998808,A,cityenter,O,enter,295,1,1298.9000000357628,149799.79999995232,7020,WL,B,9.0
1,17.42799997329712,learn,42572.00002670288,Tue Oct 08 2024 10:07:27 GMT-0500 (Central Daylight Time),152265.29999995232,A,a,O,a,1155,1,1166.2999999523163,151099.0,7020,WL,B,10.0
1,17.561000108718872,learn,42438.99989128113,Tue Oct 08 2024 10:07:27 GMT-0500 (Central Daylight Time),152398.59999996424,A,ar,O,r,116,1,1299.5999999642372,151099.0,7020,WL,B,10.0
1,17.66100001335144,learn,42338.99998664856,Tue Oct 08 2024 10:07:27 GMT-0500 (Central Daylight Time),152498.29999995232,A,arm,O,m,95,1,1399.2999999523163,151099.0,7020,WL,B,10.0
1,17.91100001335144,learn,42088.99998664856,Tue Oct 08 2024 10:07:27 GMT-0500 (Central Daylight Time),152748.39999997616,A,armenter,O,enter,243,1,1649.3999999761581,151099.0,7020,WL,B,10.0
1,21.061000108718872,learn,38938.99989128113,Tue Oct 08 2024 10:07:27 GMT-0500 (Central Daylight Time),155898.59999996424,A,s,O,s,3137,1,3149.800000011921,152748.79999995232,7020,WL,B,11.0
1,21.64400005340576,learn,38355.99994659424,Tue Oct 08 2024 10:07:27 GMT-0500 (Central Daylight Time),156481.79999995232,A,,O,backspace,563,1,3733.0,152748.79999995232,7020,WL,B,11.0
1,22.825999975204468,learn,37174.00002479553,Tue Oct 08 2024 10:07:27 GMT-0500 (Central Daylight Time),157663.69999998808,A,g,O,g,1172,1,4914.900000035763,152748.79999995232,7020,WL,B,11.0
1,22.993000030517578,learn,37006.99996948242,Tue Oct 08 2024 10:07:27 GMT-0500 (Central Daylight Time),157830.29999995232,A,gr,O,r,150,1,5081.5,152748.79999995232,7020,WL,B,11.0
1,23.075999975204468,learn,36924.00002479553,Tue Oct 08 2024 10:07:27 GMT-0500 (Central Daylight Time),157913.29999995232,A,gra,O,a,71,1,5164.5,152748.79999995232,7020,WL,B,11.0
1,23.2260000705719,learn,36773.9999294281,Tue Oct 08 2024 10:07:27 GMT-0500 (Central Daylight Time),158063.29999995232,A,gras,O,s,132,1,5314.5,152748.79999995232,7020,WL,B,11.0
1,23.375999927520752,learn,36624.00007247925,Tue Oct 08 2024 10:07:27 GMT-0500 (Central Daylight Time),158213.29999995232,A,grass,O,s,134,1,5464.5,152748.79999995232,7020,WL,B,11.0
1,23.592000007629395,learn,36407.999992370605,Tue Oct 08 2024 10:07:27 GMT-0500 (Central Daylight Time),158430.0,A,grassenter,O,enter,200,1,5681.200000047684,152748.79999995232,7020,WL,B,11.0
1,33.83899998664856,learn,26161.00001335144,Tue Oct 08 2024 10:07:27 GMT-0500 (Central Daylight Time),168676.79999995232,A,l,O,l,10232,1,10246.399999976158,158430.39999997616,7020,WL,B,12.0
1,34.305999994277954,learn,25694.000005722046,Tue Oct 08 2024 10:07:27 GMT-0500 (Central Daylight Time),169143.19999998808,A,la,O,a,455,1,10712.800000011921,158430.39999997616,7020,WL,B,12.0
1,34.40599989891052,learn,25594.000101089478,Tue Oct 08 2024 10:07:27 GMT-0500 (Central Daylight Time),169243.29999995232,A,lak,O,k,86,1,10812.899999976158,158430.39999997616,7020,WL,B,12.0
1,34.52300000190735,learn,25476.99999809265,Tue Oct 08 2024 10:07:27 GMT-0500 (Central Daylight Time),169360.09999996424,A,lake,O,e,98,1,10929.699999988079,158430.39999997616,7020,WL,B,12.0
1,35.039000034332275,learn,24960.999965667725,Tue Oct 08 2024 10:07:27 GMT-0500 (Central Daylight Time),169876.29999995232,A,lakeenter,O,enter,509,1,11445.899999976158,158430.39999997616,7020,WL,B,12.0
1,37.704999923706055,learn,22295.000076293945,Tue Oct 08 2024 10:07:27 GMT-0500 (Central Daylight Time),172542.19999998808,A,c,O,c,2657,1,2665.400000035763,169876.79999995232,7020,WL,B,13.0
1,37.78800010681152,learn,22211.999893188477,Tue Oct 08 2024 10:07:27 GMT-0500 (Central Daylight Time),172625.5,A,ca,O,a,63,1,2748.7000000476837,169876.79999995232,7020,WL,B,13.0
1,38.07100009918213,learn,21928.99990081787,Tue Oct 08 2024 10:07:27 GMT-0500 (Central Daylight Time),172908.69999998808,A,cab,O,b,276,1,3031.900000035763,169876.79999995232,7020,WL,B,13.0
1,38.1710000038147,learn,21828.999996185303,Tue Oct 08 2024 10:07:27 GMT-0500 (Central Daylight Time),173008.59999996424,A,cabi,O,i,81,1,3131.800000011921,169876.79999995232,7020,WL,B,13.0
1,38.22099995613098,learn,21779.00004386902,Tue Oct 08 2024 10:07:27 GMT-0500 (Central Daylight Time),173058.79999995232,A,cabin,O,n,37,1,3182.0,169876.79999995232,7020,WL,B,13.0
1,38.437999963760376,learn,21562.000036239624,Tue Oct 08 2024 10:07:27 GMT-0500 (Central Daylight Time),173275.09999996424,A,cabinenter,O,enter,210,1,3398.300000011921,169876.79999995232,7020,WL,B,13.0
1,39.587000131607056,learn,20412.999868392944,Tue Oct 08 2024 10:07:27 GMT-0500 (Central Daylight Time),174425.0,A,w,O,w,1138,1,1149.5,173275.5,7020,WL,B,14.0
1,39.7039999961853,learn,20296.000003814697,Tue Oct 08 2024 10:07:27 GMT-0500 (Central Daylight Time),174541.5,A,wi,O,i,100,1,1266.0,173275.5,7020,WL,B,14.0
1,39.770999908447266,learn,20229.000091552734,Tue Oct 08 2024 10:07:27 GMT-0500 (Central Daylight Time),174608.19999998808,A,wif,O,f,56,1,1332.699999988079,173275.5,7020,WL,B,14.0
1,39.82100009918213,learn,20178.99990081787,Tue Oct 08 2024 10:07:27 GMT-0500 (Central Daylight Time),174658.09999996424,A,wife,O,e,45,1,1382.5999999642372,173275.5,7020,WL,B,14.0
1,39.9539999961853,learn,20046.000003814697,Tue Oct 08 2024 10:07:27 GMT-0500 (Central Daylight Time),174791.39999997616,A,wifeenter,O,enter,116,1,1515.8999999761581,173275.5,7020,WL,B,14.0
1,40.22000002861023,learn,19779.99997138977,Tue Oct 08 2024 10:07:27 GMT-0500 (Central Daylight Time),175058.0,A,s,O,s,254,1,266.2000000476837,174791.79999995232,7020,WL,B,15.0
1,40.354000091552734,learn,19645.999908447266,Tue Oct 08 2024 10:07:27 GMT-0500 (Central Daylight Time),175191.79999995232,A,st,O,t,123,1,400.0,174791.79999995232,7020,WL,B,15.0
1,40.50399994850159,learn,19496.000051498413,Tue Oct 08 2024 10:07:27 GMT-0500 (Central Daylight Time),175341.5,A,str,O,r,142,1,549.7000000476837,174791.79999995232,7020,WL,B,15.0
1,40.587000131607056,learn,19412.999868392944,Tue Oct 08 2024 10:07:27 GMT-0500 (Central Daylight Time),175424.59999996424,A,stre,O,e,72,1,632.8000000119209,174791.79999995232,7020,WL,B,15.0
1,40.75399994850159,learn,19246.000051498413,Tue Oct 08 2024 10:07:27 GMT-0500 (Central Daylight Time),175591.29999995232,A,stree,O,e,149,1,799.5,174791.79999995232,7020,WL,B,15.0
1,40.80399990081787,learn,19196.00009918213,Tue Oct 08 2024 10:07:27 GMT-0500 (Central Daylight Time),175641.19999998808,A,street,O,t,30,1,849.4000000357628,174791.79999995232,7020,WL,B,15.0
1,40.97000002861023,learn,19029.99997138977,Tue Oct 08 2024 10:07:27 GMT-0500 (Central Daylight Time),175807.89999997616,A,streetenter,O,enter,149,1,1016.1000000238419,174791.79999995232,7020,WL,B,15.0
2,0.567000150680542,learn,59432.99984931946,Tue Oct 08 2024 10:07:27 GMT-0500 (Central Daylight Time),274776.7999999523,A,s,O,s,548,1,566.1999999880791,274210.59999996424,7020,WL,B,1.0
2,0.75,learn,59250.0,Tue Oct 08 2024 10:07:27 GMT-0500 (Central Daylight Time),274959.89999997616,A,sk,O,k,164,1,749.3000000119209,274210.59999996424,7020,WL,B,1.0
2,1.0169999599456787,learn,58983.00004005432,Tue Oct 08 2024 10:07:27 GMT-0500 (Central Daylight Time),275226.5,A,ski,O,i,262,1,1015.9000000357628,274210.59999996424,7020,WL,B,1.0
2,1.067000150680542,learn,58932.99984931946,Tue Oct 08 2024 10:07:27 GMT-0500 (Central Daylight Time),275276.6999999881,A,skin,O,n,35,1,1066.1000000238419,274210.59999996424,7020,WL,B,1.0
2,2.3329999446868896,learn,57667.00005531311,Tue Oct 08 2024 10:07:27 GMT-0500 (Central Daylight Time),276543.0,A,skinenter,O,enter,1257,1,2332.400000035763,274210.59999996424,7020,WL,B,1.0
2,2.683000087738037,learn,57316.99991226196,Tue Oct 08 2024 10:07:27 GMT-0500 (Central Daylight Time),276892.89999997616,A,c,O,c,334,1,349.60000002384186,276543.2999999523,7020,WL,B,2.0
2,2.7660000324249268,learn,57233.99996757507,Tue Oct 08 2024 10:07:27 GMT-0500 (Central Daylight Time),276976.0,A,cl,O,l,65,1,432.7000000476837,276543.2999999523,7020,WL,B,2.0
2,3.133000135421753,learn,56866.99986457825,Tue Oct 08 2024 10:07:27 GMT-0500 (Central Daylight Time),277342.89999997616,A,clo,O,o,349,1,799.6000000238419,276543.2999999523,7020,WL,B,2.0
2,3.365999937057495,learn,56634.000062942505,Tue Oct 08 2024 10:07:27 GMT-0500 (Central Daylight Time),277576.09999996424,A,cloc,O,c,223,1,1032.800000011921,276543.2999999523,7020,WL,B,2.0
2,3.5490000247955322,learn,56450.99997520447,Tue Oct 08 2024 10:07:27 GMT-0500 (Central Daylight Time),277759.0,A,clock,O,k,161,1,1215.7000000476837,276543.2999999523,7020,WL,B,2.0
2,3.749000072479248,learn,56250.99992752075,Tue Oct 08 2024 10:07:27 GMT-0500 (Central Daylight Time),277958.7999999523,A,clockenter,O,enter,183,1,1415.5,276543.2999999523,7020,WL,B,2.0
2,4.315999984741211,learn,55684.00001525879,Tue Oct 08 2024 10:07:27 GMT-0500 (Central Daylight Time),278525.59999996424,A,p,O,p,550,1,566.5,277959.09999996424,7020,WL,B,3.0
2,4.582000017166138,learn,55417.99998283386,Tue Oct 08 2024 10:07:27 GMT-0500 (Central Daylight Time),278792.09999996424,A,pu,O,u,248,1,833.0,277959.09999996424,7020,WL,B,3.0
2,4.916000127792358,learn,55083.99987220764,Tue Oct 08 2024 10:07:27 GMT-0500 (Central Daylight Time),279125.39999997616,A,pup,O,p,317,1,1166.300000011921,277959.09999996424,7020,WL,B,3.0
2,5.117000102996826,learn,54882.999897003174,Tue Oct 08 2024 10:07:27 GMT-0500 (Central Daylight Time),279326.59999996424,A,pupi,O,i,192,1,1367.5,277959.09999996424,7020,WL,B,3.0
2,5.2820000648498535,learn,54717.99993515015,Tue Oct 08 2024 10:07:27 GMT-0500 (Central Daylight Time),279492.09999996424,A,pupil,O,l,151,1,1533.0,277959.09999996424,7020,WL,B,3.0
2,5.5320000648498535,learn,54467.99993515015,Tue Oct 08 2024 10:07:27 GMT-0500 (Central Daylight Time),279741.89999997616,A,pupilenter,O,enter,241,1,1782.800000011921,277959.09999996424,7020,WL,B,3.0
2,5.799000024795532,learn,54200.99997520447,Tue Oct 08 2024 10:07:27 GMT-0500 (Central Daylight Time),280008.6999999881,A,w,O,w,256,1,266.4000000357628,279742.2999999523,7020,WL,B,4.0
2,5.865000009536743,learn,54134.99999046326,Tue Oct 08 2024 10:07:27 GMT-0500 (Central Daylight Time),280075.1999999881,A,wi,O,i,53,1,332.9000000357628,279742.2999999523,7020,WL,B,4.0
2,5.982000112533569,learn,54017.99988746643,Tue Oct 08 2024 10:07:27 GMT-0500 (Central Daylight Time),280191.7999999523,A,wif,O,f,106,1,449.5,279742.2999999523,7020,WL,B,4.0
2,6.049000024795532,learn,53950.99997520447,Tue Oct 08 2024 10:07:27 GMT-0500 (Central Daylight Time),280258.59999996424,A,wife,O,e,54,1,516.3000000119209,279742.2999999523,7020,WL,B,4.0
2,6.232000112533569,learn,53767.99988746643,Tue Oct 08 2024 10:07:27 GMT-0500 (Central Daylight Time),280441.89999997616,A,wifeenter,O,enter,171,1,699.6000000238419,279742.2999999523,7020,WL,B,4.0
2,6.5329999923706055,learn,53467.000007629395,Tue Oct 08 2024 10:07:27 GMT-0500 (Central Daylight Time),280742.59999996424,A,s,O,s,284,1,300.39999997615814,280442.1999999881,7020,WL,B,5.0
2,6.664999961853027,learn,53335.00003814697,Tue Oct 08 2024 10:07:27 GMT-0500 (Central Daylight Time),280874.7999999523,A,st,O,t,127,1,432.5999999642372,280442.1999999881,7020,WL,B,5.0
2,6.8480000495910645,learn,53151.999950408936,Tue Oct 08 2024 10:07:27 GMT-0500 (Central Daylight Time),281058.1999999881,A,str,O,r,171,1,616.0,280442.1999999881,7020,WL,B,5.0
2,6.931999921798706,learn,53068.000078201294,Tue Oct 08 2024 10:07:27 GMT-0500 (Central Daylight Time),281141.5,A,stre,O,e,67,1,699.3000000119209,280442.1999999881,7020,WL,B,5.0
2,7.148000001907349,learn,52851.99999809265,Tue Oct 08 2024 10:07:27 GMT-0500 (Central Daylight Time),281358.1999999881,A,stree,O,e,200,1,916.0,280442.1999999881,7020,WL,B,5.0
2,7.232000112533569,learn,52767.99988746643,Tue Oct 08 2024 10:07:27 GMT-0500 (Central Daylight Time),281441.5,A,street,O,t,63,1,999.3000000119209,280442.1999999881,7020,WL,B,5.0
2,7.465000152587891,learn,52534.99984741211,Tue Oct 08 2024 10:07:27 GMT-0500 (Central Daylight Time),281674.5,A,streetenter,O,enter,220,1,1232.300000011921,280442.1999999881,7020,WL,B,5.0
2,7.681999921798706,learn,52318.000078201294,Tue Oct 08 2024 10:07:27 GMT-0500 (Central Daylight Time),281892.39999997616,A,g,O,g,211,1,217.69999998807907,281674.6999999881,7020,WL,B,6.0
2,7.865000009536743,learn,52134.99999046326,Tue Oct 08 2024 10:07:27 GMT-0500 (Central Daylight Time),282074.5,A,gr,O,r,177,1,399.80000001192093,281674.6999999881,7020,WL,B,6.0
2,7.965000152587891,learn,52034.99984741211,Tue Oct 08 2024 10:07:27 GMT-0500 (Central Daylight Time),282174.39999997616,A,gra,O,a,83,1,499.69999998807907,281674.6999999881,7020,WL,B,6.0
2,8.29800009727478,learn,51701.99990272522,Tue Oct 08 2024 10:07:27 GMT-0500 (Central Daylight Time),282507.7999999523,A,gras,O,s,327,1,833.0999999642372,281674.6999999881,7020,WL,B,6.0
2,8.46500015258789,learn,51534.99984741211,Tue Oct 08 2024 10:07:27 GMT-0500 (Central Daylight Time),282674.39999997616,A,grass,O,s,162,1,999.6999999880791,281674.6999999881,7020,WL,B,6.0
2,8.864000082015991,learn,51135.99991798401,Tue Oct 08 2024 10:07:27 GMT-0500 (Central Daylight Time),283074.2999999523,A,grassenter,O,enter,396,1,1399.5999999642372,281674.6999999881,7020,WL,B,6.0
2,9.115000009536743,learn,50884.99999046326,Tue Oct 08 2024 10:07:27 GMT-0500 (Central Daylight Time),283325.2999999523,A,s,O,s,235,1,250.69999998807907,283074.59999996424,7020,WL,B,7.0
2,9.230999946594238,learn,50769.00005340576,Tue Oct 08 2024 10:07:27 GMT-0500 (Central Daylight Time),283440.7999999523,A,st,O,t,96,1,366.19999998807907,283074.59999996424,7020,WL,B,7.0
2,9.314000129699707,learn,50685.99987030029,Tue Oct 08 2024 10:07:27 GMT-0500 (Central Daylight Time),283524.0,A,sto,O,o,69,1,449.4000000357628,283074.59999996424,7020,WL,B,7.0
2,9.44700002670288,learn,50552.99997329712,Tue Oct 08 2024 10:07:27 GMT-0500 (Central Daylight Time),283657.39999997616,A,stor,O,r,114,1,582.8000000119209,283074.59999996424,7020,WL,B,7.0
2,9.496999979019165,learn,50503.000020980835,Tue Oct 08 2024 10:07:27 GMT-0500 (Central Daylight Time),283707.09999996424,A,store,O,e,36,1,632.5,283074.59999996424,7020,WL,B,7.0
2,9.664000034332275,learn,50335.999965667725,Tue Oct 08 2024 10:07:27 GMT-0500 (Central Daylight Time),283873.89999997616,A,storeenter,O,enter,155,1,799.3000000119209,283074.59999996424,7020,WL,B,7.0
2,9.94700002670288,learn,50052.99997329712,Tue Oct 08 2024 10:07:27 GMT-0500 (Central Daylight Time),284157.2999999523,A,a,O,a,268,1,283.0,283874.2999999523,7020,WL,B,8.0
2,10.013999938964844,learn,49986.000061035156,Tue Oct 08 2024 10:07:27 GMT-0500 (Central Daylight Time),284223.7999999523,A,ar,O,r,48,1,349.5,283874.2999999523,7020,WL,B,8.0
2,10.147000074386597,learn,49852.9999256134,Tue Oct 08 2024 10:07:27 GMT-0500 (Central Daylight Time),284357.09999996424,A,arm,O,m,126,1,482.80000001192093,283874.2999999523,7020,WL,B,8.0
2,10.46500015258789,learn,49534.99984741211,Tue Oct 08 2024 10:07:27 GMT-0500 (Central Daylight Time),284674.5,A,armenter,O,enter,313,1,800.2000000476837,283874.2999999523,7020,WL,B,8.0
2,12.781000137329102,learn,47218.9998626709,Tue Oct 08 2024 10:07:27 GMT-0500 (Central Daylight Time),286990.89999997616,A,w,O,w,2307,1,2316.199999988079,284674.6999999881,7020,WL,B,9.0
2,12.896000146865845,learn,47103.999853134155,Tue Oct 08 2024 10:07:27 GMT-0500 (Central Daylight Time),287106.1999999881,A,wi,O,i,110,1,2431.5,284674.6999999881,7020,WL,B,9.0
2,12.979000091552734,learn,47020.999908447266,Tue Oct 08 2024 10:07:27 GMT-0500 (Central Daylight Time),287189.2999999523,A,wif,O,f,76,1,2514.599999964237,284674.6999999881,7020,WL,B,9.0
2,13.062999963760376,learn,46937.000036239624,Tue Oct 08 2024 10:07:27 GMT-0500 (Central Daylight Time),287273.0,A,wife,O,e,64,1,2598.300000011921,284674.6999999881,7020,WL,B,9.0
2,13.230000019073486,learn,46769.999980926514,Tue Oct 08 2024 10:07:27 GMT-0500 (Central Daylight Time),287439.5,A,wifeenter,O,enter,148,1,2764.800000011921,284674.6999999881,7020,WL,B,9.0
2,13.595999956130981,learn,46404.00004386902,Tue Oct 08 2024 10:07:27 GMT-0500 (Central Daylight Time),287806.09999996424,A,p,O,p,358,1,366.30000001192093,287439.7999999523,7020,WL,B,10.0
2,13.845999956130981,learn,46154.00004386902,Tue Oct 08 2024 10:07:27 GMT-0500 (Central Daylight Time),288056.09999996424,A,pu,O,u,231,1,616.3000000119209,287439.7999999523,7020,WL,B,10.0
2,13.86300015449524,learn,46136.99984550476,Tue Oct 08 2024 10:07:27 GMT-0500 (Central Daylight Time),288072.6999999881,A,pup,O,p,5,1,632.9000000357628,287439.7999999523,7020,WL,B,10.0
2,14.246000051498413,learn,45753.99994850159,Tue Oct 08 2024 10:07:27 GMT-0500 (Central Daylight Time),288455.89999997616,A,pupi,O,i,365,1,1016.1000000238419,287439.7999999523,7020,WL,B,10.0
2,14.446000099182129,learn,45553.99990081787,Tue Oct 08 2024 10:07:27 GMT-0500 (Central Daylight Time),288655.7999999523,A,pupil,O,l,182,1,1216.0,287439.7999999523,7020,WL,B,10.0
2,14.76200008392334,learn,45237.99991607666,Tue Oct 08 2024 10:07:27 GMT-0500 (Central Daylight Time),288972.2999999523,A,pupilenter,O,enter,302,1,1532.5,287439.7999999523,7020,WL,B,10.0
2,16.727999925613403,learn,43272.0000743866,Tue Oct 08 2024 10:07:27 GMT-0500 (Central Daylight Time),290938.2999999523,A,f,O,f,1961,1,1965.5999999642372,288972.6999999881,7020,WL,B,11.0
2,16.84500002861023,learn,43154.99997138977,Tue Oct 08 2024 10:07:27 GMT-0500 (Central Daylight Time),291055.09999996424,A,fi,O,i,99,1,2082.399999976158,288972.6999999881,7020,WL,B,11.0
2,16.944999933242798,learn,43055.0000667572,Tue Oct 08 2024 10:07:27 GMT-0500 (Central Daylight Time),291155.09999996424,A,fir,O,r,87,1,2182.399999976158,288972.6999999881,7020,WL,B,11.0
2,17.045000076293945,learn,42954.999923706055,Tue Oct 08 2024 10:07:27 GMT-0500 (Central Daylight Time),291255.09999996424,A,fire,O,e,90,1,2282.399999976158,288972.6999999881,7020,WL,B,11.0
2,17.17799997329712,learn,42822.00002670288,Tue Oct 08 2024 10:07:27 GMT-0500 (Central Daylight Time),291388.2999999523,A,fireenter,O,enter,119,1,2415.599999964237,288972.6999999881,7020,WL,B,11.0
2,17.545000076293945,learn,42454.999923706055,Tue Oct 08 2024 10:07:27 GMT-0500 (Central Daylight Time),291754.7999999523,A,l,O,l,361,1,366.0999999642372,291388.6999999881,7020,WL,B,12.0
2,17.644999980926514,learn,42355.000019073486,Tue Oct 08 2024 10:07:27 GMT-0500 (Central Daylight Time),291854.89999997616,A,la,O,a,83,1,466.19999998807907,291388.6999999881,7020,WL,B,12.0
2,17.746000051498413,learn,42253.99994850159,Tue Oct 08 2024 10:07:27 GMT-0500 (Central Daylight Time),291955.59999996424,A,lak,O,k,95,1,566.8999999761581,291388.6999999881,7020,WL,B,12.0
2,17.811000108718872,learn,42188.99989128113,Tue Oct 08 2024 10:07:27 GMT-0500 (Central Daylight Time),292021.39999997616,A,lake,O,e,58,1,632.6999999880791,291388.6999999881,7020,WL,B,12.0
2,18.01099991798401,learn,41989.00008201599,Tue Oct 08 2024 10:07:27 GMT-0500 (Central Daylight Time),292221.1999999881,A,lakeenter,O,enter,184,1,832.5,291388.6999999881,7020,WL,B,12.0
2,18.295000076293945,learn,41704.999923706055,Tue Oct 08 2024 10:07:27 GMT-0500 (Central Daylight Time),292504.5,A,c,O,c,265,1,283.0,292221.5,7020,WL,B,13.0
2,18.34500002861023,learn,41654.99997138977,Tue Oct 08 2024 10:07:27 GMT-0500 (Central Daylight Time),292554.6999999881,A,ca,O,a,30,1,333.19999998807907,292221.5,7020,WL,B,13.0
2,18.59500002861023,learn,41404.99997138977,Tue Oct 08 2024 10:07:27 GMT-0500 (Central Daylight Time),292804.5,A,cab,O,b,243,1,583.0,292221.5,7020,WL,B,13.0
2,18.67799997329712,learn,41322.00002670288,Tue Oct 08 2024 10:07:27 GMT-0500 (Central Daylight Time),292888.09999996424,A,cabi,O,i,65,1,666.5999999642372,292221.5,7020,WL,B,13.0
2,18.74500012397766,learn,41254.99987602234,Tue Oct 08 2024 10:07:27 GMT-0500 (Central Daylight Time),292954.6999999881,A,cabin,O,n,53,1,733.1999999880791,292221.5,7020,WL,B,13.0
2,19.07800006866455,learn,40921.99993133545,Tue Oct 08 2024 10:07:27 GMT-0500 (Central Daylight Time),293287.6999999881,A,cabinenter,O,enter,323,1,1066.199999988079,292221.5,7020,WL,B,13.0
2,25.108999967575073,learn,34891.00003242493,Tue Oct 08 2024 10:07:27 GMT-0500 (Central Daylight Time),299319.1999999881,A,c,O,c,6022,1,6031.0,293288.1999999881,7020,WL,B,14.0
2,25.192000150680542,learn,34807.99984931946,Tue Oct 08 2024 10:07:27 GMT-0500 (Central Daylight Time),299402.2999999523,A,ci,O,i,78,1,6114.099999964237,293288.1999999881,7020,WL,B,14.0
2,25.358999967575073,learn,34641.00003242493,Tue Oct 08 2024 10:07:27 GMT-0500 (Central Daylight Time),299569.0,A,cit,O,t,148,1,6280.800000011921,293288.1999999881,7020,WL,B,14.0
2,25.442000150680542,learn,34557.99984931946,Tue Oct 08 2024 10:07:27 GMT-0500 (Central Daylight Time),299652.2999999523,A,city,O,y,68,1,6364.099999964237,293288.1999999881,7020,WL,B,14.0
2,25.77500009536743,learn,34224.99990463257,Tue Oct 08 2024 10:07:27 GMT-0500 (Central Daylight Time),299985.1999999881,A,cityenter,O,enter,321,1,6697.0,293288.1999999881,7020,WL,B,14.0
2,52.51699995994568,learn,7483.000040054321,Tue Oct 08 2024 10:07:27 GMT-0500 (Central Daylight Time),326727.2999999523,A,enter,O,enter,26732,1,26741.899999976158,299985.39999997616,7020,WL,B,15.0
3,0.432999849319458,learn,59567.00015068054,Tue Oct 08 2024 10:07:27 GMT-0500 (Central Daylight Time),396905.09999996424,A,s,O,s,422,1,432.89999997615814,396472.1999999881,7020,WL,B,1.0
3,0.6489999294281006,learn,59351.0000705719,Tue Oct 08 2024 10:07:27 GMT-0500 (Central Daylight Time),397121.6999999881,A,st,O,t,196,1,649.5,396472.1999999881,7020,WL,B,1.0
3,0.9159998893737793,learn,59084.00011062622,Tue Oct 08 2024 10:07:27 GMT-0500 (Central Daylight Time),397388.39999997616,A,str,O,r,252,1,916.1999999880791,396472.1999999881,7020,WL,B,1.0
3,0.9830000400543213,learn,59016.99995994568,Tue Oct 08 2024 10:07:27 GMT-0500 (Central Daylight Time),397455.0,A,stre,O,e,49,1,982.8000000119209,396472.1999999881,7020,WL,B,1.0
3,1.182999849319458,learn,58817.00015068054,Tue Oct 08 2024 10:07:27 GMT-0500 (Central Daylight Time),397655.09999996424,A,stree,O,e,182,1,1182.8999999761581,396472.1999999881,7020,WL,B,1.0
3,1.2660000324249268,learn,58733.99996757507,Tue Oct 08 2024 10:07:27 GMT-0500 (Central Daylight Time),397738.2999999523,A,street,O,t,78,1,1266.0999999642372,396472.1999999881,7020,WL,B,1.0
3,1.682999849319458,learn,58317.00015068054,Tue Oct 08 2024 10:07:27 GMT-0500 (Central Daylight Time),398154.7999999523,A,streetenter,O,enter,403,1,1682.5999999642372,396472.1999999881,7020,WL,B,1.0
3,1.9659998416900635,learn,58034.00015830994,Tue Oct 08 2024 10:07:27 GMT-0500 (Central Daylight Time),398438.09999996424,A,g,O,g,267,1,283.0,398155.09999996424,7020,WL,B,2.0
3,2.1499998569488525,learn,57850.00014305115,Tue Oct 08 2024 10:07:27 GMT-0500 (Central Daylight Time),398622.5,A,gr,O,r,175,1,467.4000000357628,398155.09999996424,7020,WL,B,2.0
3,2.2660000324249268,learn,57733.99996757507,Tue Oct 08 2024 10:07:27 GMT-0500 (Central Daylight Time),398737.89999997616,A,gra,O,a,103,1,582.8000000119209,398155.09999996424,7020,WL,B,2.0
3,2.4489998817443848,learn,57551.000118255615,Tue Oct 08 2024 10:07:27 GMT-0500 (Central Daylight Time),398921.39999997616,A,gras,O,s,172,1,766.3000000119209,398155.09999996424,7020,WL,B,2.0
3,2.615999937057495,learn,57384.000062942505,Tue Oct 08 2024 10:07:27 GMT-0500 (Central Daylight Time),399087.89999997616,A,grass,O,s,148,1,932.8000000119209,398155.09999996424,7020,WL,B,2.0
3,2.865999937057495,learn,57134.000062942505,Tue Oct 08 2024 10:07:27 GMT-0500 (Central Daylight Time),399337.7999999523,A,grassenter,O,enter,238,1,1182.699999988079,398155.09999996424,7020,WL,B,2.0
3,3.115999937057495,learn,56884.000062942505,Tue Oct 08 2024 10:07:27 GMT-0500 (Central Daylight Time),399587.6999999881,A,d,O,d,236,1,249.5,399338.1999999881,7020,WL,B,3.0
3,3.248999834060669,learn,56751.00016593933,Tue Oct 08 2024 10:07:27 GMT-0500 (Central Daylight Time),399721.0,A,do,O,o,122,1,382.80000001192093,399338.1999999881,7020,WL,B,3.0
3,3.381999969482422,learn,56618.00003051758,Tue Oct 08 2024 10:07:27 GMT-0500 (Central Daylight Time),399854.39999997616,A,doo,O,o,125,1,516.1999999880791,399338.1999999881,7020,WL,B,3.0
3,3.4819998741149902,learn,56518.00012588501,Tue Oct 08 2024 10:07:27 GMT-0500 (Central Daylight Time),399954.09999996424,A,door,O,r,79,1,615.8999999761581,399338.1999999881,7020,WL,B,3.0
3,3.7149999141693115,learn,56285.00008583069,Tue Oct 08 2024 10:07:27 GMT-0500 (Central Daylight Time),400187.1999999881,A,doorenter,O,enter,228,1,849.0,399338.1999999881,7020,WL,B,3.0
3,4.047999858856201,learn,55952.0001411438,Tue Oct 08 2024 10:07:27 GMT-0500 (Central Daylight Time),400520.6999999881,A,a,O,a,315,1,333.19999998807907,400187.5,7020,WL,B,4.0
3,4.131999969482422,learn,55868.00003051758,Tue Oct 08 2024 10:07:27 GMT-0500 (Central Daylight Time),400604.09999996424,A,ar,O,r,69,1,416.5999999642372,400187.5,7020,WL,B,4.0
3,4.2820000648498535,learn,55717.99993515015,Tue Oct 08 2024 10:07:27 GMT-0500 (Central Daylight Time),400754.09999996424,A,arm,O,m,138,1,566.5999999642372,400187.5,7020,WL,B,4.0
3,4.5980000495910645,learn,55401.999950408936,Tue Oct 08 2024 10:07:27 GMT-0500 (Central Daylight Time),401070.6999999881,A,armenter,O,enter,308,1,883.1999999880791,400187.5,7020,WL,B,4.0
3,5.381999969482422,learn,54618.00003051758,Tue Oct 08 2024 10:07:27 GMT-0500 (Central Daylight Time),401853.6999999881,A,w,O,w,775,1,782.8000000119209,401070.89999997616,7020,WL,B,5.0
3,5.497999906539917,learn,54502.00009346008,Tue Oct 08 2024 10:07:27 GMT-0500 (Central Daylight Time),401970.5,A,wi,O,i,112,1,899.6000000238419,401070.89999997616,7020,WL,B,5.0
3,5.5980000495910645,learn,54401.999950408936,Tue Oct 08 2024 10:07:27 GMT-0500 (Central Daylight Time),402070.1999999881,A,wif,O,f,83,1,999.3000000119209,401070.89999997616,7020,WL,B,5.0
3,5.681999921798706,learn,54318.000078201294,Tue Oct 08 2024 10:07:27 GMT-0500 (Central Daylight Time),402153.7999999523,A,wife,O,e,63,1,1082.8999999761581,401070.89999997616,7020,WL,B,5.0
3,5.830999851226807,learn,54169.00014877319,Tue Oct 08 2024 10:07:27 GMT-0500 (Central Daylight Time),402303.5,A,wifeenter,O,enter,140,1,1232.6000000238419,401070.89999997616,7020,WL,B,5.0
3,6.115000009536743,learn,53884.99999046326,Tue Oct 08 2024 10:07:27 GMT-0500 (Central Daylight Time),402586.7999999523,A,f,O,f,270,1,283.0,402303.7999999523,7020,WL,B,6.0
3,6.197999954223633,learn,53802.00004577637,Tue Oct 08 2024 10:07:27 GMT-0500 (Central Daylight Time),402670.0,A,fi,O,i,75,1,366.2000000476837,402303.7999999523,7020,WL,B,6.0
3,6.330999851226807,learn,53669.00014877319,Tue Oct 08 2024 10:07:27 GMT-0500 (Central Daylight Time),402803.5,A,fir,O,r,128,1,499.7000000476837,402303.7999999523,7020,WL,B,6.0
3,6.947999954223633,learn,53052.00004577637,Tue Oct 08 2024 10:07:27 GMT-0500 (Central Daylight Time),403419.89999997616,A,fire,O,e,602,1,1116.1000000238419,402303.7999999523,7020,WL,B,6.0
3,7.3480000495910645,learn,52651.999950408936,Tue Oct 08 2024 10:07:27 GMT-0500 (Central Daylight Time),403819.6999999881,A,fireenter,O,enter,386,1,1515.9000000357628,402303.7999999523,7020,WL,B,6.0
3,7.63100004196167,learn,52368.99995803833,Tue Oct 08 2024 10:07:27 GMT-0500 (Central Daylight Time),404102.6999999881,A,p,O,p,274,1,282.69999998807907,403820.0,7020,WL,B,7.0
3,7.7809998989105225,learn,52219.00010108948,Tue Oct 08 2024 10:07:27 GMT-0500 (Central Daylight Time),404253.5,A,pu,O,u,143,1,433.5,403820.0,7020,WL,B,7.0
3,7.947000026702881,learn,52052.99997329712,Tue Oct 08 2024 10:07:27 GMT-0500 (Central Daylight Time),404419.5,A,pup,O,p,152,1,599.5,403820.0,7020,WL,B,7.0
3,8.230999946594238,learn,51769.00005340576,Tue Oct 08 2024 10:07:27 GMT-0500 (Central Daylight Time),404702.7999999523,A,pupi,O,i,266,1,882.7999999523163,403820.0,7020,WL,B,7.0
3,8.44700002670288,learn,51552.99997329712,Tue Oct 08 2024 10:07:27 GMT-0500 (Central Daylight Time),404919.1999999881,A,pupil,O,l,207,1,1099.199999988079,403820.0,7020,WL,B,7.0
3,8.71399998664856,learn,51286.00001335144,Tue Oct 08 2024 10:07:27 GMT-0500 (Central Daylight Time),405186.0,A,pupilenter,O,enter,254,1,1366.0,403820.0,7020,WL,B,7.0
3,9.29699993133545,learn,50703.00006866455,Tue Oct 08 2024 10:07:27 GMT-0500 (Central Daylight Time),405769.09999996424,A,p,O,p,572,1,582.8000000119209,405186.2999999523,7020,WL,B,8.0
3,9.379999876022339,learn,50620.00012397766,Tue Oct 08 2024 10:07:27 GMT-0500 (Central Daylight Time),405852.5,A,pi,O,i,77,1,666.2000000476837,405186.2999999523,7020,WL,B,8.0
3,9.646999835968018,learn,50353.00016403198,Tue Oct 08 2024 10:07:27 GMT-0500 (Central Daylight Time),406119.0,A,pip,O,p,249,1,932.7000000476837,405186.2999999523,7020,WL,B,8.0
3,9.963000059127808,learn,50036.99994087219,Tue Oct 08 2024 10:07:27 GMT-0500 (Central Daylight Time),406435.5,A,pipe,O,e,303,1,1249.2000000476837,405186.2999999523,7020,WL,B,8.0
3,10.230000019073486,learn,49769.999980926514,Tue Oct 08 2024 10:07:27 GMT-0500 (Central Daylight Time),406702.0,A,pipeenter,O,enter,250,1,1515.7000000476837,405186.2999999523,7020,WL,B,8.0
3,10.54699993133545,learn,49453.00006866455,Tue Oct 08 2024 10:07:27 GMT-0500 (Central Daylight Time),407018.6999999881,A,c,O,c,295,1,316.30000001192093,406702.39999997616,7020,WL,B,9.0
3,10.61299991607666,learn,49387.00008392334,Tue Oct 08 2024 10:07:27 GMT-0500 (Central Daylight Time),407085.5,A,cl,O,l,51,1,383.10000002384186,406702.39999997616,7020,WL,B,9.0
3,10.812999963760376,learn,49187.000036239624,Tue Oct 08 2024 10:07:27 GMT-0500 (Central Daylight Time),407285.1999999881,A,clo,O,o,192,1,582.8000000119209,406702.39999997616,7020,WL,B,9.0
3,10.896999835968018,learn,49103.00016403198,Tue Oct 08 2024 10:07:27 GMT-0500 (Central Daylight Time),407368.6999999881,A,cloc,O,c,64,1,666.3000000119209,406702.39999997616,7020,WL,B,9.0
3,11.013000011444092,learn,48986.99998855591,Tue Oct 08 2024 10:07:27 GMT-0500 (Central Daylight Time),407485.39999997616,A,clock,O,k,109,1,783.0,406702.39999997616,7020,WL,B,9.0
3,11.27999997138977,learn,48720.00002861023,Tue Oct 08 2024 10:07:27 GMT-0500 (Central Daylight Time),407752.0,A,clockenter,O,enter,256,1,1049.6000000238419,406702.39999997616,7020,WL,B,9.0
3,11.562999963760376,learn,48437.000036239624,Tue Oct 08 2024 10:07:27 GMT-0500 (Central Daylight Time),408035.09999996424,A,l,O,l,270,1,282.80000001192093,407752.2999999523,7020,WL,B,10.0
3,11.680000066757202,learn,48319.9999332428,Tue Oct 08 2024 10:07:27 GMT-0500 (Central Daylight Time),408151.6999999881,A,la,O,a,106,1,399.4000000357628,407752.2999999523,7020,WL,B,10.0
3,11.779000043869019,learn,48220.99995613098,Tue Oct 08 2024 10:07:27 GMT-0500 (Central Daylight Time),408251.39999997616,A,lak,O,k,94,1,499.10000002384186,407752.2999999523,7020,WL,B,10.0
3,11.86299991607666,learn,48137.00008392334,Tue Oct 08 2024 10:07:27 GMT-0500 (Central Daylight Time),408334.89999997616,A,lake,O,e,66,1,582.6000000238419,407752.2999999523,7020,WL,B,10.0
3,12.046000003814697,learn,47953.9999961853,Tue Oct 08 2024 10:07:27 GMT-0500 (Central Daylight Time),408518.2999999523,A,lakeenter,O,enter,166,1,766.0,407752.2999999523,7020,WL,B,10.0
3,12.296000003814697,learn,47703.9999961853,Tue Oct 08 2024 10:07:27 GMT-0500 (Central Daylight Time),408768.0,A,c,O,c,239,1,249.30000001192093,408518.6999999881,7020,WL,B,11.0
3,12.379999876022339,learn,47620.00012397766,Tue Oct 08 2024 10:07:27 GMT-0500 (Central Daylight Time),408852.5,A,ca,O,a,78,1,333.80000001192093,408518.6999999881,7020,WL,B,11.0
3,12.595999956130981,learn,47404.00004386902,Tue Oct 08 2024 10:07:27 GMT-0500 (Central Daylight Time),409068.0,A,cab,O,b,201,1,549.3000000119209,408518.6999999881,7020,WL,B,11.0
3,12.678999900817871,learn,47321.00009918213,Tue Oct 08 2024 10:07:27 GMT-0500 (Central Daylight Time),409151.2999999523,A,cabi,O,i,74,1,632.5999999642372,408518.6999999881,7020,WL,B,11.0
3,12.728999853134155,learn,47271.000146865845,Tue Oct 08 2024 10:07:27 GMT-0500 (Central Daylight Time),409201.39999997616,A,cabin,O,n,39,1,682.6999999880791,408518.6999999881,7020,WL,B,11.0
3,13.111999988555908,learn,46888.00001144409,Tue Oct 08 2024 10:07:27 GMT-0500 (Central Daylight Time),409584.59999996424,A,cabinenter,O,enter,364,1,1065.8999999761581,408518.6999999881,7020,WL,B,11.0
3,14.294999837875366,learn,45705.000162124634,Tue Oct 08 2024 10:07:27 GMT-0500 (Central Daylight Time),410767.59999996424,A,f,O,f,1173,1,1182.800000011921,409584.7999999523,7020,WL,B,12.0
3,14.411999940872192,learn,45588.00005912781,Tue Oct 08 2024 10:07:27 GMT-0500 (Central Daylight Time),410884.09999996424,A,fi,O,i,110,1,1299.300000011921,409584.7999999523,7020,WL,B,12.0
3,14.562000036239624,learn,45437.999963760376,Tue Oct 08 2024 10:07:27 GMT-0500 (Central Daylight Time),411034.09999996424,A,fir,O,r,130,1,1449.300000011921,409584.7999999523,7020,WL,B,12.0
3,14.628999948501587,learn,45371.00005149841,Tue Oct 08 2024 10:07:27 GMT-0500 (Central Daylight Time),411100.7999999523,A,fire,O,e,51,1,1516.0,409584.7999999523,7020,WL,B,12.0
3,15.461999893188477,learn,44538.00010681152,Tue Oct 08 2024 10:07:27 GMT-0500 (Central Daylight Time),411933.89999997616,A,fireenter,O,enter,825,1,2349.100000023842,409584.7999999523,7020,WL,B,12.0
3,16.111000061035156,learn,43888.999938964844,Tue Oct 08 2024 10:07:27 GMT-0500 (Central Daylight Time),412583.59999996424,A,s,O,s,640,1,649.3999999761581,411934.1999999881,7020,WL,B,13.0
3,16.277999877929688,learn,43722.00012207031,Tue Oct 08 2024 10:07:27 GMT-0500 (Central Daylight Time),412750.09999996424,A,st,O,t,150,1,815.8999999761581,411934.1999999881,7020,WL,B,13.0
3,16.378000020980835,learn,43621.999979019165,Tue Oct 08 2024 10:07:27 GMT-0500 (Central Daylight Time),412850.1999999881,A,sta,O,a,96,1,916.0,411934.1999999881,7020,WL,B,13.0
3,16.460999965667725,learn,43539.000034332275,Tue Oct 08 2024 10:07:27 GMT-0500 (Central Daylight Time),412933.5,A,star,O,r,68,1,999.3000000119209,411934.1999999881,7020,WL,B,13.0
3,16.994999885559082,learn,43005.00011444092,Tue Oct 08 2024 10:07:27 GMT-0500 (Central Daylight Time),413466.7999999523,A,starenter,O,enter,512,1,1532.5999999642372,411934.1999999881,7020,WL,B,13.0
3,17.91100001335144,learn,42088.99998664856,Tue Oct 08 2024 10:07:27 GMT-0500 (Central Daylight Time),414383.09999996424,A,d,O,d,899,1,915.8999999761581,413467.1999999881,7020,WL,B,14.0
3,18.126999855041504,learn,41873.000144958496,Tue Oct 08 2024 10:07:27 GMT-0500 (Central Daylight Time),414599.6999999881,A,do,O,o,199,1,1132.5,413467.1999999881,7020,WL,B,14.0
3,18.276999950408936,learn,41723.000049591064,Tue Oct 08 2024 10:07:27 GMT-0500 (Central Daylight Time),414749.5,A,doo,O,o,142,1,1282.300000011921,413467.1999999881,7020,WL,B,14.0
3,18.41100001335144,learn,41588.99998664856,Tue Oct 08 2024 10:07:27 GMT-0500 (Central Daylight Time),414883.09999996424,A,door,O,r,120,1,1415.8999999761581,413467.1999999881,7020,WL,B,14.0
3,18.611999988555908,learn,41388.00001144409,Tue Oct 08 2024 10:07:27 GMT-0500 (Central Daylight Time),415084.0,A,doorenter,O,enter,194,1,1616.800000011921,413467.1999999881,7020,WL,B,14.0
3,18.961999893188477,learn,41038.00010681152,Tue Oct 08 2024 10:07:27 GMT-0500 (Central Daylight Time),415434.0,A,w,O,w,337,1,349.7000000476837,415084.2999999523,7020,WL,B,15.0
3,19.009999990463257,learn,40990.00000953674,Tue Oct 08 2024 10:07:27 GMT-0500 (Central Daylight Time),415482.59999996424,A,wi,O,i,43,1,398.30000001192093,415084.2999999523,7020,WL,B,15.0
3,19.07699990272522,learn,40923.00009727478,Tue Oct 08 2024 10:07:27 GMT-0500 (Central Daylight Time),415549.2999999523,A,win,O,n,59,1,465.0,415084.2999999523,7020,WL,B,15.0
3,19.177000045776367,learn,40822.99995422363,Tue Oct 08 2024 10:07:27 GMT-0500 (Central Daylight Time),415649.2999999523,A,wind,O,d,81,1,565.0,415084.2999999523,7020,WL,B,15.0
3,19.293999910354614,learn,40706.000089645386,Tue Oct 08 2024 10:07:27 GMT-0500 (Central Daylight Time),415766.0,A,windo,O,o,100,1,681.7000000476837,415084.2999999523,7020,WL,B,15.0
3,19.376999855041504,learn,40623.000144958496,Tue Oct 08 2024 10:07:27 GMT-0500 (Central Daylight Time),415849.2999999523,A,window,O,w,63,1,765.0,415084.2999999523,7020,WL,B,15.0
3,19.65999984741211,learn,40340.00015258789,Tue Oct 08 2024 10:07:27 GMT-0500 (Central Daylight Time),416132.5,A,windowenter,O,enter,268,1,1048.2000000476837,415084.2999999523,7020,WL,B,15.0
4,0.5169999599456787,learn,59483.00004005432,Tue Oct 08 2024 10:07:27 GMT-0500 (Central Daylight Time),483911.5,A,s,O,s,508,1,516.8000000119209,483394.6999999881,7020,WL,B,1.0
4,0.6329998970031738,learn,59367.000102996826,Tue Oct 08 2024 10:07:27 GMT-0500 (Central Daylight Time),484027.89999997616,A,sk,O,k,102,1,633.1999999880791,483394.6999999881,7020,WL,B,1.0
4,0.8659999370574951,learn,59134.000062942505,Tue Oct 08 2024 10:07:27 GMT-0500 (Central Daylight Time),484261.0,A,ski,O,i,218,1,866.3000000119209,483394.6999999881,7020,WL,B,1.0
4,0.9170000553131104,learn,59082.99994468689,Tue Oct 08 2024 10:07:27 GMT-0500 (Central Daylight Time),484312.0,A,skin,O,n,41,1,917.3000000119209,483394.6999999881,7020,WL,B,1.0
4,3.0490000247955322,learn,56950.99997520447,Tue Oct 08 2024 10:07:27 GMT-0500 (Central Daylight Time),486443.89999997616,A,skinenter,O,enter,2125,1,3049.199999988079,483394.6999999881,7020,WL,B,1.0
4,3.5829999446868896,learn,56417.00005531311,Tue Oct 08 2024 10:07:27 GMT-0500 (Central Daylight Time),486977.2999999523,A,w,O,w,522,1,533.0999999642372,486444.1999999881,7020,WL,B,2.0
4,3.6989998817443848,learn,56301.000118255615,Tue Oct 08 2024 10:07:27 GMT-0500 (Central Daylight Time),487093.59999996424,A,wi,O,i,100,1,649.3999999761581,486444.1999999881,7020,WL,B,2.0
4,3.7820000648498535,learn,56217.99993515015,Tue Oct 08 2024 10:07:27 GMT-0500 (Central Daylight Time),487177.0,A,wif,O,f,72,1,732.8000000119209,486444.1999999881,7020,WL,B,2.0
4,3.881999969482422,learn,56118.00003051758,Tue Oct 08 2024 10:07:27 GMT-0500 (Central Daylight Time),487276.89999997616,A,wife,O,e,93,1,832.6999999880791,486444.1999999881,7020,WL,B,2.0
4,3.9819998741149902,learn,56018.00012588501,Tue Oct 08 2024 10:07:27 GMT-0500 (Central Daylight Time),487376.89999997616,A,wifeenter,O,enter,89,1,932.6999999880791,486444.1999999881,7020,WL,B,2.0
4,4.2149999141693115,learn,55785.00008583069,Tue Oct 08 2024 10:07:27 GMT-0500 (Central Daylight Time),487610.09999996424,A,c,O,c,221,1,232.89999997615814,487377.1999999881,7020,WL,B,3.0
4,4.348999977111816,learn,55651.00002288818,Tue Oct 08 2024 10:07:27 GMT-0500 (Central Daylight Time),487743.59999996424,A,cl,O,l,124,1,366.39999997615814,487377.1999999881,7020,WL,B,3.0
4,4.565000057220459,learn,55434.99994277954,Tue Oct 08 2024 10:07:27 GMT-0500 (Central Daylight Time),487960.0,A,clo,O,o,206,1,582.8000000119209,487377.1999999881,7020,WL,B,3.0
4,4.73199987411499,learn,55268.00012588501,Tue Oct 08 2024 10:07:27 GMT-0500 (Central Daylight Time),488126.59999996424,A,cloc,O,c,157,1,749.3999999761581,487377.1999999881,7020,WL,B,3.0
4,4.881999969482422,learn,55118.00003051758,Tue Oct 08 2024 10:07:27 GMT-0500 (Central Daylight Time),488276.5,A,clock,O,k,143,1,899.3000000119209,487377.1999999881,7020,WL,B,3.0
4,5.164999961853027,learn,54835.00003814697,Tue Oct 08 2024 10:07:27 GMT-0500 (Central Daylight Time),488560.09999996424,A,clockenter,O,enter,265,1,1182.8999999761581,487377.1999999881,7020,WL,B,3.0
4,5.431999921798706,learn,54568.000078201294,Tue Oct 08 2024 10:07:27 GMT-0500 (Central Daylight Time),488826.2999999523,A,l,O,l,245,1,265.89999997615814,488560.39999997616,7020,WL,B,4.0
4,5.514999866485596,learn,54485.000133514404,Tue Oct 08 2024 10:07:27 GMT-0500 (Central Daylight Time),488909.59999996424,A,la,O,a,76,1,349.19999998807907,488560.39999997616,7020,WL,B,4.0
4,5.615000009536743,learn,54384.99999046326,Tue Oct 08 2024 10:07:27 GMT-0500 (Central Daylight Time),489009.6999999881,A,lak,O,k,80,1,449.30000001192093,488560.39999997616,7020,WL,B,4.0
4,5.681999921798706,learn,54318.000078201294,Tue Oct 08 2024 10:07:27 GMT-0500 (Central Daylight Time),489076.1999999881,A,lake,O,e,60,1,515.8000000119209,488560.39999997616,7020,WL,B,4.0
4,5.865999937057495,learn,54134.000062942505,Tue Oct 08 2024 10:07:27 GMT-0500 (Central Daylight Time),489260.7999999523,A,lakeenter,O,enter,169,1,700.3999999761581,488560.39999997616,7020,WL,B,4.0
4,6.098999977111816,learn,53901.00002288818,Tue Oct 08 2024 10:07:27 GMT-0500 (Central Daylight Time),489493.7999999523,A,c,O,c,229,1,232.69999998807907,489261.09999996424,7020,WL,B,5.0
4,6.246000051498413,learn,53753.99994850159,Tue Oct 08 2024 10:07:27 GMT-0500 (Central Daylight Time),489640.7999999523,A,ca,O,a,143,1,379.69999998807907,489261.09999996424,7020,WL,B,5.0
4,6.3480000495910645,learn,53651.999950408936,Tue Oct 08 2024 10:07:27 GMT-0500 (Central Daylight Time),489742.39999997616,A,cab,O,b,92,1,481.30000001192093,489261.09999996424,7020,WL,B,5.0
4,6.430999994277954,learn,53569.000005722046,Tue Oct 08 2024 10:07:27 GMT-0500 (Central Daylight Time),489826.09999996424,A,cabi,O,i,63,1,565.0,489261.09999996424,7020,WL,B,5.0
4,6.480999946594238,learn,53519.00005340576,Tue Oct 08 2024 10:07:27 GMT-0500 (Central Daylight Time),489875.7999999523,A,cabin,O,n,44,1,614.6999999880791,489261.09999996424,7020,WL,B,5.0
4,6.697999954223633,learn,53302.00004577637,Tue Oct 08 2024 10:07:27 GMT-0500 (Central Daylight Time),490092.6999999881,A,cabinenter,O,enter,202,1,831.6000000238419,489261.09999996424,7020,WL,B,5.0
4,6.865000009536743,learn,53134.99999046326,Tue Oct 08 2024 10:07:27 GMT-0500 (Central Daylight Time),490259.2999999523,A,f,O,f,153,1,166.19999998807907,490093.09999996424,7020,WL,B,6.0
4,6.947999954223633,learn,53052.00004577637,Tue Oct 08 2024 10:07:27 GMT-0500 (Central Daylight Time),490342.5,A,fi,O,i,74,1,249.4000000357628,490093.09999996424,7020,WL,B,6.0
4,7.065000057220459,learn,52934.99994277954,Tue Oct 08 2024 10:07:27 GMT-0500 (Central Daylight Time),490459.1999999881,A,fir,O,r,103,1,366.10000002384186,490093.09999996424,7020,WL,B,6.0
4,7.13100004196167,learn,52868.99995803833,Tue Oct 08 2024 10:07:27 GMT-0500 (Central Daylight Time),490526.0,A,fire,O,e,59,1,432.9000000357628,490093.09999996424,7020,WL,B,6.0
4,7.3480000495910645,learn,52651.999950408936,Tue Oct 08 2024 10:07:27 GMT-0500 (Central Daylight Time),490742.1999999881,A,fireenter,O,enter,208,1,649.1000000238419,490093.09999996424,7020,WL,B,6.0
4,7.547999858856201,learn,52452.0001411438,Tue Oct 08 2024 10:07:27 GMT-0500 (Central Daylight Time),490942.2999999523,A,s,O,s,183,1,199.5999999642372,490742.6999999881,7020,WL,B,7.0
4,7.71399998664856,learn,52286.00001335144,Tue Oct 08 2024 10:07:27 GMT-0500 (Central Daylight Time),491109.0,A,st,O,t,152,1,366.30000001192093,490742.6999999881,7020,WL,B,7.0
4,7.898999929428101,learn,52101.0000705719,Tue Oct 08 2024 10:07:27 GMT-0500 (Central Daylight Time),491293.39999997616,A,str,O,r,168,1,550.6999999880791,490742.6999999881,7020,WL,B,7.0
4,7.947999954223633,learn,52052.00004577637,Tue Oct 08 2024 10:07:27 GMT-0500 (Central Daylight Time),491342.2999999523,A,stre,O,e,40,1,599.5999999642372,490742.6999999881,7020,WL,B,7.0
4,8.113999843597412,learn,51886.00015640259,Tue Oct 08 2024 10:07:27 GMT-0500 (Central Daylight Time),491508.7999999523,A,stree,O,e,151,1,766.0999999642372,490742.6999999881,7020,WL,B,7.0
4,8.396999835968018,learn,51603.00016403198,Tue Oct 08 2024 10:07:27 GMT-0500 (Central Daylight Time),491792.1999999881,A,street,O,t,264,1,1049.5,490742.6999999881,7020,WL,B,7.0
4,8.69700002670288,learn,51302.99997329712,Tue Oct 08 2024 10:07:27 GMT-0500 (Central Daylight Time),492092.09999996424,A,streetenter,O,enter,293,1,1349.3999999761581,490742.6999999881,7020,WL,B,7.0
4,9.263999938964844,learn,50736.000061035156,Tue Oct 08 2024 10:07:27 GMT-0500 (Central Daylight Time),492658.6999999881,A,g,O,g,553,1,566.1999999880791,492092.5,7020,WL,B,8.0
4,9.46399998664856,learn,50536.00001335144,Tue Oct 08 2024 10:07:27 GMT-0500 (Central Daylight Time),492858.39999997616,A,gr,O,r,179,1,765.8999999761581,492092.5,7020,WL,B,8.0
4,9.54699993133545,learn,50453.00006866455,Tue Oct 08 2024 10:07:27 GMT-0500 (Central Daylight Time),492941.7999999523,A,gra,O,a,67,1,849.2999999523163,492092.5,7020,WL,B,8.0
4,9.730000019073486,learn,50269.999980926514,Tue Oct 08 2024 10:07:27 GMT-0500 (Central Daylight Time),493125.1999999881,A,gras,O,s,168,1,1032.699999988079,492092.5,7020,WL,B,8.0
4,9.879999876022339,learn,50120.00012397766,Tue Oct 08 2024 10:07:27 GMT-0500 (Central Daylight Time),493275.09999996424,A,grass,O,s,136,1,1182.5999999642372,492092.5,7020,WL,B,8.0
4,10.098000049591064,learn,49901.999950408936,Tue Oct 08 2024 10:07:27 GMT-0500 (Central Daylight Time),493492.7999999523,A,grassenter,O,enter,203,1,1400.2999999523163,492092.5,7020,WL,B,8.0
4,10.230000019073486,learn,49769.999980926514,Tue Oct 08 2024 10:07:27 GMT-0500 (Central Daylight Time),493624.89999997616,A,d,O,d,113,1,131.60000002384186,493493.2999999523,7020,WL,B,9.0
4,10.379999876022339,learn,49620.00012397766,Tue Oct 08 2024 10:07:27 GMT-0500 (Central Daylight Time),493774.7999999523,A,do,O,o,133,1,281.5,493493.2999999523,7020,WL,B,9.0
4,10.513000011444092,learn,49486.99998855591,Tue Oct 08 2024 10:07:27 GMT-0500 (Central Daylight Time),493908.09999996424,A,doo,O,o,119,1,414.80000001192093,493493.2999999523,7020,WL,B,9.0
4,10.579999923706055,learn,49420.000076293945,Tue Oct 08 2024 10:07:27 GMT-0500 (Central Daylight Time),493974.89999997616,A,door,O,r,57,1,481.60000002384186,493493.2999999523,7020,WL,B,9.0
4,10.86299991607666,learn,49137.00008392334,Tue Oct 08 2024 10:07:27 GMT-0500 (Central Daylight Time),494258.09999996424,A,doorenter,O,enter,262,1,764.8000000119209,493493.2999999523,7020,WL,B,9.0
4,11.062999963760376,learn,48937.000036239624,Tue Oct 08 2024 10:07:27 GMT-0500 (Central Daylight Time),494457.89999997616,A,a,O,a,188,1,199.5,494258.39999997616,7020,WL,B,10.0
4,11.146999835968018,learn,48853.00016403198,Tue Oct 08 2024 10:07:27 GMT-0500 (Central Daylight Time),494541.1999999881,A,ar,O,r,68,1,282.80000001192093,494258.39999997616,7020,WL,B,10.0
4,11.263000011444092,learn,48736.99998855591,Tue Oct 08 2024 10:07:27 GMT-0500 (Central Daylight Time),494657.6999999881,A,arm,O,m,98,1,399.30000001192093,494258.39999997616,7020,WL,B,10.0
4,11.513000011444092,learn,48486.99998855591,Tue Oct 08 2024 10:07:27 GMT-0500 (Central Daylight Time),494907.7999999523,A,armenter,O,enter,236,1,649.3999999761581,494258.39999997616,7020,WL,B,10.0
4,11.730000019073486,learn,48269.999980926514,Tue Oct 08 2024 10:07:27 GMT-0500 (Central Daylight Time),495124.39999997616,A,w,O,w,210,1,216.30000001192093,494908.09999996424,7020,WL,B,11.0
4,11.812999963760376,learn,48187.000036239624,Tue Oct 08 2024 10:07:27 GMT-0500 (Central Daylight Time),495207.6999999881,A,wi,O,i,73,1,299.60000002384186,494908.09999996424,7020,WL,B,11.0
4,11.879999876022339,learn,48120.00012397766,Tue Oct 08 2024 10:07:27 GMT-0500 (Central Daylight Time),495274.5,A,win,O,n,54,1,366.4000000357628,494908.09999996424,7020,WL,B,11.0
4,11.963000059127808,learn,48036.99994087219,Tue Oct 08 2024 10:07:27 GMT-0500 (Central Daylight Time),495357.7999999523,A,wind,O,d,75,1,449.69999998807907,494908.09999996424,7020,WL,B,11.0
4,12.145999908447266,learn,47854.000091552734,Tue Oct 08 2024 10:07:27 GMT-0500 (Central Daylight Time),495541.09999996424,A,windo,O,o,176,1,633.0,494908.09999996424,7020,WL,B,11.0
4,12.296000003814697,learn,47703.9999961853,Tue Oct 08 2024 10:07:27 GMT-0500 (Central Daylight Time),495690.7999999523,A,window,O,w,145,1,782.6999999880791,494908.09999996424,7020,WL,B,11.0
4,12.480000019073486,learn,47519.999980926514,Tue Oct 08 2024 10:07:27 GMT-0500 (Central Daylight Time),495874.1999999881,A,windowenter,O,enter,179,1,966.1000000238419,494908.09999996424,7020,WL,B,11.0
4,13.213000059127808,learn,46786.99994087219,Tue Oct 08 2024 10:07:27 GMT-0500 (Central Daylight Time),496607.39999997616,A,w,O,w,723,1,732.8000000119209,495874.59999996424,7020,WL,B,12.0
4,13.29699993133545,learn,46703.00006866455,Tue Oct 08 2024 10:07:27 GMT-0500 (Central Daylight Time),496691.59999996424,A,wi,O,i,70,1,817.0,495874.59999996424,7020,WL,B,12.0
4,13.412999868392944,learn,46587.000131607056,Tue Oct 08 2024 10:07:27 GMT-0500 (Central Daylight Time),496807.2999999523,A,wif,O,f,98,1,932.6999999880791,495874.59999996424,7020,WL,B,12.0
4,13.463000059127808,learn,46536.99994087219,Tue Oct 08 2024 10:07:27 GMT-0500 (Central Daylight Time),496857.09999996424,A,wife,O,e,38,1,982.5,495874.59999996424,7020,WL,B,12.0
4,13.61299991607666,learn,46387.00008392334,Tue Oct 08 2024 10:07:27 GMT-0500 (Central Daylight Time),497007.1999999881,A,wifeenter,O,enter,132,1,1132.6000000238419,495874.59999996424,7020,WL,B,12.0
4,14.595999956130981,learn,45404.00004386902,Tue Oct 08 2024 10:07:27 GMT-0500 (Central Daylight Time),497990.1999999881,A,p,O,p,975,1,982.8000000119209,497007.39999997616,7020,WL,B,13.0
4,14.76199984550476,learn,45238.00015449524,Tue Oct 08 2024 10:07:27 GMT-0500 (Central Daylight Time),498157.0,A,pi,O,i,152,1,1149.6000000238419,497007.39999997616,7020,WL,B,13.0
4,14.794999837875366,learn,45205.000162124634,Tue Oct 08 2024 10:07:27 GMT-0500 (Central Daylight Time),498190.1999999881,A,pip,O,p,25,1,1182.800000011921,497007.39999997616,7020,WL,B,13.0
4,15.027999877929688,learn,44972.00012207031,Tue Oct 08 2024 10:07:27 GMT-0500 (Central Daylight Time),498423.09999996424,A,pipe,O,e,216,1,1415.699999988079,497007.39999997616,7020,WL,B,13.0
4,15.494999885559082,learn,44505.00011444092,Tue Oct 08 2024 10:07:27 GMT-0500 (Central Daylight Time),498889.7999999523,A,pipeenter,O,enter,445,1,1882.3999999761581,497007.39999997616,7020,WL,B,13.0
4,16.277999877929688,learn,43722.00012207031,Tue Oct 08 2024 10:07:27 GMT-0500 (Central Daylight Time),499673.0,A,c,O,c,772,1,782.8000000119209,498890.1999999881,7020,WL,B,14.0
4,16.32799983024597,learn,43672.00016975403,Tue Oct 08 2024 10:07:27 GMT-0500 (Central Daylight Time),499722.6999999881,A,ci,O,i,45,1,832.5,498890.1999999881,7020,WL,B,14.0
4,16.51199984550476,learn,43488.00015449524,Tue Oct 08 2024 10:07:27 GMT-0500 (Central Daylight Time),499906.1999999881,A,cit,O,t,164,1,1016.0,498890.1999999881,7020,WL,B,14.0
4,16.84500002861023,learn,43154.99997138977,Tue Oct 08 2024 10:07:27 GMT-0500 (Central Daylight Time),500239.5,A,citenter,O,enter,316,1,1349.300000011921,498890.1999999881,7020,WL,B,14.0
4,18.310999870300293,learn,41689.00012969971,Tue Oct 08 2024 10:07:27 GMT-0500 (Central Daylight Time),501705.89999997616,A,c,O,c,1446,1,1466.0,500239.89999997616,7020,WL,B,15.0
4,18.361000061035156,learn,41638.999938964844,Tue Oct 08 2024 10:07:27 GMT-0500 (Central Daylight Time),501755.5,A,ci,O,i,44,1,1515.6000000238419,500239.89999997616,7020,WL,B,15.0
4,18.51099991798401,learn,41489.00008201599,Tue Oct 08 2024 10:07:27 GMT-0500 (Central Daylight Time),501905.59999996424,A,cit,O,t,139,1,1665.699999988079,500239.89999997616,7020,WL,B,15.0
4,18.560999870300293,learn,41439.00012969971,Tue Oct 08 2024 10:07:27 GMT-0500 (Central Daylight Time),501955.6999999881,A,city,O,y,44,1,1715.800000011921,500239.89999997616,7020,WL,B,15.0
4,18.861000061035156,learn,41138.999938964844,Tue Oct 08 2024 10:07:27 GMT-0500 (Central Daylight Time),502255.39999997616,A,cityenter,O,enter,290,1,2015.5,500239.89999997616,7020,WL,B,15.0
5,0.48399996757507324,learn,60000.0,Tue Oct 08 2024 10:07:27 GMT-0500 (Central Daylight Time),570284.3999999762,A,s,O,s,477,1,483.30000001192093,569801.0999999642,7020,WL,B,1.0
5,0.6670000553131104,learn,60000.0,Tue Oct 08 2024 10:07:27 GMT-0500 (Central Daylight Time),570467.5,A,sk,O,k,177,1,666.4000000357628,569801.0999999642,7020,WL,B,1.0
5,0.9830000400543213,learn,60000.0,Tue Oct 08 2024 10:07:27 GMT-0500 (Central Daylight Time),570784.1999999881,A,ski,O,i,306,1,983.1000000238419,569801.0999999642,7020,WL,B,1.0
5,1.0499999523162842,learn,60000.0,Tue Oct 08 2024 10:07:27 GMT-0500 (Central Daylight Time),570850.6999999881,A,skin,O,n,62,1,1049.6000000238419,569801.0999999642,7020,WL,B,1.0
5,1.8329999446868896,learn,60000.0,Tue Oct 08 2024 10:07:27 GMT-0500 (Central Daylight Time),571633.7999999523,A,skinenter,O,enter,762,1,1832.699999988079,569801.0999999642,7020,WL,B,1.0
5,2.200000047683716,learn,60000.0,Tue Oct 08 2024 10:07:27 GMT-0500 (Central Daylight Time),572000.3999999762,A,f,O,f,356,1,366.10000002384186,571634.2999999523,7020,WL,B,2.0
5,2.2660000324249268,learn,60000.0,Tue Oct 08 2024 10:07:27 GMT-0500 (Central Daylight Time),572066.7999999523,A,fi,O,i,53,1,432.5,571634.2999999523,7020,WL,B,2.0
5,2.4660000801086426,learn,60000.0,Tue Oct 08 2024 10:07:27 GMT-0500 (Central Daylight Time),572266.5999999642,A,fir,O,r,195,1,632.3000000119209,571634.2999999523,7020,WL,B,2.0
5,2.5999999046325684,learn,60000.0,Tue Oct 08 2024 10:07:27 GMT-0500 (Central Daylight Time),572400.2999999523,A,fire,O,e,115,1,766.0,571634.2999999523,7020,WL,B,2.0
5,2.9159998893737793,learn,60000.0,Tue Oct 08 2024 10:07:27 GMT-0500 (Central Daylight Time),572716.6999999881,A,fireenter,O,enter,310,1,1082.4000000357628,571634.2999999523,7020,WL,B,2.0
5,3.2820000648498535,learn,60000.0,Tue Oct 08 2024 10:07:27 GMT-0500 (Central Daylight Time),573083.0999999642,A,c,O,c,361,1,366.0999999642372,572717.0,7020,WL,B,3.0
5,3.381999969482422,learn,60000.0,Tue Oct 08 2024 10:07:27 GMT-0500 (Central Daylight Time),573183.2999999523,A,cl,O,l,91,1,466.2999999523163,572717.0,7020,WL,B,3.0
5,3.615999937057495,learn,60000.0,Tue Oct 08 2024 10:07:27 GMT-0500 (Central Daylight Time),573416.3999999762,A,clo,O,o,214,1,699.3999999761581,572717.0,7020,WL,B,3.0
5,3.749000072479248,learn,60000.0,Tue Oct 08 2024 10:07:27 GMT-0500 (Central Daylight Time),573549.8999999762,A,cloc,O,c,125,1,832.8999999761581,572717.0,7020,WL,B,3.0
5,3.881999969482422,learn,60000.0,Tue Oct 08 2024 10:07:27 GMT-0500 (Central Daylight Time),573683.2999999523,A,clock,O,k,120,1,966.2999999523163,572717.0,7020,WL,B,3.0
5,4.264999866485596,learn,60000.0,Tue Oct 08 2024 10:07:27 GMT-0500 (Central Daylight Time),574066.1999999881,A,clockenter,O,enter,371,1,1349.199999988079,572717.0,7020,WL,B,3.0
5,4.764999866485596,learn,60000.0,Tue Oct 08 2024 10:07:27 GMT-0500 (Central Daylight Time),574566.0999999642,A,p,O,p,484,1,499.5999999642372,574066.5,7020,WL,B,4.0
5,5.0320000648498535,learn,60000.0,Tue Oct 08 2024 10:07:27 GMT-0500 (Central Daylight Time),574832.7999999523,A,pu,O,u,248,1,766.2999999523163,574066.5,7020,WL,B,4.0
5,5.264999866485596,learn,60000.0,Tue Oct 08 2024 10:07:27 GMT-0500 (Central Daylight Time),575066.0999999642,A,pup,O,p,213,1,999.5999999642372,574066.5,7020,WL,B,4.0
5,5.4649999141693115,learn,60000.0,Tue Oct 08 2024 10:07:27 GMT-0500 (Central Daylight Time),575266.1999999881,A,pupi,O,i,180,1,1199.699999988079,574066.5,7020,WL,B,4.0
5,5.698999881744385,learn,60000.0,Tue Oct 08 2024 10:07:27 GMT-0500 (Central Daylight Time),575499.3999999762,A,pupil,O,l,219,1,1432.8999999761581,574066.5,7020,WL,B,4.0
5,6.049999952316284,learn,60000.0,Tue Oct 08 2024 10:07:27 GMT-0500 (Central Daylight Time),575850.3999999762,A,pupilenter,O,enter,346,1,1783.8999999761581,574066.5,7020,WL,B,4.0
5,6.565000057220459,learn,60000.0,Tue Oct 08 2024 10:07:27 GMT-0500 (Central Daylight Time),576365.6999999881,A,p,O,p,508,1,515.1999999880791,575850.5,7020,WL,B,5.0
5,6.764999866485596,learn,60000.0,Tue Oct 08 2024 10:07:27 GMT-0500 (Central Daylight Time),576565.5,A,pi,O,i,192,1,715.0,575850.5,7020,WL,B,5.0
5,6.815000057220459,learn,60000.0,Tue Oct 08 2024 10:07:27 GMT-0500 (Central Daylight Time),576615.1999999881,A,pip,O,p,40,1,764.6999999880791,575850.5,7020,WL,B,5.0
5,7.081000089645386,learn,60000.0,Tue Oct 08 2024 10:07:27 GMT-0500 (Central Daylight Time),576881.7999999523,A,pipe,O,e,246,1,1031.2999999523163,575850.5,7020,WL,B,5.0
5,7.497999906539917,learn,60000.0,Tue Oct 08 2024 10:07:27 GMT-0500 (Central Daylight Time),577298.6999999881,A,pipeenter,O,enter,412,1,1448.199999988079,575850.5,7020,WL,B,5.0
5,8.081000089645386,learn,60000.0,Tue Oct 08 2024 10:07:27 GMT-0500 (Central Daylight Time),577881.8999999762,A,s,O,s,571,1,582.8999999761581,577299.0,7020,WL,B,6.0
5,8.263999938964844,learn,60000.0,Tue Oct 08 2024 10:07:27 GMT-0500 (Central Daylight Time),578065.0999999642,A,st,O,t,172,1,766.0999999642372,577299.0,7020,WL,B,6.0
5,8.497999906539917,learn,60000.0,Tue Oct 08 2024 10:07:27 GMT-0500 (Central Daylight Time),578298.2999999523,A,str,O,r,229,1,999.2999999523163,577299.0,7020,WL,B,6.0
5,9.13100004196167,learn,60000.0,Tue Oct 08 2024 10:07:27 GMT-0500 (Central Daylight Time),578932.0999999642,A,st,O,backspace,628,1,1633.0999999642372,577299.0,7020,WL,B,6.0
5,9.280999898910522,learn,60000.0,Tue Oct 08 2024 10:07:27 GMT-0500 (Central Daylight Time),579081.3999999762,A,sta,O,a,129,1,1782.3999999761581,577299.0,7020,WL,B,6.0
5,9.346999883651733,learn,60000.0,Tue Oct 08 2024 10:07:27 GMT-0500 (Central Daylight Time),579148.0999999642,A,star,O,r,61,1,1849.0999999642372,577299.0,7020,WL,B,6.0
5,9.54699993133545,learn,60000.0,Tue Oct 08 2024 10:07:27 GMT-0500 (Central Daylight Time),579348.0999999642,A,starenter,O,enter,194,1,2049.099999964237,577299.0,7020,WL,B,6.0
5,9.897000074386597,learn,60000.0,Tue Oct 08 2024 10:07:27 GMT-0500 (Central Daylight Time),579697.8999999762,A,d,O,d,338,1,349.5,579348.3999999762,7020,WL,B,7.0
5,9.96399998664856,learn,60000.0,Tue Oct 08 2024 10:07:27 GMT-0500 (Central Daylight Time),579764.5,A,do,O,o,60,1,416.10000002384186,579348.3999999762,7020,WL,B,7.0
5,10.114000082015991,learn,60000.0,Tue Oct 08 2024 10:07:27 GMT-0500 (Central Daylight Time),579914.5,A,doo,O,o,130,1,566.1000000238419,579348.3999999762,7020,WL,B,7.0
5,10.230000019073486,learn,60000.0,Tue Oct 08 2024 10:07:27 GMT-0500 (Central Daylight Time),580031.1999999881,A,door,O,r,99,1,682.8000000119209,579348.3999999762,7020,WL,B,7.0
5,10.513999938964844,learn,60000.0,Tue Oct 08 2024 10:07:27 GMT-0500 (Central Daylight Time),580314.2999999523,A,doorenter,O,enter,279,1,965.8999999761581,579348.3999999762,7020,WL,B,7.0
5,10.829999923706055,learn,60000.0,Tue Oct 08 2024 10:07:27 GMT-0500 (Central Daylight Time),580631.0,A,s,O,s,307,1,316.4000000357628,580314.5999999642,7020,WL,B,8.0
5,10.980000019073486,learn,60000.0,Tue Oct 08 2024 10:07:27 GMT-0500 (Central Daylight Time),580781.0,A,st,O,t,143,1,466.4000000357628,580314.5999999642,7020,WL,B,8.0
5,11.230000019073486,learn,60000.0,Tue Oct 08 2024 10:07:27 GMT-0500 (Central Daylight Time),581030.7999999523,A,str,O,r,233,1,716.1999999880791,580314.5999999642,7020,WL,B,8.0
5,11.329999923706055,learn,60000.0,Tue Oct 08 2024 10:07:27 GMT-0500 (Central Daylight Time),581130.6999999881,A,stre,O,e,80,1,816.1000000238419,580314.5999999642,7020,WL,B,8.0
5,11.513000011444092,learn,60000.0,Tue Oct 08 2024 10:07:27 GMT-0500 (Central Daylight Time),581314.1999999881,A,stree,O,e,171,1,999.6000000238419,580314.5999999642,7020,WL,B,8.0
5,11.662999868392944,learn,60000.0,Tue Oct 08 2024 10:07:27 GMT-0500 (Central Daylight Time),581464.0999999642,A,street,O,t,140,1,1149.5,580314.5999999642,7020,WL,B,8.0
5,12.062999963760376,learn,60000.0,Tue Oct 08 2024 10:07:27 GMT-0500 (Central Daylight Time),581863.8999999762,A,streetenter,O,enter,390,1,1549.300000011921,580314.5999999642,7020,WL,B,8.0
5,12.263000011444092,learn,60000.0,Tue Oct 08 2024 10:07:27 GMT-0500 (Central Daylight Time),582063.7999999523,A,g,O,g,182,1,199.5999999642372,581864.1999999881,7020,WL,B,9.0
5,12.430000066757202,learn,60000.0,Tue Oct 08 2024 10:07:27 GMT-0500 (Central Daylight Time),582230.3999999762,A,gr,O,r,158,1,366.19999998807907,581864.1999999881,7020,WL,B,9.0
5,12.713000059127808,learn,60000.0,Tue Oct 08 2024 10:07:27 GMT-0500 (Central Daylight Time),582513.5999999642,A,gra,O,a,263,1,649.3999999761581,581864.1999999881,7020,WL,B,9.0
5,12.963000059127808,learn,60000.0,Tue Oct 08 2024 10:07:27 GMT-0500 (Central Daylight Time),582763.7999999523,A,gras,O,s,236,1,899.5999999642372,581864.1999999881,7020,WL,B,9.0
5,13.096999883651733,learn,60000.0,Tue Oct 08 2024 10:07:27 GMT-0500 (Central Daylight Time),582897.5999999642,A,grass,O,s,122,1,1033.3999999761581,581864.1999999881,7020,WL,B,9.0
5,13.957000017166138,learn,60000.0,Tue Oct 08 2024 10:07:27 GMT-0500 (Central Daylight Time),583757.8999999762,A,grassenter,O,enter,709,1,1893.699999988079,581864.1999999881,7020,WL,B,9.0
5,14.461999893188477,learn,60000.0,Tue Oct 08 2024 10:07:27 GMT-0500 (Central Daylight Time),584263.0999999642,A,a,O,a,488,1,505.0,583758.0999999642,7020,WL,B,10.0
5,14.562000036239624,learn,60000.0,Tue Oct 08 2024 10:07:27 GMT-0500 (Central Daylight Time),584362.8999999762,A,ar,O,r,95,1,604.8000000119209,583758.0999999642,7020,WL,B,10.0
5,14.746000051498413,learn,60000.0,Tue Oct 08 2024 10:07:27 GMT-0500 (Central Daylight Time),584546.2999999523,A,arm,O,m,171,1,788.1999999880791,583758.0999999642,7020,WL,B,10.0
5,15.029000043869019,learn,60000.0,Tue Oct 08 2024 10:07:27 GMT-0500 (Central Daylight Time),584829.5999999642,A,armenter,O,enter,276,1,1071.5,583758.0999999642,7020,WL,B,10.0
5,15.879999876022339,learn,60000.0,Tue Oct 08 2024 10:07:27 GMT-0500 (Central Daylight Time),585680.5,A,l,O,l,840,1,850.5,584830.0,7020,WL,B,11.0
5,16.01200008392334,learn,60000.0,Tue Oct 08 2024 10:07:27 GMT-0500 (Central Daylight Time),585812.6999999881,A,la,O,a,125,1,982.6999999880791,584830.0,7020,WL,B,11.0
5,16.128000020980835,learn,60000.0,Tue Oct 08 2024 10:07:27 GMT-0500 (Central Daylight Time),585929.1999999881,A,lak,O,k,97,1,1099.199999988079,584830.0,7020,WL,B,11.0
5,16.211999893188477,learn,60000.0,Tue Oct 08 2024 10:07:27 GMT-0500 (Central Daylight Time),586012.5,A,lake,O,e,76,1,1182.5,584830.0,7020,WL,B,11.0
5,16.411999940872192,learn,60000.0,Tue Oct 08 2024 10:07:27 GMT-0500 (Central Daylight Time),586212.5,A,lakeenter,O,enter,193,1,1382.5,584830.0,7020,WL,B,11.0
5,16.84500002861023,learn,60000.0,Tue Oct 08 2024 10:07:27 GMT-0500 (Central Daylight Time),586645.6999999881,A,c,O,c,418,1,432.9000000357628,586212.7999999523,7020,WL,B,12.0
5,16.977999925613403,learn,60000.0,Tue Oct 08 2024 10:07:27 GMT-0500 (Central Daylight Time),586778.7999999523,A,ca,O,a,128,1,566.0,586212.7999999523,7020,WL,B,12.0
5,17.244999885559082,learn,60000.0,Tue Oct 08 2024 10:07:27 GMT-0500 (Central Daylight Time),587045.6999999881,A,cab,O,b,259,1,832.9000000357628,586212.7999999523,7020,WL,B,12.0
5,17.34500002861023,learn,60000.0,Tue Oct 08 2024 10:07:27 GMT-0500 (Central Daylight Time),587145.3999999762,A,cabi,O,i,79,1,932.6000000238419,586212.7999999523,7020,WL,B,12.0
5,17.411999940872192,learn,60000.0,Tue Oct 08 2024 10:07:27 GMT-0500 (Central Daylight Time),587212.2999999523,A,cabin,O,n,52,1,999.5,586212.7999999523,7020,WL,B,12.0
5,17.84500002861023,learn,60000.0,Tue Oct 08 2024 10:07:27 GMT-0500 (Central Daylight Time),587645.2999999523,A,cabinenter,O,enter,417,1,1432.5,586212.7999999523,7020,WL,B,12.0
5,20.22699999809265,learn,60000.0,Tue Oct 08 2024 10:07:27 GMT-0500 (Central Daylight Time),590028.2999999523,A,c,O,c,2368,1,2382.599999964237,587645.6999999881,7020,WL,B,13.0
5,20.312000036239624,learn,60000.0,Tue Oct 08 2024 10:07:27 GMT-0500 (Central Daylight Time),590112.5,A,cl,O,l,73,1,2466.800000011921,587645.6999999881,7020,WL,B,13.0
5,20.49399995803833,learn,60000.0,Tue Oct 08 2024 10:07:27 GMT-0500 (Central Daylight Time),590294.3999999762,A,clo,O,o,173,1,2648.699999988079,587645.6999999881,7020,WL,B,13.0
5,20.5939998626709,learn,60000.0,Tue Oct 08 2024 10:07:27 GMT-0500 (Central Daylight Time),590394.7999999523,A,cloc,O,c,79,1,2749.099999964237,587645.6999999881,7020,WL,B,13.0
5,20.72699999809265,learn,60000.0,Tue Oct 08 2024 10:07:27 GMT-0500 (Central Daylight Time),590527.7999999523,A,clock,O,k,115,1,2882.099999964237,587645.6999999881,7020,WL,B,13.0
5,21.026999950408936,learn,60000.0,Tue Oct 08 2024 10:07:27 GMT-0500 (Central Daylight Time),590827.7999999523,A,clockenter,O,enter,294,1,3182.099999964237,587645.6999999881,7020,WL,B,13.0
5,24.358999967575073,learn,60000.0,Tue Oct 08 2024 10:07:27 GMT-0500 (Central Daylight Time),594159.8999999762,A,s,O,s,3322,1,3331.699999988079,590828.1999999881,7020,WL,B,14.0
5,24.526000022888184,learn,60000.0,Tue Oct 08 2024 10:07:27 GMT-0500 (Central Daylight Time),594326.7999999523,A,st,O,t,150,1,3498.599999964237,590828.1999999881,7020,WL,B,14.0
5,24.741999864578247,learn,60000.0,Tue Oct 08 2024 10:07:27 GMT-0500 (Central Daylight Time),594543.1999999881,A,str,O,r,207,1,3715.0,590828.1999999881,7020,WL,B,14.0
5,24.825999975204468,learn,60000.0,Tue Oct 08 2024 10:07:27 GMT-0500 (Central Daylight Time),594626.5999999642,A,stre,O,e,63,1,3798.399999976158,590828.1999999881,7020,WL,B,14.0
5,25.009000062942505,learn,60000.0,Tue Oct 08 2024 10:07:27 GMT-0500 (Central Daylight Time),594809.7999999523,A,stree,O,e,163,1,3981.599999964237,590828.1999999881,7020,WL,B,14.0
5,25.075999975204468,learn,60000.0,Tue Oct 08 2024 10:07:27 GMT-0500 (Central Daylight Time),594876.6999999881,A,street,O,t,52,1,4048.5,590828.1999999881,7020,WL,B,14.0
5,25.55900001525879,learn,60000.0,Tue Oct 08 2024 10:07:27 GMT-0500 (Central Daylight Time),595359.5999999642,A,streetenter,O,enter,465,1,4531.399999976158,590828.1999999881,7020,WL,B,14.0
5,36.57099986076355,learn,60000.0,Tue Oct 08 2024 10:07:27 GMT-0500 (Central Daylight Time),606372.8999999762,A,g,O,g,11006,1,11012.899999976158,595360.0,7020,WL,B,15.0
5,36.80399990081787,learn,60000.0,Tue Oct 08 2024 10:07:27 GMT-0500 (Central Daylight Time),606606.0,A,gr,O,r,216,1,11246.0,595360.0,7020,WL,B,15.0
5,36.87100005149841,learn,60000.0,Tue Oct 08 2024 10:07:27 GMT-0500 (Central Daylight Time),606673.0999999642,A,gra,O,a,56,1,11313.099999964237,595360.0,7020,WL,B,15.0
5,37.12100005149841,learn,60000.0,Tue Oct 08 2024 10:07:27 GMT-0500 (Central Daylight Time),606922.6999999881,A,gras,O,s,229,1,11562.699999988079,595360.0,7020,WL,B,15.0
5,37.3510000705719,learn,60000.0,Tue Oct 08 2024 10:07:27 GMT-0500 (Central Daylight Time),607153.0999999642,A,grass,O,s,226,1,11793.099999964237,595360.0,7020,WL,B,15.0
5,37.57200002670288,learn,60000.0,Tue Oct 08 2024 10:07:27 GMT-0500 (Central Daylight Time),607374.3999999762,A,grassenter,O,enter,199,1,12014.399999976158,595360.0,7020,WL,B,15.0
6,1.315999984741211,distr,58684.00001525879,Tue Oct 08 2024 10:07:27 GMT-0500 (Central Daylight Time),678450.5,B,b,O,b,1304,1,1316.4000000357628,677134.0999999642,7020,WL,B,1.0
6,1.5319998264312744,distr,58468.000173568726,Tue Oct 08 2024 10:07:27 GMT-0500 (Central Daylight Time),678666.7999999523,B,ba,O,a,203,1,1532.699999988079,677134.0999999642,7020,WL,B,1.0
6,1.6489999294281006,distr,58351.0000705719,Tue Oct 08 2024 10:07:27 GMT-0500 (Central Daylight Time),678783.3999999762,B,bab,O,b,99,1,1649.300000011921,677134.0999999642,7020,WL,B,1.0
6,1.9489998817443848,distr,58051.000118255615,Tue Oct 08 2024 10:07:27 GMT-0500 (Central Daylight Time),679083.1999999881,B,baby,O,y,286,1,1949.1000000238419,677134.0999999642,7020,WL,B,1.0
6,2.248999834060669,distr,57751.00016593933,Tue Oct 08 2024 10:07:27 GMT-0500 (Central Daylight Time),679383.3999999762,B,babyenter,O,enter,290,1,2249.300000011921,677134.0999999642,7020,WL,B,1.0
6,2.682999849319458,distr,57317.00015068054,Tue Oct 08 2024 10:07:27 GMT-0500 (Central Daylight Time),679817.7999999523,B,o,O,o,422,1,434.0999999642372,679383.6999999881,7020,WL,B,2.0
6,2.7819998264312744,distr,57218.000173568726,Tue Oct 08 2024 10:07:27 GMT-0500 (Central Daylight Time),679916.2999999523,B,oc,O,c,92,1,532.5999999642372,679383.6999999881,7020,WL,B,2.0
6,2.998999834060669,distr,57001.00016593933,Tue Oct 08 2024 10:07:27 GMT-0500 (Central Daylight Time),680133.0,B,oce,O,e,210,1,749.3000000119209,679383.6999999881,7020,WL,B,2.0
6,3.0989999771118164,distr,56901.00002288818,Tue Oct 08 2024 10:07:27 GMT-0500 (Central Daylight Time),680233.1999999881,B,ocea,O,a,81,1,849.5,679383.6999999881,7020,WL,B,2.0
6,3.1649999618530273,distr,56835.00003814697,Tue Oct 08 2024 10:07:27 GMT-0500 (Central Daylight Time),680299.7999999523,B,ocean,O,n,52,1,916.0999999642372,679383.6999999881,7020,WL,B,2.0
6,3.381999969482422,distr,56618.00003051758,Tue Oct 08 2024 10:07:27 GMT-0500 (Central Daylight Time),680516.3999999762,B,oceanenter,O,enter,210,1,1132.699999988079,679383.6999999881,7020,WL,B,2.0
6,3.697999954223633,distr,56302.00004577637,Tue Oct 08 2024 10:07:27 GMT-0500 (Central Daylight Time),680832.7999999523,B,p,O,p,305,1,316.0999999642372,680516.6999999881,7020,WL,B,3.0
6,3.864999771118164,distr,56135.000228881836,Tue Oct 08 2024 10:07:27 GMT-0500 (Central Daylight Time),680999.5,B,pa,O,a,157,1,482.80000001192093,680516.6999999881,7020,WL,B,3.0
6,4.014999866485596,distr,55985.000133514404,Tue Oct 08 2024 10:07:27 GMT-0500 (Central Daylight Time),681149.3999999762,B,pal,O,l,142,1,632.6999999880791,680516.6999999881,7020,WL,B,3.0
6,4.197999954223633,distr,55802.00004577637,Tue Oct 08 2024 10:07:27 GMT-0500 (Central Daylight Time),681332.6999999881,B,pala,O,a,177,1,816.0,680516.6999999881,7020,WL,B,3.0
6,4.398000001907349,distr,55601.99999809265,Tue Oct 08 2024 10:07:27 GMT-0500 (Central Daylight Time),681532.5,B,palac,O,c,185,1,1015.8000000119209,680516.6999999881,7020,WL,B,3.0
6,4.614999771118164,distr,55385.000228881836,Tue Oct 08 2024 10:07:27 GMT-0500 (Central Daylight Time),681749.1999999881,B,palace,O,e,201,1,1232.5,680516.6999999881,7020,WL,B,3.0
6,4.7809998989105225,distr,55219.00010108948,Tue Oct 08 2024 10:07:27 GMT-0500 (Central Daylight Time),681915.7999999523,B,palaceenter,O,enter,153,1,1399.0999999642372,680516.6999999881,7020,WL,B,3.0
6,5.080999851226807,distr,54919.00014877319,Tue Oct 08 2024 10:07:27 GMT-0500 (Central Daylight Time),682215.6999999881,B,l,O,l,282,1,299.69999998807907,681916.0,7020,WL,B,4.0
6,5.297999858856201,distr,54702.0001411438,Tue Oct 08 2024 10:07:27 GMT-0500 (Central Daylight Time),682432.2999999523,B,li,O,i,206,1,516.2999999523163,681916.0,7020,WL,B,4.0
6,5.380999803543091,distr,54619.00019645691,Tue Oct 08 2024 10:07:27 GMT-0500 (Central Daylight Time),682515.5999999642,B,lip,O,p,69,1,599.5999999642372,681916.0,7020,WL,B,4.0
6,5.682999849319458,distr,54317.00015068054,Tue Oct 08 2024 10:07:27 GMT-0500 (Central Daylight Time),682816.8999999762,B,lipenter,O,enter,290,1,900.8999999761581,681916.0,7020,WL,B,4.0
6,5.9649999141693115,distr,54035.00008583069,Tue Oct 08 2024 10:07:27 GMT-0500 (Central Daylight Time),683099.0,B,a,O,a,261,1,281.80000001192093,682817.1999999881,7020,WL,B,5.0
6,6.113999843597412,distr,53886.00015640259,Tue Oct 08 2024 10:07:27 GMT-0500 (Central Daylight Time),683248.7999999523,B,ar,O,r,139,1,431.5999999642372,682817.1999999881,7020,WL,B,5.0
6,6.198999881744385,distr,53801.000118255615,Tue Oct 08 2024 10:07:27 GMT-0500 (Central Daylight Time),683333.1999999881,B,arm,O,m,69,1,516.0,682817.1999999881,7020,WL,B,5.0
6,6.5309998989105225,distr,53469.00010108948,Tue Oct 08 2024 10:07:27 GMT-0500 (Central Daylight Time),683665.2999999523,B,army,O,y,312,1,848.0999999642372,682817.1999999881,7020,WL,B,5.0
6,6.830999851226807,distr,53169.00014877319,Tue Oct 08 2024 10:07:27 GMT-0500 (Central Daylight Time),683965.1999999881,B,armyenter,O,enter,292,1,1148.0,682817.1999999881,7020,WL,B,5.0
6,7.363999843597412,distr,52636.00015640259,Tue Oct 08 2024 10:07:27 GMT-0500 (Central Daylight Time),684498.0999999642,B,s,O,s,521,1,532.5999999642372,683965.5,7020,WL,B,6.0
6,7.480999946594238,distr,52519.00005340576,Tue Oct 08 2024 10:07:27 GMT-0500 (Central Daylight Time),684614.8999999762,B,st,O,t,99,1,649.3999999761581,683965.5,7020,WL,B,6.0
6,7.563999891281128,distr,52436.00010871887,Tue Oct 08 2024 10:07:27 GMT-0500 (Central Daylight Time),684698.2999999523,B,sto,O,o,63,1,732.7999999523163,683965.5,7020,WL,B,6.0
6,7.646999835968018,distr,52353.00016403198,Tue Oct 08 2024 10:07:27 GMT-0500 (Central Daylight Time),684781.6999999881,B,stor,O,r,75,1,816.1999999880791,683965.5,7020,WL,B,6.0
6,7.746999979019165,distr,52253.000020980835,Tue Oct 08 2024 10:07:27 GMT-0500 (Central Daylight Time),684881.6999999881,B,storm,O,m,88,1,916.1999999880791,683965.5,7020,WL,B,6.0
6,8.030999898910522,distr,51969.00010108948,Tue Oct 08 2024 10:07:27 GMT-0500 (Central Daylight Time),685164.8999999762,B,stormenter,O,enter,268,1,1199.3999999761581,683965.5,7020,WL,B,6.0
6,8.479999780654907,distr,51520.00021934509,Tue Oct 08 2024 10:07:27 GMT-0500 (Central Daylight Time),685614.5999999642,B,v,O,v,433,1,449.39999997615814,685165.1999999881,7020,WL,B,7.0
6,8.52999997138977,distr,51470.00002861023,Tue Oct 08 2024 10:07:27 GMT-0500 (Central Daylight Time),685664.3999999762,B,vi,O,i,31,1,499.19999998807907,685165.1999999881,7020,WL,B,7.0
6,8.563999891281128,distr,51436.00010871887,Tue Oct 08 2024 10:07:27 GMT-0500 (Central Daylight Time),685698.5999999642,B,vil,O,l,29,1,533.3999999761581,685165.1999999881,7020,WL,B,7.0
6,8.696999788284302,distr,51303.0002117157,Tue Oct 08 2024 10:07:27 GMT-0500 (Central Daylight Time),685831.3999999762,B,vill,O,l,124,1,666.1999999880791,685165.1999999881,7020,WL,B,7.0
6,8.763999938964844,distr,51236.000061035156,Tue Oct 08 2024 10:07:27 GMT-0500 (Central Daylight Time),685898.0,B,villa,O,a,54,1,732.8000000119209,685165.1999999881,7020,WL,B,7.0
6,8.846999883651733,distr,51153.00011634827,Tue Oct 08 2024 10:07:27 GMT-0500 (Central Daylight Time),685981.3999999762,B,villag,O,g,68,1,816.1999999880791,685165.1999999881,7020,WL,B,7.0
6,8.913999795913696,distr,51086.000204086304,Tue Oct 08 2024 10:07:27 GMT-0500 (Central Daylight Time),686047.8999999762,B,village,O,e,57,1,882.6999999880791,685165.1999999881,7020,WL,B,7.0
6,9.264999866485596,distr,50735.000133514404,Tue Oct 08 2024 10:07:27 GMT-0500 (Central Daylight Time),686398.8999999762,B,villageenter,O,enter,334,1,1233.699999988079,685165.1999999881,7020,WL,B,7.0
6,9.52999997138977,distr,50470.00002861023,Tue Oct 08 2024 10:07:27 GMT-0500 (Central Daylight Time),686664.5999999642,B,r,O,r,246,1,265.30000001192093,686399.2999999523,7020,WL,B,8.0
6,9.579999923706055,distr,50420.000076293945,Tue Oct 08 2024 10:07:27 GMT-0500 (Central Daylight Time),686714.1999999881,B,ro,O,o,37,1,314.9000000357628,686399.2999999523,7020,WL,B,8.0
6,9.729999780654907,distr,50270.00021934509,Tue Oct 08 2024 10:07:27 GMT-0500 (Central Daylight Time),686864.0999999642,B,roc,O,c,131,1,464.80000001192093,686399.2999999523,7020,WL,B,8.0
6,9.79699993133545,distr,50203.00006866455,Tue Oct 08 2024 10:07:27 GMT-0500 (Central Daylight Time),686931.0,B,rock,O,k,54,1,531.7000000476837,686399.2999999523,7020,WL,B,8.0
6,10.44599986076355,distr,49554.00013923645,Tue Oct 08 2024 10:07:27 GMT-0500 (Central Daylight Time),687580.7999999523,B,rockenter,O,enter,635,1,1181.5,686399.2999999523,7020,WL,B,8.0
6,12.595999956130981,distr,47404.00004386902,Tue Oct 08 2024 10:07:27 GMT-0500 (Central Daylight Time),689730.0999999642,B,b,O,b,2137,1,2149.0,687581.0999999642,7020,WL,B,9.0
6,12.728999853134155,distr,47271.000146865845,Tue Oct 08 2024 10:07:27 GMT-0500 (Central Daylight Time),689863.1999999881,B,ba,O,a,123,1,2282.100000023842,687581.0999999642,7020,WL,B,9.0
6,12.811999797821045,distr,47188.000202178955,Tue Oct 08 2024 10:07:27 GMT-0500 (Central Daylight Time),689946.6999999881,B,bar,O,r,79,1,2365.600000023842,687581.0999999642,7020,WL,B,9.0
6,13.161999940872192,distr,46838.00005912781,Tue Oct 08 2024 10:07:27 GMT-0500 (Central Daylight Time),690296.5,B,barenter,O,enter,339,1,2715.400000035763,687581.0999999642,7020,WL,B,9.0
6,19.626999855041504,distr,40373.000144958496,Tue Oct 08 2024 10:07:27 GMT-0500 (Central Daylight Time),696761.2999999523,B,v,O,v,6445,1,6464.5,690296.7999999523,7020,WL,B,10.0
6,19.709999799728394,distr,40290.00020027161,Tue Oct 08 2024 10:07:27 GMT-0500 (Central Daylight Time),696844.5999999642,B,vi,O,i,68,1,6547.800000011921,690296.7999999523,7020,WL,B,10.0
6,19.742999792099,distr,40257.000207901,Tue Oct 08 2024 10:07:27 GMT-0500 (Central Daylight Time),696877.6999999881,B,vil,O,l,18,1,6580.900000035763,690296.7999999523,7020,WL,B,10.0
6,19.876999855041504,distr,40123.000144958496,Tue Oct 08 2024 10:07:27 GMT-0500 (Central Daylight Time),697011.2999999523,B,vill,O,l,120,1,6714.5,690296.7999999523,7020,WL,B,10.0
6,19.942999839782715,distr,40057.000160217285,Tue Oct 08 2024 10:07:27 GMT-0500 (Central Daylight Time),697077.6999999881,B,villa,O,a,50,1,6780.900000035763,690296.7999999523,7020,WL,B,10.0
6,20.009999990463257,distr,39990.00000953674,Tue Oct 08 2024 10:07:27 GMT-0500 (Central Daylight Time),697144.5999999642,B,villag,O,g,56,1,6847.800000011921,690296.7999999523,7020,WL,B,10.0
6,20.0939998626709,distr,39906.0001373291,Tue Oct 08 2024 10:07:27 GMT-0500 (Central Daylight Time),697228.7999999523,B,village,O,e,69,1,6932.0,690296.7999999523,7020,WL,B,10.0
6,20.30999994277954,distr,39690.00005722046,Tue Oct 08 2024 10:07:27 GMT-0500 (Central Daylight Time),697444.3999999762,B,villageenter,O,enter,208,1,7147.600000023842,690296.7999999523,7020,WL,B,10.0
6,28.739999771118164,distr,31260.000228881836,Tue Oct 08 2024 10:07:27 GMT-0500 (Central Daylight Time),705874.7999999523,B,enter,O,enter,8426,1,8430.0,697444.7999999523,7020,WL,B,11.0
6,29.723999977111816,distr,30276.000022888184,Tue Oct 08 2024 10:07:27 GMT-0500 (Central Daylight Time),706858.0,B,enter,O,enter,963,1,983.0,705875.0,7020,WL,B,12.0
6,30.08999991416931,distr,29910.00008583069,Tue Oct 08 2024 10:07:27 GMT-0500 (Central Daylight Time),707224.5,B,enter,O,enter,347,1,366.10000002384186,706858.3999999762,7020,WL,B,13.0
6,30.4229998588562,distr,29577.0001411438,Tue Oct 08 2024 10:07:27 GMT-0500 (Central Daylight Time),707557.8999999762,B,enter,O,enter,317,1,333.10000002384186,707224.7999999523,7020,WL,B,14.0
6,31.18999981880188,distr,28810.00018119812,Tue Oct 08 2024 10:07:27 GMT-0500 (Central Daylight Time),708324.2999999523,B,enter,O,enter,759,1,766.0,707558.2999999523,7020,WL,B,15.0
7,0.43400001525878906,immed,59565.99998474121,Tue Oct 08 2024 10:07:27 GMT-0500 (Central Daylight Time),725402.3999999762,A,s,O,s,429,1,433.5,724968.8999999762,7020,WL,B,1.0
7,0.6499998569488525,immed,59350.00014305115,Tue Oct 08 2024 10:07:27 GMT-0500 (Central Daylight Time),725618.7999999523,A,st,O,t,196,1,649.8999999761581,724968.8999999762,7020,WL,B,1.0
7,0.8339998722076416,immed,59166.00012779236,Tue Oct 08 2024 10:07:27 GMT-0500 (Central Daylight Time),725802.1999999881,A,str,O,r,171,1,833.3000000119209,724968.8999999762,7020,WL,B,1.0
7,0.9500000476837158,immed,59049.999952316284,Tue Oct 08 2024 10:07:27 GMT-0500 (Central Daylight Time),725918.5999999642,A,stre,O,e,108,1,949.6999999880791,724968.8999999762,7020,WL,B,1.0
7,1.1499998569488525,immed,58850.00014305115,Tue Oct 08 2024 10:07:27 GMT-0500 (Central Daylight Time),726118.5999999642,A,stree,O,e,183,1,1149.699999988079,724968.8999999762,7020,WL,B,1.0
7,1.2339999675750732,immed,58766.00003242493,Tue Oct 08 2024 10:07:27 GMT-0500 (Central Daylight Time),726202.0999999642,A,street,O,t,63,1,1233.199999988079,724968.8999999762,7020,WL,B,1.0
7,1.682999849319458,immed,58317.00015068054,Tue Oct 08 2024 10:07:27 GMT-0500 (Central Daylight Time),726651.7999999523,A,streetenter,O,enter,444,1,1682.8999999761581,724968.8999999762,7020,WL,B,1.0
7,2.0,immed,58000.0,Tue Oct 08 2024 10:07:27 GMT-0500 (Central Daylight Time),726968.2999999523,A,w,O,w,298,1,316.19999998807907,726652.0999999642,7020,WL,B,2.0
7,2.066999912261963,immed,57933.00008773804,Tue Oct 08 2024 10:07:27 GMT-0500 (Central Daylight Time),727035.0999999642,A,wi,O,i,53,1,383.0,726652.0999999642,7020,WL,B,2.0
7,2.1670000553131104,immed,57832.99994468689,Tue Oct 08 2024 10:07:27 GMT-0500 (Central Daylight Time),727135.2999999523,A,wif,O,f,83,1,483.19999998807907,726652.0999999642,7020,WL,B,2.0
7,2.2330000400543213,immed,57766.99995994568,Tue Oct 08 2024 10:07:27 GMT-0500 (Central Daylight Time),727201.5999999642,A,wife,O,e,54,1,549.5,726652.0999999642,7020,WL,B,2.0
7,2.4830000400543213,immed,57516.99995994568,Tue Oct 08 2024 10:07:27 GMT-0500 (Central Daylight Time),727451.5,A,wifeenter,O,enter,236,1,799.4000000357628,726652.0999999642,7020,WL,B,2.0
7,2.615999937057495,immed,57384.000062942505,Tue Oct 08 2024 10:07:27 GMT-0500 (Central Daylight Time),727585.0,A,g,O,g,122,1,133.20000004768372,727451.7999999523,7020,WL,B,3.0
7,2.799999952316284,immed,57200.000047683716,Tue Oct 08 2024 10:07:27 GMT-0500 (Central Daylight Time),727768.0,A,gr,O,r,164,1,316.2000000476837,727451.7999999523,7020,WL,B,3.0
7,2.866999864578247,immed,57133.00013542175,Tue Oct 08 2024 10:07:27 GMT-0500 (Central Daylight Time),727835.8999999762,A,gra,O,a,62,1,384.10000002384186,727451.7999999523,7020,WL,B,3.0
7,3.0160000324249268,immed,56983.99996757507,Tue Oct 08 2024 10:07:27 GMT-0500 (Central Daylight Time),727984.6999999881,A,gras,O,s,129,1,532.9000000357628,727451.7999999523,7020,WL,B,3.0
7,3.200000047683716,immed,56799.999952316284,Tue Oct 08 2024 10:07:27 GMT-0500 (Central Daylight Time),728168.0999999642,A,grass,O,s,173,1,716.3000000119209,727451.7999999523,7020,WL,B,3.0
7,3.4830000400543213,immed,56516.99995994568,Tue Oct 08 2024 10:07:27 GMT-0500 (Central Daylight Time),728451.2999999523,A,grassenter,O,enter,270,1,999.5,727451.7999999523,7020,WL,B,3.0
7,3.700000047683716,immed,56299.999952316284,Tue Oct 08 2024 10:07:27 GMT-0500 (Central Daylight Time),728667.8999999762,A,a,O,a,202,1,216.19999998807907,728451.6999999881,7020,WL,B,4.0
7,3.7660000324249268,immed,56233.99996757507,Tue Oct 08 2024 10:07:27 GMT-0500 (Central Daylight Time),728734.5999999642,A,ar,O,r,58,1,282.89999997615814,728451.6999999881,7020,WL,B,4.0
7,3.9159998893737793,immed,56084.00011062622,Tue Oct 08 2024 10:07:27 GMT-0500 (Central Daylight Time),728884.3999999762,A,arm,O,m,143,1,432.69999998807907,728451.6999999881,7020,WL,B,4.0
7,4.799999952316284,immed,55200.000047683716,Tue Oct 08 2024 10:07:27 GMT-0500 (Central Daylight Time),729768.0,A,armenter,O,enter,865,1,1316.300000011921,728451.6999999881,7020,WL,B,4.0
7,5.23199987411499,immed,54768.00012588501,Tue Oct 08 2024 10:07:27 GMT-0500 (Central Daylight Time),730200.5999999642,A,c,O,c,422,1,432.39999997615814,729768.1999999881,7020,WL,B,5.0
7,5.299000024795532,immed,54700.99997520447,Tue Oct 08 2024 10:07:27 GMT-0500 (Central Daylight Time),730267.3999999762,A,cl,O,l,53,1,499.19999998807907,729768.1999999881,7020,WL,B,5.0
7,5.4659998416900635,immed,54534.00015830994,Tue Oct 08 2024 10:07:27 GMT-0500 (Central Daylight Time),730434.0,A,clo,O,o,147,1,665.8000000119209,729768.1999999881,7020,WL,B,5.0
7,5.549000024795532,immed,54450.99997520447,Tue Oct 08 2024 10:07:27 GMT-0500 (Central Daylight Time),730517.1999999881,A,cloc,O,c,76,1,749.0,729768.1999999881,7020,WL,B,5.0
7,5.631999969482422,immed,54368.00003051758,Tue Oct 08 2024 10:07:27 GMT-0500 (Central Daylight Time),730600.7999999523,A,clock,O,k,65,1,832.5999999642372,729768.1999999881,7020,WL,B,5.0
7,5.865000009536743,immed,54134.99999046326,Tue Oct 08 2024 10:07:27 GMT-0500 (Central Daylight Time),730833.8999999762,A,clockenter,O,enter,221,1,1065.699999988079,729768.1999999881,7020,WL,B,5.0
7,6.148999929428101,immed,53851.0000705719,Tue Oct 08 2024 10:07:27 GMT-0500 (Central Daylight Time),731117.0,A,p,O,p,275,1,282.80000001192093,730834.1999999881,7020,WL,B,6.0
7,6.332000017166138,immed,53667.99998283386,Tue Oct 08 2024 10:07:27 GMT-0500 (Central Daylight Time),731300.3999999762,A,pu,O,u,169,1,466.19999998807907,730834.1999999881,7020,WL,B,6.0
7,6.414999961853027,immed,53585.00003814697,Tue Oct 08 2024 10:07:27 GMT-0500 (Central Daylight Time),731383.5999999642,A,pup,O,p,73,1,549.3999999761581,730834.1999999881,7020,WL,B,6.0
7,6.75,immed,53250.0,Tue Oct 08 2024 10:07:27 GMT-0500 (Central Daylight Time),731718.0,A,pupi,O,i,326,1,883.8000000119209,730834.1999999881,7020,WL,B,6.0
7,6.914999961853027,immed,53085.00003814697,Tue Oct 08 2024 10:07:27 GMT-0500 (Central Daylight Time),731883.3999999762,A,pupil,O,l,152,1,1049.199999988079,730834.1999999881,7020,WL,B,6.0
7,7.148000001907349,immed,52851.99999809265,Tue Oct 08 2024 10:07:27 GMT-0500 (Central Daylight Time),732116.8999999762,A,pupilenter,O,enter,218,1,1282.699999988079,730834.1999999881,7020,WL,B,6.0
7,7.898000001907349,immed,52101.99999809265,Tue Oct 08 2024 10:07:27 GMT-0500 (Central Daylight Time),732866.5,A,w,O,w,745,1,749.3000000119209,732117.1999999881,7020,WL,B,7.0
7,7.997999906539917,immed,52002.00009346008,Tue Oct 08 2024 10:07:27 GMT-0500 (Central Daylight Time),732966.6999999881,A,wi,O,i,83,1,849.5,732117.1999999881,7020,WL,B,7.0
7,8.065000057220459,immed,51934.99994277954,Tue Oct 08 2024 10:07:27 GMT-0500 (Central Daylight Time),733033.3999999762,A,wif,O,f,55,1,916.1999999880791,732117.1999999881,7020,WL,B,7.0
7,8.131999969482422,immed,51868.00003051758,Tue Oct 08 2024 10:07:27 GMT-0500 (Central Daylight Time),733099.8999999762,A,wife,O,e,53,1,982.6999999880791,732117.1999999881,7020,WL,B,7.0
7,8.264999866485596,immed,51735.000133514404,Tue Oct 08 2024 10:07:27 GMT-0500 (Central Daylight Time),733233.0999999642,A,wifeenter,O,enter,114,1,1115.8999999761581,732117.1999999881,7020,WL,B,7.0
7,8.497999906539917,immed,51502.00009346008,Tue Oct 08 2024 10:07:27 GMT-0500 (Central Daylight Time),733466.2999999523,A,l,O,l,220,1,232.79999995231628,733233.5,7020,WL,B,8.0
7,8.565000057220459,immed,51434.99994277954,Tue Oct 08 2024 10:07:27 GMT-0500 (Central Daylight Time),733533.0,A,la,O,a,60,1,299.5,733233.5,7020,WL,B,8.0
7,8.664999961853027,immed,51335.00003814697,Tue Oct 08 2024 10:07:27 GMT-0500 (Central Daylight Time),733633.1999999881,A,lak,O,k,89,1,399.69999998807907,733233.5,7020,WL,B,8.0
7,8.747999906539917,immed,51252.00009346008,Tue Oct 08 2024 10:07:27 GMT-0500 (Central Daylight Time),733716.2999999523,A,lake,O,e,69,1,482.7999999523163,733233.5,7020,WL,B,8.0
7,8.91599988937378,immed,51084.00011062622,Tue Oct 08 2024 10:07:27 GMT-0500 (Central Daylight Time),733884.0,A,lakeenter,O,enter,162,1,650.5,733233.5,7020,WL,B,8.0
7,9.21399998664856,immed,50786.00001335144,Tue Oct 08 2024 10:07:27 GMT-0500 (Central Daylight Time),734182.6999999881,A,c,O,c,290,1,298.30000001192093,733884.3999999762,7020,WL,B,9.0
7,9.313999891281128,immed,50686.00010871887,Tue Oct 08 2024 10:07:27 GMT-0500 (Central Daylight Time),734282.6999999881,A,ca,O,a,87,1,398.30000001192093,733884.3999999762,7020,WL,B,9.0
7,9.513999938964844,immed,50486.000061035156,Tue Oct 08 2024 10:07:27 GMT-0500 (Central Daylight Time),734482.5999999642,A,cab,O,b,195,1,598.1999999880791,733884.3999999762,7020,WL,B,9.0
7,9.613999843597412,immed,50386.00015640259,Tue Oct 08 2024 10:07:27 GMT-0500 (Central Daylight Time),734582.7999999523,A,cabi,O,i,83,1,698.3999999761581,733884.3999999762,7020,WL,B,9.0
7,9.664000034332275,immed,50335.999965667725,Tue Oct 08 2024 10:07:27 GMT-0500 (Central Daylight Time),734632.6999999881,A,cabin,O,n,39,1,748.3000000119209,733884.3999999762,7020,WL,B,9.0
7,10.013999938964844,immed,49986.000061035156,Tue Oct 08 2024 10:07:27 GMT-0500 (Central Daylight Time),734982.8999999762,A,cabinenter,O,enter,333,1,1098.5,733884.3999999762,7020,WL,B,9.0
7,10.346999883651733,immed,49653.00011634827,Tue Oct 08 2024 10:07:27 GMT-0500 (Central Daylight Time),735315.8999999762,A,p,O,p,327,1,332.69999998807907,734983.1999999881,7020,WL,B,10.0
7,10.530999898910522,immed,49469.00010108948,Tue Oct 08 2024 10:07:27 GMT-0500 (Central Daylight Time),735499.1999999881,A,pi,O,i,170,1,516.0,734983.1999999881,7020,WL,B,10.0
7,10.565000057220459,immed,49434.99994277954,Tue Oct 08 2024 10:07:27 GMT-0500 (Central Daylight Time),735533.5,A,pip,O,p,27,1,550.3000000119209,734983.1999999881,7020,WL,B,10.0
7,10.69700002670288,immed,49302.99997329712,Tue Oct 08 2024 10:07:27 GMT-0500 (Central Daylight Time),735665.5999999642,A,pipe,O,e,112,1,682.3999999761581,734983.1999999881,7020,WL,B,10.0
7,10.929999828338623,immed,49070.00017166138,Tue Oct 08 2024 10:07:27 GMT-0500 (Central Daylight Time),735898.8999999762,A,pipeenter,O,enter,220,1,915.6999999880791,734983.1999999881,7020,WL,B,10.0
7,11.19700002670288,immed,48802.99997329712,Tue Oct 08 2024 10:07:27 GMT-0500 (Central Daylight Time),736165.3999999762,A,c,O,c,251,1,266.19999998807907,735899.1999999881,7020,WL,B,11.0
7,11.246999979019165,immed,48753.000020980835,Tue Oct 08 2024 10:07:27 GMT-0500 (Central Daylight Time),736215.3999999762,A,cl,O,l,41,1,316.19999998807907,735899.1999999881,7020,WL,B,11.0
7,11.414000034332275,immed,48585.999965667725,Tue Oct 08 2024 10:07:27 GMT-0500 (Central Daylight Time),736382.1999999881,A,clo,O,o,158,1,483.0,735899.1999999881,7020,WL,B,11.0
7,11.480000019073486,immed,48519.999980926514,Tue Oct 08 2024 10:07:27 GMT-0500 (Central Daylight Time),736448.7999999523,A,cloc,O,c,56,1,549.5999999642372,735899.1999999881,7020,WL,B,11.0
7,11.579999923706055,immed,48420.000076293945,Tue Oct 08 2024 10:07:27 GMT-0500 (Central Daylight Time),736548.7999999523,A,clock,O,k,93,1,649.5999999642372,735899.1999999881,7020,WL,B,11.0
7,11.846999883651733,immed,48153.00011634827,Tue Oct 08 2024 10:07:27 GMT-0500 (Central Daylight Time),736815.2999999523,A,clockenter,O,enter,249,1,916.0999999642372,735899.1999999881,7020,WL,B,11.0
7,12.129999876022339,immed,47870.00012397766,Tue Oct 08 2024 10:07:27 GMT-0500 (Central Daylight Time),737098.7999999523,A,s,O,s,271,1,283.19999998807907,736815.5999999642,7020,WL,B,12.0
7,12.29699993133545,immed,47703.00006866455,Tue Oct 08 2024 10:07:27 GMT-0500 (Central Daylight Time),737265.2999999523,A,st,O,t,147,1,449.69999998807907,736815.5999999642,7020,WL,B,12.0
7,12.429999828338623,immed,47570.00017166138,Tue Oct 08 2024 10:07:27 GMT-0500 (Central Daylight Time),737398.5999999642,A,sta,O,a,124,1,583.0,736815.5999999642,7020,WL,B,12.0
7,12.496999979019165,immed,47503.000020980835,Tue Oct 08 2024 10:07:27 GMT-0500 (Central Daylight Time),737465.1999999881,A,star,O,r,55,1,649.6000000238419,736815.5999999642,7020,WL,B,12.0
7,13.164000034332275,immed,46835.999965667725,Tue Oct 08 2024 10:07:27 GMT-0500 (Central Daylight Time),738132.5999999642,A,starenter,O,enter,661,1,1317.0,736815.5999999642,7020,WL,B,12.0
7,13.513000011444092,immed,46486.99998855591,Tue Oct 08 2024 10:07:27 GMT-0500 (Central Daylight Time),738481.5,A,a,O,a,329,1,348.60000002384186,738132.8999999762,7020,WL,B,13.0
7,13.595999956130981,immed,46404.00004386902,Tue Oct 08 2024 10:07:27 GMT-0500 (Central Daylight Time),738564.6999999881,A,ar,O,r,76,1,431.80000001192093,738132.8999999762,7020,WL,B,13.0
7,13.730999946594238,immed,46269.00005340576,Tue Oct 08 2024 10:07:27 GMT-0500 (Central Daylight Time),738699.0999999642,A,arm,O,m,113,1,566.1999999880791,738132.8999999762,7020,WL,B,13.0
7,14.046000003814697,immed,45953.9999961853,Tue Oct 08 2024 10:07:27 GMT-0500 (Central Daylight Time),739014.6999999881,A,armenter,O,enter,299,1,881.8000000119209,738132.8999999762,7020,WL,B,13.0
7,14.26199984550476,immed,45738.00015449524,Tue Oct 08 2024 10:07:27 GMT-0500 (Central Daylight Time),739230.8999999762,A,g,O,g,207,1,215.89999997615814,739015.0,7020,WL,B,14.0
