block_c,block_dur,condition,countdown,datetime,endtime,list,multichar_response,project,response,response_time,session_number,start_end,starttime,subject_id,task,task_vers,trial
,,,,Thu Mar 13 2025 11:30:44 GMT-0500 (Central Daylight Time),,,,O,space,648,1,,,7077,WL,C,
prac,,0,,Thu Mar 13 2025 11:30:44 GMT-0500 (Central Daylight Time),,NA,b,O,b,4288,1,,,7077,WL,C,1.0
prac,,0,,Thu Mar 13 2025 11:30:44 GMT-0500 (Central Daylight Time),,NA,bo,O,o,320,1,,,7077,WL,C,1.0
prac,,0,,Thu Mar 13 2025 11:30:44 GMT-0500 (Central Daylight Time),,NA,boo,O,o,99,1,,,7077,WL,C,1.0
prac,,0,,Thu Mar 13 2025 11:30:44 GMT-0500 (Central Daylight Time),,NA,booo,O,o,279,1,,,7077,WL,C,1.0
prac,,0,,Thu Mar 13 2025 11:30:44 GMT-0500 (Central Daylight Time),,NA,boo,O,backspace,1315,1,,,7077,WL,C,1.0
prac,,0,,Thu Mar 13 2025 11:30:44 GMT-0500 (Central Daylight Time),,NA,boos,O,s,426,1,,,7077,WL,C,1.0
prac,,0,,Thu Mar 13 2025 11:30:44 GMT-0500 (Central Daylight Time),,NA,boost,O,t,124,1,,,7077,WL,C,1.0
prac,,0,,Thu Mar 13 2025 11:30:44 GMT-0500 (Central Daylight Time),,NA,boostenter,O,enter,1834,1,,,7077,WL,C,1.0
1,2.315999984741211,learn,57684.00001525879,Thu Mar 13 2025 11:30:44 GMT-0500 (Central Daylight Time),151413.80000000075,A,t,O,t,2299,1,2315.7000000011176,149098.09999999963,7077,WL,C,1.0
1,2.499000072479248,learn,57500.99992752075,Thu Mar 13 2025 11:30:44 GMT-0500 (Central Daylight Time),151597.0,A,to,O,o,174,1,2498.9000000003725,149098.09999999963,7077,WL,C,1.0
1,2.931999921798706,learn,57068.000078201294,Thu Mar 13 2025 11:30:44 GMT-0500 (Central Daylight Time),152030.09999999963,A,tow,O,w,416,1,2932.0,149098.09999999963,7077,WL,C,1.0
1,3.3320000171661377,learn,56667.99998283386,Thu Mar 13 2025 11:30:44 GMT-0500 (Central Daylight Time),152430.0,A,towe,O,e,391,1,3331.9000000003725,149098.09999999963,7077,WL,C,1.0
1,3.5149998664855957,learn,56485.000133514404,Thu Mar 13 2025 11:30:44 GMT-0500 (Central Daylight Time),152613.19999999925,A,tower,O,r,167,1,3515.0999999996275,149098.09999999963,7077,WL,C,1.0
1,6.230999946594238,learn,53769.00005340576,Thu Mar 13 2025 11:30:44 GMT-0500 (Central Daylight Time),155329.09999999963,A,towerenter,O,enter,2694,1,6231.0,149098.09999999963,7077,WL,C,1.0
1,7.414000034332275,learn,52585.999965667725,Thu Mar 13 2025 11:30:44 GMT-0500 (Central Daylight Time),156512.19999999925,A,w,O,w,1162,1,1182.2999999988824,155329.90000000037,7077,WL,C,2.0
1,8.113999843597412,learn,51886.00015640259,Thu Mar 13 2025 11:30:44 GMT-0500 (Central Daylight Time),157212.0,A,wh,O,h,685,1,1882.0999999996275,155329.90000000037,7077,WL,C,2.0
1,8.363999843597412,learn,51636.00015640259,Thu Mar 13 2025 11:30:44 GMT-0500 (Central Daylight Time),157461.90000000037,A,whe,O,e,241,1,2132.0,155329.90000000037,7077,WL,C,2.0
1,8.596999883651733,learn,51403.00011634827,Thu Mar 13 2025 11:30:44 GMT-0500 (Central Daylight Time),157695.09999999963,A,whea,O,a,222,1,2365.199999999255,155329.90000000037,7077,WL,C,2.0
1,8.746999979019165,learn,51253.000020980835,Thu Mar 13 2025 11:30:44 GMT-0500 (Central Daylight Time),157845.0,A,wheat,O,t,134,1,2515.0999999996275,155329.90000000037,7077,WL,C,2.0
1,9.647000074386597,learn,50352.9999256134,Thu Mar 13 2025 11:30:44 GMT-0500 (Central Daylight Time),158744.59999999963,A,wheatenter,O,enter,879,1,3414.699999999255,155329.90000000037,7077,WL,C,2.0
1,11.562999963760376,learn,48437.000036239624,Thu Mar 13 2025 11:30:44 GMT-0500 (Central Daylight Time),160660.80000000075,A,q,O,q,1908,1,1915.7000000011176,158745.09999999963,7077,WL,C,3.0
1,11.845999956130981,learn,48154.00004386902,Thu Mar 13 2025 11:30:44 GMT-0500 (Central Daylight Time),160943.90000000037,A,qu,O,u,264,1,2198.800000000745,158745.09999999963,7077,WL,C,3.0
1,12.078999996185303,learn,47921.0000038147,Thu Mar 13 2025 11:30:44 GMT-0500 (Central Daylight Time),161177.40000000037,A,que,O,e,213,1,2432.300000000745,158745.09999999963,7077,WL,C,3.0
1,12.213000059127808,learn,47786.99994087219,Thu Mar 13 2025 11:30:44 GMT-0500 (Central Daylight Time),161310.69999999925,A,quee,O,e,123,1,2565.5999999996275,158745.09999999963,7077,WL,C,3.0
1,12.478999853134155,learn,47521.000146865845,Thu Mar 13 2025 11:30:44 GMT-0500 (Central Daylight Time),161577.09999999963,A,queen,O,n,245,1,2832.0,158745.09999999963,7077,WL,C,3.0
1,14.26199984550476,learn,45738.00015449524,Thu Mar 13 2025 11:30:44 GMT-0500 (Central Daylight Time),163359.80000000075,A,queenenter,O,enter,1764,1,4614.700000001118,158745.09999999963,7077,WL,C,3.0
1,16.32800006866455,learn,43671.99993133545,Thu Mar 13 2025 11:30:44 GMT-0500 (Central Daylight Time),165426.09999999963,A,s,O,s,2045,1,2065.7999999988824,163360.30000000075,7077,WL,C,4.0
1,16.57800006866455,learn,43421.99993133545,Thu Mar 13 2025 11:30:44 GMT-0500 (Central Daylight Time),165675.90000000037,A,su,O,u,242,1,2315.5999999996275,163360.30000000075,7077,WL,C,4.0
1,16.861000061035156,learn,43138.999938964844,Thu Mar 13 2025 11:30:44 GMT-0500 (Central Daylight Time),165958.90000000037,A,sug,O,g,265,1,2598.5999999996275,163360.30000000075,7077,WL,C,4.0
1,17.0939998626709,learn,42906.0001373291,Thu Mar 13 2025 11:30:44 GMT-0500 (Central Daylight Time),166192.19999999925,A,suga,O,a,222,1,2831.89999999851,163360.30000000075,7077,WL,C,4.0
1,17.26099991798401,learn,42739.00008201599,Thu Mar 13 2025 11:30:44 GMT-0500 (Central Daylight Time),166358.90000000037,A,sugar,O,r,156,1,2998.5999999996275,163360.30000000075,7077,WL,C,4.0
1,17.74399995803833,learn,42256.00004196167,Thu Mar 13 2025 11:30:44 GMT-0500 (Central Daylight Time),166842.09999999963,A,sugarenter,O,enter,478,1,3481.7999999988824,163360.30000000075,7077,WL,C,4.0
1,19.876999855041504,learn,40123.000144958496,Thu Mar 13 2025 11:30:44 GMT-0500 (Central Daylight Time),168974.90000000037,A,b,O,b,2123,1,2132.5999999996275,166842.30000000075,7077,WL,C,5.0
1,20.210000038146973,learn,39789.99996185303,Thu Mar 13 2025 11:30:44 GMT-0500 (Central Daylight Time),169308.0,A,be,O,e,326,1,2465.699999999255,166842.30000000075,7077,WL,C,5.0
1,20.443000078201294,learn,39556.999921798706,Thu Mar 13 2025 11:30:44 GMT-0500 (Central Daylight Time),169541.5,A,bel,O,l,217,1,2699.199999999255,166842.30000000075,7077,WL,C,5.0
1,20.592999935150146,learn,39407.00006484985,Thu Mar 13 2025 11:30:44 GMT-0500 (Central Daylight Time),169691.19999999925,A,bell,O,l,144,1,2848.89999999851,166842.30000000075,7077,WL,C,5.0
1,21.109999895095825,learn,38890.000104904175,Thu Mar 13 2025 11:30:44 GMT-0500 (Central Daylight Time),170207.69999999925,A,bellenter,O,enter,498,1,3365.39999999851,166842.30000000075,7077,WL,C,5.0
1,23.30900001525879,learn,36690.99998474121,Thu Mar 13 2025 11:30:44 GMT-0500 (Central Daylight Time),172406.90000000037,A,b,O,b,2189,1,2198.800000000745,170208.09999999963,7077,WL,C,6.0
1,23.575999975204468,learn,36424.00002479553,Thu Mar 13 2025 11:30:44 GMT-0500 (Central Daylight Time),172673.90000000037,A,bo,O,o,246,1,2465.800000000745,170208.09999999963,7077,WL,C,6.0
1,24.075999975204468,learn,35924.00002479553,Thu Mar 13 2025 11:30:44 GMT-0500 (Central Daylight Time),173173.59999999963,A,boy,O,y,483,1,2965.5,170208.09999999963,7077,WL,C,6.0
1,24.658999919891357,learn,35341.00008010864,Thu Mar 13 2025 11:30:44 GMT-0500 (Central Daylight Time),173756.80000000075,A,boyenter,O,enter,575,1,3548.7000000011176,170208.09999999963,7077,WL,C,6.0
1,25.891000032424927,learn,34108.99996757507,Thu Mar 13 2025 11:30:44 GMT-0500 (Central Daylight Time),174989.5,A,b,O,b,1223,1,1232.4000000003725,173757.09999999963,7077,WL,C,7.0
1,26.075000047683716,learn,33924.999952316284,Thu Mar 13 2025 11:30:44 GMT-0500 (Central Daylight Time),175172.69999999925,A,bo,O,o,174,1,1415.5999999996275,173757.09999999963,7077,WL,C,7.0
1,26.323999881744385,learn,33676.000118255615,Thu Mar 13 2025 11:30:44 GMT-0500 (Central Daylight Time),175422.69999999925,A,bod,O,d,232,1,1665.5999999996275,173757.09999999963,7077,WL,C,7.0
1,26.69000005722046,learn,33309.99994277954,Thu Mar 13 2025 11:30:44 GMT-0500 (Central Daylight Time),175789.40000000037,A,body,O,y,358,1,2032.300000000745,173757.09999999963,7077,WL,C,7.0
1,27.872999906539917,learn,32127.000093460083,Thu Mar 13 2025 11:30:44 GMT-0500 (Central Daylight Time),176972.30000000075,A,bodyenter,O,enter,1168,1,3215.2000000011176,173757.09999999963,7077,WL,C,7.0
1,28.77300000190735,learn,31226.99999809265,Thu Mar 13 2025 11:30:44 GMT-0500 (Central Daylight Time),177871.90000000037,A,c,O,c,881,1,899.3000000007451,176972.59999999963,7077,WL,C,8.0
1,29.056999921798706,learn,30943.000078201294,Thu Mar 13 2025 11:30:44 GMT-0500 (Central Daylight Time),178156.5,A,ca,O,a,269,1,1183.9000000003725,176972.59999999963,7077,WL,C,8.0
1,29.25600004196167,learn,30743.99995803833,Thu Mar 13 2025 11:30:44 GMT-0500 (Central Daylight Time),178355.19999999925,A,cal,O,l,184,1,1382.5999999996275,176972.59999999963,7077,WL,C,8.0
1,29.388999938964844,learn,30611.000061035156,Thu Mar 13 2025 11:30:44 GMT-0500 (Central Daylight Time),178488.5,A,call,O,l,114,1,1515.9000000003725,176972.59999999963,7077,WL,C,8.0
1,31.33899998664856,learn,28661.00001335144,Thu Mar 13 2025 11:30:44 GMT-0500 (Central Daylight Time),180438.0,A,callenter,O,enter,1941,1,3465.4000000003725,176972.59999999963,7077,WL,C,8.0
1,44.18499994277954,learn,15815.000057220459,Thu Mar 13 2025 11:30:44 GMT-0500 (Central Daylight Time),193284.0,A,f,O,f,12838,1,12845.699999999255,180438.30000000075,7077,WL,C,9.0
1,44.401999950408936,learn,15598.000049591064,Thu Mar 13 2025 11:30:44 GMT-0500 (Central Daylight Time),193500.59999999963,A,fa,O,a,209,1,13062.299999998882,180438.30000000075,7077,WL,C,9.0
1,44.71799993515015,learn,15282.000064849854,Thu Mar 13 2025 11:30:44 GMT-0500 (Central Daylight Time),193817.09999999963,A,fac,O,c,304,1,13378.799999998882,180438.30000000075,7077,WL,C,9.0
1,44.95099997520447,learn,15049.000024795532,Thu Mar 13 2025 11:30:44 GMT-0500 (Central Daylight Time),194050.19999999925,A,face,O,e,220,1,13611.89999999851,180438.30000000075,7077,WL,C,9.0
1,45.401000022888184,learn,14598.999977111816,Thu Mar 13 2025 11:30:44 GMT-0500 (Central Daylight Time),194500.09999999963,A,faceenter,O,enter,435,1,14061.799999998882,180438.30000000075,7077,WL,C,9.0
1,60.01300001144409,learn,-13.000011444091797,Thu Mar 13 2025 11:30:44 GMT-0500 (Central Daylight Time),209112.19999999925,A,None,O,None,14607,1,14611.799999998882,194500.40000000037,7077,WL,C,10.0
2,1.0989999771118164,learn,58901.00002288818,Thu Mar 13 2025 11:30:44 GMT-0500 (Central Daylight Time),280573.19999999925,A,t,O,t,1083,1,1098.5,279474.69999999925,7077,WL,C,1.0
2,1.3489999771118164,learn,58651.00002288818,Thu Mar 13 2025 11:30:44 GMT-0500 (Central Daylight Time),280823.0999999996,A,to,O,o,231,1,1348.4000000003725,279474.69999999925,7077,WL,C,1.0
2,1.6489999294281006,learn,58351.0000705719,Thu Mar 13 2025 11:30:44 GMT-0500 (Central Daylight Time),281123.0,A,tow,O,w,286,1,1648.300000000745,279474.69999999925,7077,WL,C,1.0
2,1.864999771118164,learn,58135.000228881836,Thu Mar 13 2025 11:30:44 GMT-0500 (Central Daylight Time),281339.5999999996,A,towe,O,e,202,1,1864.9000000003725,279474.69999999925,7077,WL,C,1.0
2,2.364999771118164,learn,57635.000228881836,Thu Mar 13 2025 11:30:44 GMT-0500 (Central Daylight Time),281839.5,A,tower,O,r,490,1,2364.800000000745,279474.69999999925,7077,WL,C,1.0
2,3.3319997787475586,learn,56668.00022125244,Thu Mar 13 2025 11:30:44 GMT-0500 (Central Daylight Time),282805.69999999925,A,towerenter,O,enter,949,1,3331.0,279474.69999999925,7077,WL,C,1.0
2,4.047999858856201,learn,55952.0001411438,Thu Mar 13 2025 11:30:44 GMT-0500 (Central Daylight Time),283522.19999999925,A,w,O,w,711,1,716.0999999996275,282806.0999999996,7077,WL,C,2.0
2,4.330999851226807,learn,55669.00014877319,Thu Mar 13 2025 11:30:44 GMT-0500 (Central Daylight Time),283805.5999999996,A,wh,O,h,267,1,999.5,282806.0999999996,7077,WL,C,2.0
2,4.747999906539917,learn,55252.00009346008,Thu Mar 13 2025 11:30:44 GMT-0500 (Central Daylight Time),284222.30000000075,A,whe,O,e,408,1,1416.2000000011176,282806.0999999996,7077,WL,C,2.0
2,5.0309998989105225,learn,54969.00010108948,Thu Mar 13 2025 11:30:44 GMT-0500 (Central Daylight Time),284505.4000000004,A,whea,O,a,262,1,1699.300000000745,282806.0999999996,7077,WL,C,2.0
2,5.21399998664856,learn,54786.00001335144,Thu Mar 13 2025 11:30:44 GMT-0500 (Central Daylight Time),284688.5,A,wheat,O,t,170,1,1882.4000000003725,282806.0999999996,7077,WL,C,2.0
2,5.596999883651733,learn,54403.00011634827,Thu Mar 13 2025 11:30:44 GMT-0500 (Central Daylight Time),285071.69999999925,A,wheatenter,O,enter,373,1,2265.5999999996275,282806.0999999996,7077,WL,C,2.0
2,6.763999938964844,learn,53236.000061035156,Thu Mar 13 2025 11:30:44 GMT-0500 (Central Daylight Time),286238.0999999996,A,q,O,q,1149,1,1166.0999999996275,285072.0,7077,WL,C,3.0
2,6.96399998664856,learn,53036.00001335144,Thu Mar 13 2025 11:30:44 GMT-0500 (Central Daylight Time),286437.9000000004,A,qu,O,u,191,1,1365.9000000003725,285072.0,7077,WL,C,3.0
2,7.129999876022339,learn,52870.00012397766,Thu Mar 13 2025 11:30:44 GMT-0500 (Central Daylight Time),286604.5,A,que,O,e,159,1,1532.5,285072.0,7077,WL,C,3.0
2,7.263999938964844,learn,52736.000061035156,Thu Mar 13 2025 11:30:44 GMT-0500 (Central Daylight Time),286738.0,A,quee,O,e,129,1,1666.0,285072.0,7077,WL,C,3.0
2,7.5299999713897705,learn,52470.00002861023,Thu Mar 13 2025 11:30:44 GMT-0500 (Central Daylight Time),287004.4000000004,A,queen,O,n,251,1,1932.4000000003725,285072.0,7077,WL,C,3.0
2,7.996999979019165,learn,52003.000020980835,Thu Mar 13 2025 11:30:44 GMT-0500 (Central Daylight Time),287470.9000000004,A,queenenter,O,enter,456,1,2398.9000000003725,285072.0,7077,WL,C,3.0
2,11.44599986076355,learn,48554.00013923645,Thu Mar 13 2025 11:30:44 GMT-0500 (Central Daylight Time),290919.9000000004,A,s,O,s,3438,1,3448.800000000745,287471.0999999996,7077,WL,C,4.0
2,11.728999853134155,learn,48271.000146865845,Thu Mar 13 2025 11:30:44 GMT-0500 (Central Daylight Time),291203.0999999996,A,su,O,u,269,1,3732.0,287471.0999999996,7077,WL,C,4.0
2,11.995999813079834,learn,48004.000186920166,Thu Mar 13 2025 11:30:44 GMT-0500 (Central Daylight Time),291469.9000000004,A,sug,O,g,249,1,3998.800000000745,287471.0999999996,7077,WL,C,4.0
2,12.178999900817871,learn,47821.00009918213,Thu Mar 13 2025 11:30:44 GMT-0500 (Central Daylight Time),291652.9000000004,A,suga,O,a,175,1,4181.800000000745,287471.0999999996,7077,WL,C,4.0
2,12.450999975204468,learn,47549.00002479553,Thu Mar 13 2025 11:30:44 GMT-0500 (Central Daylight Time),291925.19999999925,A,sugar,O,r,267,1,4454.0999999996275,287471.0999999996,7077,WL,C,4.0
2,12.678999900817871,learn,47321.00009918213,Thu Mar 13 2025 11:30:44 GMT-0500 (Central Daylight Time),292153.4000000004,A,sugarenter,O,enter,208,1,4682.300000000745,287471.0999999996,7077,WL,C,4.0
2,13.27899980545044,learn,46721.00019454956,Thu Mar 13 2025 11:30:44 GMT-0500 (Central Daylight Time),292753.0,A,h,O,h,580,1,599.4000000003725,292153.5999999996,7077,WL,C,5.0
2,13.444999933242798,learn,46555.0000667572,Thu Mar 13 2025 11:30:44 GMT-0500 (Central Daylight Time),292919.4000000004,A,ho,O,o,148,1,765.8000000007451,292153.5999999996,7077,WL,C,5.0
2,13.644999980926514,learn,46355.000019073486,Thu Mar 13 2025 11:30:44 GMT-0500 (Central Daylight Time),293119.19999999925,A,hom,O,m,190,1,965.5999999996275,292153.5999999996,7077,WL,C,5.0
2,13.811999797821045,learn,46188.000202178955,Thu Mar 13 2025 11:30:44 GMT-0500 (Central Daylight Time),293286.0,A,home,O,e,150,1,1132.4000000003725,292153.5999999996,7077,WL,C,5.0
2,14.327999830245972,learn,45672.00016975403,Thu Mar 13 2025 11:30:44 GMT-0500 (Central Daylight Time),293802.4000000004,A,homeenter,O,enter,503,1,1648.800000000745,292153.5999999996,7077,WL,C,5.0
2,17.80899977684021,learn,42191.00022315979,Thu Mar 13 2025 11:30:44 GMT-0500 (Central Daylight Time),297284.5999999996,A,b,O,b,3475,1,3481.9000000003725,293802.69999999925,7077,WL,C,6.0
2,17.992999792099,learn,42007.000207901,Thu Mar 13 2025 11:30:44 GMT-0500 (Central Daylight Time),297467.9000000004,A,bo,O,o,169,1,3665.2000000011176,293802.69999999925,7077,WL,C,6.0
2,18.55899977684021,learn,41441.00022315979,Thu Mar 13 2025 11:30:44 GMT-0500 (Central Daylight Time),298034.30000000075,A,boy,O,y,545,1,4231.60000000149,293802.69999999925,7077,WL,C,6.0
2,19.275999784469604,learn,40724.000215530396,Thu Mar 13 2025 11:30:44 GMT-0500 (Central Daylight Time),298750.9000000004,A,boyenter,O,enter,699,1,4948.200000001118,293802.69999999925,7077,WL,C,6.0
2,20.542999982833862,learn,39457.00001716614,Thu Mar 13 2025 11:30:44 GMT-0500 (Central Daylight Time),300017.80000000075,A,d,O,d,1263,1,1266.6000000014901,298751.19999999925,7077,WL,C,7.0
2,20.741999864578247,learn,39258.00013542175,Thu Mar 13 2025 11:30:44 GMT-0500 (Central Daylight Time),300217.0999999996,A,do,O,o,187,1,1465.9000000003725,298751.19999999925,7077,WL,C,7.0
2,21.025999784469604,learn,38974.000215530396,Thu Mar 13 2025 11:30:44 GMT-0500 (Central Daylight Time),300501.0999999996,A,doc,O,c,268,1,1749.9000000003725,298751.19999999925,7077,WL,C,7.0
2,21.357999801635742,learn,38642.00019836426,Thu Mar 13 2025 11:30:44 GMT-0500 (Central Daylight Time),300833.4000000004,A,doct,O,t,320,1,2082.2000000011176,298751.19999999925,7077,WL,C,7.0
2,21.524999856948853,learn,38475.00014305115,Thu Mar 13 2025 11:30:44 GMT-0500 (Central Daylight Time),301000.30000000075,A,docto,O,o,147,1,2249.10000000149,298751.19999999925,7077,WL,C,7.0
2,21.79099988937378,learn,38209.00011062622,Thu Mar 13 2025 11:30:44 GMT-0500 (Central Daylight Time),301266.4000000004,A,doctor,O,r,261,1,2515.2000000011176,298751.19999999925,7077,WL,C,7.0
2,22.573999881744385,learn,37426.000118255615,Thu Mar 13 2025 11:30:44 GMT-0500 (Central Daylight Time),302049.5,A,doctorenter,O,enter,771,1,3298.300000000745,298751.19999999925,7077,WL,C,7.0
2,24.323999881744385,learn,35676.000118255615,Thu Mar 13 2025 11:30:44 GMT-0500 (Central Daylight Time),303799.0999999996,A,s,O,s,1740,1,1749.2999999988824,302049.80000000075,7077,WL,C,8.0
2,24.473999977111816,learn,35526.00002288818,Thu Mar 13 2025 11:30:44 GMT-0500 (Central Daylight Time),303949.19999999925,A,sh,O,h,142,1,1899.3999999985099,302049.80000000075,7077,WL,C,8.0
2,24.69099998474121,learn,35309.00001525879,Thu Mar 13 2025 11:30:44 GMT-0500 (Central Daylight Time),304165.5999999996,A,sho,O,o,200,1,2115.7999999988824,302049.80000000075,7077,WL,C,8.0
2,24.906999826431274,learn,35093.000173568726,Thu Mar 13 2025 11:30:44 GMT-0500 (Central Daylight Time),304382.4000000004,A,shor,O,r,200,1,2332.5999999996275,302049.80000000075,7077,WL,C,8.0
2,24.990999937057495,learn,35009.000062942505,Thu Mar 13 2025 11:30:44 GMT-0500 (Central Daylight Time),304465.80000000075,A,shore,O,e,63,1,2416.0,302049.80000000075,7077,WL,C,8.0
2,25.45699977874756,learn,34543.00022125244,Thu Mar 13 2025 11:30:44 GMT-0500 (Central Daylight Time),304932.0,A,shoreenter,O,enter,460,1,2882.199999999255,302049.80000000075,7077,WL,C,8.0
2,27.056999921798706,learn,32943.000078201294,Thu Mar 13 2025 11:30:44 GMT-0500 (Central Daylight Time),306531.80000000075,A,c,O,c,1585,1,1599.4000000003725,304932.4000000004,7077,WL,C,9.0
2,27.306999921798706,learn,32693.000078201294,Thu Mar 13 2025 11:30:44 GMT-0500 (Central Daylight Time),306781.69999999925,A,ca,O,a,233,1,1849.2999999988824,304932.4000000004,7077,WL,C,9.0
2,27.489999771118164,learn,32510.000228881836,Thu Mar 13 2025 11:30:44 GMT-0500 (Central Daylight Time),306964.9000000004,A,cam,O,m,175,1,2032.5,304932.4000000004,7077,WL,C,9.0
2,27.85599994659424,learn,32144.00005340576,Thu Mar 13 2025 11:30:44 GMT-0500 (Central Daylight Time),307331.5,A,camp,O,p,352,1,2399.0999999996275,304932.4000000004,7077,WL,C,9.0
2,28.27300000190735,learn,31726.99999809265,Thu Mar 13 2025 11:30:44 GMT-0500 (Central Daylight Time),307748.0999999996,A,campenter,O,enter,402,1,2815.699999999255,304932.4000000004,7077,WL,C,9.0
2,29.10599994659424,learn,30894.00005340576,Thu Mar 13 2025 11:30:44 GMT-0500 (Central Daylight Time),308581.0999999996,A,f,O,f,816,1,832.6999999992549,307748.4000000004,7077,WL,C,10.0
2,29.306999921798706,learn,30693.000078201294,Thu Mar 13 2025 11:30:44 GMT-0500 (Central Daylight Time),308781.9000000004,A,fl,O,l,192,1,1033.5,307748.4000000004,7077,WL,C,10.0
2,29.488999843597412,learn,30511.000156402588,Thu Mar 13 2025 11:30:44 GMT-0500 (Central Daylight Time),308964.19999999925,A,fla,O,a,167,1,1215.7999999988824,307748.4000000004,7077,WL,C,10.0
2,30.138999938964844,learn,29861.000061035156,Thu Mar 13 2025 11:30:44 GMT-0500 (Central Daylight Time),309613.9000000004,A,flag,O,g,633,1,1865.5,307748.4000000004,7077,WL,C,10.0
2,31.271999835968018,learn,28728.000164031982,Thu Mar 13 2025 11:30:44 GMT-0500 (Central Daylight Time),310746.80000000075,A,flagenter,O,enter,1127,1,2998.4000000003725,307748.4000000004,7077,WL,C,10.0
2,60.01299977302551,learn,-12.999773025512695,Thu Mar 13 2025 11:30:44 GMT-0500 (Central Daylight Time),339487.80000000075,A,None,O,None,28737,1,28740.700000001118,310747.0999999996,7077,WL,C,11.0
3,2.565999984741211,learn,57434.00001525879,Thu Mar 13 2025 11:30:44 GMT-0500 (Central Daylight Time),410799.30000000075,A,t,O,t,2548,1,2565.9000000003725,408233.4000000004,7077,WL,C,1.0
3,2.732999801635742,learn,57267.00019836426,Thu Mar 13 2025 11:30:44 GMT-0500 (Central Daylight Time),410965.9000000004,A,to,O,o,149,1,2732.5,408233.4000000004,7077,WL,C,1.0
3,3.0829999446868896,learn,56917.00005531311,Thu Mar 13 2025 11:30:44 GMT-0500 (Central Daylight Time),411315.5999999996,A,tow,O,w,335,1,3082.199999999255,408233.4000000004,7077,WL,C,1.0
3,3.365999937057495,learn,56634.000062942505,Thu Mar 13 2025 11:30:44 GMT-0500 (Central Daylight Time),411598.80000000075,A,towe,O,e,266,1,3365.4000000003725,408233.4000000004,7077,WL,C,1.0
3,3.5989999771118164,learn,56401.00002288818,Thu Mar 13 2025 11:30:44 GMT-0500 (Central Daylight Time),411832.30000000075,A,tower,O,r,222,1,3598.9000000003725,408233.4000000004,7077,WL,C,1.0
3,3.9819998741149902,learn,56018.00012588501,Thu Mar 13 2025 11:30:44 GMT-0500 (Central Daylight Time),412215.19999999925,A,towerenter,O,enter,365,1,3981.7999999988824,408233.4000000004,7077,WL,C,1.0
3,6.497999906539917,learn,53502.00009346008,Thu Mar 13 2025 11:30:44 GMT-0500 (Central Daylight Time),414730.9000000004,A,w,O,w,2510,1,2515.4000000003725,412215.5,7077,WL,C,2.0
3,6.764999866485596,learn,53235.000133514404,Thu Mar 13 2025 11:30:44 GMT-0500 (Central Daylight Time),414997.69999999925,A,wh,O,h,258,1,2782.199999999255,412215.5,7077,WL,C,2.0
3,6.930999994277954,learn,53069.000005722046,Thu Mar 13 2025 11:30:44 GMT-0500 (Central Daylight Time),415164.19999999925,A,whe,O,e,152,1,2948.699999999255,412215.5,7077,WL,C,2.0
3,7.21399998664856,learn,52786.00001335144,Thu Mar 13 2025 11:30:44 GMT-0500 (Central Daylight Time),415447.69999999925,A,whea,O,a,273,1,3232.199999999255,412215.5,7077,WL,C,2.0
3,7.414000034332275,learn,52585.999965667725,Thu Mar 13 2025 11:30:44 GMT-0500 (Central Daylight Time),415647.4000000004,A,wheat,O,t,190,1,3431.9000000003725,412215.5,7077,WL,C,2.0
3,7.746999979019165,learn,52253.000020980835,Thu Mar 13 2025 11:30:44 GMT-0500 (Central Daylight Time),415980.80000000075,A,wheatenter,O,enter,326,1,3765.300000000745,412215.5,7077,WL,C,2.0
3,8.29699993133545,learn,51703.00006866455,Thu Mar 13 2025 11:30:44 GMT-0500 (Central Daylight Time),416530.5999999996,A,q,O,q,536,1,549.5,415981.0999999996,7077,WL,C,3.0
3,8.679999828338623,learn,51320.00017166138,Thu Mar 13 2025 11:30:44 GMT-0500 (Central Daylight Time),416914.0999999996,A,qu,O,u,363,1,933.0,415981.0999999996,7077,WL,C,3.0
3,8.929999828338623,learn,51070.00017166138,Thu Mar 13 2025 11:30:44 GMT-0500 (Central Daylight Time),417163.9000000004,A,que,O,e,235,1,1182.800000000745,415981.0999999996,7077,WL,C,3.0
3,9.079999923706055,learn,50920.000076293945,Thu Mar 13 2025 11:30:44 GMT-0500 (Central Daylight Time),417313.69999999925,A,quee,O,e,128,1,1332.5999999996275,415981.0999999996,7077,WL,C,3.0
3,9.312999963760376,learn,50687.000036239624,Thu Mar 13 2025 11:30:44 GMT-0500 (Central Daylight Time),417546.9000000004,A,queen,O,n,226,1,1565.800000000745,415981.0999999996,7077,WL,C,3.0
3,10.478999853134155,learn,49521.000146865845,Thu Mar 13 2025 11:30:44 GMT-0500 (Central Daylight Time),418713.19999999925,A,queenenter,O,enter,1147,1,2732.0999999996275,415981.0999999996,7077,WL,C,3.0
3,17.110999822616577,learn,42889.00017738342,Thu Mar 13 2025 11:30:44 GMT-0500 (Central Daylight Time),425344.5,A,b,O,b,6612,1,6631.0,418713.5,7077,WL,C,4.0
3,17.41100001335144,learn,42588.99998664856,Thu Mar 13 2025 11:30:44 GMT-0500 (Central Daylight Time),425644.5,A,bo,O,o,292,1,6931.0,418713.5,7077,WL,C,4.0
3,17.810999870300293,learn,42189.00012969971,Thu Mar 13 2025 11:30:44 GMT-0500 (Central Daylight Time),426044.19999999925,A,boy,O,y,384,1,7330.699999999255,418713.5,7077,WL,C,4.0
3,19.276999950408936,learn,40723.000049591064,Thu Mar 13 2025 11:30:44 GMT-0500 (Central Daylight Time),427510.5999999996,A,boyenter,O,enter,1449,1,8797.099999999627,418713.5,7077,WL,C,4.0
3,20.075999975204468,learn,39924.00002479553,Thu Mar 13 2025 11:30:44 GMT-0500 (Central Daylight Time),428310.0999999996,A,h,O,h,783,1,799.1999999992549,427510.9000000004,7077,WL,C,5.0
3,20.325999975204468,learn,39674.00002479553,Thu Mar 13 2025 11:30:44 GMT-0500 (Central Daylight Time),428560.0,A,ho,O,o,231,1,1049.0999999996275,427510.9000000004,7077,WL,C,5.0
3,20.575999975204468,learn,39424.00002479553,Thu Mar 13 2025 11:30:44 GMT-0500 (Central Daylight Time),428810.0,A,hom,O,m,229,1,1299.0999999996275,427510.9000000004,7077,WL,C,5.0
3,20.859999895095825,learn,39140.000104904175,Thu Mar 13 2025 11:30:44 GMT-0500 (Central Daylight Time),429093.30000000075,A,home,O,e,267,1,1582.4000000003725,427510.9000000004,7077,WL,C,5.0
3,22.29199981689453,learn,37708.00018310547,Thu Mar 13 2025 11:30:44 GMT-0500 (Central Daylight Time),430526.0999999996,A,homeenter,O,enter,1424,1,3015.199999999255,427510.9000000004,7077,WL,C,5.0
3,22.842000007629395,learn,37157.999992370605,Thu Mar 13 2025 11:30:44 GMT-0500 (Central Daylight Time),431076.0,A,s,O,s,535,1,549.6999999992549,430526.30000000075,7077,WL,C,6.0
3,23.274999856948853,learn,36725.00014305115,Thu Mar 13 2025 11:30:44 GMT-0500 (Central Daylight Time),431509.0999999996,A,su,O,u,417,1,982.7999999988824,430526.30000000075,7077,WL,C,6.0
3,23.592000007629395,learn,36407.999992370605,Thu Mar 13 2025 11:30:44 GMT-0500 (Central Daylight Time),431825.5999999996,A,sug,O,g,295,1,1299.2999999988824,430526.30000000075,7077,WL,C,6.0
3,23.842000007629395,learn,36157.999992370605,Thu Mar 13 2025 11:30:44 GMT-0500 (Central Daylight Time),432075.80000000075,A,suga,O,a,244,1,1549.5,430526.30000000075,7077,WL,C,6.0
3,24.024999856948853,learn,35975.00014305115,Thu Mar 13 2025 11:30:44 GMT-0500 (Central Daylight Time),432259.0,A,sugar,O,r,169,1,1732.699999999255,430526.30000000075,7077,WL,C,6.0
3,24.674999952316284,learn,35325.000047683716,Thu Mar 13 2025 11:30:44 GMT-0500 (Central Daylight Time),432908.69999999925,A,sugarenter,O,enter,634,1,2382.39999999851,430526.30000000075,7077,WL,C,6.0
3,29.14199995994568,learn,30858.00004005432,Thu Mar 13 2025 11:30:44 GMT-0500 (Central Daylight Time),437375.9000000004,A,c,O,c,4457,1,4466.9000000003725,432909.0,7077,WL,C,7.0
3,29.406999826431274,learn,30593.000173568726,Thu Mar 13 2025 11:30:44 GMT-0500 (Central Daylight Time),437640.5999999996,A,ca,O,a,253,1,4731.5999999996275,432909.0,7077,WL,C,7.0
3,29.62399983406067,learn,30376.00016593933,Thu Mar 13 2025 11:30:44 GMT-0500 (Central Daylight Time),437857.4000000004,A,cam,O,m,196,1,4948.4000000003725,432909.0,7077,WL,C,7.0
3,29.990000009536743,learn,30009.999990463257,Thu Mar 13 2025 11:30:44 GMT-0500 (Central Daylight Time),438223.5999999996,A,camp,O,p,355,1,5314.5999999996275,432909.0,7077,WL,C,7.0
3,30.622999906539917,learn,29377.000093460083,Thu Mar 13 2025 11:30:44 GMT-0500 (Central Daylight Time),438856.9000000004,A,campenter,O,enter,622,1,5947.9000000003725,432909.0,7077,WL,C,7.0
3,32.02300000190735,learn,27976.99999809265,Thu Mar 13 2025 11:30:44 GMT-0500 (Central Daylight Time),440256.5,A,f,O,f,1389,1,1399.300000000745,438857.19999999925,7077,WL,C,8.0
3,32.25599980354309,learn,27744.00019645691,Thu Mar 13 2025 11:30:44 GMT-0500 (Central Daylight Time),440489.9000000004,A,fl,O,l,213,1,1632.7000000011176,438857.19999999925,7077,WL,C,8.0
3,32.43899989128113,learn,27561.000108718872,Thu Mar 13 2025 11:30:44 GMT-0500 (Central Daylight Time),440673.0,A,fla,O,a,162,1,1815.800000000745,438857.19999999925,7077,WL,C,8.0
3,32.789000034332275,learn,27210.999965667725,Thu Mar 13 2025 11:30:44 GMT-0500 (Central Daylight Time),441023.0,A,flag,O,g,340,1,2165.800000000745,438857.19999999925,7077,WL,C,8.0
3,33.18899989128113,learn,26811.000108718872,Thu Mar 13 2025 11:30:44 GMT-0500 (Central Daylight Time),441422.5999999996,A,flagenter,O,enter,382,1,2565.4000000003725,438857.19999999925,7077,WL,C,8.0
3,34.02199983596802,learn,25978.000164031982,Thu Mar 13 2025 11:30:44 GMT-0500 (Central Daylight Time),442255.80000000075,A,l,O,l,814,1,832.8000000007451,441423.0,7077,WL,C,9.0
3,34.30499982833862,learn,25695.000171661377,Thu Mar 13 2025 11:30:44 GMT-0500 (Central Daylight Time),442538.9000000004,A,le,O,e,269,1,1115.9000000003725,441423.0,7077,WL,C,9.0
3,34.65499997138977,learn,25345.00002861023,Thu Mar 13 2025 11:30:44 GMT-0500 (Central Daylight Time),442889.0999999996,A,let,O,t,329,1,1466.0999999996275,441423.0,7077,WL,C,9.0
3,34.789000034332275,learn,25210.999965667725,Thu Mar 13 2025 11:30:44 GMT-0500 (Central Daylight Time),443022.19999999925,A,lett,O,t,115,1,1599.199999999255,441423.0,7077,WL,C,9.0
3,35.08799982070923,learn,24912.00017929077,Thu Mar 13 2025 11:30:44 GMT-0500 (Central Daylight Time),443322.0999999996,A,lette,O,e,295,1,1899.0999999996275,441423.0,7077,WL,C,9.0
3,35.204999923706055,learn,24795.000076293945,Thu Mar 13 2025 11:30:44 GMT-0500 (Central Daylight Time),443438.5999999996,A,letter,O,r,107,1,2015.5999999996275,441423.0,7077,WL,C,9.0
3,36.870999813079834,learn,23129.000186920166,Thu Mar 13 2025 11:30:44 GMT-0500 (Central Daylight Time),445105.0,A,letterenter,O,enter,1647,1,3682.0,441423.0,7077,WL,C,9.0
3,37.65399980545044,learn,22346.00019454956,Thu Mar 13 2025 11:30:44 GMT-0500 (Central Daylight Time),445888.0999999996,A,d,O,d,764,1,782.7999999988824,445105.30000000075,7077,WL,C,10.0
3,37.853999853134155,learn,22146.000146865845,Thu Mar 13 2025 11:30:44 GMT-0500 (Central Daylight Time),446088.0,A,do,O,o,181,1,982.6999999992549,445105.30000000075,7077,WL,C,10.0
3,38.07099986076355,learn,21929.00013923645,Thu Mar 13 2025 11:30:44 GMT-0500 (Central Daylight Time),446304.69999999925,A,doc,O,c,205,1,1199.3999999985099,445105.30000000075,7077,WL,C,10.0
3,38.370999813079834,learn,21629.000186920166,Thu Mar 13 2025 11:30:44 GMT-0500 (Central Daylight Time),446604.69999999925,A,doct,O,t,293,1,1499.3999999985099,445105.30000000075,7077,WL,C,10.0
3,38.55399990081787,learn,21446.00009918213,Thu Mar 13 2025 11:30:44 GMT-0500 (Central Daylight Time),446787.80000000075,A,docto,O,o,177,1,1682.5,445105.30000000075,7077,WL,C,10.0
3,38.82099986076355,learn,21179.00013923645,Thu Mar 13 2025 11:30:44 GMT-0500 (Central Daylight Time),447054.30000000075,A,doctor,O,r,257,1,1949.0,445105.30000000075,7077,WL,C,10.0
3,39.48699998855591,learn,20513.00001144409,Thu Mar 13 2025 11:30:44 GMT-0500 (Central Daylight Time),447720.69999999925,A,doctorenter,O,enter,654,1,2615.39999999851,445105.30000000075,7077,WL,C,10.0
3,41.0699999332428,learn,18930.000066757202,Thu Mar 13 2025 11:30:44 GMT-0500 (Central Daylight Time),449303.5999999996,A,c,O,c,1565,1,1582.5999999996275,447721.0,7077,WL,C,11.0
3,41.23699998855591,learn,18763.00001144409,Thu Mar 13 2025 11:30:44 GMT-0500 (Central Daylight Time),449470.4000000004,A,co,O,o,158,1,1749.4000000003725,447721.0,7077,WL,C,11.0
3,41.40299987792969,learn,18597.000122070312,Thu Mar 13 2025 11:30:44 GMT-0500 (Central Daylight Time),449637.0,A,cor,O,r,151,1,1916.0,447721.0,7077,WL,C,11.0
3,41.669999837875366,learn,18330.000162124634,Thu Mar 13 2025 11:30:44 GMT-0500 (Central Daylight Time),449903.5,A,corn,O,n,256,1,2182.5,447721.0,7077,WL,C,11.0
3,42.85199999809265,learn,17148.00000190735,Thu Mar 13 2025 11:30:44 GMT-0500 (Central Daylight Time),451086.0999999996,A,cornenter,O,enter,1174,1,3365.0999999996275,447721.0,7077,WL,C,11.0
3,44.901999950408936,learn,15098.000049591064,Thu Mar 13 2025 11:30:44 GMT-0500 (Central Daylight Time),453135.9000000004,A,c,O,c,2030,1,2049.4000000003725,451086.5,7077,WL,C,12.0
3,45.18599987030029,learn,14814.000129699707,Thu Mar 13 2025 11:30:44 GMT-0500 (Central Daylight Time),453420.0999999996,A,ca,O,a,270,1,2333.5999999996275,451086.5,7077,WL,C,12.0
3,45.4689998626709,learn,14531.000137329102,Thu Mar 13 2025 11:30:44 GMT-0500 (Central Daylight Time),453702.30000000075,A,cat,O,t,273,1,2615.800000000745,451086.5,7077,WL,C,12.0
3,45.60199999809265,learn,14398.000001907349,Thu Mar 13 2025 11:30:44 GMT-0500 (Central Daylight Time),453835.5999999996,A,catt,O,t,119,1,2749.0999999996275,451086.5,7077,WL,C,12.0
3,45.91799998283386,learn,14082.000017166138,Thu Mar 13 2025 11:30:44 GMT-0500 (Central Daylight Time),454152.0,A,cattl,O,l,298,1,3065.5,451086.5,7077,WL,C,12.0
3,46.067999839782715,learn,13932.000160217285,Thu Mar 13 2025 11:30:44 GMT-0500 (Central Daylight Time),454302.0,A,cattle,O,e,133,1,3215.5,451086.5,7077,WL,C,12.0
3,46.41799998283386,learn,13582.000017166138,Thu Mar 13 2025 11:30:44 GMT-0500 (Central Daylight Time),454652.0,A,cattleenter,O,enter,335,1,3565.5,451086.5,7077,WL,C,12.0
3,48.00099992752075,learn,11999.000072479248,Thu Mar 13 2025 11:30:44 GMT-0500 (Central Daylight Time),456234.5999999996,A,s,O,s,1578,1,1582.2999999988824,454652.30000000075,7077,WL,C,13.0
3,48.21799993515015,learn,11782.000064849854,Thu Mar 13 2025 11:30:44 GMT-0500 (Central Daylight Time),456451.4000000004,A,sh,O,h,203,1,1799.0999999996275,454652.30000000075,7077,WL,C,13.0
3,48.45099997520447,learn,11549.000024795532,Thu Mar 13 2025 11:30:44 GMT-0500 (Central Daylight Time),456684.5,A,sho,O,o,226,1,2032.199999999255,454652.30000000075,7077,WL,C,13.0
3,48.59599995613098,learn,11404.000043869019,Thu Mar 13 2025 11:30:44 GMT-0500 (Central Daylight Time),456829.4000000004,A,shor,O,r,140,1,2177.0999999996275,454652.30000000075,7077,WL,C,13.0
3,48.71799993515015,learn,11282.000064849854,Thu Mar 13 2025 11:30:44 GMT-0500 (Central Daylight Time),456951.19999999925,A,shore,O,e,102,1,2298.89999999851,454652.30000000075,7077,WL,C,13.0
3,50.0,learn,10000.0,Thu Mar 13 2025 11:30:44 GMT-0500 (Central Daylight Time),458234.0999999996,A,shoreenter,O,enter,1261,1,3581.7999999988824,454652.30000000075,7077,WL,C,13.0
3,52.68299984931946,learn,7317.000150680542,Thu Mar 13 2025 11:30:44 GMT-0500 (Central Daylight Time),460916.5999999996,A,b,O,b,2667,1,2682.199999999255,458234.4000000004,7077,WL,C,14.0
3,52.91599988937378,learn,7084.000110626221,Thu Mar 13 2025 11:30:44 GMT-0500 (Central Daylight Time),461149.9000000004,A,bo,O,o,224,1,2915.5,458234.4000000004,7077,WL,C,14.0
3,53.21599984169006,learn,6784.0001583099365,Thu Mar 13 2025 11:30:44 GMT-0500 (Central Daylight Time),461449.80000000075,A,bod,O,d,279,1,3215.4000000003725,458234.4000000004,7077,WL,C,14.0
3,53.51600003242493,learn,6483.999967575073,Thu Mar 13 2025 11:30:44 GMT-0500 (Central Daylight Time),461749.80000000075,A,body,O,y,283,1,3515.4000000003725,458234.4000000004,7077,WL,C,14.0
3,54.31599998474121,learn,5684.000015258789,Thu Mar 13 2025 11:30:44 GMT-0500 (Central Daylight Time),462549.5999999996,A,bodyenter,O,enter,783,1,4315.199999999255,458234.4000000004,7077,WL,C,14.0
3,60.013999938964844,learn,-13.99993896484375,Thu Mar 13 2025 11:30:44 GMT-0500 (Central Daylight Time),468247.69999999925,A,None,O,None,5694,1,5697.799999998882,462549.9000000004,7077,WL,C,15.0
4,0.81600022315979,learn,59183.99977684021,Thu Mar 13 2025 11:30:44 GMT-0500 (Central Daylight Time),536909.5999999996,A,t,O,t,809,1,816.2999999988824,536093.3000000007,7077,WL,C,1.0
4,1.0990002155303955,learn,58900.999784469604,Thu Mar 13 2025 11:30:44 GMT-0500 (Central Daylight Time),537192.6999999993,A,to,O,o,263,1,1099.3999999985099,536093.3000000007,7077,WL,C,1.0
4,1.4000000953674316,learn,58599.99990463257,Thu Mar 13 2025 11:30:44 GMT-0500 (Central Daylight Time),537492.6999999993,A,tow,O,w,285,1,1399.3999999985099,536093.3000000007,7077,WL,C,1.0
4,1.6660001277923584,learn,58333.99987220764,Thu Mar 13 2025 11:30:44 GMT-0500 (Central Daylight Time),537759.5,A,towe,O,e,256,1,1666.199999999255,536093.3000000007,7077,WL,C,1.0
4,1.9160001277923584,learn,58083.99987220764,Thu Mar 13 2025 11:30:44 GMT-0500 (Central Daylight Time),538009.0999999996,A,tower,O,r,228,1,1915.7999999988824,536093.3000000007,7077,WL,C,1.0
4,2.366000175476074,learn,57633.999824523926,Thu Mar 13 2025 11:30:44 GMT-0500 (Central Daylight Time),538459.0,A,towerenter,O,enter,444,1,2365.699999999255,536093.3000000007,7077,WL,C,1.0
4,3.5320000648498535,learn,56467.99993515015,Thu Mar 13 2025 11:30:44 GMT-0500 (Central Daylight Time),539625.4000000004,A,w,O,w,1147,1,1166.0999999996275,538459.3000000007,7077,WL,C,2.0
4,3.7320001125335693,learn,56267.99988746643,Thu Mar 13 2025 11:30:44 GMT-0500 (Central Daylight Time),539825.1999999993,A,wh,O,h,188,1,1365.8999999985099,538459.3000000007,7077,WL,C,2.0
4,4.332000017166138,learn,55667.99998283386,Thu Mar 13 2025 11:30:44 GMT-0500 (Central Daylight Time),540425.0999999996,A,whe,O,e,588,1,1965.7999999988824,538459.3000000007,7077,WL,C,2.0
4,4.565000057220459,learn,55434.99994277954,Thu Mar 13 2025 11:30:44 GMT-0500 (Central Daylight Time),540658.3000000007,A,whea,O,a,228,1,2199.0,538459.3000000007,7077,WL,C,2.0
4,4.765000104904175,learn,55234.999895095825,Thu Mar 13 2025 11:30:44 GMT-0500 (Central Daylight Time),540858.1999999993,A,wheat,O,t,195,1,2398.89999999851,538459.3000000007,7077,WL,C,2.0
4,5.299000024795532,learn,54700.99997520447,Thu Mar 13 2025 11:30:44 GMT-0500 (Central Daylight Time),541391.6999999993,A,wheatenter,O,enter,523,1,2932.39999999851,538459.3000000007,7077,WL,C,2.0
4,6.898000001907349,learn,53101.99999809265,Thu Mar 13 2025 11:30:44 GMT-0500 (Central Daylight Time),542991.0,A,q,O,q,1590,1,1599.0,541392.0,7077,WL,C,3.0
4,7.13100004196167,learn,52868.99995803833,Thu Mar 13 2025 11:30:44 GMT-0500 (Central Daylight Time),543224.0,A,qu,O,u,222,1,1832.0,541392.0,7077,WL,C,3.0
4,7.331000089645386,learn,52668.999910354614,Thu Mar 13 2025 11:30:44 GMT-0500 (Central Daylight Time),543424.0999999996,A,que,O,e,181,1,2032.0999999996275,541392.0,7077,WL,C,3.0
4,7.464000225067139,learn,52535.99977493286,Thu Mar 13 2025 11:30:44 GMT-0500 (Central Daylight Time),543557.4000000004,A,quee,O,e,124,1,2165.4000000003725,541392.0,7077,WL,C,3.0
4,7.714000225067139,learn,52285.99977493286,Thu Mar 13 2025 11:30:44 GMT-0500 (Central Daylight Time),543807.3000000007,A,queen,O,n,231,1,2415.300000000745,541392.0,7077,WL,C,3.0
4,8.097000122070312,learn,51902.99987792969,Thu Mar 13 2025 11:30:44 GMT-0500 (Central Daylight Time),544190.5999999996,A,queenenter,O,enter,366,1,2798.5999999996275,541392.0,7077,WL,C,3.0
4,10.513000011444092,learn,49486.99998855591,Thu Mar 13 2025 11:30:44 GMT-0500 (Central Daylight Time),546606.6999999993,A,s,O,s,2399,1,2415.7999999988824,544190.9000000004,7077,WL,C,4.0
4,10.797000169754028,learn,49202.99983024597,Thu Mar 13 2025 11:30:44 GMT-0500 (Central Daylight Time),546890.0,A,su,O,u,263,1,2699.0999999996275,544190.9000000004,7077,WL,C,4.0
4,11.063000202178955,learn,48936.999797821045,Thu Mar 13 2025 11:30:44 GMT-0500 (Central Daylight Time),547156.3000000007,A,sug,O,g,251,1,2965.4000000003725,544190.9000000004,7077,WL,C,4.0
4,11.296000003814697,learn,48703.9999961853,Thu Mar 13 2025 11:30:44 GMT-0500 (Central Daylight Time),547389.5999999996,A,suga,O,a,225,1,3198.699999999255,544190.9000000004,7077,WL,C,4.0
4,11.480000019073486,learn,48519.999980926514,Thu Mar 13 2025 11:30:44 GMT-0500 (Central Daylight Time),547572.9000000004,A,sugar,O,r,168,1,3382.0,544190.9000000004,7077,WL,C,4.0
4,11.896000146865845,learn,48103.999853134155,Thu Mar 13 2025 11:30:44 GMT-0500 (Central Daylight Time),547989.4000000004,A,sugarenter,O,enter,409,1,3798.5,544190.9000000004,7077,WL,C,4.0
4,13.279000043869019,learn,46720.99995613098,Thu Mar 13 2025 11:30:44 GMT-0500 (Central Daylight Time),549372.1999999993,A,h,O,h,1368,1,1382.5,547989.6999999993,7077,WL,C,5.0
4,13.496000051498413,learn,46503.99994850159,Thu Mar 13 2025 11:30:44 GMT-0500 (Central Daylight Time),549588.8000000007,A,ho,O,o,201,1,1599.1000000014901,547989.6999999993,7077,WL,C,5.0
4,13.696000099182129,learn,46303.99990081787,Thu Mar 13 2025 11:30:44 GMT-0500 (Central Daylight Time),549788.9000000004,A,hom,O,m,193,1,1799.2000000011176,547989.6999999993,7077,WL,C,5.0
4,13.829000234603882,learn,46170.99976539612,Thu Mar 13 2025 11:30:44 GMT-0500 (Central Daylight Time),549922.0999999996,A,home,O,e,121,1,1932.4000000003725,547989.6999999993,7077,WL,C,5.0
4,14.295000076293945,learn,45704.999923706055,Thu Mar 13 2025 11:30:44 GMT-0500 (Central Daylight Time),550388.6999999993,A,homeenter,O,enter,459,1,2399.0,547989.6999999993,7077,WL,C,5.0
4,16.228000164031982,learn,43771.99983596802,Thu Mar 13 2025 11:30:44 GMT-0500 (Central Daylight Time),552321.3000000007,A,b,O,b,1921,1,1932.300000000745,550389.0,7077,WL,C,6.0
4,16.478000164031982,learn,43521.99983596802,Thu Mar 13 2025 11:30:44 GMT-0500 (Central Daylight Time),552571.4000000004,A,bo,O,o,235,1,2182.4000000003725,550389.0,7077,WL,C,6.0
4,17.028000116348267,learn,42971.99988365173,Thu Mar 13 2025 11:30:44 GMT-0500 (Central Daylight Time),553121.0,A,boy,O,y,529,1,2732.0,550389.0,7077,WL,C,6.0
4,17.9280002117157,learn,42071.9997882843,Thu Mar 13 2025 11:30:44 GMT-0500 (Central Daylight Time),554020.9000000004,A,boyenter,O,enter,892,1,3631.9000000003725,550389.0,7077,WL,C,6.0
4,20.677000045776367,learn,39322.99995422363,Thu Mar 13 2025 11:30:44 GMT-0500 (Central Daylight Time),556769.9000000004,A,d,O,d,2737,1,2748.5999999996275,554021.3000000007,7077,WL,C,7.0
4,20.89300012588501,learn,39106.99987411499,Thu Mar 13 2025 11:30:44 GMT-0500 (Central Daylight Time),556986.5,A,do,O,o,211,1,2965.199999999255,554021.3000000007,7077,WL,C,7.0
4,21.110000133514404,learn,38889.999866485596,Thu Mar 13 2025 11:30:44 GMT-0500 (Central Daylight Time),557203.3000000007,A,doc,O,c,210,1,3182.0,554021.3000000007,7077,WL,C,7.0
4,21.443000078201294,learn,38556.999921798706,Thu Mar 13 2025 11:30:44 GMT-0500 (Central Daylight Time),557536.4000000004,A,doct,O,t,314,1,3515.0999999996275,554021.3000000007,7077,WL,C,7.0
4,21.66000008583069,learn,38339.99991416931,Thu Mar 13 2025 11:30:44 GMT-0500 (Central Daylight Time),557753.0,A,docto,O,o,196,1,3731.699999999255,554021.3000000007,7077,WL,C,7.0
4,21.877000093460083,learn,38122.99990653992,Thu Mar 13 2025 11:30:44 GMT-0500 (Central Daylight Time),557969.8000000007,A,doctor,O,r,211,1,3948.5,554021.3000000007,7077,WL,C,7.0
4,22.759000062942505,learn,37240.999937057495,Thu Mar 13 2025 11:30:44 GMT-0500 (Central Daylight Time),558852.6999999993,A,doctorenter,O,enter,868,1,4831.39999999851,554021.3000000007,7077,WL,C,7.0
4,23.29300022125244,learn,36706.99977874756,Thu Mar 13 2025 11:30:44 GMT-0500 (Central Daylight Time),559385.9000000004,A,c,O,c,521,1,532.8000000007451,558853.0999999996,7077,WL,C,8.0
4,23.54200005531311,learn,36457.99994468689,Thu Mar 13 2025 11:30:44 GMT-0500 (Central Daylight Time),559635.8000000007,A,ca,O,a,235,1,782.7000000011176,558853.0999999996,7077,WL,C,8.0
4,23.676000118255615,learn,36323.999881744385,Thu Mar 13 2025 11:30:44 GMT-0500 (Central Daylight Time),559768.9000000004,A,cam,O,m,122,1,915.8000000007451,558853.0999999996,7077,WL,C,8.0
4,23.992000102996826,learn,36007.999897003174,Thu Mar 13 2025 11:30:44 GMT-0500 (Central Daylight Time),560085.6999999993,A,camp,O,p,301,1,1232.5999999996275,558853.0999999996,7077,WL,C,8.0
4,24.37600016593933,learn,35623.99983406067,Thu Mar 13 2025 11:30:44 GMT-0500 (Central Daylight Time),560469.0,A,campenter,O,enter,375,1,1615.9000000003725,558853.0999999996,7077,WL,C,8.0
4,26.908000230789185,learn,33091.999769210815,Thu Mar 13 2025 11:30:44 GMT-0500 (Central Daylight Time),563001.4000000004,A,f,O,f,2520,1,2532.0999999996275,560469.3000000007,7077,WL,C,9.0
4,27.19100022315979,learn,32808.99977684021,Thu Mar 13 2025 11:30:44 GMT-0500 (Central Daylight Time),563284.6999999993,A,fl,O,l,267,1,2815.39999999851,560469.3000000007,7077,WL,C,9.0
4,27.391000032424927,learn,32608.999967575073,Thu Mar 13 2025 11:30:44 GMT-0500 (Central Daylight Time),563484.6999999993,A,fla,O,a,185,1,3015.39999999851,560469.3000000007,7077,WL,C,9.0
4,27.891000032424927,learn,32108.999967575073,Thu Mar 13 2025 11:30:44 GMT-0500 (Central Daylight Time),563984.4000000004,A,flag,O,g,480,1,3515.0999999996275,560469.3000000007,7077,WL,C,9.0
4,28.391000032424927,learn,31608.999967575073,Thu Mar 13 2025 11:30:44 GMT-0500 (Central Daylight Time),564484.0999999996,A,flagenter,O,enter,485,1,4014.7999999988824,560469.3000000007,7077,WL,C,9.0
4,32.123000144958496,learn,27876.999855041504,Thu Mar 13 2025 11:30:44 GMT-0500 (Central Daylight Time),568216.3000000007,A,l,O,l,3721,1,3731.800000000745,564484.5,7077,WL,C,10.0
4,32.34000015258789,learn,27659.99984741211,Thu Mar 13 2025 11:30:44 GMT-0500 (Central Daylight Time),568433.0,A,le,O,e,205,1,3948.5,564484.5,7077,WL,C,10.0
4,32.60600018501282,learn,27393.999814987183,Thu Mar 13 2025 11:30:44 GMT-0500 (Central Daylight Time),568699.5,A,let,O,t,260,1,4215.0,564484.5,7077,WL,C,10.0
4,32.75600004196167,learn,27243.99995803833,Thu Mar 13 2025 11:30:44 GMT-0500 (Central Daylight Time),568849.5,A,lett,O,t,138,1,4365.0,564484.5,7077,WL,C,10.0
4,32.98900008201599,learn,27010.99991798401,Thu Mar 13 2025 11:30:44 GMT-0500 (Central Daylight Time),569082.6999999993,A,lette,O,e,219,1,4598.199999999255,564484.5,7077,WL,C,10.0
4,33.10600018501282,learn,26893.999814987183,Thu Mar 13 2025 11:30:44 GMT-0500 (Central Daylight Time),569199.3000000007,A,letter,O,r,99,1,4714.800000000745,564484.5,7077,WL,C,10.0
4,33.706000089645386,learn,26293.999910354614,Thu Mar 13 2025 11:30:44 GMT-0500 (Central Daylight Time),569799.0,A,letterenter,O,enter,581,1,5314.5,564484.5,7077,WL,C,10.0
4,36.122000217437744,learn,23877.999782562256,Thu Mar 13 2025 11:30:44 GMT-0500 (Central Daylight Time),572215.3000000007,A,c,O,c,2407,1,2416.0,569799.3000000007,7077,WL,C,11.0
4,36.42200016975403,learn,23577.99983024597,Thu Mar 13 2025 11:30:44 GMT-0500 (Central Daylight Time),572515.3000000007,A,co,O,o,286,1,2716.0,569799.3000000007,7077,WL,C,11.0
4,36.72200012207031,learn,23277.999877929688,Thu Mar 13 2025 11:30:44 GMT-0500 (Central Daylight Time),572814.9000000004,A,cor,O,r,290,1,3015.5999999996275,569799.3000000007,7077,WL,C,11.0
4,37.771000146865845,learn,22228.999853134155,Thu Mar 13 2025 11:30:44 GMT-0500 (Central Daylight Time),573864.5999999996,A,corn,O,n,1038,1,4065.2999999988824,569799.3000000007,7077,WL,C,11.0
4,38.41300010681152,learn,21586.999893188477,Thu Mar 13 2025 11:30:44 GMT-0500 (Central Daylight Time),574506.4000000004,A,cornenter,O,enter,637,1,4707.0999999996275,569799.3000000007,7077,WL,C,11.0
4,40.38700008392334,learn,19612.99991607666,Thu Mar 13 2025 11:30:44 GMT-0500 (Central Daylight Time),576480.5,A,n,O,n,1954,1,1973.9000000003725,574506.5999999996,7077,WL,C,12.0
4,40.73700022697449,learn,19262.999773025513,Thu Mar 13 2025 11:30:44 GMT-0500 (Central Daylight Time),576830.3000000007,A,na,O,a,341,1,2323.7000000011176,574506.5999999996,7077,WL,C,12.0
4,41.02000021934509,learn,18979.999780654907,Thu Mar 13 2025 11:30:44 GMT-0500 (Central Daylight Time),577113.6999999993,A,nai,O,i,271,1,2607.0999999996275,574506.5999999996,7077,WL,C,12.0
4,41.78700017929077,learn,18212.99982070923,Thu Mar 13 2025 11:30:44 GMT-0500 (Central Daylight Time),577880.0,A,nail,O,l,747,1,3373.4000000003725,574506.5999999996,7077,WL,C,12.0
4,42.37000012397766,learn,17629.99987602234,Thu Mar 13 2025 11:30:44 GMT-0500 (Central Daylight Time),578463.0,A,nailenter,O,enter,565,1,3956.4000000003725,574506.5999999996,7077,WL,C,12.0
4,45.11900019645691,learn,14880.99980354309,Thu Mar 13 2025 11:30:44 GMT-0500 (Central Daylight Time),581212.1999999993,A,c,O,c,2734,1,2748.7999999988824,578463.4000000004,7077,WL,C,13.0
4,45.385000228881836,learn,14614.999771118164,Thu Mar 13 2025 11:30:44 GMT-0500 (Central Daylight Time),581478.6999999993,A,ca,O,a,249,1,3015.2999999988824,578463.4000000004,7077,WL,C,13.0
4,45.652000188827515,learn,14347.999811172485,Thu Mar 13 2025 11:30:44 GMT-0500 (Central Daylight Time),581745.4000000004,A,cat,O,t,255,1,3282.0,578463.4000000004,7077,WL,C,13.0
4,45.80200004577637,learn,14197.999954223633,Thu Mar 13 2025 11:30:44 GMT-0500 (Central Daylight Time),581895.4000000004,A,catt,O,t,131,1,3432.0,578463.4000000004,7077,WL,C,13.0
4,46.03500008583069,learn,13964.999914169312,Thu Mar 13 2025 11:30:44 GMT-0500 (Central Daylight Time),582128.6999999993,A,cattl,O,l,221,1,3665.2999999988824,578463.4000000004,7077,WL,C,13.0
4,46.152000188827515,learn,13847.999811172485,Thu Mar 13 2025 11:30:44 GMT-0500 (Central Daylight Time),582245.1999999993,A,cattle,O,e,100,1,3781.7999999988824,578463.4000000004,7077,WL,C,13.0
4,46.66900014877319,learn,13330.999851226807,Thu Mar 13 2025 11:30:44 GMT-0500 (Central Daylight Time),582762.0,A,cattleenter,O,enter,512,1,4298.5999999996275,578463.4000000004,7077,WL,C,13.0
4,50.10200023651123,learn,9897.99976348877,Thu Mar 13 2025 11:30:44 GMT-0500 (Central Daylight Time),586195.4000000004,A,b,O,b,3411,1,3433.0999999996275,582762.3000000007,7077,WL,C,14.0
4,50.33400011062622,learn,9665.99988937378,Thu Mar 13 2025 11:30:44 GMT-0500 (Central Daylight Time),586427.4000000004,A,bo,O,o,226,1,3665.0999999996275,582762.3000000007,7077,WL,C,14.0
4,50.68400001525879,learn,9315.999984741211,Thu Mar 13 2025 11:30:44 GMT-0500 (Central Daylight Time),586777.1999999993,A,bod,O,d,338,1,4014.89999999851,582762.3000000007,7077,WL,C,14.0
4,51.00100016593933,learn,8998.999834060669,Thu Mar 13 2025 11:30:44 GMT-0500 (Central Daylight Time),587094.0999999996,A,body,O,y,300,1,4331.799999998882,582762.3000000007,7077,WL,C,14.0
4,52.08400011062622,learn,7915.999889373779,Thu Mar 13 2025 11:30:44 GMT-0500 (Central Daylight Time),588177.0,A,bodyenter,O,enter,1063,1,5414.699999999255,582762.3000000007,7077,WL,C,14.0
4,53.30000019073486,learn,6699.999809265137,Thu Mar 13 2025 11:30:44 GMT-0500 (Central Daylight Time),589393.0,A,s,O,s,1196,1,1215.5999999996275,588177.4000000004,7077,WL,C,15.0
4,53.51700019836426,learn,6482.999801635742,Thu Mar 13 2025 11:30:44 GMT-0500 (Central Daylight Time),589609.9000000004,A,sh,O,h,211,1,1432.5,588177.4000000004,7077,WL,C,15.0
4,53.83300018310547,learn,6166.999816894531,Thu Mar 13 2025 11:30:44 GMT-0500 (Central Daylight Time),589926.1999999993,A,sho,O,o,308,1,1748.7999999988824,588177.4000000004,7077,WL,C,15.0
4,54.199000120162964,learn,5800.999879837036,Thu Mar 13 2025 11:30:44 GMT-0500 (Central Daylight Time),590292.6999999993,A,shor,O,r,358,1,2115.2999999988824,588177.4000000004,7077,WL,C,15.0
4,54.79900002479553,learn,5200.999975204468,Thu Mar 13 2025 11:30:44 GMT-0500 (Central Daylight Time),590892.5999999996,A,shore,O,e,584,1,2715.199999999255,588177.4000000004,7077,WL,C,15.0
4,56.449000120162964,learn,3550.999879837036,Thu Mar 13 2025 11:30:44 GMT-0500 (Central Daylight Time),592542.3000000007,A,shoreenter,O,enter,1633,1,4364.9000000003725,588177.4000000004,7077,WL,C,15.0
5,1.067000150680542,learn,60000.0,Thu Mar 13 2025 11:30:44 GMT-0500 (Central Daylight Time),662154.0999999996,A,t,O,t,1062,1,1066.5999999996275,661087.5,7077,WL,C,1.0
5,1.3990001678466797,learn,60000.0,Thu Mar 13 2025 11:30:44 GMT-0500 (Central Daylight Time),662487.0,A,to,O,o,323,1,1399.5,661087.5,7077,WL,C,1.0
5,1.6990001201629639,learn,60000.0,Thu Mar 13 2025 11:30:44 GMT-0500 (Central Daylight Time),662786.6999999993,A,tow,O,w,286,1,1699.199999999255,661087.5,7077,WL,C,1.0
5,1.9660000801086426,learn,60000.0,Thu Mar 13 2025 11:30:44 GMT-0500 (Central Daylight Time),663053.3000000007,A,towe,O,e,259,1,1965.800000000745,661087.5,7077,WL,C,1.0
5,2.2160000801086426,learn,60000.0,Thu Mar 13 2025 11:30:44 GMT-0500 (Central Daylight Time),663303.1999999993,A,tower,O,r,232,1,2215.699999999255,661087.5,7077,WL,C,1.0
5,2.616000175476074,learn,60000.0,Thu Mar 13 2025 11:30:44 GMT-0500 (Central Daylight Time),663703.0999999996,A,towerenter,O,enter,390,1,2615.5999999996275,661087.5,7077,WL,C,1.0
5,3.249000072479248,learn,60000.0,Thu Mar 13 2025 11:30:44 GMT-0500 (Central Daylight Time),664336.0999999996,A,w,O,w,623,1,632.6999999992549,663703.4000000004,7077,WL,C,2.0
5,3.499000072479248,learn,60000.0,Thu Mar 13 2025 11:30:44 GMT-0500 (Central Daylight Time),664586.0999999996,A,wh,O,h,237,1,882.6999999992549,663703.4000000004,7077,WL,C,2.0
5,3.7980000972747803,learn,60000.0,Thu Mar 13 2025 11:30:44 GMT-0500 (Central Daylight Time),664886.0,A,whe,O,e,291,1,1182.5999999996275,663703.4000000004,7077,WL,C,2.0
5,4.082000017166138,learn,60000.0,Thu Mar 13 2025 11:30:44 GMT-0500 (Central Daylight Time),665169.4000000004,A,whea,O,a,262,1,1466.0,663703.4000000004,7077,WL,C,2.0
5,4.2820000648498535,learn,60000.0,Thu Mar 13 2025 11:30:44 GMT-0500 (Central Daylight Time),665369.5,A,wheat,O,t,179,1,1666.0999999996275,663703.4000000004,7077,WL,C,2.0
5,5.015000104904175,learn,60000.0,Thu Mar 13 2025 11:30:44 GMT-0500 (Central Daylight Time),666102.3000000007,A,wheatenter,O,enter,724,1,2398.9000000003725,663703.4000000004,7077,WL,C,2.0
5,6.064000129699707,learn,60000.0,Thu Mar 13 2025 11:30:44 GMT-0500 (Central Daylight Time),667151.9000000004,A,q,O,q,1030,1,1049.2000000011176,666102.6999999993,7077,WL,C,3.0
5,6.266000032424927,learn,60000.0,Thu Mar 13 2025 11:30:44 GMT-0500 (Central Daylight Time),667353.0,A,qu,O,u,189,1,1250.300000000745,666102.6999999993,7077,WL,C,3.0
5,6.481000185012817,learn,60000.0,Thu Mar 13 2025 11:30:44 GMT-0500 (Central Daylight Time),667568.5999999996,A,que,O,e,203,1,1465.9000000003725,666102.6999999993,7077,WL,C,3.0
5,6.614000082015991,learn,60000.0,Thu Mar 13 2025 11:30:44 GMT-0500 (Central Daylight Time),667701.6999999993,A,quee,O,e,117,1,1599.0,666102.6999999993,7077,WL,C,3.0
5,6.8480000495910645,learn,60000.0,Thu Mar 13 2025 11:30:44 GMT-0500 (Central Daylight Time),667935.0999999996,A,queen,O,n,215,1,1832.4000000003725,666102.6999999993,7077,WL,C,3.0
5,7.461000204086304,learn,60000.0,Thu Mar 13 2025 11:30:44 GMT-0500 (Central Daylight Time),668548.5999999996,A,queenenter,O,enter,608,1,2445.9000000003725,666102.6999999993,7077,WL,C,3.0
5,8.930000066757202,learn,60000.0,Thu Mar 13 2025 11:30:44 GMT-0500 (Central Daylight Time),670018.0,A,s,O,s,1457,1,1469.199999999255,668548.8000000007,7077,WL,C,4.0
5,9.19700002670288,learn,60000.0,Thu Mar 13 2025 11:30:44 GMT-0500 (Central Daylight Time),670284.5,A,su,O,u,252,1,1735.699999999255,668548.8000000007,7077,WL,C,4.0
5,9.44700002670288,learn,60000.0,Thu Mar 13 2025 11:30:44 GMT-0500 (Central Daylight Time),670534.3000000007,A,sug,O,g,241,1,1985.5,668548.8000000007,7077,WL,C,4.0
5,9.713000059127808,learn,60000.0,Thu Mar 13 2025 11:30:44 GMT-0500 (Central Daylight Time),670800.9000000004,A,suga,O,a,255,1,2252.0999999996275,668548.8000000007,7077,WL,C,4.0
5,9.880000114440918,learn,60000.0,Thu Mar 13 2025 11:30:44 GMT-0500 (Central Daylight Time),670967.5,A,sugar,O,r,156,1,2418.699999999255,668548.8000000007,7077,WL,C,4.0
5,10.396000146865845,learn,60000.0,Thu Mar 13 2025 11:30:44 GMT-0500 (Central Daylight Time),671483.9000000004,A,sugarenter,O,enter,510,1,2935.0999999996275,668548.8000000007,7077,WL,C,4.0
5,11.84600019454956,learn,60000.0,Thu Mar 13 2025 11:30:44 GMT-0500 (Central Daylight Time),672933.5999999996,A,h,O,h,1434,1,1449.4000000003725,671484.1999999993,7077,WL,C,5.0
5,12.09600019454956,learn,60000.0,Thu Mar 13 2025 11:30:44 GMT-0500 (Central Daylight Time),673183.4000000004,A,ho,O,o,232,1,1699.2000000011176,671484.1999999993,7077,WL,C,5.0
5,12.34600019454956,learn,60000.0,Thu Mar 13 2025 11:30:44 GMT-0500 (Central Daylight Time),673433.4000000004,A,hom,O,m,238,1,1949.2000000011176,671484.1999999993,7077,WL,C,5.0
5,12.546000003814697,learn,60000.0,Thu Mar 13 2025 11:30:44 GMT-0500 (Central Daylight Time),673633.3000000007,A,home,O,e,188,1,2149.10000000149,671484.1999999993,7077,WL,C,5.0
5,13.01200008392334,learn,60000.0,Thu Mar 13 2025 11:30:44 GMT-0500 (Central Daylight Time),674099.9000000004,A,homeenter,O,enter,460,1,2615.7000000011176,671484.1999999993,7077,WL,C,5.0
5,14.111999988555908,learn,60000.0,Thu Mar 13 2025 11:30:44 GMT-0500 (Central Daylight Time),675199.5,A,b,O,b,1090,1,1099.199999999255,674100.3000000007,7077,WL,C,6.0
5,14.34500002861023,learn,60000.0,Thu Mar 13 2025 11:30:44 GMT-0500 (Central Daylight Time),675432.5,A,bo,O,o,213,1,1332.199999999255,674100.3000000007,7077,WL,C,6.0
5,14.67799997329712,learn,60000.0,Thu Mar 13 2025 11:30:44 GMT-0500 (Central Daylight Time),675766.0999999996,A,boy,O,y,325,1,1665.7999999988824,674100.3000000007,7077,WL,C,6.0
5,15.228000164031982,learn,60000.0,Thu Mar 13 2025 11:30:44 GMT-0500 (Central Daylight Time),676316.0,A,boyenter,O,enter,536,1,2215.699999999255,674100.3000000007,7077,WL,C,6.0
5,17.611000061035156,learn,60000.0,Thu Mar 13 2025 11:30:44 GMT-0500 (Central Daylight Time),678698.3000000007,A,d,O,d,2378,1,2382.0,676316.3000000007,7077,WL,C,7.0
5,17.811000108718872,learn,60000.0,Thu Mar 13 2025 11:30:44 GMT-0500 (Central Daylight Time),678898.1999999993,A,do,O,o,194,1,2581.89999999851,676316.3000000007,7077,WL,C,7.0
5,18.127000093460083,learn,60000.0,Thu Mar 13 2025 11:30:44 GMT-0500 (Central Daylight Time),679214.8000000007,A,doc,O,c,307,1,2898.5,676316.3000000007,7077,WL,C,7.0
5,18.41100001335144,learn,60000.0,Thu Mar 13 2025 11:30:44 GMT-0500 (Central Daylight Time),679498.1999999993,A,doct,O,t,270,1,3181.89999999851,676316.3000000007,7077,WL,C,7.0
5,18.861000061035156,learn,60000.0,Thu Mar 13 2025 11:30:44 GMT-0500 (Central Daylight Time),679948.1999999993,A,docto,O,o,435,1,3631.89999999851,676316.3000000007,7077,WL,C,7.0
5,19.094000101089478,learn,60000.0,Thu Mar 13 2025 11:30:44 GMT-0500 (Central Daylight Time),680181.3000000007,A,doctor,O,r,223,1,3865.0,676316.3000000007,7077,WL,C,7.0
5,19.97699999809265,learn,60000.0,Thu Mar 13 2025 11:30:44 GMT-0500 (Central Daylight Time),681064.3000000007,A,doctorenter,O,enter,872,1,4748.0,676316.3000000007,7077,WL,C,7.0
5,21.277000188827515,learn,60000.0,Thu Mar 13 2025 11:30:44 GMT-0500 (Central Daylight Time),682364.0,A,c,O,c,1285,1,1299.300000000745,681064.6999999993,7077,WL,C,8.0
5,21.542999982833862,learn,60000.0,Thu Mar 13 2025 11:30:44 GMT-0500 (Central Daylight Time),682630.5,A,ca,O,a,249,1,1565.800000000745,681064.6999999993,7077,WL,C,8.0
5,21.776000022888184,learn,60000.0,Thu Mar 13 2025 11:30:44 GMT-0500 (Central Daylight Time),682863.8000000007,A,cam,O,m,223,1,1799.1000000014901,681064.6999999993,7077,WL,C,8.0
5,22.159000158309937,learn,60000.0,Thu Mar 13 2025 11:30:44 GMT-0500 (Central Daylight Time),683246.9000000004,A,camp,O,p,366,1,2182.2000000011176,681064.6999999993,7077,WL,C,8.0
5,22.843000173568726,learn,60000.0,Thu Mar 13 2025 11:30:44 GMT-0500 (Central Daylight Time),683930.3000000007,A,campenter,O,enter,662,1,2865.60000000149,681064.6999999993,7077,WL,C,8.0
5,25.142000198364258,learn,60000.0,Thu Mar 13 2025 11:30:44 GMT-0500 (Central Daylight Time),686229.4000000004,A,l,O,l,2283,1,2298.7000000011176,683930.6999999993,7077,WL,C,9.0
5,25.508000135421753,learn,60000.0,Thu Mar 13 2025 11:30:44 GMT-0500 (Central Daylight Time),686595.9000000004,A,le,O,e,351,1,2665.2000000011176,683930.6999999993,7077,WL,C,9.0
5,25.79200005531311,learn,60000.0,Thu Mar 13 2025 11:30:44 GMT-0500 (Central Daylight Time),686879.0999999996,A,let,O,t,266,1,2948.4000000003725,683930.6999999993,7077,WL,C,9.0
5,25.925000190734863,learn,60000.0,Thu Mar 13 2025 11:30:44 GMT-0500 (Central Daylight Time),687012.5,A,lett,O,t,118,1,3081.800000000745,683930.6999999993,7077,WL,C,9.0
5,26.192000150680542,learn,60000.0,Thu Mar 13 2025 11:30:44 GMT-0500 (Central Daylight Time),687279.0,A,lette,O,e,249,1,3348.300000000745,683930.6999999993,7077,WL,C,9.0
5,26.27500009536743,learn,60000.0,Thu Mar 13 2025 11:30:44 GMT-0500 (Central Daylight Time),687362.1999999993,A,letter,O,r,78,1,3431.5,683930.6999999993,7077,WL,C,9.0
5,26.85800004005432,learn,60000.0,Thu Mar 13 2025 11:30:44 GMT-0500 (Central Daylight Time),687945.5,A,letterenter,O,enter,571,1,4014.800000000745,683930.6999999993,7077,WL,C,9.0
5,30.98900008201599,learn,60000.0,Thu Mar 13 2025 11:30:44 GMT-0500 (Central Daylight Time),692076.3000000007,A,c,O,c,3979,1,4130.5,687945.8000000007,7077,WL,C,10.0
5,31.192000150680542,learn,60000.0,Thu Mar 13 2025 11:30:44 GMT-0500 (Central Daylight Time),692279.1999999993,A,co,O,o,191,1,4333.39999999851,687945.8000000007,7077,WL,C,10.0
5,31.473000049591064,learn,60000.0,Thu Mar 13 2025 11:30:44 GMT-0500 (Central Daylight Time),692560.5999999996,A,cor,O,r,261,1,4614.799999998882,687945.8000000007,7077,WL,C,10.0
5,31.707000017166138,learn,60000.0,Thu Mar 13 2025 11:30:44 GMT-0500 (Central Daylight Time),692794.1999999993,A,corn,O,n,229,1,4848.39999999851,687945.8000000007,7077,WL,C,10.0
5,32.07300019264221,learn,60000.0,Thu Mar 13 2025 11:30:44 GMT-0500 (Central Daylight Time),693160.6999999993,A,cornenter,O,enter,347,1,5214.89999999851,687945.8000000007,7077,WL,C,10.0
5,32.805999994277954,learn,60000.0,Thu Mar 13 2025 11:30:44 GMT-0500 (Central Daylight Time),693893.1999999993,A,n,O,n,724,1,732.2999999988824,693160.9000000004,7077,WL,C,11.0
5,33.055999994277954,learn,60000.0,Thu Mar 13 2025 11:30:44 GMT-0500 (Central Daylight Time),694143.5999999996,A,na,O,a,233,1,982.6999999992549,693160.9000000004,7077,WL,C,11.0
5,33.206000089645386,learn,60000.0,Thu Mar 13 2025 11:30:44 GMT-0500 (Central Daylight Time),694293.5,A,nai,O,i,141,1,1132.5999999996275,693160.9000000004,7077,WL,C,11.0
5,33.805999994277954,learn,60000.0,Thu Mar 13 2025 11:30:44 GMT-0500 (Central Daylight Time),694893.5,A,nail,O,l,592,1,1732.5999999996275,693160.9000000004,7077,WL,C,11.0
5,34.22200012207031,learn,60000.0,Thu Mar 13 2025 11:30:44 GMT-0500 (Central Daylight Time),695309.8000000007,A,nailenter,O,enter,400,1,2148.9000000003725,693160.9000000004,7077,WL,C,11.0
5,34.72200012207031,learn,60000.0,Thu Mar 13 2025 11:30:44 GMT-0500 (Central Daylight Time),695810.0,A,c,O,c,496,1,499.80000000074506,695310.1999999993,7077,WL,C,12.0
5,34.97200012207031,learn,60000.0,Thu Mar 13 2025 11:30:44 GMT-0500 (Central Daylight Time),696059.6999999993,A,ca,O,a,243,1,749.5,695310.1999999993,7077,WL,C,12.0
5,35.23900008201599,learn,60000.0,Thu Mar 13 2025 11:30:44 GMT-0500 (Central Daylight Time),696326.3000000007,A,cat,O,t,257,1,1016.1000000014901,695310.1999999993,7077,WL,C,12.0
5,35.390000104904175,learn,60000.0,Thu Mar 13 2025 11:30:44 GMT-0500 (Central Daylight Time),696477.3000000007,A,catt,O,t,135,1,1167.1000000014901,695310.1999999993,7077,WL,C,12.0
5,35.621999979019165,learn,60000.0,Thu Mar 13 2025 11:30:44 GMT-0500 (Central Daylight Time),696709.5,A,cattl,O,l,216,1,1399.300000000745,695310.1999999993,7077,WL,C,12.0
5,35.705000162124634,learn,60000.0,Thu Mar 13 2025 11:30:44 GMT-0500 (Central Daylight Time),696792.8000000007,A,cattle,O,e,72,1,1482.6000000014901,695310.1999999993,7077,WL,C,12.0
5,36.438000202178955,learn,60000.0,Thu Mar 13 2025 11:30:44 GMT-0500 (Central Daylight Time),697525.8000000007,A,cattleenter,O,enter,717,1,2215.60000000149,695310.1999999993,7077,WL,C,12.0
5,40.63700008392334,learn,60000.0,Thu Mar 13 2025 11:30:44 GMT-0500 (Central Daylight Time),701724.3000000007,A,b,O,b,4192,1,4198.200000001118,697526.0999999996,7077,WL,C,13.0
5,40.98699998855591,learn,60000.0,Thu Mar 13 2025 11:30:44 GMT-0500 (Central Daylight Time),702074.3000000007,A,bo,O,o,329,1,4548.200000001118,697526.0999999996,7077,WL,C,13.0
5,41.32000017166138,learn,60000.0,Thu Mar 13 2025 11:30:44 GMT-0500 (Central Daylight Time),702407.6999999993,A,bod,O,d,323,1,4881.5999999996275,697526.0999999996,7077,WL,C,13.0
5,41.62000012397766,learn,60000.0,Thu Mar 13 2025 11:30:44 GMT-0500 (Central Daylight Time),702707.5999999996,A,body,O,y,294,1,5181.5,697526.0999999996,7077,WL,C,13.0
5,42.32000017166138,learn,60000.0,Thu Mar 13 2025 11:30:44 GMT-0500 (Central Daylight Time),703407.3000000007,A,bodyenter,O,enter,682,1,5881.200000001118,697526.0999999996,7077,WL,C,13.0
5,43.12000012397766,learn,60000.0,Thu Mar 13 2025 11:30:44 GMT-0500 (Central Daylight Time),704207.0,A,s,O,s,790,1,799.4000000003725,703407.5999999996,7077,WL,C,14.0
5,43.36900019645691,learn,60000.0,Thu Mar 13 2025 11:30:44 GMT-0500 (Central Daylight Time),704456.8000000007,A,sh,O,h,238,1,1049.2000000011176,703407.5999999996,7077,WL,C,14.0
5,43.586000204086304,learn,60000.0,Thu Mar 13 2025 11:30:44 GMT-0500 (Central Daylight Time),704673.6999999993,A,sho,O,o,196,1,1266.0999999996275,703407.5999999996,7077,WL,C,14.0
5,43.836000204086304,learn,60000.0,Thu Mar 13 2025 11:30:44 GMT-0500 (Central Daylight Time),704923.5999999996,A,shor,O,r,235,1,1516.0,703407.5999999996,7077,WL,C,14.0
5,44.069000005722046,learn,60000.0,Thu Mar 13 2025 11:30:44 GMT-0500 (Central Daylight Time),705156.8000000007,A,shore,O,e,226,1,1749.2000000011176,703407.5999999996,7077,WL,C,14.0
5,44.66900014877319,learn,60000.0,Thu Mar 13 2025 11:30:44 GMT-0500 (Central Daylight Time),705756.9000000004,A,shoreenter,O,enter,585,1,2349.300000000745,703407.5999999996,7077,WL,C,14.0
5,104.68300008773804,learn,60000.0,Thu Mar 13 2025 11:30:44 GMT-0500 (Central Daylight Time),765771.3000000007,A,None,O,None,60010,1,60014.10000000149,705757.1999999993,7077,WL,C,15.0
6,0.9499998092651367,distr,59050.00019073486,Thu Mar 13 2025 11:30:44 GMT-0500 (Central Daylight Time),851927.6999999993,B,s,O,s,932,1,949.6999999992549,850978.0,7077,WL,C,1.0
6,1.2159998416900635,distr,58784.00015830994,Thu Mar 13 2025 11:30:44 GMT-0500 (Central Daylight Time),852194.0999999996,B,sk,O,k,245,1,1216.0999999996275,850978.0,7077,WL,C,1.0
6,1.6319999694824219,distr,58368.00003051758,Thu Mar 13 2025 11:30:44 GMT-0500 (Central Daylight Time),852610.5999999996,B,sky,O,y,403,1,1632.5999999996275,850978.0,7077,WL,C,1.0
6,2.2159998416900635,distr,57784.00015830994,Thu Mar 13 2025 11:30:44 GMT-0500 (Central Daylight Time),853194.0,B,skyenter,O,enter,563,1,2216.0,850978.0,7077,WL,C,1.0
6,2.881999969482422,distr,57118.00003051758,Thu Mar 13 2025 11:30:44 GMT-0500 (Central Daylight Time),853860.4000000004,B,d,O,d,651,1,666.0,853194.4000000004,7077,WL,C,2.0
6,3.7149999141693115,distr,56285.00008583069,Thu Mar 13 2025 11:30:44 GMT-0500 (Central Daylight Time),854693.1999999993,B,do,O,o,817,1,1498.7999999988824,853194.4000000004,7077,WL,C,2.0
6,4.148000001907349,distr,55851.99999809265,Thu Mar 13 2025 11:30:44 GMT-0500 (Central Daylight Time),855126.5999999996,B,dol,O,l,416,1,1932.199999999255,853194.4000000004,7077,WL,C,2.0
6,4.297999858856201,distr,55702.0001411438,Thu Mar 13 2025 11:30:44 GMT-0500 (Central Daylight Time),855276.4000000004,B,doll,O,l,135,1,2082.0,853194.4000000004,7077,WL,C,2.0
6,4.4649999141693115,distr,55535.00008583069,Thu Mar 13 2025 11:30:44 GMT-0500 (Central Daylight Time),855442.8000000007,B,dolla,O,a,161,1,2248.4000000003725,853194.4000000004,7077,WL,C,2.0
6,4.747999906539917,distr,55252.00009346008,Thu Mar 13 2025 11:30:44 GMT-0500 (Central Daylight Time),855726.3000000007,B,dollar,O,r,267,1,2531.9000000003725,853194.4000000004,7077,WL,C,2.0
6,5.648000001907349,distr,54351.99999809265,Thu Mar 13 2025 11:30:44 GMT-0500 (Central Daylight Time),856626.1999999993,B,dollarenter,O,enter,895,1,3431.7999999988824,853194.4000000004,7077,WL,C,2.0
6,10.146999835968018,distr,49853.00016403198,Thu Mar 13 2025 11:30:44 GMT-0500 (Central Daylight Time),861124.8000000007,B,m,O,m,4491,1,4498.4000000003725,856626.4000000004,7077,WL,C,3.0
6,10.412999868392944,distr,49587.000131607056,Thu Mar 13 2025 11:30:44 GMT-0500 (Central Daylight Time),861391.0999999996,B,mo,O,o,256,1,4764.699999999255,856626.4000000004,7077,WL,C,3.0
6,10.679999828338623,distr,49320.00017166138,Thu Mar 13 2025 11:30:44 GMT-0500 (Central Daylight Time),861657.9000000004,B,mot,O,t,262,1,5031.5,856626.4000000004,7077,WL,C,3.0
6,10.878999948501587,distr,49121.00005149841,Thu Mar 13 2025 11:30:44 GMT-0500 (Central Daylight Time),861857.5999999996,B,moth,O,h,180,1,5231.199999999255,856626.4000000004,7077,WL,C,3.0
6,11.095999956130981,distr,48904.00004386902,Thu Mar 13 2025 11:30:44 GMT-0500 (Central Daylight Time),862074.3000000007,B,mothe,O,e,204,1,5447.9000000003725,856626.4000000004,7077,WL,C,3.0
6,11.162999868392944,distr,48837.000131607056,Thu Mar 13 2025 11:30:44 GMT-0500 (Central Daylight Time),862141.0999999996,B,mother,O,r,51,1,5514.699999999255,856626.4000000004,7077,WL,C,3.0
6,11.796000003814697,distr,48203.9999961853,Thu Mar 13 2025 11:30:44 GMT-0500 (Central Daylight Time),862774.3000000007,B,motherenter,O,enter,615,1,6147.9000000003725,856626.4000000004,7077,WL,C,3.0
6,13.046000003814697,distr,46953.9999961853,Thu Mar 13 2025 11:30:44 GMT-0500 (Central Daylight Time),864023.9000000004,B,c,O,c,1239,1,1249.2000000011176,862774.6999999993,7077,WL,C,4.0
6,15.994999885559082,distr,44005.00011444092,Thu Mar 13 2025 11:30:44 GMT-0500 (Central Daylight Time),866972.6999999993,B,ch,O,h,2933,1,4198.0,862774.6999999993,7077,WL,C,4.0
6,16.310999870300293,distr,43689.00012969971,Thu Mar 13 2025 11:30:44 GMT-0500 (Central Daylight Time),867289.5,B,chr,O,r,296,1,4514.800000000745,862774.6999999993,7077,WL,C,4.0
6,16.51099991798401,distr,43489.00008201599,Thu Mar 13 2025 11:30:44 GMT-0500 (Central Daylight Time),867489.4000000004,B,chri,O,i,179,1,4714.700000001118,862774.6999999993,7077,WL,C,4.0
6,16.643999814987183,distr,43356.00018501282,Thu Mar 13 2025 11:30:44 GMT-0500 (Central Daylight Time),867622.5999999996,B,chris,O,s,116,1,4847.9000000003725,862774.6999999993,7077,WL,C,4.0
6,16.893999814987183,distr,43106.00018501282,Thu Mar 13 2025 11:30:44 GMT-0500 (Central Daylight Time),867872.3000000007,B,christ,O,t,231,1,5097.60000000149,862774.6999999993,7077,WL,C,4.0
6,17.16100001335144,distr,42838.99998664856,Thu Mar 13 2025 11:30:44 GMT-0500 (Central Daylight Time),868138.8000000007,B,christm,O,m,261,1,5364.10000000149,862774.6999999993,7077,WL,C,4.0
6,17.360999822616577,distr,42639.00017738342,Thu Mar 13 2025 11:30:44 GMT-0500 (Central Daylight Time),868339.1999999993,B,christma,O,a,186,1,5564.5,862774.6999999993,7077,WL,C,4.0
6,17.626999855041504,distr,42373.000144958496,Thu Mar 13 2025 11:30:44 GMT-0500 (Central Daylight Time),868605.5999999996,B,christmas,O,s,250,1,5830.9000000003725,862774.6999999993,7077,WL,C,4.0
6,18.57699990272522,distr,41423.00009727478,Thu Mar 13 2025 11:30:44 GMT-0500 (Central Daylight Time),869555.3000000007,B,christmasenter,O,enter,944,1,6780.60000000149,862774.6999999993,7077,WL,C,4.0
6,19.342999935150146,distr,40657.00006484985,Thu Mar 13 2025 11:30:44 GMT-0500 (Central Daylight Time),870321.6999999993,B,w,O,w,754,1,766.1999999992549,869555.5,7077,WL,C,5.0
6,19.526999950408936,distr,40473.000049591064,Thu Mar 13 2025 11:30:44 GMT-0500 (Central Daylight Time),870504.6999999993,B,wi,O,i,172,1,949.1999999992549,869555.5,7077,WL,C,5.0
6,19.759999990463257,distr,40240.00000953674,Thu Mar 13 2025 11:30:44 GMT-0500 (Central Daylight Time),870738.1999999993,B,win,O,n,212,1,1182.699999999255,869555.5,7077,WL,C,5.0
6,20.07699990272522,distr,39923.00009727478,Thu Mar 13 2025 11:30:44 GMT-0500 (Central Daylight Time),871054.8000000007,B,wint,O,t,307,1,1499.300000000745,869555.5,7077,WL,C,5.0
6,20.276000022888184,distr,39723.99997711182,Thu Mar 13 2025 11:30:44 GMT-0500 (Central Daylight Time),871254.4000000004,B,winte,O,e,182,1,1698.9000000003725,869555.5,7077,WL,C,5.0
6,20.359999895095825,distr,39640.000104904175,Thu Mar 13 2025 11:30:44 GMT-0500 (Central Daylight Time),871338.1999999993,B,winter,O,r,71,1,1782.699999999255,869555.5,7077,WL,C,5.0
6,21.95899987220764,distr,38041.00012779236,Thu Mar 13 2025 11:30:44 GMT-0500 (Central Daylight Time),872937.5999999996,B,winterenter,O,enter,1594,1,3382.0999999996275,869555.5,7077,WL,C,5.0
6,22.908999919891357,distr,37091.00008010864,Thu Mar 13 2025 11:30:44 GMT-0500 (Central Daylight Time),873886.8000000007,B,m,O,m,938,1,948.8000000007451,872938.0,7077,WL,C,6.0
6,23.20899987220764,distr,36791.00012779236,Thu Mar 13 2025 11:30:44 GMT-0500 (Central Daylight Time),874186.6999999993,B,me,O,e,293,1,1248.699999999255,872938.0,7077,WL,C,6.0
6,23.441999912261963,distr,36558.00008773804,Thu Mar 13 2025 11:30:44 GMT-0500 (Central Daylight Time),874420.3000000007,B,mea,O,a,218,1,1482.300000000745,872938.0,7077,WL,C,6.0
6,23.625999927520752,distr,36374.00007247925,Thu Mar 13 2025 11:30:44 GMT-0500 (Central Daylight Time),874603.8000000007,B,meat,O,t,169,1,1665.800000000745,872938.0,7077,WL,C,6.0
6,24.125,distr,35875.0,Thu Mar 13 2025 11:30:44 GMT-0500 (Central Daylight Time),875103.5999999996,B,meatenter,O,enter,489,1,2165.5999999996275,872938.0,7077,WL,C,6.0
6,28.006999969482422,distr,31993.000030517578,Thu Mar 13 2025 11:30:44 GMT-0500 (Central Daylight Time),878985.5,B,m,O,m,3870,1,3881.5,875104.0,7077,WL,C,7.0
6,28.19099998474121,distr,31809.00001525879,Thu Mar 13 2025 11:30:44 GMT-0500 (Central Daylight Time),879168.9000000004,B,mo,O,o,172,1,4064.9000000003725,875104.0,7077,WL,C,7.0
6,28.424000024795532,distr,31575.999975204468,Thu Mar 13 2025 11:30:44 GMT-0500 (Central Daylight Time),879402.4000000004,B,mon,O,n,213,1,4298.4000000003725,875104.0,7077,WL,C,7.0
6,28.573999881744385,distr,31426.000118255615,Thu Mar 13 2025 11:30:44 GMT-0500 (Central Daylight Time),879552.0,B,mone,O,e,131,1,4448.0,875104.0,7077,WL,C,7.0
6,28.87399983406067,distr,31126.00016593933,Thu Mar 13 2025 11:30:44 GMT-0500 (Central Daylight Time),879852.0,B,money,O,y,294,1,4748.0,875104.0,7077,WL,C,7.0
6,29.567999839782715,distr,30432.000160217285,Thu Mar 13 2025 11:30:44 GMT-0500 (Central Daylight Time),880545.9000000004,B,moneyenter,O,enter,688,1,5441.9000000003725,875104.0,7077,WL,C,7.0
6,32.40599989891052,distr,27594.000101089478,Thu Mar 13 2025 11:30:44 GMT-0500 (Central Daylight Time),883384.0999999996,B,w,O,w,2823,1,2837.9000000003725,880546.1999999993,7077,WL,C,8.0
6,32.58899998664856,distr,27411.00001335144,Thu Mar 13 2025 11:30:44 GMT-0500 (Central Daylight Time),883567.4000000004,B,wi,O,i,173,1,3021.2000000011176,880546.1999999993,7077,WL,C,8.0
6,32.805999994277954,distr,27194.000005722046,Thu Mar 13 2025 11:30:44 GMT-0500 (Central Daylight Time),883784.0,B,win,O,n,198,1,3237.800000000745,880546.1999999993,7077,WL,C,8.0
6,32.972999811172485,distr,27027.000188827515,Thu Mar 13 2025 11:30:44 GMT-0500 (Central Daylight Time),883950.9000000004,B,wint,O,t,158,1,3404.7000000011176,880546.1999999993,7077,WL,C,8.0
6,33.20599985122681,distr,26794.000148773193,Thu Mar 13 2025 11:30:44 GMT-0500 (Central Daylight Time),884184.0,B,winte,O,e,215,1,3637.800000000745,880546.1999999993,7077,WL,C,8.0
6,33.32200002670288,distr,26677.99997329712,Thu Mar 13 2025 11:30:44 GMT-0500 (Central Daylight Time),884300.5,B,winter,O,r,101,1,3754.300000000745,880546.1999999993,7077,WL,C,8.0
6,33.68899989128113,distr,26311.000108718872,Thu Mar 13 2025 11:30:44 GMT-0500 (Central Daylight Time),884667.1999999993,B,winterenter,O,enter,361,1,4121.0,880546.1999999993,7077,WL,C,8.0
6,41.30299997329712,distr,18697.00002670288,Thu Mar 13 2025 11:30:44 GMT-0500 (Central Daylight Time),892281.5,B,v,O,v,7593,1,7614.0,884667.5,7077,WL,C,9.0
6,41.61999988555908,distr,18380.000114440918,Thu Mar 13 2025 11:30:44 GMT-0500 (Central Daylight Time),892598.3000000007,B,va,O,a,308,1,7930.800000000745,884667.5,7077,WL,C,9.0
6,41.8529999256134,distr,18147.000074386597,Thu Mar 13 2025 11:30:44 GMT-0500 (Central Daylight Time),892831.4000000004,B,val,O,l,215,1,8163.9000000003725,884667.5,7077,WL,C,9.0
6,41.98599982261658,distr,18014.000177383423,Thu Mar 13 2025 11:30:44 GMT-0500 (Central Daylight Time),892964.6999999993,B,vall,O,l,118,1,8297.199999999255,884667.5,7077,WL,C,9.0
6,42.30299997329712,distr,17697.00002670288,Thu Mar 13 2025 11:30:44 GMT-0500 (Central Daylight Time),893281.0999999996,B,valle,O,e,296,1,8613.599999999627,884667.5,7077,WL,C,9.0
6,42.519999980926514,distr,17480.000019073486,Thu Mar 13 2025 11:30:44 GMT-0500 (Central Daylight Time),893497.6999999993,B,valley,O,y,196,1,8830.199999999255,884667.5,7077,WL,C,9.0
6,43.98599982261658,distr,16014.000177383423,Thu Mar 13 2025 11:30:44 GMT-0500 (Central Daylight Time),894963.9000000004,B,valleyenter,O,enter,1458,1,10296.400000000373,884667.5,7077,WL,C,9.0
6,60.013999938964844,distr,-13.99993896484375,Thu Mar 13 2025 11:30:44 GMT-0500 (Central Daylight Time),910992.5,B,None,O,None,16023,1,16028.300000000745,894964.1999999993,7077,WL,C,10.0
7,20.875999927520752,immed,39124.00007247925,Thu Mar 13 2025 11:30:44 GMT-0500 (Central Daylight Time),938950.0999999996,A,s,O,s,20861,1,20876.400000000373,918073.6999999993,7077,WL,C,1.0
7,21.075999975204468,immed,38924.00002479553,Thu Mar 13 2025 11:30:44 GMT-0500 (Central Daylight Time),939150.0,A,su,O,u,191,1,21076.300000000745,918073.6999999993,7077,WL,C,1.0
7,21.47599983215332,immed,38524.00016784668,Thu Mar 13 2025 11:30:44 GMT-0500 (Central Daylight Time),939550.0,A,sug,O,g,384,1,21476.300000000745,918073.6999999993,7077,WL,C,1.0
7,21.709999799728394,immed,38290.00020027161,Thu Mar 13 2025 11:30:44 GMT-0500 (Central Daylight Time),939783.1999999993,A,suga,O,a,215,1,21709.5,918073.6999999993,7077,WL,C,1.0
7,21.875999927520752,immed,38124.00007247925,Thu Mar 13 2025 11:30:44 GMT-0500 (Central Daylight Time),939949.5999999996,A,sugar,O,r,149,1,21875.900000000373,918073.6999999993,7077,WL,C,1.0
7,22.325999975204468,immed,37674.00002479553,Thu Mar 13 2025 11:30:44 GMT-0500 (Central Daylight Time),940399.5,A,sugarenter,O,enter,430,1,22325.800000000745,918073.6999999993,7077,WL,C,1.0
7,23.008999824523926,immed,36991.000175476074,Thu Mar 13 2025 11:30:44 GMT-0500 (Central Daylight Time),941082.8000000007,A,q,O,q,670,1,682.9000000003725,940399.9000000004,7077,WL,C,2.0
7,23.258999824523926,immed,36741.000175476074,Thu Mar 13 2025 11:30:44 GMT-0500 (Central Daylight Time),941333.0,A,qu,O,u,243,1,933.0999999996275,940399.9000000004,7077,WL,C,2.0
7,23.45899987220764,immed,36541.00012779236,Thu Mar 13 2025 11:30:44 GMT-0500 (Central Daylight Time),941532.6999999993,A,que,O,e,185,1,1132.7999999988824,940399.9000000004,7077,WL,C,2.0
7,23.70899987220764,immed,36291.00012779236,Thu Mar 13 2025 11:30:44 GMT-0500 (Central Daylight Time),941782.6999999993,A,quee,O,e,233,1,1382.7999999988824,940399.9000000004,7077,WL,C,2.0
7,24.04199981689453,immed,35958.00018310547,Thu Mar 13 2025 11:30:44 GMT-0500 (Central Daylight Time),942115.6999999993,A,queen,O,n,318,1,1715.7999999988824,940399.9000000004,7077,WL,C,2.0
7,24.524999856948853,immed,35475.00014305115,Thu Mar 13 2025 11:30:44 GMT-0500 (Central Daylight Time),942599.0,A,queenenter,O,enter,474,1,2199.0999999996275,940399.9000000004,7077,WL,C,2.0
7,27.307999849319458,immed,32692.000150680542,Thu Mar 13 2025 11:30:44 GMT-0500 (Central Daylight Time),945381.5999999996,A,h,O,h,2767,1,2782.2999999988824,942599.3000000007,7077,WL,C,3.0
7,27.490999937057495,immed,32509.000062942505,Thu Mar 13 2025 11:30:44 GMT-0500 (Central Daylight Time),945564.6999999993,A,ho,O,o,176,1,2965.39999999851,942599.3000000007,7077,WL,C,3.0
7,27.70799994468689,immed,32292.00005531311,Thu Mar 13 2025 11:30:44 GMT-0500 (Central Daylight Time),945781.1999999993,A,hom,O,m,209,1,3181.89999999851,942599.3000000007,7077,WL,C,3.0
7,28.506999969482422,immed,31493.000030517578,Thu Mar 13 2025 11:30:44 GMT-0500 (Central Daylight Time),946581.0,A,home,O,e,792,1,3981.699999999255,942599.3000000007,7077,WL,C,3.0
7,29.006999969482422,immed,30993.000030517578,Thu Mar 13 2025 11:30:44 GMT-0500 (Central Daylight Time),947080.9000000004,A,homeenter,O,enter,480,1,4481.5999999996275,942599.3000000007,7077,WL,C,3.0
7,31.9229998588562,immed,28077.0001411438,Thu Mar 13 2025 11:30:44 GMT-0500 (Central Daylight Time),949996.8000000007,A,b,O,b,2909,1,2915.60000000149,947081.1999999993,7077,WL,C,4.0
7,32.20599985122681,immed,27794.000148773193,Thu Mar 13 2025 11:30:44 GMT-0500 (Central Daylight Time),950279.9000000004,A,bo,O,o,264,1,3198.7000000011176,947081.1999999993,7077,WL,C,4.0
7,32.57299995422363,immed,27427.000045776367,Thu Mar 13 2025 11:30:44 GMT-0500 (Central Daylight Time),950646.5999999996,A,boy,O,y,358,1,3565.4000000003725,947081.1999999993,7077,WL,C,4.0
7,33.13099980354309,immed,26869.00019645691,Thu Mar 13 2025 11:30:44 GMT-0500 (Central Daylight Time),951204.9000000004,A,boyenter,O,enter,554,1,4123.700000001118,947081.1999999993,7077,WL,C,4.0
7,33.67199993133545,immed,26328.00006866455,Thu Mar 13 2025 11:30:44 GMT-0500 (Central Daylight Time),951746.0999999996,A,d,O,d,528,1,540.7999999988824,951205.3000000007,7077,WL,C,5.0
7,33.83899998664856,immed,26161.00001335144,Thu Mar 13 2025 11:30:44 GMT-0500 (Central Daylight Time),951912.9000000004,A,do,O,o,155,1,707.5999999996275,951205.3000000007,7077,WL,C,5.0
7,34.038999795913696,immed,25961.000204086304,Thu Mar 13 2025 11:30:44 GMT-0500 (Central Daylight Time),952112.5999999996,A,doc,O,c,180,1,907.2999999988824,951205.3000000007,7077,WL,C,5.0
7,34.388999938964844,immed,25611.000061035156,Thu Mar 13 2025 11:30:44 GMT-0500 (Central Daylight Time),952462.5999999996,A,doct,O,t,333,1,1257.2999999988824,951205.3000000007,7077,WL,C,5.0
7,34.55499982833862,immed,25445.000171661377,Thu Mar 13 2025 11:30:44 GMT-0500 (Central Daylight Time),952629.1999999993,A,docto,O,o,159,1,1423.8999999985099,951205.3000000007,7077,WL,C,5.0
7,34.77199983596802,immed,25228.000164031982,Thu Mar 13 2025 11:30:44 GMT-0500 (Central Daylight Time),952845.5999999996,A,doctor,O,r,208,1,1640.2999999988824,951205.3000000007,7077,WL,C,5.0
7,35.15499997138977,immed,24845.00002861023,Thu Mar 13 2025 11:30:44 GMT-0500 (Central Daylight Time),953229.0999999996,A,doctorenter,O,enter,376,1,2023.7999999988824,951205.3000000007,7077,WL,C,5.0
7,36.0719997882843,immed,23928.0002117157,Thu Mar 13 2025 11:30:44 GMT-0500 (Central Daylight Time),954145.4000000004,A,c,O,c,904,1,916.0,953229.4000000004,7077,WL,C,6.0
7,36.47199988365173,immed,23528.000116348267,Thu Mar 13 2025 11:30:44 GMT-0500 (Central Daylight Time),954545.3000000007,A,ca,O,a,387,1,1315.9000000003725,953229.4000000004,7077,WL,C,6.0
7,37.13799977302551,immed,22862.000226974487,Thu Mar 13 2025 11:30:44 GMT-0500 (Central Daylight Time),955211.9000000004,A,cam,O,m,660,1,1982.5,953229.4000000004,7077,WL,C,6.0
7,37.4539999961853,immed,22546.000003814697,Thu Mar 13 2025 11:30:44 GMT-0500 (Central Daylight Time),955528.3000000007,A,camp,O,p,297,1,2298.9000000003725,953229.4000000004,7077,WL,C,6.0
7,38.186999797821045,immed,21813.000202178955,Thu Mar 13 2025 11:30:44 GMT-0500 (Central Daylight Time),956261.4000000004,A,campenter,O,enter,717,1,3032.0,953229.4000000004,7077,WL,C,6.0
7,38.770999908447266,immed,21229.000091552734,Thu Mar 13 2025 11:30:44 GMT-0500 (Central Daylight Time),956844.5999999996,A,f,O,f,568,1,582.9000000003725,956261.6999999993,7077,WL,C,7.0
7,39.00399994850159,immed,20996.000051498413,Thu Mar 13 2025 11:30:44 GMT-0500 (Central Daylight Time),957077.5999999996,A,fl,O,l,216,1,815.9000000003725,956261.6999999993,7077,WL,C,7.0
7,39.169999837875366,immed,20830.000162124634,Thu Mar 13 2025 11:30:44 GMT-0500 (Central Daylight Time),957244.4000000004,A,fla,O,a,152,1,982.7000000011176,956261.6999999993,7077,WL,C,7.0
7,39.50399994850159,immed,20496.000051498413,Thu Mar 13 2025 11:30:44 GMT-0500 (Central Daylight Time),957577.6999999993,A,flag,O,g,320,1,1316.0,956261.6999999993,7077,WL,C,7.0
7,39.919999837875366,immed,20080.000162124634,Thu Mar 13 2025 11:30:44 GMT-0500 (Central Daylight Time),957994.0999999996,A,flagenter,O,enter,396,1,1732.4000000003725,956261.6999999993,7077,WL,C,7.0
7,40.55299997329712,immed,19447.00002670288,Thu Mar 13 2025 11:30:44 GMT-0500 (Central Daylight Time),958627.5,A,l,O,l,620,1,633.0999999996275,957994.4000000004,7077,WL,C,8.0
7,41.18599987030029,immed,18814.000129699707,Thu Mar 13 2025 11:30:44 GMT-0500 (Central Daylight Time),959260.5999999996,A,le,O,e,617,1,1266.199999999255,957994.4000000004,7077,WL,C,8.0
7,41.4689998626709,immed,18531.0001373291,Thu Mar 13 2025 11:30:44 GMT-0500 (Central Daylight Time),959543.5999999996,A,let,O,t,264,1,1549.199999999255,957994.4000000004,7077,WL,C,8.0
7,41.6029999256134,immed,18397.000074386597,Thu Mar 13 2025 11:30:44 GMT-0500 (Central Daylight Time),959677.0999999996,A,lett,O,t,117,1,1682.699999999255,957994.4000000004,7077,WL,C,8.0
7,41.80299997329712,immed,18197.00002670288,Thu Mar 13 2025 11:30:44 GMT-0500 (Central Daylight Time),959877.0,A,lette,O,e,184,1,1882.5999999996275,957994.4000000004,7077,WL,C,8.0
7,41.88599991798401,immed,18114.00008201599,Thu Mar 13 2025 11:30:44 GMT-0500 (Central Daylight Time),959960.3000000007,A,letter,O,r,72,1,1965.9000000003725,957994.4000000004,7077,WL,C,8.0
7,42.6029999256134,immed,17397.000074386597,Thu Mar 13 2025 11:30:44 GMT-0500 (Central Daylight Time),960676.8000000007,A,letterenter,O,enter,701,1,2682.4000000003725,957994.4000000004,7077,WL,C,8.0
7,46.900999784469604,immed,13099.000215530396,Thu Mar 13 2025 11:30:44 GMT-0500 (Central Daylight Time),964975.4000000004,A,b,O,b,4280,1,4298.300000000745,960677.0999999996,7077,WL,C,9.0
7,47.06899976730347,immed,12931.000232696533,Thu Mar 13 2025 11:30:44 GMT-0500 (Central Daylight Time),965143.0999999996,A,bo,O,o,149,1,4466.0,960677.0999999996,7077,WL,C,9.0
7,47.300999879837036,immed,12699.000120162964,Thu Mar 13 2025 11:30:44 GMT-0500 (Central Daylight Time),965375.3000000007,A,bod,O,d,222,1,4698.200000001118,960677.0999999996,7077,WL,C,9.0
7,47.51799988746643,immed,12482.00011253357,Thu Mar 13 2025 11:30:44 GMT-0500 (Central Daylight Time),965591.6999999993,A,body,O,y,205,1,4914.5999999996275,960677.0999999996,7077,WL,C,9.0
7,48.00099992752075,immed,11999.000072479248,Thu Mar 13 2025 11:30:44 GMT-0500 (Central Daylight Time),966075.0999999996,A,bodyenter,O,enter,470,1,5398.0,960677.0999999996,7077,WL,C,9.0
7,48.383999824523926,immed,11616.000175476074,Thu Mar 13 2025 11:30:44 GMT-0500 (Central Daylight Time),966458.5,A,s,O,s,379,1,383.09999999962747,966075.4000000004,7077,WL,C,10.0
7,48.650999784469604,immed,11349.000215530396,Thu Mar 13 2025 11:30:44 GMT-0500 (Central Daylight Time),966724.6999999993,A,sh,O,h,251,1,649.2999999988824,966075.4000000004,7077,WL,C,10.0
7,48.800999879837036,immed,11199.000120162964,Thu Mar 13 2025 11:30:44 GMT-0500 (Central Daylight Time),966874.8000000007,A,sho,O,o,136,1,799.4000000003725,966075.4000000004,7077,WL,C,10.0
7,48.96799993515015,immed,11032.000064849854,Thu Mar 13 2025 11:30:44 GMT-0500 (Central Daylight Time),967041.6999999993,A,shor,O,r,154,1,966.2999999988824,966075.4000000004,7077,WL,C,10.0
7,49.08399987220764,immed,10916.000127792358,Thu Mar 13 2025 11:30:44 GMT-0500 (Central Daylight Time),967157.8000000007,A,shore,O,e,108,1,1082.4000000003725,966075.4000000004,7077,WL,C,10.0
7,49.73399996757507,immed,10266.000032424927,Thu Mar 13 2025 11:30:44 GMT-0500 (Central Daylight Time),967807.6999999993,A,shoreenter,O,enter,632,1,1732.2999999988824,966075.4000000004,7077,WL,C,10.0
7,58.89799976348877,immed,1102.0002365112305,Thu Mar 13 2025 11:30:44 GMT-0500 (Central Daylight Time),976971.6999999993,A,t,O,t,9158,1,9163.699999999255,967808.0,7077,WL,C,11.0
7,59.08099985122681,immed,919.0001487731934,Thu Mar 13 2025 11:30:44 GMT-0500 (Central Daylight Time),977154.6999999993,A,to,O,o,169,1,9346.699999999255,967808.0,7077,WL,C,11.0
7,59.46399998664856,immed,536.0000133514404,Thu Mar 13 2025 11:30:44 GMT-0500 (Central Daylight Time),977538.0999999996,A,tow,O,w,371,1,9730.099999999627,967808.0,7077,WL,C,11.0
7,59.73099994659424,immed,269.0000534057617,Thu Mar 13 2025 11:30:44 GMT-0500 (Central Daylight Time),977804.9000000004,A,towe,O,e,250,1,9996.900000000373,967808.0,7077,WL,C,11.0
7,59.9469997882843,immed,53.00021171569824,Thu Mar 13 2025 11:30:44 GMT-0500 (Central Daylight Time),978021.3000000007,A,tower,O,r,201,1,10213.300000000745,967808.0,7077,WL,C,11.0
7,60.013999938964844,immed,-13.99993896484375,Thu Mar 13 2025 11:30:44 GMT-0500 (Central Daylight Time),978087.8000000007,A,towerNone,O,None,62,1,10279.800000000745,967808.0,7077,WL,C,11.0
