acc_sum,block,block_c,block_cond,con_img,correct,correct_response,datetime,endtime,face,jitter,line,project,response,response_time,row_sel,session_number,start_end,starttime,subject_id,task,task_vers,trial
0,prac,1,A,haborder.png,0,z,Mon Apr 28 2025 15:42:33 GMT-0500 (Central Daylight Time),51863.20000001788,CFD-BF-039-039-A.jpg,1200,solid,O,None,1514,6,1,3533.4000000059605,48329.80000001192,7133,ATS,A,1
1,prac,1,A,haborder.png,1,m,Mon Apr 28 2025 15:42:33 GMT-0500 (Central Daylight Time),54794.70000001788,CFD-WF-017-016-HC.jpg,1500,solid,O,m,614,11,1,6464.9000000059605,48329.80000001192,7133,ATS,A,2
2,prac,1,A,haborder.png,1,z,Mon Apr 28 2025 15:42:33 GMT-0500 (Central Daylight Time),57243.40000000596,CFD-BF-023-013-A.jpg,1000,solid,O,z,622,4,1,8913.59999999404,48329.80000001192,7133,ATS,A,3
3,prac,1,A,haborder.png,1,z,Mon Apr 28 2025 15:42:33 GMT-0500 (Central Daylight Time),60309.20000001788,CFD-BM-005-010-A.jpg,1600,solid,O,z,662,2,1,11979.40000000596,48329.80000001192,7133,ATS,A,4
4,prac,1,A,haborder.png,1,m,Mon Apr 28 2025 15:42:33 GMT-0500 (Central Daylight Time),63074.90000000596,CFD-WM-004-005-HC.jpg,1400,solid,O,m,540,7,1,14745.09999999404,48329.80000001192,7133,ATS,A,5
5,prac,1,A,haborder.png,1,z,Mon Apr 28 2025 15:42:33 GMT-0500 (Central Daylight Time),65640.70000001788,CFD-WF-019-015-A.jpg,1000,solid,O,z,742,12,1,17310.90000000596,48329.80000001192,7133,ATS,A,6
6,prac,1,A,haborder.png,1,m,Mon Apr 28 2025 15:42:33 GMT-0500 (Central Daylight Time),69023.20000001788,CFD-WM-006-013-HC.jpg,1700,solid,O,m,860,9,1,20693.40000000596,48329.80000001192,7133,ATS,A,7
7,prac,1,A,haborder.png,1,m,Mon Apr 28 2025 15:42:33 GMT-0500 (Central Daylight Time),72638.80000001192,CFD-BF-028-020-HC.jpg,2000,solid,O,m,802,5,1,24309.0,48329.80000001192,7133,ATS,A,8
8,prac,1,A,haborder.png,1,m,Mon Apr 28 2025 15:42:33 GMT-0500 (Central Daylight Time),75870.59999999404,CFD-BM-017-052-HC.jpg,1700,solid,O,m,711,1,1,27540.79999998212,48329.80000001192,7133,ATS,A,9
9,prac,1,A,haborder.png,1,z,Mon Apr 28 2025 15:42:33 GMT-0500 (Central Daylight Time),79136.30000001192,CFD-WF-003-014-A.jpg,1600,solid,O,z,834,10,1,30806.5,48329.80000001192,7133,ATS,A,10
10,prac,1,A,haborder.png,1,m,Mon Apr 28 2025 15:42:33 GMT-0500 (Central Daylight Time),82269.09999999404,CFD-BM-029-026-HC.jpg,1500,solid,O,m,813,3,1,33939.29999998212,48329.80000001192,7133,ATS,A,11
10,prac,1,A,haborder.png,0,z,Mon Apr 28 2025 15:42:33 GMT-0500 (Central Daylight Time),86217.70000001788,CFD-WM-013-015-A.jpg,1900,solid,O,m,1225,8,1,37887.90000000596,48329.80000001192,7133,ATS,A,12
1,prac,1,B,mfborder.png,1,m,Mon Apr 28 2025 15:42:33 GMT-0500 (Central Daylight Time),110776.0,CFD-WM-019-013-A.jpg,1200,dash,O,m,967,6,1,2999.199999988079,107776.80000001192,7133,ATS,A,1
2,prac,1,B,mfborder.png,1,m,Mon Apr 28 2025 15:42:33 GMT-0500 (Central Daylight Time),113807.5,CFD-BM-010-019-A.jpg,1600,dash,O,m,610,2,1,6030.699999988079,107776.80000001192,7133,ATS,A,2
3,prac,1,B,mfborder.png,1,z,Mon Apr 28 2025 15:42:33 GMT-0500 (Central Daylight Time),116424.09999999404,CFD-BF-023-013-A.jpg,1000,dash,O,z,825,4,1,8647.299999982119,107776.80000001192,7133,ATS,A,3
4,prac,1,B,mfborder.png,1,m,Mon Apr 28 2025 15:42:33 GMT-0500 (Central Daylight Time),119823.09999999404,CFD-WM-013-015-A.jpg,1700,dash,O,m,876,9,1,12046.299999982119,107776.80000001192,7133,ATS,A,4
5,prac,1,B,mfborder.png,1,z,Mon Apr 28 2025 15:42:33 GMT-0500 (Central Daylight Time),122638.90000000596,CFD-WF-017-016-HC.jpg,1000,dash,O,z,985,12,1,14862.09999999404,107776.80000001192,7133,ATS,A,5
6,prac,1,B,mfborder.png,1,z,Mon Apr 28 2025 15:42:33 GMT-0500 (Central Daylight Time),126071.09999999404,CFD-WF-002-008-HC.jpg,1900,dash,O,z,710,8,1,18294.29999998212,107776.80000001192,7133,ATS,A,6
7,prac,1,B,mfborder.png,1,z,Mon Apr 28 2025 15:42:33 GMT-0500 (Central Daylight Time),128870.30000001192,CFD-BF-028-020-HC.jpg,1400,dash,O,z,587,7,1,21093.5,107776.80000001192,7133,ATS,A,7
8,prac,1,B,mfborder.png,1,z,Mon Apr 28 2025 15:42:33 GMT-0500 (Central Daylight Time),131935.80000001192,CFD-BF-010-005-HC.jpg,1500,dash,O,z,735,3,1,24159.0,107776.80000001192,7133,ATS,A,8
9,prac,1,B,mfborder.png,1,m,Mon Apr 28 2025 15:42:33 GMT-0500 (Central Daylight Time),135418.20000001788,CFD-BM-029-026-HC.jpg,1700,dash,O,m,949,1,1,27641.40000000596,107776.80000001192,7133,ATS,A,9
10,prac,1,B,mfborder.png,1,m,Mon Apr 28 2025 15:42:33 GMT-0500 (Central Daylight Time),138550.30000001192,CFD-WM-006-013-HC.jpg,1600,dash,O,m,721,10,1,30773.5,107776.80000001192,7133,ATS,A,10
11,prac,1,B,mfborder.png,1,m,Mon Apr 28 2025 15:42:33 GMT-0500 (Central Daylight Time),142265.59999999404,CFD-BM-005-010-A.jpg,2000,dash,O,m,882,5,1,34488.79999998212,107776.80000001192,7133,ATS,A,11
12,prac,1,B,mfborder.png,1,z,Mon Apr 28 2025 15:42:33 GMT-0500 (Central Daylight Time),145281.30000001192,CFD-WF-003-014-A.jpg,1500,dash,O,z,707,11,1,37504.5,107776.80000001192,7133,ATS,A,12
1,test,1,A,haborder.png,1,m,Mon Apr 28 2025 15:42:33 GMT-0500 (Central Daylight Time),164925.09999999404,CFD-BM-017-052-HC.jpg,1700,solid,O,m,972,1,1,2715.7999999821186,162209.30000001192,7133,ATS,A,1
2,test,1,A,haborder.png,1,z,Mon Apr 28 2025 15:42:33 GMT-0500 (Central Daylight Time),167640.20000001788,CFD-WM-013-015-A.jpg,1900,solid,O,z,766,8,1,5430.9000000059605,162209.30000001192,7133,ATS,A,2
3,test,1,A,haborder.png,1,m,Mon Apr 28 2025 15:42:33 GMT-0500 (Central Daylight Time),170106.5,CFD-BM-029-026-HC.jpg,1500,solid,O,m,941,3,1,7897.199999988079,162209.30000001192,7133,ATS,A,3
4,test,1,A,haborder.png,1,m,Mon Apr 28 2025 15:42:33 GMT-0500 (Central Daylight Time),172372.40000000596,CFD-WF-017-016-HC.jpg,1500,solid,O,m,724,11,1,10163.09999999404,162209.30000001192,7133,ATS,A,4
5,test,1,A,haborder.png,1,z,Mon Apr 28 2025 15:42:33 GMT-0500 (Central Daylight Time),174605.09999999404,CFD-WF-003-014-A.jpg,1600,solid,O,z,574,10,1,12395.799999982119,162209.30000001192,7133,ATS,A,5
6,test,1,A,haborder.png,1,m,Mon Apr 28 2025 15:42:33 GMT-0500 (Central Daylight Time),177020.90000000596,CFD-WM-006-013-HC.jpg,1700,solid,O,m,672,9,1,14811.59999999404,162209.30000001192,7133,ATS,A,6
6,test,1,A,haborder.png,0,z,Mon Apr 28 2025 15:42:33 GMT-0500 (Central Daylight Time),178720.40000000596,CFD-BF-023-013-A.jpg,1000,solid,O,m,660,4,1,16511.09999999404,162209.30000001192,7133,ATS,A,7
7,test,1,A,haborder.png,1,m,Mon Apr 28 2025 15:42:33 GMT-0500 (Central Daylight Time),181652.59999999404,CFD-BF-028-020-HC.jpg,2000,solid,O,m,866,5,1,19443.29999998212,162209.30000001192,7133,ATS,A,8
8,test,1,A,haborder.png,1,z,Mon Apr 28 2025 15:42:33 GMT-0500 (Central Daylight Time),183535.40000000596,CFD-WF-019-015-A.jpg,1000,solid,O,z,846,12,1,21326.09999999404,162209.30000001192,7133,ATS,A,9
9,test,1,A,haborder.png,1,m,Mon Apr 28 2025 15:42:33 GMT-0500 (Central Daylight Time),186051.30000001192,CFD-WF-017-016-HC.jpg,1500,solid,O,m,975,11,1,23842.0,162209.30000001192,7133,ATS,A,10
10,test,1,A,haborder.png,1,z,Mon Apr 28 2025 15:42:33 GMT-0500 (Central Daylight Time),188084.5,CFD-BF-039-039-A.jpg,1200,solid,O,z,758,6,1,25875.19999998808,162209.30000001192,7133,ATS,A,11
11,test,1,A,haborder.png,1,m,Mon Apr 28 2025 15:42:33 GMT-0500 (Central Daylight Time),190516.59999999404,CFD-WM-006-013-HC.jpg,1700,solid,O,m,665,9,1,28307.29999998212,162209.30000001192,7133,ATS,A,12
12,test,1,A,haborder.png,1,z,Mon Apr 28 2025 15:42:33 GMT-0500 (Central Daylight Time),192848.90000000596,CFD-BM-005-010-A.jpg,1600,solid,O,z,693,2,1,30639.59999999404,162209.30000001192,7133,ATS,A,13
13,test,1,A,haborder.png,1,z,Mon Apr 28 2025 15:42:33 GMT-0500 (Central Daylight Time),194565.40000000596,CFD-WF-019-015-A.jpg,1000,solid,O,z,657,12,1,32356.09999999404,162209.30000001192,7133,ATS,A,14
14,test,1,A,haborder.png,1,m,Mon Apr 28 2025 15:42:33 GMT-0500 (Central Daylight Time),197397.59999999404,CFD-BM-017-052-HC.jpg,1700,solid,O,m,1088,1,1,35188.29999998212,162209.30000001192,7133,ATS,A,15
15,test,1,A,haborder.png,1,z,Mon Apr 28 2025 15:42:33 GMT-0500 (Central Daylight Time),199363.30000001192,CFD-BF-039-039-A.jpg,1200,solid,O,z,723,6,1,37154.0,162209.30000001192,7133,ATS,A,16
16,test,1,A,haborder.png,1,z,Mon Apr 28 2025 15:42:33 GMT-0500 (Central Daylight Time),202029.5,CFD-WM-013-015-A.jpg,1900,solid,O,z,731,8,1,39820.19999998808,162209.30000001192,7133,ATS,A,17
17,test,1,A,haborder.png,1,m,Mon Apr 28 2025 15:42:33 GMT-0500 (Central Daylight Time),204962.0,CFD-BF-028-020-HC.jpg,2000,solid,O,m,893,5,1,42752.69999998808,162209.30000001192,7133,ATS,A,18
17,test,1,A,haborder.png,0,m,Mon Apr 28 2025 15:42:33 GMT-0500 (Central Daylight Time),207927.40000000596,CFD-WM-004-005-HC.jpg,1400,solid,O,None,1514,7,1,45718.09999999404,162209.30000001192,7133,ATS,A,19
18,test,1,A,haborder.png,1,z,Mon Apr 28 2025 15:42:33 GMT-0500 (Central Daylight Time),209094.80000001192,CFD-BF-023-013-A.jpg,1000,solid,O,z,114,4,1,46885.5,162209.30000001192,7133,ATS,A,20
19,test,1,A,haborder.png,1,z,Mon Apr 28 2025 15:42:33 GMT-0500 (Central Daylight Time),211508.80000001192,CFD-WF-003-014-A.jpg,1600,solid,O,z,762,10,1,49299.5,162209.30000001192,7133,ATS,A,21
20,test,1,A,haborder.png,1,m,Mon Apr 28 2025 15:42:33 GMT-0500 (Central Daylight Time),213792.20000001788,CFD-BM-029-026-HC.jpg,1500,solid,O,m,752,3,1,51582.90000000596,162209.30000001192,7133,ATS,A,22
21,test,1,A,haborder.png,1,m,Mon Apr 28 2025 15:42:33 GMT-0500 (Central Daylight Time),216008.09999999404,CFD-WM-004-005-HC.jpg,1400,solid,O,m,779,7,1,53798.79999998212,162209.30000001192,7133,ATS,A,23
22,test,1,A,haborder.png,1,z,Mon Apr 28 2025 15:42:33 GMT-0500 (Central Daylight Time),218373.59999999404,CFD-BM-005-010-A.jpg,1600,solid,O,z,704,2,1,56164.29999998212,162209.30000001192,7133,ATS,A,24
1,test,1,B,mfborder.png,1,z,Mon Apr 28 2025 15:42:33 GMT-0500 (Central Daylight Time),231669.59999999404,CFD-BF-028-020-HC.jpg,1400,dash,O,z,771,7,1,2232.2999999821186,229437.30000001192,7133,ATS,A,1
2,test,1,B,mfborder.png,1,z,Mon Apr 28 2025 15:42:33 GMT-0500 (Central Daylight Time),233784.80000001192,CFD-BF-010-005-HC.jpg,1500,dash,O,z,574,3,1,4347.5,229437.30000001192,7133,ATS,A,2
3,test,1,B,mfborder.png,1,z,Mon Apr 28 2025 15:42:33 GMT-0500 (Central Daylight Time),235918.20000001788,CFD-WF-003-014-A.jpg,1500,dash,O,z,614,11,1,6480.9000000059605,229437.30000001192,7133,ATS,A,3
4,test,1,B,mfborder.png,1,m,Mon Apr 28 2025 15:42:33 GMT-0500 (Central Daylight Time),238701.0,CFD-BM-005-010-A.jpg,2000,dash,O,m,731,5,1,9263.699999988079,229437.30000001192,7133,ATS,A,4
5,test,1,B,mfborder.png,1,m,Mon Apr 28 2025 15:42:33 GMT-0500 (Central Daylight Time),241249.5,CFD-WM-013-015-A.jpg,1700,dash,O,m,808,9,1,11812.199999988079,229437.30000001192,7133,ATS,A,5
6,test,1,B,mfborder.png,1,z,Mon Apr 28 2025 15:42:33 GMT-0500 (Central Daylight Time),243249.40000000596,CFD-BF-023-013-A.jpg,1000,dash,O,z,977,4,1,13812.09999999404,229437.30000001192,7133,ATS,A,6
7,test,1,B,mfborder.png,1,m,Mon Apr 28 2025 15:42:33 GMT-0500 (Central Daylight Time),245698.40000000596,CFD-WM-006-013-HC.jpg,1600,dash,O,m,808,10,1,16261.09999999404,229437.30000001192,7133,ATS,A,7
8,test,1,B,mfborder.png,1,z,Mon Apr 28 2025 15:42:33 GMT-0500 (Central Daylight Time),248314.09999999404,CFD-WF-002-008-HC.jpg,1900,dash,O,z,660,8,1,18876.79999998212,229437.30000001192,7133,ATS,A,8
9,test,1,B,mfborder.png,1,m,Mon Apr 28 2025 15:42:33 GMT-0500 (Central Daylight Time),250713.5,CFD-WM-006-013-HC.jpg,1600,dash,O,m,751,10,1,21276.19999998808,229437.30000001192,7133,ATS,A,9
10,test,1,B,mfborder.png,1,z,Mon Apr 28 2025 15:42:33 GMT-0500 (Central Daylight Time),252445.80000001192,CFD-WF-017-016-HC.jpg,1000,dash,O,z,696,12,1,23008.5,229437.30000001192,7133,ATS,A,10
11,test,1,B,mfborder.png,1,m,Mon Apr 28 2025 15:42:33 GMT-0500 (Central Daylight Time),255545.30000001192,CFD-BM-005-010-A.jpg,2000,dash,O,m,1060,5,1,26108.0,229437.30000001192,7133,ATS,A,11
12,test,1,B,mfborder.png,1,m,Mon Apr 28 2025 15:42:33 GMT-0500 (Central Daylight Time),257328.0,CFD-WM-019-013-A.jpg,1200,dash,O,m,536,6,1,27890.69999998808,229437.30000001192,7133,ATS,A,12
13,test,1,B,mfborder.png,1,m,Mon Apr 28 2025 15:42:33 GMT-0500 (Central Daylight Time),259610.40000000596,CFD-BM-010-019-A.jpg,1600,dash,O,m,634,2,1,30173.09999999404,229437.30000001192,7133,ATS,A,13
14,test,1,B,mfborder.png,1,z,Mon Apr 28 2025 15:42:33 GMT-0500 (Central Daylight Time),262159.7000000179,CFD-WF-002-008-HC.jpg,1900,dash,O,z,603,8,1,32722.40000000596,229437.30000001192,7133,ATS,A,14
15,test,1,B,mfborder.png,1,m,Mon Apr 28 2025 15:42:33 GMT-0500 (Central Daylight Time),264541.90000000596,CFD-BM-029-026-HC.jpg,1700,dash,O,m,630,1,1,35104.59999999404,229437.30000001192,7133,ATS,A,15
16,test,1,B,mfborder.png,1,z,Mon Apr 28 2025 15:42:33 GMT-0500 (Central Daylight Time),266674.90000000596,CFD-BF-028-020-HC.jpg,1400,dash,O,z,683,7,1,37237.59999999404,229437.30000001192,7133,ATS,A,16
17,test,1,B,mfborder.png,1,z,Mon Apr 28 2025 15:42:33 GMT-0500 (Central Daylight Time),268357.59999999404,CFD-WF-017-016-HC.jpg,1000,dash,O,z,605,12,1,38920.29999998212,229437.30000001192,7133,ATS,A,17
18,test,1,B,mfborder.png,1,z,Mon Apr 28 2025 15:42:33 GMT-0500 (Central Daylight Time),269973.7000000179,CFD-BF-023-013-A.jpg,1000,dash,O,z,564,4,1,40536.40000000596,229437.30000001192,7133,ATS,A,18
19,test,1,B,mfborder.png,1,m,Mon Apr 28 2025 15:42:33 GMT-0500 (Central Daylight Time),272223.09999999404,CFD-BM-010-019-A.jpg,1600,dash,O,m,611,2,1,42785.79999998212,229437.30000001192,7133,ATS,A,19
20,test,1,B,mfborder.png,1,z,Mon Apr 28 2025 15:42:33 GMT-0500 (Central Daylight Time),274372.3000000119,CFD-BF-010-005-HC.jpg,1500,dash,O,z,606,3,1,44935.0,229437.30000001192,7133,ATS,A,20
21,test,1,B,mfborder.png,1,m,Mon Apr 28 2025 15:42:33 GMT-0500 (Central Daylight Time),276271.90000000596,CFD-WM-019-013-A.jpg,1200,dash,O,m,638,6,1,46834.59999999404,229437.30000001192,7133,ATS,A,21
22,test,1,B,mfborder.png,1,m,Mon Apr 28 2025 15:42:33 GMT-0500 (Central Daylight Time),278687.40000000596,CFD-BM-029-026-HC.jpg,1700,dash,O,m,670,1,1,49250.09999999404,229437.30000001192,7133,ATS,A,22
23,test,1,B,mfborder.png,1,z,Mon Apr 28 2025 15:42:33 GMT-0500 (Central Daylight Time),280953.8000000119,CFD-WF-003-014-A.jpg,1500,dash,O,z,709,11,1,51516.5,229437.30000001192,7133,ATS,A,23
24,test,1,B,mfborder.png,1,m,Mon Apr 28 2025 15:42:33 GMT-0500 (Central Daylight Time),284086.0,CFD-WM-013-015-A.jpg,1700,dash,O,m,1388,9,1,54648.69999998808,229437.30000001192,7133,ATS,A,24
0,prac,1,C,haborder.png,0,z,Mon Apr 28 2025 15:42:33 GMT-0500 (Central Daylight Time),314292.3000000119,CFD-BF-039-039-A.jpg,1700,solid,O,None,1514,8,1,4015.2000000178814,310277.09999999404,7133,ATS,A,1
0,prac,1,C,mfborder.png,0,m,Mon Apr 28 2025 15:42:33 GMT-0500 (Central Daylight Time),318308.0,CFD-WM-013-015-A.jpg,1700,solid,O,None,1514,6,1,8030.9000000059605,310277.09999999404,7133,ATS,A,2
1,prac,1,C,mfborder.png,1,m,Mon Apr 28 2025 15:42:33 GMT-0500 (Central Daylight Time),321423.7000000179,CFD-BM-005-010-A.jpg,1200,dash,O,m,1111,5,1,11146.600000023842,310277.09999999404,7133,ATS,A,3
1,prac,1,C,haborder.png,0,m,Mon Apr 28 2025 15:42:33 GMT-0500 (Central Daylight Time),325139.09999999404,CFD-WM-004-005-HC.jpg,1400,solid,O,None,1514,12,1,14862.0,310277.09999999404,7133,ATS,A,4
1,prac,1,C,mfborder.png,0,z,Mon Apr 28 2025 15:42:33 GMT-0500 (Central Daylight Time),328470.90000000596,CFD-BF-028-020-HC.jpg,1000,dash,O,None,1515,3,1,18193.80000001192,310277.09999999404,7133,ATS,A,5
1,prac,1,C,mfborder.png,0,z,Mon Apr 28 2025 15:42:33 GMT-0500 (Central Daylight Time),331737.09999999404,CFD-WF-019-015-A.jpg,1500,solid,O,m,918,2,1,21460.0,310277.09999999404,7133,ATS,A,6
2,prac,1,C,haborder.png,1,m,Mon Apr 28 2025 15:42:33 GMT-0500 (Central Daylight Time),334885.7000000179,CFD-WM-004-005-HC.jpg,1000,dash,O,m,1320,11,1,24608.600000023842,310277.09999999404,7133,ATS,A,7
3,prac,1,C,haborder.png,1,z,Mon Apr 28 2025 15:42:33 GMT-0500 (Central Daylight Time),338401.5,CFD-WF-003-014-A.jpg,1600,dash,O,z,1092,9,1,28124.40000000596,310277.09999999404,7133,ATS,A,8
4,prac,1,C,haborder.png,1,z,Mon Apr 28 2025 15:42:33 GMT-0500 (Central Daylight Time),342549.90000000596,CFD-BF-023-013-A.jpg,1900,dash,O,z,1421,7,1,32272.80000001192,310277.09999999404,7133,ATS,A,9
5,prac,1,C,mfborder.png,1,m,Mon Apr 28 2025 15:42:33 GMT-0500 (Central Daylight Time),346415.59999999404,CFD-BM-017-052-HC.jpg,2000,solid,O,m,1035,4,1,36138.5,310277.09999999404,7133,ATS,A,10
6,prac,1,C,mfborder.png,1,z,Mon Apr 28 2025 15:42:33 GMT-0500 (Central Daylight Time),349714.3000000119,CFD-WF-017-016-HC.jpg,1600,dash,O,z,890,1,1,39437.20000001788,310277.09999999404,7133,ATS,A,11
7,prac,1,C,haborder.png,1,m,Mon Apr 28 2025 15:42:33 GMT-0500 (Central Daylight Time),353263.2000000179,CFD-BM-029-026-HC.jpg,1500,solid,O,m,1236,10,1,42986.10000002384,310277.09999999404,7133,ATS,A,12
0,prac,2,C,mfborder.png,0,m,Mon Apr 28 2025 15:42:33 GMT-0500 (Central Daylight Time),364092.8000000119,CFD-BM-017-052-HC.jpg,2000,solid,O,None,1515,4,1,53815.70000001788,310277.09999999404,7133,ATS,A,1
1,prac,2,C,haborder.png,1,z,Mon Apr 28 2025 15:42:33 GMT-0500 (Central Daylight Time),367508.59999999404,CFD-WF-003-014-A.jpg,1600,dash,O,z,988,9,1,57231.5,310277.09999999404,7133,ATS,A,2
2,prac,2,C,mfborder.png,1,z,Mon Apr 28 2025 15:42:33 GMT-0500 (Central Daylight Time),370774.5,CFD-WF-019-015-A.jpg,1500,solid,O,z,948,2,1,60497.40000000596,310277.09999999404,7133,ATS,A,3
3,prac,2,C,mfborder.png,1,z,Mon Apr 28 2025 15:42:33 GMT-0500 (Central Daylight Time),374172.90000000596,CFD-WF-017-016-HC.jpg,1600,dash,O,z,980,1,1,63895.80000001192,310277.09999999404,7133,ATS,A,4
4,prac,2,C,mfborder.png,1,z,Mon Apr 28 2025 15:42:33 GMT-0500 (Central Daylight Time),376688.59999999404,CFD-BF-028-020-HC.jpg,1000,dash,O,z,694,3,1,66411.5,310277.09999999404,7133,ATS,A,5
5,prac,2,C,haborder.png,1,z,Mon Apr 28 2025 15:42:33 GMT-0500 (Central Daylight Time),380354.40000000596,CFD-BF-039-039-A.jpg,1700,solid,O,z,1140,8,1,70077.30000001192,310277.09999999404,7133,ATS,A,6
6,prac,2,C,mfborder.png,1,m,Mon Apr 28 2025 15:42:33 GMT-0500 (Central Daylight Time),383469.90000000596,CFD-BM-005-010-A.jpg,1200,dash,O,m,1088,5,1,73192.80000001192,310277.09999999404,7133,ATS,A,7
7,prac,2,C,haborder.png,1,m,Mon Apr 28 2025 15:42:33 GMT-0500 (Central Daylight Time),386852.09999999404,CFD-BM-029-026-HC.jpg,1500,solid,O,m,1081,10,1,76575.0,310277.09999999404,7133,ATS,A,8
8,prac,2,C,mfborder.png,1,m,Mon Apr 28 2025 15:42:33 GMT-0500 (Central Daylight Time),390400.90000000596,CFD-WM-013-015-A.jpg,1700,solid,O,m,1034,6,1,80123.80000001192,310277.09999999404,7133,ATS,A,9
9,prac,2,C,haborder.png,1,z,Mon Apr 28 2025 15:42:33 GMT-0500 (Central Daylight Time),394033.2000000179,CFD-BF-023-013-A.jpg,1900,dash,O,z,900,7,1,83756.10000002384,310277.09999999404,7133,ATS,A,10
10,prac,2,C,haborder.png,1,m,Mon Apr 28 2025 15:42:33 GMT-0500 (Central Daylight Time),396898.8000000119,CFD-WM-004-005-HC.jpg,1000,dash,O,m,1041,11,1,86621.70000001788,310277.09999999404,7133,ATS,A,11
11,prac,2,C,haborder.png,1,m,Mon Apr 28 2025 15:42:33 GMT-0500 (Central Daylight Time),399748.2000000179,CFD-WM-004-005-HC.jpg,1400,solid,O,m,648,12,1,89471.10000002384,310277.09999999404,7133,ATS,A,12
1,test,1,C,mfborder.png,1,m,Mon Apr 28 2025 15:42:33 GMT-0500 (Central Daylight Time),414559.90000000596,CFD-WM-006-013-HC.jpg,1000,dash,O,m,1338,4,1,2382.5999999940395,412177.3000000119,7133,ATS,A,1
1,test,1,C,haborder.png,0,m,Mon Apr 28 2025 15:42:33 GMT-0500 (Central Daylight Time),417459.0,CFD-BF-028-020-HC.jpg,1600,solid,O,z,1238,10,1,5281.699999988079,412177.3000000119,7133,ATS,A,2
1,test,1,C,haborder.png,0,m,Mon Apr 28 2025 15:42:33 GMT-0500 (Central Daylight Time),419357.90000000596,CFD-WF-017-016-HC.jpg,1000,solid,O,z,856,12,1,7180.5999999940395,412177.3000000119,7133,ATS,A,3
2,test,1,C,mfborder.png,1,m,Mon Apr 28 2025 15:42:33 GMT-0500 (Central Daylight Time),422606.59999999404,CFD-WM-019-013-A.jpg,2000,dash,O,m,1213,5,1,10429.299999982119,412177.3000000119,7133,ATS,A,4
3,test,1,C,mfborder.png,1,z,Mon Apr 28 2025 15:42:33 GMT-0500 (Central Daylight Time),425306.2000000179,CFD-BF-010-005-HC.jpg,1700,dash,O,z,925,1,1,13128.90000000596,412177.3000000119,7133,ATS,A,5
3,test,1,C,haborder.png,0,m,Mon Apr 28 2025 15:42:33 GMT-0500 (Central Daylight Time),428355.2000000179,CFD-WF-002-008-HC.jpg,1500,solid,O,None,1516,11,1,16177.90000000596,412177.3000000119,7133,ATS,A,6
4,test,1,C,haborder.png,1,z,Mon Apr 28 2025 15:42:33 GMT-0500 (Central Daylight Time),431587.40000000596,CFD-BM-010-019-A.jpg,1700,solid,O,z,1490,9,1,19410.09999999404,412177.3000000119,7133,ATS,A,7
5,test,1,C,haborder.png,1,z,Mon Apr 28 2025 15:42:33 GMT-0500 (Central Daylight Time),434453.3000000119,CFD-BM-005-010-A.jpg,1900,solid,O,z,923,8,1,22276.0,412177.3000000119,7133,ATS,A,8
6,test,1,C,mfborder.png,1,z,Mon Apr 28 2025 15:42:33 GMT-0500 (Central Daylight Time),437019.0,CFD-WF-003-014-A.jpg,1500,dash,O,z,1016,3,1,24841.69999998808,412177.3000000119,7133,ATS,A,9
7,test,1,C,mfborder.png,1,m,Mon Apr 28 2025 15:42:33 GMT-0500 (Central Daylight Time),439135.0,CFD-BM-029-026-HC.jpg,1200,dash,O,m,879,6,1,26957.69999998808,412177.3000000119,7133,ATS,A,10
7,test,1,C,haborder.png,0,m,Mon Apr 28 2025 15:42:33 GMT-0500 (Central Daylight Time),442050.7000000179,CFD-BF-028-020-HC.jpg,1600,solid,O,z,1272,10,1,29873.40000000596,412177.3000000119,7133,ATS,A,11
7,test,1,C,haborder.png,0,m,Mon Apr 28 2025 15:42:33 GMT-0500 (Central Daylight Time),444633.2000000179,CFD-WF-002-008-HC.jpg,1500,solid,O,z,1036,11,1,32455.90000000596,412177.3000000119,7133,ATS,A,12
8,test,1,C,mfborder.png,1,m,Mon Apr 28 2025 15:42:33 GMT-0500 (Central Daylight Time),446832.59999999404,CFD-BM-029-026-HC.jpg,1200,dash,O,m,954,6,1,34655.29999998212,412177.3000000119,7133,ATS,A,13
9,test,1,C,mfborder.png,1,m,Mon Apr 28 2025 15:42:33 GMT-0500 (Central Daylight Time),448832.0,CFD-WM-006-013-HC.jpg,1000,dash,O,m,954,4,1,36654.69999998808,412177.3000000119,7133,ATS,A,14
10,test,1,C,mfborder.png,1,m,Mon Apr 28 2025 15:42:33 GMT-0500 (Central Daylight Time),451597.90000000596,CFD-WM-019-013-A.jpg,2000,dash,O,m,698,5,1,39420.59999999404,412177.3000000119,7133,ATS,A,15
10,test,1,C,mfborder.png,0,z,Mon Apr 28 2025 15:42:33 GMT-0500 (Central Daylight Time),454746.7000000179,CFD-BF-023-013-A.jpg,1600,dash,O,None,1514,2,1,42569.40000000596,412177.3000000119,7133,ATS,A,16
11,test,1,C,haborder.png,1,z,Mon Apr 28 2025 15:42:33 GMT-0500 (Central Daylight Time),457645.90000000596,CFD-BM-005-010-A.jpg,1900,solid,O,z,947,8,1,45468.59999999404,412177.3000000119,7133,ATS,A,17
12,test,1,C,haborder.png,1,z,Mon Apr 28 2025 15:42:33 GMT-0500 (Central Daylight Time),459994.8000000119,CFD-WM-013-015-A.jpg,1400,solid,O,z,909,7,1,47817.5,412177.3000000119,7133,ATS,A,18
13,test,1,C,haborder.png,1,m,Mon Apr 28 2025 15:42:33 GMT-0500 (Central Daylight Time),461894.2000000179,CFD-WF-017-016-HC.jpg,1000,solid,O,m,828,12,1,49716.90000000596,412177.3000000119,7133,ATS,A,19
14,test,1,C,haborder.png,1,z,Mon Apr 28 2025 15:42:33 GMT-0500 (Central Daylight Time),464560.0,CFD-BM-010-019-A.jpg,1700,solid,O,z,928,9,1,52382.69999998808,412177.3000000119,7133,ATS,A,20
15,test,1,C,mfborder.png,1,z,Mon Apr 28 2025 15:42:33 GMT-0500 (Central Daylight Time),467175.5,CFD-BF-023-013-A.jpg,1600,dash,O,z,979,2,1,54998.19999998808,412177.3000000119,7133,ATS,A,21
16,test,1,C,mfborder.png,1,z,Mon Apr 28 2025 15:42:33 GMT-0500 (Central Daylight Time),469841.5,CFD-BF-010-005-HC.jpg,1700,dash,O,z,944,1,1,57664.19999998808,412177.3000000119,7133,ATS,A,22
16,test,1,C,haborder.png,0,z,Mon Apr 28 2025 15:42:33 GMT-0500 (Central Daylight Time),472790.59999999404,CFD-WM-013-015-A.jpg,1400,solid,O,None,1514,7,1,60613.29999998212,412177.3000000119,7133,ATS,A,23
17,test,1,C,mfborder.png,1,z,Mon Apr 28 2025 15:42:33 GMT-0500 (Central Daylight Time),475590.0,CFD-WF-003-014-A.jpg,1500,dash,O,z,1256,3,1,63412.69999998808,412177.3000000119,7133,ATS,A,24
0,test,2,C,haborder.png,0,m,Mon Apr 28 2025 15:42:33 GMT-0500 (Central Daylight Time),480038.5,CFD-WM-004-005-HC.jpg,1000,solid,O,None,1510,12,1,2566.0,477472.5,7133,ATS,A,1
1,test,2,C,haborder.png,1,z,Mon Apr 28 2025 15:42:33 GMT-0500 (Central Daylight Time),482887.2000000179,CFD-BF-039-039-A.jpg,1900,solid,O,z,913,8,1,5414.700000017881,477472.5,7133,ATS,A,2
2,test,2,C,mfborder.png,1,m,Mon Apr 28 2025 15:42:33 GMT-0500 (Central Daylight Time),484870.09999999404,CFD-BM-017-052-HC.jpg,1000,dash,O,m,939,4,1,7397.5999999940395,477472.5,7133,ATS,A,3
3,test,2,C,mfborder.png,1,m,Mon Apr 28 2025 15:42:33 GMT-0500 (Central Daylight Time),487152.59999999404,CFD-WM-013-015-A.jpg,1200,dash,O,m,1045,6,1,9680.09999999404,477472.5,7133,ATS,A,4
4,test,2,C,mfborder.png,1,z,Mon Apr 28 2025 15:42:33 GMT-0500 (Central Daylight Time),489551.8000000119,CFD-WF-017-016-HC.jpg,1700,dash,O,z,662,1,1,12079.300000011921,477472.5,7133,ATS,A,5
4,test,2,C,haborder.png,0,m,Mon Apr 28 2025 15:42:33 GMT-0500 (Central Daylight Time),492600.7000000179,CFD-WM-004-005-HC.jpg,1500,solid,O,None,1515,11,1,15128.200000017881,477472.5,7133,ATS,A,6
5,test,2,C,mfborder.png,1,m,Mon Apr 28 2025 15:42:33 GMT-0500 (Central Daylight Time),494800.0,CFD-BM-017-052-HC.jpg,1000,dash,O,m,1133,4,1,17327.5,477472.5,7133,ATS,A,7
6,test,2,C,mfborder.png,1,z,Mon Apr 28 2025 15:42:33 GMT-0500 (Central Daylight Time),497632.59999999404,CFD-WF-019-015-A.jpg,1600,dash,O,z,1187,2,1,20160.09999999404,477472.5,7133,ATS,A,8
7,test,2,C,mfborder.png,1,z,Mon Apr 28 2025 15:42:33 GMT-0500 (Central Daylight Time),499814.59999999404,CFD-BF-028-020-HC.jpg,1500,dash,O,z,646,3,1,22342.09999999404,477472.5,7133,ATS,A,9
8,test,2,C,haborder.png,1,z,Mon Apr 28 2025 15:42:33 GMT-0500 (Central Daylight Time),501997.8000000119,CFD-BF-023-013-A.jpg,1400,solid,O,z,723,7,1,24525.30000001192,477472.5,7133,ATS,A,10
9,test,2,C,haborder.png,1,z,Mon Apr 28 2025 15:42:33 GMT-0500 (Central Daylight Time),504563.8000000119,CFD-WF-003-014-A.jpg,1700,solid,O,z,816,9,1,27091.30000001192,477472.5,7133,ATS,A,11
10,test,2,C,haborder.png,1,z,Mon Apr 28 2025 15:42:33 GMT-0500 (Central Daylight Time),506846.3000000119,CFD-WF-003-014-A.jpg,1700,solid,O,z,539,9,1,29373.80000001192,477472.5,7133,ATS,A,12
11,test,2,C,mfborder.png,1,m,Mon Apr 28 2025 15:42:33 GMT-0500 (Central Daylight Time),509728.40000000596,CFD-BM-005-010-A.jpg,2000,dash,O,m,837,5,1,32255.90000000596,477472.5,7133,ATS,A,13
12,test,2,C,mfborder.png,1,z,Mon Apr 28 2025 15:42:33 GMT-0500 (Central Daylight Time),512227.5,CFD-WF-017-016-HC.jpg,1700,dash,O,z,758,1,1,34755.0,477472.5,7133,ATS,A,14
13,test,2,C,mfborder.png,1,m,Mon Apr 28 2025 15:42:33 GMT-0500 (Central Daylight Time),515076.7000000179,CFD-BM-005-010-A.jpg,2000,dash,O,m,800,5,1,37604.20000001788,477472.5,7133,ATS,A,15
14,test,2,C,mfborder.png,1,z,Mon Apr 28 2025 15:42:33 GMT-0500 (Central Daylight Time),517742.59999999404,CFD-BF-028-020-HC.jpg,1500,dash,O,z,1122,3,1,40270.09999999404,477472.5,7133,ATS,A,16
15,test,2,C,haborder.png,1,z,Mon Apr 28 2025 15:42:33 GMT-0500 (Central Daylight Time),520175.0,CFD-BF-023-013-A.jpg,1400,solid,O,z,988,7,1,42702.5,477472.5,7133,ATS,A,17
16,test,2,C,haborder.png,1,z,Mon Apr 28 2025 15:42:33 GMT-0500 (Central Daylight Time),522924.09999999404,CFD-BF-039-039-A.jpg,1900,solid,O,z,808,8,1,45451.59999999404,477472.5,7133,ATS,A,18
17,test,2,C,mfborder.png,1,m,Mon Apr 28 2025 15:42:33 GMT-0500 (Central Daylight Time),525206.599999994,CFD-WM-013-015-A.jpg,1200,dash,O,m,1038,6,1,47734.09999999404,477472.5,7133,ATS,A,19
17,test,2,C,haborder.png,0,m,Mon Apr 28 2025 15:42:33 GMT-0500 (Central Daylight Time),528255.900000006,CFD-WM-004-005-HC.jpg,1500,solid,O,None,1515,11,1,50783.40000000596,477472.5,7133,ATS,A,20
18,test,2,C,haborder.png,1,m,Mon Apr 28 2025 15:42:33 GMT-0500 (Central Daylight Time),530288.400000006,CFD-WM-004-005-HC.jpg,1000,solid,O,m,987,12,1,52815.90000000596,477472.5,7133,ATS,A,21
19,test,2,C,mfborder.png,1,z,Mon Apr 28 2025 15:42:33 GMT-0500 (Central Daylight Time),533053.5,CFD-WF-019-015-A.jpg,1600,dash,O,z,1128,2,1,55581.0,477472.5,7133,ATS,A,22
20,test,2,C,haborder.png,1,m,Mon Apr 28 2025 15:42:33 GMT-0500 (Central Daylight Time),536103.2000000179,CFD-BM-029-026-HC.jpg,1600,solid,O,m,1413,10,1,58630.70000001788,477472.5,7133,ATS,A,23
21,test,2,C,haborder.png,1,m,Mon Apr 28 2025 15:42:33 GMT-0500 (Central Daylight Time),538319.400000006,CFD-BM-029-026-HC.jpg,1600,solid,O,m,571,10,1,60846.90000000596,477472.5,7133,ATS,A,24
1,test,3,C,mfborder.png,1,z,Mon Apr 28 2025 15:42:33 GMT-0500 (Central Daylight Time),544400.599999994,CFD-BF-023-013-A.jpg,1600,dash,O,z,954,2,1,2615.7999999821186,541784.8000000119,7133,ATS,A,1
2,test,3,C,haborder.png,1,m,Mon Apr 28 2025 15:42:33 GMT-0500 (Central Daylight Time),547366.099999994,CFD-BF-028-020-HC.jpg,1600,solid,O,m,1314,10,1,5581.299999982119,541784.8000000119,7133,ATS,A,2
3,test,3,C,mfborder.png,1,z,Mon Apr 28 2025 15:42:33 GMT-0500 (Central Daylight Time),549965.8000000119,CFD-BF-010-005-HC.jpg,1700,dash,O,z,864,1,1,8181.0,541784.8000000119,7133,ATS,A,3
4,test,3,C,mfborder.png,1,m,Mon Apr 28 2025 15:42:33 GMT-0500 (Central Daylight Time),552147.900000006,CFD-BM-029-026-HC.jpg,1200,dash,O,m,943,6,1,10363.09999999404,541784.8000000119,7133,ATS,A,4
5,test,3,C,mfborder.png,1,m,Mon Apr 28 2025 15:42:33 GMT-0500 (Central Daylight Time),553963.599999994,CFD-WM-006-013-HC.jpg,1000,dash,O,m,773,4,1,12178.799999982119,541784.8000000119,7133,ATS,A,5
6,test,3,C,haborder.png,1,z,Mon Apr 28 2025 15:42:33 GMT-0500 (Central Daylight Time),557162.900000006,CFD-BM-005-010-A.jpg,1900,solid,O,z,1267,8,1,15378.09999999404,541784.8000000119,7133,ATS,A,6
6,test,3,C,haborder.png,0,m,Mon Apr 28 2025 15:42:33 GMT-0500 (Central Daylight Time),560312.400000006,CFD-BF-028-020-HC.jpg,1600,solid,O,None,1515,10,1,18527.59999999404,541784.8000000119,7133,ATS,A,7
7,test,3,C,mfborder.png,1,m,Mon Apr 28 2025 15:42:33 GMT-0500 (Central Daylight Time),562144.7000000179,CFD-WM-006-013-HC.jpg,1000,dash,O,m,787,4,1,20359.90000000596,541784.8000000119,7133,ATS,A,8
7,test,3,C,haborder.png,0,m,Mon Apr 28 2025 15:42:33 GMT-0500 (Central Daylight Time),564710.5,CFD-WF-017-016-HC.jpg,1000,solid,O,None,1516,12,1,22925.69999998808,541784.8000000119,7133,ATS,A,9
8,test,3,C,haborder.png,1,m,Mon Apr 28 2025 15:42:33 GMT-0500 (Central Daylight Time),567226.599999994,CFD-WF-002-008-HC.jpg,1500,solid,O,m,976,11,1,25441.79999998212,541784.8000000119,7133,ATS,A,10
9,test,3,C,haborder.png,1,z,Mon Apr 28 2025 15:42:33 GMT-0500 (Central Daylight Time),569525.400000006,CFD-WM-013-015-A.jpg,1400,solid,O,z,856,7,1,27740.59999999404,541784.8000000119,7133,ATS,A,11
10,test,3,C,haborder.png,1,z,Mon Apr 28 2025 15:42:33 GMT-0500 (Central Daylight Time),572342.0,CFD-BM-010-019-A.jpg,1700,solid,O,z,1081,9,1,30557.19999998808,541784.8000000119,7133,ATS,A,12
11,test,3,C,haborder.png,1,z,Mon Apr 28 2025 15:42:33 GMT-0500 (Central Daylight Time),574723.900000006,CFD-BM-010-019-A.jpg,1700,solid,O,z,632,9,1,32939.09999999404,541784.8000000119,7133,ATS,A,13
12,test,3,C,mfborder.png,1,m,Mon Apr 28 2025 15:42:33 GMT-0500 (Central Daylight Time),577539.7000000179,CFD-WM-019-013-A.jpg,2000,dash,O,m,766,5,1,35754.90000000596,541784.8000000119,7133,ATS,A,14
13,test,3,C,mfborder.png,1,z,Mon Apr 28 2025 15:42:33 GMT-0500 (Central Daylight Time),579738.8000000119,CFD-WF-003-014-A.jpg,1500,dash,O,z,659,3,1,37954.0,541784.8000000119,7133,ATS,A,15
14,test,3,C,mfborder.png,1,z,Mon Apr 28 2025 15:42:33 GMT-0500 (Central Daylight Time),582053.900000006,CFD-BF-023-013-A.jpg,1600,dash,O,z,680,2,1,40269.09999999404,541784.8000000119,7133,ATS,A,16
14,test,3,C,haborder.png,0,z,Mon Apr 28 2025 15:42:33 GMT-0500 (Central Daylight Time),584987.400000006,CFD-WM-013-015-A.jpg,1400,solid,O,None,1516,7,1,43202.59999999404,541784.8000000119,7133,ATS,A,17
15,test,3,C,haborder.png,1,m,Mon Apr 28 2025 15:42:33 GMT-0500 (Central Daylight Time),586936.599999994,CFD-WF-017-016-HC.jpg,1000,solid,O,m,903,12,1,45151.79999998212,541784.8000000119,7133,ATS,A,18
16,test,3,C,haborder.png,1,m,Mon Apr 28 2025 15:42:33 GMT-0500 (Central Daylight Time),589235.599999994,CFD-WF-002-008-HC.jpg,1500,solid,O,m,748,11,1,47450.79999998212,541784.8000000119,7133,ATS,A,19
17,test,3,C,mfborder.png,1,z,Mon Apr 28 2025 15:42:33 GMT-0500 (Central Daylight Time),591734.7000000179,CFD-BF-010-005-HC.jpg,1700,dash,O,z,754,1,1,49949.90000000596,541784.8000000119,7133,ATS,A,20
18,test,3,C,mfborder.png,1,z,Mon Apr 28 2025 15:42:33 GMT-0500 (Central Daylight Time),593883.5,CFD-WF-003-014-A.jpg,1500,dash,O,z,614,3,1,52098.69999998808,541784.8000000119,7133,ATS,A,21
19,test,3,C,mfborder.png,1,m,Mon Apr 28 2025 15:42:33 GMT-0500 (Central Daylight Time),595817.0,CFD-BM-029-026-HC.jpg,1200,dash,O,m,703,6,1,54032.19999998808,541784.8000000119,7133,ATS,A,22
20,test,3,C,mfborder.png,1,m,Mon Apr 28 2025 15:42:33 GMT-0500 (Central Daylight Time),598449.099999994,CFD-WM-019-013-A.jpg,2000,dash,O,m,594,5,1,56664.29999998212,541784.8000000119,7133,ATS,A,23
20,test,3,C,haborder.png,0,z,Mon Apr 28 2025 15:42:33 GMT-0500 (Central Daylight Time),601748.3000000119,CFD-BM-005-010-A.jpg,1900,solid,O,m,1349,8,1,59963.5,541784.8000000119,7133,ATS,A,24
0,test,4,C,haborder.png,0,z,Mon Apr 28 2025 15:42:33 GMT-0500 (Central Daylight Time),606597.099999994,CFD-BF-023-013-A.jpg,1400,solid,O,None,1517,7,1,2949.5,603647.599999994,7133,ATS,A,1
1,test,4,C,mfborder.png,1,m,Mon Apr 28 2025 15:42:33 GMT-0500 (Central Daylight Time),608712.900000006,CFD-WM-013-015-A.jpg,1200,dash,O,m,878,6,1,5065.300000011921,603647.599999994,7133,ATS,A,2
2,test,4,C,haborder.png,1,m,Mon Apr 28 2025 15:42:33 GMT-0500 (Central Daylight Time),610861.900000006,CFD-WM-004-005-HC.jpg,1000,solid,O,m,1114,12,1,7214.300000011921,603647.599999994,7133,ATS,A,3
3,test,4,C,haborder.png,1,m,Mon Apr 28 2025 15:42:33 GMT-0500 (Central Daylight Time),613061.2000000179,CFD-WM-004-005-HC.jpg,1000,solid,O,m,1128,12,1,9413.600000023842,603647.599999994,7133,ATS,A,4
4,test,4,C,mfborder.png,1,z,Mon Apr 28 2025 15:42:33 GMT-0500 (Central Daylight Time),615977.0,CFD-WF-017-016-HC.jpg,1700,dash,O,z,1161,1,1,12329.40000000596,603647.599999994,7133,ATS,A,5
5,test,4,C,mfborder.png,1,z,Mon Apr 28 2025 15:42:33 GMT-0500 (Central Daylight Time),618209.2000000179,CFD-BF-028-020-HC.jpg,1500,dash,O,z,685,3,1,14561.600000023842,603647.599999994,7133,ATS,A,6
6,test,4,C,haborder.png,1,z,Mon Apr 28 2025 15:42:33 GMT-0500 (Central Daylight Time),621391.900000006,CFD-WF-003-014-A.jpg,1700,solid,O,z,1445,9,1,17744.30000001192,603647.599999994,7133,ATS,A,7
7,test,4,C,mfborder.png,1,m,Mon Apr 28 2025 15:42:33 GMT-0500 (Central Daylight Time),624140.7000000179,CFD-BM-005-010-A.jpg,2000,dash,O,m,707,5,1,20493.100000023842,603647.599999994,7133,ATS,A,8
7,test,4,C,haborder.png,0,z,Mon Apr 28 2025 15:42:33 GMT-0500 (Central Daylight Time),627106.0,CFD-BF-023-013-A.jpg,1400,solid,O,None,1514,7,1,23458.40000000596,603647.599999994,7133,ATS,A,9
8,test,4,C,mfborder.png,1,z,Mon Apr 28 2025 15:42:33 GMT-0500 (Central Daylight Time),630222.099999994,CFD-WF-019-015-A.jpg,1600,dash,O,z,1489,2,1,26574.5,603647.599999994,7133,ATS,A,10
9,test,4,C,mfborder.png,1,m,Mon Apr 28 2025 15:42:33 GMT-0500 (Central Daylight Time),631971.900000006,CFD-BM-017-052-HC.jpg,1000,dash,O,m,692,4,1,28324.30000001192,603647.599999994,7133,ATS,A,11
9,test,4,C,haborder.png,0,m,Mon Apr 28 2025 15:42:33 GMT-0500 (Central Daylight Time),634754.2000000179,CFD-BM-029-026-HC.jpg,1600,solid,O,z,1143,10,1,31106.600000023842,603647.599999994,7133,ATS,A,12
10,test,4,C,haborder.png,1,z,Mon Apr 28 2025 15:42:33 GMT-0500 (Central Daylight Time),637470.0,CFD-WF-003-014-A.jpg,1700,solid,O,z,964,9,1,33822.40000000596,603647.599999994,7133,ATS,A,13
11,test,4,C,haborder.png,1,m,Mon Apr 28 2025 15:42:33 GMT-0500 (Central Daylight Time),639935.900000006,CFD-WM-004-005-HC.jpg,1500,solid,O,m,929,11,1,36288.30000001192,603647.599999994,7133,ATS,A,14
12,test,4,C,mfborder.png,1,m,Mon Apr 28 2025 15:42:33 GMT-0500 (Central Daylight Time),641868.599999994,CFD-BM-017-052-HC.jpg,1000,dash,O,m,864,4,1,38221.0,603647.599999994,7133,ATS,A,15
13,test,4,C,haborder.png,1,z,Mon Apr 28 2025 15:42:33 GMT-0500 (Central Daylight Time),644867.5,CFD-BF-039-039-A.jpg,1900,solid,O,z,1044,8,1,41219.90000000596,603647.599999994,7133,ATS,A,16
14,test,4,C,haborder.png,1,z,Mon Apr 28 2025 15:42:33 GMT-0500 (Central Daylight Time),647533.400000006,CFD-BF-039-039-A.jpg,1900,solid,O,z,723,8,1,43885.80000001192,603647.599999994,7133,ATS,A,17
15,test,4,C,mfborder.png,1,z,Mon Apr 28 2025 15:42:33 GMT-0500 (Central Daylight Time),649916.0,CFD-BF-028-020-HC.jpg,1500,dash,O,z,841,3,1,46268.40000000596,603647.599999994,7133,ATS,A,18
15,test,4,C,haborder.png,0,m,Mon Apr 28 2025 15:42:33 GMT-0500 (Central Daylight Time),653064.900000006,CFD-BM-029-026-HC.jpg,1600,solid,O,None,1515,10,1,49417.30000001192,603647.599999994,7133,ATS,A,19
16,test,4,C,haborder.png,1,m,Mon Apr 28 2025 15:42:33 GMT-0500 (Central Daylight Time),655430.3000000119,CFD-WM-004-005-HC.jpg,1500,solid,O,m,830,11,1,51782.70000001788,603647.599999994,7133,ATS,A,20
17,test,4,C,mfborder.png,1,z,Mon Apr 28 2025 15:42:33 GMT-0500 (Central Daylight Time),657963.5,CFD-WF-019-015-A.jpg,1600,dash,O,z,883,2,1,54315.90000000596,603647.599999994,7133,ATS,A,21
18,test,4,C,mfborder.png,1,m,Mon Apr 28 2025 15:42:33 GMT-0500 (Central Daylight Time),659946.0,CFD-WM-013-015-A.jpg,1200,dash,O,m,716,6,1,56298.40000000596,603647.599999994,7133,ATS,A,22
19,test,4,C,mfborder.png,1,z,Mon Apr 28 2025 15:42:33 GMT-0500 (Central Daylight Time),662428.400000006,CFD-WF-017-016-HC.jpg,1700,dash,O,z,733,1,1,58780.80000001192,603647.599999994,7133,ATS,A,23
20,test,4,C,mfborder.png,1,m,Mon Apr 28 2025 15:42:33 GMT-0500 (Central Daylight Time),665144.3000000119,CFD-BM-005-010-A.jpg,2000,dash,O,m,670,5,1,61496.70000001788,603647.599999994,7133,ATS,A,24
