block_c,block_dur,condition,countdown,datetime,endtime,list,multichar_response,project,response,response_time,session_number,start_end,starttime,subject_id,task,task_vers,trial
,,,,Mon Feb 24 2025 14:23:31 GMT-0600 (Central Standard Time),,,,O,space,314,1,,,7063,WL,B,
prac,,0,,Mon Feb 24 2025 14:23:31 GMT-0600 (Central Standard Time),,NA,b,O,b,2907,1,,,7063,WL,B,1.0
prac,,0,,Mon Feb 24 2025 14:23:31 GMT-0600 (Central Standard Time),,NA,bo,O,o,353,1,,,7063,WL,B,1.0
prac,,0,,Mon Feb 24 2025 14:23:31 GMT-0600 (Central Standard Time),,NA,boo,O,o,164,1,,,7063,WL,B,1.0
prac,,0,,Mon Feb 24 2025 14:23:31 GMT-0600 (Central Standard Time),,NA,boos,O,s,213,1,,,7063,WL,B,1.0
prac,,0,,Mon Feb 24 2025 14:23:31 GMT-0600 (Central Standard Time),,NA,boost,O,t,220,1,,,7063,WL,B,1.0
prac,,0,,Mon Feb 24 2025 14:23:31 GMT-0600 (Central Standard Time),,NA,boostenter,O,enter,2314,1,,,7063,WL,B,1.0
1,0.8659999370574951,learn,59134.000062942505,Mon Feb 24 2025 14:23:31 GMT-0600 (Central Standard Time),145498.2000000002,A,s,O,s,859,1,865.7000000001863,144632.5,7063,WL,B,1.0
1,1.183000087738037,learn,58816.99991226196,Mon Feb 24 2025 14:23:31 GMT-0600 (Central Standard Time),145815.0,A,st,O,t,304,1,1182.5,144632.5,7063,WL,B,1.0
1,1.4500000476837158,learn,58549.999952316284,Mon Feb 24 2025 14:23:31 GMT-0600 (Central Standard Time),146081.5,A,str,O,r,253,1,1449.0,144632.5,7063,WL,B,1.0
1,1.7160000801086426,learn,58283.99991989136,Mon Feb 24 2025 14:23:31 GMT-0600 (Central Standard Time),146348.0,A,stre,O,e,258,1,1715.5,144632.5,7063,WL,B,1.0
1,1.8489999771118164,learn,58151.00002288818,Mon Feb 24 2025 14:23:31 GMT-0600 (Central Standard Time),146481.39999999944,A,stree,O,e,121,1,1848.8999999994412,144632.5,7063,WL,B,1.0
1,2.199000120162964,learn,57800.999879837036,Mon Feb 24 2025 14:23:31 GMT-0600 (Central Standard Time),146831.2000000002,A,street,O,t,330,1,2198.7000000001863,144632.5,7063,WL,B,1.0
1,6.148000001907349,learn,53851.99999809265,Mon Feb 24 2025 14:23:31 GMT-0600 (Central Standard Time),150779.89999999944,A,streetenter,O,enter,3941,1,6147.399999999441,144632.5,7063,WL,B,1.0
1,7.04800009727478,learn,52951.99990272522,Mon Feb 24 2025 14:23:31 GMT-0600 (Central Standard Time),151679.89999999944,A,g,O,g,879,1,899.1999999992549,150780.7000000002,7063,WL,B,2.0
1,7.29800009727478,learn,52701.99990272522,Mon Feb 24 2025 14:23:31 GMT-0600 (Central Standard Time),151929.7000000002,A,gr,O,r,237,1,1149.0,150780.7000000002,7063,WL,B,2.0
1,7.480999946594238,learn,52519.00005340576,Mon Feb 24 2025 14:23:31 GMT-0600 (Central Standard Time),152113.39999999944,A,gra,O,a,170,1,1332.699999999255,150780.7000000002,7063,WL,B,2.0
1,7.831000089645386,learn,52168.999910354614,Mon Feb 24 2025 14:23:31 GMT-0600 (Central Standard Time),152462.59999999963,A,gras,O,s,331,1,1681.8999999994412,150780.7000000002,7063,WL,B,2.0
1,7.980999946594238,learn,52019.00005340576,Mon Feb 24 2025 14:23:31 GMT-0600 (Central Standard Time),152612.5,A,grass,O,s,133,1,1831.7999999998137,150780.7000000002,7063,WL,B,2.0
1,8.564000129699707,learn,51435.99987030029,Mon Feb 24 2025 14:23:31 GMT-0600 (Central Standard Time),153195.7000000002,A,grassenter,O,enter,568,1,2415.0,150780.7000000002,7063,WL,B,2.0
1,8.996999979019165,learn,51003.000020980835,Mon Feb 24 2025 14:23:31 GMT-0600 (Central Standard Time),153629.09999999963,A,d,O,d,425,1,432.8999999994412,153196.2000000002,7063,WL,B,3.0
1,9.230000019073486,learn,50769.999980926514,Mon Feb 24 2025 14:23:31 GMT-0600 (Central Standard Time),153862.39999999944,A,do,O,o,216,1,666.1999999992549,153196.2000000002,7063,WL,B,3.0
1,9.397000074386597,learn,50602.9999256134,Mon Feb 24 2025 14:23:31 GMT-0600 (Central Standard Time),154028.89999999944,A,doo,O,o,158,1,832.6999999992549,153196.2000000002,7063,WL,B,3.0
1,9.630000114440918,learn,50369.99988555908,Mon Feb 24 2025 14:23:31 GMT-0600 (Central Standard Time),154262.2999999998,A,door,O,r,216,1,1066.0999999996275,153196.2000000002,7063,WL,B,3.0
1,10.130000114440918,learn,49869.99988555908,Mon Feb 24 2025 14:23:31 GMT-0600 (Central Standard Time),154762.2000000002,A,doorenter,O,enter,478,1,1566.0,153196.2000000002,7063,WL,B,3.0
1,10.597000122070312,learn,49402.99987792969,Mon Feb 24 2025 14:23:31 GMT-0600 (Central Standard Time),155228.59999999963,A,c,O,c,449,1,466.0,154762.59999999963,7063,WL,B,4.0
1,10.69700002670288,learn,49302.99997329712,Mon Feb 24 2025 14:23:31 GMT-0600 (Central Standard Time),155328.59999999963,A,cl,O,l,88,1,566.0,154762.59999999963,7063,WL,B,4.0
1,10.930000066757202,learn,49069.9999332428,Mon Feb 24 2025 14:23:31 GMT-0600 (Central Standard Time),155561.5,A,clo,O,o,219,1,798.9000000003725,154762.59999999963,7063,WL,B,4.0
1,11.146000146865845,learn,48853.999853134155,Mon Feb 24 2025 14:23:31 GMT-0600 (Central Standard Time),155778.09999999963,A,cloc,O,c,202,1,1015.5,154762.59999999963,7063,WL,B,4.0
1,11.246000051498413,learn,48753.99994850159,Mon Feb 24 2025 14:23:31 GMT-0600 (Central Standard Time),155878.0,A,clock,O,k,81,1,1115.4000000003725,154762.59999999963,7063,WL,B,4.0
1,11.713000059127808,learn,48286.99994087219,Mon Feb 24 2025 14:23:31 GMT-0600 (Central Standard Time),156344.59999999963,A,clockenter,O,enter,454,1,1582.0,154762.59999999963,7063,WL,B,4.0
1,12.095999956130981,learn,47904.00004386902,Mon Feb 24 2025 14:23:31 GMT-0600 (Central Standard Time),156728.0,A,c,O,c,372,1,383.0,156345.0,7063,WL,B,5.0
1,12.196000099182129,learn,47803.99990081787,Mon Feb 24 2025 14:23:31 GMT-0600 (Central Standard Time),156828.2000000002,A,ci,O,i,92,1,483.20000000018626,156345.0,7063,WL,B,5.0
1,12.446000099182129,learn,47553.99990081787,Mon Feb 24 2025 14:23:31 GMT-0600 (Central Standard Time),157078.0,A,cit,O,t,231,1,733.0,156345.0,7063,WL,B,5.0
1,13.029000043869019,learn,46970.99995613098,Mon Feb 24 2025 14:23:31 GMT-0600 (Central Standard Time),157661.0,A,city,O,y,575,1,1316.0,156345.0,7063,WL,B,5.0
1,13.579999923706055,learn,46420.000076293945,Mon Feb 24 2025 14:23:31 GMT-0600 (Central Standard Time),158212.09999999963,A,cityenter,O,enter,535,1,1867.0999999996275,156345.0,7063,WL,B,5.0
1,38.08800005912781,learn,21911.999940872192,Mon Feb 24 2025 14:23:31 GMT-0600 (Central Standard Time),182720.0,A,enter,O,enter,24494,1,24507.400000000373,158212.59999999963,7063,WL,B,6.0
1,56.681999921798706,learn,3318.000078201294,Mon Feb 24 2025 14:23:31 GMT-0600 (Central Standard Time),201314.0,A,enter,O,enter,18580,1,18593.400000000373,182720.59999999963,7063,WL,B,7.0
1,57.48200011253357,learn,2517.9998874664307,Mon Feb 24 2025 14:23:31 GMT-0600 (Central Standard Time),202114.2000000002,A,enter,O,enter,778,1,799.7000000001863,201314.5,7063,WL,B,8.0
1,58.11500000953674,learn,1884.9999904632568,Mon Feb 24 2025 14:23:31 GMT-0600 (Central Standard Time),202747.09999999963,A,enter,O,enter,619,1,632.5999999996275,202114.5,7063,WL,B,9.0
1,58.69799995422363,learn,1302.0000457763672,Mon Feb 24 2025 14:23:31 GMT-0600 (Central Standard Time),203330.2999999998,A,enter,O,enter,561,1,582.5999999996275,202747.7000000002,7063,WL,B,10.0
1,60.013999938964844,learn,-13.99993896484375,Mon Feb 24 2025 14:23:31 GMT-0600 (Central Standard Time),204646.59999999963,A,None,O,None,1311,1,1316.0999999996275,203330.5,7063,WL,B,11.0
2,0.75,learn,59250.0,Mon Feb 24 2025 14:23:31 GMT-0600 (Central Standard Time),275457.5,A,s,O,s,730,1,749.7000000001863,274707.7999999998,7063,WL,B,1.0
2,0.9830000400543213,learn,59016.99995994568,Mon Feb 24 2025 14:23:31 GMT-0600 (Central Standard Time),275690.7999999998,A,st,O,t,227,1,983.0,274707.7999999998,7063,WL,B,1.0
2,1.2330000400543213,learn,58766.99995994568,Mon Feb 24 2025 14:23:31 GMT-0600 (Central Standard Time),275940.89999999944,A,str,O,r,234,1,1233.0999999996275,274707.7999999998,7063,WL,B,1.0
2,1.5169999599456787,learn,58483.00004005432,Mon Feb 24 2025 14:23:31 GMT-0600 (Central Standard Time),276224.0999999996,A,stre,O,e,264,1,1516.2999999998137,274707.7999999998,7063,WL,B,1.0
2,1.7660000324249268,learn,58233.99996757507,Mon Feb 24 2025 14:23:31 GMT-0600 (Central Standard Time),276473.89999999944,A,stree,O,e,229,1,1766.0999999996275,274707.7999999998,7063,WL,B,1.0
2,2.190999984741211,learn,57809.00001525879,Mon Feb 24 2025 14:23:31 GMT-0600 (Central Standard Time),276898.89999999944,A,street,O,t,420,1,2191.0999999996275,274707.7999999998,7063,WL,B,1.0
2,2.433000087738037,learn,57566.99991226196,Mon Feb 24 2025 14:23:31 GMT-0600 (Central Standard Time),277140.7999999998,A,streetenter,O,enter,225,1,2433.0,274707.7999999998,7063,WL,B,1.0
2,2.933000087738037,learn,57066.99991226196,Mon Feb 24 2025 14:23:31 GMT-0600 (Central Standard Time),277640.39999999944,A,g,O,g,488,1,499.29999999981374,277141.0999999996,7063,WL,B,2.0
2,3.1659998893737793,learn,56834.00011062622,Mon Feb 24 2025 14:23:31 GMT-0600 (Central Standard Time),277873.2999999998,A,gr,O,r,221,1,732.2000000001863,277141.0999999996,7063,WL,B,2.0
2,3.315999984741211,learn,56684.00001525879,Mon Feb 24 2025 14:23:31 GMT-0600 (Central Standard Time),278023.5,A,gra,O,a,131,1,882.4000000003725,277141.0999999996,7063,WL,B,2.0
2,3.615999937057495,learn,56384.000062942505,Mon Feb 24 2025 14:23:31 GMT-0600 (Central Standard Time),278323.39999999944,A,gras,O,s,286,1,1182.2999999998137,277141.0999999996,7063,WL,B,2.0
2,3.7829999923706055,learn,56217.000007629395,Mon Feb 24 2025 14:23:31 GMT-0600 (Central Standard Time),278490.0999999996,A,grass,O,s,154,1,1349.0,277141.0999999996,7063,WL,B,2.0
2,4.115999937057495,learn,55884.000062942505,Mon Feb 24 2025 14:23:31 GMT-0600 (Central Standard Time),278823.39999999944,A,grassenter,O,enter,323,1,1682.2999999998137,277141.0999999996,7063,WL,B,2.0
2,4.799000024795532,learn,55200.99997520447,Mon Feb 24 2025 14:23:31 GMT-0600 (Central Standard Time),279506.2999999998,A,s,O,s,678,1,682.5999999996275,278823.7000000002,7063,WL,B,3.0
2,5.015000104904175,learn,54984.999895095825,Mon Feb 24 2025 14:23:31 GMT-0600 (Central Standard Time),279723.0,A,st,O,t,211,1,899.2999999998137,278823.7000000002,7063,WL,B,3.0
2,5.198999881744385,learn,54801.000118255615,Mon Feb 24 2025 14:23:31 GMT-0600 (Central Standard Time),279906.5,A,sta,O,a,178,1,1082.7999999998137,278823.7000000002,7063,WL,B,3.0
2,5.398999929428101,learn,54601.0000705719,Mon Feb 24 2025 14:23:31 GMT-0600 (Central Standard Time),280106.2000000002,A,star,O,r,195,1,1282.5,278823.7000000002,7063,WL,B,3.0
2,5.898999929428101,learn,54101.0000705719,Mon Feb 24 2025 14:23:31 GMT-0600 (Central Standard Time),280606.39999999944,A,starenter,O,enter,483,1,1782.699999999255,278823.7000000002,7063,WL,B,3.0
2,6.249000072479248,learn,53750.99992752075,Mon Feb 24 2025 14:23:31 GMT-0600 (Central Standard Time),280956.0999999996,A,d,O,d,335,1,349.3999999994412,280606.7000000002,7063,WL,B,4.0
2,6.515000104904175,learn,53484.999895095825,Mon Feb 24 2025 14:23:31 GMT-0600 (Central Standard Time),281222.7000000002,A,do,O,o,249,1,616.0,280606.7000000002,7063,WL,B,4.0
2,6.648000001907349,learn,53351.99999809265,Mon Feb 24 2025 14:23:31 GMT-0600 (Central Standard Time),281356.0,A,doo,O,o,127,1,749.2999999998137,280606.7000000002,7063,WL,B,4.0
2,6.98199987411499,learn,53018.00012588501,Mon Feb 24 2025 14:23:31 GMT-0600 (Central Standard Time),281689.2999999998,A,door,O,r,321,1,1082.5999999996275,280606.7000000002,7063,WL,B,4.0
2,7.565000057220459,learn,52434.99994277954,Mon Feb 24 2025 14:23:31 GMT-0600 (Central Standard Time),282272.2000000002,A,doorenter,O,enter,572,1,1665.5,280606.7000000002,7063,WL,B,4.0
2,7.997999906539917,learn,52002.00009346008,Mon Feb 24 2025 14:23:31 GMT-0600 (Central Standard Time),282705.5999999996,A,w,O,w,412,1,433.0,282272.5999999996,7063,WL,B,5.0
2,8.098000049591064,learn,51901.999950408936,Mon Feb 24 2025 14:23:31 GMT-0600 (Central Standard Time),282805.5,A,wi,O,i,92,1,532.9000000003725,282272.5999999996,7063,WL,B,5.0
2,8.364000082015991,learn,51635.99991798401,Mon Feb 24 2025 14:23:31 GMT-0600 (Central Standard Time),283071.89999999944,A,wid,O,d,256,1,799.2999999998137,282272.5999999996,7063,WL,B,5.0
2,8.79800009727478,learn,51201.99990272522,Mon Feb 24 2025 14:23:31 GMT-0600 (Central Standard Time),283505.39999999944,A,wi,O,backspace,421,1,1232.7999999998137,282272.5999999996,7063,WL,B,5.0
2,8.88100004196167,learn,51118.99995803833,Mon Feb 24 2025 14:23:31 GMT-0600 (Central Standard Time),283588.5999999996,A,wif,O,f,75,1,1316.0,282272.5999999996,7063,WL,B,5.0
2,9.114000082015991,learn,50885.99991798401,Mon Feb 24 2025 14:23:31 GMT-0600 (Central Standard Time),283821.89999999944,A,wife,O,e,217,1,1549.2999999998137,282272.5999999996,7063,WL,B,5.0
2,10.697999954223633,learn,49302.00004577637,Mon Feb 24 2025 14:23:31 GMT-0600 (Central Standard Time),285405.5999999996,A,wifeenter,O,enter,1567,1,3133.0,282272.5999999996,7063,WL,B,5.0
2,11.096999883651733,learn,48903.00011634827,Mon Feb 24 2025 14:23:31 GMT-0600 (Central Standard Time),285804.5,A,a,O,a,383,1,398.6000000005588,285405.89999999944,7063,WL,B,6.0
2,11.29699993133545,learn,48703.00006866455,Mon Feb 24 2025 14:23:31 GMT-0600 (Central Standard Time),286004.5,A,al,O,l,184,1,598.6000000005588,285405.89999999944,7063,WL,B,6.0
2,11.513000011444092,learn,48486.99998855591,Mon Feb 24 2025 14:23:31 GMT-0600 (Central Standard Time),286220.89999999944,A,ala,O,a,201,1,815.0,285405.89999999944,7063,WL,B,6.0
2,11.77999997138977,learn,48220.00002861023,Mon Feb 24 2025 14:23:31 GMT-0600 (Central Standard Time),286487.7999999998,A,alar,O,r,248,1,1081.9000000003725,285405.89999999944,7063,WL,B,6.0
2,12.213000059127808,learn,47786.99994087219,Mon Feb 24 2025 14:23:31 GMT-0600 (Central Standard Time),286920.7000000002,A,alarm,O,m,413,1,1514.800000000745,285405.89999999944,7063,WL,B,6.0
2,12.680000066757202,learn,47319.9999332428,Mon Feb 24 2025 14:23:31 GMT-0600 (Central Standard Time),287387.5,A,alarmenter,O,enter,460,1,1981.6000000005588,285405.89999999944,7063,WL,B,6.0
2,20.89400005340576,learn,39105.99994659424,Mon Feb 24 2025 14:23:31 GMT-0600 (Central Standard Time),295601.5999999996,A,c,O,c,8194,1,8213.799999999814,287387.7999999998,7063,WL,B,7.0
2,20.99399995803833,learn,39006.00004196167,Mon Feb 24 2025 14:23:31 GMT-0600 (Central Standard Time),295701.5,A,cl,O,l,91,1,8313.700000000186,287387.7999999998,7063,WL,B,7.0
2,21.22699999809265,learn,38773.00000190735,Mon Feb 24 2025 14:23:31 GMT-0600 (Central Standard Time),295934.7000000002,A,clo,O,o,216,1,8546.900000000373,287387.7999999998,7063,WL,B,7.0
2,21.39299988746643,learn,38607.00011253357,Mon Feb 24 2025 14:23:31 GMT-0600 (Central Standard Time),296101.2999999998,A,cloc,O,c,158,1,8713.5,287387.7999999998,7063,WL,B,7.0
2,21.494999885559082,learn,38505.00011444092,Mon Feb 24 2025 14:23:31 GMT-0600 (Central Standard Time),296202.5,A,clock,O,k,88,1,8814.700000000186,287387.7999999998,7063,WL,B,7.0
2,21.80999994277954,learn,38190.00005722046,Mon Feb 24 2025 14:23:31 GMT-0600 (Central Standard Time),296517.7999999998,A,clockenter,O,enter,299,1,9130.0,287387.7999999998,7063,WL,B,7.0
2,26.70899987220764,learn,33291.00012779236,Mon Feb 24 2025 14:23:31 GMT-0600 (Central Standard Time),301416.2999999998,A,w,O,w,4888,1,4898.200000000186,296518.0999999996,7063,WL,B,8.0
2,26.808000087738037,learn,33191.99991226196,Mon Feb 24 2025 14:23:31 GMT-0600 (Central Standard Time),301516.0,A,wi,O,i,92,1,4997.9000000003725,296518.0999999996,7063,WL,B,8.0
2,26.941999912261963,learn,33058.00008773804,Mon Feb 24 2025 14:23:31 GMT-0600 (Central Standard Time),301649.39999999944,A,win,O,n,112,1,5131.299999999814,296518.0999999996,7063,WL,B,8.0
2,27.257999897003174,learn,32742.000102996826,Mon Feb 24 2025 14:23:31 GMT-0600 (Central Standard Time),301966.2000000002,A,wind,O,d,308,1,5448.100000000559,296518.0999999996,7063,WL,B,8.0
2,27.35800004005432,learn,32641.99995994568,Mon Feb 24 2025 14:23:31 GMT-0600 (Central Standard Time),302066.0,A,windo,O,o,79,1,5547.9000000003725,296518.0999999996,7063,WL,B,8.0
2,28.14199995994568,learn,31858.00004005432,Mon Feb 24 2025 14:23:31 GMT-0600 (Central Standard Time),302849.2999999998,A,window,O,w,771,1,6331.200000000186,296518.0999999996,7063,WL,B,8.0
2,28.44099998474121,learn,31559.00001525879,Mon Feb 24 2025 14:23:31 GMT-0600 (Central Standard Time),303149.2999999998,A,windowenter,O,enter,284,1,6631.200000000186,296518.0999999996,7063,WL,B,8.0
2,28.7739999294281,learn,31226.0000705719,Mon Feb 24 2025 14:23:31 GMT-0600 (Central Standard Time),303482.0999999996,A,c,O,c,328,1,332.3999999994412,303149.7000000002,7063,WL,B,9.0
2,28.97499990463257,learn,31025.00009536743,Mon Feb 24 2025 14:23:31 GMT-0600 (Central Standard Time),303682.7000000002,A,ca,O,a,179,1,533.0,303149.7000000002,7063,WL,B,9.0
2,29.490999937057495,learn,30509.000062942505,Mon Feb 24 2025 14:23:31 GMT-0600 (Central Standard Time),304198.7000000002,A,cab,O,b,499,1,1049.0,303149.7000000002,7063,WL,B,9.0
2,29.757999897003174,learn,30242.000102996826,Mon Feb 24 2025 14:23:31 GMT-0600 (Central Standard Time),304465.39999999944,A,cabi,O,i,254,1,1315.699999999255,303149.7000000002,7063,WL,B,9.0
2,29.85699987411499,learn,30143.00012588501,Mon Feb 24 2025 14:23:31 GMT-0600 (Central Standard Time),304565.0999999996,A,cabin,O,n,92,1,1415.3999999994412,303149.7000000002,7063,WL,B,9.0
2,30.2739999294281,learn,29726.0000705719,Mon Feb 24 2025 14:23:31 GMT-0600 (Central Standard Time),304981.7999999998,A,cabinenter,O,enter,408,1,1832.0999999996275,303149.7000000002,7063,WL,B,9.0
2,31.157000064849854,learn,28842.999935150146,Mon Feb 24 2025 14:23:31 GMT-0600 (Central Standard Time),305865.0,A,a,O,a,863,1,882.7000000001863,304982.2999999998,7063,WL,B,10.0
2,31.33999991416931,learn,28660.00008583069,Mon Feb 24 2025 14:23:31 GMT-0600 (Central Standard Time),306048.2000000002,A,ar,O,r,164,1,1065.9000000003725,304982.2999999998,7063,WL,B,10.0
2,31.674000024795532,learn,28325.999975204468,Mon Feb 24 2025 14:23:31 GMT-0600 (Central Standard Time),306381.5,A,arm,O,m,325,1,1399.2000000001863,304982.2999999998,7063,WL,B,10.0
2,32.0239999294281,learn,27976.0000705719,Mon Feb 24 2025 14:23:31 GMT-0600 (Central Standard Time),306732.2000000002,A,armenter,O,enter,336,1,1749.9000000003725,304982.2999999998,7063,WL,B,10.0
2,46.585999965667725,learn,13414.000034332275,Mon Feb 24 2025 14:23:31 GMT-0600 (Central Standard Time),321293.5999999996,A,t,O,t,14553,1,14561.099999999627,306732.5,7063,WL,B,11.0
2,46.86899995803833,learn,13131.00004196167,Mon Feb 24 2025 14:23:31 GMT-0600 (Central Standard Time),321576.5,A,ta,O,a,262,1,14844.0,306732.5,7063,WL,B,11.0
2,47.168999910354614,learn,12831.000089645386,Mon Feb 24 2025 14:23:31 GMT-0600 (Central Standard Time),321876.5999999996,A,tat,O,t,285,1,15144.099999999627,306732.5,7063,WL,B,11.0
2,47.319000005722046,learn,12680.999994277954,Mon Feb 24 2025 14:23:31 GMT-0600 (Central Standard Time),322026.39999999944,A,tatt,O,t,145,1,15293.899999999441,306732.5,7063,WL,B,11.0
2,47.60199999809265,learn,12398.000001907349,Mon Feb 24 2025 14:23:31 GMT-0600 (Central Standard Time),322309.89999999944,A,tatto,O,o,267,1,15577.399999999441,306732.5,7063,WL,B,11.0
2,47.734999895095825,learn,12265.000104904175,Mon Feb 24 2025 14:23:31 GMT-0600 (Central Standard Time),322443.0999999996,A,tattoo,O,o,119,1,15710.599999999627,306732.5,7063,WL,B,11.0
2,48.05200004577637,learn,11947.999954223633,Mon Feb 24 2025 14:23:31 GMT-0600 (Central Standard Time),322759.7000000002,A,tattooenter,O,enter,297,1,16027.200000000186,306732.5,7063,WL,B,11.0
2,58.63199996948242,learn,1368.0000305175781,Mon Feb 24 2025 14:23:31 GMT-0600 (Central Standard Time),333339.7999999998,A,enter,O,enter,10566,1,10579.700000000186,322760.0999999996,7063,WL,B,12.0
2,60.015000104904175,learn,-15.000104904174805,Mon Feb 24 2025 14:23:31 GMT-0600 (Central Standard Time),334722.5,A,None,O,None,1375,1,1382.2000000001863,333340.2999999998,7063,WL,B,13.0
3,0.7170000076293945,learn,59282.999992370605,Mon Feb 24 2025 14:23:31 GMT-0600 (Central Standard Time),407000.2000000002,A,s,O,s,698,1,716.5,406283.7000000002,7063,WL,B,1.0
3,0.9500000476837158,learn,59049.999952316284,Mon Feb 24 2025 14:23:31 GMT-0600 (Central Standard Time),407233.2999999998,A,st,O,t,220,1,949.5999999996275,406283.7000000002,7063,WL,B,1.0
3,1.182999849319458,learn,58817.00015068054,Mon Feb 24 2025 14:23:31 GMT-0600 (Central Standard Time),407466.5999999996,A,str,O,r,220,1,1182.8999999994412,406283.7000000002,7063,WL,B,1.0
3,1.4670000076293945,learn,58532.999992370605,Mon Feb 24 2025 14:23:31 GMT-0600 (Central Standard Time),407749.89999999944,A,stre,O,e,267,1,1466.199999999255,406283.7000000002,7063,WL,B,1.0
3,1.6329998970031738,learn,58367.000102996826,Mon Feb 24 2025 14:23:31 GMT-0600 (Central Standard Time),407916.39999999944,A,stree,O,e,151,1,1632.699999999255,406283.7000000002,7063,WL,B,1.0
3,1.8829998970031738,learn,58117.000102996826,Mon Feb 24 2025 14:23:31 GMT-0600 (Central Standard Time),408166.2000000002,A,street,O,t,233,1,1882.5,406283.7000000002,7063,WL,B,1.0
3,2.1499998569488525,learn,57850.00014305115,Mon Feb 24 2025 14:23:31 GMT-0600 (Central Standard Time),408433.0999999996,A,streetenter,O,enter,247,1,2149.399999999441,406283.7000000002,7063,WL,B,1.0
3,3.1659998893737793,learn,56834.00011062622,Mon Feb 24 2025 14:23:31 GMT-0600 (Central Standard Time),409449.0999999996,A,g,O,g,1004,1,1015.7000000001863,408433.39999999944,7063,WL,B,2.0
3,3.3989999294281006,learn,56601.0000705719,Mon Feb 24 2025 14:23:31 GMT-0600 (Central Standard Time),409682.39999999944,A,gr,O,r,228,1,1249.0,408433.39999999944,7063,WL,B,2.0
3,3.6659998893737793,learn,56334.00011062622,Mon Feb 24 2025 14:23:31 GMT-0600 (Central Standard Time),409948.89999999944,A,gra,O,a,259,1,1515.5,408433.39999999944,7063,WL,B,2.0
3,4.248999834060669,learn,55751.00016593933,Mon Feb 24 2025 14:23:31 GMT-0600 (Central Standard Time),410532.2000000002,A,gras,O,s,568,1,2098.800000000745,408433.39999999944,7063,WL,B,2.0
3,4.431999921798706,learn,55568.000078201294,Mon Feb 24 2025 14:23:31 GMT-0600 (Central Standard Time),410715.5,A,grass,O,s,177,1,2282.100000000559,408433.39999999944,7063,WL,B,2.0
3,4.665999889373779,learn,55334.00011062622,Mon Feb 24 2025 14:23:31 GMT-0600 (Central Standard Time),410948.7000000002,A,grassenter,O,enter,226,1,2515.300000000745,408433.39999999944,7063,WL,B,2.0
3,5.065999984741211,learn,54934.00001525879,Mon Feb 24 2025 14:23:31 GMT-0600 (Central Standard Time),411348.7000000002,A,d,O,d,385,1,399.70000000018626,410949.0,7063,WL,B,3.0
3,5.315000057220459,learn,54684.99994277954,Mon Feb 24 2025 14:23:31 GMT-0600 (Central Standard Time),411598.5999999996,A,do,O,o,241,1,649.5999999996275,410949.0,7063,WL,B,3.0
3,5.48199987411499,learn,54518.00012588501,Mon Feb 24 2025 14:23:31 GMT-0600 (Central Standard Time),411765.0999999996,A,doo,O,o,151,1,816.0999999996275,410949.0,7063,WL,B,3.0
3,5.832000017166138,learn,54167.99998283386,Mon Feb 24 2025 14:23:31 GMT-0600 (Central Standard Time),412114.7999999998,A,door,O,r,344,1,1165.7999999998137,410949.0,7063,WL,B,3.0
3,6.181999921798706,learn,53818.000078201294,Mon Feb 24 2025 14:23:31 GMT-0600 (Central Standard Time),412464.7000000002,A,doorenter,O,enter,339,1,1515.7000000001863,410949.0,7063,WL,B,3.0
3,6.7149999141693115,learn,53285.00008583069,Mon Feb 24 2025 14:23:31 GMT-0600 (Central Standard Time),412998.2000000002,A,w,O,w,517,1,533.1000000005588,412465.0999999996,7063,WL,B,4.0
3,6.815000057220459,learn,53184.99994277954,Mon Feb 24 2025 14:23:31 GMT-0600 (Central Standard Time),413098.2000000002,A,wi,O,i,95,1,633.1000000005588,412465.0999999996,7063,WL,B,4.0
3,6.931999921798706,learn,53068.000078201294,Mon Feb 24 2025 14:23:31 GMT-0600 (Central Standard Time),413214.7999999998,A,win,O,n,99,1,749.7000000001863,412465.0999999996,7063,WL,B,4.0
3,7.332000017166138,learn,52667.99998283386,Mon Feb 24 2025 14:23:31 GMT-0600 (Central Standard Time),413614.5999999996,A,wind,O,d,391,1,1149.5,412465.0999999996,7063,WL,B,4.0
3,7.447999954223633,learn,52552.00004577637,Mon Feb 24 2025 14:23:31 GMT-0600 (Central Standard Time),413731.0,A,windo,O,o,111,1,1265.9000000003725,412465.0999999996,7063,WL,B,4.0
3,7.88100004196167,learn,52118.99995803833,Mon Feb 24 2025 14:23:31 GMT-0600 (Central Standard Time),414164.39999999944,A,window,O,w,418,1,1699.2999999998137,412465.0999999996,7063,WL,B,4.0
3,8.230999946594238,learn,51769.00005340576,Mon Feb 24 2025 14:23:31 GMT-0600 (Central Standard Time),414514.5999999996,A,windowenter,O,enter,329,1,2049.5,412465.0999999996,7063,WL,B,4.0
3,9.263999938964844,learn,50736.000061035156,Mon Feb 24 2025 14:23:31 GMT-0600 (Central Standard Time),415547.2999999998,A,a,O,a,1019,1,1032.4000000003725,414514.89999999944,7063,WL,B,5.0
3,9.496999979019165,learn,50503.000020980835,Mon Feb 24 2025 14:23:31 GMT-0600 (Central Standard Time),415780.7000000002,A,ar,O,r,226,1,1265.800000000745,414514.89999999944,7063,WL,B,5.0
3,9.763999938964844,learn,50236.000061035156,Mon Feb 24 2025 14:23:31 GMT-0600 (Central Standard Time),416047.2000000002,A,arm,O,m,248,1,1532.300000000745,414514.89999999944,7063,WL,B,5.0
3,10.079999923706055,learn,49920.000076293945,Mon Feb 24 2025 14:23:31 GMT-0600 (Central Standard Time),416363.7000000002,A,armenter,O,enter,302,1,1848.800000000745,414514.89999999944,7063,WL,B,5.0
3,10.929999828338623,learn,49070.00017166138,Mon Feb 24 2025 14:23:31 GMT-0600 (Central Standard Time),417213.5,A,c,O,c,834,1,849.4000000003725,416364.0999999996,7063,WL,B,6.0
3,11.014999866485596,learn,48985.000133514404,Mon Feb 24 2025 14:23:31 GMT-0600 (Central Standard Time),417298.0999999996,A,cl,O,l,79,1,934.0,416364.0999999996,7063,WL,B,6.0
3,11.230000019073486,learn,48769.999980926514,Mon Feb 24 2025 14:23:31 GMT-0600 (Central Standard Time),417513.5,A,clo,O,o,203,1,1149.4000000003725,416364.0999999996,7063,WL,B,6.0
3,11.44700002670288,learn,48552.99997329712,Mon Feb 24 2025 14:23:31 GMT-0600 (Central Standard Time),417730.2000000002,A,cloc,O,c,204,1,1366.1000000005588,416364.0999999996,7063,WL,B,6.0
3,11.562999963760376,learn,48437.000036239624,Mon Feb 24 2025 14:23:31 GMT-0600 (Central Standard Time),417846.7000000002,A,clock,O,k,99,1,1482.6000000005588,416364.0999999996,7063,WL,B,6.0
3,11.891999959945679,learn,48108.00004005432,Mon Feb 24 2025 14:23:31 GMT-0600 (Central Standard Time),418175.0,A,clockenter,O,enter,324,1,1810.9000000003725,416364.0999999996,7063,WL,B,6.0
3,12.19700002670288,learn,47802.99997329712,Mon Feb 24 2025 14:23:31 GMT-0600 (Central Standard Time),418479.7999999998,A,f,O,f,293,1,304.5,418175.2999999998,7063,WL,B,7.0
3,12.312999963760376,learn,47687.000036239624,Mon Feb 24 2025 14:23:31 GMT-0600 (Central Standard Time),418596.2000000002,A,fi,O,i,109,1,420.90000000037253,418175.2999999998,7063,WL,B,7.0
3,12.429999828338623,learn,47570.00017166138,Mon Feb 24 2025 14:23:31 GMT-0600 (Central Standard Time),418713.2000000002,A,fir,O,r,97,1,537.9000000003725,418175.2999999998,7063,WL,B,7.0
3,12.629999876022339,learn,47370.00012397766,Mon Feb 24 2025 14:23:31 GMT-0600 (Central Standard Time),418913.5999999996,A,fire,O,e,180,1,738.2999999998137,418175.2999999998,7063,WL,B,7.0
3,13.11299991607666,learn,46887.00008392334,Mon Feb 24 2025 14:23:31 GMT-0600 (Central Standard Time),419396.2000000002,A,fireenter,O,enter,476,1,1220.9000000003725,418175.2999999998,7063,WL,B,7.0
3,14.36299991607666,learn,45637.00008392334,Mon Feb 24 2025 14:23:31 GMT-0600 (Central Standard Time),420645.7999999998,A,p,O,p,1241,1,1249.2999999998137,419396.5,7063,WL,B,8.0
3,14.628999948501587,learn,45371.00005149841,Mon Feb 24 2025 14:23:31 GMT-0600 (Central Standard Time),420912.2999999998,A,pi,O,i,255,1,1515.7999999998137,419396.5,7063,WL,B,8.0
3,15.211999893188477,learn,44788.00010681152,Mon Feb 24 2025 14:23:31 GMT-0600 (Central Standard Time),421495.39999999944,A,pip,O,p,573,1,2098.899999999441,419396.5,7063,WL,B,8.0
3,15.544999837875366,learn,44455.000162124634,Mon Feb 24 2025 14:23:31 GMT-0600 (Central Standard Time),421828.7000000002,A,pipe,O,e,318,1,2432.2000000001863,419396.5,7063,WL,B,8.0
3,16.644999980926514,learn,43355.000019073486,Mon Feb 24 2025 14:23:31 GMT-0600 (Central Standard Time),422928.5,A,pipeenter,O,enter,1081,1,3532.0,419396.5,7063,WL,B,8.0
3,17.062000036239624,learn,42937.999963760376,Mon Feb 24 2025 14:23:31 GMT-0600 (Central Standard Time),423344.89999999944,A,c,O,c,405,1,416.0,422928.89999999944,7063,WL,B,9.0
3,17.244999885559082,learn,42755.00011444092,Mon Feb 24 2025 14:23:31 GMT-0600 (Central Standard Time),423528.0999999996,A,ca,O,a,164,1,599.2000000001863,422928.89999999944,7063,WL,B,9.0
3,17.562000036239624,learn,42437.999963760376,Mon Feb 24 2025 14:23:31 GMT-0600 (Central Standard Time),423844.89999999944,A,cab,O,b,309,1,916.0,422928.89999999944,7063,WL,B,9.0
3,17.694999933242798,learn,42305.0000667572,Mon Feb 24 2025 14:23:31 GMT-0600 (Central Standard Time),423977.7999999998,A,cabi,O,i,120,1,1048.9000000003725,422928.89999999944,7063,WL,B,9.0
3,17.794999837875366,learn,42205.000162124634,Mon Feb 24 2025 14:23:31 GMT-0600 (Central Standard Time),424078.0,A,cabin,O,n,84,1,1149.1000000005588,422928.89999999944,7063,WL,B,9.0
3,18.26099991798401,learn,41739.00008201599,Mon Feb 24 2025 14:23:31 GMT-0600 (Central Standard Time),424544.5,A,cabinenter,O,enter,447,1,1615.6000000005588,422928.89999999944,7063,WL,B,9.0
3,21.177000045776367,learn,38822.99995422363,Mon Feb 24 2025 14:23:31 GMT-0600 (Central Standard Time),427460.2000000002,A,f,O,f,2901,1,2915.4000000003725,424544.7999999998,7063,WL,B,10.0
3,21.293999910354614,learn,38706.000089645386,Mon Feb 24 2025 14:23:31 GMT-0600 (Central Standard Time),427576.89999999944,A,fi,O,i,97,1,3032.0999999996275,424544.7999999998,7063,WL,B,10.0
3,21.427000045776367,learn,38572.99995422363,Mon Feb 24 2025 14:23:31 GMT-0600 (Central Standard Time),427709.89999999944,A,fir,O,r,116,1,3165.0999999996275,424544.7999999998,7063,WL,B,10.0
3,21.57699990272522,learn,38423.00009727478,Mon Feb 24 2025 14:23:31 GMT-0600 (Central Standard Time),427860.2000000002,A,fire,O,e,135,1,3315.4000000003725,424544.7999999998,7063,WL,B,10.0
3,21.80999994277954,learn,38190.00005722046,Mon Feb 24 2025 14:23:31 GMT-0600 (Central Standard Time),428093.5999999996,A,fireenter,O,enter,225,1,3548.7999999998137,424544.7999999998,7063,WL,B,10.0
3,29.125,learn,30875.0,Mon Feb 24 2025 14:23:31 GMT-0600 (Central Standard Time),435408.0,A,c,O,c,7304,1,7314.100000000559,428093.89999999944,7063,WL,B,11.0
3,29.340999841690063,learn,30659.000158309937,Mon Feb 24 2025 14:23:31 GMT-0600 (Central Standard Time),435624.39999999944,A,ca,O,a,197,1,7530.5,428093.89999999944,7063,WL,B,11.0
3,29.60699987411499,learn,30393.00012588501,Mon Feb 24 2025 14:23:31 GMT-0600 (Central Standard Time),435890.7000000002,A,cab,O,b,261,1,7796.800000000745,428093.89999999944,7063,WL,B,11.0
3,29.723999977111816,learn,30276.000022888184,Mon Feb 24 2025 14:23:31 GMT-0600 (Central Standard Time),436007.7000000002,A,cabi,O,i,107,1,7913.800000000745,428093.89999999944,7063,WL,B,11.0
3,29.79099988937378,learn,30209.00011062622,Mon Feb 24 2025 14:23:31 GMT-0600 (Central Standard Time),436074.2000000002,A,cabin,O,n,53,1,7980.300000000745,428093.89999999944,7063,WL,B,11.0
3,30.141000032424927,learn,29858.999967575073,Mon Feb 24 2025 14:23:31 GMT-0600 (Central Standard Time),436424.39999999944,A,cabinenter,O,enter,331,1,8330.5,428093.89999999944,7063,WL,B,11.0
3,33.406999826431274,learn,26593.000173568726,Mon Feb 24 2025 14:23:31 GMT-0600 (Central Standard Time),439690.0,A,t,O,t,3245,1,3265.2999999998137,436424.7000000002,7063,WL,B,12.0
3,33.57299995422363,learn,26427.000045776367,Mon Feb 24 2025 14:23:31 GMT-0600 (Central Standard Time),439856.5,A,ta,O,a,147,1,3431.7999999998137,436424.7000000002,7063,WL,B,12.0
3,33.78999996185303,learn,26210.000038146973,Mon Feb 24 2025 14:23:31 GMT-0600 (Central Standard Time),440073.0,A,tat,O,t,196,1,3648.2999999998137,436424.7000000002,7063,WL,B,12.0
3,33.9229998588562,learn,26077.0001411438,Mon Feb 24 2025 14:23:31 GMT-0600 (Central Standard Time),440206.2000000002,A,tatt,O,t,124,1,3781.5,436424.7000000002,7063,WL,B,12.0
3,34.139999866485596,learn,25860.000133514404,Mon Feb 24 2025 14:23:31 GMT-0600 (Central Standard Time),440422.89999999944,A,tatto,O,o,199,1,3998.199999999255,436424.7000000002,7063,WL,B,12.0
3,34.27300000190735,learn,25726.99999809265,Mon Feb 24 2025 14:23:31 GMT-0600 (Central Standard Time),440556.2000000002,A,tattoo,O,o,126,1,4131.5,436424.7000000002,7063,WL,B,12.0
3,34.555999994277954,learn,25444.000005722046,Mon Feb 24 2025 14:23:31 GMT-0600 (Central Standard Time),440839.39999999944,A,tattooenter,O,enter,273,1,4414.699999999255,436424.7000000002,7063,WL,B,12.0
3,37.33799982070923,learn,22662.00017929077,Mon Feb 24 2025 14:23:31 GMT-0600 (Central Standard Time),443621.7000000002,A,p,O,p,2766,1,2782.0,440839.7000000002,7063,WL,B,13.0
3,37.48799991607666,learn,22512.00008392334,Mon Feb 24 2025 14:23:31 GMT-0600 (Central Standard Time),443771.39999999944,A,pp,O,p,143,1,2931.699999999255,440839.7000000002,7063,WL,B,13.0
3,37.954999923706055,learn,22045.000076293945,Mon Feb 24 2025 14:23:31 GMT-0600 (Central Standard Time),444238.2999999998,A,p,O,backspace,458,1,3398.5999999996275,440839.7000000002,7063,WL,B,13.0
3,38.90499997138977,learn,21095.00002861023,Mon Feb 24 2025 14:23:31 GMT-0600 (Central Standard Time),445188.0,A,pu,O,u,935,1,4348.299999999814,440839.7000000002,7063,WL,B,13.0
3,39.37100005149841,learn,20628.999948501587,Mon Feb 24 2025 14:23:31 GMT-0600 (Central Standard Time),445654.5999999996,A,pup,O,p,449,1,4814.899999999441,440839.7000000002,7063,WL,B,13.0
3,39.63800001144409,learn,20361.99998855591,Mon Feb 24 2025 14:23:31 GMT-0600 (Central Standard Time),445921.2000000002,A,pupi,O,i,255,1,5081.5,440839.7000000002,7063,WL,B,13.0
3,40.00499987602234,learn,19995.00012397766,Mon Feb 24 2025 14:23:31 GMT-0600 (Central Standard Time),446287.7999999998,A,pupil,O,l,356,1,5448.0999999996275,440839.7000000002,7063,WL,B,13.0
3,40.40400004386902,learn,19595.99995613098,Mon Feb 24 2025 14:23:31 GMT-0600 (Central Standard Time),446687.7000000002,A,pupilenter,O,enter,389,1,5848.0,440839.7000000002,7063,WL,B,13.0
3,44.72000002861023,learn,15279.99997138977,Mon Feb 24 2025 14:23:31 GMT-0600 (Central Standard Time),451002.7000000002,A,l,O,l,4310,1,4314.700000000186,446688.0,7063,WL,B,14.0
3,44.8529999256134,learn,15147.000074386597,Mon Feb 24 2025 14:23:31 GMT-0600 (Central Standard Time),451136.39999999944,A,la,O,a,115,1,4448.399999999441,446688.0,7063,WL,B,14.0
3,45.003000020980835,learn,14996.999979019165,Mon Feb 24 2025 14:23:31 GMT-0600 (Central Standard Time),451286.2999999998,A,lak,O,k,133,1,4598.299999999814,446688.0,7063,WL,B,14.0
3,45.15299987792969,learn,14847.000122070312,Mon Feb 24 2025 14:23:31 GMT-0600 (Central Standard Time),451436.2000000002,A,lake,O,e,143,1,4748.200000000186,446688.0,7063,WL,B,14.0
3,45.3529999256134,learn,14647.000074386597,Mon Feb 24 2025 14:23:31 GMT-0600 (Central Standard Time),451635.89999999944,A,lakeenter,O,enter,185,1,4947.899999999441,446688.0,7063,WL,B,14.0
3,51.61800003051758,learn,8381.999969482422,Mon Feb 24 2025 14:23:31 GMT-0600 (Central Standard Time),457900.7999999998,A,c,O,c,6249,1,6264.5,451636.2999999998,7063,WL,B,15.0
3,51.70099997520447,learn,8299.000024795532,Mon Feb 24 2025 14:23:31 GMT-0600 (Central Standard Time),457984.2000000002,A,ci,O,i,64,1,6347.9000000003725,451636.2999999998,7063,WL,B,15.0
3,51.901000022888184,learn,8098.999977111816,Mon Feb 24 2025 14:23:31 GMT-0600 (Central Standard Time),458183.89999999944,A,cit,O,t,181,1,6547.5999999996275,451636.2999999998,7063,WL,B,15.0
3,51.967000007629395,learn,8032.9999923706055,Mon Feb 24 2025 14:23:31 GMT-0600 (Central Standard Time),458250.5999999996,A,city,O,y,61,1,6614.299999999814,451636.2999999998,7063,WL,B,15.0
3,52.26699995994568,learn,7733.000040054321,Mon Feb 24 2025 14:23:31 GMT-0600 (Central Standard Time),458550.5,A,cityenter,O,enter,283,1,6914.200000000186,451636.2999999998,7063,WL,B,15.0
4,0.7999999523162842,learn,59200.000047683716,Mon Feb 24 2025 14:23:31 GMT-0600 (Central Standard Time),527462.2999999998,A,s,O,s,791,1,799.4000000003725,526662.8999999994,7063,WL,B,1.0
4,1.0499999523162842,learn,58950.000047683716,Mon Feb 24 2025 14:23:31 GMT-0600 (Central Standard Time),527712.2999999998,A,st,O,t,238,1,1049.4000000003725,526662.8999999994,7063,WL,B,1.0
4,1.2829999923706055,learn,58717.000007629395,Mon Feb 24 2025 14:23:31 GMT-0600 (Central Standard Time),527945.5,A,str,O,r,213,1,1282.6000000005588,526662.8999999994,7063,WL,B,1.0
4,1.6659998893737793,learn,58334.00011062622,Mon Feb 24 2025 14:23:31 GMT-0600 (Central Standard Time),528328.8999999994,A,stre,O,e,372,1,1666.0,526662.8999999994,7063,WL,B,1.0
4,2.0,learn,58000.0,Mon Feb 24 2025 14:23:31 GMT-0600 (Central Standard Time),528662.0,A,stree,O,e,316,1,1999.1000000005588,526662.8999999994,7063,WL,B,1.0
4,2.3499999046325684,learn,57650.00009536743,Mon Feb 24 2025 14:23:31 GMT-0600 (Central Standard Time),529012.0,A,street,O,t,343,1,2349.100000000559,526662.8999999994,7063,WL,B,1.0
4,2.6489999294281006,learn,57351.0000705719,Mon Feb 24 2025 14:23:31 GMT-0600 (Central Standard Time),529311.7999999998,A,streetenter,O,enter,281,1,2648.9000000003725,526662.8999999994,7063,WL,B,1.0
4,3.1489999294281006,learn,56851.0000705719,Mon Feb 24 2025 14:23:31 GMT-0600 (Central Standard Time),529811.7999999998,A,g,O,g,486,1,499.70000000018626,529312.0999999996,7063,WL,B,2.0
4,3.3989999294281006,learn,56601.0000705719,Mon Feb 24 2025 14:23:31 GMT-0600 (Central Standard Time),530061.7000000002,A,gr,O,r,241,1,749.6000000005588,529312.0999999996,7063,WL,B,2.0
4,3.565999984741211,learn,56434.00001525879,Mon Feb 24 2025 14:23:31 GMT-0600 (Central Standard Time),530228.2000000002,A,gra,O,a,160,1,916.1000000005588,529312.0999999996,7063,WL,B,2.0
4,3.881999969482422,learn,56118.00003051758,Mon Feb 24 2025 14:23:31 GMT-0600 (Central Standard Time),530544.8999999994,A,gras,O,s,297,1,1232.7999999998137,529312.0999999996,7063,WL,B,2.0
4,4.049000024795532,learn,55950.99997520447,Mon Feb 24 2025 14:23:31 GMT-0600 (Central Standard Time),530711.0999999996,A,grass,O,s,149,1,1399.0,529312.0999999996,7063,WL,B,2.0
4,4.381999969482422,learn,55618.00003051758,Mon Feb 24 2025 14:23:31 GMT-0600 (Central Standard Time),531044.5999999996,A,grassenter,O,enter,318,1,1732.5,529312.0999999996,7063,WL,B,2.0
4,4.648999929428101,learn,55351.0000705719,Mon Feb 24 2025 14:23:31 GMT-0600 (Central Standard Time),531311.2000000002,A,d,O,d,257,1,266.30000000074506,531044.8999999994,7063,WL,B,3.0
4,4.898999929428101,learn,55101.0000705719,Mon Feb 24 2025 14:23:31 GMT-0600 (Central Standard Time),531561.0,A,do,O,o,238,1,516.1000000005588,531044.8999999994,7063,WL,B,3.0
4,5.049000024795532,learn,54950.99997520447,Mon Feb 24 2025 14:23:31 GMT-0600 (Central Standard Time),531711.0999999996,A,doo,O,o,140,1,666.2000000001863,531044.8999999994,7063,WL,B,3.0
4,5.265000104904175,learn,54734.999895095825,Mon Feb 24 2025 14:23:31 GMT-0600 (Central Standard Time),531927.7000000002,A,door,O,r,198,1,882.8000000007451,531044.8999999994,7063,WL,B,3.0
4,5.615000009536743,learn,54384.99999046326,Mon Feb 24 2025 14:23:31 GMT-0600 (Central Standard Time),532277.5,A,doorenter,O,enter,333,1,1232.6000000005588,531044.8999999994,7063,WL,B,3.0
4,6.148000001907349,learn,53851.99999809265,Mon Feb 24 2025 14:23:31 GMT-0600 (Central Standard Time),532810.5,A,a,O,a,528,1,532.7000000001863,532277.7999999998,7063,WL,B,4.0
4,6.315000057220459,learn,53684.99994277954,Mon Feb 24 2025 14:23:31 GMT-0600 (Central Standard Time),532977.2999999998,A,aa,O,a,155,1,699.5,532277.7999999998,7063,WL,B,4.0
4,6.3480000495910645,learn,53651.999950408936,Mon Feb 24 2025 14:23:31 GMT-0600 (Central Standard Time),533010.3999999994,A,aar,O,r,12,1,732.5999999996275,532277.7999999998,7063,WL,B,4.0
4,7.180999994277954,learn,52819.000005722046,Mon Feb 24 2025 14:23:31 GMT-0600 (Central Standard Time),533843.7999999998,A,aa,O,backspace,827,1,1566.0,532277.7999999998,7063,WL,B,4.0
4,7.763999938964844,learn,52236.000061035156,Mon Feb 24 2025 14:23:31 GMT-0600 (Central Standard Time),534426.7999999998,A,a,O,backspace,569,1,2149.0,532277.7999999998,7063,WL,B,4.0
4,8.04800009727478,learn,51951.99990272522,Mon Feb 24 2025 14:23:31 GMT-0600 (Central Standard Time),534710.0999999996,A,ar,O,r,274,1,2432.2999999998137,532277.7999999998,7063,WL,B,4.0
4,8.513999938964844,learn,51486.000061035156,Mon Feb 24 2025 14:23:31 GMT-0600 (Central Standard Time),535176.5999999996,A,arm,O,m,455,1,2898.7999999998137,532277.7999999998,7063,WL,B,4.0
4,8.879999876022339,learn,51120.00012397766,Mon Feb 24 2025 14:23:31 GMT-0600 (Central Standard Time),535543.0,A,armenter,O,enter,356,1,3265.2000000001863,532277.7999999998,7063,WL,B,4.0
4,9.210999965667725,learn,50789.000034332275,Mon Feb 24 2025 14:23:31 GMT-0600 (Central Standard Time),535873.8999999994,A,s,O,s,327,1,330.59999999962747,535543.2999999998,7063,WL,B,5.0
4,9.378999948501587,learn,50621.00005149841,Mon Feb 24 2025 14:23:31 GMT-0600 (Central Standard Time),536042.8999999994,A,sk,O,k,155,1,499.59999999962747,535543.2999999998,7063,WL,B,5.0
4,9.645999908447266,learn,50354.000091552734,Mon Feb 24 2025 14:23:31 GMT-0600 (Central Standard Time),536309.7999999998,A,ski,O,i,258,1,766.5,535543.2999999998,7063,WL,B,5.0
4,10.013000011444092,learn,49986.99998855591,Mon Feb 24 2025 14:23:31 GMT-0600 (Central Standard Time),536676.0999999996,A,skin,O,n,359,1,1132.7999999998137,535543.2999999998,7063,WL,B,5.0
4,10.413000106811523,learn,49586.99989318848,Mon Feb 24 2025 14:23:31 GMT-0600 (Central Standard Time),537076.0999999996,A,skinenter,O,enter,385,1,1532.7999999998137,535543.2999999998,7063,WL,B,5.0
4,10.696000099182129,learn,49303.99990081787,Mon Feb 24 2025 14:23:31 GMT-0600 (Central Standard Time),537359.3999999994,A,f,O,f,265,1,283.0,537076.3999999994,7063,WL,B,6.0
4,10.828999996185303,learn,49171.0000038147,Mon Feb 24 2025 14:23:31 GMT-0600 (Central Standard Time),537492.8999999994,A,fi,O,i,118,1,416.5,537076.3999999994,7063,WL,B,6.0
4,10.913000106811523,learn,49086.99989318848,Mon Feb 24 2025 14:23:31 GMT-0600 (Central Standard Time),537576.0,A,fir,O,r,72,1,499.6000000005588,537076.3999999994,7063,WL,B,6.0
4,11.145999908447266,learn,48854.000091552734,Mon Feb 24 2025 14:23:31 GMT-0600 (Central Standard Time),537809.0999999996,A,fire,O,e,213,1,732.7000000001863,537076.3999999994,7063,WL,B,6.0
4,11.713000059127808,learn,48286.99994087219,Mon Feb 24 2025 14:23:31 GMT-0600 (Central Standard Time),538376.7999999998,A,fireenter,O,enter,548,1,1300.4000000003725,537076.3999999994,7063,WL,B,6.0
4,12.694999933242798,learn,47305.0000667572,Mon Feb 24 2025 14:23:31 GMT-0600 (Central Standard Time),539358.7999999998,A,l,O,l,972,1,981.7000000001863,538377.0999999996,7063,WL,B,7.0
4,12.795000076293945,learn,47204.999923706055,Mon Feb 24 2025 14:23:31 GMT-0600 (Central Standard Time),539458.5999999996,A,la,O,a,94,1,1081.5,538377.0999999996,7063,WL,B,7.0
4,13.029000043869019,learn,46970.99995613098,Mon Feb 24 2025 14:23:31 GMT-0600 (Central Standard Time),539692.0,A,lak,O,k,219,1,1314.9000000003725,538377.0999999996,7063,WL,B,7.0
4,13.277999877929688,learn,46722.00012207031,Mon Feb 24 2025 14:23:31 GMT-0600 (Central Standard Time),539941.8999999994,A,lake,O,e,242,1,1564.7999999998137,538377.0999999996,7063,WL,B,7.0
4,14.027999877929688,learn,45972.00012207031,Mon Feb 24 2025 14:23:31 GMT-0600 (Central Standard Time),540691.5999999996,A,lakeenter,O,enter,736,1,2314.5,538377.0999999996,7063,WL,B,7.0
4,18.127000093460083,learn,41872.99990653992,Mon Feb 24 2025 14:23:31 GMT-0600 (Central Standard Time),544790.2999999998,A,p,O,p,4082,1,4098.299999999814,540692.0,7063,WL,B,8.0
4,18.542999982833862,learn,41457.00001716614,Mon Feb 24 2025 14:23:31 GMT-0600 (Central Standard Time),545206.8999999994,A,pi,O,i,407,1,4514.899999999441,540692.0,7063,WL,B,8.0
4,18.877000093460083,learn,41122.99990653992,Mon Feb 24 2025 14:23:31 GMT-0600 (Central Standard Time),545540.0,A,pip,O,p,327,1,4848.0,540692.0,7063,WL,B,8.0
4,19.210000038146973,learn,40789.99996185303,Mon Feb 24 2025 14:23:31 GMT-0600 (Central Standard Time),545873.2999999998,A,pipe,O,e,321,1,5181.299999999814,540692.0,7063,WL,B,8.0
4,19.776000022888184,learn,40223.99997711182,Mon Feb 24 2025 14:23:31 GMT-0600 (Central Standard Time),546440.0,A,pipeenter,O,enter,556,1,5748.0,540692.0,7063,WL,B,8.0
4,20.193000078201294,learn,39806.999921798706,Mon Feb 24 2025 14:23:31 GMT-0600 (Central Standard Time),546856.2000000002,A,l,O,l,405,1,416.0,546440.2000000002,7063,WL,B,9.0
4,20.375999927520752,learn,39624.00007247925,Mon Feb 24 2025 14:23:31 GMT-0600 (Central Standard Time),547039.5999999996,A,la,O,a,165,1,599.3999999994412,546440.2000000002,7063,WL,B,9.0
4,20.509000062942505,learn,39490.999937057495,Mon Feb 24 2025 14:23:31 GMT-0600 (Central Standard Time),547172.8999999994,A,lak,O,k,126,1,732.6999999992549,546440.2000000002,7063,WL,B,9.0
4,20.7260000705719,learn,39273.9999294281,Mon Feb 24 2025 14:23:31 GMT-0600 (Central Standard Time),547389.3999999994,A,lake,O,e,209,1,949.1999999992549,546440.2000000002,7063,WL,B,9.0
4,21.042999982833862,learn,38957.00001716614,Mon Feb 24 2025 14:23:31 GMT-0600 (Central Standard Time),547706.2000000002,A,lakeenter,O,enter,296,1,1266.0,546440.2000000002,7063,WL,B,9.0
4,23.941999912261963,learn,36058.00008773804,Mon Feb 24 2025 14:23:31 GMT-0600 (Central Standard Time),550605.2999999998,A,w,O,w,2883,1,2898.7999999998137,547706.5,7063,WL,B,10.0
4,24.058000087738037,learn,35941.99991226196,Mon Feb 24 2025 14:23:31 GMT-0600 (Central Standard Time),550721.7999999998,A,wi,O,i,104,1,3015.2999999998137,547706.5,7063,WL,B,10.0
4,24.157999992370605,learn,35842.000007629395,Mon Feb 24 2025 14:23:31 GMT-0600 (Central Standard Time),550821.7999999998,A,win,O,n,83,1,3115.2999999998137,547706.5,7063,WL,B,10.0
4,24.4760000705719,learn,35523.9999294281,Mon Feb 24 2025 14:23:31 GMT-0600 (Central Standard Time),551139.5,A,wind,O,d,297,1,3433.0,547706.5,7063,WL,B,10.0
4,24.674999952316284,learn,35325.000047683716,Mon Feb 24 2025 14:23:31 GMT-0600 (Central Standard Time),551338.3999999994,A,windo,O,o,178,1,3631.899999999441,547706.5,7063,WL,B,10.0
4,25.04099988937378,learn,34959.00011062622,Mon Feb 24 2025 14:23:31 GMT-0600 (Central Standard Time),551704.7000000002,A,window,O,w,355,1,3998.2000000001863,547706.5,7063,WL,B,10.0
4,25.29099988937378,learn,34709.00011062622,Mon Feb 24 2025 14:23:31 GMT-0600 (Central Standard Time),551954.8999999994,A,windowenter,O,enter,236,1,4248.399999999441,547706.5,7063,WL,B,10.0
4,26.02500009536743,learn,33974.99990463257,Mon Feb 24 2025 14:23:31 GMT-0600 (Central Standard Time),552688.0,A,p,O,p,722,1,732.7999999998137,551955.2000000002,7063,WL,B,11.0
4,26.323999881744385,learn,33676.000118255615,Mon Feb 24 2025 14:23:31 GMT-0600 (Central Standard Time),552987.7999999998,A,pu,O,u,285,1,1032.5999999996275,551955.2000000002,7063,WL,B,11.0
4,27.740999937057495,learn,32259.000062942505,Mon Feb 24 2025 14:23:31 GMT-0600 (Central Standard Time),554404.0,A,pup,O,p,1402,1,2448.7999999998137,551955.2000000002,7063,WL,B,11.0
4,28.073999881744385,learn,31926.000118255615,Mon Feb 24 2025 14:23:31 GMT-0600 (Central Standard Time),554737.2999999998,A,pupu,O,u,314,1,2782.0999999996275,551955.2000000002,7063,WL,B,11.0
4,28.490000009536743,learn,31509.999990463257,Mon Feb 24 2025 14:23:31 GMT-0600 (Central Standard Time),555153.7999999998,A,pupul,O,l,404,1,3198.5999999996275,551955.2000000002,7063,WL,B,11.0
4,29.056999921798706,learn,30943.000078201294,Mon Feb 24 2025 14:23:31 GMT-0600 (Central Standard Time),555720.0,A,pupu,O,backspace,547,1,3764.7999999998137,551955.2000000002,7063,WL,B,11.0
4,29.323999881744385,learn,30676.000118255615,Mon Feb 24 2025 14:23:31 GMT-0600 (Central Standard Time),555986.8999999994,A,pup,O,backspace,261,1,4031.699999999255,551955.2000000002,7063,WL,B,11.0
4,29.890000104904175,learn,30109.999895095825,Mon Feb 24 2025 14:23:31 GMT-0600 (Central Standard Time),556553.2999999998,A,pupi,O,i,547,1,4598.0999999996275,551955.2000000002,7063,WL,B,11.0
4,30.08999991416931,learn,29910.00008583069,Mon Feb 24 2025 14:23:31 GMT-0600 (Central Standard Time),556753.2999999998,A,pupil,O,l,180,1,4798.0999999996275,551955.2000000002,7063,WL,B,11.0
4,30.44000005722046,learn,29559.99994277954,Mon Feb 24 2025 14:23:31 GMT-0600 (Central Standard Time),557103.2000000002,A,pupilenter,O,enter,340,1,5148.0,551955.2000000002,7063,WL,B,11.0
4,34.98799991607666,learn,25012.00008392334,Mon Feb 24 2025 14:23:31 GMT-0600 (Central Standard Time),561651.5999999996,A,c,O,c,4533,1,4548.0999999996275,557103.5,7063,WL,B,12.0
4,35.08800005912781,learn,24911.999940872192,Mon Feb 24 2025 14:23:31 GMT-0600 (Central Standard Time),561751.7999999998,A,cl,O,l,81,1,4648.299999999814,557103.5,7063,WL,B,12.0
4,35.2720000743866,learn,24727.999925613403,Mon Feb 24 2025 14:23:31 GMT-0600 (Central Standard Time),561935.0,A,clo,O,o,166,1,4831.5,557103.5,7063,WL,B,12.0
4,35.371999979019165,learn,24628.000020980835,Mon Feb 24 2025 14:23:31 GMT-0600 (Central Standard Time),562035.0999999996,A,cloc,O,c,86,1,4931.5999999996275,557103.5,7063,WL,B,12.0
4,35.50499987602234,learn,24495.00012397766,Mon Feb 24 2025 14:23:31 GMT-0600 (Central Standard Time),562168.2999999998,A,clock,O,k,114,1,5064.799999999814,557103.5,7063,WL,B,12.0
4,35.8050000667572,learn,24194.999933242798,Mon Feb 24 2025 14:23:31 GMT-0600 (Central Standard Time),562468.2999999998,A,clockenter,O,enter,293,1,5364.799999999814,557103.5,7063,WL,B,12.0
4,38.55399990081787,learn,21446.00009918213,Mon Feb 24 2025 14:23:31 GMT-0600 (Central Standard Time),565217.3999999994,A,w,O,w,2737,1,2748.7999999998137,562468.5999999996,7063,WL,B,13.0
4,38.65400004386902,learn,21345.99995613098,Mon Feb 24 2025 14:23:31 GMT-0600 (Central Standard Time),565317.0999999996,A,wi,O,i,92,1,2848.5,562468.5999999996,7063,WL,B,13.0
4,38.90400004386902,learn,21095.99995613098,Mon Feb 24 2025 14:23:31 GMT-0600 (Central Standard Time),565567.0999999996,A,wif,O,f,232,1,3098.5,562468.5999999996,7063,WL,B,13.0
4,39.12100005149841,learn,20878.999948501587,Mon Feb 24 2025 14:23:31 GMT-0600 (Central Standard Time),565784.0,A,wife,O,e,198,1,3315.4000000003725,562468.5999999996,7063,WL,B,13.0
4,39.33699989318848,learn,20663.000106811523,Mon Feb 24 2025 14:23:31 GMT-0600 (Central Standard Time),566000.2999999998,A,wifeenter,O,enter,205,1,3531.7000000001863,562468.5999999996,7063,WL,B,13.0
4,44.76900005340576,learn,15230.999946594238,Mon Feb 24 2025 14:23:31 GMT-0600 (Central Standard Time),571432.0,A,s,O,s,5421,1,5431.4000000003725,566000.5999999996,7063,WL,B,14.0
4,45.00200009346008,learn,14997.999906539917,Mon Feb 24 2025 14:23:31 GMT-0600 (Central Standard Time),571665.5,A,st,O,t,213,1,5664.9000000003725,566000.5999999996,7063,WL,B,14.0
4,45.18499994277954,learn,14815.000057220459,Mon Feb 24 2025 14:23:31 GMT-0600 (Central Standard Time),571848.5,A,sta,O,a,171,1,5847.9000000003725,566000.5999999996,7063,WL,B,14.0
4,45.33500003814697,learn,14664.999961853027,Mon Feb 24 2025 14:23:31 GMT-0600 (Central Standard Time),571998.7000000002,A,star,O,r,133,1,5998.100000000559,566000.5999999996,7063,WL,B,14.0
4,45.61800003051758,learn,14381.999969482422,Mon Feb 24 2025 14:23:31 GMT-0600 (Central Standard Time),572281.7999999998,A,starenter,O,enter,263,1,6281.200000000186,566000.5999999996,7063,WL,B,14.0
4,47.11800003051758,learn,12881.999969482422,Mon Feb 24 2025 14:23:31 GMT-0600 (Central Standard Time),573781.0999999996,A,a,O,a,1483,1,1499.0,572282.0999999996,7063,WL,B,15.0
4,47.28399991989136,learn,12716.000080108643,Mon Feb 24 2025 14:23:31 GMT-0600 (Central Standard Time),573947.7999999998,A,ar,O,r,152,1,1665.7000000001863,572282.0999999996,7063,WL,B,15.0
4,47.48399996757507,learn,12516.000032424927,Mon Feb 24 2025 14:23:31 GMT-0600 (Central Standard Time),574147.5,A,arm,O,m,186,1,1865.4000000003725,572282.0999999996,7063,WL,B,15.0
4,47.76799988746643,learn,12232.00011253357,Mon Feb 24 2025 14:23:31 GMT-0600 (Central Standard Time),574431.2999999998,A,armenter,O,enter,266,1,2149.2000000001863,572282.0999999996,7063,WL,B,15.0
5,0.9659998416900635,learn,60000.0,Mon Feb 24 2025 14:23:31 GMT-0600 (Central Standard Time),644709.2000000002,A,s,O,s,951,1,966.3000000007451,643742.8999999994,7063,WL,B,1.0
5,1.2159998416900635,learn,60000.0,Mon Feb 24 2025 14:23:31 GMT-0600 (Central Standard Time),644959.2999999998,A,st,O,t,240,1,1216.4000000003725,643742.8999999994,7063,WL,B,1.0
5,1.4659998416900635,learn,60000.0,Mon Feb 24 2025 14:23:31 GMT-0600 (Central Standard Time),645209.0999999996,A,str,O,r,230,1,1466.2000000001863,643742.8999999994,7063,WL,B,1.0
5,1.7330000400543213,learn,60000.0,Mon Feb 24 2025 14:23:31 GMT-0600 (Central Standard Time),645475.5,A,stre,O,e,261,1,1732.6000000005588,643742.8999999994,7063,WL,B,1.0
5,1.8989999294281006,learn,60000.0,Mon Feb 24 2025 14:23:31 GMT-0600 (Central Standard Time),645642.2999999998,A,stree,O,e,146,1,1899.4000000003725,643742.8999999994,7063,WL,B,1.0
5,2.299999952316284,learn,60000.0,Mon Feb 24 2025 14:23:31 GMT-0600 (Central Standard Time),646042.3999999994,A,street,O,t,395,1,2299.5,643742.8999999994,7063,WL,B,1.0
5,2.5820000171661377,learn,60000.0,Mon Feb 24 2025 14:23:31 GMT-0600 (Central Standard Time),646325.2000000002,A,streetenter,O,enter,275,1,2582.300000000745,643742.8999999994,7063,WL,B,1.0
5,2.9159998893737793,learn,60000.0,Mon Feb 24 2025 14:23:31 GMT-0600 (Central Standard Time),646658.5,A,g,O,g,320,1,333.0,646325.5,7063,WL,B,2.0
5,3.1659998893737793,learn,60000.0,Mon Feb 24 2025 14:23:31 GMT-0600 (Central Standard Time),646908.3999999994,A,gr,O,r,235,1,582.8999999994412,646325.5,7063,WL,B,2.0
5,3.3320000171661377,learn,60000.0,Mon Feb 24 2025 14:23:31 GMT-0600 (Central Standard Time),647075.0,A,gra,O,a,153,1,749.5,646325.5,7063,WL,B,2.0
5,3.6489999294281006,learn,60000.0,Mon Feb 24 2025 14:23:31 GMT-0600 (Central Standard Time),647391.5,A,gras,O,s,298,1,1066.0,646325.5,7063,WL,B,2.0
5,3.81499981880188,learn,60000.0,Mon Feb 24 2025 14:23:31 GMT-0600 (Central Standard Time),647558.2999999998,A,grass,O,s,150,1,1232.7999999998137,646325.5,7063,WL,B,2.0
5,3.998999834060669,learn,60000.0,Mon Feb 24 2025 14:23:31 GMT-0600 (Central Standard Time),647741.5,A,grassenter,O,enter,175,1,1416.0,646325.5,7063,WL,B,2.0
5,4.248999834060669,learn,60000.0,Mon Feb 24 2025 14:23:31 GMT-0600 (Central Standard Time),647991.2999999998,A,d,O,d,232,1,249.5,647741.7999999998,7063,WL,B,3.0
5,4.531999826431274,learn,60000.0,Mon Feb 24 2025 14:23:31 GMT-0600 (Central Standard Time),648274.7999999998,A,do,O,o,263,1,533.0,647741.7999999998,7063,WL,B,3.0
5,4.681999921798706,learn,60000.0,Mon Feb 24 2025 14:23:31 GMT-0600 (Central Standard Time),648424.5,A,doo,O,o,139,1,682.7000000001863,647741.7999999998,7063,WL,B,3.0
5,4.931999921798706,learn,60000.0,Mon Feb 24 2025 14:23:31 GMT-0600 (Central Standard Time),648674.5,A,door,O,r,245,1,932.7000000001863,647741.7999999998,7063,WL,B,3.0
5,5.332000017166138,learn,60000.0,Mon Feb 24 2025 14:23:31 GMT-0600 (Central Standard Time),649074.2999999998,A,doorenter,O,enter,395,1,1332.5,647741.7999999998,7063,WL,B,3.0
5,5.631999969482422,learn,60000.0,Mon Feb 24 2025 14:23:31 GMT-0600 (Central Standard Time),649374.2999999998,A,a,O,a,291,1,299.79999999981374,649074.5,7063,WL,B,4.0
5,5.764999866485596,learn,60000.0,Mon Feb 24 2025 14:23:31 GMT-0600 (Central Standard Time),649507.3999999994,A,ar,O,r,127,1,432.8999999994412,649074.5,7063,WL,B,4.0
5,6.06499981880188,learn,60000.0,Mon Feb 24 2025 14:23:31 GMT-0600 (Central Standard Time),649807.7000000002,A,arm,O,m,290,1,733.2000000001863,649074.5,7063,WL,B,4.0
5,6.514999866485596,learn,60000.0,Mon Feb 24 2025 14:23:31 GMT-0600 (Central Standard Time),650257.3999999994,A,armenter,O,enter,438,1,1182.8999999994412,649074.5,7063,WL,B,4.0
5,6.898000001907349,learn,60000.0,Mon Feb 24 2025 14:23:31 GMT-0600 (Central Standard Time),650640.7000000002,A,s,O,s,372,1,383.0,650257.7000000002,7063,WL,B,5.0
5,7.080999851226807,learn,60000.0,Mon Feb 24 2025 14:23:31 GMT-0600 (Central Standard Time),650823.8999999994,A,st,O,t,173,1,566.1999999992549,650257.7000000002,7063,WL,B,5.0
5,7.230999946594238,learn,60000.0,Mon Feb 24 2025 14:23:31 GMT-0600 (Central Standard Time),650974.0,A,sta,O,a,142,1,716.2999999998137,650257.7000000002,7063,WL,B,5.0
5,7.398000001907349,learn,60000.0,Mon Feb 24 2025 14:23:31 GMT-0600 (Central Standard Time),651140.3999999994,A,star,O,r,152,1,882.6999999992549,650257.7000000002,7063,WL,B,5.0
5,7.730999946594238,learn,60000.0,Mon Feb 24 2025 14:23:31 GMT-0600 (Central Standard Time),651473.5999999996,A,starenter,O,enter,321,1,1215.8999999994412,650257.7000000002,7063,WL,B,5.0
5,8.563999891281128,learn,60000.0,Mon Feb 24 2025 14:23:31 GMT-0600 (Central Standard Time),652306.5999999996,A,p,O,p,828,1,832.7000000001863,651473.8999999994,7063,WL,B,6.0
5,9.096999883651733,learn,60000.0,Mon Feb 24 2025 14:23:31 GMT-0600 (Central Standard Time),652840.0,A,pu,O,u,523,1,1366.1000000005588,651473.8999999994,7063,WL,B,6.0
5,10.062999963760376,learn,60000.0,Mon Feb 24 2025 14:23:31 GMT-0600 (Central Standard Time),653806.2000000002,A,pup,O,p,950,1,2332.300000000745,651473.8999999994,7063,WL,B,6.0
5,10.363999843597412,learn,60000.0,Mon Feb 24 2025 14:23:31 GMT-0600 (Central Standard Time),654106.2999999998,A,pupi,O,i,287,1,2632.4000000003725,651473.8999999994,7063,WL,B,6.0
5,10.646999835968018,learn,60000.0,Mon Feb 24 2025 14:23:31 GMT-0600 (Central Standard Time),654389.5999999996,A,pupil,O,l,267,1,2915.7000000001863,651473.8999999994,7063,WL,B,6.0
5,11.02999997138977,learn,60000.0,Mon Feb 24 2025 14:23:31 GMT-0600 (Central Standard Time),654772.5999999996,A,pupilenter,O,enter,376,1,3298.7000000001863,651473.8999999994,7063,WL,B,6.0
5,11.462999820709229,learn,60000.0,Mon Feb 24 2025 14:23:31 GMT-0600 (Central Standard Time),655205.7999999998,A,l,O,l,425,1,432.90000000037253,654772.8999999994,7063,WL,B,7.0
5,11.628000020980835,learn,60000.0,Mon Feb 24 2025 14:23:31 GMT-0600 (Central Standard Time),655372.5,A,la,O,a,151,1,599.6000000005588,654772.8999999994,7063,WL,B,7.0
5,11.794999837875366,learn,60000.0,Mon Feb 24 2025 14:23:31 GMT-0600 (Central Standard Time),655538.7999999998,A,lak,O,k,161,1,765.9000000003725,654772.8999999994,7063,WL,B,7.0
5,11.994999885559082,learn,60000.0,Mon Feb 24 2025 14:23:31 GMT-0600 (Central Standard Time),655739.0999999996,A,lake,O,e,186,1,966.2000000001863,654772.8999999994,7063,WL,B,7.0
5,12.227999925613403,learn,60000.0,Mon Feb 24 2025 14:23:31 GMT-0600 (Central Standard Time),655972.2999999998,A,lakeenter,O,enter,226,1,1199.4000000003725,654772.8999999994,7063,WL,B,7.0
5,12.878000020980835,learn,60000.0,Mon Feb 24 2025 14:23:31 GMT-0600 (Central Standard Time),656622.0,A,c,O,c,633,1,649.4000000003725,655972.5999999996,7063,WL,B,8.0
5,13.044999837875366,learn,60000.0,Mon Feb 24 2025 14:23:31 GMT-0600 (Central Standard Time),656788.5999999996,A,ca,O,a,151,1,816.0,655972.5999999996,7063,WL,B,8.0
5,13.343999862670898,learn,60000.0,Mon Feb 24 2025 14:23:31 GMT-0600 (Central Standard Time),657088.5999999996,A,cab,O,b,289,1,1116.0,655972.5999999996,7063,WL,B,8.0
5,13.510999917984009,learn,60000.0,Mon Feb 24 2025 14:23:31 GMT-0600 (Central Standard Time),657255.2000000002,A,cabi,O,i,149,1,1282.6000000005588,655972.5999999996,7063,WL,B,8.0
5,13.643999814987183,learn,60000.0,Mon Feb 24 2025 14:23:31 GMT-0600 (Central Standard Time),657388.5,A,cabin,O,n,118,1,1415.9000000003725,655972.5999999996,7063,WL,B,8.0
5,14.16100001335144,learn,60000.0,Mon Feb 24 2025 14:23:31 GMT-0600 (Central Standard Time),657905.0999999996,A,cabinenter,O,enter,505,1,1932.5,655972.5999999996,7063,WL,B,8.0
5,14.560999870300293,learn,60000.0,Mon Feb 24 2025 14:23:31 GMT-0600 (Central Standard Time),658304.8999999994,A,w,O,w,380,1,399.29999999981374,657905.5999999996,7063,WL,B,9.0
5,14.65999984741211,learn,60000.0,Mon Feb 24 2025 14:23:31 GMT-0600 (Central Standard Time),658404.5999999996,A,wi,O,i,84,1,499.0,657905.5999999996,7063,WL,B,9.0
5,14.843999862670898,learn,60000.0,Mon Feb 24 2025 14:23:31 GMT-0600 (Central Standard Time),658588.0999999996,A,wif,O,f,177,1,682.5,657905.5999999996,7063,WL,B,9.0
5,15.093999862670898,learn,60000.0,Mon Feb 24 2025 14:23:31 GMT-0600 (Central Standard Time),658838.0999999996,A,wife,O,e,241,1,932.5,657905.5999999996,7063,WL,B,9.0
5,15.393999814987183,learn,60000.0,Mon Feb 24 2025 14:23:31 GMT-0600 (Central Standard Time),659138.0,A,wifeenter,O,enter,279,1,1232.4000000003725,657905.5999999996,7063,WL,B,9.0
5,15.676999807357788,learn,60000.0,Mon Feb 24 2025 14:23:31 GMT-0600 (Central Standard Time),659421.2999999998,A,w,O,w,275,1,283.0,659138.2999999998,7063,WL,B,10.0
5,15.860999822616577,learn,60000.0,Mon Feb 24 2025 14:23:31 GMT-0600 (Central Standard Time),659604.7000000002,A,wi,O,i,168,1,466.40000000037253,659138.2999999998,7063,WL,B,10.0
5,15.976999998092651,learn,60000.0,Mon Feb 24 2025 14:23:31 GMT-0600 (Central Standard Time),659721.0999999996,A,win,O,n,97,1,582.7999999998137,659138.2999999998,7063,WL,B,10.0
5,16.210000038146973,learn,60000.0,Mon Feb 24 2025 14:23:31 GMT-0600 (Central Standard Time),659954.2999999998,A,wind,O,d,220,1,816.0,659138.2999999998,7063,WL,B,10.0
5,16.393999814987183,learn,60000.0,Mon Feb 24 2025 14:23:31 GMT-0600 (Central Standard Time),660137.7000000002,A,windo,O,o,163,1,999.4000000003725,659138.2999999998,7063,WL,B,10.0
5,16.526999950408936,learn,60000.0,Mon Feb 24 2025 14:23:31 GMT-0600 (Central Standard Time),660271.0,A,window,O,w,124,1,1132.7000000001863,659138.2999999998,7063,WL,B,10.0
5,17.292999982833862,learn,60000.0,Mon Feb 24 2025 14:23:31 GMT-0600 (Central Standard Time),661037.2999999998,A,windowenter,O,enter,758,1,1899.0,659138.2999999998,7063,WL,B,10.0
5,18.758999824523926,learn,60000.0,Mon Feb 24 2025 14:23:31 GMT-0600 (Central Standard Time),662503.5,A,f,O,f,1448,1,1465.9000000003725,661037.5999999996,7063,WL,B,11.0
5,18.858999967575073,learn,60000.0,Mon Feb 24 2025 14:23:31 GMT-0600 (Central Standard Time),662603.3999999994,A,fi,O,i,86,1,1565.7999999998137,661037.5999999996,7063,WL,B,11.0
5,18.993000030517578,learn,60000.0,Mon Feb 24 2025 14:23:31 GMT-0600 (Central Standard Time),662736.8999999994,A,fir,O,r,114,1,1699.2999999998137,661037.5999999996,7063,WL,B,11.0
5,19.125999927520752,learn,60000.0,Mon Feb 24 2025 14:23:31 GMT-0600 (Central Standard Time),662870.2000000002,A,fire,O,e,125,1,1832.6000000005588,661037.5999999996,7063,WL,B,11.0
5,19.45899987220764,learn,60000.0,Mon Feb 24 2025 14:23:31 GMT-0600 (Central Standard Time),663203.0999999996,A,fireenter,O,enter,327,1,2165.5,661037.5999999996,7063,WL,B,11.0
5,20.375999927520752,learn,60000.0,Mon Feb 24 2025 14:23:31 GMT-0600 (Central Standard Time),664119.7000000002,A,s,O,s,898,1,916.2000000001863,663203.5,7063,WL,B,12.0
5,20.55900001525879,learn,60000.0,Mon Feb 24 2025 14:23:31 GMT-0600 (Central Standard Time),664303.0,A,st,O,t,174,1,1099.5,663203.5,7063,WL,B,12.0
5,20.741999864578247,learn,60000.0,Mon Feb 24 2025 14:23:31 GMT-0600 (Central Standard Time),664486.2000000002,A,sta,O,a,175,1,1282.7000000001863,663203.5,7063,WL,B,12.0
5,20.842000007629395,learn,60000.0,Mon Feb 24 2025 14:23:31 GMT-0600 (Central Standard Time),664586.5999999996,A,star,O,r,95,1,1383.0999999996275,663203.5,7063,WL,B,12.0
5,21.158999919891357,learn,60000.0,Mon Feb 24 2025 14:23:31 GMT-0600 (Central Standard Time),664903.0,A,starenter,O,enter,307,1,1699.5,663203.5,7063,WL,B,12.0
5,23.674999952316284,learn,60000.0,Mon Feb 24 2025 14:23:31 GMT-0600 (Central Standard Time),667418.5999999996,A,c,O,c,2510,1,2515.2999999998137,664903.2999999998,7063,WL,B,13.0
5,23.807999849319458,learn,60000.0,Mon Feb 24 2025 14:23:31 GMT-0600 (Central Standard Time),667551.8999999994,A,cl,O,l,123,1,2648.5999999996275,664903.2999999998,7063,WL,B,13.0
5,23.990999937057495,learn,60000.0,Mon Feb 24 2025 14:23:31 GMT-0600 (Central Standard Time),667735.0999999996,A,clo,O,o,165,1,2831.7999999998137,664903.2999999998,7063,WL,B,13.0
5,24.141000032424927,learn,60000.0,Mon Feb 24 2025 14:23:31 GMT-0600 (Central Standard Time),667885.2000000002,A,cloc,O,c,134,1,2981.9000000003725,664903.2999999998,7063,WL,B,13.0
5,24.240999937057495,learn,60000.0,Mon Feb 24 2025 14:23:31 GMT-0600 (Central Standard Time),667985.2999999998,A,clock,O,k,88,1,3082.0,664903.2999999998,7063,WL,B,13.0
5,24.5239999294281,learn,60000.0,Mon Feb 24 2025 14:23:31 GMT-0600 (Central Standard Time),668268.2999999998,A,clockenter,O,enter,276,1,3365.0,664903.2999999998,7063,WL,B,13.0
5,39.05299997329712,learn,60000.0,Mon Feb 24 2025 14:23:31 GMT-0600 (Central Standard Time),682797.2000000002,A,d,O,d,14513,1,14528.600000000559,668268.5999999996,7063,WL,B,14.0
5,39.32099986076355,learn,60000.0,Mon Feb 24 2025 14:23:31 GMT-0600 (Central Standard Time),683064.7000000002,A,do,O,o,256,1,14796.100000000559,668268.5999999996,7063,WL,B,14.0
5,39.45299983024597,learn,60000.0,Mon Feb 24 2025 14:23:31 GMT-0600 (Central Standard Time),683197.2999999998,A,doo,O,o,125,1,14928.700000000186,668268.5999999996,7063,WL,B,14.0
5,39.669999837875366,learn,60000.0,Mon Feb 24 2025 14:23:31 GMT-0600 (Central Standard Time),683413.5999999996,A,door,O,r,200,1,15145.0,668268.5999999996,7063,WL,B,14.0
5,39.90299987792969,learn,60000.0,Mon Feb 24 2025 14:23:31 GMT-0600 (Central Standard Time),683647.0,A,doorenter,O,enter,216,1,15378.400000000373,668268.5999999996,7063,WL,B,14.0
5,50.39999985694885,learn,60000.0,Mon Feb 24 2025 14:23:31 GMT-0600 (Central Standard Time),694143.7999999998,A,c,O,c,10486,1,10496.5,683647.2999999998,7063,WL,B,15.0
5,50.58299994468689,learn,60000.0,Mon Feb 24 2025 14:23:31 GMT-0600 (Central Standard Time),694327.0,A,ca,O,a,165,1,10679.700000000186,683647.2999999998,7063,WL,B,15.0
5,51.74899983406067,learn,60000.0,Mon Feb 24 2025 14:23:31 GMT-0600 (Central Standard Time),695493.2000000002,A,cab,O,b,1150,1,11845.900000000373,683647.2999999998,7063,WL,B,15.0
5,51.91599988937378,learn,60000.0,Mon Feb 24 2025 14:23:31 GMT-0600 (Central Standard Time),695659.7000000002,A,cabi,O,i,160,1,12012.400000000373,683647.2999999998,7063,WL,B,15.0
5,52.08299994468689,learn,60000.0,Mon Feb 24 2025 14:23:31 GMT-0600 (Central Standard Time),695826.7000000002,A,cabin,O,n,147,1,12179.400000000373,683647.2999999998,7063,WL,B,15.0
5,52.48199987411499,learn,60000.0,Mon Feb 24 2025 14:23:31 GMT-0600 (Central Standard Time),696226.2999999998,A,cabinenter,O,enter,387,1,12579.0,683647.2999999998,7063,WL,B,15.0
6,0.8829998970031738,distr,59117.000102996826,Mon Feb 24 2025 14:23:31 GMT-0600 (Central Standard Time),780416.7000000002,B,b,O,b,871,1,882.6000000005588,779534.0999999996,7063,WL,B,1.0
6,1.0989999771118164,distr,58901.00002288818,Mon Feb 24 2025 14:23:31 GMT-0600 (Central Standard Time),780633.2000000002,B,ba,O,a,196,1,1099.1000000005588,779534.0999999996,7063,WL,B,1.0
6,1.3489999771118164,distr,58651.00002288818,Mon Feb 24 2025 14:23:31 GMT-0600 (Central Standard Time),780883.0999999996,B,bab,O,b,244,1,1349.0,779534.0999999996,7063,WL,B,1.0
6,1.815999984741211,distr,58184.00001525879,Mon Feb 24 2025 14:23:31 GMT-0600 (Central Standard Time),781349.7000000002,B,baby,O,y,458,1,1815.6000000005588,779534.0999999996,7063,WL,B,1.0
6,2.7820000648498535,distr,57217.99993515015,Mon Feb 24 2025 14:23:31 GMT-0600 (Central Standard Time),782316.2000000002,B,babyenter,O,enter,960,1,2782.100000000559,779534.0999999996,7063,WL,B,1.0
6,3.5820000171661377,distr,56417.99998283386,Mon Feb 24 2025 14:23:31 GMT-0600 (Central Standard Time),783115.8999999994,B,o,O,o,793,1,799.3999999994412,782316.5,7063,WL,B,2.0
6,3.815000057220459,distr,56184.99994277954,Mon Feb 24 2025 14:23:31 GMT-0600 (Central Standard Time),783349.2000000002,B,oc,O,c,217,1,1032.7000000001863,782316.5,7063,WL,B,2.0
6,4.164999961853027,distr,55835.00003814697,Mon Feb 24 2025 14:23:31 GMT-0600 (Central Standard Time),783698.8999999994,B,oce,O,e,336,1,1382.3999999994412,782316.5,7063,WL,B,2.0
6,4.365000009536743,distr,55634.99999046326,Mon Feb 24 2025 14:23:31 GMT-0600 (Central Standard Time),783898.7000000002,B,ocea,O,a,195,1,1582.2000000001863,782316.5,7063,WL,B,2.0
6,4.514999866485596,distr,55485.000133514404,Mon Feb 24 2025 14:23:31 GMT-0600 (Central Standard Time),784049.0,B,ocean,O,n,139,1,1732.5,782316.5,7063,WL,B,2.0
6,5.148000001907349,distr,54851.99999809265,Mon Feb 24 2025 14:23:31 GMT-0600 (Central Standard Time),784682.0999999996,B,oceanenter,O,enter,612,1,2365.5999999996275,782316.5,7063,WL,B,2.0
6,5.565000057220459,distr,54434.99994277954,Mon Feb 24 2025 14:23:31 GMT-0600 (Central Standard Time),785098.7999999998,B,l,O,l,395,1,416.29999999981374,784682.5,7063,WL,B,3.0
6,5.815000057220459,distr,54184.99994277954,Mon Feb 24 2025 14:23:31 GMT-0600 (Central Standard Time),785348.3999999994,B,li,O,i,235,1,665.8999999994412,784682.5,7063,WL,B,3.0
6,6.081000089645386,distr,53918.999910354614,Mon Feb 24 2025 14:23:31 GMT-0600 (Central Standard Time),785615.2000000002,B,lip,O,p,249,1,932.7000000001863,784682.5,7063,WL,B,3.0
6,6.764999866485596,distr,53235.000133514404,Mon Feb 24 2025 14:23:31 GMT-0600 (Central Standard Time),786298.2000000002,B,lipenter,O,enter,670,1,1615.7000000001863,784682.5,7063,WL,B,3.0
6,7.29800009727478,distr,52701.99990272522,Mon Feb 24 2025 14:23:31 GMT-0600 (Central Standard Time),786831.5,B,b,O,b,523,1,532.9000000003725,786298.5999999996,7063,WL,B,4.0
6,7.447999954223633,distr,52552.00004577637,Mon Feb 24 2025 14:23:31 GMT-0600 (Central Standard Time),786981.3999999994,B,bu,O,u,142,1,682.7999999998137,786298.5999999996,7063,WL,B,4.0
6,7.648000001907349,distr,52351.99999809265,Mon Feb 24 2025 14:23:31 GMT-0600 (Central Standard Time),787181.2999999998,B,bui,O,i,184,1,882.7000000001863,786298.5999999996,7063,WL,B,4.0
6,7.730999946594238,distr,52269.00005340576,Mon Feb 24 2025 14:23:31 GMT-0600 (Central Standard Time),787264.3999999994,B,buil,O,l,64,1,965.7999999998137,786298.5999999996,7063,WL,B,4.0
6,7.88100004196167,distr,52118.99995803833,Mon Feb 24 2025 14:23:31 GMT-0600 (Central Standard Time),787414.7000000002,B,build,O,d,141,1,1116.1000000005588,786298.5999999996,7063,WL,B,4.0
6,8.013999938964844,distr,51986.000061035156,Mon Feb 24 2025 14:23:31 GMT-0600 (Central Standard Time),787547.5999999996,B,buildi,O,i,127,1,1249.0,786298.5999999996,7063,WL,B,4.0
6,8.114000082015991,distr,51885.99991798401,Mon Feb 24 2025 14:23:31 GMT-0600 (Central Standard Time),787647.7999999998,B,buildin,O,n,81,1,1349.2000000001863,786298.5999999996,7063,WL,B,4.0
6,8.246999979019165,distr,51753.000020980835,Mon Feb 24 2025 14:23:31 GMT-0600 (Central Standard Time),787781.2000000002,B,building,O,g,118,1,1482.6000000005588,786298.5999999996,7063,WL,B,4.0
6,8.581000089645386,distr,51418.999910354614,Mon Feb 24 2025 14:23:31 GMT-0600 (Central Standard Time),788114.5999999996,B,buildingenter,O,enter,312,1,1816.0,786298.5999999996,7063,WL,B,4.0
6,8.846999883651733,distr,51153.00011634827,Mon Feb 24 2025 14:23:31 GMT-0600 (Central Standard Time),788380.7999999998,B,a,O,a,259,1,265.90000000037253,788114.8999999994,7063,WL,B,5.0
6,8.980000019073486,distr,51019.999980926514,Mon Feb 24 2025 14:23:31 GMT-0600 (Central Standard Time),788514.2000000002,B,ar,O,r,121,1,399.30000000074506,788114.8999999994,7063,WL,B,5.0
6,9.19700002670288,distr,50802.99997329712,Mon Feb 24 2025 14:23:31 GMT-0600 (Central Standard Time),788730.8999999994,B,arm,O,m,195,1,616.0,788114.8999999994,7063,WL,B,5.0
6,9.54699993133545,distr,50453.00006866455,Mon Feb 24 2025 14:23:31 GMT-0600 (Central Standard Time),789080.7000000002,B,army,O,y,330,1,965.8000000007451,788114.8999999994,7063,WL,B,5.0
6,10.114000082015991,distr,49885.99991798401,Mon Feb 24 2025 14:23:31 GMT-0600 (Central Standard Time),789647.2000000002,B,armyenter,O,enter,557,1,1532.300000000745,788114.8999999994,7063,WL,B,5.0
6,11.230000019073486,distr,48769.999980926514,Mon Feb 24 2025 14:23:31 GMT-0600 (Central Standard Time),790763.5,B,p,O,p,1102,1,1116.0,789647.5,7063,WL,B,6.0
6,11.430000066757202,distr,48569.9999332428,Mon Feb 24 2025 14:23:31 GMT-0600 (Central Standard Time),790963.2999999998,B,pa,O,a,186,1,1315.7999999998137,789647.5,7063,WL,B,6.0
6,11.579999923706055,distr,48420.000076293945,Mon Feb 24 2025 14:23:31 GMT-0600 (Central Standard Time),791113.5999999996,B,pal,O,l,130,1,1466.0999999996275,789647.5,7063,WL,B,6.0
6,11.713000059127808,distr,48286.99994087219,Mon Feb 24 2025 14:23:31 GMT-0600 (Central Standard Time),791246.7999999998,B,pala,O,a,124,1,1599.2999999998137,789647.5,7063,WL,B,6.0
6,11.963000059127808,distr,48036.99994087219,Mon Feb 24 2025 14:23:31 GMT-0600 (Central Standard Time),791496.5999999996,B,palac,O,c,239,1,1849.0999999996275,789647.5,7063,WL,B,6.0
6,12.213000059127808,distr,47786.99994087219,Mon Feb 24 2025 14:23:31 GMT-0600 (Central Standard Time),791746.7000000002,B,palace,O,e,237,1,2099.2000000001863,789647.5,7063,WL,B,6.0
6,12.496000051498413,distr,47503.99994850159,Mon Feb 24 2025 14:23:31 GMT-0600 (Central Standard Time),792029.7999999998,B,palaceenter,O,enter,275,1,2382.2999999998137,789647.5,7063,WL,B,6.0
6,22.776000022888184,distr,37223.99997711182,Mon Feb 24 2025 14:23:31 GMT-0600 (Central Standard Time),802310.0999999996,B,b,O,b,10272,1,10279.899999999441,792030.2000000002,7063,WL,B,7.0
6,22.859999895095825,distr,37140.000104904175,Mon Feb 24 2025 14:23:31 GMT-0600 (Central Standard Time),802393.3999999994,B,bu,O,u,63,1,10363.199999999255,792030.2000000002,7063,WL,B,7.0
6,23.026000022888184,distr,36973.99997711182,Mon Feb 24 2025 14:23:31 GMT-0600 (Central Standard Time),802559.7999999998,B,bui,O,i,157,1,10529.599999999627,792030.2000000002,7063,WL,B,7.0
6,23.125999927520752,distr,36874.00007247925,Mon Feb 24 2025 14:23:31 GMT-0600 (Central Standard Time),802659.8999999994,B,buil,O,l,86,1,10629.699999999255,792030.2000000002,7063,WL,B,7.0
6,23.292999982833862,distr,36707.00001716614,Mon Feb 24 2025 14:23:31 GMT-0600 (Central Standard Time),802826.5,B,build,O,d,146,1,10796.299999999814,792030.2000000002,7063,WL,B,7.0
6,23.408999919891357,distr,36591.00008010864,Mon Feb 24 2025 14:23:31 GMT-0600 (Central Standard Time),802943.0999999996,B,buildi,O,i,99,1,10912.899999999441,792030.2000000002,7063,WL,B,7.0
6,23.509000062942505,distr,36490.999937057495,Mon Feb 24 2025 14:23:31 GMT-0600 (Central Standard Time),803043.0999999996,B,buildin,O,n,86,1,11012.899999999441,792030.2000000002,7063,WL,B,7.0
6,23.64299988746643,distr,36357.00011253357,Mon Feb 24 2025 14:23:31 GMT-0600 (Central Standard Time),803176.3999999994,B,building,O,g,114,1,11146.199999999255,792030.2000000002,7063,WL,B,7.0
6,24.175999879837036,distr,35824.000120162964,Mon Feb 24 2025 14:23:31 GMT-0600 (Central Standard Time),803709.7000000002,B,buildingenter,O,enter,517,1,11679.5,792030.2000000002,7063,WL,B,7.0
6,27.45799994468689,distr,32542.00005531311,Mon Feb 24 2025 14:23:31 GMT-0600 (Central Standard Time),806991.7000000002,B,l,O,l,3264,1,3281.600000000559,803710.0999999996,7063,WL,B,8.0
6,27.70799994468689,distr,32292.00005531311,Mon Feb 24 2025 14:23:31 GMT-0600 (Central Standard Time),807241.5,B,li,O,i,239,1,3531.4000000003725,803710.0999999996,7063,WL,B,8.0
6,28.125,distr,31875.0,Mon Feb 24 2025 14:23:31 GMT-0600 (Central Standard Time),807658.2999999998,B,lip,O,p,404,1,3948.2000000001863,803710.0999999996,7063,WL,B,8.0
6,28.740999937057495,distr,31259.000062942505,Mon Feb 24 2025 14:23:31 GMT-0600 (Central Standard Time),808274.7999999998,B,lipenter,O,enter,596,1,4564.700000000186,803710.0999999996,7063,WL,B,8.0
6,33.69000005722046,distr,26309.99994277954,Mon Feb 24 2025 14:23:31 GMT-0600 (Central Standard Time),813223.2999999998,B,s,O,s,4931,1,4948.200000000186,808275.0999999996,7063,WL,B,9.0
6,33.83999991416931,distr,26160.00008583069,Mon Feb 24 2025 14:23:31 GMT-0600 (Central Standard Time),813373.2999999998,B,st,O,t,142,1,5098.200000000186,808275.0999999996,7063,WL,B,9.0
6,33.98900008201599,distr,26010.99991798401,Mon Feb 24 2025 14:23:31 GMT-0600 (Central Standard Time),813522.7999999998,B,sto,O,o,144,1,5247.700000000186,808275.0999999996,7063,WL,B,9.0
6,34.12299990653992,distr,25877.000093460083,Mon Feb 24 2025 14:23:31 GMT-0600 (Central Standard Time),813656.5,B,stor,O,r,123,1,5381.4000000003725,808275.0999999996,7063,WL,B,9.0
6,34.223000049591064,distr,25776.999950408936,Mon Feb 24 2025 14:23:31 GMT-0600 (Central Standard Time),813756.2999999998,B,storm,O,m,93,1,5481.200000000186,808275.0999999996,7063,WL,B,9.0
6,34.57299995422363,distr,25427.000045776367,Mon Feb 24 2025 14:23:31 GMT-0600 (Central Standard Time),814106.2999999998,B,stormenter,O,enter,329,1,5831.200000000186,808275.0999999996,7063,WL,B,9.0
6,60.013999938964844,distr,-13.99993896484375,Mon Feb 24 2025 14:23:31 GMT-0600 (Central Standard Time),839548.2000000002,B,None,O,None,25437,1,25441.60000000056,814106.5999999996,7063,WL,B,10.0
7,0.5669999122619629,immed,59433.00008773804,Mon Feb 24 2025 14:23:31 GMT-0600 (Central Standard Time),854710.2000000002,A,s,O,s,550,1,566.3000000007451,854143.8999999994,7063,WL,B,1.0
7,0.75,immed,59250.0,Mon Feb 24 2025 14:23:31 GMT-0600 (Central Standard Time),854893.5,A,st,O,t,167,1,749.6000000005588,854143.8999999994,7063,WL,B,1.0
7,0.9830000400543213,immed,59016.99995994568,Mon Feb 24 2025 14:23:31 GMT-0600 (Central Standard Time),855126.7000000002,A,str,O,r,216,1,982.8000000007451,854143.8999999994,7063,WL,B,1.0
7,1.2000000476837158,immed,58799.999952316284,Mon Feb 24 2025 14:23:31 GMT-0600 (Central Standard Time),855343.5999999996,A,stre,O,e,199,1,1199.7000000001863,854143.8999999994,7063,WL,B,1.0
7,1.4000000953674316,immed,58599.99990463257,Mon Feb 24 2025 14:23:31 GMT-0600 (Central Standard Time),855543.5,A,stree,O,e,182,1,1399.6000000005588,854143.8999999994,7063,WL,B,1.0
7,1.934000015258789,immed,58065.99998474121,Mon Feb 24 2025 14:23:31 GMT-0600 (Central Standard Time),856077.5,A,street,O,t,518,1,1933.6000000005588,854143.8999999994,7063,WL,B,1.0
7,2.2829999923706055,immed,57717.000007629395,Mon Feb 24 2025 14:23:31 GMT-0600 (Central Standard Time),856426.2000000002,A,streetenter,O,enter,327,1,2282.300000000745,854143.8999999994,7063,WL,B,1.0
7,2.6489999294281006,immed,57351.0000705719,Mon Feb 24 2025 14:23:31 GMT-0600 (Central Standard Time),856792.8999999994,A,d,O,d,347,1,366.5,856426.3999999994,7063,WL,B,2.0
7,2.865999937057495,immed,57134.000062942505,Mon Feb 24 2025 14:23:31 GMT-0600 (Central Standard Time),857009.5,A,do,O,o,197,1,583.1000000005588,856426.3999999994,7063,WL,B,2.0
7,3.0160000324249268,immed,56983.99996757507,Mon Feb 24 2025 14:23:31 GMT-0600 (Central Standard Time),857159.5,A,doo,O,o,140,1,733.1000000005588,856426.3999999994,7063,WL,B,2.0
7,3.249000072479248,immed,56750.99992752075,Mon Feb 24 2025 14:23:31 GMT-0600 (Central Standard Time),857392.8999999994,A,door,O,r,214,1,966.5,856426.3999999994,7063,WL,B,2.0
7,3.5490000247955322,immed,56450.99997520447,Mon Feb 24 2025 14:23:31 GMT-0600 (Central Standard Time),857692.5999999996,A,doorenter,O,enter,285,1,1266.2000000001863,856426.3999999994,7063,WL,B,2.0
7,3.8320000171661377,immed,56167.99998283386,Mon Feb 24 2025 14:23:31 GMT-0600 (Central Standard Time),857975.8999999994,A,g,O,g,274,1,283.09999999962747,857692.7999999998,7063,WL,B,3.0
7,4.082000017166138,immed,55917.99998283386,Mon Feb 24 2025 14:23:31 GMT-0600 (Central Standard Time),858225.7999999998,A,gr,O,r,229,1,533.0,857692.7999999998,7063,WL,B,3.0
7,4.232000112533569,immed,55767.99988746643,Mon Feb 24 2025 14:23:31 GMT-0600 (Central Standard Time),858375.7999999998,A,gra,O,a,132,1,683.0,857692.7999999998,7063,WL,B,3.0
7,4.5320000648498535,immed,55467.99993515015,Mon Feb 24 2025 14:23:31 GMT-0600 (Central Standard Time),858675.5999999996,A,gras,O,s,285,1,982.7999999998137,857692.7999999998,7063,WL,B,3.0
7,4.681999921798706,immed,55318.000078201294,Mon Feb 24 2025 14:23:31 GMT-0600 (Central Standard Time),858825.5,A,grass,O,s,130,1,1132.7000000001863,857692.7999999998,7063,WL,B,3.0
7,4.898999929428101,immed,55101.0000705719,Mon Feb 24 2025 14:23:31 GMT-0600 (Central Standard Time),859042.2999999998,A,grassenter,O,enter,196,1,1349.5,857692.7999999998,7063,WL,B,3.0
7,6.2820000648498535,immed,53717.99993515015,Mon Feb 24 2025 14:23:31 GMT-0600 (Central Standard Time),860425.2000000002,A,l,O,l,1369,1,1382.4000000003725,859042.7999999998,7063,WL,B,4.0
7,6.515000104904175,immed,53484.999895095825,Mon Feb 24 2025 14:23:31 GMT-0600 (Central Standard Time),860658.2999999998,A,li,O,i,212,1,1615.5,859042.7999999998,7063,WL,B,4.0
7,6.831000089645386,immed,53168.999910354614,Mon Feb 24 2025 14:23:31 GMT-0600 (Central Standard Time),860974.8999999994,A,lip,O,p,299,1,1932.0999999996275,859042.7999999998,7063,WL,B,4.0
7,7.29800009727478,immed,52701.99990272522,Mon Feb 24 2025 14:23:31 GMT-0600 (Central Standard Time),861441.3999999994,A,lipenter,O,enter,447,1,2398.5999999996275,859042.7999999998,7063,WL,B,4.0
7,8.04800009727478,immed,51951.99990272522,Mon Feb 24 2025 14:23:31 GMT-0600 (Central Standard Time),862191.2000000002,A,f,O,f,732,1,749.5,861441.7000000002,7063,WL,B,5.0
7,8.147000074386597,immed,51852.9999256134,Mon Feb 24 2025 14:23:31 GMT-0600 (Central Standard Time),862290.8999999994,A,fi,O,i,87,1,849.1999999992549,861441.7000000002,7063,WL,B,5.0
7,8.266000032424927,immed,51733.99996757507,Mon Feb 24 2025 14:23:31 GMT-0600 (Central Standard Time),862409.0999999996,A,fir,O,r,99,1,967.3999999994412,861441.7000000002,7063,WL,B,5.0
7,8.430999994277954,immed,51569.000005722046,Mon Feb 24 2025 14:23:31 GMT-0600 (Central Standard Time),862574.2999999998,A,fire,O,e,148,1,1132.5999999996275,861441.7000000002,7063,WL,B,5.0
7,8.746999979019165,immed,51253.000020980835,Mon Feb 24 2025 14:23:31 GMT-0600 (Central Standard Time),862891.0,A,fireenter,O,enter,311,1,1449.2999999998137,861441.7000000002,7063,WL,B,5.0
7,8.996999979019165,immed,51003.000020980835,Mon Feb 24 2025 14:23:31 GMT-0600 (Central Standard Time),863140.8999999994,A,w,O,w,243,1,249.69999999925494,862891.2000000002,7063,WL,B,6.0
7,9.147000074386597,immed,50852.9999256134,Mon Feb 24 2025 14:23:31 GMT-0600 (Central Standard Time),863290.5999999996,A,wi,O,i,136,1,399.3999999994412,862891.2000000002,7063,WL,B,6.0
7,9.29699993133545,immed,50703.00006866455,Mon Feb 24 2025 14:23:31 GMT-0600 (Central Standard Time),863440.7000000002,A,wif,O,f,140,1,549.5,862891.2000000002,7063,WL,B,6.0
7,9.480999946594238,immed,50519.00005340576,Mon Feb 24 2025 14:23:31 GMT-0600 (Central Standard Time),863624.2000000002,A,wife,O,e,173,1,733.0,862891.2000000002,7063,WL,B,6.0
7,10.114000082015991,immed,49885.99991798401,Mon Feb 24 2025 14:23:31 GMT-0600 (Central Standard Time),864257.2000000002,A,wifeenter,O,enter,622,1,1366.0,862891.2000000002,7063,WL,B,6.0
7,11.647000074386597,immed,48352.9999256134,Mon Feb 24 2025 14:23:31 GMT-0600 (Central Standard Time),865790.0999999996,A,c,O,c,1516,1,1532.5,864257.5999999996,7063,WL,B,7.0
7,11.746999979019165,immed,48253.000020980835,Mon Feb 24 2025 14:23:31 GMT-0600 (Central Standard Time),865890.0999999996,A,cl,O,l,87,1,1632.5,864257.5999999996,7063,WL,B,7.0
7,11.930000066757202,immed,48069.9999332428,Mon Feb 24 2025 14:23:31 GMT-0600 (Central Standard Time),866073.3999999994,A,clo,O,o,171,1,1815.7999999998137,864257.5999999996,7063,WL,B,7.0
7,12.079999923706055,immed,47920.000076293945,Mon Feb 24 2025 14:23:31 GMT-0600 (Central Standard Time),866223.0999999996,A,cloc,O,c,140,1,1965.5,864257.5999999996,7063,WL,B,7.0
7,12.180000066757202,immed,47819.9999332428,Mon Feb 24 2025 14:23:31 GMT-0600 (Central Standard Time),866323.3999999994,A,clock,O,k,86,1,2065.7999999998137,864257.5999999996,7063,WL,B,7.0
7,12.496000051498413,immed,47503.99994850159,Mon Feb 24 2025 14:23:31 GMT-0600 (Central Standard Time),866639.7000000002,A,clockenter,O,enter,306,1,2382.100000000559,864257.5999999996,7063,WL,B,7.0
7,13.597000122070312,immed,46402.99987792969,Mon Feb 24 2025 14:23:31 GMT-0600 (Central Standard Time),867740.5999999996,A,l,O,l,1086,1,1100.5999999996275,866640.0,7063,WL,B,8.0
7,13.713000059127808,immed,46286.99994087219,Mon Feb 24 2025 14:23:31 GMT-0600 (Central Standard Time),867856.2999999998,A,la,O,a,105,1,1216.2999999998137,866640.0,7063,WL,B,8.0
7,13.86299991607666,immed,46137.00008392334,Mon Feb 24 2025 14:23:31 GMT-0600 (Central Standard Time),868006.0999999996,A,lak,O,k,141,1,1366.0999999996275,866640.0,7063,WL,B,8.0
7,14.01200008392334,immed,45987.99991607666,Mon Feb 24 2025 14:23:31 GMT-0600 (Central Standard Time),868155.8999999994,A,lake,O,e,135,1,1515.8999999994412,866640.0,7063,WL,B,8.0
7,14.296000003814697,immed,45703.9999961853,Mon Feb 24 2025 14:23:31 GMT-0600 (Central Standard Time),868439.2000000002,A,lakeenter,O,enter,265,1,1799.2000000001863,866640.0,7063,WL,B,8.0
7,14.645999908447266,immed,45354.000091552734,Mon Feb 24 2025 14:23:31 GMT-0600 (Central Standard Time),868789.2000000002,A,c,O,c,343,1,349.70000000018626,868439.5,7063,WL,B,9.0
7,14.796000003814697,immed,45203.9999961853,Mon Feb 24 2025 14:23:31 GMT-0600 (Central Standard Time),868939.0999999996,A,ca,O,a,144,1,499.59999999962747,868439.5,7063,WL,B,9.0
7,15.046000003814697,immed,44953.9999961853,Mon Feb 24 2025 14:23:31 GMT-0600 (Central Standard Time),869189.0,A,cab,O,b,242,1,749.5,868439.5,7063,WL,B,9.0
7,15.229000091552734,immed,44770.999908447266,Mon Feb 24 2025 14:23:31 GMT-0600 (Central Standard Time),869372.2000000002,A,cabi,O,i,168,1,932.7000000001863,868439.5,7063,WL,B,9.0
7,15.328999996185303,immed,44671.0000038147,Mon Feb 24 2025 14:23:31 GMT-0600 (Central Standard Time),869472.0,A,cabin,O,n,89,1,1032.5,868439.5,7063,WL,B,9.0
7,15.661999940872192,immed,44338.00005912781,Mon Feb 24 2025 14:23:31 GMT-0600 (Central Standard Time),869805.5,A,cabinenter,O,enter,317,1,1366.0,868439.5,7063,WL,B,9.0
7,17.09599995613098,immed,42904.00004386902,Mon Feb 24 2025 14:23:31 GMT-0600 (Central Standard Time),871239.5999999996,A,w,O,w,1416,1,1433.7999999998137,869805.7999999998,7063,WL,B,10.0
7,17.194999933242798,immed,42805.0000667572,Mon Feb 24 2025 14:23:31 GMT-0600 (Central Standard Time),871338.2999999998,A,wi,O,i,86,1,1532.5,869805.7999999998,7063,WL,B,10.0
7,17.278000116348267,immed,42721.99988365173,Mon Feb 24 2025 14:23:31 GMT-0600 (Central Standard Time),871421.7000000002,A,win,O,n,67,1,1615.9000000003725,869805.7999999998,7063,WL,B,10.0
7,17.42799997329712,immed,42572.00002670288,Mon Feb 24 2025 14:23:31 GMT-0600 (Central Standard Time),871571.5999999996,A,wind,O,d,136,1,1765.7999999998137,869805.7999999998,7063,WL,B,10.0
7,17.545000076293945,immed,42454.999923706055,Mon Feb 24 2025 14:23:31 GMT-0600 (Central Standard Time),871688.2999999998,A,windo,O,o,106,1,1882.5,869805.7999999998,7063,WL,B,10.0
7,17.694999933242798,immed,42305.0000667572,Mon Feb 24 2025 14:23:31 GMT-0600 (Central Standard Time),871838.5,A,window,O,w,133,1,2032.7000000001863,869805.7999999998,7063,WL,B,10.0
7,18.144999980926514,immed,41855.000019073486,Mon Feb 24 2025 14:23:31 GMT-0600 (Central Standard Time),872288.0999999996,A,windowenter,O,enter,438,1,2482.2999999998137,869805.7999999998,7063,WL,B,10.0
7,19.561000108718872,immed,40438.99989128113,Mon Feb 24 2025 14:23:31 GMT-0600 (Central Standard Time),873704.2999999998,A,c,O,c,1406,1,1415.9000000003725,872288.3999999994,7063,WL,B,11.0
7,19.76099991798401,immed,40239.00008201599,Mon Feb 24 2025 14:23:31 GMT-0600 (Central Standard Time),873904.2999999998,A,ca,O,a,189,1,1615.9000000003725,872288.3999999994,7063,WL,B,11.0
7,20.026999950408936,immed,39973.000049591064,Mon Feb 24 2025 14:23:31 GMT-0600 (Central Standard Time),874170.5999999996,A,cab,O,b,246,1,1882.2000000001863,872288.3999999994,7063,WL,B,11.0
7,20.14400005340576,immed,39855.99994659424,Mon Feb 24 2025 14:23:31 GMT-0600 (Central Standard Time),874287.3999999994,A,cabi,O,i,107,1,1999.0,872288.3999999994,7063,WL,B,11.0
7,20.22699999809265,immed,39773.00000190735,Mon Feb 24 2025 14:23:31 GMT-0600 (Central Standard Time),874370.5999999996,A,cabin,O,n,63,1,2082.2000000001863,872288.3999999994,7063,WL,B,11.0
7,20.594000101089478,immed,39405.99989891052,Mon Feb 24 2025 14:23:31 GMT-0600 (Central Standard Time),874737.3999999994,A,cabinenter,O,enter,347,1,2449.0,872288.3999999994,7063,WL,B,11.0
7,21.128000020980835,immed,38871.999979019165,Mon Feb 24 2025 14:23:31 GMT-0600 (Central Standard Time),875271.5,A,l,O,l,524,1,533.7000000001863,874737.7999999998,7063,WL,B,12.0
7,21.30999994277954,immed,38690.00005722046,Mon Feb 24 2025 14:23:31 GMT-0600 (Central Standard Time),875453.7000000002,A,la,O,a,166,1,715.9000000003725,874737.7999999998,7063,WL,B,12.0
7,21.47699999809265,immed,38523.00000190735,Mon Feb 24 2025 14:23:31 GMT-0600 (Central Standard Time),875620.2999999998,A,lak,O,k,152,1,882.5,874737.7999999998,7063,WL,B,12.0
7,21.66000008583069,immed,38339.99991416931,Mon Feb 24 2025 14:23:31 GMT-0600 (Central Standard Time),875803.3999999994,A,lake,O,e,177,1,1065.5999999996275,874737.7999999998,7063,WL,B,12.0
7,21.91000008583069,immed,38089.99991416931,Mon Feb 24 2025 14:23:31 GMT-0600 (Central Standard Time),876053.3999999994,A,lakeenter,O,enter,233,1,1315.5999999996275,874737.7999999998,7063,WL,B,12.0
7,31.256999969482422,immed,28743.000030517578,Mon Feb 24 2025 14:23:31 GMT-0600 (Central Standard Time),885400.5999999996,A,w,O,w,9336,1,9346.799999999814,876053.7999999998,7063,WL,B,13.0
7,31.33999991416931,immed,28660.00008583069,Mon Feb 24 2025 14:23:31 GMT-0600 (Central Standard Time),885483.8999999994,A,wi,O,i,68,1,9430.099999999627,876053.7999999998,7063,WL,B,13.0
7,31.5239999294281,immed,28476.0000705719,Mon Feb 24 2025 14:23:31 GMT-0600 (Central Standard Time),885667.2999999998,A,wif,O,f,170,1,9613.5,876053.7999999998,7063,WL,B,13.0
7,31.70799994468689,immed,28292.00005531311,Mon Feb 24 2025 14:23:31 GMT-0600 (Central Standard Time),885851.5999999996,A,wife,O,e,170,1,9797.799999999814,876053.7999999998,7063,WL,B,13.0
7,32.00699996948242,immed,27993.000030517578,Mon Feb 24 2025 14:23:31 GMT-0600 (Central Standard Time),886150.5,A,wifeenter,O,enter,289,1,10096.700000000186,876053.7999999998,7063,WL,B,13.0
7,44.46900010108948,immed,15530.999898910522,Mon Feb 24 2025 14:23:31 GMT-0600 (Central Standard Time),898613.0999999996,A,a,O,a,12448,1,12462.399999999441,886150.7000000002,7063,WL,B,14.0
7,44.63599991798401,immed,15364.000082015991,Mon Feb 24 2025 14:23:31 GMT-0600 (Central Standard Time),898780.2000000002,A,ar,O,r,153,1,12629.5,886150.7000000002,7063,WL,B,14.0
7,44.835999965667725,immed,15164.000034332275,Mon Feb 24 2025 14:23:31 GMT-0600 (Central Standard Time),898979.8999999994,A,arm,O,m,185,1,12829.199999999255,886150.7000000002,7063,WL,B,14.0
7,45.13599991798401,immed,14864.000082015991,Mon Feb 24 2025 14:23:31 GMT-0600 (Central Standard Time),899279.5,A,armenter,O,enter,290,1,13128.799999999814,886150.7000000002,7063,WL,B,14.0
7,54.16600012779236,immed,5833.999872207642,Mon Feb 24 2025 14:23:31 GMT-0600 (Central Standard Time),908310.2000000002,A,enter,O,enter,9022,1,9030.400000000373,899279.7999999998,7063,WL,B,15.0
