acc_sum,block,block_c,change,condition,correct,correct_response,datetime,endtime,face,project,response,response_time,row_sel,session_number,start_end,starttime,subject_id,task,task_vers,trial
0,prac,1,,1-Back,,,Wed Feb 19 2025 16:51:14 GMT-0600 (Central Standard Time),,012_o_f_d_a.png,I,space,1366,1,2,,,8011,VNB,C,0
1,prac,1,0.0,1-Back,1,m,Wed Feb 19 2025 16:51:14 GMT-0600 (Central Standard Time),88383.0,022_y_f_n_a.png,I,m,1187,2,2,2090.0,86293.0,8011,VNB,C,1
1,prac,1,0.0,1-Back,0,m,Wed Feb 19 2025 16:51:14 GMT-0600 (Central Standard Time),90249.1000000001,014_m_m_h_a.png,I,z,981,3,2,1859.5,88389.6000000001,8011,VNB,C,2
2,prac,1,0.0,1-Back,1,m,Wed Feb 19 2025 16:51:14 GMT-0600 (Central Standard Time),92214.8999999999,025_y_m_d_a.png,I,m,1090,4,2,1959.6999999997206,90255.20000000019,8011,VNB,C,3
3,prac,1,0.0,1-Back,1,m,Wed Feb 19 2025 16:51:14 GMT-0600 (Central Standard Time),94264.3999999999,012_o_f_n_a.png,I,m,1149,5,2,2042.6000000000931,92221.79999999981,8011,VNB,C,4
4,prac,1,1.0,1-Back,1,z,Wed Feb 19 2025 16:51:14 GMT-0600 (Central Standard Time),96080.3999999999,025_y_m_n_a.png,I,z,928,6,2,1808.6000000000931,94271.79999999981,8011,VNB,C,5
5,prac,1,0.0,1-Back,1,m,Wed Feb 19 2025 16:51:14 GMT-0600 (Central Standard Time),97830.0,015_o_m_h_a.png,I,m,838,7,2,1741.5,96088.5,8011,VNB,C,6
6,prac,1,0.0,1-Back,1,m,Wed Feb 19 2025 16:51:14 GMT-0600 (Central Standard Time),99513.79999999981,019_m_f_d_a.png,I,m,787,8,2,1678.0999999996275,97835.70000000019,8011,VNB,C,7
7,prac,1,1.0,1-Back,1,z,Wed Feb 19 2025 16:51:14 GMT-0600 (Central Standard Time),101328.70000000019,022_y_f_d_a.png,I,z,917,9,2,1808.1000000000931,99520.6000000001,8011,VNB,C,8
8,prac,1,0.0,1-Back,1,m,Wed Feb 19 2025 16:51:14 GMT-0600 (Central Standard Time),102928.20000000019,014_m_m_n_a.png,I,m,717,10,2,1592.6000000000931,101335.6000000001,8011,VNB,C,9
9,prac,1,0.0,1-Back,1,m,Wed Feb 19 2025 16:51:14 GMT-0600 (Central Standard Time),104727.70000000019,012_o_f_h_a.png,I,m,893,11,2,1792.8000000002794,102934.8999999999,8011,VNB,C,10
10,prac,1,0.0,1-Back,1,m,Wed Feb 19 2025 16:51:14 GMT-0600 (Central Standard Time),106543.79999999981,025_y_m_d_a.png,I,m,928,12,2,1808.8999999999069,104734.8999999999,8011,VNB,C,11
0,test,1,0.0,1-Back,,,Wed Feb 19 2025 16:51:14 GMT-0600 (Central Standard Time),106543.79999999981,022_y_f_d_a.png,I,space,817,1,2,1808.8999999999069,104734.8999999999,8011,VNB,C,0
1,test,1,0.0,1-Back,1,m,Wed Feb 19 2025 16:51:14 GMT-0600 (Central Standard Time),114274.8999999999,019_m_f_n_a.png,I,m,783,2,2,1811.1000000000931,112463.79999999981,8011,VNB,C,1
2,test,1,0.0,1-Back,1,m,Wed Feb 19 2025 16:51:14 GMT-0600 (Central Standard Time),116257.29999999981,015_o_m_h_a.png,I,m,958,3,2,1977.7999999998137,114279.5,8011,VNB,C,2
3,test,1,1.0,1-Back,1,z,Wed Feb 19 2025 16:51:14 GMT-0600 (Central Standard Time),117906.70000000019,014_m_m_h_a.png,I,z,632,4,2,1645.3000000002794,116261.3999999999,8011,VNB,C,3
4,test,1,0.0,1-Back,1,m,Wed Feb 19 2025 16:51:14 GMT-0600 (Central Standard Time),119673.29999999981,012_o_f_n_a.png,I,m,734,5,2,1762.5,117910.79999999981,8011,VNB,C,4
5,test,1,0.0,1-Back,1,m,Wed Feb 19 2025 16:51:14 GMT-0600 (Central Standard Time),121489.0,025_y_m_d_a.png,I,m,784,6,2,1810.8999999999069,119678.1000000001,8011,VNB,C,5
6,test,1,1.0,1-Back,1,z,Wed Feb 19 2025 16:51:14 GMT-0600 (Central Standard Time),123088.3999999999,019_m_f_d_a.png,I,z,568,7,2,1595.0,121493.3999999999,8011,VNB,C,6
7,test,1,0.0,1-Back,1,m,Wed Feb 19 2025 16:51:14 GMT-0600 (Central Standard Time),124754.8999999999,022_y_f_h_a.png,I,m,649,8,2,1660.5,123094.3999999999,8011,VNB,C,7
8,test,1,0.0,1-Back,1,m,Wed Feb 19 2025 16:51:14 GMT-0600 (Central Standard Time),126520.8999999999,015_o_m_n_a.png,I,m,734,9,2,1762.7999999998137,124758.1000000001,8011,VNB,C,8
9,test,1,0.0,1-Back,1,m,Wed Feb 19 2025 16:51:14 GMT-0600 (Central Standard Time),128386.79999999981,025_y_m_h_a.png,I,m,848,10,2,1861.0,126525.79999999981,8011,VNB,C,9
10,test,1,0.0,1-Back,1,m,Wed Feb 19 2025 16:51:14 GMT-0600 (Central Standard Time),130270.8999999999,015_o_m_d_a.png,I,m,854,11,2,1880.1000000000931,128390.79999999981,8011,VNB,C,10
11,test,1,1.0,1-Back,1,z,Wed Feb 19 2025 16:51:14 GMT-0600 (Central Standard Time),132085.8999999999,012_o_f_d_a.png,I,z,787,12,2,1810.3999999999069,130275.5,8011,VNB,C,11
12,test,1,0.0,1-Back,1,m,Wed Feb 19 2025 16:51:14 GMT-0600 (Central Standard Time),133918.3999999999,014_m_m_n_a.png,I,m,803,13,2,1828.2999999998137,132090.1000000001,8011,VNB,C,12
13,test,1,1.0,1-Back,1,z,Wed Feb 19 2025 16:51:14 GMT-0600 (Central Standard Time),135768.0,022_y_f_n_a.png,I,z,819,14,2,1845.1000000000931,133922.8999999999,8011,VNB,C,13
14,test,1,0.0,1-Back,1,m,Wed Feb 19 2025 16:51:14 GMT-0600 (Central Standard Time),137550.6000000001,019_m_f_h_a.png,I,m,762,15,2,1778.2000000001863,135772.3999999999,8011,VNB,C,14
15,test,1,0.0,1-Back,1,m,Wed Feb 19 2025 16:51:14 GMT-0600 (Central Standard Time),139200.2999999998,014_m_m_d_a.png,I,m,626,16,2,1645.2999999998137,137555.0,8011,VNB,C,15
16,test,1,0.0,1-Back,1,m,Wed Feb 19 2025 16:51:14 GMT-0600 (Central Standard Time),141049.8999999999,025_y_m_n_a.png,I,m,817,17,2,1845.1999999997206,139204.7000000002,8011,VNB,C,16
17,test,1,0.0,1-Back,1,m,Wed Feb 19 2025 16:51:14 GMT-0600 (Central Standard Time),142865.7999999998,012_o_f_h_a.png,I,m,791,18,2,1811.3999999999069,141054.3999999999,8011,VNB,C,17
0,test,2,0.0,1-Back,,,Wed Feb 19 2025 16:51:14 GMT-0600 (Central Standard Time),142865.7999999998,025_y_m_n_a.png,I,space,1047,1,2,1811.3999999999069,141054.3999999999,8011,VNB,C,0
1,test,2,0.0,1-Back,1,m,Wed Feb 19 2025 16:51:14 GMT-0600 (Central Standard Time),147797.5,022_y_f_h_a.png,I,m,838,2,2,1861.0,145936.5,8011,VNB,C,1
2,test,2,1.0,1-Back,1,m,Wed Feb 19 2025 16:51:14 GMT-0600 (Central Standard Time),149680.3999999999,015_o_m_n_a.png,I,m,775,3,2,1878.6000000000931,147801.7999999998,8011,VNB,C,2
3,test,2,0.0,1-Back,1,m,Wed Feb 19 2025 16:51:14 GMT-0600 (Central Standard Time),151379.7999999998,019_m_f_d_a.png,I,m,673,4,2,1696.0999999996275,149683.7000000002,8011,VNB,C,3
4,test,2,0.0,1-Back,1,z,Wed Feb 19 2025 16:51:14 GMT-0600 (Central Standard Time),153045.8999999999,014_m_m_d_a.png,I,z,637,5,2,1661.5,151384.3999999999,8011,VNB,C,4
5,test,2,0.0,1-Back,1,m,Wed Feb 19 2025 16:51:14 GMT-0600 (Central Standard Time),154745.2999999998,025_y_m_h_a.png,I,m,675,6,2,1695.8999999999069,153049.3999999999,8011,VNB,C,5
6,test,2,1.0,1-Back,1,z,Wed Feb 19 2025 16:51:14 GMT-0600 (Central Standard Time),156311.5,012_o_f_h_a.png,I,z,536,7,2,1562.5,154749.0,8011,VNB,C,6
7,test,2,0.0,1-Back,1,m,Wed Feb 19 2025 16:51:14 GMT-0600 (Central Standard Time),157961.1000000001,019_m_f_n_a.png,I,m,618,8,2,1644.7000000001863,156316.3999999999,8011,VNB,C,7
8,test,2,0.0,1-Back,1,m,Wed Feb 19 2025 16:51:14 GMT-0600 (Central Standard Time),159810.3999999999,022_y_f_d_a.png,I,m,832,9,2,1845.2999999998137,157965.1000000001,8011,VNB,C,8
9,test,2,0.0,1-Back,1,m,Wed Feb 19 2025 16:51:14 GMT-0600 (Central Standard Time),161543.3999999999,014_m_m_n_a.png,I,m,704,10,2,1728.7999999998137,159814.6000000001,8011,VNB,C,9
10,test,2,1.0,1-Back,1,m,Wed Feb 19 2025 16:51:14 GMT-0600 (Central Standard Time),163176.1000000001,019_m_f_h_a.png,I,m,602,11,2,1627.6000000000931,161548.5,8011,VNB,C,10
11,test,2,0.0,1-Back,1,z,Wed Feb 19 2025 16:51:14 GMT-0600 (Central Standard Time),164759.0,015_o_m_h_a.png,I,z,553,12,2,1579.6000000000931,163179.3999999999,8011,VNB,C,11
12,test,2,0.0,1-Back,1,m,Wed Feb 19 2025 16:51:14 GMT-0600 (Central Standard Time),166375.1000000001,025_y_m_d_a.png,I,m,594,13,2,1612.1000000000931,164763.0,8011,VNB,C,12
13,test,2,0.0,1-Back,1,m,Wed Feb 19 2025 16:51:14 GMT-0600 (Central Standard Time),168207.8999999999,012_o_f_n_a.png,I,m,810,14,2,1828.1999999997206,166379.7000000002,8011,VNB,C,13
14,test,2,0.0,1-Back,1,z,Wed Feb 19 2025 16:51:14 GMT-0600 (Central Standard Time),169740.5,022_y_f_n_a.png,I,z,513,15,2,1527.7000000001863,168212.7999999998,8011,VNB,C,14
15,test,2,1.0,1-Back,1,m,Wed Feb 19 2025 16:51:14 GMT-0600 (Central Standard Time),171340.3999999999,014_m_m_h_a.png,I,m,572,16,2,1595.3999999999069,169745.0,8011,VNB,C,15
16,test,2,0.0,1-Back,1,m,Wed Feb 19 2025 16:51:14 GMT-0600 (Central Standard Time),173040.8999999999,012_o_f_d_a.png,I,m,601,17,2,1695.8999999999069,171345.0,8011,VNB,C,16
17,test,2,1.0,1-Back,1,z,Wed Feb 19 2025 16:51:14 GMT-0600 (Central Standard Time),174622.6000000001,015_o_m_d_a.png,I,z,554,18,2,1578.1000000000931,173044.5,8011,VNB,C,17
0,test,3,1.0,1-Back,,,Wed Feb 19 2025 16:51:14 GMT-0600 (Central Standard Time),174622.6000000001,012_o_f_h_a.png,I,space,947,1,2,1578.1000000000931,173044.5,8011,VNB,C,0
1,test,3,0.0,1-Back,1,m,Wed Feb 19 2025 16:51:14 GMT-0600 (Central Standard Time),179387.3999999999,019_m_f_d_a.png,I,m,664,2,2,1677.6000000000931,177709.7999999998,8011,VNB,C,1
2,test,3,1.0,1-Back,1,m,Wed Feb 19 2025 16:51:14 GMT-0600 (Central Standard Time),181386.7999999998,014_m_m_n_a.png,I,m,981,3,2,1995.0999999996275,179391.7000000002,8011,VNB,C,2
3,test,3,0.0,1-Back,1,z,Wed Feb 19 2025 16:51:14 GMT-0600 (Central Standard Time),183236.3999999999,012_o_f_n_a.png,I,z,829,4,2,1845.1999999997206,181391.2000000002,8011,VNB,C,3
4,test,3,1.0,1-Back,1,m,Wed Feb 19 2025 16:51:14 GMT-0600 (Central Standard Time),184852.8999999999,015_o_m_d_a.png,I,m,590,5,2,1612.1999999997206,183240.7000000002,8011,VNB,C,4
5,test,3,0.0,1-Back,1,m,Wed Feb 19 2025 16:51:14 GMT-0600 (Central Standard Time),186718.7000000002,022_y_f_h_a.png,I,m,837,6,2,1861.8000000002794,184856.8999999999,8011,VNB,C,5
6,test,3,0.0,1-Back,1,z,Wed Feb 19 2025 16:51:14 GMT-0600 (Central Standard Time),188235.0,025_y_m_h_a.png,I,z,483,7,2,1511.5,186723.5,8011,VNB,C,6
7,test,3,0.0,1-Back,1,m,Wed Feb 19 2025 16:51:14 GMT-0600 (Central Standard Time),189934.3999999999,019_m_f_n_a.png,I,m,671,8,2,1694.6999999997206,188239.7000000002,8011,VNB,C,7
8,test,3,0.0,1-Back,1,m,Wed Feb 19 2025 16:51:14 GMT-0600 (Central Standard Time),191633.8999999999,022_y_f_d_a.png,I,m,675,9,2,1694.7999999998137,189939.1000000001,8011,VNB,C,8
9,test,3,1.0,1-Back,1,m,Wed Feb 19 2025 16:51:14 GMT-0600 (Central Standard Time),193350.0,015_o_m_n_a.png,I,m,687,10,2,1711.8999999999069,191638.1000000001,8011,VNB,C,9
10,test,3,0.0,1-Back,1,m,Wed Feb 19 2025 16:51:14 GMT-0600 (Central Standard Time),195032.6000000001,014_m_m_h_a.png,I,m,652,11,2,1677.8999999999069,193354.7000000002,8011,VNB,C,10
11,test,3,0.0,1-Back,1,z,Wed Feb 19 2025 16:51:14 GMT-0600 (Central Standard Time),196565.7000000002,019_m_f_h_a.png,I,z,513,12,2,1528.7000000001863,195037.0,8011,VNB,C,11
12,test,3,1.0,1-Back,1,m,Wed Feb 19 2025 16:51:14 GMT-0600 (Central Standard Time),198131.7999999998,012_o_f_d_a.png,I,m,549,13,2,1561.6999999997206,196570.1000000001,8011,VNB,C,12
13,test,3,0.0,1-Back,1,z,Wed Feb 19 2025 16:51:14 GMT-0600 (Central Standard Time),199948.0,014_m_m_d_a.png,I,z,790,14,2,1811.7999999998137,198136.2000000002,8011,VNB,C,13
14,test,3,0.0,1-Back,1,m,Wed Feb 19 2025 16:51:14 GMT-0600 (Central Standard Time),201614.0,025_y_m_n_a.png,I,m,637,15,2,1661.7999999998137,199952.2000000002,8011,VNB,C,14
14,test,3,1.0,1-Back,0,m,Wed Feb 19 2025 16:51:14 GMT-0600 (Central Standard Time),203296.8999999999,015_o_m_h_a.png,I,z,659,16,2,1678.6000000000931,201618.2999999998,8011,VNB,C,15
15,test,3,0.0,1-Back,1,m,Wed Feb 19 2025 16:51:14 GMT-0600 (Central Standard Time),204996.2999999998,025_y_m_d_a.png,I,m,681,17,2,1695.0999999996275,203301.2000000002,8011,VNB,C,16
16,test,3,1.0,1-Back,1,m,Wed Feb 19 2025 16:51:14 GMT-0600 (Central Standard Time),206812.5,022_y_f_n_a.png,I,m,789,18,2,1813.1000000000931,204999.3999999999,8011,VNB,C,17
0,test,4,1.0,1-Back,,,Wed Feb 19 2025 16:51:14 GMT-0600 (Central Standard Time),206812.5,014_m_m_d_a.png,I,space,805,1,2,1813.1000000000931,204999.3999999999,8011,VNB,C,0
1,test,4,0.0,1-Back,1,z,Wed Feb 19 2025 16:51:14 GMT-0600 (Central Standard Time),211694.2999999998,015_o_m_d_a.png,I,z,1020,2,2,2044.5999999996275,209649.7000000002,8011,VNB,C,1
2,test,4,0.0,1-Back,1,m,Wed Feb 19 2025 16:51:14 GMT-0600 (Central Standard Time),213160.5,025_y_m_h_a.png,I,m,435,3,2,1462.7999999998137,211697.7000000002,8011,VNB,C,2
3,test,4,0.0,1-Back,1,m,Wed Feb 19 2025 16:51:14 GMT-0600 (Central Standard Time),214793.2000000002,019_m_f_n_a.png,I,m,608,4,2,1628.7000000001863,213164.5,8011,VNB,C,3
4,test,4,1.0,1-Back,1,m,Wed Feb 19 2025 16:51:14 GMT-0600 (Central Standard Time),216476.3999999999,012_o_f_h_a.png,I,m,656,5,2,1678.8999999999069,214797.5,8011,VNB,C,4
5,test,4,0.0,1-Back,1,m,Wed Feb 19 2025 16:51:14 GMT-0600 (Central Standard Time),218008.7000000002,014_m_m_n_a.png,I,m,509,6,2,1528.4000000003725,216480.2999999998,8011,VNB,C,5
6,test,4,0.0,1-Back,1,m,Wed Feb 19 2025 16:51:14 GMT-0600 (Central Standard Time),219674.7000000002,025_y_m_d_a.png,I,m,648,7,2,1661.7000000001863,218013.0,8011,VNB,C,6
6,test,4,1.0,1-Back,0,z,Wed Feb 19 2025 16:51:14 GMT-0600 (Central Standard Time),221374.7000000002,022_y_f_d_a.png,I,m,679,8,2,1697.0,219677.7000000002,8011,VNB,C,7
7,test,4,0.0,1-Back,1,m,Wed Feb 19 2025 16:51:14 GMT-0600 (Central Standard Time),223124.1000000001,019_m_f_h_a.png,I,m,722,9,2,1744.8999999999069,221379.2000000002,8011,VNB,C,8
8,test,4,0.0,1-Back,1,z,Wed Feb 19 2025 16:51:14 GMT-0600 (Central Standard Time),224740.2999999998,015_o_m_h_a.png,I,z,589,10,2,1611.5999999996275,223128.7000000002,8011,VNB,C,9
9,test,4,1.0,1-Back,1,m,Wed Feb 19 2025 16:51:14 GMT-0600 (Central Standard Time),226322.7999999998,012_o_f_n_a.png,I,m,565,11,2,1576.0,224746.7999999998,8011,VNB,C,10
10,test,4,0.0,1-Back,1,m,Wed Feb 19 2025 16:51:14 GMT-0600 (Central Standard Time),228055.5,019_m_f_d_a.png,I,m,710,12,2,1728.3999999999069,226327.1000000001,8011,VNB,C,11
11,test,4,0.0,1-Back,1,m,Wed Feb 19 2025 16:51:14 GMT-0600 (Central Standard Time),229739.8999999999,022_y_f_n_a.png,I,m,657,13,2,1680.8999999999069,228059.0,8011,VNB,C,12
12,test,4,0.0,1-Back,1,m,Wed Feb 19 2025 16:51:14 GMT-0600 (Central Standard Time),231504.6000000001,012_o_f_d_a.png,I,m,734,14,2,1760.7000000001863,229743.8999999999,8011,VNB,C,13
13,test,4,0.0,1-Back,1,m,Wed Feb 19 2025 16:51:14 GMT-0600 (Central Standard Time),233220.7999999998,022_y_f_h_a.png,I,m,697,15,2,1712.5999999996275,231508.2000000002,8011,VNB,C,14
14,test,4,1.0,1-Back,1,z,Wed Feb 19 2025 16:51:14 GMT-0600 (Central Standard Time),234837.1000000001,014_m_m_h_a.png,I,z,588,16,2,1612.7000000001863,233224.3999999999,8011,VNB,C,15
15,test,4,0.0,1-Back,1,m,Wed Feb 19 2025 16:51:14 GMT-0600 (Central Standard Time),236486.6000000001,015_o_m_n_a.png,I,m,620,17,2,1645.5,234841.1000000001,8011,VNB,C,16
16,test,4,1.0,1-Back,1,z,Wed Feb 19 2025 16:51:14 GMT-0600 (Central Standard Time),238136.1000000001,025_y_m_n_a.png,I,z,619,18,2,1645.0,236491.1000000001,8011,VNB,C,17
0,test,5,1.0,1-Back,,,Wed Feb 19 2025 16:51:14 GMT-0600 (Central Standard Time),238136.1000000001,015_o_m_n_a.png,I,space,722,1,2,1645.0,236491.1000000001,8011,VNB,C,0
1,test,5,1.0,1-Back,1,m,Wed Feb 19 2025 16:51:14 GMT-0600 (Central Standard Time),242684.6000000001,012_o_f_h_a.png,I,m,780,2,2,1795.2000000001863,240889.3999999999,8011,VNB,C,1
2,test,5,0.0,1-Back,1,m,Wed Feb 19 2025 16:51:14 GMT-0600 (Central Standard Time),244800.3999999999,025_y_m_d_a.png,I,m,1093,3,2,2111.399999999907,242689.0,8011,VNB,C,2
3,test,5,0.0,1-Back,1,z,Wed Feb 19 2025 16:51:14 GMT-0600 (Central Standard Time),246450.1000000001,015_o_m_d_a.png,I,z,624,4,2,1646.1000000000931,244804.0,8011,VNB,C,3
4,test,5,0.0,1-Back,1,m,Wed Feb 19 2025 16:51:14 GMT-0600 (Central Standard Time),248049.5,019_m_f_h_a.png,I,m,567,5,2,1595.2999999998137,246454.2000000002,8011,VNB,C,4
5,test,5,0.0,1-Back,1,m,Wed Feb 19 2025 16:51:14 GMT-0600 (Central Standard Time),249799.1000000001,022_y_f_n_a.png,I,m,720,6,2,1745.5,248053.6000000001,8011,VNB,C,5
6,test,5,1.0,1-Back,1,z,Wed Feb 19 2025 16:51:14 GMT-0600 (Central Standard Time),251648.5,012_o_f_n_a.png,I,z,818,7,2,1846.2999999998137,249802.2000000002,8011,VNB,C,6
7,test,5,0.0,1-Back,1,m,Wed Feb 19 2025 16:51:14 GMT-0600 (Central Standard Time),253348.0,019_m_f_d_a.png,I,m,673,8,2,1695.2000000001863,251652.7999999998,8011,VNB,C,7
8,test,5,0.0,1-Back,1,m,Wed Feb 19 2025 16:51:14 GMT-0600 (Central Standard Time),255230.6000000001,025_y_m_h_a.png,I,m,853,9,2,1878.6000000000931,253352.0,8011,VNB,C,8
9,test,5,0.0,1-Back,1,m,Wed Feb 19 2025 16:51:14 GMT-0600 (Central Standard Time),256946.8999999999,022_y_f_d_a.png,I,m,691,10,2,1711.8999999999069,255235.0,8011,VNB,C,9
10,test,5,0.0,1-Back,1,m,Wed Feb 19 2025 16:51:14 GMT-0600 (Central Standard Time),258729.6000000001,014_m_m_n_a.png,I,m,759,11,2,1778.8000000002794,256950.7999999998,8011,VNB,C,10
11,test,5,1.0,1-Back,1,z,Wed Feb 19 2025 16:51:14 GMT-0600 (Central Standard Time),260279.1000000001,019_m_f_n_a.png,I,z,520,12,2,1543.8999999999069,258735.2000000002,8011,VNB,C,11
12,test,5,0.0,1-Back,1,m,Wed Feb 19 2025 16:51:14 GMT-0600 (Central Standard Time),261828.6000000001,015_o_m_h_a.png,I,m,523,13,2,1545.3999999999069,260283.2000000002,8011,VNB,C,12
13,test,5,0.0,1-Back,1,z,Wed Feb 19 2025 16:51:14 GMT-0600 (Central Standard Time),263428.1000000001,014_m_m_h_a.png,I,z,580,14,2,1595.6000000000931,261832.5,8011,VNB,C,13
14,test,5,1.0,1-Back,1,m,Wed Feb 19 2025 16:51:14 GMT-0600 (Central Standard Time),265027.6000000001,012_o_f_d_a.png,I,m,573,15,2,1595.3000000002794,263432.2999999998,8011,VNB,C,14
15,test,5,0.0,1-Back,1,m,Wed Feb 19 2025 16:51:14 GMT-0600 (Central Standard Time),266632.2999999998,025_y_m_n_a.png,I,m,587,16,2,1600.6999999997206,265031.6000000001,8011,VNB,C,15
16,test,5,0.0,1-Back,1,m,Wed Feb 19 2025 16:51:14 GMT-0600 (Central Standard Time),268709.7000000002,022_y_f_h_a.png,I,m,1062,17,2,2073.2000000001863,266636.5,8011,VNB,C,16
17,test,5,0.0,1-Back,1,m,Wed Feb 19 2025 16:51:14 GMT-0600 (Central Standard Time),270292.6000000001,014_m_m_d_a.png,I,m,564,18,2,1579.5,268713.1000000001,8011,VNB,C,17
0,prac,1,0.0,2-Back,,,Wed Feb 19 2025 16:51:14 GMT-0600 (Central Standard Time),270292.6000000001,019_m_f_n_a.png,I,space,1140,1,2,1579.5,268713.1000000001,8011,VNB,C,0
0,prac,1,0.0,2-Back,,,Wed Feb 19 2025 16:51:14 GMT-0600 (Central Standard Time),270292.6000000001,012_o_f_h_a.png,I,space,1140,2,2,1579.5,268713.1000000001,8011,VNB,C,0
1,prac,1,0.0,2-Back,1,m,Wed Feb 19 2025 16:51:14 GMT-0600 (Central Standard Time),335089.3999999999,015_o_m_d_a.png,I,m,794,3,2,1691.8999999999069,333397.5,8011,VNB,C,1
2,prac,1,1.0,2-Back,1,z,Wed Feb 19 2025 16:51:14 GMT-0600 (Central Standard Time),337404.8999999999,014_m_m_h_a.png,I,z,1430,4,2,2310.2999999998137,335094.6000000001,8011,VNB,C,2
3,prac,1,0.0,2-Back,1,m,Wed Feb 19 2025 16:51:14 GMT-0600 (Central Standard Time),339554.5,022_y_f_n_a.png,I,m,1252,5,2,2142.7000000001863,337411.7999999998,8011,VNB,C,3
4,prac,1,1.0,2-Back,1,z,Wed Feb 19 2025 16:51:14 GMT-0600 (Central Standard Time),341237.2999999998,015_o_m_h_a.png,I,z,896,6,2,1676.2999999998137,339561.0,8011,VNB,C,4
5,prac,1,1.0,2-Back,1,z,Wed Feb 19 2025 16:51:14 GMT-0600 (Central Standard Time),342919.8999999999,025_y_m_n_a.png,I,z,806,7,2,1675.6999999997206,341244.2000000002,8011,VNB,C,5
6,prac,1,0.0,2-Back,1,m,Wed Feb 19 2025 16:51:14 GMT-0600 (Central Standard Time),345269.3999999999,019_m_f_d_a.png,I,m,1443,8,2,2342.7999999998137,342926.6000000001,8011,VNB,C,6
7,prac,1,0.0,2-Back,1,m,Wed Feb 19 2025 16:51:14 GMT-0600 (Central Standard Time),348101.6000000001,012_o_f_d_a.png,I,m,1928,9,2,2825.399999999907,345276.2000000002,8011,VNB,C,7
8,prac,1,0.0,2-Back,1,m,Wed Feb 19 2025 16:51:14 GMT-0600 (Central Standard Time),349884.7999999998,014_m_m_h_a.png,I,m,893,10,2,1776.5999999996275,348108.2000000002,8011,VNB,C,8
9,prac,1,1.0,2-Back,1,z,Wed Feb 19 2025 16:51:14 GMT-0600 (Central Standard Time),351650.5,022_y_f_d_a.png,I,z,859,11,2,1758.7000000001863,349891.7999999998,8011,VNB,C,9
10,prac,1,0.0,2-Back,1,m,Wed Feb 19 2025 16:51:14 GMT-0600 (Central Standard Time),353733.1000000001,015_o_m_n_a.png,I,m,1180,12,2,2077.100000000093,351656.0,8011,VNB,C,10
0,test,1,0.0,2-Back,,,Wed Feb 19 2025 16:51:14 GMT-0600 (Central Standard Time),353733.1000000001,025_y_m_h_a.png,I,space,584,1,2,2077.100000000093,351656.0,8011,VNB,C,0
0,test,1,0.0,2-Back,,,Wed Feb 19 2025 16:51:14 GMT-0600 (Central Standard Time),353733.1000000001,012_o_f_n_a.png,I,space,584,2,2,2077.100000000093,351656.0,8011,VNB,C,0
1,test,1,0.0,2-Back,1,z,Wed Feb 19 2025 16:51:14 GMT-0600 (Central Standard Time),364579.6000000001,015_o_m_h_a.png,I,z,799,3,2,1812.0,362767.6000000001,8011,VNB,C,1
2,test,1,0.0,2-Back,1,m,Wed Feb 19 2025 16:51:14 GMT-0600 (Central Standard Time),367312.5,019_m_f_d_a.png,I,m,1711,4,2,2728.7000000001863,364583.7999999998,8011,VNB,C,2
3,test,1,1.0,2-Back,1,m,Wed Feb 19 2025 16:51:14 GMT-0600 (Central Standard Time),370295.7999999998,025_y_m_n_a.png,I,m,1959,5,2,2979.1999999997206,367316.6000000001,8011,VNB,C,3
3,test,1,0.0,2-Back,0,z,Wed Feb 19 2025 16:51:14 GMT-0600 (Central Standard Time),372744.0,022_y_f_d_a.png,I,m,1427,6,2,2443.7000000001863,370300.2999999998,8011,VNB,C,4
4,test,1,0.0,2-Back,1,m,Wed Feb 19 2025 16:51:14 GMT-0600 (Central Standard Time),374676.7000000002,014_m_m_h_a.png,I,m,905,7,2,1928.5,372748.2000000002,8011,VNB,C,5
5,test,1,1.0,2-Back,1,m,Wed Feb 19 2025 16:51:14 GMT-0600 (Central Standard Time),376559.1000000001,022_y_f_n_a.png,I,m,860,8,2,1878.7000000001863,374680.3999999999,8011,VNB,C,6
6,test,1,0.0,2-Back,1,z,Wed Feb 19 2025 16:51:14 GMT-0600 (Central Standard Time),378159.0,012_o_f_h_a.png,I,z,571,9,2,1596.6000000000931,376562.3999999999,8011,VNB,C,7
7,test,1,0.0,2-Back,1,m,Wed Feb 19 2025 16:51:14 GMT-0600 (Central Standard Time),379975.1000000001,015_o_m_d_a.png,I,m,794,10,2,1812.3000000002794,378162.7999999998,8011,VNB,C,8
8,test,1,1.0,2-Back,1,m,Wed Feb 19 2025 16:51:14 GMT-0600 (Central Standard Time),382057.7000000002,014_m_m_d_a.png,I,m,1050,11,2,2078.7000000001863,379979.0,8011,VNB,C,9
9,test,1,0.0,2-Back,1,m,Wed Feb 19 2025 16:51:14 GMT-0600 (Central Standard Time),383907.2000000002,019_m_f_n_a.png,I,m,825,12,2,1845.6000000000931,382061.6000000001,8011,VNB,C,10
10,test,1,0.0,2-Back,1,m,Wed Feb 19 2025 16:51:14 GMT-0600 (Central Standard Time),385890.1000000001,022_y_f_h_a.png,I,m,950,13,2,1979.2000000001863,383910.8999999999,8011,VNB,C,11
11,test,1,0.0,2-Back,1,z,Wed Feb 19 2025 16:51:14 GMT-0600 (Central Standard Time),387672.5,014_m_m_n_a.png,I,z,759,14,2,1778.3999999999069,385894.1000000001,8011,VNB,C,12
12,test,1,0.0,2-Back,1,m,Wed Feb 19 2025 16:51:14 GMT-0600 (Central Standard Time),389538.8999999999,025_y_m_d_a.png,I,m,842,15,2,1862.2999999998137,387676.6000000001,8011,VNB,C,13
13,test,1,1.0,2-Back,1,m,Wed Feb 19 2025 16:51:14 GMT-0600 (Central Standard Time),391554.8999999999,019_m_f_h_a.png,I,m,983,16,2,2011.7999999998137,389543.1000000001,8011,VNB,C,14
14,test,1,0.0,2-Back,1,z,Wed Feb 19 2025 16:51:14 GMT-0600 (Central Standard Time),393420.7999999998,012_o_f_d_a.png,I,z,847,17,2,1861.3999999999069,391559.3999999999,8011,VNB,C,15
15,test,1,0.0,2-Back,1,m,Wed Feb 19 2025 16:51:14 GMT-0600 (Central Standard Time),395386.7999999998,015_o_m_n_a.png,I,m,940,18,2,1962.8999999999069,393423.8999999999,8011,VNB,C,16
0,test,2,0.0,2-Back,,,Wed Feb 19 2025 16:51:14 GMT-0600 (Central Standard Time),395386.7999999998,014_m_m_h_a.png,I,space,920,1,2,1962.8999999999069,393423.8999999999,8011,VNB,C,0
0,test,2,0.0,2-Back,,,Wed Feb 19 2025 16:51:14 GMT-0600 (Central Standard Time),395386.7999999998,022_y_f_n_a.png,I,space,920,2,2,1962.8999999999069,393423.8999999999,8011,VNB,C,0
1,test,2,1.0,2-Back,1,z,Wed Feb 19 2025 16:51:14 GMT-0600 (Central Standard Time),403317.7000000002,012_o_f_h_a.png,I,z,713,3,2,1728.5,401589.2000000002,8011,VNB,C,1
2,test,2,0.0,2-Back,1,m,Wed Feb 19 2025 16:51:14 GMT-0600 (Central Standard Time),405333.6000000001,015_o_m_d_a.png,I,m,988,4,2,2012.3000000002794,403321.2999999998,8011,VNB,C,2
3,test,2,0.0,2-Back,1,m,Wed Feb 19 2025 16:51:14 GMT-0600 (Central Standard Time),407466.5,019_m_f_d_a.png,I,m,1100,5,2,2129.100000000093,405337.3999999999,8011,VNB,C,3
3,test,2,0.0,2-Back,0,m,Wed Feb 19 2025 16:51:14 GMT-0600 (Central Standard Time),409615.7000000002,025_y_m_h_a.png,I,z,1127,6,2,2145.4000000003725,407470.2999999998,8011,VNB,C,4
4,test,2,0.0,2-Back,1,m,Wed Feb 19 2025 16:51:14 GMT-0600 (Central Standard Time),411498.7000000002,012_o_f_n_a.png,I,m,858,7,2,1879.1000000000931,409619.6000000001,8011,VNB,C,5
5,test,2,1.0,2-Back,1,z,Wed Feb 19 2025 16:51:14 GMT-0600 (Central Standard Time),413414.8999999999,015_o_m_h_a.png,I,z,887,8,2,1912.1999999997206,411502.7000000002,8011,VNB,C,6
6,test,2,0.0,2-Back,1,m,Wed Feb 19 2025 16:51:14 GMT-0600 (Central Standard Time),415347.3999999999,022_y_f_d_a.png,I,m,907,9,2,1928.3999999999069,413419.0,8011,VNB,C,7
7,test,2,0.0,2-Back,1,m,Wed Feb 19 2025 16:51:14 GMT-0600 (Central Standard Time),417246.8999999999,025_y_m_d_a.png,I,m,871,10,2,1895.2999999998137,415351.6000000001,8011,VNB,C,8
8,test,2,0.0,2-Back,1,m,Wed Feb 19 2025 16:51:14 GMT-0600 (Central Standard Time),419146.5,014_m_m_n_a.png,I,m,866,11,2,1896.1000000000931,417250.3999999999,8011,VNB,C,9
9,test,2,0.0,2-Back,1,m,Wed Feb 19 2025 16:51:14 GMT-0600 (Central Standard Time),420978.8999999999,019_m_f_h_a.png,I,m,816,12,2,1828.6000000000931,419150.2999999998,8011,VNB,C,10
10,test,2,1.0,2-Back,1,z,Wed Feb 19 2025 16:51:14 GMT-0600 (Central Standard Time),422545.0,015_o_m_n_a.png,I,z,534,13,2,1562.0,420983.0,8011,VNB,C,11
11,test,2,0.0,2-Back,1,m,Wed Feb 19 2025 16:51:14 GMT-0600 (Central Standard Time),424377.7000000002,012_o_f_d_a.png,I,m,800,14,2,1828.2000000001863,422549.5,8011,VNB,C,12
11,test,2,0.0,2-Back,0,m,Wed Feb 19 2025 16:51:14 GMT-0600 (Central Standard Time),427410.5,022_y_f_h_a.png,I,None,2015,15,2,3028.899999999907,424381.6000000001,8011,VNB,C,13
11,test,2,0.0,2-Back,0,z,Wed Feb 19 2025 16:51:14 GMT-0600 (Central Standard Time),429626.2000000002,014_m_m_d_a.png,I,m,1191,16,2,2211.8000000002794,427414.3999999999,8011,VNB,C,14
12,test,2,0.0,2-Back,1,m,Wed Feb 19 2025 16:51:14 GMT-0600 (Central Standard Time),431758.7000000002,025_y_m_n_a.png,I,m,1103,17,2,2128.5,429630.2000000002,8011,VNB,C,15
13,test,2,1.0,2-Back,1,m,Wed Feb 19 2025 16:51:14 GMT-0600 (Central Standard Time),433658.5,019_m_f_n_a.png,I,m,875,18,2,1896.1000000000931,431762.3999999999,8011,VNB,C,16
0,test,3,1.0,2-Back,,,Wed Feb 19 2025 16:51:14 GMT-0600 (Central Standard Time),433658.5,015_o_m_n_a.png,I,space,832,1,2,1896.1000000000931,431762.3999999999,8011,VNB,C,0
0,test,3,1.0,2-Back,,,Wed Feb 19 2025 16:51:14 GMT-0600 (Central Standard Time),433658.5,012_o_f_d_a.png,I,space,832,2,2,1896.1000000000931,431762.3999999999,8011,VNB,C,0
1,test,3,0.0,2-Back,1,m,Wed Feb 19 2025 16:51:14 GMT-0600 (Central Standard Time),441756.0,022_y_f_h_a.png,I,m,974,3,2,1995.7999999998137,439760.2000000002,8011,VNB,C,1
2,test,3,0.0,2-Back,1,z,Wed Feb 19 2025 16:51:14 GMT-0600 (Central Standard Time),443538.3999999999,019_m_f_d_a.png,I,z,749,4,2,1778.7999999998137,441759.6000000001,8011,VNB,C,2
3,test,3,1.0,2-Back,1,m,Wed Feb 19 2025 16:51:14 GMT-0600 (Central Standard Time),445354.7999999998,025_y_m_n_a.png,I,m,800,5,2,1812.1999999997206,443542.6000000001,8011,VNB,C,3
4,test,3,0.0,2-Back,1,m,Wed Feb 19 2025 16:51:14 GMT-0600 (Central Standard Time),447304.0,015_o_m_h_a.png,I,m,928,6,2,1945.3999999999069,445358.6000000001,8011,VNB,C,4
5,test,3,0.0,2-Back,1,z,Wed Feb 19 2025 16:51:14 GMT-0600 (Central Standard Time),449137.0,022_y_f_n_a.png,I,z,809,7,2,1829.0,447308.0,8011,VNB,C,5
6,test,3,1.0,2-Back,1,m,Wed Feb 19 2025 16:51:14 GMT-0600 (Central Standard Time),450919.6000000001,014_m_m_d_a.png,I,m,754,8,2,1778.3999999999069,449141.2000000002,8011,VNB,C,6
7,test,3,0.0,2-Back,1,m,Wed Feb 19 2025 16:51:14 GMT-0600 (Central Standard Time),452768.8999999999,025_y_m_d_a.png,I,m,819,9,2,1845.2999999998137,450923.6000000001,8011,VNB,C,7
8,test,3,0.0,2-Back,1,m,Wed Feb 19 2025 16:51:14 GMT-0600 (Central Standard Time),454834.6000000001,012_o_f_h_a.png,I,m,1048,10,2,2061.399999999907,452773.2000000002,8011,VNB,C,8
9,test,3,1.0,2-Back,1,m,Wed Feb 19 2025 16:51:14 GMT-0600 (Central Standard Time),456851.0,019_m_f_n_a.png,I,m,991,11,2,2012.3999999999069,454838.6000000001,8011,VNB,C,9
10,test,3,1.0,2-Back,1,z,Wed Feb 19 2025 16:51:14 GMT-0600 (Central Standard Time),458533.7999999998,014_m_m_h_a.png,I,z,654,12,2,1679.2999999998137,456854.5,8011,VNB,C,10
11,test,3,0.0,2-Back,1,m,Wed Feb 19 2025 16:51:14 GMT-0600 (Central Standard Time),460449.7999999998,022_y_f_d_a.png,I,m,883,13,2,1912.0999999996275,458537.7000000002,8011,VNB,C,11
12,test,3,0.0,2-Back,1,m,Wed Feb 19 2025 16:51:14 GMT-0600 (Central Standard Time),462799.2000000002,012_o_f_n_a.png,I,m,1320,14,2,2345.7000000001863,460453.5,8011,VNB,C,12
13,test,3,0.0,2-Back,1,z,Wed Feb 19 2025 16:51:14 GMT-0600 (Central Standard Time),464915.2999999998,015_o_m_d_a.png,I,z,1083,15,2,2111.6999999997206,462803.6000000001,8011,VNB,C,13
13,test,3,1.0,2-Back,0,m,Wed Feb 19 2025 16:51:14 GMT-0600 (Central Standard Time),467814.3999999999,019_m_f_h_a.png,I,z,1871,16,2,2895.899999999907,464918.5,8011,VNB,C,14
14,test,3,0.0,2-Back,1,m,Wed Feb 19 2025 16:51:14 GMT-0600 (Central Standard Time),469613.7000000002,014_m_m_n_a.png,I,m,780,17,2,1795.0,467818.7000000002,8011,VNB,C,15
15,test,3,0.0,2-Back,1,z,Wed Feb 19 2025 16:51:14 GMT-0600 (Central Standard Time),471229.7000000002,025_y_m_h_a.png,I,z,589,18,2,1611.9000000003725,469617.7999999998,8011,VNB,C,16
0,test,4,0.0,2-Back,,,Wed Feb 19 2025 16:51:14 GMT-0600 (Central Standard Time),471229.7000000002,019_m_f_n_a.png,I,space,773,1,2,1611.9000000003725,469617.7999999998,8011,VNB,C,0
0,test,4,0.0,2-Back,,,Wed Feb 19 2025 16:51:14 GMT-0600 (Central Standard Time),471229.7000000002,015_o_m_n_a.png,I,space,773,2,2,1611.9000000003725,469617.7999999998,8011,VNB,C,0
0,test,4,1.0,2-Back,0,m,Wed Feb 19 2025 16:51:14 GMT-0600 (Central Standard Time),478977.5,025_y_m_h_a.png,I,z,569,3,2,1677.7000000001863,477299.7999999998,8011,VNB,C,1
1,test,4,1.0,2-Back,1,m,Wed Feb 19 2025 16:51:14 GMT-0600 (Central Standard Time),480877.0,012_o_f_d_a.png,I,m,881,4,2,1895.2999999998137,478981.7000000002,8011,VNB,C,2
2,test,4,0.0,2-Back,1,z,Wed Feb 19 2025 16:51:14 GMT-0600 (Central Standard Time),482626.2999999998,015_o_m_h_a.png,I,z,716,5,2,1745.2999999998137,480881.0,8011,VNB,C,3
3,test,4,0.0,2-Back,1,m,Wed Feb 19 2025 16:51:14 GMT-0600 (Central Standard Time),484459.3999999999,014_m_m_n_a.png,I,m,808,6,2,1829.5,482629.8999999999,8011,VNB,C,4
3,test,4,0.0,2-Back,0,m,Wed Feb 19 2025 16:51:14 GMT-0600 (Central Standard Time),487491.5,019_m_f_d_a.png,I,None,2015,7,2,3028.2999999998137,484463.2000000002,8011,VNB,C,5
3,test,4,0.0,2-Back,0,z,Wed Feb 19 2025 16:51:14 GMT-0600 (Central Standard Time),489607.5,022_y_f_n_a.png,I,m,1087,8,2,2112.2000000001863,487495.2999999998,8011,VNB,C,6
4,test,4,1.0,2-Back,1,m,Wed Feb 19 2025 16:51:14 GMT-0600 (Central Standard Time),491423.7000000002,012_o_f_h_a.png,I,m,786,9,2,1812.0,489611.7000000002,8011,VNB,C,7
5,test,4,0.0,2-Back,1,m,Wed Feb 19 2025 16:51:14 GMT-0600 (Central Standard Time),493373.2000000002,014_m_m_h_a.png,I,m,923,10,2,1946.2000000001863,491427.0,8011,VNB,C,8
6,test,4,0.0,2-Back,1,m,Wed Feb 19 2025 16:51:14 GMT-0600 (Central Standard Time),495255.6000000001,022_y_f_d_a.png,I,m,860,11,2,1879.2000000001863,493376.3999999999,8011,VNB,C,9
7,test,4,0.0,2-Back,1,m,Wed Feb 19 2025 16:51:14 GMT-0600 (Central Standard Time),497088.3999999999,025_y_m_n_a.png,I,m,803,12,2,1828.3999999999069,495260.0,8011,VNB,C,10
8,test,4,0.0,2-Back,1,z,Wed Feb 19 2025 16:51:14 GMT-0600 (Central Standard Time),498955.0,015_o_m_d_a.png,I,z,834,13,2,1862.8999999999069,497092.1000000001,8011,VNB,C,11
9,test,4,1.0,2-Back,1,m,Wed Feb 19 2025 16:51:14 GMT-0600 (Central Standard Time),500820.6000000001,019_m_f_h_a.png,I,m,840,14,2,1861.7000000001863,498958.8999999999,8011,VNB,C,12
10,test,4,1.0,2-Back,1,m,Wed Feb 19 2025 16:51:14 GMT-0600 (Central Standard Time),503336.5,022_y_f_h_a.png,I,m,1414,15,2,2511.7000000001863,500824.7999999998,8011,VNB,C,13
11,test,4,0.0,2-Back,1,m,Wed Feb 19 2025 16:51:14 GMT-0600 (Central Standard Time),505319.2999999998,012_o_f_n_a.png,I,m,961,16,2,1979.0999999996275,503340.2000000002,8011,VNB,C,14
12,test,4,0.0,2-Back,1,m,Wed Feb 19 2025 16:51:14 GMT-0600 (Central Standard Time),507286.6000000001,025_y_m_d_a.png,I,m,939,17,2,1963.5,505323.1000000001,8011,VNB,C,15
13,test,4,1.0,2-Back,1,m,Wed Feb 19 2025 16:51:14 GMT-0600 (Central Standard Time),509534.6000000001,014_m_m_d_a.png,I,m,1229,18,2,2244.100000000093,507290.5,8011,VNB,C,16
0,test,5,1.0,2-Back,,,Wed Feb 19 2025 16:51:14 GMT-0600 (Central Standard Time),509534.6000000001,022_y_f_d_a.png,I,space,764,1,2,2244.100000000093,507290.5,8011,VNB,C,0
0,test,5,1.0,2-Back,,,Wed Feb 19 2025 16:51:14 GMT-0600 (Central Standard Time),509534.6000000001,012_o_f_h_a.png,I,space,764,2,2,2244.100000000093,507290.5,8011,VNB,C,0
1,test,5,1.0,2-Back,1,z,Wed Feb 19 2025 16:51:14 GMT-0600 (Central Standard Time),517398.7999999998,015_o_m_d_a.png,I,z,812,3,2,1828.7999999998137,515570.0,8011,VNB,C,1
1,test,5,1.0,2-Back,0,m,Wed Feb 19 2025 16:51:14 GMT-0600 (Central Standard Time),519898.0,019_m_f_n_a.png,I,z,1475,4,2,2495.5,517402.5,8011,VNB,C,2
2,test,5,0.0,2-Back,1,m,Wed Feb 19 2025 16:51:14 GMT-0600 (Central Standard Time),522114.0,014_m_m_h_a.png,I,m,1183,5,2,2212.399999999907,519901.6000000001,8011,VNB,C,3
3,test,5,0.0,2-Back,1,z,Wed Feb 19 2025 16:51:14 GMT-0600 (Central Standard Time),524581.0,022_y_f_n_a.png,I,z,1448,6,2,2463.2000000001863,522117.7999999998,8011,VNB,C,4
4,test,5,0.0,2-Back,1,m,Wed Feb 19 2025 16:51:14 GMT-0600 (Central Standard Time),526612.6000000001,012_o_f_d_a.png,I,m,982,7,2,2027.2000000001863,524585.3999999999,8011,VNB,C,5
5,test,5,0.0,2-Back,1,m,Wed Feb 19 2025 16:51:14 GMT-0600 (Central Standard Time),528695.5,015_o_m_h_a.png,I,m,1054,8,2,2079.0,526616.5,8011,VNB,C,6
6,test,5,1.0,2-Back,1,z,Wed Feb 19 2025 16:51:14 GMT-0600 (Central Standard Time),530511.5,019_m_f_d_a.png,I,z,787,9,2,1811.8999999999069,528699.6000000001,8011,VNB,C,7
7,test,5,0.0,2-Back,1,m,Wed Feb 19 2025 16:51:14 GMT-0600 (Central Standard Time),532327.5,025_y_m_n_a.png,I,m,787,10,2,1811.3999999999069,530516.1000000001,8011,VNB,C,8
8,test,5,0.0,2-Back,1,m,Wed Feb 19 2025 16:51:14 GMT-0600 (Central Standard Time),534260.1000000001,014_m_m_n_a.png,I,m,907,11,2,1928.8000000002794,532331.2999999998,8011,VNB,C,9
9,test,5,0.0,2-Back,1,m,Wed Feb 19 2025 16:51:14 GMT-0600 (Central Standard Time),536326.2000000002,022_y_f_h_a.png,I,m,1038,12,2,2062.2000000001863,534264.0,8011,VNB,C,10
10,test,5,0.0,2-Back,1,m,Wed Feb 19 2025 16:51:14 GMT-0600 (Central Standard Time),538358.7000000002,025_y_m_d_a.png,I,m,1011,13,2,2028.6000000000931,536330.1000000001,8011,VNB,C,11
11,test,5,1.0,2-Back,1,z,Wed Feb 19 2025 16:51:14 GMT-0600 (Central Standard Time),540275.0,019_m_f_h_a.png,I,z,883,14,2,1912.7000000001863,538362.2999999998,8011,VNB,C,12
12,test,5,0.0,2-Back,1,m,Wed Feb 19 2025 16:51:14 GMT-0600 (Central Standard Time),542141.0,015_o_m_n_a.png,I,m,839,15,2,1861.6000000000931,540279.3999999999,8011,VNB,C,13
13,test,5,0.0,2-Back,1,m,Wed Feb 19 2025 16:51:14 GMT-0600 (Central Standard Time),544107.1000000001,014_m_m_d_a.png,I,m,949,16,2,1962.1000000000931,542145.0,8011,VNB,C,14
14,test,5,0.0,2-Back,1,z,Wed Feb 19 2025 16:51:14 GMT-0600 (Central Standard Time),546539.3999999999,012_o_f_n_a.png,I,z,1415,17,2,2428.2999999998137,544111.1000000001,8011,VNB,C,15
15,test,5,1.0,2-Back,1,m,Wed Feb 19 2025 16:51:14 GMT-0600 (Central Standard Time),548439.0,025_y_m_h_a.png,I,m,878,18,2,1896.0,546543.0,8011,VNB,C,16
