acc_sum,block,block_c,change,condition,correct,correct_response,datetime,endtime,face,project,response,response_time,row_sel,session_number,start_end,starttime,subject_id,task,task_vers,trial
0,prac,1,,1-Back,,,Fri Dec 06 2024 16:24:53 GMT-0600 (Central Standard Time),,005_o_f_d_a.png,I,space,4870,1,1,,,8011,VNB,B,0
1,prac,1,0.0,1-Back,1,m,Fri Dec 06 2024 16:24:53 GMT-0600 (Central Standard Time),123547.5,020_y_f_n_a.png,I,m,935,2,1,1809.7999999970198,121737.70000000298,8011,VNB,B,1
2,prac,1,0.0,1-Back,1,m,Fri Dec 06 2024 16:24:53 GMT-0600 (Central Standard Time),125346.89999999851,007_m_m_h_a.png,I,m,915,3,1,1795.5,123551.39999999851,8011,VNB,B,2
3,prac,1,0.0,1-Back,1,m,Fri Dec 06 2024 16:24:53 GMT-0600 (Central Standard Time),126946.5,016_y_m_d_a.png,I,m,701,4,1,1594.2000000029802,125352.29999999702,8011,VNB,B,3
4,prac,1,0.0,1-Back,1,m,Fri Dec 06 2024 16:24:53 GMT-0600 (Central Standard Time),128579.39999999851,005_o_f_n_a.png,I,m,754,5,1,1629.3999999985099,126950.0,8011,VNB,B,4
5,prac,1,1.0,1-Back,1,z,Fri Dec 06 2024 16:24:53 GMT-0600 (Central Standard Time),130278.89999999851,016_y_m_n_a.png,I,z,802,6,1,1696.1000000014901,128582.79999999702,8011,VNB,B,5
6,prac,1,0.0,1-Back,1,m,Fri Dec 06 2024 16:24:53 GMT-0600 (Central Standard Time),132061.3999999985,004_o_m_h_a.png,I,m,920,7,1,1778.6999999955297,130282.70000000298,8011,VNB,B,6
7,prac,1,0.0,1-Back,1,m,Fri Dec 06 2024 16:24:53 GMT-0600 (Central Standard Time),133677.8999999985,011_m_f_d_a.png,I,m,728,8,1,1612.6999999955297,132065.20000000298,8011,VNB,B,7
7,prac,1,1.0,1-Back,0,z,Fri Dec 06 2024 16:24:53 GMT-0600 (Central Standard Time),136026.8999999985,020_y_f_d_a.png,I,m,1465,9,1,2343.2999999970198,133683.6000000015,8011,VNB,B,8
8,prac,1,0.0,1-Back,1,m,Fri Dec 06 2024 16:24:53 GMT-0600 (Central Standard Time),138410.70000000298,007_m_m_n_a.png,I,m,1509,10,1,2380.2000000029802,136030.5,8011,VNB,B,9
9,prac,1,0.0,1-Back,1,m,Fri Dec 06 2024 16:24:53 GMT-0600 (Central Standard Time),140209.0,005_o_f_h_a.png,I,m,915,11,1,1794.7000000029802,138414.29999999702,8011,VNB,B,10
10,prac,1,0.0,1-Back,1,m,Fri Dec 06 2024 16:24:53 GMT-0600 (Central Standard Time),141825.20000000298,016_y_m_d_a.png,I,m,732,12,1,1612.7000000029802,140212.5,8011,VNB,B,11
0,test,1,0.0,1-Back,,,Fri Dec 06 2024 16:24:53 GMT-0600 (Central Standard Time),141825.20000000298,020_y_f_d_a.png,I,space,11187,1,1,1612.7000000029802,140212.5,8011,VNB,B,0
1,test,1,0.0,1-Back,1,m,Fri Dec 06 2024 16:24:53 GMT-0600 (Central Standard Time),160386.1000000015,011_m_f_n_a.png,I,m,641,2,1,1663.3999999985099,158722.70000000298,8011,VNB,B,1
2,test,1,0.0,1-Back,1,m,Fri Dec 06 2024 16:24:53 GMT-0600 (Central Standard Time),162185.29999999702,004_o_m_h_a.png,I,m,766,3,1,1796.5,160388.79999999702,8011,VNB,B,2
3,test,1,1.0,1-Back,1,z,Fri Dec 06 2024 16:24:53 GMT-0600 (Central Standard Time),163751.6000000015,007_m_m_h_a.png,I,z,544,4,1,1563.8999999985099,162187.70000000298,8011,VNB,B,3
4,test,1,0.0,1-Back,1,m,Fri Dec 06 2024 16:24:53 GMT-0600 (Central Standard Time),165484.29999999702,005_o_f_n_a.png,I,m,704,5,1,1730.1999999955297,163754.1000000015,8011,VNB,B,4
5,test,1,0.0,1-Back,1,m,Fri Dec 06 2024 16:24:53 GMT-0600 (Central Standard Time),167333.79999999702,016_y_m_d_a.png,I,m,828,6,1,1847.0999999940395,165486.70000000298,8011,VNB,B,5
5,test,1,1.0,1-Back,0,z,Fri Dec 06 2024 16:24:53 GMT-0600 (Central Standard Time),169866.3999999985,011_m_f_d_a.png,I,m,1514,7,1,2530.1999999955297,167336.20000000298,8011,VNB,B,6
5,test,1,0.0,1-Back,0,m,Fri Dec 06 2024 16:24:53 GMT-0600 (Central Standard Time),171532.5,020_y_f_h_a.png,I,z,647,8,1,1663.0,169869.5,8011,VNB,B,7
6,test,1,0.0,1-Back,1,m,Fri Dec 06 2024 16:24:53 GMT-0600 (Central Standard Time),173198.6000000015,004_o_m_n_a.png,I,m,644,9,1,1663.2000000029802,171535.3999999985,8011,VNB,B,8
7,test,1,0.0,1-Back,1,m,Fri Dec 06 2024 16:24:53 GMT-0600 (Central Standard Time),175031.3999999985,016_y_m_h_a.png,I,m,809,10,1,1830.2999999970198,173201.1000000015,8011,VNB,B,9
8,test,1,0.0,1-Back,1,m,Fri Dec 06 2024 16:24:53 GMT-0600 (Central Standard Time),176981.1000000015,004_o_m_d_a.png,I,m,922,11,1,1947.3000000044703,175033.79999999702,8011,VNB,B,10
9,test,1,1.0,1-Back,1,z,Fri Dec 06 2024 16:24:53 GMT-0600 (Central Standard Time),179047.0,005_o_f_d_a.png,I,z,1044,12,1,2063.60000000149,176983.3999999985,8011,VNB,B,11
10,test,1,0.0,1-Back,1,m,Fri Dec 06 2024 16:24:53 GMT-0600 (Central Standard Time),181046.1000000015,007_m_m_n_a.png,I,m,978,13,1,1996.8999999985099,179049.20000000298,8011,VNB,B,12
11,test,1,1.0,1-Back,1,z,Fri Dec 06 2024 16:24:53 GMT-0600 (Central Standard Time),182712.29999999702,020_y_f_n_a.png,I,z,643,14,1,1663.8999999985099,181048.3999999985,8011,VNB,B,13
12,test,1,0.0,1-Back,1,m,Fri Dec 06 2024 16:24:53 GMT-0600 (Central Standard Time),184711.6000000015,011_m_f_h_a.png,I,m,966,15,1,1996.8000000044703,182714.79999999702,8011,VNB,B,14
13,test,1,0.0,1-Back,1,m,Fri Dec 06 2024 16:24:53 GMT-0600 (Central Standard Time),186544.3999999985,007_m_m_d_a.png,I,m,801,16,1,1830.1999999955297,184714.20000000298,8011,VNB,B,15
14,test,1,0.0,1-Back,1,m,Fri Dec 06 2024 16:24:53 GMT-0600 (Central Standard Time),188527.20000000298,016_y_m_n_a.png,I,m,952,17,1,1980.3000000044703,186546.8999999985,8011,VNB,B,16
15,test,1,0.0,1-Back,1,m,Fri Dec 06 2024 16:24:53 GMT-0600 (Central Standard Time),190409.70000000298,005_o_f_h_a.png,I,m,858,18,1,1880.1000000014901,188529.6000000015,8011,VNB,B,17
0,test,2,0.0,1-Back,,,Fri Dec 06 2024 16:24:53 GMT-0600 (Central Standard Time),190409.70000000298,016_y_m_n_a.png,I,space,1360,1,1,1880.1000000014901,188529.6000000015,8011,VNB,B,0
1,test,2,0.0,1-Back,1,m,Fri Dec 06 2024 16:24:53 GMT-0600 (Central Standard Time),195791.5,020_y_f_h_a.png,I,m,868,2,1,1896.8999999985099,193894.6000000015,8011,VNB,B,1
2,test,2,1.0,1-Back,1,m,Fri Dec 06 2024 16:24:53 GMT-0600 (Central Standard Time),197674.20000000298,004_o_m_n_a.png,I,m,848,3,1,1880.4000000059605,195793.79999999702,8011,VNB,B,2
3,test,2,0.0,1-Back,1,m,Fri Dec 06 2024 16:24:53 GMT-0600 (Central Standard Time),200007.1000000015,011_m_f_d_a.png,I,m,1303,4,1,2330.3000000044703,197676.79999999702,8011,VNB,B,3
4,test,2,0.0,1-Back,1,z,Fri Dec 06 2024 16:24:53 GMT-0600 (Central Standard Time),201956.29999999702,007_m_m_d_a.png,I,z,922,5,1,1946.5999999940395,200009.70000000298,8011,VNB,B,4
5,test,2,0.0,1-Back,1,m,Fri Dec 06 2024 16:24:53 GMT-0600 (Central Standard Time),203622.79999999702,016_y_m_h_a.png,I,m,628,6,1,1664.1999999955297,201958.6000000015,8011,VNB,B,5
6,test,2,1.0,1-Back,1,z,Fri Dec 06 2024 16:24:53 GMT-0600 (Central Standard Time),205505.1000000015,005_o_f_h_a.png,I,z,850,7,1,1880.1000000014901,203625.0,8011,VNB,B,6
7,test,2,0.0,1-Back,1,m,Fri Dec 06 2024 16:24:53 GMT-0600 (Central Standard Time),207354.8999999985,011_m_f_n_a.png,I,m,815,8,1,1847.2999999970198,205507.6000000015,8011,VNB,B,7
8,test,2,0.0,1-Back,1,m,Fri Dec 06 2024 16:24:53 GMT-0600 (Central Standard Time),209303.79999999702,020_y_f_d_a.png,I,m,926,9,1,1946.5999999940395,207357.20000000298,8011,VNB,B,8
9,test,2,0.0,1-Back,1,m,Fri Dec 06 2024 16:24:53 GMT-0600 (Central Standard Time),211136.70000000298,007_m_m_n_a.png,I,m,808,10,1,1830.5,209306.20000000298,8011,VNB,B,9
10,test,2,1.0,1-Back,1,m,Fri Dec 06 2024 16:24:53 GMT-0600 (Central Standard Time),212869.70000000298,011_m_f_h_a.png,I,m,712,11,1,1730.6000000014901,211139.1000000015,8011,VNB,B,10
11,test,2,0.0,1-Back,1,z,Fri Dec 06 2024 16:24:53 GMT-0600 (Central Standard Time),214519.0,004_o_m_h_a.png,I,z,620,12,1,1646.8999999985099,212872.1000000015,8011,VNB,B,11
12,test,2,0.0,1-Back,1,m,Fri Dec 06 2024 16:24:53 GMT-0600 (Central Standard Time),216118.5,016_y_m_d_a.png,I,m,570,13,1,1597.2000000029802,214521.29999999702,8011,VNB,B,12
13,test,2,0.0,1-Back,1,m,Fri Dec 06 2024 16:24:53 GMT-0600 (Central Standard Time),217951.20000000298,005_o_f_n_a.png,I,m,809,14,1,1830.1000000014901,216121.1000000015,8011,VNB,B,13
14,test,2,0.0,1-Back,1,z,Fri Dec 06 2024 16:24:53 GMT-0600 (Central Standard Time),219800.6000000015,020_y_f_n_a.png,I,z,817,15,1,1846.8000000044703,217953.79999999702,8011,VNB,B,14
15,test,2,1.0,1-Back,1,m,Fri Dec 06 2024 16:24:53 GMT-0600 (Central Standard Time),221467.0,007_m_m_h_a.png,I,m,632,16,1,1663.7999999970198,219803.20000000298,8011,VNB,B,15
16,test,2,0.0,1-Back,1,m,Fri Dec 06 2024 16:24:53 GMT-0600 (Central Standard Time),223249.8999999985,005_o_f_d_a.png,I,m,750,17,1,1780.6000000014901,221469.29999999702,8011,VNB,B,16
17,test,2,1.0,1-Back,1,z,Fri Dec 06 2024 16:24:53 GMT-0600 (Central Standard Time),225299.0,004_o_m_d_a.png,I,z,1031,18,1,2046.6000000014901,223252.3999999985,8011,VNB,B,17
0,test,3,1.0,1-Back,,,Fri Dec 06 2024 16:24:53 GMT-0600 (Central Standard Time),225299.0,005_o_f_h_a.png,I,space,1318,1,1,2046.6000000014901,223252.3999999985,8011,VNB,B,0
1,test,3,0.0,1-Back,1,m,Fri Dec 06 2024 16:24:53 GMT-0600 (Central Standard Time),230430.6000000015,011_m_f_d_a.png,I,m,653,2,1,1680.1000000014901,228750.5,8011,VNB,B,1
2,test,3,1.0,1-Back,1,m,Fri Dec 06 2024 16:24:53 GMT-0600 (Central Standard Time),232263.5,007_m_m_n_a.png,I,m,810,3,1,1830.2999999970198,230433.20000000298,8011,VNB,B,2
3,test,3,0.0,1-Back,1,z,Fri Dec 06 2024 16:24:53 GMT-0600 (Central Standard Time),233846.3999999985,005_o_f_n_a.png,I,z,562,4,1,1580.2999999970198,232266.1000000015,8011,VNB,B,3
4,test,3,1.0,1-Back,1,m,Fri Dec 06 2024 16:24:53 GMT-0600 (Central Standard Time),235479.29999999702,004_o_m_d_a.png,I,m,611,5,1,1630.3999999985099,233848.8999999985,8011,VNB,B,4
5,test,3,0.0,1-Back,1,m,Fri Dec 06 2024 16:24:53 GMT-0600 (Central Standard Time),237495.0,020_y_f_h_a.png,I,m,994,6,1,2013.2999999970198,235481.70000000298,8011,VNB,B,5
6,test,3,0.0,1-Back,1,z,Fri Dec 06 2024 16:24:53 GMT-0600 (Central Standard Time),239169.8999999985,016_y_m_h_a.png,I,z,618,7,1,1672.5,237497.3999999985,8011,VNB,B,6
7,test,3,0.0,1-Back,1,m,Fri Dec 06 2024 16:24:53 GMT-0600 (Central Standard Time),240777.6000000015,011_m_f_n_a.png,I,m,583,8,1,1604.8999999985099,239172.70000000298,8011,VNB,B,7
8,test,3,0.0,1-Back,1,m,Fri Dec 06 2024 16:24:53 GMT-0600 (Central Standard Time),242426.8999999985,020_y_f_d_a.png,I,m,632,9,1,1646.8999999985099,240780.0,8011,VNB,B,8
9,test,3,1.0,1-Back,1,m,Fri Dec 06 2024 16:24:53 GMT-0600 (Central Standard Time),244143.1000000015,004_o_m_n_a.png,I,m,686,10,1,1714.2000000029802,242428.8999999985,8011,VNB,B,9
10,test,3,0.0,1-Back,1,m,Fri Dec 06 2024 16:24:53 GMT-0600 (Central Standard Time),245792.70000000298,007_m_m_h_a.png,I,m,626,11,1,1646.5,244146.20000000298,8011,VNB,B,10
11,test,3,0.0,1-Back,1,z,Fri Dec 06 2024 16:24:53 GMT-0600 (Central Standard Time),247425.29999999702,011_m_f_h_a.png,I,z,599,12,1,1630.1999999955297,245795.1000000015,8011,VNB,B,11
12,test,3,1.0,1-Back,1,m,Fri Dec 06 2024 16:24:53 GMT-0600 (Central Standard Time),249258.0,005_o_f_d_a.png,I,m,807,13,1,1830.2000000029802,247427.79999999702,8011,VNB,B,12
13,test,3,0.0,1-Back,1,z,Fri Dec 06 2024 16:24:53 GMT-0600 (Central Standard Time),251207.5,007_m_m_d_a.png,I,z,927,14,1,1947.2000000029802,249260.29999999702,8011,VNB,B,13
14,test,3,0.0,1-Back,1,m,Fri Dec 06 2024 16:24:53 GMT-0600 (Central Standard Time),252758.20000000298,016_y_m_n_a.png,I,m,530,15,1,1548.0,251210.20000000298,8011,VNB,B,14
15,test,3,1.0,1-Back,1,m,Fri Dec 06 2024 16:24:53 GMT-0600 (Central Standard Time),254556.29999999702,004_o_m_h_a.png,I,m,772,16,1,1795.5999999940395,252760.70000000298,8011,VNB,B,15
16,test,3,0.0,1-Back,1,m,Fri Dec 06 2024 16:24:53 GMT-0600 (Central Standard Time),256239.29999999702,016_y_m_d_a.png,I,m,652,17,1,1680.2999999970198,254559.0,8011,VNB,B,16
17,test,3,1.0,1-Back,1,m,Fri Dec 06 2024 16:24:53 GMT-0600 (Central Standard Time),257972.0,020_y_f_n_a.png,I,m,705,18,1,1730.3999999985099,256241.6000000015,8011,VNB,B,17
0,test,4,1.0,1-Back,,,Fri Dec 06 2024 16:24:53 GMT-0600 (Central Standard Time),257972.0,007_m_m_d_a.png,I,space,982,1,1,1730.3999999985099,256241.6000000015,8011,VNB,B,0
0,test,4,0.0,1-Back,0,z,Fri Dec 06 2024 16:24:53 GMT-0600 (Central Standard Time),262970.700000003,004_o_m_d_a.png,I,m,981,2,1,1997.1000000014901,260973.6000000015,8011,VNB,B,1
1,test,4,0.0,1-Back,1,m,Fri Dec 06 2024 16:24:53 GMT-0600 (Central Standard Time),264636.6000000015,016_y_m_h_a.png,I,m,647,3,1,1663.8000000044703,262972.799999997,8011,VNB,B,2
2,test,4,0.0,1-Back,1,m,Fri Dec 06 2024 16:24:53 GMT-0600 (Central Standard Time),266736.1000000015,011_m_f_n_a.png,I,m,1067,4,1,2097.10000000149,264639.0,8011,VNB,B,3
3,test,4,1.0,1-Back,1,m,Fri Dec 06 2024 16:24:53 GMT-0600 (Central Standard Time),268535.5,005_o_f_h_a.png,I,m,768,5,1,1796.7999999970198,266738.700000003,8011,VNB,B,4
4,test,4,0.0,1-Back,1,m,Fri Dec 06 2024 16:24:53 GMT-0600 (Central Standard Time),270234.8999999985,007_m_m_n_a.png,I,m,665,6,1,1697.1999999955297,268537.700000003,8011,VNB,B,5
5,test,4,0.0,1-Back,1,m,Fri Dec 06 2024 16:24:53 GMT-0600 (Central Standard Time),271917.6000000015,016_y_m_d_a.png,I,m,653,7,1,1680.3000000044703,270237.299999997,8011,VNB,B,6
6,test,4,1.0,1-Back,1,z,Fri Dec 06 2024 16:24:53 GMT-0600 (Central Standard Time),273650.200000003,020_y_f_d_a.png,I,z,698,8,1,1730.2000000029802,271920.0,8011,VNB,B,7
7,test,4,0.0,1-Back,1,m,Fri Dec 06 2024 16:24:53 GMT-0600 (Central Standard Time),275200.0,011_m_f_h_a.png,I,m,526,9,1,1547.2000000029802,273652.799999997,8011,VNB,B,8
8,test,4,0.0,1-Back,1,z,Fri Dec 06 2024 16:24:53 GMT-0600 (Central Standard Time),276899.3999999985,004_o_m_h_a.png,I,z,673,10,1,1696.7999999970198,275202.6000000015,8011,VNB,B,9
9,test,4,1.0,1-Back,1,m,Fri Dec 06 2024 16:24:53 GMT-0600 (Central Standard Time),278482.299999997,005_o_f_n_a.png,I,m,557,11,1,1579.5,276902.799999997,8011,VNB,B,10
10,test,4,0.0,1-Back,1,m,Fri Dec 06 2024 16:24:53 GMT-0600 (Central Standard Time),280332.799999997,011_m_f_d_a.png,I,m,831,12,1,1848.0999999940395,278484.700000003,8011,VNB,B,11
11,test,4,0.0,1-Back,1,m,Fri Dec 06 2024 16:24:53 GMT-0600 (Central Standard Time),281997.700000003,020_y_f_n_a.png,I,m,645,13,1,1662.4000000059605,280335.299999997,8011,VNB,B,12
12,test,4,0.0,1-Back,1,m,Fri Dec 06 2024 16:24:53 GMT-0600 (Central Standard Time),283713.8999999985,005_o_f_d_a.png,I,m,682,14,1,1713.8999999985099,282000.0,8011,VNB,B,13
13,test,4,0.0,1-Back,1,m,Fri Dec 06 2024 16:24:53 GMT-0600 (Central Standard Time),285546.799999997,020_y_f_h_a.png,I,m,815,15,1,1830.5999999940395,283716.200000003,8011,VNB,B,14
14,test,4,1.0,1-Back,1,z,Fri Dec 06 2024 16:24:53 GMT-0600 (Central Standard Time),287146.5,007_m_m_h_a.png,I,z,565,16,1,1597.2999999970198,285549.200000003,8011,VNB,B,15
15,test,4,0.0,1-Back,1,m,Fri Dec 06 2024 16:24:53 GMT-0600 (Central Standard Time),288712.5,004_o_m_n_a.png,I,m,534,17,1,1563.3999999985099,287149.1000000015,8011,VNB,B,16
16,test,4,1.0,1-Back,1,z,Fri Dec 06 2024 16:24:53 GMT-0600 (Central Standard Time),290561.8999999985,016_y_m_n_a.png,I,z,824,18,1,1847.1000000014901,288714.799999997,8011,VNB,B,17
0,test,5,1.0,1-Back,,,Fri Dec 06 2024 16:24:53 GMT-0600 (Central Standard Time),290561.8999999985,004_o_m_n_a.png,I,space,920,1,1,1847.1000000014901,288714.799999997,8011,VNB,B,0
1,test,5,1.0,1-Back,1,m,Fri Dec 06 2024 16:24:53 GMT-0600 (Central Standard Time),295293.3999999985,005_o_f_h_a.png,I,m,754,2,1,1779.7999999970198,293513.6000000015,8011,VNB,B,1
2,test,5,0.0,1-Back,1,m,Fri Dec 06 2024 16:24:53 GMT-0600 (Central Standard Time),297141.799999997,016_y_m_d_a.png,I,m,684,3,1,1846.0,295295.799999997,8011,VNB,B,2
3,test,5,0.0,1-Back,1,z,Fri Dec 06 2024 16:24:53 GMT-0600 (Central Standard Time),298975.8999999985,004_o_m_d_a.png,I,z,802,4,1,1831.1000000014901,297144.799999997,8011,VNB,B,3
4,test,5,0.0,1-Back,1,m,Fri Dec 06 2024 16:24:53 GMT-0600 (Central Standard Time),300791.8999999985,011_m_f_h_a.png,I,m,784,5,1,1812.6000000014901,298979.299999997,8011,VNB,B,4
5,test,5,0.0,1-Back,1,m,Fri Dec 06 2024 16:24:53 GMT-0600 (Central Standard Time),303024.8999999985,020_y_f_n_a.png,I,m,1200,6,1,2230.7999999970198,300794.1000000015,8011,VNB,B,5
6,test,5,1.0,1-Back,1,z,Fri Dec 06 2024 16:24:53 GMT-0600 (Central Standard Time),304674.0,005_o_f_n_a.png,I,z,623,7,1,1646.2000000029802,303027.799999997,8011,VNB,B,6
7,test,5,0.0,1-Back,1,m,Fri Dec 06 2024 16:24:53 GMT-0600 (Central Standard Time),306307.200000003,011_m_f_d_a.png,I,m,600,8,1,1630.5,304676.700000003,8011,VNB,B,7
8,test,5,0.0,1-Back,1,m,Fri Dec 06 2024 16:24:53 GMT-0600 (Central Standard Time),308339.299999997,016_y_m_h_a.png,I,m,1014,9,1,2029.6999999955297,306309.6000000015,8011,VNB,B,8
9,test,5,0.0,1-Back,1,m,Fri Dec 06 2024 16:24:53 GMT-0600 (Central Standard Time),310006.0,020_y_f_d_a.png,I,m,637,10,1,1664.3999999985099,308341.6000000015,8011,VNB,B,9
10,test,5,0.0,1-Back,1,m,Fri Dec 06 2024 16:24:53 GMT-0600 (Central Standard Time),311721.700000003,007_m_m_n_a.png,I,m,691,11,1,1713.6000000014901,310008.1000000015,8011,VNB,B,10
11,test,5,1.0,1-Back,1,z,Fri Dec 06 2024 16:24:53 GMT-0600 (Central Standard Time),313321.3999999985,011_m_f_n_a.png,I,z,574,12,1,1596.8999999985099,311724.5,8011,VNB,B,11
12,test,5,0.0,1-Back,1,m,Fri Dec 06 2024 16:24:53 GMT-0600 (Central Standard Time),314970.799999997,004_o_m_h_a.png,I,m,623,13,1,1647.0999999940395,313323.700000003,8011,VNB,B,12
13,test,5,0.0,1-Back,1,z,Fri Dec 06 2024 16:24:53 GMT-0600 (Central Standard Time),316603.5,007_m_m_h_a.png,I,z,606,14,1,1630.3999999985099,314973.1000000015,8011,VNB,B,13
14,test,5,1.0,1-Back,1,m,Fri Dec 06 2024 16:24:53 GMT-0600 (Central Standard Time),318186.6000000015,005_o_f_d_a.png,I,m,549,15,1,1580.8999999985099,316605.700000003,8011,VNB,B,14
15,test,5,0.0,1-Back,1,m,Fri Dec 06 2024 16:24:53 GMT-0600 (Central Standard Time),320052.5,016_y_m_n_a.png,I,m,846,16,1,1863.5,318189.0,8011,VNB,B,15
16,test,5,0.0,1-Back,1,m,Fri Dec 06 2024 16:24:53 GMT-0600 (Central Standard Time),321669.0,020_y_f_h_a.png,I,m,587,17,1,1614.2000000029802,320054.799999997,8011,VNB,B,16
17,test,5,0.0,1-Back,1,m,Fri Dec 06 2024 16:24:53 GMT-0600 (Central Standard Time),323534.8999999985,007_m_m_d_a.png,I,m,842,18,1,1863.6000000014901,321671.299999997,8011,VNB,B,17
0,prac,1,0.0,2-Back,,,Fri Dec 06 2024 16:24:53 GMT-0600 (Central Standard Time),323534.8999999985,011_m_f_n_a.png,I,space,5392,1,1,1863.6000000014901,321671.299999997,8011,VNB,B,0
0,prac,1,0.0,2-Back,,,Fri Dec 06 2024 16:24:53 GMT-0600 (Central Standard Time),323534.8999999985,005_o_f_h_a.png,I,space,5392,2,1,1863.6000000014901,321671.299999997,8011,VNB,B,0
1,prac,1,0.0,2-Back,1,m,Fri Dec 06 2024 16:24:53 GMT-0600 (Central Standard Time),411424.1000000015,004_o_m_d_a.png,I,m,979,3,1,1846.1000000014901,409578.0,8011,VNB,B,1
2,prac,1,1.0,2-Back,1,z,Fri Dec 06 2024 16:24:53 GMT-0600 (Central Standard Time),413140.299999997,007_m_m_h_a.png,I,z,823,4,1,1712.6999999955297,411427.6000000015,8011,VNB,B,2
3,prac,1,0.0,2-Back,1,m,Fri Dec 06 2024 16:24:53 GMT-0600 (Central Standard Time),415139.700000003,020_y_f_n_a.png,I,m,1136,5,1,1995.6000000014901,413144.1000000015,8011,VNB,B,3
4,prac,1,1.0,2-Back,1,z,Fri Dec 06 2024 16:24:53 GMT-0600 (Central Standard Time),416939.1000000015,004_o_m_h_a.png,I,z,928,6,1,1794.3000000044703,415144.799999997,8011,VNB,B,4
5,prac,1,1.0,2-Back,1,z,Fri Dec 06 2024 16:24:53 GMT-0600 (Central Standard Time),418705.3999999985,016_y_m_n_a.png,I,z,865,7,1,1762.6999999955297,416942.700000003,8011,VNB,B,5
6,prac,1,0.0,2-Back,1,m,Fri Dec 06 2024 16:24:53 GMT-0600 (Central Standard Time),420471.200000003,011_m_f_d_a.png,I,m,876,8,1,1762.4000000059605,418708.799999997,8011,VNB,B,6
7,prac,1,0.0,2-Back,1,m,Fri Dec 06 2024 16:24:53 GMT-0600 (Central Standard Time),422720.3999999985,005_o_f_d_a.png,I,m,1365,9,1,2245.6999999955297,420474.700000003,8011,VNB,B,7
8,prac,1,0.0,2-Back,1,m,Fri Dec 06 2024 16:24:53 GMT-0600 (Central Standard Time),424337.6000000015,007_m_m_h_a.png,I,m,845,10,1,1613.7000000029802,422723.8999999985,8011,VNB,B,8
9,prac,1,1.0,2-Back,1,z,Fri Dec 06 2024 16:24:53 GMT-0600 (Central Standard Time),426052.700000003,020_y_f_d_a.png,I,z,839,11,1,1711.6000000014901,424341.1000000015,8011,VNB,B,9
10,prac,1,0.0,2-Back,1,m,Fri Dec 06 2024 16:24:53 GMT-0600 (Central Standard Time),427619.0,004_o_m_n_a.png,I,m,708,12,1,1563.1000000014901,426055.8999999985,8011,VNB,B,10
0,test,1,0.0,2-Back,,,Fri Dec 06 2024 16:24:53 GMT-0600 (Central Standard Time),427619.0,016_y_m_h_a.png,I,space,8053,1,1,1563.1000000014901,426055.8999999985,8011,VNB,B,0
0,test,1,0.0,2-Back,,,Fri Dec 06 2024 16:24:53 GMT-0600 (Central Standard Time),427619.0,005_o_f_n_a.png,I,space,8053,2,1,1563.1000000014901,426055.8999999985,8011,VNB,B,0
1,test,1,0.0,2-Back,1,z,Fri Dec 06 2024 16:24:53 GMT-0600 (Central Standard Time),449362.1000000015,004_o_m_h_a.png,I,z,732,3,1,1763.8999999985099,447598.200000003,8011,VNB,B,1
2,test,1,0.0,2-Back,1,m,Fri Dec 06 2024 16:24:53 GMT-0600 (Central Standard Time),451544.5,011_m_f_d_a.png,I,m,1159,4,1,2179.89999999851,449364.6000000015,8011,VNB,B,2
3,test,1,1.0,2-Back,1,m,Fri Dec 06 2024 16:24:53 GMT-0600 (Central Standard Time),453394.1000000015,016_y_m_n_a.png,I,m,824,5,1,1847.5,451546.6000000015,8011,VNB,B,3
4,test,1,0.0,2-Back,1,z,Fri Dec 06 2024 16:24:53 GMT-0600 (Central Standard Time),455510.299999997,020_y_f_d_a.png,I,z,1087,6,1,2113.89999999851,453396.3999999985,8011,VNB,B,4
5,test,1,0.0,2-Back,1,m,Fri Dec 06 2024 16:24:53 GMT-0600 (Central Standard Time),457726.299999997,007_m_m_h_a.png,I,m,1187,7,1,2213.2999999970198,455513.0,8011,VNB,B,5
6,test,1,1.0,2-Back,1,m,Fri Dec 06 2024 16:24:53 GMT-0600 (Central Standard Time),460642.1000000015,020_y_f_n_a.png,I,m,1890,8,1,2913.2000000029802,457728.8999999985,8011,VNB,B,6
7,test,1,0.0,2-Back,1,z,Fri Dec 06 2024 16:24:53 GMT-0600 (Central Standard Time),462474.5,005_o_f_h_a.png,I,z,714,9,1,1830.2000000029802,460644.299999997,8011,VNB,B,7
8,test,1,0.0,2-Back,1,m,Fri Dec 06 2024 16:24:53 GMT-0600 (Central Standard Time),464690.700000003,004_o_m_d_a.png,I,m,1190,10,1,2213.9000000059605,462476.799999997,8011,VNB,B,8
8,test,1,1.0,2-Back,0,m,Fri Dec 06 2024 16:24:53 GMT-0600 (Central Standard Time),467723.299999997,007_m_m_d_a.png,I,None,2014,11,1,3030.2999999970198,464693.0,8011,VNB,B,9
9,test,1,0.0,2-Back,1,m,Fri Dec 06 2024 16:24:53 GMT-0600 (Central Standard Time),469539.200000003,011_m_f_n_a.png,I,m,788,12,1,1813.7000000029802,467725.5,8011,VNB,B,10
10,test,1,0.0,2-Back,1,m,Fri Dec 06 2024 16:24:53 GMT-0600 (Central Standard Time),471405.200000003,020_y_f_h_a.png,I,m,846,13,1,1863.5,469541.700000003,8011,VNB,B,11
10,test,1,0.0,2-Back,0,z,Fri Dec 06 2024 16:24:53 GMT-0600 (Central Standard Time),473455.700000003,007_m_m_n_a.png,I,m,1019,14,1,2047.9000000059605,471407.799999997,8011,VNB,B,12
11,test,1,0.0,2-Back,1,m,Fri Dec 06 2024 16:24:53 GMT-0600 (Central Standard Time),475404.0,016_y_m_d_a.png,I,m,922,15,1,1945.6000000014901,473458.3999999985,8011,VNB,B,13
11,test,1,1.0,2-Back,0,m,Fri Dec 06 2024 16:24:53 GMT-0600 (Central Standard Time),477270.0,011_m_f_h_a.png,I,z,845,16,1,1863.7999999970198,475406.200000003,8011,VNB,B,14
11,test,1,0.0,2-Back,0,z,Fri Dec 06 2024 16:24:53 GMT-0600 (Central Standard Time),480135.8999999985,005_o_f_d_a.png,I,m,1843,17,1,2863.60000000149,477272.299999997,8011,VNB,B,15
12,test,1,0.0,2-Back,1,m,Fri Dec 06 2024 16:24:53 GMT-0600 (Central Standard Time),481935.3999999985,004_o_m_n_a.png,I,m,769,18,1,1797.3999999985099,480138.0,8011,VNB,B,16
0,test,2,0.0,2-Back,,,Fri Dec 06 2024 16:24:53 GMT-0600 (Central Standard Time),481935.3999999985,007_m_m_h_a.png,I,space,1010,1,1,1797.3999999985099,480138.0,8011,VNB,B,0
0,test,2,0.0,2-Back,,,Fri Dec 06 2024 16:24:53 GMT-0600 (Central Standard Time),481935.3999999985,020_y_f_n_a.png,I,space,1010,2,1,1797.3999999985099,480138.0,8011,VNB,B,0
1,test,2,1.0,2-Back,1,z,Fri Dec 06 2024 16:24:53 GMT-0600 (Central Standard Time),489866.200000003,005_o_f_h_a.png,I,z,650,3,1,1680.5,488185.700000003,8011,VNB,B,1
2,test,2,0.0,2-Back,1,m,Fri Dec 06 2024 16:24:53 GMT-0600 (Central Standard Time),491848.799999997,004_o_m_d_a.png,I,m,951,4,1,1980.1999999955297,489868.6000000015,8011,VNB,B,2
3,test,2,0.0,2-Back,1,m,Fri Dec 06 2024 16:24:53 GMT-0600 (Central Standard Time),493731.799999997,011_m_f_d_a.png,I,m,856,5,1,1880.5,491851.299999997,8011,VNB,B,3
4,test,2,0.0,2-Back,1,m,Fri Dec 06 2024 16:24:53 GMT-0600 (Central Standard Time),495680.8999999985,016_y_m_h_a.png,I,m,924,6,1,1946.7999999970198,493734.1000000015,8011,VNB,B,4
5,test,2,0.0,2-Back,1,m,Fri Dec 06 2024 16:24:53 GMT-0600 (Central Standard Time),497580.5,005_o_f_n_a.png,I,m,872,7,1,1897.2000000029802,495683.299999997,8011,VNB,B,5
6,test,2,1.0,2-Back,1,z,Fri Dec 06 2024 16:24:53 GMT-0600 (Central Standard Time),499363.1000000015,004_o_m_h_a.png,I,z,765,8,1,1780.3000000044703,497582.799999997,8011,VNB,B,6
7,test,2,0.0,2-Back,1,m,Fri Dec 06 2024 16:24:53 GMT-0600 (Central Standard Time),501295.799999997,020_y_f_d_a.png,I,m,902,9,1,1930.6999999955297,499365.1000000015,8011,VNB,B,7
8,test,2,0.0,2-Back,1,m,Fri Dec 06 2024 16:24:53 GMT-0600 (Central Standard Time),503528.200000003,016_y_m_d_a.png,I,m,1208,10,1,2230.0,501298.200000003,8011,VNB,B,8
9,test,2,0.0,2-Back,1,m,Fri Dec 06 2024 16:24:53 GMT-0600 (Central Standard Time),506027.700000003,007_m_m_n_a.png,I,m,1472,11,1,2497.2000000029802,503530.5,8011,VNB,B,9
10,test,2,0.0,2-Back,1,m,Fri Dec 06 2024 16:24:53 GMT-0600 (Central Standard Time),508027.0,011_m_f_h_a.png,I,m,965,12,1,1996.7000000029802,506030.299999997,8011,VNB,B,10
11,test,2,1.0,2-Back,1,z,Fri Dec 06 2024 16:24:53 GMT-0600 (Central Standard Time),509859.700000003,004_o_m_n_a.png,I,z,812,13,1,1830.3000000044703,508029.3999999985,8011,VNB,B,11
12,test,2,0.0,2-Back,1,m,Fri Dec 06 2024 16:24:53 GMT-0600 (Central Standard Time),511792.3999999985,005_o_f_d_a.png,I,m,909,14,1,1930.6000000014901,509861.799999997,8011,VNB,B,12
12,test,2,0.0,2-Back,0,m,Fri Dec 06 2024 16:24:53 GMT-0600 (Central Standard Time),514141.700000003,020_y_f_h_a.png,I,z,1321,15,1,2347.0,511794.700000003,8011,VNB,B,13
13,test,2,0.0,2-Back,1,z,Fri Dec 06 2024 16:24:53 GMT-0600 (Central Standard Time),516291.200000003,007_m_m_d_a.png,I,z,1115,16,1,2147.2000000029802,514144.0,8011,VNB,B,14
14,test,2,0.0,2-Back,1,m,Fri Dec 06 2024 16:24:53 GMT-0600 (Central Standard Time),518323.799999997,016_y_m_n_a.png,I,m,1006,17,1,2030.5,516293.299999997,8011,VNB,B,15
15,test,2,1.0,2-Back,1,m,Fri Dec 06 2024 16:24:53 GMT-0600 (Central Standard Time),520773.1000000015,011_m_f_n_a.png,I,m,1421,18,1,2447.0,518326.1000000015,8011,VNB,B,16
0,test,3,1.0,2-Back,,,Fri Dec 06 2024 16:24:53 GMT-0600 (Central Standard Time),520773.1000000015,004_o_m_n_a.png,I,space,821,1,1,2447.0,518326.1000000015,8011,VNB,B,0
0,test,3,1.0,2-Back,,,Fri Dec 06 2024 16:24:53 GMT-0600 (Central Standard Time),520773.1000000015,005_o_f_d_a.png,I,space,821,2,1,2447.0,518326.1000000015,8011,VNB,B,0
1,test,3,0.0,2-Back,1,m,Fri Dec 06 2024 16:24:53 GMT-0600 (Central Standard Time),528588.5,020_y_f_h_a.png,I,m,914,3,1,1931.7999999970198,526656.700000003,8011,VNB,B,1
1,test,3,0.0,2-Back,0,z,Fri Dec 06 2024 16:24:53 GMT-0600 (Central Standard Time),531619.6000000015,011_m_f_d_a.png,I,None,2015,4,1,3028.7000000029802,528590.8999999985,8011,VNB,B,2
2,test,3,1.0,2-Back,1,m,Fri Dec 06 2024 16:24:53 GMT-0600 (Central Standard Time),533885.5,016_y_m_n_a.png,I,m,1237,5,1,2263.60000000149,531621.8999999985,8011,VNB,B,3
3,test,3,0.0,2-Back,1,m,Fri Dec 06 2024 16:24:53 GMT-0600 (Central Standard Time),536051.3999999985,004_o_m_h_a.png,I,m,1147,6,1,2163.5,533887.8999999985,8011,VNB,B,4
4,test,3,0.0,2-Back,1,z,Fri Dec 06 2024 16:24:53 GMT-0600 (Central Standard Time),537667.5,020_y_f_n_a.png,I,z,597,7,1,1613.8999999985099,536053.6000000015,8011,VNB,B,5
5,test,3,1.0,2-Back,1,m,Fri Dec 06 2024 16:24:53 GMT-0600 (Central Standard Time),539433.799999997,007_m_m_d_a.png,I,m,732,8,1,1764.0,537669.799999997,8011,VNB,B,6
6,test,3,0.0,2-Back,1,m,Fri Dec 06 2024 16:24:53 GMT-0600 (Central Standard Time),541533.200000003,016_y_m_d_a.png,I,m,1079,9,1,2096.9000000059605,539436.299999997,8011,VNB,B,7
6,test,3,0.0,2-Back,0,m,Fri Dec 06 2024 16:24:53 GMT-0600 (Central Standard Time),543365.8999999985,005_o_f_h_a.png,I,z,804,10,1,1830.3999999985099,541535.5,8011,VNB,B,8
7,test,3,1.0,2-Back,1,m,Fri Dec 06 2024 16:24:53 GMT-0600 (Central Standard Time),545115.6000000015,011_m_f_n_a.png,I,m,722,11,1,1747.5,543368.1000000015,8011,VNB,B,9
8,test,3,1.0,2-Back,1,z,Fri Dec 06 2024 16:24:53 GMT-0600 (Central Standard Time),547164.700000003,007_m_m_h_a.png,I,z,1022,12,1,2047.0,545117.700000003,8011,VNB,B,10
9,test,3,0.0,2-Back,1,m,Fri Dec 06 2024 16:24:53 GMT-0600 (Central Standard Time),549047.6000000015,020_y_f_d_a.png,I,m,852,13,1,1880.6000000014901,547167.0,8011,VNB,B,11
10,test,3,0.0,2-Back,1,m,Fri Dec 06 2024 16:24:53 GMT-0600 (Central Standard Time),550897.0,005_o_f_n_a.png,I,m,818,14,1,1847.0,549050.0,8011,VNB,B,12
11,test,3,0.0,2-Back,1,z,Fri Dec 06 2024 16:24:53 GMT-0600 (Central Standard Time),552913.200000003,004_o_m_d_a.png,I,z,992,15,1,2013.8000000044703,550899.3999999985,8011,VNB,B,13
12,test,3,1.0,2-Back,1,m,Fri Dec 06 2024 16:24:53 GMT-0600 (Central Standard Time),554963.200000003,011_m_f_h_a.png,I,m,1032,16,1,2047.6000000014901,552915.6000000015,8011,VNB,B,14
13,test,3,0.0,2-Back,1,m,Fri Dec 06 2024 16:24:53 GMT-0600 (Central Standard Time),557811.6000000015,007_m_m_n_a.png,I,m,1777,17,1,2846.3000000044703,554965.299999997,8011,VNB,B,15
14,test,3,0.0,2-Back,1,z,Fri Dec 06 2024 16:24:53 GMT-0600 (Central Standard Time),559527.700000003,016_y_m_h_a.png,I,z,694,18,1,1713.8000000044703,557813.8999999985,8011,VNB,B,16
0,test,4,0.0,2-Back,,,Fri Dec 06 2024 16:24:53 GMT-0600 (Central Standard Time),559527.700000003,011_m_f_n_a.png,I,space,729,1,1,1713.8000000044703,557813.8999999985,8011,VNB,B,0
0,test,4,0.0,2-Back,,,Fri Dec 06 2024 16:24:53 GMT-0600 (Central Standard Time),559527.700000003,004_o_m_n_a.png,I,space,729,2,1,1713.8000000044703,557813.8999999985,8011,VNB,B,0
1,test,4,1.0,2-Back,1,m,Fri Dec 06 2024 16:24:53 GMT-0600 (Central Standard Time),567558.5,016_y_m_h_a.png,I,m,1045,3,1,2064.10000000149,565494.3999999985,8011,VNB,B,1
2,test,4,1.0,2-Back,1,m,Fri Dec 06 2024 16:24:53 GMT-0600 (Central Standard Time),570024.3999999985,005_o_f_d_a.png,I,m,1434,4,1,2463.39999999851,567561.0,8011,VNB,B,2
3,test,4,0.0,2-Back,1,z,Fri Dec 06 2024 16:24:53 GMT-0600 (Central Standard Time),572540.0,004_o_m_h_a.png,I,z,1497,5,1,2513.2000000029802,570026.799999997,8011,VNB,B,3
4,test,4,0.0,2-Back,1,m,Fri Dec 06 2024 16:24:53 GMT-0600 (Central Standard Time),575106.0,007_m_m_n_a.png,I,m,1540,6,1,2563.7000000029802,572542.299999997,8011,VNB,B,4
5,test,4,0.0,2-Back,1,m,Fri Dec 06 2024 16:24:53 GMT-0600 (Central Standard Time),577322.1000000015,011_m_f_d_a.png,I,m,1191,7,1,2213.7000000029802,575108.3999999985,8011,VNB,B,5
6,test,4,0.0,2-Back,1,z,Fri Dec 06 2024 16:24:53 GMT-0600 (Central Standard Time),579422.0,020_y_f_n_a.png,I,z,1082,8,1,2097.60000000149,577324.3999999985,8011,VNB,B,6
7,test,4,1.0,2-Back,1,m,Fri Dec 06 2024 16:24:53 GMT-0600 (Central Standard Time),581487.5,005_o_f_h_a.png,I,m,1043,9,1,2062.7999999970198,579424.700000003,8011,VNB,B,7
8,test,4,0.0,2-Back,1,m,Fri Dec 06 2024 16:24:53 GMT-0600 (Central Standard Time),584019.8999999985,007_m_m_h_a.png,I,m,1513,10,1,2530.0,581489.8999999985,8011,VNB,B,8
9,test,4,0.0,2-Back,1,m,Fri Dec 06 2024 16:24:53 GMT-0600 (Central Standard Time),585869.6000000015,020_y_f_d_a.png,I,m,829,11,1,1847.7000000029802,584021.8999999985,8011,VNB,B,9
9,test,4,0.0,2-Back,0,m,Fri Dec 06 2024 16:24:53 GMT-0600 (Central Standard Time),588518.6000000015,016_y_m_n_a.png,I,z,1619,12,1,2646.8000000044703,585871.799999997,8011,VNB,B,10
9,test,4,0.0,2-Back,0,z,Fri Dec 06 2024 16:24:53 GMT-0600 (Central Standard Time),590751.1000000015,004_o_m_d_a.png,I,m,1202,13,1,2230.2000000029802,588520.8999999985,8011,VNB,B,11
9,test,4,1.0,2-Back,0,m,Fri Dec 06 2024 16:24:53 GMT-0600 (Central Standard Time),593133.700000003,011_m_f_h_a.png,I,z,1354,14,1,2380.3000000044703,590753.3999999985,8011,VNB,B,12
10,test,4,1.0,2-Back,1,m,Fri Dec 06 2024 16:24:53 GMT-0600 (Central Standard Time),595299.5,020_y_f_h_a.png,I,m,1146,15,1,2163.60000000149,593135.8999999985,8011,VNB,B,13
11,test,4,0.0,2-Back,1,m,Fri Dec 06 2024 16:24:53 GMT-0600 (Central Standard Time),597199.1000000015,005_o_f_n_a.png,I,m,877,16,1,1897.3999999985099,595301.700000003,8011,VNB,B,14
11,test,4,0.0,2-Back,0,m,Fri Dec 06 2024 16:24:53 GMT-0600 (Central Standard Time),600231.700000003,016_y_m_d_a.png,I,None,2015,17,1,3030.3000000044703,597201.3999999985,8011,VNB,B,15
12,test,4,1.0,2-Back,1,m,Fri Dec 06 2024 16:24:53 GMT-0600 (Central Standard Time),602464.200000003,007_m_m_d_a.png,I,m,1202,18,1,2230.3000000044703,600233.8999999985,8011,VNB,B,16
0,test,5,1.0,2-Back,,,Fri Dec 06 2024 16:24:53 GMT-0600 (Central Standard Time),602464.200000003,020_y_f_d_a.png,I,space,738,1,1,2230.3000000044703,600233.8999999985,8011,VNB,B,0
0,test,5,1.0,2-Back,,,Fri Dec 06 2024 16:24:53 GMT-0600 (Central Standard Time),602464.200000003,005_o_f_h_a.png,I,space,738,2,1,2230.3000000044703,600233.8999999985,8011,VNB,B,0
1,test,5,1.0,2-Back,1,z,Fri Dec 06 2024 16:24:53 GMT-0600 (Central Standard Time),610245.0,004_o_m_d_a.png,I,z,780,3,1,1796.8999999985099,608448.1000000015,8011,VNB,B,1
2,test,5,1.0,2-Back,1,m,Fri Dec 06 2024 16:24:53 GMT-0600 (Central Standard Time),612427.6000000015,011_m_f_n_a.png,I,m,1155,4,1,2180.3000000044703,610247.299999997,8011,VNB,B,2
3,test,5,0.0,2-Back,1,m,Fri Dec 06 2024 16:24:53 GMT-0600 (Central Standard Time),614510.3999999985,007_m_m_h_a.png,I,m,1053,5,1,2080.60000000149,612429.799999997,8011,VNB,B,3
4,test,5,0.0,2-Back,1,z,Fri Dec 06 2024 16:24:53 GMT-0600 (Central Standard Time),616376.3999999985,020_y_f_n_a.png,I,z,834,6,1,1863.6000000014901,614512.799999997,8011,VNB,B,4
5,test,5,0.0,2-Back,1,m,Fri Dec 06 2024 16:24:53 GMT-0600 (Central Standard Time),618375.799999997,005_o_f_d_a.png,I,m,969,7,1,1996.8999999985099,616378.8999999985,8011,VNB,B,5
6,test,5,0.0,2-Back,1,m,Fri Dec 06 2024 16:24:53 GMT-0600 (Central Standard Time),620458.700000003,004_o_m_h_a.png,I,m,1065,8,1,2080.7000000029802,618378.0,8011,VNB,B,6
7,test,5,1.0,2-Back,1,z,Fri Dec 06 2024 16:24:53 GMT-0600 (Central Standard Time),622574.3999999985,011_m_f_d_a.png,I,z,1086,9,1,2113.39999999851,620461.0,8011,VNB,B,7
7,test,5,0.0,2-Back,0,m,Fri Dec 06 2024 16:24:53 GMT-0600 (Central Standard Time),624874.0,016_y_m_n_a.png,I,z,1275,10,1,2297.39999999851,622576.6000000015,8011,VNB,B,8
8,test,5,0.0,2-Back,1,m,Fri Dec 06 2024 16:24:53 GMT-0600 (Central Standard Time),627256.6000000015,007_m_m_n_a.png,I,m,1358,11,1,2380.3000000044703,624876.299999997,8011,VNB,B,9
9,test,5,0.0,2-Back,1,m,Fri Dec 06 2024 16:24:53 GMT-0600 (Central Standard Time),629139.1000000015,020_y_f_h_a.png,I,m,864,12,1,1880.2000000029802,627258.8999999985,8011,VNB,B,10
10,test,5,0.0,2-Back,1,m,Fri Dec 06 2024 16:24:53 GMT-0600 (Central Standard Time),631021.799999997,016_y_m_d_a.png,I,m,862,13,1,1880.5999999940395,629141.200000003,8011,VNB,B,11
11,test,5,1.0,2-Back,1,z,Fri Dec 06 2024 16:24:53 GMT-0600 (Central Standard Time),632787.8999999985,011_m_f_h_a.png,I,z,747,14,1,1764.0,631023.8999999985,8011,VNB,B,12
12,test,5,0.0,2-Back,1,m,Fri Dec 06 2024 16:24:53 GMT-0600 (Central Standard Time),634504.1000000015,004_o_m_n_a.png,I,m,685,15,1,1713.8000000044703,632790.299999997,8011,VNB,B,13
13,test,5,0.0,2-Back,1,m,Fri Dec 06 2024 16:24:53 GMT-0600 (Central Standard Time),636686.799999997,007_m_m_d_a.png,I,m,1153,16,1,2180.39999999851,634506.3999999985,8011,VNB,B,14
14,test,5,0.0,2-Back,1,z,Fri Dec 06 2024 16:24:53 GMT-0600 (Central Standard Time),638919.299999997,005_o_f_n_a.png,I,z,1202,17,1,2230.0999999940395,636689.200000003,8011,VNB,B,15
15,test,5,1.0,2-Back,1,m,Fri Dec 06 2024 16:24:53 GMT-0600 (Central Standard Time),641102.200000003,016_y_m_h_a.png,I,m,1154,18,1,2180.5,638921.700000003,8011,VNB,B,16
