acc_sum,block,block_c,condition,correct,correct_response,datetime,endtime,flanker,jitter,project,response,response_test_buffer_response,response_test_target_response,response_time,response_time_test_buffer_response,response_time_test_target_response,row_sel,session_number,start_end,starttime,subject_id,target,task,task_vers,time_test_buffer,time_test_buffer_response,time_test_constants,time_test_flanker,time_test_jitter,time_test_logger,time_test_target,time_test_target_response,time_test_variables,trial
1,prac,1,inc,1,z,Thu Feb 20 2025 17:02:52 GMT-0600 (Central Standard Time),153734.0,film,900,O,z,,,853,,,14,1,3061.400000002235,150672.59999999776,7050,hate,AF,A,,,,,,,,,,1
2,prac,1,inc,1,z,Thu Feb 20 2025 17:02:52 GMT-0600 (Central Standard Time),156849.3999999985,window,1100,O,z,,,714,,,16,1,3110.10000000149,153739.29999999702,7050,temper,AF,A,,,,,,,,,,2
3,prac,1,con,1,z,Thu Feb 20 2025 17:02:52 GMT-0600 (Central Standard Time),159648.69999999925,elated,800,O,z,,,699,,,9,1,2794.800000000745,156853.8999999985,7050,elated,AF,A,,,,,,,,,,3
4,prac,1,inc,1,z,Thu Feb 20 2025 17:02:52 GMT-0600 (Central Standard Time),162681.0,napkin,1100,O,z,,,623,,,12,1,3028.2000000029802,159652.79999999702,7050,friend,AF,A,,,,,,,,,,4
5,prac,1,con,1,m,Thu Feb 20 2025 17:02:52 GMT-0600 (Central Standard Time),165796.29999999702,remote,1000,O,m,,,804,,,7,1,3110.7999999970198,162685.5,7050,remote,AF,A,,,,,,,,,,5
6,prac,1,con,1,z,Thu Feb 20 2025 17:02:52 GMT-0600 (Central Standard Time),168762.19999999925,rage,1000,O,z,,,663,,,15,1,2960.5,165801.69999999925,7050,rage,AF,A,,,,,,,,,,6
7,prac,1,con,1,m,Thu Feb 20 2025 17:02:52 GMT-0600 (Central Standard Time),171461.3999999985,jacket,800,O,m,,,586,,,5,1,2694.89999999851,168766.5,7050,jacket,AF,A,,,,,,,,,,7
8,prac,1,inc,1,m,Thu Feb 20 2025 17:02:52 GMT-0600 (Central Standard Time),174243.8999999985,elated,900,O,m,,,578,,,6,1,2778.699999999255,171465.19999999925,7050,napkin,AF,A,,,,,,,,,,8
9,prac,1,con,1,m,Thu Feb 20 2025 17:02:52 GMT-0600 (Central Standard Time),177109.79999999702,bell,1000,O,m,,,561,,,3,1,2861.599999997765,174248.19999999925,7050,bell,AF,A,,,,,,,,,,9
10,prac,1,inc,1,z,Thu Feb 20 2025 17:02:52 GMT-0600 (Central Standard Time),179858.69999999925,rock,900,O,z,,,546,,,10,1,2744.60000000149,177114.09999999776,7050,kind,AF,A,,,,,,,,,,10
11,prac,1,con,1,z,Thu Feb 20 2025 17:02:52 GMT-0600 (Central Standard Time),182541.3999999985,brutal,800,O,z,,,570,,,13,1,2677.5,179863.8999999985,7050,brutal,AF,A,,,,,,,,,,11
12,prac,1,inc,1,m,Thu Feb 20 2025 17:02:52 GMT-0600 (Central Standard Time),185407.3999999985,kind,900,O,m,,,604,,,2,1,2861.199999999255,182546.19999999925,7050,rock,AF,A,,,,,,,,,,12
13,prac,1,con,1,m,Thu Feb 20 2025 17:02:52 GMT-0600 (Central Standard Time),188106.3999999985,step,800,O,m,,,590,,,1,1,2694.699999999255,185411.69999999925,7050,step,AF,A,,,,,,,,,,13
14,prac,1,inc,1,m,Thu Feb 20 2025 17:02:52 GMT-0600 (Central Standard Time),191105.59999999776,hate,1100,O,m,,,590,,,4,1,2994.89999999851,188110.69999999925,7050,film,AF,A,,,,,,,,,,14
15,prac,1,inc,1,m,Thu Feb 20 2025 17:02:52 GMT-0600 (Central Standard Time),194087.3999999985,brutal,1100,O,m,,,567,,,8,1,2977.699999999255,191109.69999999925,7050,window,AF,A,,,,,,,,,,15
16,prac,1,con,1,z,Thu Feb 20 2025 17:02:52 GMT-0600 (Central Standard Time),196836.79999999702,love,1000,O,z,,,436,,,11,1,2745.099999997765,194091.69999999925,7050,love,AF,A,,,,,,,,,,16
1,test,1,inc,1,z,Thu Feb 20 2025 17:02:52 GMT-0600 (Central Standard Time),214914.3999999985,jacket,800,O,z,z,None,540,341.0,199.0,37,1,1879.300000000745,213035.09999999776,7050,brutal,AF,A,205234,205234,203704,204517,203705,205583,205034,205034,205583,1
2,test,1,con,1,z,Thu Feb 20 2025 17:02:52 GMT-0600 (Central Standard Time),217030.59999999776,friend,1000,O,z,z,None,569,370.0,199.0,27,1,2111.5,214919.09999999776,7050,friend,AF,A,207317,207317,205588,206600,205589,207700,207117,207117,207700,2
3,test,1,inc,1,z,Thu Feb 20 2025 17:02:52 GMT-0600 (Central Standard Time),219113.29999999702,bell,1000,O,z,z,None,540,326.0,214.0,23,1,2078.199999999255,217035.09999999776,7050,love,AF,A,209449,209449,207704,208716,207705,209782,209235,209235,209782,3
4,test,1,inc,1,m,Thu Feb 20 2025 17:02:52 GMT-0600 (Central Standard Time),221029.19999999925,kind,900,O,m,m,None,472,272.0,200.0,78,1,1911.800000000745,219117.3999999985,7050,rock,AF,A,211415,211415,209786,210699,209787,211698,211215,211215,211698,4
5,test,1,inc,1,z,Thu Feb 20 2025 17:02:52 GMT-0600 (Central Standard Time),223195.3999999985,remote,1000,O,z,z,None,623,424.0,199.0,39,1,2162.0,221033.3999999985,7050,brutal,AF,A,213431,213431,211702,212715,211703,213865,213232,213232,213864,5
6,test,1,con,1,m,Thu Feb 20 2025 17:02:52 GMT-0600 (Central Standard Time),225028.09999999776,rock,800,O,m,m,None,488,289.0,199.0,73,1,1828.699999999255,223199.3999999985,7050,rock,AF,A,215398,215398,213868,214681,213869,215697,215198,215198,215697,6
7,test,1,con,1,m,Thu Feb 20 2025 17:02:52 GMT-0600 (Central Standard Time),227344.29999999702,jacket,1100,O,m,m,None,669,469.0,200.0,100,1,2312.199999999255,225032.09999999776,7050,jacket,AF,A,217530,217530,215701,216813,215701,218013,217330,217330,218013,7
8,test,1,inc,1,m,Thu Feb 20 2025 17:02:52 GMT-0600 (Central Standard Time),229560.0,hate,1100,O,m,m,None,577,377.0,200.0,72,1,2211.800000000745,227348.19999999925,7050,step,AF,A,219846,219846,218017,219130,218018,220229,219646,219646,220229,8
9,test,1,con,1,z,Thu Feb 20 2025 17:02:52 GMT-0600 (Central Standard Time),231542.69999999925,temper,1000,O,z,z,None,438,237.0,201.0,59,1,1978.6000000014901,229564.09999999776,7050,temper,AF,A,221962,221962,220233,221246,220234,222212,221760,221760,222212,9
10,test,1,inc,1,z,Thu Feb 20 2025 17:02:52 GMT-0600 (Central Standard Time),233842.09999999776,window,1100,O,z,z,None,657,458.0,199.0,8,1,2295.5,231546.59999999776,7050,elated,AF,A,224045,224045,222216,223328,222216,224511,223845,223845,224511,10
11,test,1,inc,1,m,Thu Feb 20 2025 17:02:52 GMT-0600 (Central Standard Time),236041.09999999776,hate,1100,O,m,m,None,559,359.0,200.0,96,1,2194.800000000745,233846.29999999702,7050,film,AF,A,226344,226344,224515,225628,224516,226710,226144,226144,226710,11
11,test,1,con,0,z,Thu Feb 20 2025 17:02:52 GMT-0600 (Central Standard Time),237974.19999999925,brutal,900,O,m,m,None,495,296.0,199.0,34,1,1928.699999999255,236045.5,7050,brutal,AF,A,228343,228343,226715,227627,226715,228643,228144,228144,228643,12
12,test,1,inc,1,z,Thu Feb 20 2025 17:02:52 GMT-0600 (Central Standard Time),240173.09999999776,film,1100,O,z,z,None,562,363.0,199.0,16,1,2194.800000000745,237978.29999999702,7050,kind,AF,A,230476,230476,228647,229760,228648,230842,230276,230277,230842,13
13,test,1,con,1,m,Thu Feb 20 2025 17:02:52 GMT-0600 (Central Standard Time),242306.5,step,800,O,m,m,None,799,600.0,199.0,65,1,2129.5,240177.0,7050,step,AF,A,232375,232375,230846,231659,230846,232976,232176,232176,232975,14
14,test,1,inc,1,z,Thu Feb 20 2025 17:02:52 GMT-0600 (Central Standard Time),244338.59999999776,napkin,900,O,z,z,None,590,391.0,199.0,38,1,2028.300000000745,242310.29999999702,7050,brutal,AF,A,234608,234608,232979,233892,232980,235008,234409,234409,235008,15
15,test,1,con,1,m,Thu Feb 20 2025 17:02:52 GMT-0600 (Central Standard Time),246321.5,rock,900,O,m,m,None,534,334.0,200.0,74,1,1978.800000000745,244342.69999999925,7050,rock,AF,A,236641,236641,235012,235925,235012,236991,236441,236441,236991,16
16,test,1,con,1,m,Thu Feb 20 2025 17:02:52 GMT-0600 (Central Standard Time),248537.5,bell,900,O,m,m,None,767,568.0,199.0,82,1,2211.800000000745,246325.69999999925,7050,bell,AF,A,238623,238623,236995,237907,236995,239207,238424,238424,239207,17
17,test,1,con,1,m,Thu Feb 20 2025 17:02:52 GMT-0600 (Central Standard Time),250403.5,window,900,O,m,m,None,446,231.0,215.0,122,1,1862.1000000014901,248541.3999999985,7050,window,AF,A,240839,240840,239210,240123,239211,241073,240624,240624,241073,18
18,test,1,inc,1,m,Thu Feb 20 2025 17:02:52 GMT-0600 (Central Standard Time),252719.29999999702,friend,1100,O,m,m,None,677,477.0,200.0,104,1,2312.0,250407.29999999702,7050,jacket,AF,A,242906,242906,241076,242189,241077,243388,242705,242705,243388,19
19,test,1,con,1,z,Thu Feb 20 2025 17:02:52 GMT-0600 (Central Standard Time),254635.19999999925,love,800,O,z,z,None,580,365.0,215.0,17,1,1911.9000000022352,252723.29999999702,7050,love,AF,A,244938,244938,243392,244205,243393,245304,244723,244723,245304,20
20,test,1,con,1,z,Thu Feb 20 2025 17:02:52 GMT-0600 (Central Standard Time),256485.0,brutal,800,O,z,z,None,513,314.0,199.0,33,1,1845.800000000745,254639.19999999925,7050,brutal,AF,A,246837,246837,245308,246121,245309,247154,246638,246638,247154,21
21,test,1,inc,1,m,Thu Feb 20 2025 17:02:52 GMT-0600 (Central Standard Time),258451.09999999776,brutal,900,O,m,m,None,524,324.0,200.0,102,1,1960.3999999985099,256490.69999999925,7050,jacket,AF,A,248787,248787,247160,248071,247160,249120,248587,248587,249120,22
22,test,1,inc,1,m,Thu Feb 20 2025 17:02:52 GMT-0600 (Central Standard Time),260450.09999999776,brutal,900,O,m,m,None,558,358.0,200.0,118,1,1994.5999999977648,258455.5,7050,remote,AF,A,250753,250753,249124,250037,249125,251119,250553,250553,251119,23
23,test,1,inc,1,m,Thu Feb 20 2025 17:02:52 GMT-0600 (Central Standard Time),262449.8999999985,kind,900,O,m,m,None,550,351.0,199.0,86,1,1995.699999999255,260454.19999999925,7050,bell,AF,A,252752,252752,251123,252036,251124,253119,252553,252553,253119,24
24,test,1,inc,1,m,Thu Feb 20 2025 17:02:52 GMT-0600 (Central Standard Time),264465.799999997,love,1000,O,m,m,None,474,275.0,199.0,87,1,2012.199999999255,262453.59999999776,7050,bell,AF,A,254852,254852,253123,254137,253123,255135,254652,254652,255135,25
25,test,1,inc,1,z,Thu Feb 20 2025 17:02:52 GMT-0600 (Central Standard Time),266348.69999999925,step,800,O,z,z,None,547,347.0,200.0,45,1,1879.0,264469.69999999925,7050,hate,AF,A,256668,256668,255139,255952,255139,257018,256468,256468,257018,26
26,test,1,con,1,z,Thu Feb 20 2025 17:02:52 GMT-0600 (Central Standard Time),268297.8999999985,hate,1000,O,z,z,None,408,209.0,199.0,43,1,1945.5,266352.3999999985,7050,hate,AF,A,258750,258750,257021,258034,257022,258967,258551,258551,258967,27
27,test,1,inc,1,m,Thu Feb 20 2025 17:02:52 GMT-0600 (Central Standard Time),270180.5,elated,800,O,m,m,None,539,339.0,200.0,117,1,1878.4000000022352,268302.09999999776,7050,remote,AF,A,260500,260500,258971,259784,258971,260850,260300,260300,260850,28
28,test,1,inc,1,m,Thu Feb 20 2025 17:02:52 GMT-0600 (Central Standard Time),272330.0,temper,1000,O,m,m,None,600,400.0,200.0,119,1,2145.7000000029802,270184.299999997,7050,remote,AF,A,262583,262583,260853,261866,260854,262999,262383,262383,262999,29
29,test,1,inc,1,z,Thu Feb 20 2025 17:02:52 GMT-0600 (Central Standard Time),274346.19999999925,rock,900,O,z,z,None,583,383.0,200.0,14,1,2012.6000000014901,272333.59999999776,7050,kind,AF,A,264632,264632,263003,263916,263003,265015,264432,264432,265015,30
30,test,1,inc,1,m,Thu Feb 20 2025 17:02:52 GMT-0600 (Central Standard Time),276578.69999999925,love,1000,O,m,m,None,683,483.0,200.0,79,1,2228.800000000745,274349.8999999985,7050,rock,AF,A,266748,266748,265019,266032,265019,267248,266548,266548,267248,31
31,test,1,inc,1,z,Thu Feb 20 2025 17:02:52 GMT-0600 (Central Standard Time),278511.5,step,800,O,z,z,None,593,320.0,273.0,21,1,1928.9000000022352,276582.59999999776,7050,love,AF,A,268855,268855,267252,268064,267252,269181,268581,268581,269181,32
32,test,1,inc,1,m,Thu Feb 20 2025 17:02:52 GMT-0600 (Central Standard Time),280594.3999999985,temper,1000,O,m,m,None,549,350.0,199.0,111,1,2079.0,278515.3999999985,7050,napkin,AF,A,270913,270913,269184,270197,269185,271263,270714,270714,271263,33
33,test,1,con,1,z,Thu Feb 20 2025 17:02:52 GMT-0600 (Central Standard Time),282760.0,elated,1000,O,z,z,None,619,419.0,200.0,3,1,2162.10000000149,280597.8999999985,7050,elated,AF,A,272996,272996,271267,272280,271267,273429,272796,272796,273429,34
34,test,1,inc,1,z,Thu Feb 20 2025 17:02:52 GMT-0600 (Central Standard Time),284842.69999999925,remote,1000,O,z,z,None,540,341.0,199.0,7,1,2078.900000002235,282763.799999997,7050,elated,AF,A,275162,275162,273433,274446,273433,275512,274963,274963,275512,35
35,test,1,inc,1,m,Thu Feb 20 2025 17:02:52 GMT-0600 (Central Standard Time),286992.09999999776,hate,1100,O,m,m,None,510,310.0,200.0,88,1,2145.800000000745,284846.299999997,7050,bell,AF,A,277345,277345,275515,276628,275516,277661,277145,277145,277661,36
36,test,1,inc,1,m,Thu Feb 20 2025 17:02:52 GMT-0600 (Central Standard Time),289091.3999999985,temper,1000,O,m,m,None,557,357.0,200.0,103,1,2095.699999999255,286995.69999999925,7050,jacket,AF,A,279394,279394,277665,278678,277665,279760,279194,279194,279760,37
37,test,1,con,1,m,Thu Feb 20 2025 17:02:52 GMT-0600 (Central Standard Time),291124.0,rock,1000,O,m,m,None,498,298.0,200.0,75,1,2028.7000000029802,289095.299999997,7050,rock,AF,A,281493,281493,279764,280777,279765,281793,281293,281293,281793,38
38,test,1,inc,1,z,Thu Feb 20 2025 17:02:52 GMT-0600 (Central Standard Time),293390.09999999776,jacket,800,O,z,z,None,929,729.0,200.0,29,1,2262.5,291127.59999999776,7050,friend,AF,A,283326,283326,281797,282610,281797,284059,283126,283126,284059,39
39,test,1,inc,1,m,Thu Feb 20 2025 17:02:52 GMT-0600 (Central Standard Time),295322.799999997,rage,800,O,m,m,None,583,384.0,199.0,77,1,1928.7999999970198,293394.0,7050,rock,AF,A,285592,285592,284063,284876,284063,285992,285393,285393,285992,40
40,test,1,con,1,m,Thu Feb 20 2025 17:02:52 GMT-0600 (Central Standard Time),297605.3999999985,film,1100,O,m,m,None,637,438.0,199.0,92,1,2278.60000000149,295326.799999997,7050,film,AF,A,287825,287825,285996,287108,285996,288274,287625,287625,288274,41
41,test,1,con,1,z,Thu Feb 20 2025 17:02:52 GMT-0600 (Central Standard Time),299554.8999999985,love,1000,O,z,z,None,399,200.0,199.0,19,1,1945.800000000745,297609.09999999776,7050,love,AF,A,290007,290007,288278,289291,288278,290224,289808,289808,290224,42
42,test,1,inc,1,m,Thu Feb 20 2025 17:02:52 GMT-0600 (Central Standard Time),301487.5,brutal,900,O,m,m,None,493,294.0,199.0,126,1,1928.800000000745,299558.69999999925,7050,window,AF,A,291857,291857,290228,291140,290228,292157,291657,291657,292156,43
43,test,1,con,1,z,Thu Feb 20 2025 17:02:52 GMT-0600 (Central Standard Time),303420.09999999776,rage,800,O,z,z,None,596,397.0,199.0,49,1,1928.8999999985099,301491.19999999925,7050,rage,AF,A,293690,293690,292160,292973,292161,294089,293490,293490,294089,44
44,test,1,con,1,m,Thu Feb 20 2025 17:02:52 GMT-0600 (Central Standard Time),305652.8999999985,step,1100,O,m,m,None,596,397.0,199.0,68,1,2228.89999999851,303424.0,7050,step,AF,A,295922,295922,294093,295206,294093,296322,295723,295723,296322,45
45,test,1,con,1,m,Thu Feb 20 2025 17:02:52 GMT-0600 (Central Standard Time),307502.09999999776,bell,800,O,m,m,None,503,304.0,199.0,81,1,1845.3999999985099,305656.69999999925,7050,bell,AF,A,297855,297855,296326,297139,296326,298171,297655,297655,298171,46
46,test,1,con,1,z,Thu Feb 20 2025 17:02:52 GMT-0600 (Central Standard Time),309718.19999999925,rage,1100,O,z,z,None,577,378.0,199.0,52,1,2212.0,307506.19999999925,7050,rage,AF,A,300004,300005,298175,299288,298176,300387,299804,299805,300387,47
47,test,1,inc,1,z,Thu Feb 20 2025 17:02:52 GMT-0600 (Central Standard Time),311717.59999999776,napkin,900,O,z,z,None,562,362.0,200.0,6,1,1995.5,309722.09999999776,7050,elated,AF,A,302020,302021,300391,301304,300391,302387,301820,301820,302387,48
48,test,1,con,1,z,Thu Feb 20 2025 17:02:52 GMT-0600 (Central Standard Time),313867.0,rage,900,O,z,z,None,706,507.0,199.0,50,1,2145.60000000149,311721.3999999985,7050,rage,AF,A,304020,304020,302390,303303,302391,304536,303820,303820,304536,49
49,test,1,con,1,z,Thu Feb 20 2025 17:02:52 GMT-0600 (Central Standard Time),316016.09999999776,elated,1100,O,z,z,None,510,310.0,200.0,4,1,2145.300000000745,313870.799999997,7050,elated,AF,A,306369,306369,304540,305653,304540,306685,306169,306169,306685,50
50,test,1,con,1,z,Thu Feb 20 2025 17:02:52 GMT-0600 (Central Standard Time),317882.5,elated,800,O,z,z,None,518,318.0,200.0,1,1,1862.6000000014901,316019.8999999985,7050,elated,AF,A,308218,308218,306689,307502,306689,308552,308018,308018,308551,51
51,test,1,con,1,z,Thu Feb 20 2025 17:02:52 GMT-0600 (Central Standard Time),319999.59999999776,hate,1100,O,z,z,None,478,279.0,199.0,44,1,2113.5,317886.09999999776,7050,hate,AF,A,310384,310384,308555,309668,308555,310669,310185,310185,310669,52
52,test,1,con,1,m,Thu Feb 20 2025 17:02:52 GMT-0600 (Central Standard Time),322081.299999997,step,900,O,m,m,None,633,434.0,199.0,66,1,2077.39999999851,320003.8999999985,7050,step,AF,A,312301,312301,310673,311584,310673,312750,312101,312101,312750,53
53,test,1,con,1,m,Thu Feb 20 2025 17:02:52 GMT-0600 (Central Standard Time),323880.3999999985,film,800,O,m,m,None,452,252.0,200.0,89,1,1795.199999999255,322085.19999999925,7050,film,AF,A,314283,314283,312754,313567,312754,314549,314083,314083,314549,54
54,test,1,con,1,z,Thu Feb 20 2025 17:02:52 GMT-0600 (Central Standard Time),325713.09999999776,friend,800,O,z,z,None,479,276.0,203.0,25,1,1828.8999999985099,323884.19999999925,7050,friend,AF,A,316099,316099,314553,315366,314554,316382,315896,315896,316382,55
55,test,1,inc,1,z,Thu Feb 20 2025 17:02:52 GMT-0600 (Central Standard Time),327962.299999997,window,1100,O,z,z,None,607,408.0,199.0,64,1,2245.5,325716.799999997,7050,temper,AF,A,318215,318215,316386,317499,316386,318631,318016,318016,318631,56
56,test,1,con,1,z,Thu Feb 20 2025 17:02:52 GMT-0600 (Central Standard Time),330095.3999999985,friend,1100,O,z,z,None,493,294.0,199.0,28,1,2129.199999999255,327966.19999999925,7050,friend,AF,A,320465,320465,318635,319748,318636,320764,320265,320265,320764,57
57,test,1,inc,1,z,Thu Feb 20 2025 17:02:52 GMT-0600 (Central Standard Time),332194.5,bell,1000,O,z,z,None,566,366.0,200.0,55,1,2095.400000002235,330099.09999999776,7050,rage,AF,A,322497,322497,320768,321781,320769,322864,322297,322297,322864,58
58,test,1,con,1,m,Thu Feb 20 2025 17:02:52 GMT-0600 (Central Standard Time),334244.0,step,1000,O,m,m,None,513,314.0,199.0,67,1,2046.1000000014901,332197.8999999985,7050,step,AF,A,324597,324597,322867,323880,322867,324913,324397,324397,324913,59
59,test,1,inc,1,z,Thu Feb 20 2025 17:02:52 GMT-0600 (Central Standard Time),336393.09999999776,film,1100,O,z,z,None,509,308.0,201.0,24,1,2145.5,334247.59999999776,7050,love,AF,A,326747,326747,324917,326030,324917,327062,326546,326546,327062,60
60,test,1,con,1,z,Thu Feb 20 2025 17:02:52 GMT-0600 (Central Standard Time),338459.19999999925,kind,900,O,z,z,None,623,424.0,199.0,10,1,2062.10000000149,336397.09999999776,7050,kind,AF,A,328695,328695,327066,327979,327066,329128,328496,328496,329128,61
61,test,1,con,1,z,Thu Feb 20 2025 17:02:52 GMT-0600 (Central Standard Time),340308.69999999925,hate,800,O,z,z,None,505,306.0,199.0,41,1,1845.699999999255,338463.0,7050,hate,AF,A,330661,330661,329132,329945,329132,330978,330462,330462,330978,62
62,test,1,con,1,m,Thu Feb 20 2025 17:02:52 GMT-0600 (Central Standard Time),342058.19999999925,window,800,O,m,m,None,400,200.0,200.0,121,1,1745.699999999255,340312.5,7050,window,AF,A,332511,332511,330982,331794,330982,332727,332311,332311,332727,63
63,test,1,con,1,z,Thu Feb 20 2025 17:02:52 GMT-0600 (Central Standard Time),343907.5,temper,800,O,z,z,None,507,307.0,200.0,57,1,1845.5,342062.0,7050,temper,AF,A,334260,334260,332731,333544,332731,334577,334060,334060,334576,64
64,test,1,inc,1,m,Thu Feb 20 2025 17:02:52 GMT-0600 (Central Standard Time),345840.3999999985,rage,800,O,m,m,None,584,385.0,199.0,69,1,1928.8999999985099,343911.5,7050,step,AF,A,336110,336110,334581,335393,334581,336509,335910,335910,336509,65
65,test,1,con,1,z,Thu Feb 20 2025 17:02:52 GMT-0600 (Central Standard Time),347906.69999999925,kind,1000,O,z,z,None,516,317.0,199.0,11,1,2062.900000002235,345843.799999997,7050,kind,AF,A,338242,338242,336513,337526,336513,338576,338043,338043,338576,66
66,test,1,inc,1,z,Thu Feb 20 2025 17:02:52 GMT-0600 (Central Standard Time),350088.799999997,window,1100,O,z,z,None,533,334.0,199.0,40,1,2178.39999999851,347910.3999999985,7050,brutal,AF,A,340408,340409,338579,339696,338580,340758,340209,340209,340758,67
67,test,1,con,1,z,Thu Feb 20 2025 17:02:52 GMT-0600 (Central Standard Time),352171.799999997,rage,1000,O,z,z,None,540,340.0,200.0,51,1,2079.199999999255,350092.59999999776,7050,rage,AF,A,342491,342491,340762,341775,340762,342841,342291,342291,342841,68
68,test,1,inc,1,m,Thu Feb 20 2025 17:02:52 GMT-0600 (Central Standard Time),354087.799999997,rage,800,O,m,m,None,577,377.0,200.0,85,1,1911.8999999985099,352175.8999999985,7050,bell,AF,A,344374,344374,342845,343657,342845,344757,344174,344174,344757,69
69,test,1,inc,1,m,Thu Feb 20 2025 17:02:52 GMT-0600 (Central Standard Time),355987.0,rage,800,O,m,m,None,564,365.0,199.0,93,1,1895.5,354091.5,7050,film,AF,A,346290,346290,344761,345574,344761,346656,346090,346090,346656,70
70,test,1,inc,1,z,Thu Feb 20 2025 17:02:52 GMT-0600 (Central Standard Time),358069.69999999925,rock,900,O,z,z,None,646,446.0,200.0,54,1,2079.0,355990.69999999925,7050,rage,AF,A,348289,348289,346660,347573,346660,348739,348089,348089,348739,71
71,test,1,con,1,m,Thu Feb 20 2025 17:02:52 GMT-0600 (Central Standard Time),360219.299999997,window,1100,O,m,m,None,507,307.0,200.0,124,1,2145.7999999970198,358073.5,7050,window,AF,A,350572,350572,348743,349855,348743,350888,350372,350372,350888,72
72,test,1,con,1,m,Thu Feb 20 2025 17:02:52 GMT-0600 (Central Standard Time),362385.19999999925,bell,1000,O,m,m,None,626,426.0,200.0,83,1,2162.10000000149,360223.09999999776,7050,bell,AF,A,352621,352621,350892,351905,350893,353054,352421,352421,353054,73
73,test,1,con,1,z,Thu Feb 20 2025 17:02:52 GMT-0600 (Central Standard Time),364484.5,temper,1100,O,z,z,None,463,264.0,199.0,60,1,2095.400000002235,362389.09999999776,7050,temper,AF,A,354887,354887,353058,354171,353058,355154,354688,354688,355153,74
74,test,1,inc,1,z,Thu Feb 20 2025 17:02:52 GMT-0600 (Central Standard Time),366567.19999999925,remote,1000,O,z,z,None,536,337.0,199.0,63,1,2079.10000000149,364488.09999999776,7050,temper,AF,A,356886,356886,355157,356170,355157,357236,356687,356687,357236,75
75,test,1,inc,1,m,Thu Feb 20 2025 17:02:52 GMT-0600 (Central Standard Time),368500.0,kind,900,O,m,m,None,489,290.0,199.0,70,1,1929.1000000014901,366570.8999999985,7050,step,AF,A,358869,358869,357240,358153,357240,359169,358669,358670,359169,76
76,test,1,inc,1,m,Thu Feb 20 2025 17:02:52 GMT-0600 (Central Standard Time),370315.8999999985,elated,800,O,m,m,None,481,281.0,200.0,109,1,1812.1000000014901,368503.799999997,7050,napkin,AF,A,360702,360702,359173,359986,359173,360985,360502,360502,360985,77
77,test,1,inc,1,z,Thu Feb 20 2025 17:02:52 GMT-0600 (Central Standard Time),372328.69999999925,napkin,900,O,z,z,None,579,379.0,200.0,62,1,2009.0,370319.69999999925,7050,temper,AF,A,362618,362618,360989,361902,360989,362998,362418,362418,362998,78
78,test,1,con,1,z,Thu Feb 20 2025 17:02:52 GMT-0600 (Central Standard Time),374314.69999999925,brutal,1000,O,z,z,None,433,234.0,199.0,35,1,1982.199999999255,372332.5,7050,brutal,AF,A,364734,364734,363002,364018,363002,364984,364535,364535,364984,79
79,test,1,inc,1,z,Thu Feb 20 2025 17:02:52 GMT-0600 (Central Standard Time),376480.799999997,film,1100,O,z,z,None,525,326.0,199.0,48,1,2162.099999997765,374318.69999999925,7050,hate,AF,A,366817,366817,364988,366100,364988,367150,366617,366617,367150,80
80,test,1,inc,1,m,Thu Feb 20 2025 17:02:52 GMT-0600 (Central Standard Time),378496.59999999776,love,1000,O,m,m,None,476,276.0,200.0,71,1,2012.199999999255,376484.3999999985,7050,step,AF,A,368883,368883,367153,368167,367154,369166,368683,368683,369166,81
80,test,1,inc,0,m,Thu Feb 20 2025 17:02:52 GMT-0600 (Central Standard Time),380497.3999999985,kind,900,O,z,z,None,552,352.0,200.0,94,1,1997.199999999255,378500.19999999925,7050,film,AF,A,370799,370799,369169,370083,369170,371166,370599,370599,371166,82
81,test,1,con,1,z,Thu Feb 20 2025 17:02:52 GMT-0600 (Central Standard Time),382795.299999997,brutal,1100,O,z,z,None,665,465.0,200.0,36,1,2294.099999997765,380501.19999999925,7050,brutal,AF,A,372998,372998,371170,372282,371171,373464,372798,372798,373464,83
82,test,1,con,1,m,Thu Feb 20 2025 17:02:52 GMT-0600 (Central Standard Time),384828.09999999776,window,1000,O,m,m,None,496,297.0,199.0,123,1,2029.0999999977648,382799.0,7050,window,AF,A,375197,375198,373468,374481,373468,375497,374997,374998,375497,84
83,test,1,con,1,z,Thu Feb 20 2025 17:02:52 GMT-0600 (Central Standard Time),386794.19999999925,hate,900,O,z,z,None,532,333.0,199.0,42,1,1962.199999999255,384832.0,7050,hate,AF,A,377130,377130,375501,376414,375501,377463,376931,376931,377463,85
84,test,1,con,1,z,Thu Feb 20 2025 17:02:52 GMT-0600 (Central Standard Time),388693.59999999776,kind,800,O,z,z,None,563,363.0,200.0,9,1,1895.699999999255,386797.8999999985,7050,kind,AF,A,378996,378996,377467,378280,377467,379363,378796,378796,379363,86
85,test,1,inc,1,z,Thu Feb 20 2025 17:02:52 GMT-0600 (Central Standard Time),390926.19999999925,bell,1000,O,z,z,None,711,512.0,199.0,15,1,2228.800000000745,388697.3999999985,7050,kind,AF,A,381079,381079,379366,380379,379367,381595,380880,380880,381595,87
86,test,1,con,1,m,Thu Feb 20 2025 17:02:52 GMT-0600 (Central Standard Time),392942.09999999776,film,1000,O,m,m,None,478,279.0,199.0,91,1,2012.199999999255,390929.8999999985,7050,film,AF,A,383328,383328,381599,382613,381599,383611,383129,383129,383611,88
87,test,1,con,1,m,Thu Feb 20 2025 17:02:52 GMT-0600 (Central Standard Time),395041.59999999776,jacket,900,O,m,m,None,651,451.0,200.0,98,1,2096.0,392945.59999999776,7050,jacket,AF,A,385244,385244,383615,384528,383615,385711,385044,385044,385711,89
88,test,1,inc,1,z,Thu Feb 20 2025 17:02:52 GMT-0600 (Central Standard Time),397057.59999999776,napkin,900,O,z,z,None,516,317.0,199.0,30,1,2011.8999999985099,395045.69999999925,7050,friend,AF,A,387394,387394,385715,386686,385715,387727,387194,387194,387727,90
89,test,1,inc,1,z,Thu Feb 20 2025 17:02:52 GMT-0600 (Central Standard Time),399123.59999999776,rock,900,O,z,z,None,622,423.0,199.0,46,1,2062.300000000745,397061.299999997,7050,hate,AF,A,389360,389360,387730,388644,387731,389793,389160,389160,389793,91
90,test,1,con,1,m,Thu Feb 20 2025 17:02:52 GMT-0600 (Central Standard Time),400956.3999999985,remote,800,O,m,m,None,489,289.0,200.0,113,1,1828.8999999985099,399127.5,7050,remote,AF,A,391326,391326,389796,390609,389797,391625,391126,391126,391625,92
91,test,1,inc,1,z,Thu Feb 20 2025 17:02:52 GMT-0600 (Central Standard Time),402905.8999999985,jacket,800,O,z,z,None,624,424.0,200.0,5,1,1945.800000000745,400960.09999999776,7050,elated,AF,A,393143,393143,391629,392442,391630,393575,392943,392943,393575,93
92,test,1,con,1,z,Thu Feb 20 2025 17:02:52 GMT-0600 (Central Standard Time),405055.09999999776,elated,900,O,z,z,None,711,511.0,200.0,2,1,2145.599999997765,402909.5,7050,elated,AF,A,395208,395208,393579,394491,393579,395724,395008,395008,395724,94
93,test,1,inc,1,z,Thu Feb 20 2025 17:02:52 GMT-0600 (Central Standard Time),407021.09999999776,rock,900,O,z,z,None,521,322.0,199.0,22,1,1962.300000000745,405058.799999997,7050,love,AF,A,397357,397357,395728,396641,395728,397690,397158,397158,397690,95
94,test,1,inc,1,z,Thu Feb 20 2025 17:02:52 GMT-0600 (Central Standard Time),409237.09999999776,window,1100,O,z,z,None,580,380.0,200.0,32,1,2212.099999997765,407025.0,7050,friend,AF,A,399523,399523,397694,398807,397694,399906,399323,399323,399906,96
95,test,1,inc,1,z,Thu Feb 20 2025 17:02:52 GMT-0600 (Central Standard Time),411236.3999999985,remote,1000,O,z,z,None,456,255.0,201.0,31,1,1995.6000000014901,409240.799999997,7050,friend,AF,A,401640,401640,399910,400923,399910,401906,401439,401439,401905,97
96,test,1,con,1,m,Thu Feb 20 2025 17:02:52 GMT-0600 (Central Standard Time),413219.19999999925,napkin,1000,O,m,m,None,456,257.0,199.0,107,1,1978.9000000022352,411240.299999997,7050,napkin,AF,A,403622,403622,401909,402922,401910,403888,403423,403423,403888,98
97,test,1,con,1,z,Thu Feb 20 2025 17:02:52 GMT-0600 (Central Standard Time),415068.59999999776,love,900,O,z,z,None,404,205.0,199.0,18,1,1845.5,413223.09999999776,7050,love,AF,A,405522,405522,403892,404805,403892,405738,405322,405322,405738,99
98,test,1,inc,1,m,Thu Feb 20 2025 17:02:52 GMT-0600 (Central Standard Time),417334.69999999925,friend,1100,O,m,m,None,620,420.0,200.0,120,1,2262.199999999255,415072.5,7050,remote,AF,A,407571,407571,405742,406855,405742,408004,407371,407371,408004,100
99,test,1,con,1,m,Thu Feb 20 2025 17:02:52 GMT-0600 (Central Standard Time),419654.0,bell,1100,O,m,m,None,675,476.0,199.0,84,1,2315.7000000029802,417338.299999997,7050,bell,AF,A,409837,409837,408007,409120,408008,410323,409637,409637,410323,101
100,test,1,con,1,m,Thu Feb 20 2025 17:02:52 GMT-0600 (Central Standard Time),421866.3999999985,remote,1100,O,m,m,None,573,374.0,199.0,116,1,2208.5,419657.8999999985,7050,remote,AF,A,412153,412153,410327,411436,410327,412536,411953,411953,412535,102
101,test,1,inc,1,m,Thu Feb 20 2025 17:02:52 GMT-0600 (Central Standard Time),424115.799999997,friend,1100,O,m,m,None,605,406.0,199.0,112,1,2245.7999999970198,421870.0,7050,napkin,AF,A,414369,414369,412539,413652,412539,414785,414169,414169,414785,103
102,test,1,con,1,z,Thu Feb 20 2025 17:02:52 GMT-0600 (Central Standard Time),426132.09999999776,temper,900,O,z,z,None,581,381.0,200.0,58,1,2012.3999999985099,424119.69999999925,7050,temper,AF,A,416418,416418,414789,415702,414789,416801,416218,416218,416801,104
103,test,1,con,1,m,Thu Feb 20 2025 17:02:52 GMT-0600 (Central Standard Time),428164.5,jacket,1000,O,m,m,None,489,289.0,200.0,99,1,2028.7000000029802,426135.799999997,7050,jacket,AF,A,418534,418534,416805,417817,416805,418834,418334,418334,418834,105
104,test,1,inc,1,m,Thu Feb 20 2025 17:02:52 GMT-0600 (Central Standard Time),430264.09999999776,elated,800,O,m,m,None,759,560.0,199.0,125,1,2095.800000000745,428168.299999997,7050,window,AF,A,420367,420367,418837,419651,418837,420933,420167,420167,420933,106
105,test,1,con,1,m,Thu Feb 20 2025 17:02:52 GMT-0600 (Central Standard Time),432413.299999997,napkin,900,O,m,m,None,705,505.0,200.0,106,1,2145.599999997765,430267.69999999925,7050,napkin,AF,A,422566,422566,420937,421850,420937,423082,422366,422366,423082,107
106,test,1,inc,1,z,Thu Feb 20 2025 17:02:52 GMT-0600 (Central Standard Time),434629.19999999925,film,1100,O,z,z,None,571,372.0,199.0,56,1,2212.199999999255,432417.0,7050,rage,AF,A,424915,424915,423086,424199,423086,425298,424716,424716,425298,108
107,test,1,inc,1,m,Thu Feb 20 2025 17:02:52 GMT-0600 (Central Standard Time),436745.09999999776,temper,1000,O,m,m,None,568,368.0,200.0,127,1,2112.0,434633.09999999776,7050,window,AF,A,427031,427031,425302,426315,425302,427414,426831,426831,427414,109
108,test,1,inc,1,m,Thu Feb 20 2025 17:02:52 GMT-0600 (Central Standard Time),438694.3999999985,brutal,900,O,m,m,None,511,312.0,199.0,110,1,1945.199999999255,436749.19999999925,7050,napkin,AF,A,429047,429047,427418,428331,427419,429363,428848,428848,429363,110
109,test,1,inc,1,m,Thu Feb 20 2025 17:02:52 GMT-0600 (Central Standard Time),440877.09999999776,hate,1100,O,m,m,None,554,355.0,199.0,80,1,2178.800000000745,438698.299999997,7050,rock,AF,A,431180,431180,429367,430480,429368,431546,430981,430981,431546,111
110,test,1,con,1,m,Thu Feb 20 2025 17:02:52 GMT-0600 (Central Standard Time),442923.69999999925,napkin,800,O,m,m,None,712,513.0,199.0,105,1,2043.199999999255,440880.5,7050,napkin,AF,A,433079,433079,431550,432363,431550,433593,432880,432880,433593,112
111,test,1,inc,1,z,Thu Feb 20 2025 17:02:52 GMT-0600 (Central Standard Time),444976.19999999925,bell,1000,O,z,z,None,509,310.0,199.0,47,1,2048.400000002235,442927.799999997,7050,hate,AF,A,435329,435329,433597,434612,433597,435645,435129,435129,435645,113
112,test,1,inc,1,m,Thu Feb 20 2025 17:02:52 GMT-0600 (Central Standard Time),446892.0,elated,800,O,m,m,None,573,373.0,200.0,101,1,1912.2000000029802,444979.799999997,7050,jacket,AF,A,437178,437178,435649,436462,435649,437561,436978,436978,437561,114
113,test,1,con,1,m,Thu Feb 20 2025 17:02:52 GMT-0600 (Central Standard Time),449108.09999999776,remote,1000,O,m,m,None,673,473.0,200.0,115,1,2212.199999999255,446895.8999999985,7050,remote,AF,A,439294,439294,437565,438579,437565,439777,439094,439094,439777,115
114,test,1,con,1,m,Thu Feb 20 2025 17:02:52 GMT-0600 (Central Standard Time),451290.59999999776,napkin,1100,O,m,m,None,549,348.0,201.0,108,1,2178.89999999851,449111.69999999925,7050,napkin,AF,A,441611,441611,439781,440894,439781,441960,441410,441410,441960,116
115,test,1,inc,1,m,Thu Feb 20 2025 17:02:52 GMT-0600 (Central Standard Time),453356.5,love,1000,O,m,m,None,529,330.0,199.0,95,1,2062.10000000149,451294.3999999985,7050,film,AF,A,443693,443693,441963,442976,441964,444026,443493,443493,444026,117
116,test,1,con,1,m,Thu Feb 20 2025 17:02:52 GMT-0600 (Central Standard Time),455589.5,rock,1100,O,m,m,None,587,388.0,199.0,76,1,2229.5,453360.0,7050,rock,AF,A,445859,445859,444029,445142,444029,446259,445659,445659,446259,118
117,test,1,inc,1,z,Thu Feb 20 2025 17:02:52 GMT-0600 (Central Standard Time),457488.799999997,step,800,O,z,z,None,558,359.0,199.0,13,1,1895.699999999255,455593.09999999776,7050,kind,AF,A,447792,447792,446262,447075,446262,448158,447592,447592,448158,119
118,test,1,inc,1,m,Thu Feb 20 2025 17:02:52 GMT-0600 (Central Standard Time),459704.59999999776,friend,1100,O,m,m,None,567,368.0,199.0,128,1,2211.89999999851,457492.69999999925,7050,window,AF,A,449991,449991,448162,449274,448162,450374,449791,449791,450374,120
119,test,1,inc,1,z,Thu Feb 20 2025 17:02:52 GMT-0600 (Central Standard Time),461620.8999999985,step,800,O,z,z,None,572,372.0,200.0,53,1,1912.5,459708.3999999985,7050,rage,AF,A,451907,451907,450377,451190,450378,452290,451707,451707,452290,121
120,test,1,con,1,z,Thu Feb 20 2025 17:02:52 GMT-0600 (Central Standard Time),463954.59999999776,kind,1100,O,z,z,None,692,492.0,200.0,12,1,2330.099999997765,461624.5,7050,kind,AF,A,454123,454123,452294,453407,452294,454624,453923,453923,454624,122
121,test,1,con,1,m,Thu Feb 20 2025 17:02:52 GMT-0600 (Central Standard Time),465869.3999999985,remote,900,O,m,m,None,478,279.0,199.0,114,1,1910.800000000745,463958.59999999776,7050,remote,AF,A,456256,456256,454628,455539,454628,456539,456056,456056,456538,123
122,test,1,inc,1,z,Thu Feb 20 2025 17:02:52 GMT-0600 (Central Standard Time),467768.69999999925,jacket,800,O,z,z,None,550,351.0,199.0,61,1,1895.4000000022352,465873.299999997,7050,temper,AF,A,458072,458072,456542,457357,456543,458438,457872,457872,458438,124
123,test,1,con,1,m,Thu Feb 20 2025 17:02:52 GMT-0600 (Central Standard Time),469734.8999999985,film,900,O,m,m,None,528,328.0,200.0,90,1,1962.5,467772.3999999985,7050,film,AF,A,460071,460071,458441,459354,458442,460404,459871,459871,460404,125
124,test,1,con,1,z,Thu Feb 20 2025 17:02:52 GMT-0600 (Central Standard Time),471767.59999999776,love,1100,O,z,z,None,394,194.0,200.0,20,1,2029.0,469738.59999999776,7050,love,AF,A,462237,462237,460408,461520,460408,462437,462037,462037,462437,126
125,test,1,con,1,z,Thu Feb 20 2025 17:02:52 GMT-0600 (Central Standard Time),473767.19999999925,friend,900,O,z,z,None,560,361.0,199.0,26,1,1995.800000000745,471771.3999999985,7050,friend,AF,A,464070,464070,462440,463353,462441,464436,463870,463870,464436,127
126,test,1,con,1,m,Thu Feb 20 2025 17:02:52 GMT-0600 (Central Standard Time),475533.299999997,jacket,800,O,m,m,None,430,230.0,200.0,97,1,1762.3999999985099,473770.8999999985,7050,jacket,AF,A,465969,465969,464440,465253,464440,466202,465769,465769,466202,128
