acc_sum,block,block_c,change,condition,correct,correct_response,datetime,endtime,face,project,response,response_time,row_sel,session_number,start_end,starttime,subject_id,task,task_vers,trial
0,prac,1,,1-Back,,,Mon Mar 24 2025 10:12:44 GMT-0500 (Central Daylight Time),,124_o_f_d_a.png,I,space,3863,1,1,,,8036,VNB,A,0
1,prac,1,0.0,1-Back,1,m,Mon Mar 24 2025 10:12:44 GMT-0500 (Central Daylight Time),402135.0999999996,071_y_f_n_a.png,I,m,1474,2,1,2274.7999999998137,399860.2999999998,8036,VNB,A,1
1,prac,1,0.0,1-Back,0,m,Mon Mar 24 2025 10:12:44 GMT-0500 (Central Daylight Time),404934.2999999998,165_m_m_h_a.png,I,None,2001,3,1,2792.0999999996275,402142.2000000002,8036,VNB,A,2
2,prac,1,0.0,1-Back,1,m,Mon Mar 24 2025 10:12:44 GMT-0500 (Central Daylight Time),406950.2999999998,109_y_m_d_a.png,I,m,1196,4,1,2008.0,404942.2999999998,8036,VNB,A,3
3,prac,1,0.0,1-Back,1,m,Mon Mar 24 2025 10:12:44 GMT-0500 (Central Daylight Time),408783.0,124_o_f_n_a.png,I,m,989,5,1,1825.7000000001863,406957.2999999998,8036,VNB,A,4
3,prac,1,1.0,1-Back,0,z,Mon Mar 24 2025 10:12:44 GMT-0500 (Central Daylight Time),410732.39999999944,109_y_m_n_a.png,I,m,1141,6,1,1942.699999999255,408789.7000000002,8036,VNB,A,5
4,prac,1,0.0,1-Back,1,m,Mon Mar 24 2025 10:12:44 GMT-0500 (Central Daylight Time),412415.0,039_o_m_h_a.png,I,m,897,7,1,1674.7000000001863,410740.2999999998,8036,VNB,A,6
5,prac,1,0.0,1-Back,1,m,Mon Mar 24 2025 10:12:44 GMT-0500 (Central Daylight Time),414848.0,139_m_f_d_a.png,I,m,1626,8,1,2425.7000000001863,412422.2999999998,8036,VNB,A,7
5,prac,1,1.0,1-Back,0,z,Mon Mar 24 2025 10:12:44 GMT-0500 (Central Daylight Time),416380.5999999996,071_y_f_d_a.png,I,m,722,9,1,1525.3999999994412,414855.2000000002,8036,VNB,A,8
5,prac,1,0.0,1-Back,0,m,Mon Mar 24 2025 10:12:44 GMT-0500 (Central Daylight Time),419196.0999999996,165_m_m_n_a.png,I,None,2016,10,1,2808.5,416387.5999999996,8036,VNB,A,9
6,prac,1,0.0,1-Back,1,m,Mon Mar 24 2025 10:12:44 GMT-0500 (Central Daylight Time),421628.7999999998,124_o_f_h_a.png,I,m,1604,11,1,2425.7999999998137,419203.0,8036,VNB,A,10
7,prac,1,0.0,1-Back,1,m,Mon Mar 24 2025 10:12:44 GMT-0500 (Central Daylight Time),423944.89999999944,109_y_m_d_a.png,I,m,1533,12,1,2308.5999999996275,421636.2999999998,8036,VNB,A,11
0,prac,2,0.0,1-Back,,,Mon Mar 24 2025 10:12:44 GMT-0500 (Central Daylight Time),423944.89999999944,124_o_f_d_a.png,I,a,7836,1,1,2308.5999999996275,421636.2999999998,8036,VNB,A,0
1,prac,2,0.0,1-Back,1,m,Mon Mar 24 2025 10:12:44 GMT-0500 (Central Daylight Time),436474.2999999998,071_y_f_n_a.png,I,m,835,2,1,1640.0999999996275,434834.2000000002,8036,VNB,A,1
2,prac,2,0.0,1-Back,1,m,Mon Mar 24 2025 10:12:44 GMT-0500 (Central Daylight Time),438457.0,165_m_m_h_a.png,I,m,1166,3,1,1974.7999999998137,436482.2000000002,8036,VNB,A,2
3,prac,2,0.0,1-Back,1,m,Mon Mar 24 2025 10:12:44 GMT-0500 (Central Daylight Time),440873.0,109_y_m_d_a.png,I,m,1627,4,1,2409.0,438464.0,8036,VNB,A,3
4,prac,2,0.0,1-Back,1,m,Mon Mar 24 2025 10:12:44 GMT-0500 (Central Daylight Time),443022.0999999996,124_o_f_n_a.png,I,m,1314,5,1,2142.2999999998137,440879.7999999998,8036,VNB,A,4
5,prac,2,1.0,1-Back,1,z,Mon Mar 24 2025 10:12:44 GMT-0500 (Central Daylight Time),445588.0,109_y_m_n_a.png,I,z,1757,6,1,2559.0,443029.0,8036,VNB,A,5
6,prac,2,0.0,1-Back,1,m,Mon Mar 24 2025 10:12:44 GMT-0500 (Central Daylight Time),447187.5,039_o_m_h_a.png,I,m,799,7,1,1592.5,445595.0,8036,VNB,A,6
7,prac,2,0.0,1-Back,1,m,Mon Mar 24 2025 10:12:44 GMT-0500 (Central Daylight Time),449186.89999999944,139_m_f_d_a.png,I,m,1198,8,1,1992.3999999994412,447194.5,8036,VNB,A,7
7,prac,2,1.0,1-Back,0,z,Mon Mar 24 2025 10:12:44 GMT-0500 (Central Daylight Time),451536.2999999998,071_y_f_d_a.png,I,m,1535,9,1,2342.2000000001863,449194.0999999996,8036,VNB,A,8
8,prac,2,0.0,1-Back,1,m,Mon Mar 24 2025 10:12:44 GMT-0500 (Central Daylight Time),453668.89999999944,165_m_m_n_a.png,I,m,1320,10,1,2125.5,451543.39999999944,8036,VNB,A,9
9,prac,2,0.0,1-Back,1,m,Mon Mar 24 2025 10:12:44 GMT-0500 (Central Daylight Time),455585.0999999996,124_o_f_h_a.png,I,m,1099,11,1,1909.2000000001863,453675.89999999944,8036,VNB,A,10
10,prac,2,0.0,1-Back,1,m,Mon Mar 24 2025 10:12:44 GMT-0500 (Central Daylight Time),457467.5999999996,109_y_m_d_a.png,I,m,1106,12,1,1875.5999999996275,455592.0,8036,VNB,A,11
0,test,1,0.0,1-Back,,,Mon Mar 24 2025 10:12:44 GMT-0500 (Central Daylight Time),457467.5999999996,071_y_f_d_a.png,I,space,7105,1,1,1875.5999999996275,455592.0,8036,VNB,A,0
1,test,1,0.0,1-Back,1,m,Mon Mar 24 2025 10:12:44 GMT-0500 (Central Daylight Time),473762.5999999996,139_m_f_n_a.png,I,m,965,2,1,1975.2000000001863,471787.39999999944,8036,VNB,A,1
2,test,1,0.0,1-Back,1,m,Mon Mar 24 2025 10:12:44 GMT-0500 (Central Daylight Time),475611.89999999944,039_o_m_h_a.png,I,m,823,3,1,1843.5999999996275,473768.2999999998,8036,VNB,A,2
3,test,1,1.0,1-Back,1,z,Mon Mar 24 2025 10:12:44 GMT-0500 (Central Daylight Time),477678.0,165_m_m_h_a.png,I,z,1045,4,1,2059.9000000003725,475618.0999999996,8036,VNB,A,3
4,test,1,0.0,1-Back,1,m,Mon Mar 24 2025 10:12:44 GMT-0500 (Central Daylight Time),479410.5999999996,124_o_f_n_a.png,I,m,707,5,1,1726.3999999994412,477684.2000000002,8036,VNB,A,4
5,test,1,0.0,1-Back,1,m,Mon Mar 24 2025 10:12:44 GMT-0500 (Central Daylight Time),481660.0,109_y_m_d_a.png,I,m,1230,6,1,2242.9000000003725,479417.0999999996,8036,VNB,A,5
5,test,1,1.0,1-Back,0,z,Mon Mar 24 2025 10:12:44 GMT-0500 (Central Daylight Time),483742.7000000002,139_m_f_d_a.png,I,m,1054,7,1,2076.600000000559,481666.0999999996,8036,VNB,A,6
6,test,1,0.0,1-Back,1,m,Mon Mar 24 2025 10:12:44 GMT-0500 (Central Daylight Time),485758.7999999998,071_y_f_h_a.png,I,m,995,8,1,2009.2000000001863,483749.5999999996,8036,VNB,A,7
6,test,1,0.0,1-Back,0,m,Mon Mar 24 2025 10:12:44 GMT-0500 (Central Daylight Time),488008.0,039_o_m_n_a.png,I,z,1219,9,1,2243.2999999998137,485764.7000000002,8036,VNB,A,8
7,test,1,0.0,1-Back,1,m,Mon Mar 24 2025 10:12:44 GMT-0500 (Central Daylight Time),490557.2000000002,109_y_m_h_a.png,I,m,1529,10,1,2543.100000000559,488014.0999999996,8036,VNB,A,9
8,test,1,0.0,1-Back,1,m,Mon Mar 24 2025 10:12:44 GMT-0500 (Central Daylight Time),492773.2000000002,039_o_m_d_a.png,I,m,1195,11,1,2209.800000000745,490563.39999999944,8036,VNB,A,10
9,test,1,1.0,1-Back,1,z,Mon Mar 24 2025 10:12:44 GMT-0500 (Central Daylight Time),494972.2999999998,124_o_f_d_a.png,I,z,1172,12,1,2193.0,492779.2999999998,8036,VNB,A,11
10,test,1,0.0,1-Back,1,m,Mon Mar 24 2025 10:12:44 GMT-0500 (Central Daylight Time),497621.7000000002,165_m_m_n_a.png,I,m,1621,13,1,2643.2000000001863,494978.5,8036,VNB,A,12
10,test,1,1.0,1-Back,0,z,Mon Mar 24 2025 10:12:44 GMT-0500 (Central Daylight Time),500471.0,071_y_f_n_a.png,I,m,1819,14,1,2843.100000000559,497627.89999999944,8036,VNB,A,13
10,test,1,0.0,1-Back,0,m,Mon Mar 24 2025 10:12:44 GMT-0500 (Central Daylight Time),502603.2999999998,139_m_f_h_a.png,I,z,1106,15,1,2126.4000000003725,500476.89999999944,8036,VNB,A,14
10,test,1,0.0,1-Back,0,m,Mon Mar 24 2025 10:12:44 GMT-0500 (Central Daylight Time),505319.2000000002,165_m_m_d_a.png,I,z,1686,16,1,2709.300000000745,502609.89999999944,8036,VNB,A,15
11,test,1,0.0,1-Back,1,m,Mon Mar 24 2025 10:12:44 GMT-0500 (Central Daylight Time),508151.7000000002,109_y_m_n_a.png,I,m,1810,17,1,2826.2000000001863,505325.5,8036,VNB,A,16
12,test,1,0.0,1-Back,1,m,Mon Mar 24 2025 10:12:44 GMT-0500 (Central Daylight Time),510217.7000000002,124_o_f_h_a.png,I,m,1041,18,1,2060.100000000559,508157.5999999996,8036,VNB,A,17
0,test,2,0.0,1-Back,,,Mon Mar 24 2025 10:12:44 GMT-0500 (Central Daylight Time),510217.7000000002,109_y_m_n_a.png,I,space,2151,1,1,2060.100000000559,508157.5999999996,8036,VNB,A,0
1,test,2,0.0,1-Back,1,m,Mon Mar 24 2025 10:12:44 GMT-0500 (Central Daylight Time),516449.2999999998,071_y_f_h_a.png,I,m,1017,2,1,2043.5,514405.7999999998,8036,VNB,A,1
2,test,2,1.0,1-Back,1,m,Mon Mar 24 2025 10:12:44 GMT-0500 (Central Daylight Time),518431.7999999998,039_o_m_n_a.png,I,m,952,3,1,1975.5,516456.2999999998,8036,VNB,A,2
3,test,2,0.0,1-Back,1,m,Mon Mar 24 2025 10:12:44 GMT-0500 (Central Daylight Time),520398.0,139_m_f_d_a.png,I,m,945,4,1,1959.9000000003725,518438.0999999996,8036,VNB,A,3
4,test,2,0.0,1-Back,1,z,Mon Mar 24 2025 10:12:44 GMT-0500 (Central Daylight Time),522280.39999999944,165_m_m_d_a.png,I,z,851,5,1,1876.5,520403.89999999944,8036,VNB,A,4
5,test,2,0.0,1-Back,1,m,Mon Mar 24 2025 10:12:44 GMT-0500 (Central Daylight Time),524096.5999999996,109_y_m_h_a.png,I,m,784,6,1,1809.7999999998137,522286.7999999998,8036,VNB,A,5
5,test,2,1.0,1-Back,0,z,Mon Mar 24 2025 10:12:44 GMT-0500 (Central Daylight Time),525829.3999999994,124_o_f_h_a.png,I,m,712,7,1,1725.699999999255,524103.7000000002,8036,VNB,A,6
6,test,2,0.0,1-Back,1,m,Mon Mar 24 2025 10:12:44 GMT-0500 (Central Daylight Time),528228.5999999996,139_m_f_n_a.png,I,m,1379,8,1,2393.2999999998137,525835.2999999998,8036,VNB,A,7
6,test,2,0.0,1-Back,0,m,Mon Mar 24 2025 10:12:44 GMT-0500 (Central Daylight Time),530244.7999999998,071_y_f_d_a.png,I,z,989,9,1,2009.7999999998137,528235.0,8036,VNB,A,8
6,test,2,0.0,1-Back,0,m,Mon Mar 24 2025 10:12:44 GMT-0500 (Central Daylight Time),532460.8999999994,165_m_m_n_a.png,I,z,1196,10,1,2209.7999999998137,530251.0999999996,8036,VNB,A,9
7,test,2,1.0,1-Back,1,m,Mon Mar 24 2025 10:12:44 GMT-0500 (Central Daylight Time),535143.7000000002,139_m_f_h_a.png,I,m,1652,11,1,2677.0,532466.7000000002,8036,VNB,A,10
8,test,2,0.0,1-Back,1,z,Mon Mar 24 2025 10:12:44 GMT-0500 (Central Daylight Time),537159.2000000002,039_o_m_h_a.png,I,z,994,12,1,2009.2000000001863,535150.0,8036,VNB,A,11
9,test,2,0.0,1-Back,1,m,Mon Mar 24 2025 10:12:44 GMT-0500 (Central Daylight Time),539058.5,109_y_m_d_a.png,I,m,882,13,1,1893.5,537165.0,8036,VNB,A,12
9,test,2,0.0,1-Back,0,m,Mon Mar 24 2025 10:12:44 GMT-0500 (Central Daylight Time),541208.2000000002,124_o_f_n_a.png,I,z,1126,14,1,2143.800000000745,539064.3999999994,8036,VNB,A,13
9,test,2,0.0,1-Back,0,z,Mon Mar 24 2025 10:12:44 GMT-0500 (Central Daylight Time),543340.7999999998,071_y_f_n_a.png,I,m,1113,15,1,2126.5,541214.2999999998,8036,VNB,A,14
10,test,2,1.0,1-Back,1,m,Mon Mar 24 2025 10:12:44 GMT-0500 (Central Daylight Time),545589.7999999998,165_m_m_h_a.png,I,m,1221,16,1,2242.5999999996275,543347.2000000002,8036,VNB,A,15
11,test,2,0.0,1-Back,1,m,Mon Mar 24 2025 10:12:44 GMT-0500 (Central Daylight Time),547605.8999999994,124_o_f_d_a.png,I,m,987,17,1,2009.3999999994412,545596.5,8036,VNB,A,16
12,test,2,1.0,1-Back,1,z,Mon Mar 24 2025 10:12:44 GMT-0500 (Central Daylight Time),550238.2000000002,039_o_m_d_a.png,I,z,1604,18,1,2625.800000000745,547612.3999999994,8036,VNB,A,17
0,test,3,1.0,1-Back,,,Mon Mar 24 2025 10:12:44 GMT-0500 (Central Daylight Time),550238.2000000002,124_o_f_h_a.png,I,space,2587,1,1,2625.800000000745,547612.3999999994,8036,VNB,A,0
0,test,3,0.0,1-Back,0,m,Mon Mar 24 2025 10:12:44 GMT-0500 (Central Daylight Time),556836.2000000002,139_m_f_d_a.png,I,z,906,2,1,1925.800000000745,554910.3999999994,8036,VNB,A,1
1,test,3,1.0,1-Back,1,m,Mon Mar 24 2025 10:12:44 GMT-0500 (Central Daylight Time),558686.0999999996,165_m_m_n_a.png,I,m,829,3,1,1843.0,556843.0999999996,8036,VNB,A,2
2,test,3,0.0,1-Back,1,z,Mon Mar 24 2025 10:12:44 GMT-0500 (Central Daylight Time),560918.2000000002,124_o_f_n_a.png,I,z,1211,4,1,2226.300000000745,558691.8999999994,8036,VNB,A,3
2,test,3,1.0,1-Back,0,m,Mon Mar 24 2025 10:12:44 GMT-0500 (Central Daylight Time),563067.5999999996,039_o_m_d_a.png,I,z,1131,5,1,2142.5,560925.0999999996,8036,VNB,A,4
3,test,3,0.0,1-Back,1,m,Mon Mar 24 2025 10:12:44 GMT-0500 (Central Daylight Time),565133.5999999996,071_y_f_h_a.png,I,m,1038,6,1,2059.399999999441,563074.2000000002,8036,VNB,A,5
4,test,3,0.0,1-Back,1,z,Mon Mar 24 2025 10:12:44 GMT-0500 (Central Daylight Time),567149.8999999994,109_y_m_h_a.png,I,z,988,7,1,2007.8999999994412,565142.0,8036,VNB,A,6
4,test,3,0.0,1-Back,0,m,Mon Mar 24 2025 10:12:44 GMT-0500 (Central Daylight Time),570182.0999999996,139_m_f_n_a.png,I,None,2016,8,1,3024.7000000001863,567157.3999999994,8036,VNB,A,7
5,test,3,0.0,1-Back,1,m,Mon Mar 24 2025 10:12:44 GMT-0500 (Central Daylight Time),572314.5999999996,071_y_f_d_a.png,I,m,1115,9,1,2125.7999999998137,570188.7999999998,8036,VNB,A,8
6,test,3,1.0,1-Back,1,m,Mon Mar 24 2025 10:12:44 GMT-0500 (Central Daylight Time),574197.5,039_o_m_n_a.png,I,m,854,10,1,1876.2999999998137,572321.2000000002,8036,VNB,A,9
7,test,3,0.0,1-Back,1,m,Mon Mar 24 2025 10:12:44 GMT-0500 (Central Daylight Time),576163.5,165_m_m_h_a.png,I,m,948,11,1,1959.7999999998137,574203.7000000002,8036,VNB,A,10
8,test,3,0.0,1-Back,1,z,Mon Mar 24 2025 10:12:44 GMT-0500 (Central Daylight Time),578362.7000000002,139_m_f_h_a.png,I,z,1181,12,1,2192.4000000003725,576170.2999999998,8036,VNB,A,11
9,test,3,1.0,1-Back,1,m,Mon Mar 24 2025 10:12:44 GMT-0500 (Central Daylight Time),580762.2000000002,124_o_f_d_a.png,I,m,1382,13,1,2392.9000000003725,578369.2999999998,8036,VNB,A,12
9,test,3,0.0,1-Back,0,z,Mon Mar 24 2025 10:12:44 GMT-0500 (Central Daylight Time),583794.7000000002,165_m_m_d_a.png,I,None,2016,14,1,3026.300000000745,580768.3999999994,8036,VNB,A,13
10,test,3,0.0,1-Back,1,m,Mon Mar 24 2025 10:12:44 GMT-0500 (Central Daylight Time),585810.5,109_y_m_n_a.png,I,m,999,15,1,2008.7999999998137,583801.7000000002,8036,VNB,A,14
11,test,3,1.0,1-Back,1,m,Mon Mar 24 2025 10:12:44 GMT-0500 (Central Daylight Time),587843.2999999998,039_o_m_h_a.png,I,m,1007,16,1,2026.7999999998137,585816.5,8036,VNB,A,15
12,test,3,0.0,1-Back,1,m,Mon Mar 24 2025 10:12:44 GMT-0500 (Central Daylight Time),589909.0999999996,109_y_m_d_a.png,I,m,1046,17,1,2059.7000000001863,587849.3999999994,8036,VNB,A,16
13,test,3,1.0,1-Back,1,m,Mon Mar 24 2025 10:12:44 GMT-0500 (Central Daylight Time),592075.2000000002,071_y_f_n_a.png,I,m,1148,18,1,2159.300000000745,589915.8999999994,8036,VNB,A,17
0,test,4,1.0,1-Back,,,Mon Mar 24 2025 10:12:44 GMT-0500 (Central Daylight Time),592075.2000000002,165_m_m_d_a.png,I,space,2974,1,1,2159.300000000745,589915.8999999994,8036,VNB,A,0
1,test,4,0.0,1-Back,1,z,Mon Mar 24 2025 10:12:44 GMT-0500 (Central Daylight Time),599123.0,039_o_m_d_a.png,I,z,1031,2,1,2043.0,597080.0,8036,VNB,A,1
2,test,4,0.0,1-Back,1,m,Mon Mar 24 2025 10:12:44 GMT-0500 (Central Daylight Time),601189.3999999994,109_y_m_h_a.png,I,m,935,3,1,2060.2999999998137,599129.0999999996,8036,VNB,A,2
3,test,4,0.0,1-Back,1,m,Mon Mar 24 2025 10:12:44 GMT-0500 (Central Daylight Time),603105.2999999998,139_m_f_n_a.png,I,m,884,4,1,1909.9000000003725,601195.3999999994,8036,VNB,A,3
4,test,4,1.0,1-Back,1,m,Mon Mar 24 2025 10:12:44 GMT-0500 (Central Daylight Time),604971.2000000002,124_o_f_h_a.png,I,m,840,5,1,1859.5,603111.7000000002,8036,VNB,A,4
5,test,4,0.0,1-Back,1,m,Mon Mar 24 2025 10:12:44 GMT-0500 (Central Daylight Time),606887.0999999996,165_m_m_n_a.png,I,m,894,6,1,1910.0,604977.0999999996,8036,VNB,A,5
6,test,4,0.0,1-Back,1,m,Mon Mar 24 2025 10:12:44 GMT-0500 (Central Daylight Time),609153.3999999994,109_y_m_d_a.png,I,m,1242,7,1,2259.199999999255,606894.2000000002,8036,VNB,A,6
7,test,4,1.0,1-Back,1,z,Mon Mar 24 2025 10:12:44 GMT-0500 (Central Daylight Time),611269.5999999996,071_y_f_d_a.png,I,z,1096,8,1,2109.899999999441,609159.7000000002,8036,VNB,A,7
8,test,4,0.0,1-Back,1,m,Mon Mar 24 2025 10:12:44 GMT-0500 (Central Daylight Time),613535.5999999996,139_m_f_h_a.png,I,m,1245,9,1,2259.5999999996275,611276.0,8036,VNB,A,8
9,test,4,0.0,1-Back,1,z,Mon Mar 24 2025 10:12:44 GMT-0500 (Central Daylight Time),615484.8999999994,039_o_m_h_a.png,I,z,922,10,1,1943.2999999998137,613541.5999999996,8036,VNB,A,9
9,test,4,1.0,1-Back,0,m,Mon Mar 24 2025 10:12:44 GMT-0500 (Central Daylight Time),617917.2000000002,124_o_f_n_a.png,I,z,1404,11,1,2426.2000000001863,615491.0,8036,VNB,A,10
10,test,4,0.0,1-Back,1,m,Mon Mar 24 2025 10:12:44 GMT-0500 (Central Daylight Time),620533.2999999998,139_m_f_d_a.png,I,m,1588,12,1,2610.0,617923.2999999998,8036,VNB,A,11
11,test,4,0.0,1-Back,1,m,Mon Mar 24 2025 10:12:44 GMT-0500 (Central Daylight Time),622682.3999999994,071_y_f_n_a.png,I,m,1132,13,1,2143.199999999255,620539.2000000002,8036,VNB,A,12
12,test,4,0.0,1-Back,1,m,Mon Mar 24 2025 10:12:44 GMT-0500 (Central Daylight Time),625081.7000000002,124_o_f_d_a.png,I,m,1289,14,1,2393.2000000001863,622688.5,8036,VNB,A,13
13,test,4,0.0,1-Back,1,m,Mon Mar 24 2025 10:12:44 GMT-0500 (Central Daylight Time),627297.8999999994,071_y_f_h_a.png,I,m,1183,15,1,2210.2999999998137,625087.5999999996,8036,VNB,A,14
14,test,4,1.0,1-Back,1,z,Mon Mar 24 2025 10:12:44 GMT-0500 (Central Daylight Time),629463.8999999994,165_m_m_h_a.png,I,z,1136,16,1,2160.199999999255,627303.7000000002,8036,VNB,A,15
14,test,4,0.0,1-Back,0,m,Mon Mar 24 2025 10:12:44 GMT-0500 (Central Daylight Time),632497.3999999994,039_o_m_n_a.png,I,None,2016,17,1,3027.399999999441,629470.0,8036,VNB,A,16
14,test,4,1.0,1-Back,0,z,Mon Mar 24 2025 10:12:44 GMT-0500 (Central Daylight Time),634896.7000000002,109_y_m_n_a.png,I,m,1377,18,1,2392.800000000745,632503.8999999994,8036,VNB,A,17
0,test,5,1.0,1-Back,,,Mon Mar 24 2025 10:12:44 GMT-0500 (Central Daylight Time),634896.7000000002,039_o_m_n_a.png,I,space,3081,1,1,2392.800000000745,632503.8999999994,8036,VNB,A,0
1,test,5,1.0,1-Back,1,m,Mon Mar 24 2025 10:12:44 GMT-0500 (Central Daylight Time),642259.7999999998,124_o_f_h_a.png,I,m,1206,2,1,2225.5999999996275,640034.2000000002,8036,VNB,A,1
2,test,5,0.0,1-Back,1,m,Mon Mar 24 2025 10:12:44 GMT-0500 (Central Daylight Time),644676.7999999998,109_y_m_d_a.png,I,m,1390,3,1,2410.7000000001863,642266.0999999996,8036,VNB,A,2
2,test,5,0.0,1-Back,0,z,Mon Mar 24 2025 10:12:44 GMT-0500 (Central Daylight Time),647041.3999999994,039_o_m_d_a.png,I,m,1341,4,1,2358.5,644682.8999999994,8036,VNB,A,3
2,test,5,0.0,1-Back,0,m,Mon Mar 24 2025 10:12:44 GMT-0500 (Central Daylight Time),649124.5,139_m_f_h_a.png,I,z,1056,5,1,2076.600000000559,647047.8999999994,8036,VNB,A,4
3,test,5,0.0,1-Back,1,m,Mon Mar 24 2025 10:12:44 GMT-0500 (Central Daylight Time),651923.2000000002,071_y_f_n_a.png,I,m,1781,6,1,2792.600000000559,649130.5999999996,8036,VNB,A,5
3,test,5,1.0,1-Back,0,z,Mon Mar 24 2025 10:12:44 GMT-0500 (Central Daylight Time),653789.3999999994,124_o_f_n_a.png,I,m,838,7,1,1860.3999999994412,651929.0,8036,VNB,A,6
4,test,5,0.0,1-Back,1,m,Mon Mar 24 2025 10:12:44 GMT-0500 (Central Daylight Time),655972.0,139_m_f_d_a.png,I,m,1156,8,1,2176.5,653795.5,8036,VNB,A,7
5,test,5,0.0,1-Back,1,m,Mon Mar 24 2025 10:12:44 GMT-0500 (Central Daylight Time),657838.2000000002,109_y_m_h_a.png,I,m,845,9,1,1859.7000000001863,655978.5,8036,VNB,A,8
6,test,5,0.0,1-Back,1,m,Mon Mar 24 2025 10:12:44 GMT-0500 (Central Daylight Time),660120.8999999994,071_y_f_d_a.png,I,m,1251,10,1,2276.399999999441,657844.5,8036,VNB,A,9
7,test,5,0.0,1-Back,1,m,Mon Mar 24 2025 10:12:44 GMT-0500 (Central Daylight Time),662186.8999999994,165_m_m_n_a.png,I,m,1040,11,1,2059.199999999255,660127.7000000002,8036,VNB,A,10
7,test,5,1.0,1-Back,0,z,Mon Mar 24 2025 10:12:44 GMT-0500 (Central Daylight Time),665219.5999999996,139_m_f_n_a.png,I,None,2016,12,1,3026.399999999441,662193.2000000002,8036,VNB,A,11
8,test,5,0.0,1-Back,1,m,Mon Mar 24 2025 10:12:44 GMT-0500 (Central Daylight Time),667368.7000000002,039_o_m_h_a.png,I,m,1118,13,1,2143.300000000745,665225.3999999994,8036,VNB,A,12
9,test,5,0.0,1-Back,1,z,Mon Mar 24 2025 10:12:44 GMT-0500 (Central Daylight Time),669584.5,165_m_m_h_a.png,I,z,1193,14,1,2208.9000000003725,667375.5999999996,8036,VNB,A,13
9,test,5,1.0,1-Back,0,m,Mon Mar 24 2025 10:12:44 GMT-0500 (Central Daylight Time),672717.0999999996,124_o_f_d_a.png,I,None,2001,15,1,3126.2000000001863,669590.8999999994,8036,VNB,A,14
10,test,5,0.0,1-Back,1,m,Mon Mar 24 2025 10:12:44 GMT-0500 (Central Daylight Time),675466.2000000002,109_y_m_n_a.png,I,m,1724,16,1,2742.9000000003725,672723.2999999998,8036,VNB,A,15
11,test,5,0.0,1-Back,1,m,Mon Mar 24 2025 10:12:44 GMT-0500 (Central Daylight Time),677531.8999999994,071_y_f_h_a.png,I,m,1047,17,1,2059.5,675472.3999999994,8036,VNB,A,16
12,test,5,0.0,1-Back,1,m,Mon Mar 24 2025 10:12:44 GMT-0500 (Central Daylight Time),679531.2000000002,165_m_m_d_a.png,I,m,981,18,1,1993.1000000005588,677538.0999999996,8036,VNB,A,17
0,prac,1,0.0,2-Back,,,Mon Mar 24 2025 10:12:44 GMT-0500 (Central Daylight Time),679531.2000000002,139_m_f_n_a.png,I,space,4341,1,1,1993.1000000005588,677538.0999999996,8036,VNB,A,0
0,prac,1,0.0,2-Back,,,Mon Mar 24 2025 10:12:44 GMT-0500 (Central Daylight Time),679531.2000000002,124_o_f_h_a.png,I,space,4341,2,1,1993.1000000005588,677538.0999999996,8036,VNB,A,0
1,prac,1,0.0,2-Back,1,m,Mon Mar 24 2025 10:12:44 GMT-0500 (Central Daylight Time),802426.2999999998,039_o_m_d_a.png,I,m,1400,3,1,2191.7000000001863,800234.5999999996,8036,VNB,A,1
1,prac,1,1.0,2-Back,0,z,Mon Mar 24 2025 10:12:44 GMT-0500 (Central Daylight Time),805242.2000000002,165_m_m_h_a.png,I,None,2017,4,1,2808.7000000001863,802433.5,8036,VNB,A,2
2,prac,1,0.0,2-Back,1,m,Mon Mar 24 2025 10:12:44 GMT-0500 (Central Daylight Time),807707.8999999994,071_y_f_n_a.png,I,m,1654,5,1,2458.0999999996275,805249.7999999998,8036,VNB,A,3
2,prac,1,1.0,2-Back,0,z,Mon Mar 24 2025 10:12:44 GMT-0500 (Central Daylight Time),810390.7000000002,039_o_m_h_a.png,I,m,1877,6,1,2675.300000000745,807715.3999999994,8036,VNB,A,4
2,prac,1,1.0,2-Back,0,z,Mon Mar 24 2025 10:12:44 GMT-0500 (Central Daylight Time),812823.3999999994,109_y_m_n_a.png,I,m,1626,7,1,2425.5,810397.8999999994,8036,VNB,A,5
3,prac,1,0.0,2-Back,1,m,Mon Mar 24 2025 10:12:44 GMT-0500 (Central Daylight Time),815488.8999999994,139_m_f_d_a.png,I,m,1856,8,1,2657.699999999255,812831.2000000002,8036,VNB,A,6
3,prac,1,0.0,2-Back,0,m,Mon Mar 24 2025 10:12:44 GMT-0500 (Central Daylight Time),818321.0999999996,124_o_f_d_a.png,I,None,2001,9,1,2824.7000000001863,815496.3999999994,8036,VNB,A,7
4,prac,1,0.0,2-Back,1,m,Mon Mar 24 2025 10:12:44 GMT-0500 (Central Daylight Time),820437.2999999998,165_m_m_h_a.png,I,m,1327,10,1,2107.4000000003725,818329.8999999994,8036,VNB,A,8
4,prac,1,1.0,2-Back,0,z,Mon Mar 24 2025 10:12:44 GMT-0500 (Central Daylight Time),823053.0,071_y_f_d_a.png,I,m,1812,11,1,2608.2999999998137,820444.7000000002,8036,VNB,A,9
4,prac,1,0.0,2-Back,0,m,Mon Mar 24 2025 10:12:44 GMT-0500 (Central Daylight Time),825169.2000000002,039_o_m_n_a.png,I,z,1317,12,1,2108.5,823060.7000000002,8036,VNB,A,10
0,test,1,0.0,2-Back,,,Mon Mar 24 2025 10:12:44 GMT-0500 (Central Daylight Time),825169.2000000002,109_y_m_h_a.png,I,space,1320,1,1,2108.5,823060.7000000002,8036,VNB,A,0
0,test,1,0.0,2-Back,,,Mon Mar 24 2025 10:12:44 GMT-0500 (Central Daylight Time),825169.2000000002,124_o_f_n_a.png,I,space,1320,2,1,2108.5,823060.7000000002,8036,VNB,A,0
0,test,1,0.0,2-Back,0,z,Mon Mar 24 2025 10:12:44 GMT-0500 (Central Daylight Time),841731.0999999996,039_o_m_h_a.png,I,None,2016,3,1,3026.0999999996275,838705.0,8036,VNB,A,1
0,test,1,0.0,2-Back,0,m,Mon Mar 24 2025 10:12:44 GMT-0500 (Central Daylight Time),844763.0999999996,139_m_f_d_a.png,I,None,2015,4,1,3025.7999999998137,841737.2999999998,8036,VNB,A,2
0,test,1,1.0,2-Back,0,m,Mon Mar 24 2025 10:12:44 GMT-0500 (Central Daylight Time),846879.0999999996,109_y_m_n_a.png,I,z,1094,5,1,2109.7999999998137,844769.2999999998,8036,VNB,A,3
0,test,1,0.0,2-Back,0,z,Mon Mar 24 2025 10:12:44 GMT-0500 (Central Daylight Time),849911.7000000002,071_y_f_d_a.png,I,None,2015,6,1,3025.9000000003725,846885.7999999998,8036,VNB,A,4
0,test,1,0.0,2-Back,0,m,Mon Mar 24 2025 10:12:44 GMT-0500 (Central Daylight Time),851744.3999999994,165_m_m_h_a.png,I,z,810,7,1,1826.7999999998137,849917.5999999996,8036,VNB,A,5
1,test,1,1.0,2-Back,1,m,Mon Mar 24 2025 10:12:44 GMT-0500 (Central Daylight Time),854093.3999999994,071_y_f_n_a.png,I,m,1321,8,1,2342.399999999441,851751.0,8036,VNB,A,6
1,test,1,0.0,2-Back,0,z,Mon Mar 24 2025 10:12:44 GMT-0500 (Central Daylight Time),857125.7000000002,124_o_f_h_a.png,I,None,2015,9,1,3025.800000000745,854099.8999999994,8036,VNB,A,7
2,test,1,0.0,2-Back,1,m,Mon Mar 24 2025 10:12:44 GMT-0500 (Central Daylight Time),859358.7000000002,039_o_m_d_a.png,I,m,1211,10,1,2226.7000000001863,857132.0,8036,VNB,A,8
3,test,1,1.0,2-Back,1,m,Mon Mar 24 2025 10:12:44 GMT-0500 (Central Daylight Time),861208.0,165_m_m_d_a.png,I,m,824,11,1,1843.2000000001863,859364.7999999998,8036,VNB,A,9
4,test,1,0.0,2-Back,1,m,Mon Mar 24 2025 10:12:44 GMT-0500 (Central Daylight Time),863424.0,139_m_f_n_a.png,I,m,1193,12,1,2208.9000000003725,861215.0999999996,8036,VNB,A,10
5,test,1,0.0,2-Back,1,m,Mon Mar 24 2025 10:12:44 GMT-0500 (Central Daylight Time),865939.7999999998,071_y_f_h_a.png,I,m,1489,13,1,2509.2000000001863,863430.5999999996,8036,VNB,A,11
6,test,1,0.0,2-Back,1,z,Mon Mar 24 2025 10:12:44 GMT-0500 (Central Daylight Time),868605.5,165_m_m_n_a.png,I,z,1645,14,1,2659.4000000003725,865946.0999999996,8036,VNB,A,12
6,test,1,0.0,2-Back,0,m,Mon Mar 24 2025 10:12:44 GMT-0500 (Central Daylight Time),870921.5,109_y_m_d_a.png,I,z,1284,15,1,2309.2999999998137,868612.2000000002,8036,VNB,A,13
7,test,1,1.0,2-Back,1,m,Mon Mar 24 2025 10:12:44 GMT-0500 (Central Daylight Time),873487.5,139_m_f_h_a.png,I,m,1535,16,1,2559.5,870928.0,8036,VNB,A,14
7,test,1,0.0,2-Back,0,z,Mon Mar 24 2025 10:12:44 GMT-0500 (Central Daylight Time),876319.8999999994,124_o_f_d_a.png,I,m,1802,17,1,2825.699999999255,873494.2000000002,8036,VNB,A,15
8,test,1,0.0,2-Back,1,m,Mon Mar 24 2025 10:12:44 GMT-0500 (Central Daylight Time),878086.0999999996,039_o_m_n_a.png,I,m,737,18,1,1759.8999999994412,876326.2000000002,8036,VNB,A,16
0,test,2,0.0,2-Back,,,Mon Mar 24 2025 10:12:44 GMT-0500 (Central Daylight Time),878086.0999999996,165_m_m_h_a.png,I,space,1947,1,1,1759.8999999994412,876326.2000000002,8036,VNB,A,0
0,test,2,0.0,2-Back,,,Mon Mar 24 2025 10:12:44 GMT-0500 (Central Daylight Time),878086.0999999996,071_y_f_n_a.png,I,space,1947,2,1,1759.8999999994412,876326.2000000002,8036,VNB,A,0
0,test,2,1.0,2-Back,0,z,Mon Mar 24 2025 10:12:44 GMT-0500 (Central Daylight Time),887682.7000000002,124_o_f_h_a.png,I,m,1548,3,1,2559.300000000745,885123.3999999994,8036,VNB,A,1
1,test,2,0.0,2-Back,1,m,Mon Mar 24 2025 10:12:44 GMT-0500 (Central Daylight Time),890332.0999999996,039_o_m_d_a.png,I,m,1630,4,1,2643.0999999996275,887689.0,8036,VNB,A,2
1,test,2,0.0,2-Back,0,m,Mon Mar 24 2025 10:12:44 GMT-0500 (Central Daylight Time),892914.5999999996,139_m_f_d_a.png,I,z,1549,5,1,2575.7999999998137,890338.7999999998,8036,VNB,A,3
2,test,2,0.0,2-Back,1,m,Mon Mar 24 2025 10:12:44 GMT-0500 (Central Daylight Time),895314.0,109_y_m_h_a.png,I,m,1367,6,1,2392.5,892921.5,8036,VNB,A,4
2,test,2,0.0,2-Back,0,m,Mon Mar 24 2025 10:12:44 GMT-0500 (Central Daylight Time),897430.0,124_o_f_n_a.png,I,z,1087,7,1,2110.0,895320.0,8036,VNB,A,5
2,test,2,1.0,2-Back,0,z,Mon Mar 24 2025 10:12:44 GMT-0500 (Central Daylight Time),899379.0999999996,039_o_m_h_a.png,I,m,931,8,1,1942.5999999996275,897436.5,8036,VNB,A,6
2,test,2,0.0,2-Back,0,m,Mon Mar 24 2025 10:12:44 GMT-0500 (Central Daylight Time),902396.7999999998,071_y_f_d_a.png,I,None,2001,9,1,3011.5999999996275,899385.2000000002,8036,VNB,A,7
2,test,2,0.0,2-Back,0,m,Mon Mar 24 2025 10:12:44 GMT-0500 (Central Daylight Time),904811.0999999996,109_y_m_d_a.png,I,z,1390,10,1,2407.7999999998137,902403.2999999998,8036,VNB,A,8
2,test,2,0.0,2-Back,0,m,Mon Mar 24 2025 10:12:44 GMT-0500 (Central Daylight Time),907360.2000000002,165_m_m_n_a.png,I,z,1518,11,1,2541.800000000745,904818.3999999994,8036,VNB,A,9
2,test,2,0.0,2-Back,0,m,Mon Mar 24 2025 10:12:44 GMT-0500 (Central Daylight Time),910142.5999999996,139_m_f_h_a.png,I,z,1760,12,1,2775.899999999441,907366.7000000002,8036,VNB,A,10
3,test,2,1.0,2-Back,1,z,Mon Mar 24 2025 10:12:44 GMT-0500 (Central Daylight Time),912225.3999999994,039_o_m_n_a.png,I,z,1058,13,1,2076.899999999441,910148.5,8036,VNB,A,11
4,test,2,0.0,2-Back,1,m,Mon Mar 24 2025 10:12:44 GMT-0500 (Central Daylight Time),914557.8999999994,124_o_f_d_a.png,I,m,1304,14,1,2326.399999999441,912231.5,8036,VNB,A,12
4,test,2,0.0,2-Back,0,m,Mon Mar 24 2025 10:12:44 GMT-0500 (Central Daylight Time),916090.7999999998,071_y_f_h_a.png,I,z,507,15,1,1526.0999999996275,914564.7000000002,8036,VNB,A,13
5,test,2,0.0,2-Back,1,z,Mon Mar 24 2025 10:12:44 GMT-0500 (Central Daylight Time),917690.3999999994,165_m_m_d_a.png,I,z,575,16,1,1593.3999999994412,916097.0,8036,VNB,A,14
6,test,2,0.0,2-Back,1,m,Mon Mar 24 2025 10:12:44 GMT-0500 (Central Daylight Time),919639.7000000002,109_y_m_n_a.png,I,m,927,17,1,1942.7000000001863,917697.0,8036,VNB,A,15
7,test,2,1.0,2-Back,1,m,Mon Mar 24 2025 10:12:44 GMT-0500 (Central Daylight Time),921505.7000000002,139_m_f_n_a.png,I,m,841,18,1,1859.6000000005588,919646.0999999996,8036,VNB,A,16
0,test,3,1.0,2-Back,,,Mon Mar 24 2025 10:12:44 GMT-0500 (Central Daylight Time),921505.7000000002,039_o_m_n_a.png,I,space,1920,1,1,1859.6000000005588,919646.0999999996,8036,VNB,A,0
0,test,3,1.0,2-Back,,,Mon Mar 24 2025 10:12:44 GMT-0500 (Central Daylight Time),921505.7000000002,124_o_f_d_a.png,I,space,1920,2,1,1859.6000000005588,919646.0999999996,8036,VNB,A,0
1,test,3,0.0,2-Back,1,m,Mon Mar 24 2025 10:12:44 GMT-0500 (Central Daylight Time),930536.5,071_y_f_h_a.png,I,m,864,3,1,1976.4000000003725,928560.0999999996,8036,VNB,A,1
1,test,3,0.0,2-Back,0,z,Mon Mar 24 2025 10:12:44 GMT-0500 (Central Daylight Time),932418.8999999994,139_m_f_d_a.png,I,m,865,4,1,1876.0999999996275,930542.7999999998,8036,VNB,A,2
2,test,3,1.0,2-Back,1,m,Mon Mar 24 2025 10:12:44 GMT-0500 (Central Daylight Time),934619.5,109_y_m_n_a.png,I,m,1174,5,1,2194.5,932425.0,8036,VNB,A,3
3,test,3,0.0,2-Back,1,m,Mon Mar 24 2025 10:12:44 GMT-0500 (Central Daylight Time),937217.2999999998,039_o_m_h_a.png,I,m,1567,6,1,2591.5,934625.7999999998,8036,VNB,A,4
3,test,3,0.0,2-Back,0,z,Mon Mar 24 2025 10:12:44 GMT-0500 (Central Daylight Time),939566.7000000002,071_y_f_n_a.png,I,m,1328,7,1,2343.100000000559,937223.5999999996,8036,VNB,A,5
3,test,3,1.0,2-Back,0,m,Mon Mar 24 2025 10:12:44 GMT-0500 (Central Daylight Time),942365.8999999994,165_m_m_d_a.png,I,z,1770,8,1,2792.899999999441,939573.0,8036,VNB,A,6
3,test,3,0.0,2-Back,0,m,Mon Mar 24 2025 10:12:44 GMT-0500 (Central Daylight Time),944481.7000000002,109_y_m_d_a.png,I,z,1091,9,1,2109.4000000003725,942372.2999999998,8036,VNB,A,7
4,test,3,0.0,2-Back,1,m,Mon Mar 24 2025 10:12:44 GMT-0500 (Central Daylight Time),946447.8999999994,124_o_f_h_a.png,I,m,935,10,1,1959.8999999994412,944488.0,8036,VNB,A,8
4,test,3,1.0,2-Back,0,m,Mon Mar 24 2025 10:12:44 GMT-0500 (Central Daylight Time),948047.2000000002,139_m_f_n_a.png,I,z,569,11,1,1592.9000000003725,946454.2999999998,8036,VNB,A,9
4,test,3,1.0,2-Back,0,z,Mon Mar 24 2025 10:12:44 GMT-0500 (Central Daylight Time),949630.2000000002,165_m_m_h_a.png,I,m,554,12,1,1576.800000000745,948053.3999999994,8036,VNB,A,10
5,test,3,0.0,2-Back,1,m,Mon Mar 24 2025 10:12:44 GMT-0500 (Central Daylight Time),951246.5,071_y_f_d_a.png,I,m,587,13,1,1609.7999999998137,949636.7000000002,8036,VNB,A,11
5,test,3,0.0,2-Back,0,m,Mon Mar 24 2025 10:12:44 GMT-0500 (Central Daylight Time),952862.2000000002,124_o_f_n_a.png,I,z,587,14,1,1609.4000000003725,951252.7999999998,8036,VNB,A,12
6,test,3,0.0,2-Back,1,z,Mon Mar 24 2025 10:12:44 GMT-0500 (Central Daylight Time),954595.2000000002,039_o_m_d_a.png,I,z,707,15,1,1726.4000000003725,952868.7999999998,8036,VNB,A,13
7,test,3,1.0,2-Back,1,m,Mon Mar 24 2025 10:12:44 GMT-0500 (Central Daylight Time),956278.0999999996,139_m_f_h_a.png,I,m,654,16,1,1676.2999999998137,954601.7999999998,8036,VNB,A,14
8,test,3,0.0,2-Back,1,m,Mon Mar 24 2025 10:12:44 GMT-0500 (Central Daylight Time),958527.5999999996,165_m_m_n_a.png,I,m,1219,17,1,2243.399999999441,956284.2000000002,8036,VNB,A,15
8,test,3,0.0,2-Back,0,z,Mon Mar 24 2025 10:12:44 GMT-0500 (Central Daylight Time),960493.5999999996,109_y_m_h_a.png,I,m,945,18,1,1960.0999999996275,958533.5,8036,VNB,A,16
0,test,4,0.0,2-Back,,,Mon Mar 24 2025 10:12:44 GMT-0500 (Central Daylight Time),960493.5999999996,139_m_f_n_a.png,I,space,2036,1,1,1960.0999999996275,958533.5,8036,VNB,A,0
0,test,4,0.0,2-Back,,,Mon Mar 24 2025 10:12:44 GMT-0500 (Central Daylight Time),960493.5999999996,039_o_m_n_a.png,I,space,2036,2,1,1960.0999999996275,958533.5,8036,VNB,A,0
1,test,4,1.0,2-Back,1,m,Mon Mar 24 2025 10:12:44 GMT-0500 (Central Daylight Time),969690.7999999998,109_y_m_h_a.png,I,m,1058,3,1,2076.4000000003725,967614.3999999994,8036,VNB,A,1
2,test,4,1.0,2-Back,1,m,Mon Mar 24 2025 10:12:44 GMT-0500 (Central Daylight Time),971457.8999999994,124_o_f_d_a.png,I,m,735,4,1,1760.5,969697.3999999994,8036,VNB,A,2
2,test,4,0.0,2-Back,0,z,Mon Mar 24 2025 10:12:44 GMT-0500 (Central Daylight Time),973172.7999999998,039_o_m_h_a.png,I,m,688,5,1,1708.0999999996275,971464.7000000002,8036,VNB,A,3
2,test,4,0.0,2-Back,0,m,Mon Mar 24 2025 10:12:44 GMT-0500 (Central Daylight Time),975272.5999999996,165_m_m_n_a.png,I,z,1068,6,1,2093.5,973179.0999999996,8036,VNB,A,4
2,test,4,0.0,2-Back,0,m,Mon Mar 24 2025 10:12:44 GMT-0500 (Central Daylight Time),977255.0,139_m_f_d_a.png,I,z,953,7,1,1976.2999999998137,975278.7000000002,8036,VNB,A,5
2,test,4,0.0,2-Back,0,z,Mon Mar 24 2025 10:12:44 GMT-0500 (Central Daylight Time),979087.5999999996,071_y_f_n_a.png,I,m,802,8,1,1826.0999999996275,977261.5,8036,VNB,A,6
3,test,4,1.0,2-Back,1,m,Mon Mar 24 2025 10:12:44 GMT-0500 (Central Daylight Time),980753.7000000002,124_o_f_h_a.png,I,m,633,9,1,1659.9000000003725,979093.7999999998,8036,VNB,A,7
4,test,4,0.0,2-Back,1,m,Mon Mar 24 2025 10:12:44 GMT-0500 (Central Daylight Time),982653.2000000002,165_m_m_h_a.png,I,m,871,10,1,1893.1000000005588,980760.0999999996,8036,VNB,A,8
4,test,4,0.0,2-Back,0,m,Mon Mar 24 2025 10:12:44 GMT-0500 (Central Daylight Time),984302.7000000002,071_y_f_d_a.png,I,z,620,11,1,1642.9000000003725,982659.7999999998,8036,VNB,A,9
5,test,4,0.0,2-Back,1,m,Mon Mar 24 2025 10:12:44 GMT-0500 (Central Daylight Time),985818.7999999998,109_y_m_n_a.png,I,m,490,12,1,1509.4000000003725,984309.3999999994,8036,VNB,A,10
5,test,4,0.0,2-Back,0,z,Mon Mar 24 2025 10:12:44 GMT-0500 (Central Daylight Time),987801.5999999996,039_o_m_d_a.png,I,m,950,13,1,1976.0,985825.5999999996,8036,VNB,A,11
6,test,4,1.0,2-Back,1,m,Mon Mar 24 2025 10:12:44 GMT-0500 (Central Daylight Time),989567.7000000002,139_m_f_h_a.png,I,m,735,14,1,1759.5,987808.2000000002,8036,VNB,A,12
6,test,4,1.0,2-Back,0,m,Mon Mar 24 2025 10:12:44 GMT-0500 (Central Daylight Time),991133.7999999998,071_y_f_h_a.png,I,z,546,15,1,1559.7000000001863,989574.0999999996,8036,VNB,A,13
7,test,4,0.0,2-Back,1,m,Mon Mar 24 2025 10:12:44 GMT-0500 (Central Daylight Time),993200.0,124_o_f_n_a.png,I,m,1043,16,1,2059.600000000559,991140.3999999994,8036,VNB,A,14
7,test,4,0.0,2-Back,0,m,Mon Mar 24 2025 10:12:44 GMT-0500 (Central Daylight Time),995033.7000000002,109_y_m_d_a.png,I,z,801,17,1,1827.0,993206.7000000002,8036,VNB,A,15
8,test,4,1.0,2-Back,1,m,Mon Mar 24 2025 10:12:44 GMT-0500 (Central Daylight Time),996815.3999999994,165_m_m_d_a.png,I,m,753,18,1,1775.2999999998137,995040.0999999996,8036,VNB,A,16
0,test,5,1.0,2-Back,,,Mon Mar 24 2025 10:12:44 GMT-0500 (Central Daylight Time),996815.3999999994,071_y_f_d_a.png,I,space,2034,1,1,1775.2999999998137,995040.0999999996,8036,VNB,A,0
0,test,5,1.0,2-Back,,,Mon Mar 24 2025 10:12:44 GMT-0500 (Central Daylight Time),996815.3999999994,124_o_f_h_a.png,I,space,2034,2,1,1775.2999999998137,995040.0999999996,8036,VNB,A,0
0,test,5,1.0,2-Back,0,z,Mon Mar 24 2025 10:12:44 GMT-0500 (Central Daylight Time),1005563.0,039_o_m_d_a.png,I,m,567,3,1,1593.5,1003969.5,8036,VNB,A,1
1,test,5,1.0,2-Back,1,m,Mon Mar 24 2025 10:12:44 GMT-0500 (Central Daylight Time),1007412.2000000002,139_m_f_n_a.png,I,m,830,4,1,1842.800000000745,1005569.3999999994,8036,VNB,A,2
2,test,5,0.0,2-Back,1,m,Mon Mar 24 2025 10:12:44 GMT-0500 (Central Daylight Time),1009161.5999999996,165_m_m_h_a.png,I,m,725,5,1,1743.2999999998137,1007418.2999999998,8036,VNB,A,3
2,test,5,0.0,2-Back,0,z,Mon Mar 24 2025 10:12:44 GMT-0500 (Central Daylight Time),1010877.7000000002,071_y_f_n_a.png,I,m,696,6,1,1709.6000000005588,1009168.0999999996,8036,VNB,A,4
3,test,5,0.0,2-Back,1,m,Mon Mar 24 2025 10:12:44 GMT-0500 (Central Daylight Time),1012843.5999999996,124_o_f_d_a.png,I,m,949,7,1,1959.5,1010884.0999999996,8036,VNB,A,5
4,test,5,0.0,2-Back,1,m,Mon Mar 24 2025 10:12:44 GMT-0500 (Central Daylight Time),1014959.7999999998,039_o_m_h_a.png,I,m,1093,8,1,2110.0,1012849.7999999998,8036,VNB,A,6
5,test,5,1.0,2-Back,1,z,Mon Mar 24 2025 10:12:44 GMT-0500 (Central Daylight Time),1016792.5999999996,139_m_f_d_a.png,I,z,801,9,1,1825.8999999994412,1014966.7000000002,8036,VNB,A,7
5,test,5,0.0,2-Back,0,m,Mon Mar 24 2025 10:12:44 GMT-0500 (Central Daylight Time),1018509.8999999994,109_y_m_n_a.png,I,z,689,10,1,1710.3999999994412,1016799.5,8036,VNB,A,8
5,test,5,0.0,2-Back,0,m,Mon Mar 24 2025 10:12:44 GMT-0500 (Central Daylight Time),1020141.5,165_m_m_n_a.png,I,z,612,11,1,1625.0,1018516.5,8036,VNB,A,9
6,test,5,0.0,2-Back,1,m,Mon Mar 24 2025 10:12:44 GMT-0500 (Central Daylight Time),1021840.8999999994,071_y_f_h_a.png,I,m,668,12,1,1693.0,1020147.8999999994,8036,VNB,A,10
7,test,5,0.0,2-Back,1,m,Mon Mar 24 2025 10:12:44 GMT-0500 (Central Daylight Time),1023871.0999999996,109_y_m_d_a.png,I,m,1013,13,1,2023.8999999994412,1021847.2000000002,8036,VNB,A,11
7,test,5,1.0,2-Back,0,z,Mon Mar 24 2025 10:12:44 GMT-0500 (Central Daylight Time),1025439.7999999998,139_m_f_h_a.png,I,m,536,14,1,1562.2000000001863,1023877.5999999996,8036,VNB,A,12
8,test,5,0.0,2-Back,1,m,Mon Mar 24 2025 10:12:44 GMT-0500 (Central Daylight Time),1027355.8999999994,039_o_m_n_a.png,I,m,897,15,1,1909.8999999994412,1025446.0,8036,VNB,A,13
8,test,5,0.0,2-Back,0,m,Mon Mar 24 2025 10:12:44 GMT-0500 (Central Daylight Time),1029855.0,165_m_m_d_a.png,I,z,1469,16,1,2492.4000000003725,1027362.5999999996,8036,VNB,A,14
8,test,5,0.0,2-Back,0,z,Mon Mar 24 2025 10:12:44 GMT-0500 (Central Daylight Time),1031671.2000000002,124_o_f_n_a.png,I,m,795,17,1,1809.800000000745,1029861.3999999994,8036,VNB,A,15
9,test,5,1.0,2-Back,1,m,Mon Mar 24 2025 10:12:44 GMT-0500 (Central Daylight Time),1033087.3999999994,109_y_m_h_a.png,I,m,395,18,1,1409.5999999996275,1031677.7999999998,8036,VNB,A,16
