acc_sum,block,block_c,block_cond,con_img,correct,correct_response,datetime,endtime,face,jitter,line,project,response,response_time,row_sel,session_number,start_end,starttime,subject_id,task,task_vers,trial
0,prac,1,A,haborder.png,0,m,Fri Apr 04 2025 13:37:04 GMT-0500 (Central Daylight Time),66819.0,CFD-WM-012-007-HC.jpg,1700,solid,O,None,1515,9,1,3998.89999999851,62820.10000000149,7089,ATS,B,1
1,prac,1,A,haborder.png,1,m,Fri Apr 04 2025 13:37:04 GMT-0500 (Central Daylight Time),70151.40000000596,CFD-BM-015-017-HC.jpg,1700,solid,O,m,834,1,1,7331.30000000447,62820.10000000149,7089,ATS,B,2
1,prac,1,A,haborder.png,0,z,Fri Apr 04 2025 13:37:04 GMT-0500 (Central Daylight Time),73317.0,CFD-WF-026-008-A.jpg,1600,solid,O,m,777,10,1,10496.89999999851,62820.10000000149,7089,ATS,B,3
1,prac,1,A,haborder.png,0,m,Fri Apr 04 2025 13:37:04 GMT-0500 (Central Daylight Time),77015.70000000298,CFD-WM-011-006-HC.jpg,1400,solid,O,None,1515,7,1,14195.60000000149,62820.10000000149,7089,ATS,B,4
1,prac,1,A,haborder.png,0,z,Fri Apr 04 2025 13:37:04 GMT-0500 (Central Daylight Time),80364.30000000447,CFD-BM-037-041-A.jpg,1600,solid,O,m,953,2,1,17544.20000000298,62820.10000000149,7089,ATS,B,5
1,prac,1,A,haborder.png,0,m,Fri Apr 04 2025 13:37:04 GMT-0500 (Central Daylight Time),84163.5,CFD-WF-011-006-HC.jpg,1500,solid,O,None,1516,11,1,21343.39999999851,62820.10000000149,7089,ATS,B,6
2,prac,1,A,haborder.png,1,z,Fri Apr 04 2025 13:37:04 GMT-0500 (Central Daylight Time),87445.90000000596,CFD-BF-051-043-A.jpg,1000,solid,O,z,1494,4,1,24625.80000000447,62820.10000000149,7089,ATS,B,7
2,prac,1,A,haborder.png,0,z,Fri Apr 04 2025 13:37:04 GMT-0500 (Central Daylight Time),91644.5,CFD-WM-009-009-A.jpg,1900,solid,O,None,1516,8,1,28824.39999999851,62820.10000000149,7089,ATS,B,8
2,prac,1,A,haborder.png,0,z,Fri Apr 04 2025 13:37:04 GMT-0500 (Central Daylight Time),94943.40000000596,CFD-WF-013-015-A.jpg,1000,solid,O,None,1516,12,1,32123.30000000447,62820.10000000149,7089,ATS,B,9
3,prac,1,A,haborder.png,1,m,Fri Apr 04 2025 13:37:04 GMT-0500 (Central Daylight Time),98142.5,CFD-BM-020-024-HC.jpg,1500,solid,O,m,902,3,1,35322.39999999851,62820.10000000149,7089,ATS,B,10
3,prac,1,A,haborder.png,0,z,Fri Apr 04 2025 13:37:04 GMT-0500 (Central Daylight Time),101641.40000000596,CFD-BF-050-012-A.jpg,1200,solid,O,None,1516,6,1,38821.30000000447,62820.10000000149,7089,ATS,B,11
3,prac,1,A,haborder.png,0,m,Fri Apr 04 2025 13:37:04 GMT-0500 (Central Daylight Time),105939.90000000596,CFD-BF-035-007-HC.jpg,2000,solid,O,None,1516,5,1,43119.80000000447,62820.10000000149,7089,ATS,B,12
0,prac,2,A,haborder.png,0,m,Fri Apr 04 2025 13:37:04 GMT-0500 (Central Daylight Time),121268.60000000149,CFD-BF-035-007-HC.jpg,2000,solid,O,None,1517,5,1,58448.5,62820.10000000149,7089,ATS,B,1
0,prac,2,A,haborder.png,0,m,Fri Apr 04 2025 13:37:04 GMT-0500 (Central Daylight Time),125067.20000000298,CFD-WF-011-006-HC.jpg,1500,solid,O,None,1516,11,1,62247.10000000149,62820.10000000149,7089,ATS,B,2
0,prac,2,A,haborder.png,0,m,Fri Apr 04 2025 13:37:04 GMT-0500 (Central Daylight Time),129066.20000000298,CFD-BM-015-017-HC.jpg,1700,solid,O,None,1516,1,1,66246.10000000149,62820.10000000149,7089,ATS,B,3
0,prac,2,A,haborder.png,0,m,Fri Apr 04 2025 13:37:04 GMT-0500 (Central Daylight Time),133065.0,CFD-WM-012-007-HC.jpg,1700,solid,O,None,1515,9,1,70244.89999999851,62820.10000000149,7089,ATS,B,4
1,prac,2,A,haborder.png,1,z,Fri Apr 04 2025 13:37:04 GMT-0500 (Central Daylight Time),135980.5,CFD-BF-051-043-A.jpg,1000,solid,O,z,1120,4,1,73160.39999999851,62820.10000000149,7089,ATS,B,5
2,prac,2,A,haborder.png,1,z,Fri Apr 04 2025 13:37:04 GMT-0500 (Central Daylight Time),138663.20000000298,CFD-WF-013-015-A.jpg,1000,solid,O,z,892,12,1,75843.10000000149,62820.10000000149,7089,ATS,B,6
2,prac,2,A,haborder.png,0,m,Fri Apr 04 2025 13:37:04 GMT-0500 (Central Daylight Time),141878.70000000298,CFD-BM-020-024-HC.jpg,1500,solid,O,z,917,3,1,79058.60000000149,62820.10000000149,7089,ATS,B,7
3,prac,2,A,haborder.png,1,z,Fri Apr 04 2025 13:37:04 GMT-0500 (Central Daylight Time),145477.70000000298,CFD-WF-026-008-A.jpg,1600,solid,O,z,1203,10,1,82657.60000000149,62820.10000000149,7089,ATS,B,8
4,prac,2,A,haborder.png,1,z,Fri Apr 04 2025 13:37:04 GMT-0500 (Central Daylight Time),148890.80000000447,CFD-WM-009-009-A.jpg,1900,solid,O,z,671,8,1,86070.70000000298,62820.10000000149,7089,ATS,B,9
5,prac,2,A,haborder.png,1,z,Fri Apr 04 2025 13:37:04 GMT-0500 (Central Daylight Time),151958.90000000596,CFD-BM-037-041-A.jpg,1600,solid,O,z,676,2,1,89138.80000000447,62820.10000000149,7089,ATS,B,10
6,prac,2,A,haborder.png,1,m,Fri Apr 04 2025 13:37:04 GMT-0500 (Central Daylight Time),154824.80000000447,CFD-WM-011-006-HC.jpg,1400,solid,O,m,682,7,1,92004.70000000298,62820.10000000149,7089,ATS,B,11
7,prac,2,A,haborder.png,1,z,Fri Apr 04 2025 13:37:04 GMT-0500 (Central Daylight Time),157473.80000000447,CFD-BF-050-012-A.jpg,1200,solid,O,z,656,6,1,94653.70000000298,62820.10000000149,7089,ATS,B,12
1,prac,1,B,mfborder.png,1,z,Fri Apr 04 2025 13:37:04 GMT-0500 (Central Daylight Time),202526.5,CFD-WF-011-006-HC.jpg,1000,dash,O,z,1182,12,1,2982.5999999940395,199543.90000000596,7089,ATS,B,1
2,prac,1,B,mfborder.png,1,m,Fri Apr 04 2025 13:37:04 GMT-0500 (Central Daylight Time),205958.70000000298,CFD-BM-020-024-HC.jpg,1700,dash,O,m,943,1,1,6414.79999999702,199543.90000000596,7089,ATS,B,2
3,prac,1,B,mfborder.png,1,z,Fri Apr 04 2025 13:37:04 GMT-0500 (Central Daylight Time),209141.0,CFD-BF-027-013-HC.jpg,1500,dash,O,z,887,3,1,9597.09999999404,199543.90000000596,7089,ATS,B,3
4,prac,1,B,mfborder.png,1,z,Fri Apr 04 2025 13:37:04 GMT-0500 (Central Daylight Time),212440.0,CFD-WF-026-008-A.jpg,1500,dash,O,z,999,11,1,12896.09999999404,199543.90000000596,7089,ATS,B,4
5,prac,1,B,mfborder.png,1,z,Fri Apr 04 2025 13:37:04 GMT-0500 (Central Daylight Time),215938.80000000447,CFD-WF-027-007-HC.jpg,1900,dash,O,z,813,8,1,16394.89999999851,199543.90000000596,7089,ATS,B,5
6,prac,1,B,mfborder.png,1,m,Fri Apr 04 2025 13:37:04 GMT-0500 (Central Daylight Time),219121.30000000447,CFD-WM-009-009-A.jpg,1700,dash,O,m,697,9,1,19577.39999999851,199543.90000000596,7089,ATS,B,6
7,prac,1,B,mfborder.png,1,m,Fri Apr 04 2025 13:37:04 GMT-0500 (Central Daylight Time),221937.0,CFD-BM-041-048-A.jpg,1600,dash,O,m,432,2,1,22393.09999999404,199543.90000000596,7089,ATS,B,7
8,prac,1,B,mfborder.png,1,m,Fri Apr 04 2025 13:37:04 GMT-0500 (Central Daylight Time),224869.70000000298,CFD-WM-012-007-HC.jpg,1600,dash,O,m,544,10,1,25325.79999999702,199543.90000000596,7089,ATS,B,8
9,prac,1,B,mfborder.png,1,m,Fri Apr 04 2025 13:37:04 GMT-0500 (Central Daylight Time),227618.6000000015,CFD-WM-037-060-A.jpg,1200,dash,O,m,756,6,1,28074.69999999553,199543.90000000596,7089,ATS,B,9
10,prac,1,B,mfborder.png,1,z,Fri Apr 04 2025 13:37:04 GMT-0500 (Central Daylight Time),230051.0,CFD-BF-051-043-A.jpg,1000,dash,O,z,647,4,1,30507.09999999404,199543.90000000596,7089,ATS,B,10
11,prac,1,B,mfborder.png,1,m,Fri Apr 04 2025 13:37:04 GMT-0500 (Central Daylight Time),233933.30000000447,CFD-BM-037-041-A.jpg,2000,dash,O,m,1094,5,1,34389.39999999851,199543.90000000596,7089,ATS,B,11
12,prac,1,B,mfborder.png,1,z,Fri Apr 04 2025 13:37:04 GMT-0500 (Central Daylight Time),237182.30000000447,CFD-BF-035-007-HC.jpg,1400,dash,O,z,1052,7,1,37638.39999999851,199543.90000000596,7089,ATS,B,12
1,test,1,A,haborder.png,1,z,Fri Apr 04 2025 13:37:04 GMT-0500 (Central Daylight Time),256825.80000000447,CFD-WF-026-008-A.jpg,1600,solid,O,z,933,10,1,2565.39999999851,254260.40000000596,7089,ATS,B,1
2,test,1,A,haborder.png,1,z,Fri Apr 04 2025 13:37:04 GMT-0500 (Central Daylight Time),258825.40000000596,CFD-WF-013-015-A.jpg,1000,solid,O,z,966,12,1,4565.0,254260.40000000596,7089,ATS,B,2
3,test,1,A,haborder.png,1,m,Fri Apr 04 2025 13:37:04 GMT-0500 (Central Daylight Time),260824.70000000298,CFD-BM-020-024-HC.jpg,1500,solid,O,m,467,3,1,6564.29999999702,254260.40000000596,7089,ATS,B,3
4,test,1,A,haborder.png,1,m,Fri Apr 04 2025 13:37:04 GMT-0500 (Central Daylight Time),263174.1000000015,CFD-WM-012-007-HC.jpg,1700,solid,O,m,621,9,1,8913.69999999553,254260.40000000596,7089,ATS,B,4
5,test,1,A,haborder.png,1,z,Fri Apr 04 2025 13:37:04 GMT-0500 (Central Daylight Time),265423.30000000447,CFD-BM-037-041-A.jpg,1600,solid,O,z,626,2,1,11162.89999999851,254260.40000000596,7089,ATS,B,5
6,test,1,A,haborder.png,1,z,Fri Apr 04 2025 13:37:04 GMT-0500 (Central Daylight Time),268188.90000000596,CFD-WM-009-009-A.jpg,1900,solid,O,z,838,8,1,13928.5,254260.40000000596,7089,ATS,B,6
7,test,1,A,haborder.png,1,m,Fri Apr 04 2025 13:37:04 GMT-0500 (Central Daylight Time),270971.5,CFD-BM-015-017-HC.jpg,1700,solid,O,m,1055,1,1,16711.09999999404,254260.40000000596,7089,ATS,B,7
8,test,1,A,haborder.png,1,z,Fri Apr 04 2025 13:37:04 GMT-0500 (Central Daylight Time),272887.700000003,CFD-WF-013-015-A.jpg,1000,solid,O,z,889,12,1,18627.29999999702,254260.40000000596,7089,ATS,B,8
9,test,1,A,haborder.png,1,m,Fri Apr 04 2025 13:37:04 GMT-0500 (Central Daylight Time),275270.200000003,CFD-WM-012-007-HC.jpg,1700,solid,O,m,654,9,1,21009.79999999702,254260.40000000596,7089,ATS,B,9
10,test,1,A,haborder.png,1,m,Fri Apr 04 2025 13:37:04 GMT-0500 (Central Daylight Time),277286.200000003,CFD-WM-011-006-HC.jpg,1400,solid,O,m,595,7,1,23025.79999999702,254260.40000000596,7089,ATS,B,10
11,test,1,A,haborder.png,1,m,Fri Apr 04 2025 13:37:04 GMT-0500 (Central Daylight Time),279885.5,CFD-BF-035-007-HC.jpg,2000,solid,O,m,570,5,1,25625.09999999404,254260.40000000596,7089,ATS,B,11
12,test,1,A,haborder.png,1,m,Fri Apr 04 2025 13:37:04 GMT-0500 (Central Daylight Time),281951.6000000015,CFD-WF-011-006-HC.jpg,1500,solid,O,m,535,11,1,27691.19999999553,254260.40000000596,7089,ATS,B,12
13,test,1,A,haborder.png,1,z,Fri Apr 04 2025 13:37:04 GMT-0500 (Central Daylight Time),283501.1000000015,CFD-BF-051-043-A.jpg,1000,solid,O,z,530,4,1,29240.69999999553,254260.40000000596,7089,ATS,B,13
14,test,1,A,haborder.png,1,z,Fri Apr 04 2025 13:37:04 GMT-0500 (Central Daylight Time),285034.0,CFD-BF-051-043-A.jpg,1000,solid,O,z,507,4,1,30773.59999999404,254260.40000000596,7089,ATS,B,14
15,test,1,A,haborder.png,1,m,Fri Apr 04 2025 13:37:04 GMT-0500 (Central Daylight Time),287816.30000000447,CFD-BF-035-007-HC.jpg,2000,solid,O,m,752,5,1,33555.89999999851,254260.40000000596,7089,ATS,B,15
16,test,1,A,haborder.png,1,z,Fri Apr 04 2025 13:37:04 GMT-0500 (Central Daylight Time),290196.200000003,CFD-WF-026-008-A.jpg,1600,solid,O,z,763,10,1,35935.79999999702,254260.40000000596,7089,ATS,B,16
17,test,1,A,haborder.png,1,z,Fri Apr 04 2025 13:37:04 GMT-0500 (Central Daylight Time),292215.0,CFD-BF-050-012-A.jpg,1200,solid,O,z,794,6,1,37954.59999999404,254260.40000000596,7089,ATS,B,17
18,test,1,A,haborder.png,1,m,Fri Apr 04 2025 13:37:04 GMT-0500 (Central Daylight Time),294397.700000003,CFD-BM-020-024-HC.jpg,1500,solid,O,m,653,3,1,40137.29999999702,254260.40000000596,7089,ATS,B,18
19,test,1,A,haborder.png,1,m,Fri Apr 04 2025 13:37:04 GMT-0500 (Central Daylight Time),296380.40000000596,CFD-WM-011-006-HC.jpg,1400,solid,O,m,563,7,1,42120.0,254260.40000000596,7089,ATS,B,19
20,test,1,A,haborder.png,1,z,Fri Apr 04 2025 13:37:04 GMT-0500 (Central Daylight Time),298199.5,CFD-BF-050-012-A.jpg,1200,solid,O,z,588,6,1,43939.09999999404,254260.40000000596,7089,ATS,B,20
21,test,1,A,haborder.png,1,m,Fri Apr 04 2025 13:37:04 GMT-0500 (Central Daylight Time),300478.6000000015,CFD-BM-015-017-HC.jpg,1700,solid,O,m,561,1,1,46218.19999999553,254260.40000000596,7089,ATS,B,21
21,test,1,A,haborder.png,0,z,Fri Apr 04 2025 13:37:04 GMT-0500 (Central Daylight Time),303078.5,CFD-WM-009-009-A.jpg,1900,solid,O,m,671,8,1,48818.09999999404,254260.40000000596,7089,ATS,B,22
21,test,1,A,haborder.png,0,z,Fri Apr 04 2025 13:37:04 GMT-0500 (Central Daylight Time),305727.5,CFD-BM-037-041-A.jpg,1600,solid,O,m,1018,2,1,51467.09999999404,254260.40000000596,7089,ATS,B,23
21,test,1,A,haborder.png,0,m,Fri Apr 04 2025 13:37:04 GMT-0500 (Central Daylight Time),308759.90000000596,CFD-WF-011-006-HC.jpg,1500,solid,O,None,1516,11,1,54499.5,254260.40000000596,7089,ATS,B,24
1,test,1,B,mfborder.png,1,z,Fri Apr 04 2025 13:37:04 GMT-0500 (Central Daylight Time),327703.6000000015,CFD-BF-035-007-HC.jpg,1400,dash,O,z,1318,7,1,2747.60000000149,324956.0,7089,ATS,B,1
2,test,1,B,mfborder.png,1,z,Fri Apr 04 2025 13:37:04 GMT-0500 (Central Daylight Time),329619.90000000596,CFD-WF-011-006-HC.jpg,1000,dash,O,z,889,12,1,4663.9000000059605,324956.0,7089,ATS,B,2
3,test,1,B,mfborder.png,1,z,Fri Apr 04 2025 13:37:04 GMT-0500 (Central Daylight Time),331770.40000000596,CFD-BF-027-013-HC.jpg,1500,dash,O,z,617,3,1,6814.4000000059605,324956.0,7089,ATS,B,3
4,test,1,B,mfborder.png,1,z,Fri Apr 04 2025 13:37:04 GMT-0500 (Central Daylight Time),334035.200000003,CFD-WF-026-008-A.jpg,1500,dash,O,z,747,11,1,9079.20000000298,324956.0,7089,ATS,B,4
5,test,1,B,mfborder.png,1,z,Fri Apr 04 2025 13:37:04 GMT-0500 (Central Daylight Time),335618.0,CFD-WF-011-006-HC.jpg,1000,dash,O,z,566,12,1,10662.0,324956.0,7089,ATS,B,5
6,test,1,B,mfborder.png,1,z,Fri Apr 04 2025 13:37:04 GMT-0500 (Central Daylight Time),338267.1000000015,CFD-WF-027-007-HC.jpg,1900,dash,O,z,724,8,1,13311.10000000149,324956.0,7089,ATS,B,6
7,test,1,B,mfborder.png,1,m,Fri Apr 04 2025 13:37:04 GMT-0500 (Central Daylight Time),340216.700000003,CFD-WM-037-060-A.jpg,1200,dash,O,m,717,6,1,15260.70000000298,324956.0,7089,ATS,B,7
8,test,1,B,mfborder.png,1,m,Fri Apr 04 2025 13:37:04 GMT-0500 (Central Daylight Time),342582.5,CFD-BM-041-048-A.jpg,1600,dash,O,m,737,2,1,17626.5,324956.0,7089,ATS,B,8
8,test,1,B,mfborder.png,0,z,Fri Apr 04 2025 13:37:04 GMT-0500 (Central Daylight Time),344898.200000003,CFD-BF-051-043-A.jpg,1000,dash,O,m,1298,4,1,19942.20000000298,324956.0,7089,ATS,B,9
9,test,1,B,mfborder.png,1,m,Fri Apr 04 2025 13:37:04 GMT-0500 (Central Daylight Time),347148.0,CFD-WM-012-007-HC.jpg,1600,dash,O,m,623,10,1,22192.0,324956.0,7089,ATS,B,10
10,test,1,B,mfborder.png,1,m,Fri Apr 04 2025 13:37:04 GMT-0500 (Central Daylight Time),349963.6000000015,CFD-BM-037-041-A.jpg,2000,dash,O,m,790,5,1,25007.60000000149,324956.0,7089,ATS,B,11
11,test,1,B,mfborder.png,1,m,Fri Apr 04 2025 13:37:04 GMT-0500 (Central Daylight Time),352212.80000000447,CFD-WM-009-009-A.jpg,1700,dash,O,m,530,9,1,27256.80000000447,324956.0,7089,ATS,B,12
12,test,1,B,mfborder.png,1,m,Fri Apr 04 2025 13:37:04 GMT-0500 (Central Daylight Time),354512.0,CFD-BM-041-048-A.jpg,1600,dash,O,m,675,2,1,29556.0,324956.0,7089,ATS,B,13
13,test,1,B,mfborder.png,1,m,Fri Apr 04 2025 13:37:04 GMT-0500 (Central Daylight Time),356877.80000000447,CFD-BM-020-024-HC.jpg,1700,dash,O,m,645,1,1,31921.80000000447,324956.0,7089,ATS,B,14
14,test,1,B,mfborder.png,1,m,Fri Apr 04 2025 13:37:04 GMT-0500 (Central Daylight Time),359195.1000000015,CFD-WM-009-009-A.jpg,1700,dash,O,m,591,9,1,34239.10000000149,324956.0,7089,ATS,B,15
15,test,1,B,mfborder.png,1,z,Fri Apr 04 2025 13:37:04 GMT-0500 (Central Daylight Time),361626.30000000447,CFD-WF-026-008-A.jpg,1500,dash,O,z,786,11,1,36670.30000000447,324956.0,7089,ATS,B,16
16,test,1,B,mfborder.png,1,m,Fri Apr 04 2025 13:37:04 GMT-0500 (Central Daylight Time),364059.1000000015,CFD-BM-020-024-HC.jpg,1700,dash,O,m,710,1,1,39103.10000000149,324956.0,7089,ATS,B,17
17,test,1,B,mfborder.png,1,m,Fri Apr 04 2025 13:37:04 GMT-0500 (Central Daylight Time),366358.40000000596,CFD-WM-012-007-HC.jpg,1600,dash,O,m,669,10,1,41402.40000000596,324956.0,7089,ATS,B,18
18,test,1,B,mfborder.png,1,z,Fri Apr 04 2025 13:37:04 GMT-0500 (Central Daylight Time),368957.5,CFD-BF-027-013-HC.jpg,1500,dash,O,z,1075,3,1,44001.5,324956.0,7089,ATS,B,19
19,test,1,B,mfborder.png,1,m,Fri Apr 04 2025 13:37:04 GMT-0500 (Central Daylight Time),371173.6000000015,CFD-WM-037-060-A.jpg,1200,dash,O,m,995,6,1,46217.60000000149,324956.0,7089,ATS,B,20
20,test,1,B,mfborder.png,1,m,Fri Apr 04 2025 13:37:04 GMT-0500 (Central Daylight Time),374222.6000000015,CFD-BM-037-041-A.jpg,2000,dash,O,m,1020,5,1,49266.60000000149,324956.0,7089,ATS,B,21
21,test,1,B,mfborder.png,1,z,Fri Apr 04 2025 13:37:04 GMT-0500 (Central Daylight Time),376372.200000003,CFD-BF-035-007-HC.jpg,1400,dash,O,z,722,7,1,51416.20000000298,324956.0,7089,ATS,B,22
22,test,1,B,mfborder.png,1,z,Fri Apr 04 2025 13:37:04 GMT-0500 (Central Daylight Time),378321.30000000447,CFD-BF-051-043-A.jpg,1000,dash,O,z,925,4,1,53365.30000000447,324956.0,7089,ATS,B,23
23,test,1,B,mfborder.png,1,z,Fri Apr 04 2025 13:37:04 GMT-0500 (Central Daylight Time),380920.5,CFD-WF-027-007-HC.jpg,1900,dash,O,z,676,8,1,55964.5,324956.0,7089,ATS,B,24
0,10,1,C,haborder.png,0,m,Fri Apr 04 2025 13:37:04 GMT-0500 (Central Daylight Time),429921.700000003,CFD-BM-020-024-HC.jpg,1500,solid,O,None,1515,prac,1,3798.7000000029802,426123.0,7089,ATS,B,1
1,4,1,C,mfborder.png,1,m,Fri Apr 04 2025 13:37:04 GMT-0500 (Central Daylight Time),434153.80000000447,CFD-BM-015-017-HC.jpg,2000,solid,O,m,1448,prac,1,8030.80000000447,426123.0,7089,ATS,B,2
2,3,1,C,mfborder.png,1,z,Fri Apr 04 2025 13:37:04 GMT-0500 (Central Daylight Time),436819.80000000447,CFD-BF-035-007-HC.jpg,1000,dash,O,z,870,prac,1,10696.80000000447,426123.0,7089,ATS,B,3
3,12,1,C,haborder.png,1,m,Fri Apr 04 2025 13:37:04 GMT-0500 (Central Daylight Time),440052.200000003,CFD-WM-011-006-HC.jpg,1400,solid,O,m,1038,prac,1,13929.20000000298,426123.0,7089,ATS,B,4
4,8,1,C,haborder.png,1,z,Fri Apr 04 2025 13:37:04 GMT-0500 (Central Daylight Time),443467.700000003,CFD-BF-050-012-A.jpg,1700,solid,O,z,921,prac,1,17344.70000000298,426123.0,7089,ATS,B,5
4,6,1,C,mfborder.png,0,m,Fri Apr 04 2025 13:37:04 GMT-0500 (Central Daylight Time),447466.40000000596,CFD-WM-009-009-A.jpg,1700,solid,O,None,1516,prac,1,21343.40000000596,426123.0,7089,ATS,B,6
5,7,1,C,haborder.png,1,z,Fri Apr 04 2025 13:37:04 GMT-0500 (Central Daylight Time),451065.30000000447,CFD-BF-051-043-A.jpg,1900,dash,O,z,914,prac,1,24942.30000000447,426123.0,7089,ATS,B,7
6,11,1,C,haborder.png,1,m,Fri Apr 04 2025 13:37:04 GMT-0500 (Central Daylight Time),454247.6000000015,CFD-WM-011-006-HC.jpg,1000,dash,O,m,1392,prac,1,28124.60000000149,426123.0,7089,ATS,B,8
6,1,1,C,mfborder.png,0,z,Fri Apr 04 2025 13:37:04 GMT-0500 (Central Daylight Time),458146.40000000596,CFD-WF-011-006-HC.jpg,1600,dash,O,None,1516,prac,1,32023.40000000596,426123.0,7089,ATS,B,9
6,9,1,C,haborder.png,0,z,Fri Apr 04 2025 13:37:04 GMT-0500 (Central Daylight Time),462045.0,CFD-WF-026-008-A.jpg,1600,dash,O,None,1513,prac,1,35922.0,426123.0,7089,ATS,B,10
7,2,1,C,mfborder.png,1,z,Fri Apr 04 2025 13:37:04 GMT-0500 (Central Daylight Time),465777.200000003,CFD-WF-013-015-A.jpg,1500,solid,O,z,1447,prac,1,39654.20000000298,426123.0,7089,ATS,B,11
8,5,1,C,mfborder.png,1,m,Fri Apr 04 2025 13:37:04 GMT-0500 (Central Daylight Time),468526.5,CFD-BM-037-041-A.jpg,1200,dash,O,m,760,prac,1,42403.5,426123.0,7089,ATS,B,12
1,test,1,C,mfborder.png,1,z,Fri Apr 04 2025 13:37:04 GMT-0500 (Central Daylight Time),483405.1000000015,CFD-BF-027-013-HC.jpg,1700,dash,O,z,1138,1,1,2865.7999999970198,480539.30000000447,7089,ATS,B,1
2,test,1,C,mfborder.png,1,z,Fri Apr 04 2025 13:37:04 GMT-0500 (Central Daylight Time),486354.200000003,CFD-BF-027-013-HC.jpg,1700,dash,O,z,1220,1,1,5814.89999999851,480539.30000000447,7089,ATS,B,2
3,test,1,C,haborder.png,1,z,Fri Apr 04 2025 13:37:04 GMT-0500 (Central Daylight Time),488953.200000003,CFD-WM-009-009-A.jpg,1400,solid,O,z,1175,7,1,8413.89999999851,480539.30000000447,7089,ATS,B,3
4,test,1,C,haborder.png,1,z,Fri Apr 04 2025 13:37:04 GMT-0500 (Central Daylight Time),491552.6000000015,CFD-WM-009-009-A.jpg,1400,solid,O,z,1176,7,1,11013.29999999702,480539.30000000447,7089,ATS,B,4
5,test,1,C,mfborder.png,1,m,Fri Apr 04 2025 13:37:04 GMT-0500 (Central Daylight Time),494751.5,CFD-WM-037-060-A.jpg,2000,dash,O,m,1177,5,1,14212.19999999553,480539.30000000447,7089,ATS,B,5
5,test,1,C,haborder.png,0,m,Fri Apr 04 2025 13:37:04 GMT-0500 (Central Daylight Time),497017.40000000596,CFD-WF-011-006-HC.jpg,1000,solid,O,z,1233,12,1,16478.10000000149,480539.30000000447,7089,ATS,B,6
6,test,1,C,mfborder.png,1,m,Fri Apr 04 2025 13:37:04 GMT-0500 (Central Daylight Time),499233.30000000447,CFD-WM-012-007-HC.jpg,1000,dash,O,m,1191,4,1,18694.0,480539.30000000447,7089,ATS,B,7
7,test,1,C,mfborder.png,1,m,Fri Apr 04 2025 13:37:04 GMT-0500 (Central Daylight Time),501316.0,CFD-WM-012-007-HC.jpg,1000,dash,O,m,1056,4,1,20776.69999999553,480539.30000000447,7089,ATS,B,8
8,test,1,C,mfborder.png,1,z,Fri Apr 04 2025 13:37:04 GMT-0500 (Central Daylight Time),504065.30000000447,CFD-WF-026-008-A.jpg,1500,dash,O,z,1216,3,1,23526.0,480539.30000000447,7089,ATS,B,9
9,test,1,C,haborder.png,1,m,Fri Apr 04 2025 13:37:04 GMT-0500 (Central Daylight Time),506632.1000000015,CFD-WF-027-007-HC.jpg,1500,solid,O,m,1043,11,1,26092.79999999702,480539.30000000447,7089,ATS,B,10
10,test,1,C,haborder.png,1,z,Fri Apr 04 2025 13:37:04 GMT-0500 (Central Daylight Time),509630.0,CFD-BM-037-041-A.jpg,1900,solid,O,z,1071,8,1,29090.69999999553,480539.30000000447,7089,ATS,B,11
11,test,1,C,haborder.png,1,z,Fri Apr 04 2025 13:37:04 GMT-0500 (Central Daylight Time),512812.40000000596,CFD-BM-041-048-A.jpg,1700,solid,O,z,1463,9,1,32273.10000000149,480539.30000000447,7089,ATS,B,12
12,test,1,C,haborder.png,1,z,Fri Apr 04 2025 13:37:04 GMT-0500 (Central Daylight Time),515811.40000000596,CFD-BM-041-048-A.jpg,1700,solid,O,z,1276,9,1,35272.10000000149,480539.30000000447,7089,ATS,B,13
12,test,1,C,mfborder.png,0,m,Fri Apr 04 2025 13:37:04 GMT-0500 (Central Daylight Time),518544.1000000015,CFD-BM-020-024-HC.jpg,1200,dash,O,None,1516,6,1,38004.79999999702,480539.30000000447,7089,ATS,B,14
13,test,1,C,haborder.png,1,m,Fri Apr 04 2025 13:37:04 GMT-0500 (Central Daylight Time),521410.0,CFD-BF-035-007-HC.jpg,1600,solid,O,m,1233,10,1,40870.69999999553,480539.30000000447,7089,ATS,B,15
14,test,1,C,mfborder.png,1,m,Fri Apr 04 2025 13:37:04 GMT-0500 (Central Daylight Time),523559.0,CFD-BM-020-024-HC.jpg,1200,dash,O,m,919,6,1,43019.69999999553,480539.30000000447,7089,ATS,B,16
15,test,1,C,mfborder.png,1,z,Fri Apr 04 2025 13:37:04 GMT-0500 (Central Daylight Time),526291.900000006,CFD-BF-051-043-A.jpg,1600,dash,O,z,1105,2,1,45752.60000000149,480539.30000000447,7089,ATS,B,17
16,test,1,C,haborder.png,1,z,Fri Apr 04 2025 13:37:04 GMT-0500 (Central Daylight Time),529440.6000000015,CFD-BM-037-041-A.jpg,1900,solid,O,z,1217,8,1,48901.29999999702,480539.30000000447,7089,ATS,B,18
16,test,1,C,haborder.png,0,m,Fri Apr 04 2025 13:37:04 GMT-0500 (Central Daylight Time),531973.200000003,CFD-WF-011-006-HC.jpg,1000,solid,O,None,1515,12,1,51433.89999999851,480539.30000000447,7089,ATS,B,19
17,test,1,C,mfborder.png,1,z,Fri Apr 04 2025 13:37:04 GMT-0500 (Central Daylight Time),534655.700000003,CFD-WF-026-008-A.jpg,1500,dash,O,z,1160,3,1,54116.39999999851,480539.30000000447,7089,ATS,B,20
18,test,1,C,mfborder.png,1,z,Fri Apr 04 2025 13:37:04 GMT-0500 (Central Daylight Time),537204.900000006,CFD-BF-051-043-A.jpg,1600,dash,O,z,926,2,1,56665.60000000149,480539.30000000447,7089,ATS,B,21
19,test,1,C,haborder.png,1,m,Fri Apr 04 2025 13:37:04 GMT-0500 (Central Daylight Time),539587.400000006,CFD-WF-027-007-HC.jpg,1500,solid,O,m,864,11,1,59048.10000000149,480539.30000000447,7089,ATS,B,22
20,test,1,C,mfborder.png,1,m,Fri Apr 04 2025 13:37:04 GMT-0500 (Central Daylight Time),542886.400000006,CFD-WM-037-060-A.jpg,2000,dash,O,m,1278,5,1,62347.10000000149,480539.30000000447,7089,ATS,B,23
21,test,1,C,haborder.png,1,m,Fri Apr 04 2025 13:37:04 GMT-0500 (Central Daylight Time),545768.900000006,CFD-BF-035-007-HC.jpg,1600,solid,O,m,1250,10,1,65229.60000000149,480539.30000000447,7089,ATS,B,24
0,test,2,C,haborder.png,0,m,Fri Apr 04 2025 13:37:04 GMT-0500 (Central Daylight Time),554482.900000006,CFD-WM-011-006-HC.jpg,1000,solid,O,None,1512,12,1,2532.60000000149,551950.3000000045,7089,ATS,B,1
1,test,2,C,haborder.png,1,m,Fri Apr 04 2025 13:37:04 GMT-0500 (Central Daylight Time),557331.8000000045,CFD-BM-020-024-HC.jpg,1600,solid,O,m,1230,10,1,5381.5,551950.3000000045,7089,ATS,B,2
2,test,2,C,haborder.png,1,m,Fri Apr 04 2025 13:37:04 GMT-0500 (Central Daylight Time),559748.0,CFD-WM-011-006-HC.jpg,1500,solid,O,m,889,11,1,7797.69999999553,551950.3000000045,7089,ATS,B,3
3,test,2,C,mfborder.png,1,z,Fri Apr 04 2025 13:37:04 GMT-0500 (Central Daylight Time),562313.3000000045,CFD-WF-011-006-HC.jpg,1700,dash,O,z,841,1,1,10363.0,551950.3000000045,7089,ATS,B,4
4,test,2,C,mfborder.png,1,m,Fri Apr 04 2025 13:37:04 GMT-0500 (Central Daylight Time),565062.6000000015,CFD-BM-037-041-A.jpg,2000,dash,O,m,728,5,1,13112.29999999702,551950.3000000045,7089,ATS,B,5
5,test,2,C,haborder.png,1,m,Fri Apr 04 2025 13:37:04 GMT-0500 (Central Daylight Time),567878.6000000015,CFD-BM-020-024-HC.jpg,1600,solid,O,m,1187,10,1,15928.29999999702,551950.3000000045,7089,ATS,B,6
6,test,2,C,mfborder.png,1,m,Fri Apr 04 2025 13:37:04 GMT-0500 (Central Daylight Time),570794.400000006,CFD-BM-037-041-A.jpg,2000,dash,O,m,890,5,1,18844.10000000149,551950.3000000045,7089,ATS,B,7
7,test,2,C,haborder.png,1,z,Fri Apr 04 2025 13:37:04 GMT-0500 (Central Daylight Time),573293.700000003,CFD-BF-051-043-A.jpg,1400,solid,O,z,1078,7,1,21343.39999999851,551950.3000000045,7089,ATS,B,8
7,test,2,C,haborder.png,0,z,Fri Apr 04 2025 13:37:04 GMT-0500 (Central Daylight Time),576525.900000006,CFD-WF-026-008-A.jpg,1700,solid,O,None,1515,9,1,24575.60000000149,551950.3000000045,7089,ATS,B,9
8,test,2,C,haborder.png,1,z,Fri Apr 04 2025 13:37:04 GMT-0500 (Central Daylight Time),579025.400000006,CFD-WF-026-008-A.jpg,1700,solid,O,z,775,9,1,27075.10000000149,551950.3000000045,7089,ATS,B,10
9,test,2,C,mfborder.png,1,z,Fri Apr 04 2025 13:37:04 GMT-0500 (Central Daylight Time),581457.8000000045,CFD-BF-035-007-HC.jpg,1500,dash,O,z,908,3,1,29507.5,551950.3000000045,7089,ATS,B,11
10,test,2,C,mfborder.png,1,z,Fri Apr 04 2025 13:37:04 GMT-0500 (Central Daylight Time),584306.400000006,CFD-WF-011-006-HC.jpg,1700,dash,O,z,1132,1,1,32356.10000000149,551950.3000000045,7089,ATS,B,12
11,test,2,C,mfborder.png,1,m,Fri Apr 04 2025 13:37:04 GMT-0500 (Central Daylight Time),586022.900000006,CFD-BM-015-017-HC.jpg,1000,dash,O,m,694,4,1,34072.60000000149,551950.3000000045,7089,ATS,B,13
12,test,2,C,mfborder.png,1,z,Fri Apr 04 2025 13:37:04 GMT-0500 (Central Daylight Time),588522.0,CFD-WF-013-015-A.jpg,1600,dash,O,z,875,2,1,36571.69999999553,551950.3000000045,7089,ATS,B,14
13,test,2,C,haborder.png,1,z,Fri Apr 04 2025 13:37:04 GMT-0500 (Central Daylight Time),591071.5,CFD-BF-051-043-A.jpg,1400,solid,O,z,1119,7,1,39121.19999999553,551950.3000000045,7089,ATS,B,15
14,test,2,C,mfborder.png,1,z,Fri Apr 04 2025 13:37:04 GMT-0500 (Central Daylight Time),593553.8000000045,CFD-WF-013-015-A.jpg,1600,dash,O,z,849,2,1,41603.5,551950.3000000045,7089,ATS,B,16
15,test,2,C,haborder.png,1,z,Fri Apr 04 2025 13:37:04 GMT-0500 (Central Daylight Time),596569.3000000045,CFD-BF-050-012-A.jpg,1900,solid,O,z,1083,8,1,44619.0,551950.3000000045,7089,ATS,B,17
16,test,2,C,haborder.png,1,z,Fri Apr 04 2025 13:37:04 GMT-0500 (Central Daylight Time),599252.1000000015,CFD-BF-050-012-A.jpg,1900,solid,O,z,763,8,1,47301.79999999702,551950.3000000045,7089,ATS,B,18
17,test,2,C,mfborder.png,1,m,Fri Apr 04 2025 13:37:04 GMT-0500 (Central Daylight Time),601917.8000000045,CFD-WM-009-009-A.jpg,1200,dash,O,m,1437,6,1,49967.5,551950.3000000045,7089,ATS,B,19
18,test,2,C,mfborder.png,1,m,Fri Apr 04 2025 13:37:04 GMT-0500 (Central Daylight Time),603750.8000000045,CFD-WM-009-009-A.jpg,1200,dash,O,m,601,6,1,51800.5,551950.3000000045,7089,ATS,B,20
19,test,2,C,mfborder.png,1,z,Fri Apr 04 2025 13:37:04 GMT-0500 (Central Daylight Time),606333.1000000015,CFD-BF-035-007-HC.jpg,1500,dash,O,z,1063,3,1,54382.79999999702,551950.3000000045,7089,ATS,B,21
20,test,2,C,haborder.png,1,m,Fri Apr 04 2025 13:37:04 GMT-0500 (Central Daylight Time),608299.1000000015,CFD-WM-011-006-HC.jpg,1000,solid,O,m,940,12,1,56348.79999999702,551950.3000000045,7089,ATS,B,22
20,test,2,C,haborder.png,0,m,Fri Apr 04 2025 13:37:04 GMT-0500 (Central Daylight Time),611331.700000003,CFD-WM-011-006-HC.jpg,1500,solid,O,None,1516,11,1,59381.39999999851,551950.3000000045,7089,ATS,B,23
21,test,2,C,mfborder.png,1,m,Fri Apr 04 2025 13:37:04 GMT-0500 (Central Daylight Time),613481.0,CFD-BM-015-017-HC.jpg,1000,dash,O,m,1116,4,1,61530.69999999553,551950.3000000045,7089,ATS,B,24
1,test,3,C,haborder.png,1,z,Fri Apr 04 2025 13:37:04 GMT-0500 (Central Daylight Time),619228.900000006,CFD-BM-041-048-A.jpg,1700,solid,O,z,1308,9,1,3032.10000000149,616196.8000000045,7089,ATS,B,1
2,test,3,C,haborder.png,1,z,Fri Apr 04 2025 13:37:04 GMT-0500 (Central Daylight Time),622228.3000000045,CFD-BM-037-041-A.jpg,1900,solid,O,z,1073,8,1,6031.5,616196.8000000045,7089,ATS,B,2
3,test,3,C,mfborder.png,1,z,Fri Apr 04 2025 13:37:04 GMT-0500 (Central Daylight Time),624627.5,CFD-WF-026-008-A.jpg,1500,dash,O,z,880,3,1,8430.69999999553,616196.8000000045,7089,ATS,B,3
4,test,3,C,haborder.png,1,m,Fri Apr 04 2025 13:37:04 GMT-0500 (Central Daylight Time),627277.8000000045,CFD-BF-035-007-HC.jpg,1600,solid,O,m,1022,10,1,11081.0,616196.8000000045,7089,ATS,B,4
5,test,3,C,mfborder.png,1,m,Fri Apr 04 2025 13:37:04 GMT-0500 (Central Daylight Time),630525.400000006,CFD-WM-037-060-A.jpg,2000,dash,O,m,1229,5,1,14328.60000000149,616196.8000000045,7089,ATS,B,5
6,test,3,C,mfborder.png,1,z,Fri Apr 04 2025 13:37:04 GMT-0500 (Central Daylight Time),632874.8000000045,CFD-WF-026-008-A.jpg,1500,dash,O,z,831,3,1,16678.0,616196.8000000045,7089,ATS,B,6
6,test,3,C,haborder.png,0,z,Fri Apr 04 2025 13:37:04 GMT-0500 (Central Daylight Time),636307.1000000015,CFD-BM-037-041-A.jpg,1900,solid,O,None,1515,8,1,20110.29999999702,616196.8000000045,7089,ATS,B,7
7,test,3,C,mfborder.png,1,z,Fri Apr 04 2025 13:37:04 GMT-0500 (Central Daylight Time),639256.1000000015,CFD-BF-051-043-A.jpg,1600,dash,O,z,1318,2,1,23059.29999999702,616196.8000000045,7089,ATS,B,8
8,test,3,C,haborder.png,1,m,Fri Apr 04 2025 13:37:04 GMT-0500 (Central Daylight Time),641705.400000006,CFD-WF-011-006-HC.jpg,1000,solid,O,m,1424,12,1,25508.60000000149,616196.8000000045,7089,ATS,B,9
9,test,3,C,mfborder.png,1,m,Fri Apr 04 2025 13:37:04 GMT-0500 (Central Daylight Time),644571.200000003,CFD-WM-037-060-A.jpg,2000,dash,O,m,840,5,1,28374.39999999851,616196.8000000045,7089,ATS,B,10
10,test,3,C,haborder.png,1,z,Fri Apr 04 2025 13:37:04 GMT-0500 (Central Daylight Time),646970.400000006,CFD-WM-009-009-A.jpg,1400,solid,O,z,973,7,1,30773.60000000149,616196.8000000045,7089,ATS,B,11
11,test,3,C,haborder.png,1,m,Fri Apr 04 2025 13:37:04 GMT-0500 (Central Daylight Time),649652.8000000045,CFD-BF-035-007-HC.jpg,1600,solid,O,m,1055,10,1,33456.0,616196.8000000045,7089,ATS,B,12
12,test,3,C,haborder.png,1,z,Fri Apr 04 2025 13:37:04 GMT-0500 (Central Daylight Time),652302.200000003,CFD-WM-009-009-A.jpg,1400,solid,O,z,1228,7,1,36105.39999999851,616196.8000000045,7089,ATS,B,13
13,test,3,C,mfborder.png,1,m,Fri Apr 04 2025 13:37:04 GMT-0500 (Central Daylight Time),654167.900000006,CFD-WM-012-007-HC.jpg,1000,dash,O,m,834,4,1,37971.10000000149,616196.8000000045,7089,ATS,B,14
13,test,3,C,haborder.png,0,m,Fri Apr 04 2025 13:37:04 GMT-0500 (Central Daylight Time),657200.5,CFD-WF-027-007-HC.jpg,1500,solid,O,None,1515,11,1,41003.69999999553,616196.8000000045,7089,ATS,B,15
13,test,3,C,haborder.png,0,z,Fri Apr 04 2025 13:37:04 GMT-0500 (Central Daylight Time),660432.900000006,CFD-BM-041-048-A.jpg,1700,solid,O,None,1516,9,1,44236.10000000149,616196.8000000045,7089,ATS,B,16
14,test,3,C,mfborder.png,1,z,Fri Apr 04 2025 13:37:04 GMT-0500 (Central Daylight Time),663098.5,CFD-BF-027-013-HC.jpg,1700,dash,O,z,947,1,1,46901.69999999553,616196.8000000045,7089,ATS,B,17
14,test,3,C,mfborder.png,0,m,Fri Apr 04 2025 13:37:04 GMT-0500 (Central Daylight Time),665831.200000003,CFD-BM-020-024-HC.jpg,1200,dash,O,None,1516,6,1,49634.39999999851,616196.8000000045,7089,ATS,B,18
15,test,3,C,mfborder.png,1,z,Fri Apr 04 2025 13:37:04 GMT-0500 (Central Daylight Time),668297.0,CFD-BF-027-013-HC.jpg,1700,dash,O,z,733,1,1,52100.19999999553,616196.8000000045,7089,ATS,B,19
16,test,3,C,haborder.png,1,m,Fri Apr 04 2025 13:37:04 GMT-0500 (Central Daylight Time),670962.900000006,CFD-WF-027-007-HC.jpg,1500,solid,O,m,1140,11,1,54766.10000000149,616196.8000000045,7089,ATS,B,20
17,test,3,C,mfborder.png,1,z,Fri Apr 04 2025 13:37:04 GMT-0500 (Central Daylight Time),673578.400000006,CFD-BF-051-043-A.jpg,1600,dash,O,z,998,2,1,57381.60000000149,616196.8000000045,7089,ATS,B,21
18,test,3,C,mfborder.png,1,m,Fri Apr 04 2025 13:37:04 GMT-0500 (Central Daylight Time),675345.0,CFD-WM-012-007-HC.jpg,1000,dash,O,m,742,4,1,59148.19999999553,616196.8000000045,7089,ATS,B,22
19,test,3,C,haborder.png,1,m,Fri Apr 04 2025 13:37:04 GMT-0500 (Central Daylight Time),677527.700000003,CFD-WF-011-006-HC.jpg,1000,solid,O,m,1152,12,1,61330.89999999851,616196.8000000045,7089,ATS,B,23
20,test,3,C,mfborder.png,1,m,Fri Apr 04 2025 13:37:04 GMT-0500 (Central Daylight Time),680096.8000000045,CFD-BM-020-024-HC.jpg,1200,dash,O,m,1345,6,1,63900.0,616196.8000000045,7089,ATS,B,24
1,test,4,C,mfborder.png,1,z,Fri Apr 04 2025 13:37:04 GMT-0500 (Central Daylight Time),687424.400000006,CFD-BF-035-007-HC.jpg,1500,dash,O,z,1089,3,1,2615.7000000029802,684808.700000003,7089,ATS,B,1
2,test,4,C,mfborder.png,1,m,Fri Apr 04 2025 13:37:04 GMT-0500 (Central Daylight Time),689407.0,CFD-BM-015-017-HC.jpg,1000,dash,O,m,953,4,1,4598.29999999702,684808.700000003,7089,ATS,B,2
3,test,4,C,haborder.png,1,m,Fri Apr 04 2025 13:37:04 GMT-0500 (Central Daylight Time),692339.5,CFD-BM-020-024-HC.jpg,1600,solid,O,m,1314,10,1,7530.79999999702,684808.700000003,7089,ATS,B,3
4,test,4,C,mfborder.png,1,m,Fri Apr 04 2025 13:37:04 GMT-0500 (Central Daylight Time),694072.5,CFD-BM-015-017-HC.jpg,1000,dash,O,m,702,4,1,9263.79999999702,684808.700000003,7089,ATS,B,4
5,test,4,C,haborder.png,1,m,Fri Apr 04 2025 13:37:04 GMT-0500 (Central Daylight Time),696221.6000000015,CFD-WM-011-006-HC.jpg,1000,solid,O,m,1120,12,1,11412.89999999851,684808.700000003,7089,ATS,B,5
6,test,4,C,haborder.png,1,m,Fri Apr 04 2025 13:37:04 GMT-0500 (Central Daylight Time),698720.8000000045,CFD-BM-020-024-HC.jpg,1600,solid,O,m,867,10,1,13912.10000000149,684808.700000003,7089,ATS,B,6
7,test,4,C,mfborder.png,1,z,Fri Apr 04 2025 13:37:04 GMT-0500 (Central Daylight Time),701170.0,CFD-WF-013-015-A.jpg,1600,dash,O,z,833,2,1,16361.29999999702,684808.700000003,7089,ATS,B,7
8,test,4,C,mfborder.png,1,m,Fri Apr 04 2025 13:37:04 GMT-0500 (Central Daylight Time),703169.700000003,CFD-WM-009-009-A.jpg,1200,dash,O,m,782,6,1,18361.0,684808.700000003,7089,ATS,B,8
9,test,4,C,haborder.png,1,z,Fri Apr 04 2025 13:37:04 GMT-0500 (Central Daylight Time),706335.3000000045,CFD-BF-050-012-A.jpg,1900,solid,O,z,1244,8,1,21526.60000000149,684808.700000003,7089,ATS,B,9
9,test,4,C,haborder.png,0,m,Fri Apr 04 2025 13:37:04 GMT-0500 (Central Daylight Time),709367.700000003,CFD-WM-011-006-HC.jpg,1500,solid,O,None,1516,11,1,24559.0,684808.700000003,7089,ATS,B,10
10,test,4,C,mfborder.png,1,z,Fri Apr 04 2025 13:37:04 GMT-0500 (Central Daylight Time),712033.3000000045,CFD-BF-035-007-HC.jpg,1500,dash,O,z,1133,3,1,27224.60000000149,684808.700000003,7089,ATS,B,11
11,test,4,C,haborder.png,1,z,Fri Apr 04 2025 13:37:04 GMT-0500 (Central Daylight Time),714932.6000000015,CFD-WF-026-008-A.jpg,1700,solid,O,z,1180,9,1,30123.89999999851,684808.700000003,7089,ATS,B,12
12,test,4,C,mfborder.png,1,z,Fri Apr 04 2025 13:37:04 GMT-0500 (Central Daylight Time),717665.0,CFD-WF-011-006-HC.jpg,1700,dash,O,z,1009,1,1,32856.29999999702,684808.700000003,7089,ATS,B,13
13,test,4,C,mfborder.png,1,z,Fri Apr 04 2025 13:37:04 GMT-0500 (Central Daylight Time),720347.3000000045,CFD-WF-013-015-A.jpg,1600,dash,O,z,1064,2,1,35538.60000000149,684808.700000003,7089,ATS,B,14
13,test,4,C,haborder.png,0,z,Fri Apr 04 2025 13:37:04 GMT-0500 (Central Daylight Time),723279.900000006,CFD-BF-051-043-A.jpg,1400,solid,O,None,1516,7,1,38471.20000000298,684808.700000003,7089,ATS,B,15
14,test,4,C,haborder.png,1,z,Fri Apr 04 2025 13:37:04 GMT-0500 (Central Daylight Time),725779.200000003,CFD-WF-026-008-A.jpg,1700,solid,O,z,772,9,1,40970.5,684808.700000003,7089,ATS,B,16
15,test,4,C,haborder.png,1,z,Fri Apr 04 2025 13:37:04 GMT-0500 (Central Daylight Time),727794.8000000045,CFD-BF-051-043-A.jpg,1400,solid,O,z,598,7,1,42986.10000000149,684808.700000003,7089,ATS,B,17
16,test,4,C,haborder.png,1,m,Fri Apr 04 2025 13:37:04 GMT-0500 (Central Daylight Time),729694.5,CFD-WM-011-006-HC.jpg,1000,solid,O,m,877,12,1,44885.79999999702,684808.700000003,7089,ATS,B,18
17,test,4,C,mfborder.png,1,m,Fri Apr 04 2025 13:37:04 GMT-0500 (Central Daylight Time),731860.400000006,CFD-WM-009-009-A.jpg,1200,dash,O,m,934,6,1,47051.70000000298,684808.700000003,7089,ATS,B,19
18,test,4,C,mfborder.png,1,z,Fri Apr 04 2025 13:37:04 GMT-0500 (Central Daylight Time),734326.400000006,CFD-WF-011-006-HC.jpg,1700,dash,O,z,744,1,1,49517.70000000298,684808.700000003,7089,ATS,B,20
19,test,4,C,haborder.png,1,z,Fri Apr 04 2025 13:37:04 GMT-0500 (Central Daylight Time),737225.6000000015,CFD-BF-050-012-A.jpg,1900,solid,O,z,982,8,1,52416.89999999851,684808.700000003,7089,ATS,B,21
20,test,4,C,mfborder.png,1,m,Fri Apr 04 2025 13:37:04 GMT-0500 (Central Daylight Time),740208.1000000015,CFD-BM-037-041-A.jpg,2000,dash,O,m,960,5,1,55399.39999999851,684808.700000003,7089,ATS,B,22
21,test,4,C,mfborder.png,1,m,Fri Apr 04 2025 13:37:04 GMT-0500 (Central Daylight Time),742940.400000006,CFD-BM-037-041-A.jpg,2000,dash,O,m,705,5,1,58131.70000000298,684808.700000003,7089,ATS,B,23
22,test,4,C,haborder.png,1,m,Fri Apr 04 2025 13:37:04 GMT-0500 (Central Daylight Time),745606.3000000045,CFD-WM-011-006-HC.jpg,1500,solid,O,m,1145,11,1,60797.60000000149,684808.700000003,7089,ATS,B,24
