acc_sum,block,block_c,change,condition,correct,correct_response,datetime,endtime,face,project,response,response_time,row_sel,session_number,start_end,starttime,subject_id,task,task_vers,trial
0,prac,1,,1-Back,,,Thu Apr 17 2025 17:09:38 GMT-0500 (Central Daylight Time),,012_o_f_d_a.png,O,space,7270,1,1,,,7111,VNB,C,0
1,prac,1,0.0,1-Back,1,m,Thu Apr 17 2025 17:09:38 GMT-0500 (Central Daylight Time),140088.0,022_y_f_n_a.png,O,m,1375,2,1,2273.89999999851,137814.1000000015,7111,VNB,C,1
2,prac,1,0.0,1-Back,1,m,Thu Apr 17 2025 17:09:38 GMT-0500 (Central Daylight Time),142653.70000000298,014_m_m_h_a.png,O,m,1678,3,1,2559.89999999851,140093.80000000447,7111,VNB,C,2
3,prac,1,0.0,1-Back,1,m,Thu Apr 17 2025 17:09:38 GMT-0500 (Central Daylight Time),144836.80000000447,025_y_m_d_a.png,O,m,1300,4,1,2176.9000000059605,142659.8999999985,7111,VNB,C,3
4,prac,1,0.0,1-Back,1,m,Thu Apr 17 2025 17:09:38 GMT-0500 (Central Daylight Time),147336.80000000447,012_o_f_n_a.png,O,m,1615,5,1,2493.0,144843.80000000447,7111,VNB,C,4
4,prac,1,1.0,1-Back,0,z,Thu Apr 17 2025 17:09:38 GMT-0500 (Central Daylight Time),149718.1000000015,025_y_m_n_a.png,O,m,1494,6,1,2372.5,147345.6000000015,7111,VNB,C,5
5,prac,1,0.0,1-Back,1,m,Thu Apr 17 2025 17:09:38 GMT-0500 (Central Daylight Time),152550.6000000015,015_o_m_h_a.png,O,m,1927,7,1,2825.7000000029802,149724.8999999985,7111,VNB,C,6
5,prac,1,0.0,1-Back,0,m,Thu Apr 17 2025 17:09:38 GMT-0500 (Central Daylight Time),155466.3999999985,019_m_f_d_a.png,O,None,2015,8,1,2908.5,152557.8999999985,7111,VNB,C,7
5,prac,1,1.0,1-Back,0,z,Thu Apr 17 2025 17:09:38 GMT-0500 (Central Daylight Time),158365.5,022_y_f_d_a.png,O,None,2002,9,1,2892.6999999955297,155472.80000000447,7111,VNB,C,8
5,prac,1,0.0,1-Back,0,m,Thu Apr 17 2025 17:09:38 GMT-0500 (Central Daylight Time),161248.0,014_m_m_n_a.png,O,None,2005,10,1,2874.7999999970198,158373.20000000298,7111,VNB,C,9
5,prac,1,0.0,1-Back,0,m,Thu Apr 17 2025 17:09:38 GMT-0500 (Central Daylight Time),163347.20000000298,012_o_f_h_a.png,O,z,1206,11,1,2093.3000000044703,161253.8999999985,7111,VNB,C,10
6,prac,1,0.0,1-Back,1,m,Thu Apr 17 2025 17:09:38 GMT-0500 (Central Daylight Time),165613.1000000015,025_y_m_d_a.png,O,m,1389,12,1,2258.89999999851,163354.20000000298,7111,VNB,C,11
0,prac,2,0.0,1-Back,,,Thu Apr 17 2025 17:09:38 GMT-0500 (Central Daylight Time),165613.1000000015,012_o_f_d_a.png,O,a,4769,1,1,2258.89999999851,163354.20000000298,7111,VNB,C,0
1,prac,2,0.0,1-Back,1,m,Thu Apr 17 2025 17:09:38 GMT-0500 (Central Daylight Time),175410.20000000298,022_y_f_n_a.png,O,m,1074,2,1,1975.3000000044703,173434.8999999985,7111,VNB,C,1
2,prac,2,0.0,1-Back,1,m,Thu Apr 17 2025 17:09:38 GMT-0500 (Central Daylight Time),177576.20000000298,014_m_m_h_a.png,O,m,1288,3,1,2158.89999999851,175417.30000000447,7111,VNB,C,2
3,prac,2,0.0,1-Back,1,m,Thu Apr 17 2025 17:09:38 GMT-0500 (Central Daylight Time),179658.80000000447,025_y_m_d_a.png,O,m,1306,4,1,2075.5,177583.30000000447,7111,VNB,C,3
4,prac,2,0.0,1-Back,1,m,Thu Apr 17 2025 17:09:38 GMT-0500 (Central Daylight Time),181758.1000000015,012_o_f_n_a.png,O,m,1203,5,1,2091.89999999851,179666.20000000298,7111,VNB,C,4
5,prac,2,1.0,1-Back,1,z,Thu Apr 17 2025 17:09:38 GMT-0500 (Central Daylight Time),183890.8999999985,025_y_m_n_a.png,O,z,1246,6,1,2126.0,181764.8999999985,7111,VNB,C,5
6,prac,2,0.0,1-Back,1,m,Thu Apr 17 2025 17:09:38 GMT-0500 (Central Daylight Time),186090.20000000298,015_o_m_h_a.png,O,m,1288,7,1,2191.2000000029802,183899.0,7111,VNB,C,6
7,prac,2,0.0,1-Back,1,m,Thu Apr 17 2025 17:09:38 GMT-0500 (Central Daylight Time),188089.3999999985,019_m_f_d_a.png,O,m,1090,8,1,1992.3999999985099,186097.0,7111,VNB,C,7
7,prac,2,1.0,1-Back,0,z,Thu Apr 17 2025 17:09:38 GMT-0500 (Central Daylight Time),190172.30000000447,022_y_f_d_a.png,O,m,1183,9,1,2076.9000000059605,188095.3999999985,7111,VNB,C,8
8,prac,2,0.0,1-Back,1,m,Thu Apr 17 2025 17:09:38 GMT-0500 (Central Daylight Time),192604.70000000298,014_m_m_n_a.png,O,m,1546,10,1,2426.0,190178.70000000298,7111,VNB,C,9
9,prac,2,0.0,1-Back,1,m,Thu Apr 17 2025 17:09:38 GMT-0500 (Central Daylight Time),195120.5,012_o_f_h_a.png,O,m,1625,11,1,2510.39999999851,192610.1000000015,7111,VNB,C,10
10,prac,2,0.0,1-Back,1,m,Thu Apr 17 2025 17:09:38 GMT-0500 (Central Daylight Time),196986.70000000298,025_y_m_d_a.png,O,m,981,12,1,1860.2000000029802,195126.5,7111,VNB,C,11
0,test,1,0.0,1-Back,,,Thu Apr 17 2025 17:09:38 GMT-0500 (Central Daylight Time),196986.70000000298,022_y_f_d_a.png,O,space,4171,1,1,1860.2000000029802,195126.5,7111,VNB,C,0
1,test,1,0.0,1-Back,1,m,Thu Apr 17 2025 17:09:38 GMT-0500 (Central Daylight Time),210865.70000000298,019_m_f_n_a.png,O,m,1132,2,1,2144.89999999851,208720.80000000447,7111,VNB,C,1
2,test,1,0.0,1-Back,1,m,Thu Apr 17 2025 17:09:38 GMT-0500 (Central Daylight Time),212965.0,015_o_m_h_a.png,O,m,1071,3,1,2095.7999999970198,210869.20000000298,7111,VNB,C,2
2,test,1,1.0,1-Back,0,z,Thu Apr 17 2025 17:09:38 GMT-0500 (Central Daylight Time),215264.3999999985,014_m_m_h_a.png,O,m,1268,4,1,2294.89999999851,212969.5,7111,VNB,C,3
3,test,1,0.0,1-Back,1,m,Thu Apr 17 2025 17:09:38 GMT-0500 (Central Daylight Time),217513.70000000298,012_o_f_n_a.png,O,m,1232,5,1,2244.89999999851,215268.80000000447,7111,VNB,C,4
4,test,1,0.0,1-Back,1,m,Thu Apr 17 2025 17:09:38 GMT-0500 (Central Daylight Time),219396.30000000447,025_y_m_d_a.png,O,m,863,6,1,1878.3000000044703,217518.0,7111,VNB,C,5
5,test,1,1.0,1-Back,1,z,Thu Apr 17 2025 17:09:38 GMT-0500 (Central Daylight Time),221428.8999999985,019_m_f_d_a.png,O,z,1013,7,1,2028.1999999955297,219400.70000000298,7111,VNB,C,6
6,test,1,0.0,1-Back,1,m,Thu Apr 17 2025 17:09:38 GMT-0500 (Central Daylight Time),223661.5,022_y_f_h_a.png,O,m,1212,8,1,2228.2999999970198,221433.20000000298,7111,VNB,C,7
7,test,1,0.0,1-Back,1,m,Thu Apr 17 2025 17:09:38 GMT-0500 (Central Daylight Time),225810.80000000447,015_o_m_n_a.png,O,m,1124,9,1,2144.5,223666.30000000447,7111,VNB,C,8
8,test,1,0.0,1-Back,1,m,Thu Apr 17 2025 17:09:38 GMT-0500 (Central Daylight Time),227893.70000000298,025_y_m_h_a.png,O,m,1062,10,1,2079.5,225814.20000000298,7111,VNB,C,9
9,test,1,0.0,1-Back,1,m,Thu Apr 17 2025 17:09:38 GMT-0500 (Central Daylight Time),230426.30000000447,015_o_m_d_a.png,O,m,1507,11,1,2527.9000000059605,227898.3999999985,7111,VNB,C,10
10,test,1,1.0,1-Back,1,z,Thu Apr 17 2025 17:09:38 GMT-0500 (Central Daylight Time),232808.70000000298,012_o_f_d_a.png,O,z,1350,12,1,2377.89999999851,230430.80000000447,7111,VNB,C,11
11,test,1,0.0,1-Back,1,m,Thu Apr 17 2025 17:09:38 GMT-0500 (Central Daylight Time),235008.0,014_m_m_n_a.png,O,m,1168,13,1,2195.7999999970198,232812.20000000298,7111,VNB,C,12
11,test,1,1.0,1-Back,0,z,Thu Apr 17 2025 17:09:38 GMT-0500 (Central Daylight Time),237773.80000000447,022_y_f_n_a.png,O,m,1744,14,1,2761.2000000029802,235012.6000000015,7111,VNB,C,13
12,test,1,0.0,1-Back,1,m,Thu Apr 17 2025 17:09:38 GMT-0500 (Central Daylight Time),239873.20000000298,019_m_f_h_a.png,O,m,1075,15,1,2094.8000000044703,237778.3999999985,7111,VNB,C,14
13,test,1,0.0,1-Back,1,m,Thu Apr 17 2025 17:09:38 GMT-0500 (Central Daylight Time),242105.8999999985,014_m_m_d_a.png,O,m,1216,16,1,2228.1999999955297,239877.70000000298,7111,VNB,C,15
14,test,1,0.0,1-Back,1,m,Thu Apr 17 2025 17:09:38 GMT-0500 (Central Daylight Time),244838.5,025_y_m_n_a.png,O,m,1703,17,1,2728.39999999851,242110.1000000015,7111,VNB,C,16
15,test,1,0.0,1-Back,1,m,Thu Apr 17 2025 17:09:38 GMT-0500 (Central Daylight Time),246887.70000000298,012_o_f_h_a.png,O,m,1019,18,1,2044.5,244843.20000000298,7111,VNB,C,17
0,test,2,0.0,1-Back,,,Thu Apr 17 2025 17:09:38 GMT-0500 (Central Daylight Time),246887.70000000298,025_y_m_n_a.png,O,space,1377,1,1,2044.5,244843.20000000298,7111,VNB,C,0
1,test,2,0.0,1-Back,1,m,Thu Apr 17 2025 17:09:38 GMT-0500 (Central Daylight Time),252169.5,022_y_f_h_a.png,O,m,857,2,1,1878.2999999970198,250291.20000000298,7111,VNB,C,1
2,test,2,1.0,1-Back,1,m,Thu Apr 17 2025 17:09:38 GMT-0500 (Central Daylight Time),254335.5,015_o_m_n_a.png,O,m,1143,3,1,2161.39999999851,252174.1000000015,7111,VNB,C,2
3,test,2,0.0,1-Back,1,m,Thu Apr 17 2025 17:09:38 GMT-0500 (Central Daylight Time),256368.1000000015,019_m_f_d_a.png,O,m,1001,4,1,2028.6000000014901,254339.5,7111,VNB,C,3
4,test,2,0.0,1-Back,1,z,Thu Apr 17 2025 17:09:38 GMT-0500 (Central Daylight Time),258917.20000000298,014_m_m_d_a.png,O,z,1529,5,1,2544.8000000044703,256372.3999999985,7111,VNB,C,4
5,test,2,0.0,1-Back,1,m,Thu Apr 17 2025 17:09:38 GMT-0500 (Central Daylight Time),260966.5,025_y_m_h_a.png,O,m,1020,6,1,2044.3999999985099,258922.1000000015,7111,VNB,C,5
6,test,2,1.0,1-Back,1,z,Thu Apr 17 2025 17:09:38 GMT-0500 (Central Daylight Time),263099.30000000447,012_o_f_h_a.png,O,z,1114,7,1,2128.2000000029802,260971.1000000015,7111,VNB,C,6
7,test,2,0.0,1-Back,1,m,Thu Apr 17 2025 17:09:38 GMT-0500 (Central Daylight Time),265181.6000000015,019_m_f_n_a.png,O,m,1061,8,1,2078.10000000149,263103.5,7111,VNB,C,7
8,test,2,0.0,1-Back,1,m,Thu Apr 17 2025 17:09:38 GMT-0500 (Central Daylight Time),267364.5,022_y_f_d_a.png,O,m,1154,9,1,2178.1999999955297,265186.30000000447,7111,VNB,C,8
9,test,2,0.0,1-Back,1,m,Thu Apr 17 2025 17:09:38 GMT-0500 (Central Daylight Time),270080.5,014_m_m_n_a.png,O,m,1684,10,1,2711.5,267369.0,7111,VNB,C,9
10,test,2,1.0,1-Back,1,m,Thu Apr 17 2025 17:09:38 GMT-0500 (Central Daylight Time),272346.1000000015,019_m_f_h_a.png,O,m,1249,11,1,2262.0,270084.1000000015,7111,VNB,C,10
11,test,2,0.0,1-Back,1,z,Thu Apr 17 2025 17:09:38 GMT-0500 (Central Daylight Time),274545.6000000015,015_o_m_h_a.png,O,z,1167,12,1,2195.5,272350.1000000015,7111,VNB,C,11
12,test,2,0.0,1-Back,1,m,Thu Apr 17 2025 17:09:38 GMT-0500 (Central Daylight Time),276562.200000003,025_y_m_d_a.png,O,m,984,13,1,2012.8999999985099,274549.30000000447,7111,VNB,C,12
13,test,2,0.0,1-Back,1,m,Thu Apr 17 2025 17:09:38 GMT-0500 (Central Daylight Time),278877.6000000015,012_o_f_n_a.png,O,m,1294,14,1,2311.39999999851,276566.200000003,7111,VNB,C,13
14,test,2,0.0,1-Back,1,z,Thu Apr 17 2025 17:09:38 GMT-0500 (Central Daylight Time),281027.0,022_y_f_n_a.png,O,z,1123,15,1,2144.89999999851,278882.1000000015,7111,VNB,C,14
15,test,2,1.0,1-Back,1,m,Thu Apr 17 2025 17:09:38 GMT-0500 (Central Daylight Time),283142.6000000015,014_m_m_h_a.png,O,m,1085,16,1,2111.10000000149,281031.5,7111,VNB,C,15
16,test,2,0.0,1-Back,1,m,Thu Apr 17 2025 17:09:38 GMT-0500 (Central Daylight Time),285342.3999999985,012_o_f_d_a.png,O,m,1178,17,1,2196.0,283146.3999999985,7111,VNB,C,16
17,test,2,1.0,1-Back,1,z,Thu Apr 17 2025 17:09:38 GMT-0500 (Central Daylight Time),287524.80000000447,015_o_m_d_a.png,O,z,1162,18,1,2177.60000000149,285347.200000003,7111,VNB,C,17
0,test,3,1.0,1-Back,,,Thu Apr 17 2025 17:09:38 GMT-0500 (Central Daylight Time),287524.80000000447,012_o_f_h_a.png,O,space,1387,1,1,2177.60000000149,285347.200000003,7111,VNB,C,0
1,test,3,0.0,1-Back,1,m,Thu Apr 17 2025 17:09:38 GMT-0500 (Central Daylight Time),293490.1000000015,019_m_f_d_a.png,O,m,1416,2,1,2428.10000000149,291062.0,7111,VNB,C,1
2,test,3,1.0,1-Back,1,m,Thu Apr 17 2025 17:09:38 GMT-0500 (Central Daylight Time),295555.6000000015,014_m_m_n_a.png,O,m,1039,3,1,2061.60000000149,293494.0,7111,VNB,C,2
3,test,3,0.0,1-Back,1,z,Thu Apr 17 2025 17:09:38 GMT-0500 (Central Daylight Time),297671.6000000015,012_o_f_n_a.png,O,z,1084,4,1,2111.2000000029802,295560.3999999985,7111,VNB,C,3
4,test,3,1.0,1-Back,1,m,Thu Apr 17 2025 17:09:38 GMT-0500 (Central Daylight Time),299521.30000000447,015_o_m_d_a.png,O,m,824,5,1,1844.4000000059605,297676.8999999985,7111,VNB,C,4
5,test,3,0.0,1-Back,1,m,Thu Apr 17 2025 17:09:38 GMT-0500 (Central Daylight Time),301404.1000000015,022_y_f_h_a.png,O,m,856,6,1,1878.8999999985099,299525.200000003,7111,VNB,C,5
6,test,3,0.0,1-Back,1,z,Thu Apr 17 2025 17:09:38 GMT-0500 (Central Daylight Time),303569.8999999985,025_y_m_h_a.png,O,z,1141,7,1,2162.0,301407.8999999985,7111,VNB,C,6
7,test,3,0.0,1-Back,1,m,Thu Apr 17 2025 17:09:38 GMT-0500 (Central Daylight Time),305452.6000000015,019_m_f_n_a.png,O,m,854,8,1,1878.3999999985099,303574.200000003,7111,VNB,C,7
8,test,3,0.0,1-Back,1,m,Thu Apr 17 2025 17:09:38 GMT-0500 (Central Daylight Time),307502.0,022_y_f_d_a.png,O,m,1028,9,1,2045.1999999955297,305456.80000000447,7111,VNB,C,8
9,test,3,1.0,1-Back,1,m,Thu Apr 17 2025 17:09:38 GMT-0500 (Central Daylight Time),310018.0,015_o_m_n_a.png,O,m,1499,10,1,2511.89999999851,307506.1000000015,7111,VNB,C,9
10,test,3,0.0,1-Back,1,m,Thu Apr 17 2025 17:09:38 GMT-0500 (Central Daylight Time),312150.5,014_m_m_h_a.png,O,m,1110,11,1,2128.2999999970198,310022.200000003,7111,VNB,C,10
11,test,3,0.0,1-Back,1,z,Thu Apr 17 2025 17:09:38 GMT-0500 (Central Daylight Time),314266.6000000015,019_m_f_h_a.png,O,z,1091,12,1,2111.10000000149,312155.5,7111,VNB,C,11
12,test,3,1.0,1-Back,1,m,Thu Apr 17 2025 17:09:38 GMT-0500 (Central Daylight Time),316166.0,012_o_f_d_a.png,O,m,871,13,1,1896.1000000014901,314269.8999999985,7111,VNB,C,12
13,test,3,0.0,1-Back,1,z,Thu Apr 17 2025 17:09:38 GMT-0500 (Central Daylight Time),318482.0,014_m_m_d_a.png,O,z,1290,14,1,2312.0,316170.0,7111,VNB,C,13
14,test,3,0.0,1-Back,1,m,Thu Apr 17 2025 17:09:38 GMT-0500 (Central Daylight Time),320598.0,025_y_m_n_a.png,O,m,1094,15,1,2111.89999999851,318486.1000000015,7111,VNB,C,14
15,test,3,1.0,1-Back,1,m,Thu Apr 17 2025 17:09:38 GMT-0500 (Central Daylight Time),323447.200000003,015_o_m_h_a.png,O,m,1827,16,1,2844.60000000149,320602.6000000015,7111,VNB,C,15
16,test,3,0.0,1-Back,1,m,Thu Apr 17 2025 17:09:38 GMT-0500 (Central Daylight Time),325863.1000000015,025_y_m_d_a.png,O,m,1387,17,1,2411.0,323452.1000000015,7111,VNB,C,16
17,test,3,1.0,1-Back,1,m,Thu Apr 17 2025 17:09:38 GMT-0500 (Central Daylight Time),327879.700000003,022_y_f_n_a.png,O,m,994,18,1,2013.0,325866.700000003,7111,VNB,C,17
0,test,4,1.0,1-Back,,,Thu Apr 17 2025 17:09:38 GMT-0500 (Central Daylight Time),327879.700000003,014_m_m_d_a.png,O,space,1585,1,1,2013.0,325866.700000003,7111,VNB,C,0
1,test,4,0.0,1-Back,1,z,Thu Apr 17 2025 17:09:38 GMT-0500 (Central Daylight Time),334372.30000000447,015_o_m_d_a.png,O,z,1859,2,1,2873.7000000029802,331498.6000000015,7111,VNB,C,1
2,test,4,0.0,1-Back,1,m,Thu Apr 17 2025 17:09:38 GMT-0500 (Central Daylight Time),336293.0,025_y_m_h_a.png,O,m,888,3,1,1916.3999999985099,334376.6000000015,7111,VNB,C,2
3,test,4,0.0,1-Back,1,m,Thu Apr 17 2025 17:09:38 GMT-0500 (Central Daylight Time),338308.8999999985,019_m_f_n_a.png,O,m,988,4,1,2011.1999999955297,336297.700000003,7111,VNB,C,3
4,test,4,1.0,1-Back,1,m,Thu Apr 17 2025 17:09:38 GMT-0500 (Central Daylight Time),340924.80000000447,012_o_f_h_a.png,O,m,1587,5,1,2611.7000000029802,338313.1000000015,7111,VNB,C,4
5,test,4,0.0,1-Back,1,m,Thu Apr 17 2025 17:09:38 GMT-0500 (Central Daylight Time),342841.1000000015,014_m_m_n_a.png,O,m,884,6,1,1912.0,340929.1000000015,7111,VNB,C,5
6,test,4,0.0,1-Back,1,m,Thu Apr 17 2025 17:09:38 GMT-0500 (Central Daylight Time),345306.700000003,025_y_m_d_a.png,O,m,1440,7,1,2461.39999999851,342845.30000000447,7111,VNB,C,6
7,test,4,1.0,1-Back,1,z,Thu Apr 17 2025 17:09:38 GMT-0500 (Central Daylight Time),347456.0,022_y_f_d_a.png,O,z,1117,8,1,2144.7999999970198,345311.200000003,7111,VNB,C,7
8,test,4,0.0,1-Back,1,m,Thu Apr 17 2025 17:09:38 GMT-0500 (Central Daylight Time),349305.8999999985,019_m_f_h_a.png,O,m,833,9,1,1845.7999999970198,347460.1000000015,7111,VNB,C,8
9,test,4,0.0,1-Back,1,z,Thu Apr 17 2025 17:09:38 GMT-0500 (Central Daylight Time),351388.30000000447,015_o_m_h_a.png,O,z,1054,10,1,2078.7000000029802,349309.6000000015,7111,VNB,C,9
10,test,4,1.0,1-Back,1,m,Thu Apr 17 2025 17:09:38 GMT-0500 (Central Daylight Time),353287.6000000015,012_o_f_n_a.png,O,m,868,11,1,1894.3999999985099,351393.200000003,7111,VNB,C,10
11,test,4,0.0,1-Back,1,m,Thu Apr 17 2025 17:09:38 GMT-0500 (Central Daylight Time),355353.700000003,019_m_f_d_a.png,O,m,1033,12,1,2062.7000000029802,353291.0,7111,VNB,C,11
12,test,4,0.0,1-Back,1,m,Thu Apr 17 2025 17:09:38 GMT-0500 (Central Daylight Time),357569.8999999985,022_y_f_n_a.png,O,m,1191,13,1,2212.1999999955297,355357.700000003,7111,VNB,C,12
13,test,4,0.0,1-Back,1,m,Thu Apr 17 2025 17:09:38 GMT-0500 (Central Daylight Time),359802.200000003,012_o_f_d_a.png,O,m,1207,14,1,2228.3000000044703,357573.8999999985,7111,VNB,C,13
14,test,4,0.0,1-Back,1,m,Thu Apr 17 2025 17:09:38 GMT-0500 (Central Daylight Time),361751.8999999985,022_y_f_h_a.png,O,m,926,15,1,1945.3999999985099,359806.5,7111,VNB,C,14
15,test,4,1.0,1-Back,1,z,Thu Apr 17 2025 17:09:38 GMT-0500 (Central Daylight Time),363667.700000003,014_m_m_h_a.png,O,z,888,16,1,1912.1000000014901,361755.6000000015,7111,VNB,C,15
16,test,4,0.0,1-Back,1,m,Thu Apr 17 2025 17:09:38 GMT-0500 (Central Daylight Time),365400.5,015_o_m_n_a.png,O,m,710,17,1,1728.8999999985099,363671.6000000015,7111,VNB,C,16
17,test,4,1.0,1-Back,1,z,Thu Apr 17 2025 17:09:38 GMT-0500 (Central Daylight Time),367649.8999999985,025_y_m_n_a.png,O,z,1224,18,1,2245.0999999940395,365404.80000000447,7111,VNB,C,17
0,test,5,1.0,1-Back,,,Thu Apr 17 2025 17:09:38 GMT-0500 (Central Daylight Time),367649.8999999985,015_o_m_n_a.png,O,space,1351,1,1,2245.0999999940395,365404.80000000447,7111,VNB,C,0
1,test,5,1.0,1-Back,1,m,Thu Apr 17 2025 17:09:38 GMT-0500 (Central Daylight Time),372931.6000000015,012_o_f_h_a.png,O,m,873,2,1,1894.1000000014901,371037.5,7111,VNB,C,1
2,test,5,0.0,1-Back,1,m,Thu Apr 17 2025 17:09:38 GMT-0500 (Central Daylight Time),375397.5,025_y_m_d_a.png,O,m,1446,3,1,2461.60000000149,372935.8999999985,7111,VNB,C,2
3,test,5,0.0,1-Back,1,z,Thu Apr 17 2025 17:09:38 GMT-0500 (Central Daylight Time),377563.5,015_o_m_d_a.png,O,z,1148,4,1,2161.89999999851,375401.6000000015,7111,VNB,C,3
4,test,5,0.0,1-Back,1,m,Thu Apr 17 2025 17:09:38 GMT-0500 (Central Daylight Time),379396.200000003,019_m_f_h_a.png,O,m,814,5,1,1828.8999999985099,377567.30000000447,7111,VNB,C,4
5,test,5,0.0,1-Back,1,m,Thu Apr 17 2025 17:09:38 GMT-0500 (Central Daylight Time),381503.0,022_y_f_n_a.png,O,m,1090,6,1,2102.5,379400.5,7111,VNB,C,5
5,test,5,1.0,1-Back,0,z,Thu Apr 17 2025 17:09:38 GMT-0500 (Central Daylight Time),384528.200000003,012_o_f_n_a.png,O,None,2016,7,1,3021.0,381507.200000003,7111,VNB,C,6
6,test,5,0.0,1-Back,1,m,Thu Apr 17 2025 17:09:38 GMT-0500 (Central Daylight Time),387543.8999999985,019_m_f_d_a.png,O,m,1994,8,1,3012.39999999851,384531.5,7111,VNB,C,7
7,test,5,0.0,1-Back,1,m,Thu Apr 17 2025 17:09:38 GMT-0500 (Central Daylight Time),389409.80000000447,025_y_m_h_a.png,O,m,841,9,1,1862.1000000014901,387547.700000003,7111,VNB,C,8
8,test,5,0.0,1-Back,1,m,Thu Apr 17 2025 17:09:38 GMT-0500 (Central Daylight Time),391659.0,022_y_f_d_a.png,O,m,1224,10,1,2245.2999999970198,389413.700000003,7111,VNB,C,9
9,test,5,0.0,1-Back,1,m,Thu Apr 17 2025 17:09:38 GMT-0500 (Central Daylight Time),394025.0,014_m_m_n_a.png,O,m,1333,11,1,2361.7999999970198,391663.200000003,7111,VNB,C,10
10,test,5,1.0,1-Back,1,z,Thu Apr 17 2025 17:09:38 GMT-0500 (Central Daylight Time),396407.5,019_m_f_n_a.png,O,z,1351,12,1,2379.60000000149,394027.8999999985,7111,VNB,C,11
11,test,5,0.0,1-Back,1,m,Thu Apr 17 2025 17:09:38 GMT-0500 (Central Daylight Time),398140.30000000447,015_o_m_h_a.png,O,m,713,13,1,1728.7000000029802,396411.6000000015,7111,VNB,C,12
12,test,5,0.0,1-Back,1,z,Thu Apr 17 2025 17:09:38 GMT-0500 (Central Daylight Time),400406.30000000447,014_m_m_h_a.png,O,z,1237,14,1,2261.7000000029802,398144.6000000015,7111,VNB,C,13
13,test,5,1.0,1-Back,1,m,Thu Apr 17 2025 17:09:38 GMT-0500 (Central Daylight Time),402288.8999999985,012_o_f_d_a.png,O,m,859,15,1,1878.6999999955297,400410.200000003,7111,VNB,C,14
14,test,5,0.0,1-Back,1,m,Thu Apr 17 2025 17:09:38 GMT-0500 (Central Daylight Time),404604.80000000447,025_y_m_n_a.png,O,m,1288,16,1,2312.10000000149,402292.700000003,7111,VNB,C,15
15,test,5,0.0,1-Back,1,m,Thu Apr 17 2025 17:09:38 GMT-0500 (Central Daylight Time),406487.700000003,022_y_f_h_a.png,O,m,859,17,1,1878.6000000014901,404609.1000000015,7111,VNB,C,16
16,test,5,0.0,1-Back,1,m,Thu Apr 17 2025 17:09:38 GMT-0500 (Central Daylight Time),408770.200000003,014_m_m_d_a.png,O,m,1266,18,1,2278.7000000029802,406491.5,7111,VNB,C,17
0,prac,1,0.0,2-Back,,,Thu Apr 17 2025 17:09:38 GMT-0500 (Central Daylight Time),408770.200000003,019_m_f_n_a.png,O,space,1982,1,1,2278.7000000029802,406491.5,7111,VNB,C,0
0,prac,1,0.0,2-Back,,,Thu Apr 17 2025 17:09:38 GMT-0500 (Central Daylight Time),408770.200000003,012_o_f_h_a.png,O,space,1982,2,1,2278.7000000029802,406491.5,7111,VNB,C,0
1,prac,1,0.0,2-Back,1,m,Thu Apr 17 2025 17:09:38 GMT-0500 (Central Daylight Time),478448.6000000015,015_o_m_d_a.png,O,m,1251,3,1,2143.5,476305.1000000015,7111,VNB,C,1
1,prac,1,1.0,2-Back,0,z,Thu Apr 17 2025 17:09:38 GMT-0500 (Central Daylight Time),481331.1000000015,014_m_m_h_a.png,O,None,2004,4,1,2876.0,478455.1000000015,7111,VNB,C,2
2,prac,1,0.0,2-Back,1,m,Thu Apr 17 2025 17:09:38 GMT-0500 (Central Daylight Time),484213.5,022_y_f_n_a.png,O,m,1974,5,1,2877.39999999851,481336.1000000015,7111,VNB,C,3
2,prac,1,1.0,2-Back,0,z,Thu Apr 17 2025 17:09:38 GMT-0500 (Central Daylight Time),486396.200000003,015_o_m_h_a.png,O,m,1398,6,1,2176.8000000044703,484219.3999999985,7111,VNB,C,4
3,prac,1,1.0,2-Back,1,z,Thu Apr 17 2025 17:09:38 GMT-0500 (Central Daylight Time),488595.5,025_y_m_n_a.png,O,z,1327,7,1,2193.89999999851,486401.6000000015,7111,VNB,C,5
4,prac,1,0.0,2-Back,1,m,Thu Apr 17 2025 17:09:38 GMT-0500 (Central Daylight Time),491361.200000003,019_m_f_d_a.png,O,m,1860,8,1,2759.5,488601.700000003,7111,VNB,C,6
4,prac,1,0.0,2-Back,0,m,Thu Apr 17 2025 17:09:38 GMT-0500 (Central Daylight Time),493543.8999999985,012_o_f_d_a.png,O,z,1283,9,1,2176.2999999970198,491367.6000000015,7111,VNB,C,7
4,prac,1,0.0,2-Back,0,m,Thu Apr 17 2025 17:09:38 GMT-0500 (Central Daylight Time),496326.30000000447,014_m_m_h_a.png,O,None,2010,10,1,2777.3000000044703,493549.0,7111,VNB,C,8
4,prac,1,1.0,2-Back,0,z,Thu Apr 17 2025 17:09:38 GMT-0500 (Central Daylight Time),499302.700000003,022_y_f_d_a.png,O,None,2005,11,1,2971.3000000044703,496331.3999999985,7111,VNB,C,9
4,prac,1,0.0,2-Back,0,m,Thu Apr 17 2025 17:09:38 GMT-0500 (Central Daylight Time),502241.0,015_o_m_n_a.png,O,None,2007,12,1,2931.1999999955297,499309.80000000447,7111,VNB,C,10
0,prac,2,0.0,2-Back,,,Thu Apr 17 2025 17:09:38 GMT-0500 (Central Daylight Time),502241.0,019_m_f_n_a.png,O,a,2917,1,1,2931.1999999955297,499309.80000000447,7111,VNB,C,0
0,prac,2,0.0,2-Back,,,Thu Apr 17 2025 17:09:38 GMT-0500 (Central Daylight Time),502241.0,012_o_f_h_a.png,O,a,2917,2,1,2931.1999999955297,499309.80000000447,7111,VNB,C,0
1,prac,2,0.0,2-Back,1,m,Thu Apr 17 2025 17:09:38 GMT-0500 (Central Daylight Time),512421.200000003,015_o_m_d_a.png,O,m,1035,3,1,1942.5,510478.700000003,7111,VNB,C,1
2,prac,2,1.0,2-Back,1,z,Thu Apr 17 2025 17:09:38 GMT-0500 (Central Daylight Time),514404.0,014_m_m_h_a.png,O,z,1196,4,1,1975.7999999970198,512428.200000003,7111,VNB,C,2
3,prac,2,0.0,2-Back,1,m,Thu Apr 17 2025 17:09:38 GMT-0500 (Central Daylight Time),516853.3999999985,022_y_f_n_a.png,O,m,1540,5,1,2443.5999999940395,514409.80000000447,7111,VNB,C,3
3,prac,2,1.0,2-Back,0,z,Thu Apr 17 2025 17:09:38 GMT-0500 (Central Daylight Time),519202.6000000015,015_o_m_h_a.png,O,m,1437,6,1,2343.0,516859.6000000015,7111,VNB,C,4
3,prac,2,1.0,2-Back,0,z,Thu Apr 17 2025 17:09:38 GMT-0500 (Central Daylight Time),522084.700000003,025_y_m_n_a.png,O,None,2009,7,1,2875.5,519209.200000003,7111,VNB,C,5
3,prac,2,0.0,2-Back,0,m,Thu Apr 17 2025 17:09:38 GMT-0500 (Central Daylight Time),524284.30000000447,019_m_f_d_a.png,O,z,1289,8,1,2193.0,522091.30000000447,7111,VNB,C,6
4,prac,2,0.0,2-Back,1,m,Thu Apr 17 2025 17:09:38 GMT-0500 (Central Daylight Time),526516.700000003,012_o_f_d_a.png,O,m,1335,9,1,2227.3000000044703,524289.3999999985,7111,VNB,C,7
5,prac,2,0.0,2-Back,1,m,Thu Apr 17 2025 17:09:38 GMT-0500 (Central Daylight Time),528732.700000003,014_m_m_h_a.png,O,m,1439,10,1,2210.10000000149,526522.6000000015,7111,VNB,C,8
5,prac,2,1.0,2-Back,0,z,Thu Apr 17 2025 17:09:38 GMT-0500 (Central Daylight Time),530798.8000000045,022_y_f_d_a.png,O,m,1159,11,1,2059.2000000029802,528739.6000000015,7111,VNB,C,9
5,prac,2,0.0,2-Back,0,m,Thu Apr 17 2025 17:09:38 GMT-0500 (Central Daylight Time),533314.6000000015,015_o_m_n_a.png,O,z,1614,12,1,2510.2000000029802,530804.3999999985,7111,VNB,C,10
0,test,1,0.0,2-Back,,,Thu Apr 17 2025 17:09:38 GMT-0500 (Central Daylight Time),533314.6000000015,025_y_m_h_a.png,O,space,1199,1,1,2510.2000000029802,530804.3999999985,7111,VNB,C,0
0,test,1,0.0,2-Back,,,Thu Apr 17 2025 17:09:38 GMT-0500 (Central Daylight Time),533314.6000000015,012_o_f_n_a.png,O,space,1199,2,1,2510.2000000029802,530804.3999999985,7111,VNB,C,0
1,test,1,0.0,2-Back,1,z,Thu Apr 17 2025 17:09:38 GMT-0500 (Central Daylight Time),546094.1000000015,015_o_m_h_a.png,O,z,1487,3,1,2512.39999999851,543581.700000003,7111,VNB,C,1
2,test,1,0.0,2-Back,1,m,Thu Apr 17 2025 17:09:38 GMT-0500 (Central Daylight Time),548393.3000000045,019_m_f_d_a.png,O,m,1267,4,1,2295.3000000044703,546098.0,7111,VNB,C,2
3,test,1,1.0,2-Back,1,m,Thu Apr 17 2025 17:09:38 GMT-0500 (Central Daylight Time),551358.8999999985,025_y_m_n_a.png,O,m,1944,5,1,2961.39999999851,548397.5,7111,VNB,C,3
3,test,1,0.0,2-Back,0,z,Thu Apr 17 2025 17:09:38 GMT-0500 (Central Daylight Time),554174.700000003,022_y_f_d_a.png,O,m,1785,6,1,2812.10000000149,551362.6000000015,7111,VNB,C,4
4,test,1,0.0,2-Back,1,m,Thu Apr 17 2025 17:09:38 GMT-0500 (Central Daylight Time),556291.0,014_m_m_h_a.png,O,m,1090,7,1,2112.39999999851,554178.6000000015,7111,VNB,C,5
5,test,1,1.0,2-Back,1,m,Thu Apr 17 2025 17:09:38 GMT-0500 (Central Daylight Time),558556.700000003,022_y_f_n_a.png,O,m,1246,8,1,2261.7000000029802,556295.0,7111,VNB,C,6
5,test,1,0.0,2-Back,0,z,Thu Apr 17 2025 17:09:38 GMT-0500 (Central Daylight Time),561122.5,012_o_f_h_a.png,O,m,1539,9,1,2561.39999999851,558561.1000000015,7111,VNB,C,7
5,test,1,0.0,2-Back,0,m,Thu Apr 17 2025 17:09:38 GMT-0500 (Central Daylight Time),564155.200000003,015_o_m_d_a.png,O,None,2016,10,1,3028.8000000044703,561126.3999999985,7111,VNB,C,8
5,test,1,1.0,2-Back,0,m,Thu Apr 17 2025 17:09:38 GMT-0500 (Central Daylight Time),567037.3999999985,014_m_m_d_a.png,O,z,1861,11,1,2878.7999999970198,564158.6000000015,7111,VNB,C,9
5,test,1,0.0,2-Back,0,m,Thu Apr 17 2025 17:09:38 GMT-0500 (Central Daylight Time),569636.700000003,019_m_f_n_a.png,O,z,1580,12,1,2595.5,567041.200000003,7111,VNB,C,10
6,test,1,0.0,2-Back,1,m,Thu Apr 17 2025 17:09:38 GMT-0500 (Central Daylight Time),572252.5,022_y_f_h_a.png,O,m,1589,13,1,2611.6999999955297,569640.8000000045,7111,VNB,C,11
6,test,1,0.0,2-Back,0,z,Thu Apr 17 2025 17:09:38 GMT-0500 (Central Daylight Time),575284.8000000045,014_m_m_n_a.png,O,None,2016,14,1,3028.3000000044703,572256.5,7111,VNB,C,12
6,test,1,0.0,2-Back,0,m,Thu Apr 17 2025 17:09:38 GMT-0500 (Central Daylight Time),577900.6000000015,025_y_m_d_a.png,O,z,1588,15,1,2611.7000000029802,575288.8999999985,7111,VNB,C,13
6,test,1,1.0,2-Back,0,m,Thu Apr 17 2025 17:09:38 GMT-0500 (Central Daylight Time),580766.5,019_m_f_h_a.png,O,z,1836,16,1,2862.6999999955297,577903.8000000045,7111,VNB,C,14
6,test,1,0.0,2-Back,0,z,Thu Apr 17 2025 17:09:38 GMT-0500 (Central Daylight Time),583498.8999999985,012_o_f_d_a.png,O,m,1707,17,1,2727.89999999851,580771.0,7111,VNB,C,15
6,test,1,0.0,2-Back,0,m,Thu Apr 17 2025 17:09:38 GMT-0500 (Central Daylight Time),586531.3000000045,015_o_m_n_a.png,O,None,2015,18,1,3028.60000000149,583502.700000003,7111,VNB,C,16
0,test,2,0.0,2-Back,,,Thu Apr 17 2025 17:09:38 GMT-0500 (Central Daylight Time),586531.3000000045,014_m_m_h_a.png,O,space,1373,1,1,3028.60000000149,583502.700000003,7111,VNB,C,0
0,test,2,0.0,2-Back,,,Thu Apr 17 2025 17:09:38 GMT-0500 (Central Daylight Time),586531.3000000045,022_y_f_n_a.png,O,space,1373,2,1,3028.60000000149,583502.700000003,7111,VNB,C,0
1,test,2,1.0,2-Back,1,z,Thu Apr 17 2025 17:09:38 GMT-0500 (Central Daylight Time),595528.5,012_o_f_h_a.png,O,z,1326,3,1,2345.0,593183.5,7111,VNB,C,1
2,test,2,0.0,2-Back,1,m,Thu Apr 17 2025 17:09:38 GMT-0500 (Central Daylight Time),597561.1000000015,015_o_m_d_a.png,O,m,1008,4,1,2029.1000000014901,595532.0,7111,VNB,C,2
2,test,2,0.0,2-Back,0,m,Thu Apr 17 2025 17:09:38 GMT-0500 (Central Daylight Time),600593.6000000015,019_m_f_d_a.png,O,None,2015,5,1,3028.60000000149,597565.0,7111,VNB,C,3
3,test,2,0.0,2-Back,1,m,Thu Apr 17 2025 17:09:38 GMT-0500 (Central Daylight Time),603426.0,025_y_m_h_a.png,O,m,1807,6,1,2828.60000000149,600597.3999999985,7111,VNB,C,4
4,test,2,0.0,2-Back,1,m,Thu Apr 17 2025 17:09:38 GMT-0500 (Central Daylight Time),606191.8000000045,012_o_f_n_a.png,O,m,1734,7,1,2761.9000000059605,603429.8999999985,7111,VNB,C,5
5,test,2,1.0,2-Back,1,z,Thu Apr 17 2025 17:09:38 GMT-0500 (Central Daylight Time),608658.0,015_o_m_h_a.png,O,z,1433,8,1,2462.5,606195.5,7111,VNB,C,6
5,test,2,0.0,2-Back,0,m,Thu Apr 17 2025 17:09:38 GMT-0500 (Central Daylight Time),611423.5,022_y_f_d_a.png,O,z,1743,9,1,2761.6999999955297,608661.8000000045,7111,VNB,C,7
5,test,2,0.0,2-Back,0,m,Thu Apr 17 2025 17:09:38 GMT-0500 (Central Daylight Time),614206.0,025_y_m_d_a.png,O,z,1761,10,1,2778.5,611427.5,7111,VNB,C,8
6,test,2,0.0,2-Back,1,m,Thu Apr 17 2025 17:09:38 GMT-0500 (Central Daylight Time),616371.8000000045,014_m_m_n_a.png,O,m,1139,11,1,2161.5,614210.3000000045,7111,VNB,C,9
6,test,2,0.0,2-Back,0,m,Thu Apr 17 2025 17:09:38 GMT-0500 (Central Daylight Time),619404.3000000045,019_m_f_h_a.png,O,None,2015,12,1,3028.60000000149,616375.700000003,7111,VNB,C,10
7,test,2,1.0,2-Back,1,z,Thu Apr 17 2025 17:09:38 GMT-0500 (Central Daylight Time),622220.200000003,015_o_m_n_a.png,O,z,1789,13,1,2811.89999999851,619408.3000000045,7111,VNB,C,11
8,test,2,0.0,2-Back,1,m,Thu Apr 17 2025 17:09:38 GMT-0500 (Central Daylight Time),624835.8999999985,012_o_f_d_a.png,O,m,1588,14,1,2612.1999999955297,622223.700000003,7111,VNB,C,12
8,test,2,0.0,2-Back,0,m,Thu Apr 17 2025 17:09:38 GMT-0500 (Central Daylight Time),627401.8000000045,022_y_f_h_a.png,O,z,1533,15,1,2561.8000000044703,624840.0,7111,VNB,C,13
9,test,2,0.0,2-Back,1,z,Thu Apr 17 2025 17:09:38 GMT-0500 (Central Daylight Time),629934.5,014_m_m_d_a.png,O,z,1503,16,1,2528.6999999955297,627405.8000000045,7111,VNB,C,14
10,test,2,0.0,2-Back,1,m,Thu Apr 17 2025 17:09:38 GMT-0500 (Central Daylight Time),632300.3000000045,025_y_m_n_a.png,O,m,1347,17,1,2361.60000000149,629938.700000003,7111,VNB,C,15
10,test,2,1.0,2-Back,0,m,Thu Apr 17 2025 17:09:38 GMT-0500 (Central Daylight Time),635049.6000000015,019_m_f_n_a.png,O,z,1724,18,1,2745.2999999970198,632304.3000000045,7111,VNB,C,16
0,test,3,1.0,2-Back,,,Thu Apr 17 2025 17:09:38 GMT-0500 (Central Daylight Time),635049.6000000015,015_o_m_n_a.png,O,space,1136,1,1,2745.2999999970198,632304.3000000045,7111,VNB,C,0
0,test,3,1.0,2-Back,,,Thu Apr 17 2025 17:09:38 GMT-0500 (Central Daylight Time),635049.6000000015,012_o_f_d_a.png,O,space,1136,2,1,2745.2999999970198,632304.3000000045,7111,VNB,C,0
1,test,3,0.0,2-Back,1,m,Thu Apr 17 2025 17:09:38 GMT-0500 (Central Daylight Time),643296.8000000045,022_y_f_h_a.png,O,m,1016,3,1,2045.3000000044703,641251.5,7111,VNB,C,1
2,test,3,0.0,2-Back,1,z,Thu Apr 17 2025 17:09:38 GMT-0500 (Central Daylight Time),646029.5,019_m_f_d_a.png,O,z,1704,4,1,2728.89999999851,643300.6000000015,7111,VNB,C,2
2,test,3,1.0,2-Back,0,m,Thu Apr 17 2025 17:09:38 GMT-0500 (Central Daylight Time),648278.8999999985,025_y_m_n_a.png,O,z,1220,5,1,2245.2999999970198,646033.6000000015,7111,VNB,C,3
3,test,3,0.0,2-Back,1,m,Thu Apr 17 2025 17:09:38 GMT-0500 (Central Daylight Time),650628.1000000015,015_o_m_h_a.png,O,m,1329,6,1,2345.2000000029802,648282.8999999985,7111,VNB,C,4
3,test,3,0.0,2-Back,0,z,Thu Apr 17 2025 17:09:38 GMT-0500 (Central Daylight Time),653643.700000003,022_y_f_n_a.png,O,m,1989,7,1,3012.10000000149,650631.6000000015,7111,VNB,C,5
3,test,3,1.0,2-Back,0,m,Thu Apr 17 2025 17:09:38 GMT-0500 (Central Daylight Time),656392.700000003,014_m_m_d_a.png,O,z,1726,8,1,2745.10000000149,653647.6000000015,7111,VNB,C,6
4,test,3,0.0,2-Back,1,m,Thu Apr 17 2025 17:09:38 GMT-0500 (Central Daylight Time),659008.6000000015,025_y_m_d_a.png,O,m,1593,9,1,2611.60000000149,656397.0,7111,VNB,C,7
5,test,3,0.0,2-Back,1,m,Thu Apr 17 2025 17:09:38 GMT-0500 (Central Daylight Time),661141.3000000045,012_o_f_h_a.png,O,m,1105,10,1,2129.2000000029802,659012.1000000015,7111,VNB,C,8
6,test,3,1.0,2-Back,1,m,Thu Apr 17 2025 17:09:38 GMT-0500 (Central Daylight Time),663607.3999999985,019_m_f_n_a.png,O,m,1435,11,1,2462.2999999970198,661145.1000000015,7111,VNB,C,9
7,test,3,1.0,2-Back,1,z,Thu Apr 17 2025 17:09:38 GMT-0500 (Central Daylight Time),666223.200000003,014_m_m_h_a.png,O,z,1594,12,1,2612.10000000149,663611.1000000015,7111,VNB,C,10
8,test,3,0.0,2-Back,1,m,Thu Apr 17 2025 17:09:38 GMT-0500 (Central Daylight Time),668722.3000000045,022_y_f_d_a.png,O,m,1482,13,1,2495.2000000029802,666227.1000000015,7111,VNB,C,11
8,test,3,0.0,2-Back,0,m,Thu Apr 17 2025 17:09:38 GMT-0500 (Central Daylight Time),671754.6000000015,012_o_f_n_a.png,O,None,2015,14,1,3028.7999999970198,668725.8000000045,7111,VNB,C,12
8,test,3,0.0,2-Back,0,z,Thu Apr 17 2025 17:09:38 GMT-0500 (Central Daylight Time),674787.1000000015,015_o_m_d_a.png,O,None,2015,15,1,3029.2000000029802,671757.8999999985,7111,VNB,C,13
8,test,3,1.0,2-Back,0,m,Thu Apr 17 2025 17:09:38 GMT-0500 (Central Daylight Time),677536.1000000015,019_m_f_h_a.png,O,z,1726,16,1,2745.2999999970198,674790.8000000045,7111,VNB,C,14
9,test,3,0.0,2-Back,1,m,Thu Apr 17 2025 17:09:38 GMT-0500 (Central Daylight Time),680335.3000000045,014_m_m_n_a.png,O,m,1769,17,1,2795.10000000149,677540.200000003,7111,VNB,C,15
10,test,3,0.0,2-Back,1,z,Thu Apr 17 2025 17:09:38 GMT-0500 (Central Daylight Time),682484.6000000015,025_y_m_h_a.png,O,z,1122,18,1,2145.39999999851,680339.200000003,7111,VNB,C,16
0,test,4,0.0,2-Back,,,Thu Apr 17 2025 17:09:38 GMT-0500 (Central Daylight Time),682484.6000000015,019_m_f_n_a.png,O,space,1197,1,1,2145.39999999851,680339.200000003,7111,VNB,C,0
0,test,4,0.0,2-Back,,,Thu Apr 17 2025 17:09:38 GMT-0500 (Central Daylight Time),682484.6000000015,015_o_m_n_a.png,O,space,1197,2,1,2145.39999999851,680339.200000003,7111,VNB,C,0
1,test,4,1.0,2-Back,1,m,Thu Apr 17 2025 17:09:38 GMT-0500 (Central Daylight Time),691032.1000000015,025_y_m_h_a.png,O,m,1018,3,1,2044.6000000014901,688987.5,7111,VNB,C,1
1,test,4,1.0,2-Back,0,m,Thu Apr 17 2025 17:09:38 GMT-0500 (Central Daylight Time),694052.0,012_o_f_d_a.png,O,None,2003,4,1,3016.10000000149,691035.8999999985,7111,VNB,C,2
2,test,4,0.0,2-Back,1,z,Thu Apr 17 2025 17:09:38 GMT-0500 (Central Daylight Time),696380.3999999985,015_o_m_h_a.png,O,z,1314,5,1,2324.2999999970198,694056.1000000015,7111,VNB,C,3
3,test,4,0.0,2-Back,1,m,Thu Apr 17 2025 17:09:38 GMT-0500 (Central Daylight Time),698712.8999999985,014_m_m_n_a.png,O,m,1308,6,1,2329.0999999940395,696383.8000000045,7111,VNB,C,4
4,test,4,0.0,2-Back,1,m,Thu Apr 17 2025 17:09:38 GMT-0500 (Central Daylight Time),700762.3999999985,019_m_f_d_a.png,O,m,1016,7,1,2045.7999999970198,698716.6000000015,7111,VNB,C,5
5,test,4,0.0,2-Back,1,z,Thu Apr 17 2025 17:09:38 GMT-0500 (Central Daylight Time),703461.3999999985,022_y_f_n_a.png,O,z,1679,8,1,2696.0999999940395,700765.3000000045,7111,VNB,C,6
5,test,4,1.0,2-Back,0,m,Thu Apr 17 2025 17:09:38 GMT-0500 (Central Daylight Time),706144.0,012_o_f_h_a.png,O,z,1651,9,1,2678.6999999955297,703465.3000000045,7111,VNB,C,7
6,test,4,0.0,2-Back,1,m,Thu Apr 17 2025 17:09:38 GMT-0500 (Central Daylight Time),708642.8999999985,014_m_m_h_a.png,O,m,1473,10,1,2495.0999999940395,706147.8000000045,7111,VNB,C,8
7,test,4,0.0,2-Back,1,m,Thu Apr 17 2025 17:09:38 GMT-0500 (Central Daylight Time),710609.3000000045,022_y_f_d_a.png,O,m,933,11,1,1962.3000000044703,708647.0,7111,VNB,C,9
8,test,4,0.0,2-Back,1,m,Thu Apr 17 2025 17:09:38 GMT-0500 (Central Daylight Time),713374.8999999985,025_y_m_n_a.png,O,m,1735,12,1,2761.7999999970198,710613.1000000015,7111,VNB,C,10
9,test,4,0.0,2-Back,1,z,Thu Apr 17 2025 17:09:38 GMT-0500 (Central Daylight Time),716357.3999999985,015_o_m_d_a.png,O,z,1962,13,1,2978.2999999970198,713379.1000000015,7111,VNB,C,11
9,test,4,1.0,2-Back,0,m,Thu Apr 17 2025 17:09:38 GMT-0500 (Central Daylight Time),719089.8000000045,019_m_f_h_a.png,O,z,1708,14,1,2728.3000000044703,716361.5,7111,VNB,C,12
9,test,4,1.0,2-Back,0,m,Thu Apr 17 2025 17:09:38 GMT-0500 (Central Daylight Time),722122.3000000045,022_y_f_h_a.png,O,None,2015,15,1,3028.60000000149,719093.700000003,7111,VNB,C,13
10,test,4,0.0,2-Back,1,m,Thu Apr 17 2025 17:09:38 GMT-0500 (Central Daylight Time),724554.5,012_o_f_n_a.png,O,m,1415,16,1,2428.1999999955297,722126.3000000045,7111,VNB,C,14
11,test,4,0.0,2-Back,1,m,Thu Apr 17 2025 17:09:38 GMT-0500 (Central Daylight Time),727120.8000000045,025_y_m_d_a.png,O,m,1534,17,1,2562.60000000149,724558.200000003,7111,VNB,C,15
11,test,4,1.0,2-Back,0,m,Thu Apr 17 2025 17:09:38 GMT-0500 (Central Daylight Time),730053.1000000015,014_m_m_d_a.png,O,z,1905,18,1,2928.2999999970198,727124.8000000045,7111,VNB,C,16
0,test,5,1.0,2-Back,,,Thu Apr 17 2025 17:09:38 GMT-0500 (Central Daylight Time),730053.1000000015,022_y_f_d_a.png,O,space,1275,1,1,2928.2999999970198,727124.8000000045,7111,VNB,C,0
0,test,5,1.0,2-Back,,,Thu Apr 17 2025 17:09:38 GMT-0500 (Central Daylight Time),730053.1000000015,012_o_f_h_a.png,O,space,1275,2,1,2928.2999999970198,727124.8000000045,7111,VNB,C,0
0,test,5,1.0,2-Back,0,z,Thu Apr 17 2025 17:09:38 GMT-0500 (Central Daylight Time),739650.3999999985,015_o_m_d_a.png,O,None,2016,3,1,3028.5,736621.8999999985,7111,VNB,C,1
1,test,5,1.0,2-Back,1,m,Thu Apr 17 2025 17:09:38 GMT-0500 (Central Daylight Time),741716.0,019_m_f_n_a.png,O,m,1039,4,1,2061.89999999851,739654.1000000015,7111,VNB,C,2
2,test,5,0.0,2-Back,1,m,Thu Apr 17 2025 17:09:38 GMT-0500 (Central Daylight Time),743815.5,014_m_m_h_a.png,O,m,1069,5,1,2095.6999999955297,741719.8000000045,7111,VNB,C,3
3,test,5,0.0,2-Back,1,z,Thu Apr 17 2025 17:09:38 GMT-0500 (Central Daylight Time),746181.3999999985,022_y_f_n_a.png,O,z,1346,6,1,2362.1999999955297,743819.200000003,7111,VNB,C,4
4,test,5,0.0,2-Back,1,m,Thu Apr 17 2025 17:09:38 GMT-0500 (Central Daylight Time),748597.3999999985,012_o_f_d_a.png,O,m,1396,7,1,2412.2999999970198,746185.1000000015,7111,VNB,C,5
4,test,5,0.0,2-Back,0,m,Thu Apr 17 2025 17:09:38 GMT-0500 (Central Daylight Time),751429.700000003,015_o_m_h_a.png,O,z,1812,8,1,2828.60000000149,748601.1000000015,7111,VNB,C,6
5,test,5,1.0,2-Back,1,z,Thu Apr 17 2025 17:09:38 GMT-0500 (Central Daylight Time),753845.8000000045,019_m_f_d_a.png,O,z,1396,9,1,2412.10000000149,751433.700000003,7111,VNB,C,7
6,test,5,0.0,2-Back,1,m,Thu Apr 17 2025 17:09:38 GMT-0500 (Central Daylight Time),756679.200000003,025_y_m_n_a.png,O,m,1812,10,1,2829.39999999851,753849.8000000045,7111,VNB,C,8
7,test,5,0.0,2-Back,1,m,Thu Apr 17 2025 17:09:38 GMT-0500 (Central Daylight Time),759660.700000003,014_m_m_n_a.png,O,m,1963,11,1,2977.39999999851,756683.3000000045,7111,VNB,C,9
8,test,5,0.0,2-Back,1,m,Thu Apr 17 2025 17:09:38 GMT-0500 (Central Daylight Time),761576.6000000015,022_y_f_h_a.png,O,m,893,12,1,1911.7000000029802,759664.8999999985,7111,VNB,C,10
9,test,5,0.0,2-Back,1,m,Thu Apr 17 2025 17:09:38 GMT-0500 (Central Daylight Time),763509.3000000045,025_y_m_d_a.png,O,m,913,13,1,1929.3000000044703,761580.0,7111,VNB,C,11
9,test,5,1.0,2-Back,0,z,Thu Apr 17 2025 17:09:38 GMT-0500 (Central Daylight Time),765925.0,019_m_f_h_a.png,O,m,1396,14,1,2412.0,763513.0,7111,VNB,C,12
9,test,5,0.0,2-Back,0,m,Thu Apr 17 2025 17:09:38 GMT-0500 (Central Daylight Time),768891.8999999985,015_o_m_n_a.png,O,z,1948,15,1,2963.0,765928.8999999985,7111,VNB,C,13
10,test,5,0.0,2-Back,1,m,Thu Apr 17 2025 17:09:38 GMT-0500 (Central Daylight Time),771556.700000003,014_m_m_d_a.png,O,m,1638,16,1,2661.5,768895.200000003,7111,VNB,C,14
11,test,5,0.0,2-Back,1,z,Thu Apr 17 2025 17:09:38 GMT-0500 (Central Daylight Time),773989.200000003,012_o_f_n_a.png,O,z,1405,17,1,2428.8000000044703,771560.3999999985,7111,VNB,C,15
12,test,5,1.0,2-Back,1,m,Thu Apr 17 2025 17:09:38 GMT-0500 (Central Daylight Time),776138.8999999985,025_y_m_h_a.png,O,m,1124,18,1,2145.7999999970198,773993.1000000015,7111,VNB,C,16
