block_c,block_dur,condition,countdown,datetime,endtime,list,multichar_response,project,response,response_time,session_number,start_end,starttime,subject_id,task,task_vers,trial
,,,,Fri Apr 04 2025 16:48:15 GMT-0500 (Central Daylight Time),,,,O,space,614,1,,,7112,WL,B,
prac,,0,,Fri Apr 04 2025 16:48:15 GMT-0500 (Central Daylight Time),,NA,b,O,b,3759,1,,,7112,WL,B,1.0
prac,,0,,Fri Apr 04 2025 16:48:15 GMT-0500 (Central Daylight Time),,NA,bo,O,o,1302,1,,,7112,WL,B,1.0
prac,,0,,Fri Apr 04 2025 16:48:15 GMT-0500 (Central Daylight Time),,NA,boo,O,o,94,1,,,7112,WL,B,1.0
prac,,0,,Fri Apr 04 2025 16:48:15 GMT-0500 (Central Daylight Time),,NA,boos,O,s,142,1,,,7112,WL,B,1.0
prac,,0,,Fri Apr 04 2025 16:48:15 GMT-0500 (Central Daylight Time),,NA,boost,O,t,98,1,,,7112,WL,B,1.0
prac,,0,,Fri Apr 04 2025 16:48:15 GMT-0500 (Central Daylight Time),,NA,boostenter,O,enter,875,1,,,7112,WL,B,1.0
1,0.8499999046325684,learn,59150.00009536743,Fri Apr 04 2025 16:48:15 GMT-0500 (Central Daylight Time),133396.59999996424,A,s,O,s,810,1,849.0,132547.59999996424,7112,WL,B,1.0
1,1.3499999046325684,learn,58650.00009536743,Fri Apr 04 2025 16:48:15 GMT-0500 (Central Daylight Time),133896.59999996424,A,st,O,t,467,1,1349.0,132547.59999996424,7112,WL,B,1.0
1,2.0160000324249268,learn,57983.99996757507,Fri Apr 04 2025 16:48:15 GMT-0500 (Central Daylight Time),134562.80000001192,A,str,O,r,629,1,2015.2000000476837,132547.59999996424,7112,WL,B,1.0
1,2.3320000171661377,learn,57667.99998283386,Fri Apr 04 2025 16:48:15 GMT-0500 (Central Daylight Time),134879.5,A,stre,O,e,274,1,2331.900000035763,132547.59999996424,7112,WL,B,1.0
1,2.5490000247955322,learn,57450.99997520447,Fri Apr 04 2025 16:48:15 GMT-0500 (Central Daylight Time),135096.09999996424,A,stree,O,e,172,1,2548.5,132547.59999996424,7112,WL,B,1.0
1,2.7320001125335693,learn,57267.99988746643,Fri Apr 04 2025 16:48:15 GMT-0500 (Central Daylight Time),135279.09999996424,A,street,O,t,150,1,2731.5,132547.59999996424,7112,WL,B,1.0
1,4.664000034332275,learn,55335.999965667725,Fri Apr 04 2025 16:48:15 GMT-0500 (Central Daylight Time),137210.5,A,streetenter,O,enter,1902,1,4662.900000035763,132547.59999996424,7112,WL,B,1.0
1,7.430999994277954,learn,52569.000005722046,Fri Apr 04 2025 16:48:15 GMT-0500 (Central Daylight Time),139977.69999998808,A,g,O,g,2753,1,2766.600000023842,137211.09999996424,7112,WL,B,2.0
1,7.829999923706055,learn,52170.000076293945,Fri Apr 04 2025 16:48:15 GMT-0500 (Central Daylight Time),140377.5,A,gr,O,r,357,1,3166.400000035763,137211.09999996424,7112,WL,B,2.0
1,8.180000066757202,learn,51819.9999332428,Fri Apr 04 2025 16:48:15 GMT-0500 (Central Daylight Time),140727.39999997616,A,gra,O,a,310,1,3516.300000011921,137211.09999996424,7112,WL,B,2.0
1,8.464999914169312,learn,51535.00008583069,Fri Apr 04 2025 16:48:15 GMT-0500 (Central Daylight Time),141011.80000001192,A,gras,O,s,234,1,3800.7000000476837,137211.09999996424,7112,WL,B,2.0
1,8.597000122070312,learn,51402.99987792969,Fri Apr 04 2025 16:48:15 GMT-0500 (Central Daylight Time),141143.80000001192,A,grass,O,s,101,1,3932.7000000476837,137211.09999996424,7112,WL,B,2.0
1,9.130000114440918,learn,50869.99988555908,Fri Apr 04 2025 16:48:15 GMT-0500 (Central Daylight Time),141676.89999997616,A,grassenter,O,enter,494,1,4465.800000011921,137211.09999996424,7112,WL,B,2.0
1,9.61299991607666,learn,50387.00008392334,Fri Apr 04 2025 16:48:15 GMT-0500 (Central Daylight Time),142160.0,A,r,O,r,463,1,482.69999998807907,141677.30000001192,7112,WL,B,3.0
1,10.213000059127808,learn,49786.99994087219,Fri Apr 04 2025 16:48:15 GMT-0500 (Central Daylight Time),142759.89999997616,A,ro,O,o,566,1,1082.5999999642372,141677.30000001192,7112,WL,B,3.0
1,11.296000003814697,learn,48703.9999961853,Fri Apr 04 2025 16:48:15 GMT-0500 (Central Daylight Time),143842.80000001192,A,roa,O,a,1054,1,2165.5,141677.30000001192,7112,WL,B,3.0
1,11.513000011444092,learn,48486.99998855591,Fri Apr 04 2025 16:48:15 GMT-0500 (Central Daylight Time),144059.39999997616,A,road,O,d,181,1,2382.099999964237,141677.30000001192,7112,WL,B,3.0
1,11.92799997329712,learn,48072.00002670288,Fri Apr 04 2025 16:48:15 GMT-0500 (Central Daylight Time),144474.80000001192,A,roadenter,O,enter,387,1,2797.5,141677.30000001192,7112,WL,B,3.0
1,12.328999996185303,learn,47671.0000038147,Fri Apr 04 2025 16:48:15 GMT-0500 (Central Daylight Time),144876.30000001192,A,c,O,c,393,1,401.2000000476837,144475.09999996424,7112,WL,B,4.0
1,12.928999900817871,learn,47071.00009918213,Fri Apr 04 2025 16:48:15 GMT-0500 (Central Daylight Time),145476.30000001192,A,ci,O,i,571,1,1001.2000000476837,144475.09999996424,7112,WL,B,4.0
1,13.212000131607056,learn,46787.999868392944,Fri Apr 04 2025 16:48:15 GMT-0500 (Central Daylight Time),145758.69999998808,A,cit,O,t,251,1,1283.6000000238419,144475.09999996424,7112,WL,B,4.0
1,13.57800006866455,learn,46421.99993133545,Fri Apr 04 2025 16:48:15 GMT-0500 (Central Daylight Time),146125.39999997616,A,city,O,y,333,1,1650.300000011921,144475.09999996424,7112,WL,B,4.0
1,14.061000108718872,learn,45938.99989128113,Fri Apr 04 2025 16:48:15 GMT-0500 (Central Daylight Time),146607.5,A,cityenter,O,enter,449,1,2132.400000035763,144475.09999996424,7112,WL,B,4.0
1,14.712000131607056,learn,45287.999868392944,Fri Apr 04 2025 16:48:15 GMT-0500 (Central Daylight Time),147258.39999997616,A,i,O,i,629,1,650.5,146607.89999997616,7112,WL,B,5.0
1,15.227999925613403,learn,44772.0000743866,Fri Apr 04 2025 16:48:15 GMT-0500 (Central Daylight Time),147774.69999998808,A,iw,O,w,483,1,1166.800000011921,146607.89999997616,7112,WL,B,5.0
1,15.510999917984009,learn,44489.00008201599,Fri Apr 04 2025 16:48:15 GMT-0500 (Central Daylight Time),148058.0,A,i,O,backspace,238,1,1450.1000000238419,146607.89999997616,7112,WL,B,5.0
1,15.644000053405762,learn,44355.99994659424,Fri Apr 04 2025 16:48:15 GMT-0500 (Central Daylight Time),148190.89999997616,A,,O,backspace,101,1,1583.0,146607.89999997616,7112,WL,B,5.0
1,15.743000030517578,learn,44256.99996948242,Fri Apr 04 2025 16:48:15 GMT-0500 (Central Daylight Time),148290.09999996424,A,w,O,w,61,1,1682.199999988079,146607.89999997616,7112,WL,B,5.0
1,16.061000108718872,learn,43938.99989128113,Fri Apr 04 2025 16:48:15 GMT-0500 (Central Daylight Time),148607.89999997616,A,wf,O,f,299,1,2000.0,146607.89999997616,7112,WL,B,5.0
1,16.49399995803833,learn,43506.00004196167,Fri Apr 04 2025 16:48:15 GMT-0500 (Central Daylight Time),149041.0,A,w,O,backspace,397,1,2433.100000023842,146607.89999997616,7112,WL,B,5.0
1,16.72699999809265,learn,43273.00000190735,Fri Apr 04 2025 16:48:15 GMT-0500 (Central Daylight Time),149274.30000001192,A,wi,O,i,189,1,2666.400000035763,146607.89999997616,7112,WL,B,5.0
1,16.80999994277954,learn,43190.00005722046,Fri Apr 04 2025 16:48:15 GMT-0500 (Central Daylight Time),149356.80000001192,A,wif,O,f,44,1,2748.900000035763,146607.89999997616,7112,WL,B,5.0
1,17.026999950408936,learn,42973.000049591064,Fri Apr 04 2025 16:48:15 GMT-0500 (Central Daylight Time),149574.09999996424,A,wife,O,e,191,1,2966.199999988079,146607.89999997616,7112,WL,B,5.0
1,17.360000133514404,learn,42639.999866485596,Fri Apr 04 2025 16:48:15 GMT-0500 (Central Daylight Time),149906.5,A,wifeenter,O,enter,297,1,3298.600000023842,146607.89999997616,7112,WL,B,5.0
1,20.526000022888184,learn,39473.99997711182,Fri Apr 04 2025 16:48:15 GMT-0500 (Central Daylight Time),153073.09999996424,A,s,O,s,3153,1,3166.2999999523163,149906.80000001192,7112,WL,B,6.0
1,20.693000078201294,learn,39306.999921798706,Fri Apr 04 2025 16:48:15 GMT-0500 (Central Daylight Time),153239.69999998808,A,st,O,t,138,1,3332.899999976158,149906.80000001192,7112,WL,B,6.0
1,21.009000062942505,learn,38990.999937057495,Fri Apr 04 2025 16:48:15 GMT-0500 (Central Daylight Time),153556.19999998808,A,sta,O,a,288,1,3649.399999976158,149906.80000001192,7112,WL,B,6.0
1,21.276000022888184,learn,38723.99997711182,Fri Apr 04 2025 16:48:15 GMT-0500 (Central Daylight Time),153822.89999997616,A,star,O,r,234,1,3916.099999964237,149906.80000001192,7112,WL,B,6.0
1,21.992000102996826,learn,38007.999897003174,Fri Apr 04 2025 16:48:15 GMT-0500 (Central Daylight Time),154538.30000001192,A,starenter,O,enter,692,1,4631.5,149906.80000001192,7112,WL,B,6.0
1,27.240999937057495,learn,32759.000062942505,Fri Apr 04 2025 16:48:15 GMT-0500 (Central Daylight Time),159787.69999998808,A,w,O,w,5234,1,5249.100000023842,154538.59999996424,7112,WL,B,7.0
1,27.924000024795532,learn,32075.999975204468,Fri Apr 04 2025 16:48:15 GMT-0500 (Central Daylight Time),160470.59999996424,A,,O,backspace,645,1,5932.0,154538.59999996424,7112,WL,B,7.0
1,30.005000114440918,learn,29994.999885559082,Fri Apr 04 2025 16:48:15 GMT-0500 (Central Daylight Time),162552.19999998808,A,enter,O,enter,2042,1,8013.600000023842,154538.59999996424,7112,WL,B,7.0
1,31.505000114440918,learn,28494.999885559082,Fri Apr 04 2025 16:48:15 GMT-0500 (Central Daylight Time),164051.89999997616,A,enter,O,enter,1481,1,1499.3999999761581,162552.5,7112,WL,B,8.0
1,36.0699999332428,learn,23930.000066757202,Fri Apr 04 2025 16:48:15 GMT-0500 (Central Daylight Time),168617.0,A,enter,O,enter,4551,1,4564.600000023842,164052.39999997616,7112,WL,B,9.0
1,39.55200004577637,learn,20447.999954223633,Fri Apr 04 2025 16:48:15 GMT-0500 (Central Daylight Time),172099.19999998808,A,enter,O,enter,3474,1,3481.800000011921,168617.39999997616,7112,WL,B,10.0
1,40.585999965667725,learn,19414.000034332275,Fri Apr 04 2025 16:48:15 GMT-0500 (Central Daylight Time),173133.0,A,enter,O,enter,1024,1,1033.5,172099.5,7112,WL,B,11.0
1,41.168999910354614,learn,18831.000089645386,Fri Apr 04 2025 16:48:15 GMT-0500 (Central Daylight Time),173715.30000001192,A,enter,O,enter,575,1,581.9000000357628,173133.39999997616,7112,WL,B,12.0
1,41.51900005340576,learn,18480.99994659424,Fri Apr 04 2025 16:48:15 GMT-0500 (Central Daylight Time),174065.30000001192,A,enter,O,enter,328,1,349.7000000476837,173715.59999996424,7112,WL,B,13.0
1,41.88499999046326,learn,18115.000009536743,Fri Apr 04 2025 16:48:15 GMT-0500 (Central Daylight Time),174431.69999998808,A,enter,O,enter,354,1,366.10000002384186,174065.59999996424,7112,WL,B,14.0
1,42.46799993515015,learn,17532.000064849854,Fri Apr 04 2025 16:48:15 GMT-0500 (Central Daylight Time),175014.89999997616,A,enter,O,enter,572,1,582.8000000119209,174432.09999996424,7112,WL,B,15.0
2,1.1999998092651367,learn,58800.00019073486,Fri Apr 04 2025 16:48:15 GMT-0500 (Central Daylight Time),247625.69999998808,A,s,O,s,1162,1,1199.3999999761581,246426.30000001192,7112,WL,B,1.0
2,1.3320000171661377,learn,58667.99998283386,Fri Apr 04 2025 16:48:15 GMT-0500 (Central Daylight Time),247758.59999996424,A,sk,O,k,104,1,1332.2999999523163,246426.30000001192,7112,WL,B,1.0
2,1.6329998970031738,learn,58367.000102996826,Fri Apr 04 2025 16:48:15 GMT-0500 (Central Daylight Time),248058.69999998808,A,sky,O,y,261,1,1632.3999999761581,246426.30000001192,7112,WL,B,1.0
2,2.380999803543091,learn,57619.00019645691,Fri Apr 04 2025 16:48:15 GMT-0500 (Central Daylight Time),248807.39999997616,A,skyenter,O,enter,711,1,2381.099999964237,246426.30000001192,7112,WL,B,1.0
2,2.9649999141693115,learn,57035.00008583069,Fri Apr 04 2025 16:48:15 GMT-0500 (Central Daylight Time),249391.30000001192,A,d,O,d,573,1,583.5,248807.80000001192,7112,WL,B,2.0
2,3.131999969482422,learn,56868.00003051758,Fri Apr 04 2025 16:48:15 GMT-0500 (Central Daylight Time),249558.0,A,do,O,o,138,1,750.1999999880791,248807.80000001192,7112,WL,B,2.0
2,3.297999858856201,learn,56702.0001411438,Fri Apr 04 2025 16:48:15 GMT-0500 (Central Daylight Time),249724.5,A,doo,O,o,141,1,916.6999999880791,248807.80000001192,7112,WL,B,2.0
2,3.4649999141693115,learn,56535.00008583069,Fri Apr 04 2025 16:48:15 GMT-0500 (Central Daylight Time),249891.19999998808,A,door,O,r,133,1,1083.3999999761581,248807.80000001192,7112,WL,B,2.0
2,3.813999891281128,learn,56186.00010871887,Fri Apr 04 2025 16:48:15 GMT-0500 (Central Daylight Time),250240.30000001192,A,doorenter,O,enter,319,1,1432.5,248807.80000001192,7112,WL,B,2.0
2,4.115000009536743,learn,55884.99999046326,Fri Apr 04 2025 16:48:15 GMT-0500 (Central Daylight Time),250540.69999998808,A,w,O,w,292,1,300.19999998807907,250240.5,7112,WL,B,3.0
2,4.597999811172485,learn,55402.000188827515,Fri Apr 04 2025 16:48:15 GMT-0500 (Central Daylight Time),251024.09999996424,A,wi,O,i,451,1,783.5999999642372,250240.5,7112,WL,B,3.0
2,4.71399998664856,learn,55286.00001335144,Fri Apr 04 2025 16:48:15 GMT-0500 (Central Daylight Time),251140.59999996424,A,wif,O,f,88,1,900.0999999642372,250240.5,7112,WL,B,3.0
2,4.898000001907349,learn,55101.99999809265,Fri Apr 04 2025 16:48:15 GMT-0500 (Central Daylight Time),251323.80000001192,A,wife,O,e,142,1,1083.300000011921,250240.5,7112,WL,B,3.0
2,5.446999788284302,learn,54553.0002117157,Fri Apr 04 2025 16:48:15 GMT-0500 (Central Daylight Time),251873.0,A,wifeenter,O,enter,518,1,1632.5,250240.5,7112,WL,B,3.0
2,5.830999851226807,learn,54169.00014877319,Fri Apr 04 2025 16:48:15 GMT-0500 (Central Daylight Time),252257.09999996424,A,a,O,a,363,1,383.7999999523163,251873.30000001192,7112,WL,B,4.0
2,5.980999946594238,learn,54019.00005340576,Fri Apr 04 2025 16:48:15 GMT-0500 (Central Daylight Time),252407.09999996424,A,ar,O,r,120,1,533.7999999523163,251873.30000001192,7112,WL,B,4.0
2,6.148000001907349,learn,53851.99999809265,Fri Apr 04 2025 16:48:15 GMT-0500 (Central Daylight Time),252573.80000001192,A,arm,O,m,140,1,700.5,251873.30000001192,7112,WL,B,4.0
2,6.629999876022339,learn,53370.00012397766,Fri Apr 04 2025 16:48:15 GMT-0500 (Central Daylight Time),253056.19999998808,A,armenter,O,enter,443,1,1182.8999999761581,251873.30000001192,7112,WL,B,4.0
2,7.063999891281128,learn,52936.00010871887,Fri Apr 04 2025 16:48:15 GMT-0500 (Central Daylight Time),253490.19999998808,A,g,O,g,412,1,433.69999998807907,253056.5,7112,WL,B,5.0
2,7.2799999713897705,learn,52720.00002861023,Fri Apr 04 2025 16:48:15 GMT-0500 (Central Daylight Time),253706.59999996424,A,gr,O,r,185,1,650.0999999642372,253056.5,7112,WL,B,5.0
2,7.396999835968018,learn,52603.00016403198,Fri Apr 04 2025 16:48:15 GMT-0500 (Central Daylight Time),253823.39999997616,A,gra,O,a,86,1,766.8999999761581,253056.5,7112,WL,B,5.0
2,7.613999843597412,learn,52386.00015640259,Fri Apr 04 2025 16:48:15 GMT-0500 (Central Daylight Time),254039.89999997616,A,gras,O,s,181,1,983.3999999761581,253056.5,7112,WL,B,5.0
2,7.796999931335449,learn,52203.00006866455,Fri Apr 04 2025 16:48:15 GMT-0500 (Central Daylight Time),254223.19999998808,A,grass,O,s,152,1,1166.699999988079,253056.5,7112,WL,B,5.0
2,8.296000003814697,learn,51703.9999961853,Fri Apr 04 2025 16:48:15 GMT-0500 (Central Daylight Time),254722.09999996424,A,grassenter,O,enter,463,1,1665.5999999642372,253056.5,7112,WL,B,5.0
2,9.745999813079834,learn,50254.000186920166,Fri Apr 04 2025 16:48:15 GMT-0500 (Central Daylight Time),256172.19999998808,A,r,O,r,1442,1,1449.800000011921,254722.39999997616,7112,WL,B,6.0
2,9.929999828338623,learn,50070.00017166138,Fri Apr 04 2025 16:48:15 GMT-0500 (Central Daylight Time),256356.19999998808,A,ro,O,o,156,1,1633.800000011921,254722.39999997616,7112,WL,B,6.0
2,10.046000003814697,learn,49953.9999961853,Fri Apr 04 2025 16:48:15 GMT-0500 (Central Daylight Time),256472.5,A,roa,O,a,85,1,1750.1000000238419,254722.39999997616,7112,WL,B,6.0
2,10.212999820709229,learn,49787.00017929077,Fri Apr 04 2025 16:48:15 GMT-0500 (Central Daylight Time),256639.19999998808,A,road,O,d,129,1,1916.800000011921,254722.39999997616,7112,WL,B,6.0
2,10.711999893188477,learn,49288.00010681152,Fri Apr 04 2025 16:48:15 GMT-0500 (Central Daylight Time),257138.30000001192,A,roadenter,O,enter,474,1,2415.900000035763,254722.39999997616,7112,WL,B,6.0
2,11.978999853134155,learn,48021.000146865845,Fri Apr 04 2025 16:48:15 GMT-0500 (Central Daylight Time),258405.19999998808,A,w,O,w,1250,1,1266.6000000238419,257138.59999996424,7112,WL,B,7.0
2,12.145999908447266,learn,47854.000091552734,Fri Apr 04 2025 16:48:15 GMT-0500 (Central Daylight Time),258571.80000001192,A,wo,O,o,133,1,1433.2000000476837,257138.59999996424,7112,WL,B,7.0
2,12.227999925613403,learn,47772.0000743866,Fri Apr 04 2025 16:48:15 GMT-0500 (Central Daylight Time),258654.5,A,wof,O,f,53,1,1515.9000000357628,257138.59999996424,7112,WL,B,7.0
2,12.628999948501587,learn,47371.00005149841,Fri Apr 04 2025 16:48:15 GMT-0500 (Central Daylight Time),259054.89999997616,A,wo,O,backspace,374,1,1916.300000011921,257138.59999996424,7112,WL,B,7.0
2,12.777999877929688,learn,47222.00012207031,Fri Apr 04 2025 16:48:15 GMT-0500 (Central Daylight Time),259204.30000001192,A,w,O,backspace,123,1,2065.7000000476837,257138.59999996424,7112,WL,B,7.0
2,13.211999893188477,learn,46788.00010681152,Fri Apr 04 2025 16:48:15 GMT-0500 (Central Daylight Time),259638.0,A,wi,O,i,398,1,2499.400000035763,257138.59999996424,7112,WL,B,7.0
2,13.311999797821045,learn,46688.000202178955,Fri Apr 04 2025 16:48:15 GMT-0500 (Central Daylight Time),259738.0,A,wif,O,f,70,1,2599.400000035763,257138.59999996424,7112,WL,B,7.0
2,13.478999853134155,learn,46521.000146865845,Fri Apr 04 2025 16:48:15 GMT-0500 (Central Daylight Time),259904.80000001192,A,wife,O,e,134,1,2766.2000000476837,257138.59999996424,7112,WL,B,7.0
2,13.760999917984009,learn,46239.00008201599,Fri Apr 04 2025 16:48:15 GMT-0500 (Central Daylight Time),260187.0,A,wifeenter,O,enter,248,1,3048.400000035763,257138.59999996424,7112,WL,B,7.0
2,21.875999927520752,learn,38124.00007247925,Fri Apr 04 2025 16:48:15 GMT-0500 (Central Daylight Time),268302.0,A,d,O,d,8099,1,8114.800000011921,260187.19999998808,7112,WL,B,8.0
2,22.175999879837036,learn,37824.000120162964,Fri Apr 04 2025 16:48:15 GMT-0500 (Central Daylight Time),268601.8000000119,A,do,O,o,257,1,8414.600000023842,260187.19999998808,7112,WL,B,8.0
2,22.375,learn,37625.0,Fri Apr 04 2025 16:48:15 GMT-0500 (Central Daylight Time),268801.0,A,doo,O,o,160,1,8613.800000011921,260187.19999998808,7112,WL,B,8.0
2,22.47599983215332,learn,37524.00016784668,Fri Apr 04 2025 16:48:15 GMT-0500 (Central Daylight Time),268901.8000000119,A,door,O,r,75,1,8714.600000023842,260187.19999998808,7112,WL,B,8.0
2,22.824999809265137,learn,37175.00019073486,Fri Apr 04 2025 16:48:15 GMT-0500 (Central Daylight Time),269250.6999999881,A,doorenter,O,enter,306,1,9063.5,260187.19999998808,7112,WL,B,8.0
2,24.090999841690063,learn,35909.00015830994,Fri Apr 04 2025 16:48:15 GMT-0500 (Central Daylight Time),270516.89999997616,A,enter,O,enter,1249,1,1266.0,269250.89999997616,7112,WL,B,9.0
2,25.090999841690063,learn,34909.00015830994,Fri Apr 04 2025 16:48:15 GMT-0500 (Central Daylight Time),271516.59999996424,A,enter,O,enter,991,1,999.2999999523163,270517.3000000119,7112,WL,B,10.0
2,25.93999981880188,learn,34060.00018119812,Fri Apr 04 2025 16:48:15 GMT-0500 (Central Daylight Time),272366.3000000119,A,enter,O,enter,839,1,849.3000000119209,271517.0,7112,WL,B,11.0
2,26.289999961853027,learn,33710.00003814697,Fri Apr 04 2025 16:48:15 GMT-0500 (Central Daylight Time),272716.1999999881,A,enter,O,enter,341,1,349.60000002384186,272366.59999996424,7112,WL,B,12.0
2,26.707000017166138,learn,33292.99998283386,Fri Apr 04 2025 16:48:15 GMT-0500 (Central Daylight Time),273132.6999999881,A,enter,O,enter,408,1,416.30000001192093,272716.39999997616,7112,WL,B,13.0
2,27.056999921798706,learn,32943.000078201294,Fri Apr 04 2025 16:48:15 GMT-0500 (Central Daylight Time),273482.59999996424,A,enter,O,enter,327,1,349.5,273133.09999996424,7112,WL,B,14.0
2,27.423999786376953,learn,32576.000213623047,Fri Apr 04 2025 16:48:15 GMT-0500 (Central Daylight Time),273850.3000000119,A,enter,O,enter,361,1,367.4000000357628,273482.89999997616,7112,WL,B,15.0
3,0.9670000076293945,learn,59032.999992370605,Fri Apr 04 2025 16:48:15 GMT-0500 (Central Daylight Time),342144.3000000119,A,s,O,s,938,1,966.0,341178.3000000119,7112,WL,B,1.0
3,1.25,learn,58750.0,Fri Apr 04 2025 16:48:15 GMT-0500 (Central Daylight Time),342427.59999996424,A,sk,O,k,240,1,1249.2999999523163,341178.3000000119,7112,WL,B,1.0
3,1.433000087738037,learn,58566.99991226196,Fri Apr 04 2025 16:48:15 GMT-0500 (Central Daylight Time),342611.0,A,ski,O,i,145,1,1432.699999988079,341178.3000000119,7112,WL,B,1.0
3,1.6000001430511475,learn,58399.99985694885,Fri Apr 04 2025 16:48:15 GMT-0500 (Central Daylight Time),342777.59999996424,A,skin,O,n,136,1,1599.2999999523163,341178.3000000119,7112,WL,B,1.0
3,2.065999984741211,learn,57934.00001525879,Fri Apr 04 2025 16:48:15 GMT-0500 (Central Daylight Time),343244.1999999881,A,skinenter,O,enter,439,1,2065.899999976158,341178.3000000119,7112,WL,B,1.0
3,3.115999937057495,learn,56884.000062942505,Fri Apr 04 2025 16:48:15 GMT-0500 (Central Daylight Time),344293.59999996424,A,p,O,p,1041,1,1049.199999988079,343244.39999997616,7112,WL,B,2.0
3,4.232000112533569,learn,55767.99988746643,Fri Apr 04 2025 16:48:15 GMT-0500 (Central Daylight Time),345410.09999996424,A,pu,O,u,1084,1,2165.699999988079,343244.39999997616,7112,WL,B,2.0
3,4.414999961853027,learn,55585.00003814697,Fri Apr 04 2025 16:48:15 GMT-0500 (Central Daylight Time),345593.1999999881,A,pup,O,p,141,1,2348.800000011921,343244.39999997616,7112,WL,B,2.0
3,4.664999961853027,learn,55335.00003814697,Fri Apr 04 2025 16:48:15 GMT-0500 (Central Daylight Time),345843.0,A,pupi,O,i,214,1,2598.600000023842,343244.39999997616,7112,WL,B,2.0
3,4.982000112533569,learn,55017.99988746643,Fri Apr 04 2025 16:48:15 GMT-0500 (Central Daylight Time),346159.6999999881,A,pupil,O,l,278,1,2915.300000011921,343244.39999997616,7112,WL,B,2.0
3,5.430999994277954,learn,54569.000005722046,Fri Apr 04 2025 16:48:15 GMT-0500 (Central Daylight Time),346608.6999999881,A,pupilenter,O,enter,408,1,3364.300000011921,343244.39999997616,7112,WL,B,2.0
3,5.965000152587891,learn,54034.99984741211,Fri Apr 04 2025 16:48:15 GMT-0500 (Central Daylight Time),347142.6999999881,A,s,O,s,524,1,533.6999999880791,346609.0,7112,WL,B,3.0
3,6.21399998664856,learn,53786.00001335144,Fri Apr 04 2025 16:48:15 GMT-0500 (Central Daylight Time),347391.5,A,st,O,t,209,1,782.5,346609.0,7112,WL,B,3.0
3,6.365000009536743,learn,53634.99999046326,Fri Apr 04 2025 16:48:15 GMT-0500 (Central Daylight Time),347542.39999997616,A,sta,O,a,141,1,933.3999999761581,346609.0,7112,WL,B,3.0
3,6.480999946594238,learn,53519.00005340576,Fri Apr 04 2025 16:48:15 GMT-0500 (Central Daylight Time),347658.6999999881,A,star,O,r,74,1,1049.699999988079,346609.0,7112,WL,B,3.0
3,6.864000082015991,learn,53135.99991798401,Fri Apr 04 2025 16:48:15 GMT-0500 (Central Daylight Time),348041.5,A,starenter,O,enter,361,1,1432.5,346609.0,7112,WL,B,3.0
3,7.215000152587891,learn,52784.99984741211,Fri Apr 04 2025 16:48:15 GMT-0500 (Central Daylight Time),348392.39999997616,A,w,O,w,331,1,350.69999998807907,348041.6999999881,7112,WL,B,4.0
3,7.365000009536743,learn,52634.99999046326,Fri Apr 04 2025 16:48:15 GMT-0500 (Central Daylight Time),348542.3000000119,A,wi,O,i,115,1,500.60000002384186,348041.6999999881,7112,WL,B,4.0
3,7.54800009727478,learn,52451.99990272522,Fri Apr 04 2025 16:48:15 GMT-0500 (Central Daylight Time),348725.5,A,wif,O,f,148,1,683.8000000119209,348041.6999999881,7112,WL,B,4.0
3,7.630000114440918,learn,52369.99988555908,Fri Apr 04 2025 16:48:15 GMT-0500 (Central Daylight Time),348808.3000000119,A,wife,O,e,53,1,766.6000000238419,348041.6999999881,7112,WL,B,4.0
3,8.213000059127808,learn,51786.99994087219,Fri Apr 04 2025 16:48:15 GMT-0500 (Central Daylight Time),349391.0,A,wifeenter,O,enter,549,1,1349.300000011921,348041.6999999881,7112,WL,B,4.0
3,9.996999979019165,learn,50003.000020980835,Fri Apr 04 2025 16:48:15 GMT-0500 (Central Daylight Time),351174.59999996424,A,r,O,r,1773,1,1783.2999999523163,349391.3000000119,7112,WL,B,5.0
3,11.095999956130981,learn,48904.00004386902,Fri Apr 04 2025 16:48:15 GMT-0500 (Central Daylight Time),352274.1999999881,A,ro,O,o,1058,1,2882.899999976158,349391.3000000119,7112,WL,B,5.0
3,11.196000099182129,learn,48803.99990081787,Fri Apr 04 2025 16:48:15 GMT-0500 (Central Daylight Time),352373.6999999881,A,roa,O,a,61,1,2982.399999976158,349391.3000000119,7112,WL,B,5.0
3,11.330000162124634,learn,48669.999837875366,Fri Apr 04 2025 16:48:15 GMT-0500 (Central Daylight Time),352507.5,A,road,O,d,102,1,3116.199999988079,349391.3000000119,7112,WL,B,5.0
3,11.67900013923645,learn,48320.99986076355,Fri Apr 04 2025 16:48:15 GMT-0500 (Central Daylight Time),352856.59999996424,A,roadenter,O,enter,312,1,3465.2999999523163,349391.3000000119,7112,WL,B,5.0
3,12.213000059127808,learn,47786.99994087219,Fri Apr 04 2025 16:48:15 GMT-0500 (Central Daylight Time),353390.6999999881,A,g,O,g,516,1,533.8999999761581,352856.8000000119,7112,WL,B,6.0
3,12.595999956130981,learn,47404.00004386902,Fri Apr 04 2025 16:48:15 GMT-0500 (Central Daylight Time),353773.8000000119,A,gr,O,r,347,1,917.0,352856.8000000119,7112,WL,B,6.0
3,12.796000003814697,learn,47203.9999961853,Fri Apr 04 2025 16:48:15 GMT-0500 (Central Daylight Time),353974.0,A,gra,O,a,171,1,1117.199999988079,352856.8000000119,7112,WL,B,6.0
3,12.996000051498413,learn,47003.99994850159,Fri Apr 04 2025 16:48:15 GMT-0500 (Central Daylight Time),354173.6999999881,A,gras,O,s,172,1,1316.8999999761581,352856.8000000119,7112,WL,B,6.0
3,13.213000059127808,learn,46786.99994087219,Fri Apr 04 2025 16:48:15 GMT-0500 (Central Daylight Time),354390.3000000119,A,grass,O,s,188,1,1533.5,352856.8000000119,7112,WL,B,6.0
3,13.694999933242798,learn,46305.0000667572,Fri Apr 04 2025 16:48:15 GMT-0500 (Central Daylight Time),354872.6999999881,A,grassenter,O,enter,443,1,2015.8999999761581,352856.8000000119,7112,WL,B,6.0
3,37.03800010681152,learn,22961.999893188477,Fri Apr 04 2025 16:48:15 GMT-0500 (Central Daylight Time),378214.89999997616,A,enter,O,enter,23323,1,23342.0,354872.89999997616,7112,WL,B,7.0
3,37.47099995613098,learn,22529.00004386902,Fri Apr 04 2025 16:48:15 GMT-0500 (Central Daylight Time),378648.09999996424,A,enter,O,enter,421,1,432.89999997615814,378215.1999999881,7112,WL,B,8.0
3,37.80400013923645,learn,22195.99986076355,Fri Apr 04 2025 16:48:15 GMT-0500 (Central Daylight Time),378981.3000000119,A,enter,O,enter,316,1,332.9000000357628,378648.39999997616,7112,WL,B,9.0
3,38.07100009918213,learn,21928.99990081787,Fri Apr 04 2025 16:48:15 GMT-0500 (Central Daylight Time),379248.0,A,enter,O,enter,246,1,266.4000000357628,378981.59999996424,7112,WL,B,10.0
3,38.38700008392334,learn,21612.99991607666,Fri Apr 04 2025 16:48:15 GMT-0500 (Central Daylight Time),379564.39999997616,A,enter,O,enter,308,1,316.0999999642372,379248.3000000119,7112,WL,B,11.0
3,38.587000131607056,learn,21412.999868392944,Fri Apr 04 2025 16:48:15 GMT-0500 (Central Daylight Time),379764.39999997616,A,enter,O,enter,191,1,199.5999999642372,379564.8000000119,7112,WL,B,12.0
3,39.019999980926514,learn,20980.000019073486,Fri Apr 04 2025 16:48:15 GMT-0500 (Central Daylight Time),380197.59999996424,A,enter,O,enter,424,1,432.89999997615814,379764.6999999881,7112,WL,B,13.0
3,39.30299997329712,learn,20697.00002670288,Fri Apr 04 2025 16:48:15 GMT-0500 (Central Daylight Time),380480.8000000119,A,enter,O,enter,270,1,282.9000000357628,380197.89999997616,7112,WL,B,14.0
3,39.687000036239624,learn,20312.999963760376,Fri Apr 04 2025 16:48:15 GMT-0500 (Central Daylight Time),380864.0,A,enter,O,enter,371,1,382.80000001192093,380481.1999999881,7112,WL,B,15.0
4,0.9670000076293945,learn,59032.999992370605,Fri Apr 04 2025 16:48:15 GMT-0500 (Central Daylight Time),448876.0,A,l,O,l,927,1,966.3000000119209,447909.6999999881,7112,WL,B,1.0
4,1.0829999446868896,learn,58917.00005531311,Fri Apr 04 2025 16:48:15 GMT-0500 (Central Daylight Time),448992.39999997616,A,la,O,a,77,1,1082.699999988079,447909.6999999881,7112,WL,B,1.0
4,1.2000000476837158,learn,58799.999952316284,Fri Apr 04 2025 16:48:15 GMT-0500 (Central Daylight Time),449109.0,A,lak,O,k,90,1,1199.300000011921,447909.6999999881,7112,WL,B,1.0
4,1.3329999446868896,learn,58667.00005531311,Fri Apr 04 2025 16:48:15 GMT-0500 (Central Daylight Time),449242.5,A,lake,O,e,101,1,1332.800000011921,447909.6999999881,7112,WL,B,1.0
4,1.6989998817443848,learn,58301.000118255615,Fri Apr 04 2025 16:48:15 GMT-0500 (Central Daylight Time),449608.09999996424,A,lakeenter,O,enter,337,1,1698.3999999761581,447909.6999999881,7112,WL,B,1.0
4,2.0829999446868896,learn,57917.00005531311,Fri Apr 04 2025 16:48:15 GMT-0500 (Central Daylight Time),449992.3000000119,A,c,O,c,365,1,383.9000000357628,449608.39999997616,7112,WL,B,2.0
4,2.182999849319458,learn,57817.00015068054,Fri Apr 04 2025 16:48:15 GMT-0500 (Central Daylight Time),450092.09999996424,A,ca,O,a,68,1,483.69999998807907,449608.39999997616,7112,WL,B,2.0
4,2.3999998569488525,learn,57600.00014305115,Fri Apr 04 2025 16:48:15 GMT-0500 (Central Daylight Time),450308.89999997616,A,cab,O,b,180,1,700.5,449608.39999997616,7112,WL,B,2.0
4,2.6499998569488525,learn,57350.00014305115,Fri Apr 04 2025 16:48:15 GMT-0500 (Central Daylight Time),450558.8000000119,A,cabi,O,i,220,1,950.4000000357628,449608.39999997616,7112,WL,B,2.0
4,2.7829999923706055,learn,57217.000007629395,Fri Apr 04 2025 16:48:15 GMT-0500 (Central Daylight Time),450692.0,A,cabin,O,n,99,1,1083.6000000238419,449608.39999997616,7112,WL,B,2.0
4,3.1659998893737793,learn,56834.00011062622,Fri Apr 04 2025 16:48:15 GMT-0500 (Central Daylight Time),451075.5,A,cabinenter,O,enter,340,1,1467.1000000238419,449608.39999997616,7112,WL,B,2.0
4,3.498999834060669,learn,56501.00016593933,Fri Apr 04 2025 16:48:15 GMT-0500 (Central Daylight Time),451408.5,A,s,O,s,321,1,332.69999998807907,451075.8000000119,7112,WL,B,3.0
4,3.682999849319458,learn,56317.00015068054,Fri Apr 04 2025 16:48:15 GMT-0500 (Central Daylight Time),451591.8000000119,A,st,O,t,154,1,516.0,451075.8000000119,7112,WL,B,3.0
4,3.7990000247955322,learn,56200.99997520447,Fri Apr 04 2025 16:48:15 GMT-0500 (Central Daylight Time),451708.39999997616,A,sta,O,a,83,1,632.5999999642372,451075.8000000119,7112,WL,B,3.0
4,3.8980000019073486,learn,56101.99999809265,Fri Apr 04 2025 16:48:15 GMT-0500 (Central Daylight Time),451807.5,A,star,O,r,69,1,731.6999999880791,451075.8000000119,7112,WL,B,3.0
4,4.164999961853027,learn,55835.00003814697,Fri Apr 04 2025 16:48:15 GMT-0500 (Central Daylight Time),452074.0,A,starenter,O,enter,240,1,998.1999999880791,451075.8000000119,7112,WL,B,3.0
4,4.582000017166138,learn,55417.99998283386,Fri Apr 04 2025 16:48:15 GMT-0500 (Central Daylight Time),452491.5,A,w,O,w,403,1,417.30000001192093,452074.1999999881,7112,WL,B,4.0
4,4.766000032424927,learn,55233.99996757507,Fri Apr 04 2025 16:48:15 GMT-0500 (Central Daylight Time),452675.0,A,wi,O,i,150,1,600.8000000119209,452074.1999999881,7112,WL,B,4.0
4,4.931999921798706,learn,55068.000078201294,Fri Apr 04 2025 16:48:15 GMT-0500 (Central Daylight Time),452841.5,A,wif,O,f,135,1,767.3000000119209,452074.1999999881,7112,WL,B,4.0
4,5.014999866485596,learn,54985.000133514404,Fri Apr 04 2025 16:48:15 GMT-0500 (Central Daylight Time),452924.09999996424,A,wife,O,e,48,1,849.8999999761581,452074.1999999881,7112,WL,B,4.0
4,5.381999969482422,learn,54618.00003051758,Fri Apr 04 2025 16:48:15 GMT-0500 (Central Daylight Time),453291.39999997616,A,wifeenter,O,enter,329,1,1217.199999988079,452074.1999999881,7112,WL,B,4.0
4,6.148000001907349,learn,53851.99999809265,Fri Apr 04 2025 16:48:15 GMT-0500 (Central Daylight Time),454057.59999996424,A,a,O,a,753,1,765.8999999761581,453291.6999999881,7112,WL,B,5.0
4,6.332000017166138,learn,53667.99998283386,Fri Apr 04 2025 16:48:15 GMT-0500 (Central Daylight Time),454240.6999999881,A,ar,O,r,152,1,949.0,453291.6999999881,7112,WL,B,5.0
4,6.898000001907349,learn,53101.99999809265,Fri Apr 04 2025 16:48:15 GMT-0500 (Central Daylight Time),454807.5,A,arm,O,m,537,1,1515.800000011921,453291.6999999881,7112,WL,B,5.0
4,7.480999946594238,learn,52519.00005340576,Fri Apr 04 2025 16:48:15 GMT-0500 (Central Daylight Time),455389.59999996424,A,armenter,O,enter,553,1,2097.899999976158,453291.6999999881,7112,WL,B,5.0
4,7.797999858856201,learn,52202.0001411438,Fri Apr 04 2025 16:48:15 GMT-0500 (Central Daylight Time),455707.1999999881,A,g,O,g,295,1,317.39999997615814,455389.8000000119,7112,WL,B,6.0
4,8.030999898910522,learn,51969.00010108948,Fri Apr 04 2025 16:48:15 GMT-0500 (Central Daylight Time),455940.3000000119,A,gr,O,r,198,1,550.5,455389.8000000119,7112,WL,B,6.0
4,8.180999994277954,learn,51819.000005722046,Fri Apr 04 2025 16:48:15 GMT-0500 (Central Daylight Time),456090.59999996424,A,gra,O,a,110,1,700.7999999523163,455389.8000000119,7112,WL,B,6.0
4,8.365000009536743,learn,51634.99999046326,Fri Apr 04 2025 16:48:15 GMT-0500 (Central Daylight Time),456273.6999999881,A,gras,O,s,144,1,883.8999999761581,455389.8000000119,7112,WL,B,6.0
4,8.563999891281128,learn,51436.00010871887,Fri Apr 04 2025 16:48:15 GMT-0500 (Central Daylight Time),456473.5,A,grass,O,s,161,1,1083.699999988079,455389.8000000119,7112,WL,B,6.0
4,9.04699993133545,learn,50953.00006866455,Fri Apr 04 2025 16:48:15 GMT-0500 (Central Daylight Time),456955.6999999881,A,grassenter,O,enter,451,1,1565.8999999761581,455389.8000000119,7112,WL,B,6.0
4,10.063999891281128,learn,49936.00010871887,Fri Apr 04 2025 16:48:15 GMT-0500 (Central Daylight Time),457972.89999997616,A,r,O,r,1002,1,1016.8999999761581,456956.0,7112,WL,B,7.0
4,10.246999979019165,learn,49753.000020980835,Fri Apr 04 2025 16:48:15 GMT-0500 (Central Daylight Time),458156.39999997616,A,ro,O,o,157,1,1200.3999999761581,456956.0,7112,WL,B,7.0
4,10.430999994277954,learn,49569.000005722046,Fri Apr 04 2025 16:48:15 GMT-0500 (Central Daylight Time),458339.6999999881,A,roa,O,a,143,1,1383.699999988079,456956.0,7112,WL,B,7.0
4,10.54699993133545,learn,49453.00006866455,Fri Apr 04 2025 16:48:15 GMT-0500 (Central Daylight Time),458456.09999996424,A,road,O,d,85,1,1500.0999999642372,456956.0,7112,WL,B,7.0
4,10.86299991607666,learn,49137.00008392334,Fri Apr 04 2025 16:48:15 GMT-0500 (Central Daylight Time),458771.89999997616,A,roadenter,O,enter,279,1,1815.8999999761581,456956.0,7112,WL,B,7.0
4,18.628000020980835,learn,41371.999979019165,Fri Apr 04 2025 16:48:15 GMT-0500 (Central Daylight Time),466536.6999999881,A,c,O,c,7745,1,7764.600000023842,458772.09999996424,7112,WL,B,8.0
4,18.74399995803833,learn,41256.00004196167,Fri Apr 04 2025 16:48:15 GMT-0500 (Central Daylight Time),466653.5,A,ca,O,a,82,1,7881.400000035763,458772.09999996424,7112,WL,B,8.0
4,19.110999822616577,learn,40889.00017738342,Fri Apr 04 2025 16:48:15 GMT-0500 (Central Daylight Time),467020.1999999881,A,can,O,n,325,1,8248.100000023842,458772.09999996424,7112,WL,B,8.0
4,19.543999910354614,learn,40456.000089645386,Fri Apr 04 2025 16:48:15 GMT-0500 (Central Daylight Time),467453.39999997616,A,ca,O,backspace,401,1,8681.300000011921,458772.09999996424,7112,WL,B,8.0
4,20.527999877929688,learn,39472.00012207031,Fri Apr 04 2025 16:48:15 GMT-0500 (Central Daylight Time),468436.8000000119,A,cab,O,b,957,1,9664.700000047684,458772.09999996424,7112,WL,B,8.0
4,20.74399995803833,learn,39256.00004196167,Fri Apr 04 2025 16:48:15 GMT-0500 (Central Daylight Time),468652.8000000119,A,cabi,O,i,195,1,9880.700000047684,458772.09999996424,7112,WL,B,8.0
4,20.960999965667725,learn,39039.000034332275,Fri Apr 04 2025 16:48:15 GMT-0500 (Central Daylight Time),468869.59999996424,A,cabin,O,n,182,1,10097.5,458772.09999996424,7112,WL,B,8.0
4,21.276000022888184,learn,38723.99997711182,Fri Apr 04 2025 16:48:15 GMT-0500 (Central Daylight Time),469185.0,A,cabinenter,O,enter,283,1,10412.900000035763,458772.09999996424,7112,WL,B,8.0
4,21.57699990272522,learn,38423.00009727478,Fri Apr 04 2025 16:48:15 GMT-0500 (Central Daylight Time),469485.8000000119,A,l,O,l,293,1,300.5,469185.3000000119,7112,WL,B,9.0
4,21.776999950408936,learn,38223.000049591064,Fri Apr 04 2025 16:48:15 GMT-0500 (Central Daylight Time),469685.8000000119,A,la,O,a,164,1,500.5,469185.3000000119,7112,WL,B,9.0
4,21.927000045776367,learn,38072.99995422363,Fri Apr 04 2025 16:48:15 GMT-0500 (Central Daylight Time),469835.8000000119,A,lak,O,k,110,1,650.5,469185.3000000119,7112,WL,B,9.0
4,22.008999824523926,learn,37991.000175476074,Fri Apr 04 2025 16:48:15 GMT-0500 (Central Daylight Time),469918.09999996424,A,lake,O,e,54,1,732.7999999523163,469185.3000000119,7112,WL,B,9.0
4,22.358999967575073,learn,37641.00003242493,Fri Apr 04 2025 16:48:15 GMT-0500 (Central Daylight Time),470268.0,A,lakeenter,O,enter,333,1,1082.699999988079,469185.3000000119,7112,WL,B,9.0
4,22.924999952316284,learn,37075.000047683716,Fri Apr 04 2025 16:48:15 GMT-0500 (Central Daylight Time),470834.5,A,enter,O,enter,560,1,566.1999999880791,470268.3000000119,7112,WL,B,10.0
4,23.158999919891357,learn,36841.00008010864,Fri Apr 04 2025 16:48:15 GMT-0500 (Central Daylight Time),471067.6999999881,A,enter,O,enter,225,1,232.89999997615814,470834.8000000119,7112,WL,B,11.0
4,23.325999975204468,learn,36674.00002479553,Fri Apr 04 2025 16:48:15 GMT-0500 (Central Daylight Time),471234.59999996424,A,enter,O,enter,160,1,166.5999999642372,471068.0,7112,WL,B,12.0
4,23.54199981689453,learn,36458.00018310547,Fri Apr 04 2025 16:48:15 GMT-0500 (Central Daylight Time),471451.0,A,enter,O,enter,201,1,216.10000002384186,471234.89999997616,7112,WL,B,13.0
4,23.875,learn,36125.0,Fri Apr 04 2025 16:48:15 GMT-0500 (Central Daylight Time),471784.1999999881,A,enter,O,enter,320,1,333.0,471451.1999999881,7112,WL,B,14.0
4,24.14199995994568,learn,35858.00004005432,Fri Apr 04 2025 16:48:15 GMT-0500 (Central Daylight Time),472050.8000000119,A,enter,O,enter,244,1,266.30000001192093,471784.5,7112,WL,B,15.0
5,0.8009998798370361,learn,60000.0,Fri Apr 04 2025 16:48:15 GMT-0500 (Central Daylight Time),548127.1999999881,A,w,O,w,782,1,801.0,547326.1999999881,7112,WL,B,1.0
5,0.9509999752044678,learn,60000.0,Fri Apr 04 2025 16:48:15 GMT-0500 (Central Daylight Time),548277.0999999642,A,wi,O,i,115,1,950.8999999761581,547326.1999999881,7112,WL,B,1.0
5,1.1499998569488525,learn,60000.0,Fri Apr 04 2025 16:48:15 GMT-0500 (Central Daylight Time),548476.6999999881,A,wif,O,f,168,1,1150.5,547326.1999999881,7112,WL,B,1.0
5,1.2999999523162842,learn,60000.0,Fri Apr 04 2025 16:48:15 GMT-0500 (Central Daylight Time),548626.6999999881,A,wife,O,e,110,1,1300.5,547326.1999999881,7112,WL,B,1.0
5,1.7990000247955322,learn,60000.0,Fri Apr 04 2025 16:48:15 GMT-0500 (Central Daylight Time),549125.3999999762,A,wifeenter,O,enter,471,1,1799.199999988079,547326.1999999881,7112,WL,B,1.0
5,2.0999999046325684,learn,60000.0,Fri Apr 04 2025 16:48:15 GMT-0500 (Central Daylight Time),549426.3999999762,A,c,O,c,287,1,300.69999998807907,549125.6999999881,7112,WL,B,2.0
5,2.25,learn,60000.0,Fri Apr 04 2025 16:48:15 GMT-0500 (Central Daylight Time),549576.3000000119,A,cl,O,l,113,1,450.60000002384186,549125.6999999881,7112,WL,B,2.0
5,2.4830000400543213,learn,60000.0,Fri Apr 04 2025 16:48:15 GMT-0500 (Central Daylight Time),549809.5,A,clo,O,o,194,1,683.8000000119209,549125.6999999881,7112,WL,B,2.0
5,2.6499998569488525,learn,60000.0,Fri Apr 04 2025 16:48:15 GMT-0500 (Central Daylight Time),549976.1999999881,A,cloc,O,c,137,1,850.5,549125.6999999881,7112,WL,B,2.0
5,2.8329999446868896,learn,60000.0,Fri Apr 04 2025 16:48:15 GMT-0500 (Central Daylight Time),550159.5,A,clock,O,k,147,1,1033.800000011921,549125.6999999881,7112,WL,B,2.0
5,3.248999834060669,learn,60000.0,Fri Apr 04 2025 16:48:15 GMT-0500 (Central Daylight Time),550575.0999999642,A,clockenter,O,enter,377,1,1449.3999999761581,549125.6999999881,7112,WL,B,2.0
5,3.549999952316284,learn,60000.0,Fri Apr 04 2025 16:48:15 GMT-0500 (Central Daylight Time),550876.5999999642,A,f,O,f,295,1,301.2999999523163,550575.3000000119,7112,WL,B,3.0
5,3.6989998817443848,learn,60000.0,Fri Apr 04 2025 16:48:15 GMT-0500 (Central Daylight Time),551025.5999999642,A,fi,O,i,118,1,450.2999999523163,550575.3000000119,7112,WL,B,3.0
5,3.882999897003174,learn,60000.0,Fri Apr 04 2025 16:48:15 GMT-0500 (Central Daylight Time),551209.0999999642,A,fir,O,r,143,1,633.7999999523163,550575.3000000119,7112,WL,B,3.0
5,3.947999954223633,learn,60000.0,Fri Apr 04 2025 16:48:15 GMT-0500 (Central Daylight Time),551274.8000000119,A,fire,O,e,31,1,699.5,550575.3000000119,7112,WL,B,3.0
5,4.247999906539917,learn,60000.0,Fri Apr 04 2025 16:48:15 GMT-0500 (Central Daylight Time),551574.5999999642,A,fireenter,O,enter,283,1,999.2999999523163,550575.3000000119,7112,WL,B,3.0
5,4.5329999923706055,learn,60000.0,Fri Apr 04 2025 16:48:15 GMT-0500 (Central Daylight Time),551858.8999999762,A,c,O,c,271,1,284.0,551574.8999999762,7112,WL,B,4.0
5,4.648999929428101,learn,60000.0,Fri Apr 04 2025 16:48:15 GMT-0500 (Central Daylight Time),551975.6999999881,A,ca,O,a,85,1,400.80000001192093,551574.8999999762,7112,WL,B,4.0
5,4.799000024795532,learn,60000.0,Fri Apr 04 2025 16:48:15 GMT-0500 (Central Daylight Time),552125.0999999642,A,cab,O,b,122,1,550.1999999880791,551574.8999999762,7112,WL,B,4.0
5,4.9659998416900635,learn,60000.0,Fri Apr 04 2025 16:48:15 GMT-0500 (Central Daylight Time),552292.3999999762,A,cabi,O,i,144,1,717.5,551574.8999999762,7112,WL,B,4.0
5,5.2159998416900635,learn,60000.0,Fri Apr 04 2025 16:48:15 GMT-0500 (Central Daylight Time),552542.3000000119,A,cabin,O,n,220,1,967.4000000357628,551574.8999999762,7112,WL,B,4.0
5,5.615000009536743,learn,60000.0,Fri Apr 04 2025 16:48:15 GMT-0500 (Central Daylight Time),552940.8999999762,A,cabinenter,O,enter,360,1,1366.0,551574.8999999762,7112,WL,B,4.0
5,5.881999969482422,learn,60000.0,Fri Apr 04 2025 16:48:15 GMT-0500 (Central Daylight Time),553208.3999999762,A,l,O,l,249,1,267.30000001192093,552941.0999999642,7112,WL,B,5.0
5,5.9649999141693115,learn,60000.0,Fri Apr 04 2025 16:48:15 GMT-0500 (Central Daylight Time),553291.0999999642,A,la,O,a,50,1,350.0,552941.0999999642,7112,WL,B,5.0
5,6.164999961853027,learn,60000.0,Fri Apr 04 2025 16:48:15 GMT-0500 (Central Daylight Time),553491.5999999642,A,lak,O,k,179,1,550.5,552941.0999999642,7112,WL,B,5.0
5,6.299000024795532,learn,60000.0,Fri Apr 04 2025 16:48:15 GMT-0500 (Central Daylight Time),553625.0,A,lake,O,e,96,1,683.9000000357628,552941.0999999642,7112,WL,B,5.0
5,6.613999843597412,learn,60000.0,Fri Apr 04 2025 16:48:15 GMT-0500 (Central Daylight Time),553940.5,A,lakeenter,O,enter,288,1,999.4000000357628,552941.0999999642,7112,WL,B,5.0
5,7.980000019073486,learn,60000.0,Fri Apr 04 2025 16:48:15 GMT-0500 (Central Daylight Time),555306.8000000119,A,s,O,s,1343,1,1366.0,553940.8000000119,7112,WL,B,6.0
5,8.379999876022339,learn,60000.0,Fri Apr 04 2025 16:48:15 GMT-0500 (Central Daylight Time),555706.6999999881,A,,O,backspace,376,1,1765.8999999761581,553940.8000000119,7112,WL,B,6.0
5,8.565000057220459,learn,60000.0,Fri Apr 04 2025 16:48:15 GMT-0500 (Central Daylight Time),555891.0999999642,A,,O,backspace,169,1,1950.2999999523163,553940.8000000119,7112,WL,B,6.0
5,9.030999898910522,learn,60000.0,Fri Apr 04 2025 16:48:15 GMT-0500 (Central Daylight Time),556357.3999999762,A,r,O,r,433,1,2416.599999964237,553940.8000000119,7112,WL,B,6.0
5,9.197999954223633,learn,60000.0,Fri Apr 04 2025 16:48:15 GMT-0500 (Central Daylight Time),556524.0,A,ro,O,o,134,1,2583.199999988079,553940.8000000119,7112,WL,B,6.0
5,9.596999883651733,learn,60000.0,Fri Apr 04 2025 16:48:15 GMT-0500 (Central Daylight Time),556923.8000000119,A,roa,O,a,357,1,2983.0,553940.8000000119,7112,WL,B,6.0
5,9.813999891281128,learn,60000.0,Fri Apr 04 2025 16:48:15 GMT-0500 (Central Daylight Time),557140.3000000119,A,road,O,d,182,1,3199.5,553940.8000000119,7112,WL,B,6.0
5,10.11299991607666,learn,60000.0,Fri Apr 04 2025 16:48:15 GMT-0500 (Central Daylight Time),557439.3999999762,A,roadenter,O,enter,270,1,3498.599999964237,553940.8000000119,7112,WL,B,6.0
5,10.69700002670288,learn,60000.0,Fri Apr 04 2025 16:48:15 GMT-0500 (Central Daylight Time),558023.3999999762,A,g,O,g,574,1,583.6999999880791,557439.6999999881,7112,WL,B,7.0
5,10.896999835968018,learn,60000.0,Fri Apr 04 2025 16:48:15 GMT-0500 (Central Daylight Time),558223.3999999762,A,gr,O,r,170,1,783.6999999880791,557439.6999999881,7112,WL,B,7.0
5,11.013000011444092,learn,60000.0,Fri Apr 04 2025 16:48:15 GMT-0500 (Central Daylight Time),558339.8000000119,A,gra,O,a,82,1,900.1000000238419,557439.6999999881,7112,WL,B,7.0
5,11.21399998664856,learn,60000.0,Fri Apr 04 2025 16:48:15 GMT-0500 (Central Daylight Time),558540.0,A,gras,O,s,167,1,1100.300000011921,557439.6999999881,7112,WL,B,7.0
5,11.664000034332275,learn,60000.0,Fri Apr 04 2025 16:48:15 GMT-0500 (Central Daylight Time),558990.1999999881,A,grass,O,s,415,1,1550.5,557439.6999999881,7112,WL,B,7.0
5,11.912999868392944,learn,60000.0,Fri Apr 04 2025 16:48:15 GMT-0500 (Central Daylight Time),559238.8000000119,A,grassenter,O,enter,219,1,1799.1000000238419,557439.6999999881,7112,WL,B,7.0
5,15.628000020980835,learn,60000.0,Fri Apr 04 2025 16:48:15 GMT-0500 (Central Daylight Time),562954.5999999642,A,enter,O,enter,3709,1,3715.399999976158,559239.1999999881,7112,WL,B,8.0
5,17.14400005340576,learn,60000.0,Fri Apr 04 2025 16:48:15 GMT-0500 (Central Daylight Time),564470.3999999762,A,enter,O,enter,1505,1,1515.5,562954.8999999762,7112,WL,B,9.0
5,17.876999855041504,learn,60000.0,Fri Apr 04 2025 16:48:15 GMT-0500 (Central Daylight Time),565203.5999999642,A,enter,O,enter,726,1,732.7999999523163,564470.8000000119,7112,WL,B,10.0
5,18.5939998626709,learn,60000.0,Fri Apr 04 2025 16:48:15 GMT-0500 (Central Daylight Time),565919.8999999762,A,enter,O,enter,705,1,716.0999999642372,565203.8000000119,7112,WL,B,11.0
5,18.977999925613403,learn,60000.0,Fri Apr 04 2025 16:48:15 GMT-0500 (Central Daylight Time),566304.3000000119,A,enter,O,enter,373,1,384.0,565920.3000000119,7112,WL,B,12.0
5,19.292999982833862,learn,60000.0,Fri Apr 04 2025 16:48:15 GMT-0500 (Central Daylight Time),566619.8000000119,A,enter,O,enter,309,1,315.0,566304.8000000119,7112,WL,B,13.0
5,19.67799997329712,learn,60000.0,Fri Apr 04 2025 16:48:15 GMT-0500 (Central Daylight Time),567004.0,A,enter,O,enter,376,1,384.0,566620.0,7112,WL,B,14.0
5,20.109999895095825,learn,60000.0,Fri Apr 04 2025 16:48:15 GMT-0500 (Central Daylight Time),567436.0999999642,A,enter,O,enter,424,1,431.69999998807907,567004.3999999762,7112,WL,B,15.0
6,1.0509998798370361,distr,58949.000120162964,Fri Apr 04 2025 16:48:15 GMT-0500 (Central Daylight Time),643612.8000000119,B,b,O,b,1027,1,1050.2000000476837,642562.5999999642,7112,WL,B,1.0
6,1.1999998092651367,distr,58800.00019073486,Fri Apr 04 2025 16:48:15 GMT-0500 (Central Daylight Time),643761.5999999642,B,ba,O,a,115,1,1199.0,642562.5999999642,7112,WL,B,1.0
6,1.2999999523162842,distr,58700.000047683716,Fri Apr 04 2025 16:48:15 GMT-0500 (Central Daylight Time),643862.0,B,bab,O,b,77,1,1299.4000000357628,642562.5999999642,7112,WL,B,1.0
6,2.2149999141693115,distr,57785.00008583069,Fri Apr 04 2025 16:48:15 GMT-0500 (Central Daylight Time),644777.3000000119,B,baby,O,y,878,1,2214.7000000476837,642562.5999999642,7112,WL,B,1.0
6,2.6989998817443848,distr,57301.000118255615,Fri Apr 04 2025 16:48:15 GMT-0500 (Central Daylight Time),645260.5999999642,B,babyenter,O,enter,475,1,2698.0,642562.5999999642,7112,WL,B,1.0
6,3.1659998893737793,distr,56834.00011062622,Fri Apr 04 2025 16:48:15 GMT-0500 (Central Daylight Time),645727.8999999762,B,c,O,c,449,1,467.0999999642372,645260.8000000119,7112,WL,B,2.0
6,3.382999897003174,distr,56617.000102996826,Fri Apr 04 2025 16:48:15 GMT-0500 (Central Daylight Time),645944.6999999881,B,ce,O,e,184,1,683.8999999761581,645260.8000000119,7112,WL,B,2.0
6,3.548999786376953,distr,56451.00021362305,Fri Apr 04 2025 16:48:15 GMT-0500 (Central Daylight Time),646111.0999999642,B,cel,O,l,130,1,850.2999999523163,645260.8000000119,7112,WL,B,2.0
6,3.7319998741149902,distr,56268.00012588501,Fri Apr 04 2025 16:48:15 GMT-0500 (Central Daylight Time),646294.5,B,cell,O,l,150,1,1033.699999988079,645260.8000000119,7112,WL,B,2.0
6,4.247999906539917,distr,55752.00009346008,Fri Apr 04 2025 16:48:15 GMT-0500 (Central Daylight Time),646810.0,B,cellenter,O,enter,477,1,1549.199999988079,645260.8000000119,7112,WL,B,2.0
6,5.597999811172485,distr,54402.000188827515,Fri Apr 04 2025 16:48:15 GMT-0500 (Central Daylight Time),648160.5999999642,B,o,O,o,1340,1,1350.2999999523163,646810.3000000119,7112,WL,B,3.0
6,6.014999866485596,distr,53985.000133514404,Fri Apr 04 2025 16:48:15 GMT-0500 (Central Daylight Time),648577.0999999642,B,oc,O,c,386,1,1766.7999999523163,646810.3000000119,7112,WL,B,3.0
6,6.330999851226807,distr,53669.00014877319,Fri Apr 04 2025 16:48:15 GMT-0500 (Central Daylight Time),648893.3999999762,B,oce,O,e,290,1,2083.099999964237,646810.3000000119,7112,WL,B,3.0
6,6.430999994277954,distr,53569.000005722046,Fri Apr 04 2025 16:48:15 GMT-0500 (Central Daylight Time),648993.0999999642,B,ocea,O,a,69,1,2182.7999999523163,646810.3000000119,7112,WL,B,3.0
6,6.615000009536743,distr,53384.99999046326,Fri Apr 04 2025 16:48:15 GMT-0500 (Central Daylight Time),649176.8999999762,B,ocean,O,n,163,1,2366.599999964237,646810.3000000119,7112,WL,B,3.0
6,6.979999780654907,distr,53020.00021934509,Fri Apr 04 2025 16:48:15 GMT-0500 (Central Daylight Time),649542.5,B,oceanenter,O,enter,341,1,2732.199999988079,646810.3000000119,7112,WL,B,3.0
6,7.365000009536743,distr,52634.99999046326,Fri Apr 04 2025 16:48:15 GMT-0500 (Central Daylight Time),649926.5999999642,B,p,O,p,376,1,383.7999999523163,649542.8000000119,7112,WL,B,4.0
6,7.747999906539917,distr,52252.00009346008,Fri Apr 04 2025 16:48:15 GMT-0500 (Central Daylight Time),650309.8000000119,B,pa,O,a,349,1,767.0,649542.8000000119,7112,WL,B,4.0
6,7.913999795913696,distr,52086.000204086304,Fri Apr 04 2025 16:48:15 GMT-0500 (Central Daylight Time),650476.5,B,pal,O,l,136,1,933.6999999880791,649542.8000000119,7112,WL,B,4.0
6,8.097999811172485,distr,51902.000188827515,Fri Apr 04 2025 16:48:15 GMT-0500 (Central Daylight Time),650659.8000000119,B,pala,O,a,142,1,1117.0,649542.8000000119,7112,WL,B,4.0
6,8.312999963760376,distr,51687.000036239624,Fri Apr 04 2025 16:48:15 GMT-0500 (Central Daylight Time),650875.1999999881,B,palac,O,c,188,1,1332.3999999761581,649542.8000000119,7112,WL,B,4.0
6,8.512999773025513,distr,51487.00022697449,Fri Apr 04 2025 16:48:15 GMT-0500 (Central Daylight Time),651075.3000000119,B,palace,O,e,183,1,1532.5,649542.8000000119,7112,WL,B,4.0
6,9.262999773025513,distr,50737.00022697449,Fri Apr 04 2025 16:48:15 GMT-0500 (Central Daylight Time),651825.0,B,palaceenter,O,enter,727,1,2282.199999988079,649542.8000000119,7112,WL,B,4.0
6,17.90999984741211,distr,42090.00015258789,Fri Apr 04 2025 16:48:15 GMT-0500 (Central Daylight Time),660472.1999999881,B,enter,O,enter,8636,1,8646.800000011921,651825.3999999762,7112,WL,B,5.0
6,18.143999814987183,distr,41856.00018501282,Fri Apr 04 2025 16:48:15 GMT-0500 (Central Daylight Time),660705.5,B,enter,O,enter,220,1,233.0,660472.5,7112,WL,B,6.0
6,18.394999980926514,distr,41605.000019073486,Fri Apr 04 2025 16:48:15 GMT-0500 (Central Daylight Time),660956.5,B,enter,O,enter,243,1,250.80000001192093,660705.6999999881,7112,WL,B,7.0
6,18.55999994277954,distr,41440.00005722046,Fri Apr 04 2025 16:48:15 GMT-0500 (Central Daylight Time),661122.0999999642,B,enter,O,enter,144,1,165.29999995231628,660956.8000000119,7112,WL,B,8.0
6,18.694000005722046,distr,41305.999994277954,Fri Apr 04 2025 16:48:15 GMT-0500 (Central Daylight Time),661255.3999999762,B,enter,O,enter,122,1,133.0999999642372,661122.3000000119,7112,WL,B,9.0
6,18.876999855041504,distr,41123.000144958496,Fri Apr 04 2025 16:48:15 GMT-0500 (Central Daylight Time),661438.5999999642,B,enter,O,enter,165,1,183.0,661255.5999999642,7112,WL,B,10.0
6,19.377999782562256,distr,40622.000217437744,Fri Apr 04 2025 16:48:15 GMT-0500 (Central Daylight Time),661939.5999999642,B,enter,O,enter,478,1,500.69999998807907,661438.8999999762,7112,WL,B,11.0
6,19.776999950408936,distr,40223.000049591064,Fri Apr 04 2025 16:48:15 GMT-0500 (Central Daylight Time),662338.3000000119,B,enter,O,enter,376,1,398.30000001192093,661940.0,7112,WL,B,12.0
6,20.14299988746643,distr,39857.00011253357,Fri Apr 04 2025 16:48:15 GMT-0500 (Central Daylight Time),662704.8000000119,B,enter,O,enter,346,1,366.2000000476837,662338.5999999642,7112,WL,B,13.0
6,21.776999950408936,distr,38223.000049591064,Fri Apr 04 2025 16:48:15 GMT-0500 (Central Daylight Time),664339.0999999642,B,a,O,a,1612,1,1634.0,662705.0999999642,7112,WL,B,14.0
6,22.609999895095825,distr,37390.000104904175,Fri Apr 04 2025 16:48:15 GMT-0500 (Central Daylight Time),665171.5999999642,B,,O,backspace,792,1,2466.5,662705.0999999642,7112,WL,B,14.0
6,23.508999824523926,distr,36491.000175476074,Fri Apr 04 2025 16:48:15 GMT-0500 (Central Daylight Time),666070.3999999762,B,enter,O,enter,864,1,3365.300000011921,662705.0999999642,7112,WL,B,14.0
6,24.29199981689453,distr,35708.00018310547,Fri Apr 04 2025 16:48:15 GMT-0500 (Central Daylight Time),666853.5,B,enter,O,enter,765,1,782.8000000119209,666070.6999999881,7112,WL,B,15.0
7,1.25,immed,58750.0,Fri Apr 04 2025 16:48:15 GMT-0500 (Central Daylight Time),679300.3000000119,A,s,O,s,1217,1,1248.800000011921,678051.5,7112,WL,B,1.0
7,1.4160001277923584,immed,58583.99987220764,Fri Apr 04 2025 16:48:15 GMT-0500 (Central Daylight Time),679467.0,A,st,O,t,134,1,1415.5,678051.5,7112,WL,B,1.0
7,1.5829999446868896,immed,58417.00005531311,Fri Apr 04 2025 16:48:15 GMT-0500 (Central Daylight Time),679633.5,A,sta,O,a,129,1,1582.0,678051.5,7112,WL,B,1.0
7,1.683000087738037,immed,58316.99991226196,Fri Apr 04 2025 16:48:15 GMT-0500 (Central Daylight Time),679733.3000000119,A,star,O,r,72,1,1681.800000011921,678051.5,7112,WL,B,1.0
7,2.0329999923706055,immed,57967.000007629395,Fri Apr 04 2025 16:48:15 GMT-0500 (Central Daylight Time),680083.6999999881,A,starenter,O,enter,317,1,2032.199999988079,678051.5,7112,WL,B,1.0
7,2.433000087738037,immed,57566.99991226196,Fri Apr 04 2025 16:48:15 GMT-0500 (Central Daylight Time),680483.3000000119,A,w,O,w,386,1,399.4000000357628,680083.8999999762,7112,WL,B,2.0
7,2.5989999771118164,immed,57401.00002288818,Fri Apr 04 2025 16:48:15 GMT-0500 (Central Daylight Time),680649.8999999762,A,wi,O,i,127,1,566.0,680083.8999999762,7112,WL,B,2.0
7,2.7320001125335693,immed,57267.99988746643,Fri Apr 04 2025 16:48:15 GMT-0500 (Central Daylight Time),680782.5999999642,A,wif,O,f,105,1,698.6999999880791,680083.8999999762,7112,WL,B,2.0
7,2.8489999771118164,immed,57151.00002288818,Fri Apr 04 2025 16:48:15 GMT-0500 (Central Daylight Time),680899.8000000119,A,wife,O,e,97,1,815.9000000357628,680083.8999999762,7112,WL,B,2.0
7,3.430999994277954,immed,56569.000005722046,Fri Apr 04 2025 16:48:15 GMT-0500 (Central Daylight Time),681482.0999999642,A,wifeenter,O,enter,550,1,1398.199999988079,680083.8999999762,7112,WL,B,2.0
7,5.182000160217285,immed,54817.999839782715,Fri Apr 04 2025 16:48:15 GMT-0500 (Central Daylight Time),683232.1999999881,A,g,O,g,1740,1,1749.800000011921,681482.3999999762,7112,WL,B,3.0
7,5.38100004196167,immed,54618.99995803833,Fri Apr 04 2025 16:48:15 GMT-0500 (Central Daylight Time),683432.1999999881,A,gr,O,r,161,1,1949.800000011921,681482.3999999762,7112,WL,B,3.0
7,5.498000144958496,immed,54501.999855041504,Fri Apr 04 2025 16:48:15 GMT-0500 (Central Daylight Time),683549.0,A,gra,O,a,85,1,2066.600000023842,681482.3999999762,7112,WL,B,3.0
7,5.715000152587891,immed,54284.99984741211,Fri Apr 04 2025 16:48:15 GMT-0500 (Central Daylight Time),683765.5,A,gras,O,s,183,1,2283.100000023842,681482.3999999762,7112,WL,B,3.0
7,5.897000074386597,immed,54102.9999256134,Fri Apr 04 2025 16:48:15 GMT-0500 (Central Daylight Time),683947.8000000119,A,grass,O,s,155,1,2465.400000035763,681482.3999999762,7112,WL,B,3.0
7,6.296999931335449,immed,53703.00006866455,Fri Apr 04 2025 16:48:15 GMT-0500 (Central Daylight Time),684347.8000000119,A,grassenter,O,enter,393,1,2865.400000035763,681482.3999999762,7112,WL,B,3.0
7,11.529000043869019,immed,48470.99995613098,Fri Apr 04 2025 16:48:15 GMT-0500 (Central Daylight Time),689580.0999999642,A,f,O,f,5218,1,5232.099999964237,684348.0,7112,WL,B,4.0
7,11.730000019073486,immed,48269.999980926514,Fri Apr 04 2025 16:48:15 GMT-0500 (Central Daylight Time),689781.0,A,fi,O,i,176,1,5433.0,684348.0,7112,WL,B,4.0
7,11.963000059127808,immed,48036.99994087219,Fri Apr 04 2025 16:48:15 GMT-0500 (Central Daylight Time),690013.5999999642,A,fir,O,r,198,1,5665.599999964237,684348.0,7112,WL,B,4.0
7,12.062000036239624,immed,47937.999963760376,Fri Apr 04 2025 16:48:15 GMT-0500 (Central Daylight Time),690112.8999999762,A,fire,O,e,69,1,5764.899999976158,684348.0,7112,WL,B,4.0
7,12.411999940872192,immed,47588.00005912781,Fri Apr 04 2025 16:48:15 GMT-0500 (Central Daylight Time),690462.3999999762,A,fireenter,O,enter,332,1,6114.399999976158,684348.0,7112,WL,B,4.0
7,13.444999933242798,immed,46555.0000667572,Fri Apr 04 2025 16:48:15 GMT-0500 (Central Daylight Time),691495.3999999762,A,enter,O,enter,1014,1,1032.699999988079,690462.6999999881,7112,WL,B,5.0
7,13.995000123977661,immed,46004.99987602234,Fri Apr 04 2025 16:48:15 GMT-0500 (Central Daylight Time),692045.1999999881,A,enter,O,enter,533,1,549.5,691495.6999999881,7112,WL,B,6.0
7,14.17799997329712,immed,45822.00002670288,Fri Apr 04 2025 16:48:15 GMT-0500 (Central Daylight Time),692228.5,A,enter,O,enter,168,1,182.9000000357628,692045.5999999642,7112,WL,B,7.0
7,14.361000061035156,immed,45638.999938964844,Fri Apr 04 2025 16:48:15 GMT-0500 (Central Daylight Time),692411.8999999762,A,enter,O,enter,169,1,183.0,692228.8999999762,7112,WL,B,8.0
7,14.82800006866455,immed,45171.99993133545,Fri Apr 04 2025 16:48:15 GMT-0500 (Central Daylight Time),692878.3000000119,A,enter,O,enter,449,1,466.2000000476837,692412.0999999642,7112,WL,B,9.0
7,15.094000101089478,immed,44905.99989891052,Fri Apr 04 2025 16:48:15 GMT-0500 (Central Daylight Time),693144.8999999762,A,enter,O,enter,255,1,266.30000001192093,692878.5999999642,7112,WL,B,10.0
7,15.561000108718872,immed,44438.99989128113,Fri Apr 04 2025 16:48:15 GMT-0500 (Central Daylight Time),693611.3999999762,A,enter,O,enter,452,1,466.19999998807907,693145.1999999881,7112,WL,B,11.0
7,15.877000093460083,immed,44122.99990653992,Fri Apr 04 2025 16:48:15 GMT-0500 (Central Daylight Time),693928.0,A,enter,O,enter,306,1,316.30000001192093,693611.6999999881,7112,WL,B,12.0
7,16.210999965667725,immed,43789.000034332275,Fri Apr 04 2025 16:48:15 GMT-0500 (Central Daylight Time),694261.3000000119,A,enter,O,enter,317,1,333.0,693928.3000000119,7112,WL,B,13.0
7,16.72699999809265,immed,43273.00000190735,Fri Apr 04 2025 16:48:15 GMT-0500 (Central Daylight Time),694777.6999999881,A,enter,O,enter,504,1,516.1000000238419,694261.5999999642,7112,WL,B,14.0
7,17.094000101089478,immed,42905.99989891052,Fri Apr 04 2025 16:48:15 GMT-0500 (Central Daylight Time),695144.1999999881,A,enter,O,enter,354,1,366.19999998807907,694778.0,7112,WL,B,15.0
