acc_sum,block,block_c,change,condition,correct,correct_response,datetime,endtime,face,project,response,response_time,row_sel,session_number,start_end,starttime,subject_id,task,task_vers,trial
0,prac,1,,1-Back,,,Tue Nov 12 2024 10:03:33 GMT-0600 (Central Standard Time),,012_o_f_d_a.png,O,space,10298,1,1,,,7032,VNB,C,0
1,prac,1,0.0,1-Back,1,m,Tue Nov 12 2024 10:03:33 GMT-0600 (Central Standard Time),160151.79999995232,022_y_f_n_a.png,O,m,1405,2,1,2328.199999809265,157823.60000014305,7032,VNB,C,1
1,prac,1,0.0,1-Back,0,m,Tue Nov 12 2024 10:03:33 GMT-0600 (Central Standard Time),162700.70000004768,014_m_m_h_a.png,O,z,1571,3,1,2453.5,160247.20000004768,7032,VNB,C,2
1,prac,1,0.0,1-Back,0,m,Tue Nov 12 2024 10:03:33 GMT-0600 (Central Standard Time),165681.90000009537,025_y_m_d_a.png,O,None,2009,4,1,2886.100000143051,162795.79999995232,7032,VNB,C,3
1,prac,1,0.0,1-Back,0,m,Tue Nov 12 2024 10:03:33 GMT-0600 (Central Standard Time),168614.20000004768,012_o_f_n_a.png,O,None,2014,5,1,2924.0,165690.20000004768,7032,VNB,C,4
1,prac,1,1.0,1-Back,0,z,Tue Nov 12 2024 10:03:33 GMT-0600 (Central Standard Time),170697.0,025_y_m_n_a.png,O,m,1180,6,1,2073.2999999523163,168623.70000004768,7032,VNB,C,5
2,prac,1,0.0,1-Back,1,m,Tue Nov 12 2024 10:03:33 GMT-0600 (Central Standard Time),172847.40000009537,015_o_m_h_a.png,O,m,1211,7,1,2141.2000000476837,170706.20000004768,7032,VNB,C,6
2,prac,1,0.0,1-Back,0,m,Tue Nov 12 2024 10:03:33 GMT-0600 (Central Standard Time),175379.79999995232,019_m_f_d_a.png,O,z,1563,8,1,2493.699999809265,172886.10000014305,7032,VNB,C,7
2,prac,1,1.0,1-Back,0,z,Tue Nov 12 2024 10:03:33 GMT-0600 (Central Standard Time),178112.20000004768,022_y_f_d_a.png,O,m,1766,9,1,2698.2999999523163,175413.90000009537,7032,VNB,C,8
2,prac,1,0.0,1-Back,0,m,Tue Nov 12 2024 10:03:33 GMT-0600 (Central Standard Time),181094.40000009537,014_m_m_n_a.png,O,None,2007,10,1,2887.600000143051,178206.79999995232,7032,VNB,C,9
2,prac,1,0.0,1-Back,0,m,Tue Nov 12 2024 10:03:33 GMT-0600 (Central Standard Time),183493.70000004768,012_o_f_h_a.png,O,z,1443,11,1,2371.9000000953674,181121.79999995232,7032,VNB,C,10
2,prac,1,0.0,1-Back,0,m,Tue Nov 12 2024 10:03:33 GMT-0600 (Central Standard Time),186426.10000014305,025_y_m_d_a.png,O,None,2015,12,1,2903.600000143051,183522.5,7032,VNB,C,11
0,prac,2,0.0,1-Back,,,Tue Nov 12 2024 10:03:33 GMT-0600 (Central Standard Time),186426.10000014305,012_o_f_d_a.png,O,a,12917,1,1,2903.600000143051,183522.5,7032,VNB,C,0
1,prac,2,0.0,1-Back,1,m,Tue Nov 12 2024 10:03:33 GMT-0600 (Central Standard Time),205370.0,022_y_f_n_a.png,O,m,1975,2,1,2911.2999999523163,202458.70000004768,7032,VNB,C,1
2,prac,2,0.0,1-Back,1,m,Tue Nov 12 2024 10:03:33 GMT-0600 (Central Standard Time),207869.20000004768,014_m_m_h_a.png,O,m,1569,3,1,2467.0,205402.20000004768,7032,VNB,C,2
3,prac,2,0.0,1-Back,1,m,Tue Nov 12 2024 10:03:33 GMT-0600 (Central Standard Time),210284.90000009537,025_y_m_d_a.png,O,m,1545,4,1,2313.9000000953674,207971.0,7032,VNB,C,3
4,prac,2,0.0,1-Back,1,m,Tue Nov 12 2024 10:03:33 GMT-0600 (Central Standard Time),213234.10000014305,012_o_f_n_a.png,O,m,1936,5,1,2851.100000143051,210383.0,7032,VNB,C,4
5,prac,2,1.0,1-Back,1,z,Tue Nov 12 2024 10:03:33 GMT-0600 (Central Standard Time),215400.10000014305,025_y_m_n_a.png,O,z,1230,6,1,2135.9000000953674,213264.20000004768,7032,VNB,C,5
6,prac,2,0.0,1-Back,1,m,Tue Nov 12 2024 10:03:33 GMT-0600 (Central Standard Time),217815.79999995232,015_o_m_h_a.png,O,m,1464,7,1,2388.899999856949,215426.90000009537,7032,VNB,C,6
7,prac,2,0.0,1-Back,1,m,Tue Nov 12 2024 10:03:33 GMT-0600 (Central Standard Time),220281.60000014305,019_m_f_d_a.png,O,m,1494,8,1,2432.0,217849.60000014305,7032,VNB,C,7
8,prac,2,1.0,1-Back,1,z,Tue Nov 12 2024 10:03:33 GMT-0600 (Central Standard Time),222401.10000014305,022_y_f_d_a.png,O,z,1129,9,1,2026.0,220375.10000014305,7032,VNB,C,8
9,prac,2,0.0,1-Back,1,m,Tue Nov 12 2024 10:03:33 GMT-0600 (Central Standard Time),224646.70000004768,014_m_m_n_a.png,O,m,1310,10,1,2208.4000000953674,222438.29999995232,7032,VNB,C,9
10,prac,2,0.0,1-Back,1,m,Tue Nov 12 2024 10:03:33 GMT-0600 (Central Standard Time),227362.60000014305,012_o_f_h_a.png,O,m,1745,11,1,2679.600000143051,224683.0,7032,VNB,C,10
11,prac,2,0.0,1-Back,1,m,Tue Nov 12 2024 10:03:33 GMT-0600 (Central Standard Time),229528.60000014305,025_y_m_d_a.png,O,m,1235,12,1,2135.800000190735,227392.79999995232,7032,VNB,C,11
0,test,1,0.0,1-Back,,,Tue Nov 12 2024 10:03:33 GMT-0600 (Central Standard Time),229528.60000014305,022_y_f_d_a.png,O,space,11568,1,1,2135.800000190735,227392.79999995232,7032,VNB,C,0
1,test,1,0.0,1-Back,1,m,Tue Nov 12 2024 10:03:33 GMT-0600 (Central Standard Time),253421.0,019_m_f_n_a.png,O,m,1365,2,1,2373.2000000476837,251047.79999995232,7032,VNB,C,1
2,test,1,0.0,1-Back,1,m,Tue Nov 12 2024 10:03:33 GMT-0600 (Central Standard Time),255686.70000004768,015_o_m_h_a.png,O,m,1155,3,1,2239.5,253447.20000004768,7032,VNB,C,2
3,test,1,1.0,1-Back,1,z,Tue Nov 12 2024 10:03:33 GMT-0600 (Central Standard Time),257919.10000014305,014_m_m_h_a.png,O,z,1112,4,1,2203.800000190735,255715.29999995232,7032,VNB,C,3
4,test,1,0.0,1-Back,1,m,Tue Nov 12 2024 10:03:33 GMT-0600 (Central Standard Time),260251.60000014305,012_o_f_n_a.png,O,m,1216,5,1,2240.100000143051,258011.5,7032,VNB,C,4
5,test,1,0.0,1-Back,1,m,Tue Nov 12 2024 10:03:33 GMT-0600 (Central Standard Time),262551.0,025_y_m_d_a.png,O,m,1188,6,1,2203.5999999046326,260347.40000009537,7032,VNB,C,5
6,test,1,1.0,1-Back,1,z,Tue Nov 12 2024 10:03:33 GMT-0600 (Central Standard Time),264766.90000009537,019_m_f_d_a.png,O,z,1088,7,1,2186.9000000953674,262580.0,7032,VNB,C,6
7,test,1,0.0,1-Back,1,m,Tue Nov 12 2024 10:03:33 GMT-0600 (Central Standard Time),267132.7999999523,022_y_f_h_a.png,O,m,1257,8,1,2275.2999999523163,264857.5,7032,VNB,C,7
8,test,1,0.0,1-Back,1,m,Tue Nov 12 2024 10:03:33 GMT-0600 (Central Standard Time),270065.2000000477,015_o_m_n_a.png,O,m,1827,9,1,2847.0,267218.2000000477,7032,VNB,C,8
9,test,1,0.0,1-Back,1,m,Tue Nov 12 2024 10:03:33 GMT-0600 (Central Standard Time),272281.10000014305,025_y_m_h_a.png,O,m,1171,10,1,2189.5,270091.60000014305,7032,VNB,C,9
10,test,1,0.0,1-Back,1,m,Tue Nov 12 2024 10:03:33 GMT-0600 (Central Standard Time),274380.60000014305,015_o_m_d_a.png,O,m,998,11,1,2005.5,272375.10000014305,7032,VNB,C,10
11,test,1,1.0,1-Back,1,z,Tue Nov 12 2024 10:03:33 GMT-0600 (Central Standard Time),276446.40000009537,012_o_f_d_a.png,O,z,963,12,1,1971.9000000953674,274474.5,7032,VNB,C,11
12,test,1,0.0,1-Back,1,m,Tue Nov 12 2024 10:03:33 GMT-0600 (Central Standard Time),278395.60000014305,014_m_m_n_a.png,O,m,817,13,1,1849.8000001907349,276545.7999999523,7032,VNB,C,12
13,test,1,1.0,1-Back,1,z,Tue Nov 12 2024 10:03:33 GMT-0600 (Central Standard Time),281111.40000009537,022_y_f_n_a.png,O,z,1587,14,1,2687.2000000476837,278424.2000000477,7032,VNB,C,13
14,test,1,0.0,1-Back,1,m,Tue Nov 12 2024 10:03:33 GMT-0600 (Central Standard Time),283127.60000014305,019_m_f_h_a.png,O,m,912,15,1,1989.9000000953674,281137.7000000477,7032,VNB,C,14
15,test,1,0.0,1-Back,1,m,Tue Nov 12 2024 10:03:33 GMT-0600 (Central Standard Time),285727.10000014305,014_m_m_d_a.png,O,m,1498,16,1,2505.2000000476837,283221.90000009537,7032,VNB,C,15
16,test,1,0.0,1-Back,1,m,Tue Nov 12 2024 10:03:33 GMT-0600 (Central Standard Time),287725.7000000477,025_y_m_n_a.png,O,m,913,17,1,1979.2999999523163,285746.40000009537,7032,VNB,C,16
17,test,1,0.0,1-Back,1,m,Tue Nov 12 2024 10:03:33 GMT-0600 (Central Standard Time),289758.5,012_o_f_h_a.png,O,m,921,18,1,2006.2999999523163,287752.2000000477,7032,VNB,C,17
0,test,2,0.0,1-Back,,,Tue Nov 12 2024 10:03:33 GMT-0600 (Central Standard Time),289758.5,025_y_m_n_a.png,O,space,1884,1,1,2006.2999999523163,287752.2000000477,7032,VNB,C,0
1,test,2,0.0,1-Back,1,m,Tue Nov 12 2024 10:03:33 GMT-0600 (Central Standard Time),295923.5,022_y_f_h_a.png,O,m,1200,2,1,2227.7999999523163,293695.7000000477,7032,VNB,C,1
2,test,2,1.0,1-Back,1,m,Tue Nov 12 2024 10:03:33 GMT-0600 (Central Standard Time),297789.40000009537,015_o_m_n_a.png,O,m,823,3,1,1842.7999999523163,295946.60000014305,7032,VNB,C,2
3,test,2,0.0,1-Back,1,m,Tue Nov 12 2024 10:03:33 GMT-0600 (Central Standard Time),300738.2999999523,019_m_f_d_a.png,O,m,1817,4,1,2848.7999999523163,297889.5,7032,VNB,C,3
4,test,2,0.0,1-Back,1,z,Tue Nov 12 2024 10:03:33 GMT-0600 (Central Standard Time),302887.40000009537,014_m_m_d_a.png,O,z,1045,5,1,2053.2999999523163,300834.10000014305,7032,VNB,C,4
5,test,2,0.0,1-Back,1,m,Tue Nov 12 2024 10:03:33 GMT-0600 (Central Standard Time),304903.60000014305,025_y_m_h_a.png,O,m,895,6,1,1985.8000001907349,302917.7999999523,7032,VNB,C,5
6,test,2,1.0,1-Back,1,z,Tue Nov 12 2024 10:03:33 GMT-0600 (Central Standard Time),307119.40000009537,012_o_f_h_a.png,O,z,1104,7,1,2187.4000000953674,304932.0,7032,VNB,C,6
7,test,2,0.0,1-Back,1,m,Tue Nov 12 2024 10:03:33 GMT-0600 (Central Standard Time),309001.40000009537,019_m_f_n_a.png,O,m,775,8,1,1859.7999999523163,307141.60000014305,7032,VNB,C,7
8,test,2,0.0,1-Back,1,m,Tue Nov 12 2024 10:03:33 GMT-0600 (Central Standard Time),311218.2999999523,022_y_f_d_a.png,O,m,1184,9,1,2212.399999856949,309005.90000009537,7032,VNB,C,8
9,test,2,0.0,1-Back,1,m,Tue Nov 12 2024 10:03:33 GMT-0600 (Central Standard Time),313267.40000009537,014_m_m_n_a.png,O,m,941,10,1,1960.7000000476837,311306.7000000477,7032,VNB,C,9
10,test,2,1.0,1-Back,1,m,Tue Nov 12 2024 10:03:33 GMT-0600 (Central Standard Time),315899.2999999523,019_m_f_h_a.png,O,m,1507,11,1,2527.899999856949,313371.40000009537,7032,VNB,C,10
11,test,2,0.0,1-Back,1,z,Tue Nov 12 2024 10:03:33 GMT-0600 (Central Standard Time),317985.2000000477,015_o_m_h_a.png,O,z,1003,12,1,2074.0999999046326,315911.10000014305,7032,VNB,C,11
12,test,2,0.0,1-Back,1,m,Tue Nov 12 2024 10:03:33 GMT-0600 (Central Standard Time),320098.7000000477,025_y_m_d_a.png,O,m,1075,13,1,2087.7999999523163,318010.90000009537,7032,VNB,C,12
13,test,2,0.0,1-Back,1,m,Tue Nov 12 2024 10:03:33 GMT-0600 (Central Standard Time),322930.90000009537,012_o_f_n_a.png,O,m,1717,14,1,2807.100000143051,320123.7999999523,7032,VNB,C,13
14,test,2,0.0,1-Back,1,z,Tue Nov 12 2024 10:03:33 GMT-0600 (Central Standard Time),325213.40000009537,022_y_f_n_a.png,O,z,1164,15,1,2181.0,323032.40000009537,7032,VNB,C,14
15,test,2,1.0,1-Back,1,m,Tue Nov 12 2024 10:03:33 GMT-0600 (Central Standard Time),327179.7999999523,014_m_m_h_a.png,O,m,850,16,1,1867.6999998092651,325312.10000014305,7032,VNB,C,15
16,test,2,0.0,1-Back,1,m,Tue Nov 12 2024 10:03:33 GMT-0600 (Central Standard Time),329945.5,012_o_f_d_a.png,O,m,1660,17,1,2671.5,327274.0,7032,VNB,C,16
17,test,2,1.0,1-Back,1,z,Tue Nov 12 2024 10:03:33 GMT-0600 (Central Standard Time),332144.5,015_o_m_d_a.png,O,z,1094,18,1,2176.5999999046326,329967.90000009537,7032,VNB,C,17
0,test,3,1.0,1-Back,,,Tue Nov 12 2024 10:03:33 GMT-0600 (Central Standard Time),332144.5,012_o_f_h_a.png,O,space,1962,1,1,2176.5999999046326,329967.90000009537,7032,VNB,C,0
1,test,3,0.0,1-Back,1,m,Tue Nov 12 2024 10:03:33 GMT-0600 (Central Standard Time),338809.10000014305,019_m_f_d_a.png,O,m,1404,2,1,2431.7000000476837,336377.40000009537,7032,VNB,C,1
2,test,3,1.0,1-Back,1,m,Tue Nov 12 2024 10:03:33 GMT-0600 (Central Standard Time),340991.7000000477,014_m_m_n_a.png,O,m,1145,3,1,2160.4000000953674,338831.2999999523,7032,VNB,C,2
3,test,3,0.0,1-Back,1,z,Tue Nov 12 2024 10:03:33 GMT-0600 (Central Standard Time),343124.7000000477,012_o_f_n_a.png,O,z,1033,4,1,2102.7999999523163,341021.90000009537,7032,VNB,C,3
4,test,3,1.0,1-Back,1,m,Tue Nov 12 2024 10:03:33 GMT-0600 (Central Standard Time),345440.40000009537,015_o_m_d_a.png,O,m,1213,5,1,2218.5,343221.90000009537,7032,VNB,C,4
5,test,3,0.0,1-Back,1,m,Tue Nov 12 2024 10:03:33 GMT-0600 (Central Standard Time),347606.2000000477,022_y_f_h_a.png,O,m,1122,6,1,2143.0,345463.2000000477,7032,VNB,C,5
6,test,3,0.0,1-Back,1,z,Tue Nov 12 2024 10:03:33 GMT-0600 (Central Standard Time),349655.7000000477,025_y_m_h_a.png,O,z,1007,7,1,2030.7999999523163,347624.90000009537,7032,VNB,C,6
7,test,3,0.0,1-Back,1,m,Tue Nov 12 2024 10:03:33 GMT-0600 (Central Standard Time),351721.60000014305,019_m_f_n_a.png,O,m,960,8,1,2037.2000000476837,349684.40000009537,7032,VNB,C,7
8,test,3,0.0,1-Back,1,m,Tue Nov 12 2024 10:03:33 GMT-0600 (Central Standard Time),354186.60000014305,022_y_f_d_a.png,O,m,1340,9,1,2366.5,351820.10000014305,7032,VNB,C,8
9,test,3,1.0,1-Back,1,m,Tue Nov 12 2024 10:03:33 GMT-0600 (Central Standard Time),356286.7999999523,015_o_m_n_a.png,O,m,1071,10,1,2092.2999999523163,354194.5,7032,VNB,C,9
10,test,3,0.0,1-Back,1,m,Tue Nov 12 2024 10:03:33 GMT-0600 (Central Standard Time),358252.7999999523,014_m_m_h_a.png,O,m,923,11,1,1938.2999999523163,356314.5,7032,VNB,C,10
10,test,3,0.0,1-Back,0,z,Tue Nov 12 2024 10:03:33 GMT-0600 (Central Standard Time),360468.7999999523,019_m_f_h_a.png,O,m,1181,12,1,2196.699999809265,358272.10000014305,7032,VNB,C,11
11,test,3,1.0,1-Back,1,m,Tue Nov 12 2024 10:03:33 GMT-0600 (Central Standard Time),362434.60000014305,012_o_f_d_a.png,O,m,851,13,1,1941.0,360493.60000014305,7032,VNB,C,12
12,test,3,0.0,1-Back,1,z,Tue Nov 12 2024 10:03:33 GMT-0600 (Central Standard Time),364366.7000000477,014_m_m_d_a.png,O,z,911,14,1,1918.9000000953674,362447.7999999523,7032,VNB,C,13
13,test,3,0.0,1-Back,1,m,Tue Nov 12 2024 10:03:33 GMT-0600 (Central Standard Time),367015.7000000477,025_y_m_n_a.png,O,m,1619,15,1,2644.4000000953674,364371.2999999523,7032,VNB,C,14
13,test,3,1.0,1-Back,0,m,Tue Nov 12 2024 10:03:33 GMT-0600 (Central Standard Time),369148.2000000477,015_o_m_h_a.png,O,z,1108,16,1,2125.5,367022.7000000477,7032,VNB,C,15
14,test,3,0.0,1-Back,1,m,Tue Nov 12 2024 10:03:33 GMT-0600 (Central Standard Time),371215.2000000477,025_y_m_d_a.png,O,m,1047,17,1,2059.9000000953674,369155.2999999523,7032,VNB,C,16
15,test,3,1.0,1-Back,1,m,Tue Nov 12 2024 10:03:33 GMT-0600 (Central Standard Time),373681.0,022_y_f_n_a.png,O,m,1419,18,1,2442.7999999523163,371238.2000000477,7032,VNB,C,17
0,test,4,1.0,1-Back,,,Tue Nov 12 2024 10:03:33 GMT-0600 (Central Standard Time),373681.0,014_m_m_d_a.png,O,space,1209,1,1,2442.7999999523163,371238.2000000477,7032,VNB,C,0
1,test,4,0.0,1-Back,1,z,Tue Nov 12 2024 10:03:33 GMT-0600 (Central Standard Time),379762.5,015_o_m_d_a.png,O,z,1592,2,1,2606.0,377156.5,7032,VNB,C,1
2,test,4,0.0,1-Back,1,m,Tue Nov 12 2024 10:03:33 GMT-0600 (Central Standard Time),381877.40000009537,025_y_m_h_a.png,O,m,1005,3,1,2083.2000000476837,379794.2000000477,7032,VNB,C,2
3,test,4,0.0,1-Back,1,m,Tue Nov 12 2024 10:03:33 GMT-0600 (Central Standard Time),384011.10000014305,019_m_f_n_a.png,O,m,1102,4,1,2126.2000000476837,381884.90000009537,7032,VNB,C,3
4,test,4,1.0,1-Back,1,m,Tue Nov 12 2024 10:03:33 GMT-0600 (Central Standard Time),386526.90000009537,012_o_f_h_a.png,O,m,1396,5,1,2485.7999999523163,384041.10000014305,7032,VNB,C,4
4,test,4,0.0,1-Back,0,m,Tue Nov 12 2024 10:03:33 GMT-0600 (Central Standard Time),389642.60000014305,014_m_m_n_a.png,O,None,2015,6,1,3092.5,386550.10000014305,7032,VNB,C,5
5,test,4,0.0,1-Back,1,m,Tue Nov 12 2024 10:03:33 GMT-0600 (Central Standard Time),392108.2000000477,025_y_m_d_a.png,O,m,1349,7,1,2377.4000000953674,389730.7999999523,7032,VNB,C,6
6,test,4,1.0,1-Back,1,z,Tue Nov 12 2024 10:03:33 GMT-0600 (Central Standard Time),394324.2000000477,022_y_f_d_a.png,O,z,1174,8,1,2196.0,392128.2000000477,7032,VNB,C,7
6,test,4,0.0,1-Back,0,m,Tue Nov 12 2024 10:03:33 GMT-0600 (Central Standard Time),397456.7000000477,019_m_f_h_a.png,O,None,2014,9,1,3032.5,394424.2000000477,7032,VNB,C,8
7,test,4,0.0,1-Back,1,z,Tue Nov 12 2024 10:03:33 GMT-0600 (Central Standard Time),399522.5,015_o_m_h_a.png,O,z,959,10,1,1973.7999999523163,397548.7000000477,7032,VNB,C,9
8,test,4,1.0,1-Back,1,m,Tue Nov 12 2024 10:03:33 GMT-0600 (Central Standard Time),401471.90000009537,012_o_f_n_a.png,O,m,912,11,1,1921.6000001430511,399550.2999999523,7032,VNB,C,10
9,test,4,0.0,1-Back,1,m,Tue Nov 12 2024 10:03:33 GMT-0600 (Central Standard Time),403737.90000009537,019_m_f_d_a.png,O,m,1160,12,1,2236.7999999523163,401501.10000014305,7032,VNB,C,11
10,test,4,0.0,1-Back,1,m,Tue Nov 12 2024 10:03:33 GMT-0600 (Central Standard Time),405937.10000014305,022_y_f_n_a.png,O,m,1094,13,1,2177.9000000953674,403759.2000000477,7032,VNB,C,12
11,test,4,0.0,1-Back,1,m,Tue Nov 12 2024 10:03:33 GMT-0600 (Central Standard Time),408103.0,012_o_f_d_a.png,O,m,1121,14,1,2139.399999856949,405963.60000014305,7032,VNB,C,13
12,test,4,0.0,1-Back,1,m,Tue Nov 12 2024 10:03:33 GMT-0600 (Central Standard Time),410252.10000014305,022_y_f_h_a.png,O,m,1033,15,1,2120.7000000476837,408131.40000009537,7032,VNB,C,14
13,test,4,1.0,1-Back,1,z,Tue Nov 12 2024 10:03:33 GMT-0600 (Central Standard Time),412118.5,014_m_m_h_a.png,O,z,822,16,1,1843.0,410275.5,7032,VNB,C,15
14,test,4,0.0,1-Back,1,m,Tue Nov 12 2024 10:03:33 GMT-0600 (Central Standard Time),414533.40000009537,015_o_m_n_a.png,O,m,1304,17,1,2321.100000143051,412212.2999999523,7032,VNB,C,16
15,test,4,1.0,1-Back,1,z,Tue Nov 12 2024 10:03:33 GMT-0600 (Central Standard Time),416766.90000009537,025_y_m_n_a.png,O,z,1205,18,1,2224.9000000953674,414542.0,7032,VNB,C,17
0,test,5,1.0,1-Back,,,Tue Nov 12 2024 10:03:33 GMT-0600 (Central Standard Time),416766.90000009537,015_o_m_n_a.png,O,space,1243,1,1,2224.9000000953674,414542.0,7032,VNB,C,0
1,test,5,1.0,1-Back,1,m,Tue Nov 12 2024 10:03:33 GMT-0600 (Central Standard Time),421931.5,012_o_f_h_a.png,O,m,866,2,1,1869.0999999046326,420062.40000009537,7032,VNB,C,1
2,test,5,0.0,1-Back,1,m,Tue Nov 12 2024 10:03:33 GMT-0600 (Central Standard Time),424013.5,025_y_m_d_a.png,O,m,1054,3,1,2076.899999856949,421936.60000014305,7032,VNB,C,2
3,test,5,0.0,1-Back,1,z,Tue Nov 12 2024 10:03:33 GMT-0600 (Central Standard Time),426263.7999999523,015_o_m_d_a.png,O,z,1220,4,1,2243.199999809265,424020.60000014305,7032,VNB,C,3
4,test,5,0.0,1-Back,1,m,Tue Nov 12 2024 10:03:33 GMT-0600 (Central Standard Time),428179.7999999523,019_m_f_h_a.png,O,m,800,5,1,1891.0999999046326,426288.7000000477,7032,VNB,C,4
5,test,5,0.0,1-Back,1,m,Tue Nov 12 2024 10:03:33 GMT-0600 (Central Standard Time),430561.7999999523,022_y_f_n_a.png,O,m,1275,6,1,2295.199999809265,428266.60000014305,7032,VNB,C,5
6,test,5,1.0,1-Back,1,z,Tue Nov 12 2024 10:03:33 GMT-0600 (Central Standard Time),432744.90000009537,012_o_f_n_a.png,O,z,1086,7,1,2170.4000000953674,430574.5,7032,VNB,C,6
7,test,5,0.0,1-Back,1,m,Tue Nov 12 2024 10:03:33 GMT-0600 (Central Standard Time),434827.40000009537,019_m_f_d_a.png,O,m,917,8,1,1946.6000001430511,432880.7999999523,7032,VNB,C,7
8,test,5,0.0,1-Back,1,m,Tue Nov 12 2024 10:03:33 GMT-0600 (Central Standard Time),436776.90000009537,025_y_m_h_a.png,O,m,844,9,1,1851.9000000953674,434925.0,7032,VNB,C,8
9,test,5,0.0,1-Back,1,m,Tue Nov 12 2024 10:03:33 GMT-0600 (Central Standard Time),439875.7999999523,022_y_f_d_a.png,O,m,1991,10,1,3000.899999856949,436874.90000009537,7032,VNB,C,9
10,test,5,0.0,1-Back,1,m,Tue Nov 12 2024 10:03:33 GMT-0600 (Central Standard Time),442008.90000009537,014_m_m_n_a.png,O,m,1086,11,1,2107.4000000953674,439901.5,7032,VNB,C,10
11,test,5,1.0,1-Back,1,z,Tue Nov 12 2024 10:03:33 GMT-0600 (Central Standard Time),444240.7999999523,019_m_f_n_a.png,O,z,1131,12,1,2205.899999856949,442034.90000009537,7032,VNB,C,11
12,test,5,0.0,1-Back,1,m,Tue Nov 12 2024 10:03:33 GMT-0600 (Central Standard Time),446240.40000009537,015_o_m_h_a.png,O,m,878,13,1,1891.5,444348.90000009537,7032,VNB,C,12
13,test,5,0.0,1-Back,1,z,Tue Nov 12 2024 10:03:33 GMT-0600 (Central Standard Time),448356.5,014_m_m_h_a.png,O,z,1007,14,1,2026.3999998569489,446330.10000014305,7032,VNB,C,13
14,test,5,1.0,1-Back,1,m,Tue Nov 12 2024 10:03:33 GMT-0600 (Central Standard Time),450272.2999999523,012_o_f_d_a.png,O,m,803,15,1,1817.3999998569489,448454.90000009537,7032,VNB,C,14
15,test,5,0.0,1-Back,1,m,Tue Nov 12 2024 10:03:33 GMT-0600 (Central Standard Time),452554.40000009537,025_y_m_n_a.png,O,m,1233,16,1,2258.100000143051,450296.2999999523,7032,VNB,C,15
16,test,5,0.0,1-Back,1,m,Tue Nov 12 2024 10:03:33 GMT-0600 (Central Standard Time),454454.40000009537,022_y_f_h_a.png,O,m,880,17,1,1890.7999999523163,452563.60000014305,7032,VNB,C,16
17,test,5,0.0,1-Back,1,m,Tue Nov 12 2024 10:03:33 GMT-0600 (Central Standard Time),457103.5,014_m_m_d_a.png,O,m,1537,18,1,2620.399999856949,454483.10000014305,7032,VNB,C,17
0,prac,1,0.0,2-Back,,,Tue Nov 12 2024 10:03:33 GMT-0600 (Central Standard Time),457103.5,019_m_f_n_a.png,O,space,11845,1,1,2620.399999856949,454483.10000014305,7032,VNB,C,0
0,prac,1,0.0,2-Back,,,Tue Nov 12 2024 10:03:33 GMT-0600 (Central Standard Time),457103.5,012_o_f_h_a.png,O,space,11845,2,1,2620.399999856949,454483.10000014305,7032,VNB,C,0
1,prac,1,0.0,2-Back,1,m,Tue Nov 12 2024 10:03:33 GMT-0600 (Central Standard Time),556954.4000000954,015_o_m_d_a.png,O,m,1960,3,1,2961.2999999523163,553993.100000143,7032,VNB,C,1
2,prac,1,1.0,2-Back,1,z,Tue Nov 12 2024 10:03:33 GMT-0600 (Central Standard Time),559287.0,014_m_m_h_a.png,O,z,1397,4,1,2305.7999999523163,556981.2000000477,7032,VNB,C,2
3,prac,1,0.0,2-Back,1,m,Tue Nov 12 2024 10:03:33 GMT-0600 (Central Standard Time),561502.600000143,022_y_f_n_a.png,O,m,1229,5,1,2167.9000000953674,559334.7000000477,7032,VNB,C,3
4,prac,1,1.0,2-Back,1,z,Tue Nov 12 2024 10:03:33 GMT-0600 (Central Standard Time),563635.2000000477,015_o_m_h_a.png,O,z,1153,6,1,2102.7000000476837,561532.5,7032,VNB,C,4
5,prac,1,1.0,2-Back,1,z,Tue Nov 12 2024 10:03:33 GMT-0600 (Central Standard Time),565668.0,025_y_m_n_a.png,O,z,1103,7,1,2005.2000000476837,563662.7999999523,7032,VNB,C,5
6,prac,1,0.0,2-Back,1,m,Tue Nov 12 2024 10:03:33 GMT-0600 (Central Standard Time),567867.9000000954,019_m_f_d_a.png,O,m,1223,8,1,2158.7999999523163,565709.100000143,7032,VNB,C,6
7,prac,1,0.0,2-Back,1,m,Tue Nov 12 2024 10:03:33 GMT-0600 (Central Standard Time),570650.100000143,012_o_f_d_a.png,O,m,1752,9,1,2679.5,567970.600000143,7032,VNB,C,7
8,prac,1,0.0,2-Back,1,m,Tue Nov 12 2024 10:03:33 GMT-0600 (Central Standard Time),572549.100000143,014_m_m_h_a.png,O,m,895,10,1,1793.5,570755.600000143,7032,VNB,C,8
9,prac,1,1.0,2-Back,1,z,Tue Nov 12 2024 10:03:33 GMT-0600 (Central Standard Time),574465.100000143,022_y_f_d_a.png,O,z,933,11,1,1882.8000001907349,572582.2999999523,7032,VNB,C,9
10,prac,1,0.0,2-Back,1,m,Tue Nov 12 2024 10:03:33 GMT-0600 (Central Standard Time),576830.9000000954,015_o_m_n_a.png,O,m,1366,12,1,2330.7999999523163,574500.100000143,7032,VNB,C,10
0,test,1,0.0,2-Back,,,Tue Nov 12 2024 10:03:33 GMT-0600 (Central Standard Time),576830.9000000954,025_y_m_h_a.png,O,space,10725,1,1,2330.7999999523163,574500.100000143,7032,VNB,C,0
0,test,1,0.0,2-Back,,,Tue Nov 12 2024 10:03:33 GMT-0600 (Central Standard Time),576830.9000000954,012_o_f_n_a.png,O,space,10725,2,1,2330.7999999523163,574500.100000143,7032,VNB,C,0
1,test,1,0.0,2-Back,1,z,Tue Nov 12 2024 10:03:33 GMT-0600 (Central Standard Time),602592.4000000954,015_o_m_h_a.png,O,z,984,3,1,1991.7999999523163,600600.600000143,7032,VNB,C,1
2,test,1,0.0,2-Back,1,m,Tue Nov 12 2024 10:03:33 GMT-0600 (Central Standard Time),605420.7000000477,019_m_f_d_a.png,O,m,1788,4,1,2806.5,602614.2000000477,7032,VNB,C,2
2,test,1,1.0,2-Back,0,m,Tue Nov 12 2024 10:03:33 GMT-0600 (Central Standard Time),608187.2999999523,025_y_m_n_a.png,O,z,1742,5,1,2758.5,605428.7999999523,7032,VNB,C,3
2,test,1,0.0,2-Back,0,z,Tue Nov 12 2024 10:03:33 GMT-0600 (Central Standard Time),610233.7999999523,022_y_f_d_a.png,O,m,1012,6,1,2020.1999998092651,608213.600000143,7032,VNB,C,4
3,test,1,0.0,2-Back,1,m,Tue Nov 12 2024 10:03:33 GMT-0600 (Central Standard Time),612652.5,014_m_m_h_a.png,O,m,1390,7,1,2406.5,610246.0,7032,VNB,C,5
3,test,1,1.0,2-Back,0,m,Tue Nov 12 2024 10:03:33 GMT-0600 (Central Standard Time),614618.5,022_y_f_n_a.png,O,z,919,8,1,1937.2999999523163,612681.2000000477,7032,VNB,C,6
3,test,1,0.0,2-Back,0,z,Tue Nov 12 2024 10:03:33 GMT-0600 (Central Standard Time),616716.7999999523,012_o_f_h_a.png,O,m,989,9,1,2012.3999998569489,614704.4000000954,7032,VNB,C,7
3,test,1,0.0,2-Back,0,m,Tue Nov 12 2024 10:03:33 GMT-0600 (Central Standard Time),619753.0,015_o_m_d_a.png,O,None,2015,10,1,3028.899999856949,616724.100000143,7032,VNB,C,8
4,test,1,1.0,2-Back,1,m,Tue Nov 12 2024 10:03:33 GMT-0600 (Central Standard Time),622732.5,014_m_m_d_a.png,O,m,1865,11,1,2891.5,619841.0,7032,VNB,C,9
5,test,1,0.0,2-Back,1,m,Tue Nov 12 2024 10:03:33 GMT-0600 (Central Standard Time),625065.100000143,019_m_f_n_a.png,O,m,1219,12,1,2304.800000190735,622760.2999999523,7032,VNB,C,10
6,test,1,0.0,2-Back,1,m,Tue Nov 12 2024 10:03:33 GMT-0600 (Central Standard Time),627463.2999999523,022_y_f_h_a.png,O,m,1335,13,1,2366.2999999523163,625097.0,7032,VNB,C,11
7,test,1,0.0,2-Back,1,z,Tue Nov 12 2024 10:03:33 GMT-0600 (Central Standard Time),629796.9000000954,014_m_m_n_a.png,O,z,1316,14,1,2327.600000143051,627469.2999999523,7032,VNB,C,12
8,test,1,0.0,2-Back,1,m,Tue Nov 12 2024 10:03:33 GMT-0600 (Central Standard Time),632795.9000000954,025_y_m_d_a.png,O,m,1866,15,1,2899.2999999523163,629896.600000143,7032,VNB,C,13
8,test,1,1.0,2-Back,0,m,Tue Nov 12 2024 10:03:33 GMT-0600 (Central Standard Time),634878.2999999523,019_m_f_h_a.png,O,z,972,16,1,2054.699999809265,632823.600000143,7032,VNB,C,14
9,test,1,0.0,2-Back,1,z,Tue Nov 12 2024 10:03:33 GMT-0600 (Central Standard Time),637644.2999999523,012_o_f_d_a.png,O,z,1658,17,1,2672.399999856949,634971.9000000954,7032,VNB,C,15
9,test,1,0.0,2-Back,0,m,Tue Nov 12 2024 10:03:33 GMT-0600 (Central Standard Time),640759.4000000954,015_o_m_n_a.png,O,None,2014,18,1,3090.2999999523163,637669.100000143,7032,VNB,C,16
0,test,2,0.0,2-Back,,,Tue Nov 12 2024 10:03:33 GMT-0600 (Central Standard Time),640759.4000000954,014_m_m_h_a.png,O,space,3858,1,1,3090.2999999523163,637669.100000143,7032,VNB,C,0
0,test,2,0.0,2-Back,,,Tue Nov 12 2024 10:03:33 GMT-0600 (Central Standard Time),640759.4000000954,022_y_f_n_a.png,O,space,3858,2,1,3090.2999999523163,637669.100000143,7032,VNB,C,0
1,test,2,1.0,2-Back,1,z,Tue Nov 12 2024 10:03:33 GMT-0600 (Central Standard Time),652255.0,012_o_f_h_a.png,O,z,1211,3,1,2234.0999999046326,650020.9000000954,7032,VNB,C,1
2,test,2,0.0,2-Back,1,m,Tue Nov 12 2024 10:03:33 GMT-0600 (Central Standard Time),655004.4000000954,015_o_m_d_a.png,O,m,1722,4,1,2745.0,652259.4000000954,7032,VNB,C,2
3,test,2,0.0,2-Back,1,m,Tue Nov 12 2024 10:03:33 GMT-0600 (Central Standard Time),657537.7999999523,019_m_f_d_a.png,O,m,1512,5,1,2526.0999999046326,655011.7000000477,7032,VNB,C,3
3,test,2,0.0,2-Back,0,m,Tue Nov 12 2024 10:03:33 GMT-0600 (Central Standard Time),660636.5,025_y_m_h_a.png,O,z,1965,6,1,3071.7999999523163,657564.7000000477,7032,VNB,C,4
3,test,2,0.0,2-Back,0,m,Tue Nov 12 2024 10:03:33 GMT-0600 (Central Standard Time),663769.7000000477,012_o_f_n_a.png,O,None,2015,7,1,3102.2999999523163,660667.4000000954,7032,VNB,C,5
3,test,2,1.0,2-Back,0,z,Tue Nov 12 2024 10:03:33 GMT-0600 (Central Standard Time),666201.5,015_o_m_h_a.png,O,m,1319,8,1,2404.2000000476837,663797.2999999523,7032,VNB,C,6
4,test,2,0.0,2-Back,1,m,Tue Nov 12 2024 10:03:33 GMT-0600 (Central Standard Time),669050.4000000954,022_y_f_d_a.png,O,m,1742,9,1,2756.7000000476837,666293.7000000477,7032,VNB,C,7
4,test,2,0.0,2-Back,0,m,Tue Nov 12 2024 10:03:33 GMT-0600 (Central Standard Time),672182.9000000954,025_y_m_d_a.png,O,None,2015,10,1,3103.5,669079.4000000954,7032,VNB,C,8
5,test,2,0.0,2-Back,1,m,Tue Nov 12 2024 10:03:33 GMT-0600 (Central Standard Time),674265.2999999523,014_m_m_n_a.png,O,m,1044,11,1,2053.0999999046326,672212.2000000477,7032,VNB,C,9
6,test,2,0.0,2-Back,1,m,Tue Nov 12 2024 10:03:33 GMT-0600 (Central Standard Time),676830.7000000477,019_m_f_h_a.png,O,m,1437,12,1,2461.5,674369.2000000477,7032,VNB,C,10
7,test,2,1.0,2-Back,1,z,Tue Nov 12 2024 10:03:33 GMT-0600 (Central Standard Time),679513.7000000477,015_o_m_n_a.png,O,z,1585,13,1,2673.2999999523163,676840.4000000954,7032,VNB,C,11
8,test,2,0.0,2-Back,1,m,Tue Nov 12 2024 10:03:33 GMT-0600 (Central Standard Time),682029.2999999523,012_o_f_d_a.png,O,m,1389,14,1,2405.5,679623.7999999523,7032,VNB,C,12
8,test,2,0.0,2-Back,0,m,Tue Nov 12 2024 10:03:33 GMT-0600 (Central Standard Time),685145.100000143,022_y_f_h_a.png,O,None,2015,15,1,3087.300000190735,682057.7999999523,7032,VNB,C,13
8,test,2,0.0,2-Back,0,z,Tue Nov 12 2024 10:03:33 GMT-0600 (Central Standard Time),688061.0,014_m_m_d_a.png,O,m,1806,16,1,2880.7999999523163,685180.2000000477,7032,VNB,C,14
9,test,2,0.0,2-Back,1,m,Tue Nov 12 2024 10:03:33 GMT-0600 (Central Standard Time),690226.7999999523,025_y_m_n_a.png,O,m,1050,17,1,2138.5999999046326,688088.2000000477,7032,VNB,C,15
10,test,2,1.0,2-Back,1,m,Tue Nov 12 2024 10:03:33 GMT-0600 (Central Standard Time),692492.7999999523,019_m_f_n_a.png,O,m,1147,18,1,2236.2999999523163,690256.5,7032,VNB,C,16
0,test,3,1.0,2-Back,,,Tue Nov 12 2024 10:03:33 GMT-0600 (Central Standard Time),692492.7999999523,015_o_m_n_a.png,O,space,1642,1,1,2236.2999999523163,690256.5,7032,VNB,C,0
0,test,3,1.0,2-Back,,,Tue Nov 12 2024 10:03:33 GMT-0600 (Central Standard Time),692492.7999999523,012_o_f_d_a.png,O,space,1642,2,1,2236.2999999523163,690256.5,7032,VNB,C,0
1,test,3,0.0,2-Back,1,m,Tue Nov 12 2024 10:03:33 GMT-0600 (Central Standard Time),701923.100000143,022_y_f_h_a.png,O,m,1375,3,1,2385.4000000953674,699537.7000000477,7032,VNB,C,1
2,test,3,0.0,2-Back,1,z,Tue Nov 12 2024 10:03:33 GMT-0600 (Central Standard Time),704255.600000143,019_m_f_d_a.png,O,z,1208,4,1,2227.300000190735,702028.2999999523,7032,VNB,C,2
2,test,3,1.0,2-Back,0,m,Tue Nov 12 2024 10:03:33 GMT-0600 (Central Standard Time),706604.9000000954,025_y_m_n_a.png,O,z,1307,5,1,2332.2000000476837,704272.7000000477,7032,VNB,C,3
3,test,3,0.0,2-Back,1,m,Tue Nov 12 2024 10:03:33 GMT-0600 (Central Standard Time),709004.100000143,015_o_m_h_a.png,O,m,1291,6,1,2375.100000143051,706629.0,7032,VNB,C,4
4,test,3,0.0,2-Back,1,z,Tue Nov 12 2024 10:03:33 GMT-0600 (Central Standard Time),711320.0,022_y_f_n_a.png,O,z,1203,7,1,2227.2999999523163,709092.7000000477,7032,VNB,C,5
5,test,3,1.0,2-Back,1,m,Tue Nov 12 2024 10:03:33 GMT-0600 (Central Standard Time),713602.5,014_m_m_d_a.png,O,m,1151,8,1,2180.5999999046326,711421.9000000954,7032,VNB,C,6
6,test,3,0.0,2-Back,1,m,Tue Nov 12 2024 10:03:33 GMT-0600 (Central Standard Time),716618.0,025_y_m_d_a.png,O,m,1883,9,1,2976.5999999046326,713641.4000000954,7032,VNB,C,7
6,test,3,0.0,2-Back,0,m,Tue Nov 12 2024 10:03:33 GMT-0600 (Central Standard Time),718733.9000000954,012_o_f_h_a.png,O,z,1013,10,1,2089.7999999523163,716644.100000143,7032,VNB,C,8
7,test,3,1.0,2-Back,1,m,Tue Nov 12 2024 10:03:33 GMT-0600 (Central Standard Time),720833.2999999523,019_m_f_n_a.png,O,m,985,11,1,2069.2999999523163,718764.0,7032,VNB,C,9
8,test,3,1.0,2-Back,1,z,Tue Nov 12 2024 10:03:33 GMT-0600 (Central Standard Time),723332.7000000477,014_m_m_h_a.png,O,z,1457,12,1,2475.0,720857.7000000477,7032,VNB,C,10
9,test,3,0.0,2-Back,1,m,Tue Nov 12 2024 10:03:33 GMT-0600 (Central Standard Time),725432.0,022_y_f_d_a.png,O,m,988,13,1,2070.7999999523163,723361.2000000477,7032,VNB,C,11
9,test,3,0.0,2-Back,0,m,Tue Nov 12 2024 10:03:33 GMT-0600 (Central Standard Time),728547.2999999523,012_o_f_n_a.png,O,None,2015,14,1,3085.399999856949,725461.9000000954,7032,VNB,C,12
10,test,3,0.0,2-Back,1,z,Tue Nov 12 2024 10:03:33 GMT-0600 (Central Standard Time),730413.2999999523,015_o_m_d_a.png,O,z,831,15,1,1839.5999999046326,728573.7000000477,7032,VNB,C,13
11,test,3,1.0,2-Back,1,m,Tue Nov 12 2024 10:03:33 GMT-0600 (Central Standard Time),732896.100000143,019_m_f_h_a.png,O,m,1378,16,1,2453.800000190735,730442.2999999523,7032,VNB,C,14
12,test,3,0.0,2-Back,1,m,Tue Nov 12 2024 10:03:33 GMT-0600 (Central Standard Time),735162.0,014_m_m_n_a.png,O,m,1218,17,1,2238.0999999046326,732923.9000000954,7032,VNB,C,15
13,test,3,0.0,2-Back,1,z,Tue Nov 12 2024 10:03:33 GMT-0600 (Central Standard Time),736961.5,025_y_m_h_a.png,O,z,761,18,1,1777.7999999523163,735183.7000000477,7032,VNB,C,16
0,test,4,0.0,2-Back,,,Tue Nov 12 2024 10:03:33 GMT-0600 (Central Standard Time),736961.5,019_m_f_n_a.png,O,space,1568,1,1,1777.7999999523163,735183.7000000477,7032,VNB,C,0
0,test,4,0.0,2-Back,,,Tue Nov 12 2024 10:03:33 GMT-0600 (Central Standard Time),736961.5,015_o_m_n_a.png,O,space,1568,2,1,1777.7999999523163,735183.7000000477,7032,VNB,C,0
1,test,4,1.0,2-Back,1,m,Tue Nov 12 2024 10:03:33 GMT-0600 (Central Standard Time),746191.7999999523,025_y_m_h_a.png,O,m,1212,3,1,2219.0,743972.7999999523,7032,VNB,C,1
2,test,4,1.0,2-Back,1,m,Tue Nov 12 2024 10:03:33 GMT-0600 (Central Standard Time),748307.9000000954,012_o_f_d_a.png,O,m,1077,4,1,2087.9000000953674,746220.0,7032,VNB,C,2
3,test,4,0.0,2-Back,1,z,Tue Nov 12 2024 10:03:33 GMT-0600 (Central Standard Time),750339.7000000477,015_o_m_h_a.png,O,z,886,5,1,1902.4000000953674,748437.2999999523,7032,VNB,C,3
4,test,4,0.0,2-Back,1,m,Tue Nov 12 2024 10:03:33 GMT-0600 (Central Standard Time),753356.0,014_m_m_n_a.png,O,m,1990,6,1,3004.7999999523163,750351.2000000477,7032,VNB,C,4
4,test,4,0.0,2-Back,0,m,Tue Nov 12 2024 10:03:33 GMT-0600 (Central Standard Time),756405.5,019_m_f_d_a.png,O,None,2015,7,1,3021.7000000476837,753383.7999999523,7032,VNB,C,5
4,test,4,0.0,2-Back,0,z,Tue Nov 12 2024 10:03:33 GMT-0600 (Central Standard Time),759504.100000143,022_y_f_n_a.png,O,None,2017,8,1,3018.300000190735,756485.7999999523,7032,VNB,C,6
5,test,4,1.0,2-Back,1,m,Tue Nov 12 2024 10:03:33 GMT-0600 (Central Standard Time),761520.100000143,012_o_f_h_a.png,O,m,978,9,1,1990.2000000476837,759529.9000000954,7032,VNB,C,7
6,test,4,0.0,2-Back,1,m,Tue Nov 12 2024 10:03:33 GMT-0600 (Central Standard Time),763986.100000143,014_m_m_h_a.png,O,m,1418,10,1,2440.5,761545.600000143,7032,VNB,C,8
6,test,4,0.0,2-Back,0,m,Tue Nov 12 2024 10:03:33 GMT-0600 (Central Standard Time),766101.7000000477,022_y_f_d_a.png,O,z,1014,11,1,2088.7999999523163,764012.9000000954,7032,VNB,C,9
7,test,4,0.0,2-Back,1,m,Tue Nov 12 2024 10:03:33 GMT-0600 (Central Standard Time),768401.5,025_y_m_n_a.png,O,m,1168,12,1,2268.0,766133.5,7032,VNB,C,10
8,test,4,0.0,2-Back,1,z,Tue Nov 12 2024 10:03:33 GMT-0600 (Central Standard Time),771200.2999999523,015_o_m_d_a.png,O,z,1686,13,1,2710.5999999046326,768489.7000000477,7032,VNB,C,11
9,test,4,1.0,2-Back,1,m,Tue Nov 12 2024 10:03:33 GMT-0600 (Central Standard Time),773316.2000000477,019_m_f_h_a.png,O,m,991,14,1,2085.9000000953674,771230.2999999523,7032,VNB,C,12
10,test,4,1.0,2-Back,1,m,Tue Nov 12 2024 10:03:33 GMT-0600 (Central Standard Time),776248.7000000477,022_y_f_h_a.png,O,m,1820,15,1,2840.9000000953674,773407.7999999523,7032,VNB,C,13
11,test,4,0.0,2-Back,1,m,Tue Nov 12 2024 10:03:33 GMT-0600 (Central Standard Time),778314.5,012_o_f_n_a.png,O,m,951,16,1,1972.7000000476837,776341.7999999523,7032,VNB,C,14
12,test,4,0.0,2-Back,1,m,Tue Nov 12 2024 10:03:33 GMT-0600 (Central Standard Time),780613.7999999523,025_y_m_d_a.png,O,m,1189,17,1,2201.7999999523163,778412.0,7032,VNB,C,15
13,test,4,1.0,2-Back,1,m,Tue Nov 12 2024 10:03:33 GMT-0600 (Central Standard Time),783029.2000000477,014_m_m_d_a.png,O,m,1381,18,1,2392.0999999046326,780637.100000143,7032,VNB,C,16
0,test,5,1.0,2-Back,,,Tue Nov 12 2024 10:03:33 GMT-0600 (Central Standard Time),783029.2000000477,022_y_f_d_a.png,O,space,1138,1,1,2392.0999999046326,780637.100000143,7032,VNB,C,0
0,test,5,1.0,2-Back,,,Tue Nov 12 2024 10:03:33 GMT-0600 (Central Standard Time),783029.2000000477,012_o_f_h_a.png,O,space,1138,2,1,2392.0999999046326,780637.100000143,7032,VNB,C,0
1,test,5,1.0,2-Back,1,z,Tue Nov 12 2024 10:03:33 GMT-0600 (Central Standard Time),792060.2000000477,015_o_m_d_a.png,O,z,1474,3,1,2486.5999999046326,789573.600000143,7032,VNB,C,1
2,test,5,1.0,2-Back,1,m,Tue Nov 12 2024 10:03:33 GMT-0600 (Central Standard Time),794125.4000000954,019_m_f_n_a.png,O,m,964,4,1,2040.2999999523163,792085.100000143,7032,VNB,C,2
3,test,5,0.0,2-Back,1,m,Tue Nov 12 2024 10:03:33 GMT-0600 (Central Standard Time),796324.2999999523,014_m_m_h_a.png,O,m,1113,5,1,2182.699999809265,794141.600000143,7032,VNB,C,3
4,test,5,0.0,2-Back,1,z,Tue Nov 12 2024 10:03:33 GMT-0600 (Central Standard Time),798390.5,022_y_f_n_a.png,O,z,1038,6,1,2061.7000000476837,796328.7999999523,7032,VNB,C,4
5,test,5,0.0,2-Back,1,m,Tue Nov 12 2024 10:03:33 GMT-0600 (Central Standard Time),800622.9000000954,012_o_f_d_a.png,O,m,1212,7,1,2227.7999999523163,798395.100000143,7032,VNB,C,5
5,test,5,0.0,2-Back,0,m,Tue Nov 12 2024 10:03:33 GMT-0600 (Central Standard Time),802873.2000000477,015_o_m_h_a.png,O,z,1227,8,1,2245.0999999046326,800628.100000143,7032,VNB,C,6
5,test,5,1.0,2-Back,0,z,Tue Nov 12 2024 10:03:33 GMT-0600 (Central Standard Time),805722.100000143,019_m_f_d_a.png,O,m,1801,9,1,2824.2000000476837,802897.9000000954,7032,VNB,C,7
6,test,5,0.0,2-Back,1,m,Tue Nov 12 2024 10:03:33 GMT-0600 (Central Standard Time),807821.7999999523,025_y_m_n_a.png,O,m,1056,10,1,2075.199999809265,805746.600000143,7032,VNB,C,8
7,test,5,0.0,2-Back,1,m,Tue Nov 12 2024 10:03:33 GMT-0600 (Central Standard Time),810154.2000000477,014_m_m_n_a.png,O,m,1226,11,1,2237.9000000953674,807916.2999999523,7032,VNB,C,9
8,test,5,0.0,2-Back,1,m,Tue Nov 12 2024 10:03:33 GMT-0600 (Central Standard Time),812869.0,022_y_f_h_a.png,O,m,1606,12,1,2686.2999999523163,810182.7000000477,7032,VNB,C,10
9,test,5,0.0,2-Back,1,m,Tue Nov 12 2024 10:03:33 GMT-0600 (Central Standard Time),815135.7999999523,025_y_m_d_a.png,O,m,1245,13,1,2262.5999999046326,812873.2000000477,7032,VNB,C,11
10,test,5,1.0,2-Back,1,z,Tue Nov 12 2024 10:03:33 GMT-0600 (Central Standard Time),817151.7000000477,019_m_f_h_a.png,O,z,979,14,1,1987.9000000953674,815163.7999999523,7032,VNB,C,12
11,test,5,0.0,2-Back,1,m,Tue Nov 12 2024 10:03:33 GMT-0600 (Central Standard Time),819767.600000143,015_o_m_n_a.png,O,m,1511,15,1,2529.100000143051,817238.5,7032,VNB,C,13
12,test,5,0.0,2-Back,1,m,Tue Nov 12 2024 10:03:33 GMT-0600 (Central Standard Time),822516.5,014_m_m_d_a.png,O,m,1632,16,1,2727.5999999046326,819788.9000000954,7032,VNB,C,14
13,test,5,0.0,2-Back,1,z,Tue Nov 12 2024 10:03:33 GMT-0600 (Central Standard Time),824732.7000000477,012_o_f_n_a.png,O,z,1115,17,1,2124.7000000476837,822608.0,7032,VNB,C,15
14,test,5,1.0,2-Back,1,m,Tue Nov 12 2024 10:03:33 GMT-0600 (Central Standard Time),826698.7000000477,025_y_m_h_a.png,O,m,859,18,1,1871.5999999046326,824827.100000143,7032,VNB,C,16
