acc_sum,block,block_c,block_cond,con_img,correct,correct_response,datetime,endtime,face,jitter,line,project,response,response_time,row_sel,session_number,start_end,starttime,subject_id,task,task_vers,trial
0,prac,1,A,haborder.png,0,z,Fri Feb 28 2025 17:51:09 GMT-0600 (Central Standard Time),79198.80000001192,CFD-WM-013-015-A.jpg,1900,solid,O,None,1516,8,1,4199.100000023842,74999.69999998808,7064,ATS,A,1
1,prac,1,A,haborder.png,1,m,Fri Feb 28 2025 17:51:09 GMT-0600 (Central Standard Time),82147.5,CFD-BM-029-026-HC.jpg,1500,solid,O,m,659,3,1,7147.800000011921,74999.69999998808,7064,ATS,A,2
2,prac,1,A,haborder.png,1,z,Fri Feb 28 2025 17:51:09 GMT-0600 (Central Standard Time),85397.60000002384,CFD-WF-003-014-A.jpg,1600,solid,O,z,867,10,1,10397.900000035763,74999.69999998808,7064,ATS,A,3
3,prac,1,A,haborder.png,1,m,Fri Feb 28 2025 17:51:09 GMT-0600 (Central Standard Time),88613.60000002384,CFD-WM-004-005-HC.jpg,1400,solid,O,m,1023,7,1,13613.900000035763,74999.69999998808,7064,ATS,A,4
4,prac,1,A,haborder.png,1,z,Fri Feb 28 2025 17:51:09 GMT-0600 (Central Standard Time),91395.90000003576,CFD-WF-019-015-A.jpg,1000,solid,O,z,984,12,1,16396.200000047684,74999.69999998808,7064,ATS,A,5
5,prac,1,A,haborder.png,1,m,Fri Feb 28 2025 17:51:09 GMT-0600 (Central Standard Time),94860.10000002384,CFD-BF-028-020-HC.jpg,2000,solid,O,m,682,5,1,19860.400000035763,74999.69999998808,7064,ATS,A,6
6,prac,1,A,haborder.png,1,m,Fri Feb 28 2025 17:51:09 GMT-0600 (Central Standard Time),98159.69999998808,CFD-BM-017-052-HC.jpg,1700,solid,O,m,803,1,1,23160.0,74999.69999998808,7064,ATS,A,7
7,prac,1,A,haborder.png,1,m,Fri Feb 28 2025 17:51:09 GMT-0600 (Central Standard Time),101225.40000003576,CFD-WF-017-016-HC.jpg,1500,solid,O,m,777,11,1,26225.700000047684,74999.69999998808,7064,ATS,A,8
8,prac,1,A,haborder.png,1,m,Fri Feb 28 2025 17:51:09 GMT-0600 (Central Standard Time),104489.60000002384,CFD-WM-006-013-HC.jpg,1700,solid,O,m,775,9,1,29489.900000035763,74999.69999998808,7064,ATS,A,9
9,prac,1,A,haborder.png,1,z,Fri Feb 28 2025 17:51:09 GMT-0600 (Central Standard Time),107506.0,CFD-BF-039-039-A.jpg,1200,solid,O,z,1033,6,1,32506.30000001192,74999.69999998808,7064,ATS,A,10
9,prac,1,A,haborder.png,0,z,Fri Feb 28 2025 17:51:09 GMT-0600 (Central Standard Time),111404.5,CFD-BM-005-010-A.jpg,1600,solid,O,None,1514,2,1,36404.80000001192,74999.69999998808,7064,ATS,A,11
10,prac,1,A,haborder.png,1,z,Fri Feb 28 2025 17:51:09 GMT-0600 (Central Standard Time),113771.30000001192,CFD-BF-023-013-A.jpg,1000,solid,O,z,583,4,1,38771.60000002384,74999.69999998808,7064,ATS,A,12
1,prac,1,B,mfborder.png,1,z,Fri Feb 28 2025 17:51:09 GMT-0600 (Central Standard Time),168171.0,CFD-WF-003-014-A.jpg,1500,dash,O,z,684,11,1,2982.0,165189.0,7064,ATS,A,1
1,prac,1,B,mfborder.png,0,m,Fri Feb 28 2025 17:51:09 GMT-0600 (Central Standard Time),172470.60000002384,CFD-BM-005-010-A.jpg,2000,dash,O,None,1514,5,1,7281.600000023842,165189.0,7064,ATS,A,2
2,prac,1,B,mfborder.png,1,z,Fri Feb 28 2025 17:51:09 GMT-0600 (Central Standard Time),175202.19999998808,CFD-BF-023-013-A.jpg,1000,dash,O,z,943,4,1,10013.199999988079,165189.0,7064,ATS,A,3
2,prac,1,B,mfborder.png,0,z,Fri Feb 28 2025 17:51:09 GMT-0600 (Central Standard Time),178450.90000003576,CFD-BF-010-005-HC.jpg,1500,dash,O,m,959,3,1,13261.900000035763,165189.0,7064,ATS,A,4
3,prac,1,B,mfborder.png,1,z,Fri Feb 28 2025 17:51:09 GMT-0600 (Central Standard Time),181233.40000003576,CFD-BF-028-020-HC.jpg,1400,dash,O,z,592,7,1,16044.400000035763,165189.0,7064,ATS,A,5
4,prac,1,B,mfborder.png,1,m,Fri Feb 28 2025 17:51:09 GMT-0600 (Central Standard Time),184399.10000002384,CFD-BM-029-026-HC.jpg,1700,dash,O,m,669,1,1,19210.100000023842,165189.0,7064,ATS,A,6
5,prac,1,B,mfborder.png,1,m,Fri Feb 28 2025 17:51:09 GMT-0600 (Central Standard Time),187481.80000001192,CFD-WM-013-015-A.jpg,1700,dash,O,m,568,9,1,22292.80000001192,165189.0,7064,ATS,A,7
6,prac,1,B,mfborder.png,1,m,Fri Feb 28 2025 17:51:09 GMT-0600 (Central Standard Time),191114.19999998808,CFD-WM-006-013-HC.jpg,1600,dash,O,m,1250,10,1,25925.19999998808,165189.0,7064,ATS,A,8
7,prac,1,B,mfborder.png,1,z,Fri Feb 28 2025 17:51:09 GMT-0600 (Central Standard Time),194412.30000001192,CFD-WF-002-008-HC.jpg,1900,dash,O,z,615,8,1,29223.30000001192,165189.0,7064,ATS,A,9
8,prac,1,B,mfborder.png,1,m,Fri Feb 28 2025 17:51:09 GMT-0600 (Central Standard Time),197431.0,CFD-WM-019-013-A.jpg,1200,dash,O,m,1016,6,1,32242.0,165189.0,7064,ATS,A,10
9,prac,1,B,mfborder.png,1,m,Fri Feb 28 2025 17:51:09 GMT-0600 (Central Standard Time),201276.10000002384,CFD-BM-010-019-A.jpg,1600,dash,O,m,1456,2,1,36087.10000002384,165189.0,7064,ATS,A,11
10,prac,1,B,mfborder.png,1,z,Fri Feb 28 2025 17:51:09 GMT-0600 (Central Standard Time),203641.90000003576,CFD-WF-017-016-HC.jpg,1000,dash,O,z,574,12,1,38452.90000003576,165189.0,7064,ATS,A,12
1,test,1,A,haborder.png,1,z,Fri Feb 28 2025 17:51:09 GMT-0600 (Central Standard Time),239598.60000002384,CFD-WM-013-015-A.jpg,1900,solid,O,z,848,8,1,2766.800000011921,236831.80000001192,7064,ATS,A,1
2,test,1,A,haborder.png,1,m,Fri Feb 28 2025 17:51:09 GMT-0600 (Central Standard Time),241999.19999998808,CFD-BM-029-026-HC.jpg,1500,solid,O,m,881,3,1,5167.399999976158,236831.80000001192,7064,ATS,A,2
3,test,1,A,haborder.png,1,m,Fri Feb 28 2025 17:51:09 GMT-0600 (Central Standard Time),244500.5,CFD-WM-006-013-HC.jpg,1700,solid,O,m,777,9,1,7668.699999988079,236831.80000001192,7064,ATS,A,3
4,test,1,A,haborder.png,1,m,Fri Feb 28 2025 17:51:09 GMT-0600 (Central Standard Time),247112.0,CFD-BF-028-020-HC.jpg,2000,solid,O,m,580,5,1,10280.199999988079,236831.80000001192,7064,ATS,A,4
5,test,1,A,haborder.png,1,z,Fri Feb 28 2025 17:51:09 GMT-0600 (Central Standard Time),249361.0,CFD-WF-003-014-A.jpg,1600,solid,O,z,622,10,1,12529.199999988079,236831.80000001192,7064,ATS,A,5
6,test,1,A,haborder.png,1,m,Fri Feb 28 2025 17:51:09 GMT-0600 (Central Standard Time),251660.5,CFD-BM-017-052-HC.jpg,1700,solid,O,m,565,1,1,14828.699999988079,236831.80000001192,7064,ATS,A,6
7,test,1,A,haborder.png,1,z,Fri Feb 28 2025 17:51:09 GMT-0600 (Central Standard Time),254026.80000001192,CFD-BM-005-010-A.jpg,1600,solid,O,z,734,2,1,17195.0,236831.80000001192,7064,ATS,A,7
8,test,1,A,haborder.png,1,z,Fri Feb 28 2025 17:51:09 GMT-0600 (Central Standard Time),255658.5,CFD-BF-023-013-A.jpg,1000,solid,O,z,601,4,1,18826.69999998808,236831.80000001192,7064,ATS,A,8
9,test,1,A,haborder.png,1,z,Fri Feb 28 2025 17:51:09 GMT-0600 (Central Standard Time),258240.80000001192,CFD-WM-013-015-A.jpg,1900,solid,O,z,660,8,1,21409.0,236831.80000001192,7064,ATS,A,9
10,test,1,A,haborder.png,1,z,Fri Feb 28 2025 17:51:09 GMT-0600 (Central Standard Time),260625.90000003576,CFD-WF-003-014-A.jpg,1600,solid,O,z,749,10,1,23794.100000023842,236831.80000001192,7064,ATS,A,10
11,test,1,A,haborder.png,1,m,Fri Feb 28 2025 17:51:09 GMT-0600 (Central Standard Time),262923.5,CFD-WM-004-005-HC.jpg,1400,solid,O,m,874,7,1,26091.69999998808,236831.80000001192,7064,ATS,A,11
12,test,1,A,haborder.png,1,m,Fri Feb 28 2025 17:51:09 GMT-0600 (Central Standard Time),265406.10000002384,CFD-WM-006-013-HC.jpg,1700,solid,O,m,756,9,1,28574.30000001192,236831.80000001192,7064,ATS,A,12
13,test,1,A,haborder.png,1,m,Fri Feb 28 2025 17:51:09 GMT-0600 (Central Standard Time),267942.1999999881,CFD-BM-017-052-HC.jpg,1700,solid,O,m,820,1,1,31110.399999976158,236831.80000001192,7064,ATS,A,13
14,test,1,A,haborder.png,1,z,Fri Feb 28 2025 17:51:09 GMT-0600 (Central Standard Time),269753.8000000119,CFD-BF-023-013-A.jpg,1000,solid,O,z,793,4,1,32922.0,236831.80000001192,7064,ATS,A,14
15,test,1,A,haborder.png,1,z,Fri Feb 28 2025 17:51:09 GMT-0600 (Central Standard Time),272302.90000003576,CFD-BM-005-010-A.jpg,1600,solid,O,z,922,2,1,35471.10000002384,236831.80000001192,7064,ATS,A,15
16,test,1,A,haborder.png,1,z,Fri Feb 28 2025 17:51:09 GMT-0600 (Central Standard Time),274119.40000003576,CFD-WF-019-015-A.jpg,1000,solid,O,z,785,12,1,37287.60000002384,236831.80000001192,7064,ATS,A,16
17,test,1,A,haborder.png,1,m,Fri Feb 28 2025 17:51:09 GMT-0600 (Central Standard Time),276535.10000002384,CFD-WF-017-016-HC.jpg,1500,solid,O,m,887,11,1,39703.30000001192,236831.80000001192,7064,ATS,A,17
18,test,1,A,haborder.png,1,z,Fri Feb 28 2025 17:51:09 GMT-0600 (Central Standard Time),278619.6999999881,CFD-WF-019-015-A.jpg,1000,solid,O,z,1052,12,1,41787.89999997616,236831.80000001192,7064,ATS,A,18
19,test,1,A,haborder.png,1,m,Fri Feb 28 2025 17:51:09 GMT-0600 (Central Standard Time),280835.0,CFD-WM-004-005-HC.jpg,1400,solid,O,m,785,7,1,44003.19999998808,236831.80000001192,7064,ATS,A,19
20,test,1,A,haborder.png,1,z,Fri Feb 28 2025 17:51:09 GMT-0600 (Central Standard Time),282900.10000002384,CFD-BF-039-039-A.jpg,1200,solid,O,z,833,6,1,46068.30000001192,236831.80000001192,7064,ATS,A,20
21,test,1,A,haborder.png,1,m,Fri Feb 28 2025 17:51:09 GMT-0600 (Central Standard Time),285515.90000003576,CFD-WF-017-016-HC.jpg,1500,solid,O,m,1083,11,1,48684.10000002384,236831.80000001192,7064,ATS,A,21
22,test,1,A,haborder.png,1,m,Fri Feb 28 2025 17:51:09 GMT-0600 (Central Standard Time),287881.0,CFD-BM-029-026-HC.jpg,1500,solid,O,m,842,3,1,51049.19999998808,236831.80000001192,7064,ATS,A,22
23,test,1,A,haborder.png,1,z,Fri Feb 28 2025 17:51:09 GMT-0600 (Central Standard Time),289948.8000000119,CFD-BF-039-039-A.jpg,1200,solid,O,z,834,6,1,53117.0,236831.80000001192,7064,ATS,A,23
24,test,1,A,haborder.png,1,m,Fri Feb 28 2025 17:51:09 GMT-0600 (Central Standard Time),292871.6999999881,CFD-BF-028-020-HC.jpg,2000,solid,O,m,888,5,1,56039.89999997616,236831.80000001192,7064,ATS,A,24
1,test,1,B,mfborder.png,1,z,Fri Feb 28 2025 17:51:09 GMT-0600 (Central Standard Time),313776.0,CFD-BF-010-005-HC.jpg,1500,dash,O,z,849,3,1,2367.800000011921,311408.1999999881,7064,ATS,A,1
2,test,1,B,mfborder.png,1,z,Fri Feb 28 2025 17:51:09 GMT-0600 (Central Standard Time),315555.5,CFD-BF-023-013-A.jpg,1000,dash,O,z,742,4,1,4147.300000011921,311408.1999999881,7064,ATS,A,2
3,test,1,B,mfborder.png,1,m,Fri Feb 28 2025 17:51:09 GMT-0600 (Central Standard Time),317908.0,CFD-BM-010-019-A.jpg,1600,dash,O,m,737,2,1,6499.800000011921,311408.1999999881,7064,ATS,A,3
4,test,1,B,mfborder.png,1,m,Fri Feb 28 2025 17:51:09 GMT-0600 (Central Standard Time),320554.6999999881,CFD-BM-005-010-A.jpg,2000,dash,O,m,626,5,1,9146.5,311408.1999999881,7064,ATS,A,4
5,test,1,B,mfborder.png,1,m,Fri Feb 28 2025 17:51:09 GMT-0600 (Central Standard Time),322871.0,CFD-WM-019-013-A.jpg,1200,dash,O,m,1098,6,1,11462.800000011921,311408.1999999881,7064,ATS,A,5
6,test,1,B,mfborder.png,1,m,Fri Feb 28 2025 17:51:09 GMT-0600 (Central Standard Time),325470.40000003576,CFD-BM-005-010-A.jpg,2000,dash,O,m,575,5,1,14062.200000047684,311408.1999999881,7064,ATS,A,6
7,test,1,B,mfborder.png,1,z,Fri Feb 28 2025 17:51:09 GMT-0600 (Central Standard Time),327519.90000003576,CFD-BF-023-013-A.jpg,1000,dash,O,z,1022,4,1,16111.700000047684,311408.1999999881,7064,ATS,A,7
8,test,1,B,mfborder.png,1,m,Fri Feb 28 2025 17:51:09 GMT-0600 (Central Standard Time),329736.0,CFD-BM-010-019-A.jpg,1600,dash,O,m,588,2,1,18327.80000001192,311408.1999999881,7064,ATS,A,8
9,test,1,B,mfborder.png,1,m,Fri Feb 28 2025 17:51:09 GMT-0600 (Central Standard Time),332050.60000002384,CFD-WM-006-013-HC.jpg,1600,dash,O,m,692,10,1,20642.400000035763,311408.1999999881,7064,ATS,A,9
10,test,1,B,mfborder.png,1,z,Fri Feb 28 2025 17:51:09 GMT-0600 (Central Standard Time),334584.40000003576,CFD-WF-002-008-HC.jpg,1900,dash,O,z,604,8,1,23176.200000047684,311408.1999999881,7064,ATS,A,10
11,test,1,B,mfborder.png,1,m,Fri Feb 28 2025 17:51:09 GMT-0600 (Central Standard Time),336833.0,CFD-WM-006-013-HC.jpg,1600,dash,O,m,619,10,1,25424.80000001192,311408.1999999881,7064,ATS,A,11
12,test,1,B,mfborder.png,1,z,Fri Feb 28 2025 17:51:09 GMT-0600 (Central Standard Time),338398.8000000119,CFD-WF-017-016-HC.jpg,1000,dash,O,z,545,12,1,26990.600000023842,311408.1999999881,7064,ATS,A,12
13,test,1,B,mfborder.png,1,z,Fri Feb 28 2025 17:51:09 GMT-0600 (Central Standard Time),340515.5,CFD-WF-003-014-A.jpg,1500,dash,O,z,581,11,1,29107.30000001192,311408.1999999881,7064,ATS,A,13
14,test,1,B,mfborder.png,1,z,Fri Feb 28 2025 17:51:09 GMT-0600 (Central Standard Time),343731.60000002384,CFD-WF-002-008-HC.jpg,1900,dash,O,z,1284,8,1,32323.400000035763,311408.1999999881,7064,ATS,A,14
15,test,1,B,mfborder.png,1,m,Fri Feb 28 2025 17:51:09 GMT-0600 (Central Standard Time),345913.10000002384,CFD-WM-013-015-A.jpg,1700,dash,O,m,451,9,1,34504.90000003576,311408.1999999881,7064,ATS,A,15
15,test,1,B,mfborder.png,0,z,Fri Feb 28 2025 17:51:09 GMT-0600 (Central Standard Time),347963.0,CFD-WF-017-016-HC.jpg,1000,dash,O,m,1027,12,1,36554.80000001192,311408.1999999881,7064,ATS,A,16
16,test,1,B,mfborder.png,1,m,Fri Feb 28 2025 17:51:09 GMT-0600 (Central Standard Time),350545.90000003576,CFD-BM-029-026-HC.jpg,1700,dash,O,m,861,1,1,39137.700000047684,311408.1999999881,7064,ATS,A,17
17,test,1,B,mfborder.png,1,z,Fri Feb 28 2025 17:51:09 GMT-0600 (Central Standard Time),352711.6999999881,CFD-BF-010-005-HC.jpg,1500,dash,O,z,646,3,1,41303.5,311408.1999999881,7064,ATS,A,18
18,test,1,B,mfborder.png,1,m,Fri Feb 28 2025 17:51:09 GMT-0600 (Central Standard Time),354911.1999999881,CFD-WM-013-015-A.jpg,1700,dash,O,m,471,9,1,43503.0,311408.1999999881,7064,ATS,A,19
19,test,1,B,mfborder.png,1,z,Fri Feb 28 2025 17:51:09 GMT-0600 (Central Standard Time),357627.60000002384,CFD-WF-003-014-A.jpg,1500,dash,O,z,1192,11,1,46219.40000003576,311408.1999999881,7064,ATS,A,20
20,test,1,B,mfborder.png,1,m,Fri Feb 28 2025 17:51:09 GMT-0600 (Central Standard Time),360009.3000000119,CFD-BM-029-026-HC.jpg,1700,dash,O,m,658,1,1,48601.10000002384,311408.1999999881,7064,ATS,A,21
21,test,1,B,mfborder.png,1,z,Fri Feb 28 2025 17:51:09 GMT-0600 (Central Standard Time),362111.60000002384,CFD-BF-028-020-HC.jpg,1400,dash,O,z,684,7,1,50703.40000003576,311408.1999999881,7064,ATS,A,22
22,test,1,B,mfborder.png,1,m,Fri Feb 28 2025 17:51:09 GMT-0600 (Central Standard Time),364224.6999999881,CFD-WM-019-013-A.jpg,1200,dash,O,m,886,6,1,52816.5,311408.1999999881,7064,ATS,A,23
23,test,1,B,mfborder.png,1,z,Fri Feb 28 2025 17:51:09 GMT-0600 (Central Standard Time),366640.40000003576,CFD-BF-028-020-HC.jpg,1400,dash,O,z,987,7,1,55232.200000047684,311408.1999999881,7064,ATS,A,24
0,prac,1,C,haborder.png,0,z,Fri Feb 28 2025 17:51:09 GMT-0600 (Central Standard Time),489569.5,CFD-BF-039-039-A.jpg,1700,solid,O,None,1516,8,1,4000.199999988079,485569.3000000119,7064,ATS,A,1
1,prac,1,C,mfborder.png,1,m,Fri Feb 28 2025 17:51:09 GMT-0600 (Central Standard Time),493535.8000000119,CFD-WM-013-015-A.jpg,1700,solid,O,m,1472,6,1,7966.5,485569.3000000119,7064,ATS,A,2
1,prac,1,C,haborder.png,0,m,Fri Feb 28 2025 17:51:09 GMT-0600 (Central Standard Time),497216.40000003576,CFD-WM-004-005-HC.jpg,1400,solid,O,None,1513,12,1,11647.100000023842,485569.3000000119,7064,ATS,A,3
1,prac,1,C,haborder.png,0,m,Fri Feb 28 2025 17:51:09 GMT-0600 (Central Standard Time),500497.10000002384,CFD-WM-004-005-HC.jpg,1000,dash,O,None,1501,11,1,14927.800000011921,485569.3000000119,7064,ATS,A,4
2,prac,1,C,haborder.png,1,m,Fri Feb 28 2025 17:51:09 GMT-0600 (Central Standard Time),503765.1999999881,CFD-BM-029-026-HC.jpg,1500,solid,O,m,979,10,1,18195.899999976158,485569.3000000119,7064,ATS,A,5
2,prac,1,C,mfborder.png,0,z,Fri Feb 28 2025 17:51:09 GMT-0600 (Central Standard Time),507597.3000000119,CFD-WF-017-016-HC.jpg,1600,dash,O,m,1455,1,1,22028.0,485569.3000000119,7064,ATS,A,6
2,prac,1,C,haborder.png,0,z,Fri Feb 28 2025 17:51:09 GMT-0600 (Central Standard Time),511495.60000002384,CFD-WF-003-014-A.jpg,1600,dash,O,None,1514,9,1,25926.30000001192,485569.3000000119,7064,ATS,A,7
3,prac,1,C,mfborder.png,1,m,Fri Feb 28 2025 17:51:09 GMT-0600 (Central Standard Time),515529.0,CFD-BM-017-052-HC.jpg,2000,solid,O,m,1253,4,1,29959.69999998808,485569.3000000119,7064,ATS,A,8
3,prac,1,C,haborder.png,0,z,Fri Feb 28 2025 17:51:09 GMT-0600 (Central Standard Time),519726.3000000119,CFD-BF-023-013-A.jpg,1900,dash,O,None,1515,7,1,34157.0,485569.3000000119,7064,ATS,A,9
4,prac,1,C,mfborder.png,1,z,Fri Feb 28 2025 17:51:09 GMT-0600 (Central Standard Time),522925.40000003576,CFD-BF-028-020-HC.jpg,1000,dash,O,z,1430,3,1,37356.10000002384,485569.3000000119,7064,ATS,A,10
4,prac,1,C,mfborder.png,0,m,Fri Feb 28 2025 17:51:09 GMT-0600 (Central Standard Time),526407.9000000358,CFD-BM-005-010-A.jpg,1200,dash,O,None,1514,5,1,40838.60000002384,485569.3000000119,7064,ATS,A,11
5,prac,1,C,mfborder.png,1,z,Fri Feb 28 2025 17:51:09 GMT-0600 (Central Standard Time),529755.1000000238,CFD-WF-019-015-A.jpg,1500,solid,O,z,1068,2,1,44185.80000001192,485569.3000000119,7064,ATS,A,12
1,prac,2,C,haborder.png,1,z,Fri Feb 28 2025 17:51:09 GMT-0600 (Central Standard Time),538768.6999999881,CFD-BF-039-039-A.jpg,1700,solid,O,z,1151,8,1,53199.39999997616,485569.3000000119,7064,ATS,A,1
2,prac,2,C,mfborder.png,1,z,Fri Feb 28 2025 17:51:09 GMT-0600 (Central Standard Time),542003.0,CFD-BF-028-020-HC.jpg,1000,dash,O,z,1459,3,1,56433.69999998808,485569.3000000119,7064,ATS,A,2
3,prac,2,C,haborder.png,1,z,Fri Feb 28 2025 17:51:09 GMT-0600 (Central Standard Time),545785.1999999881,CFD-BF-023-013-A.jpg,1900,dash,O,z,1110,7,1,60215.89999997616,485569.3000000119,7064,ATS,A,3
4,prac,2,C,mfborder.png,1,z,Fri Feb 28 2025 17:51:09 GMT-0600 (Central Standard Time),549400.0,CFD-WF-017-016-HC.jpg,1600,dash,O,z,1245,1,1,63830.69999998808,485569.3000000119,7064,ATS,A,4
5,prac,2,C,mfborder.png,1,z,Fri Feb 28 2025 17:51:09 GMT-0600 (Central Standard Time),552649.5,CFD-WF-019-015-A.jpg,1500,solid,O,z,969,2,1,67080.19999998808,485569.3000000119,7064,ATS,A,5
6,prac,2,C,haborder.png,1,m,Fri Feb 28 2025 17:51:09 GMT-0600 (Central Standard Time),555398.4000000358,CFD-WM-004-005-HC.jpg,1000,dash,O,m,966,11,1,69829.10000002384,485569.3000000119,7064,ATS,A,6
7,prac,2,C,haborder.png,1,z,Fri Feb 28 2025 17:51:09 GMT-0600 (Central Standard Time),558847.4000000358,CFD-WF-003-014-A.jpg,1600,dash,O,z,1065,9,1,73278.10000002384,485569.3000000119,7064,ATS,A,7
8,prac,2,C,haborder.png,1,m,Fri Feb 28 2025 17:51:09 GMT-0600 (Central Standard Time),562128.4000000358,CFD-WM-004-005-HC.jpg,1400,solid,O,m,1095,12,1,76559.10000002384,485569.3000000119,7064,ATS,A,8
9,prac,2,C,mfborder.png,1,m,Fri Feb 28 2025 17:51:09 GMT-0600 (Central Standard Time),566078.4000000358,CFD-BM-017-052-HC.jpg,2000,solid,O,m,1165,4,1,80509.10000002384,485569.3000000119,7064,ATS,A,9
9,prac,2,C,mfborder.png,0,m,Fri Feb 28 2025 17:51:09 GMT-0600 (Central Standard Time),570059.1999999881,CFD-WM-013-015-A.jpg,1700,solid,O,None,1501,6,1,84489.89999997616,485569.3000000119,7064,ATS,A,10
10,prac,2,C,haborder.png,1,m,Fri Feb 28 2025 17:51:09 GMT-0600 (Central Standard Time),573440.6999999881,CFD-BM-029-026-HC.jpg,1500,solid,O,m,1084,10,1,87871.39999997616,485569.3000000119,7064,ATS,A,11
11,prac,2,C,mfborder.png,1,m,Fri Feb 28 2025 17:51:09 GMT-0600 (Central Standard Time),576658.6000000238,CFD-BM-005-010-A.jpg,1200,dash,O,m,1233,5,1,91089.30000001192,485569.3000000119,7064,ATS,A,12
1,test,1,C,haborder.png,1,m,Fri Feb 28 2025 17:51:09 GMT-0600 (Central Standard Time),606648.0,CFD-BF-028-020-HC.jpg,1600,solid,O,m,1204,10,1,2831.599999964237,603816.4000000358,7064,ATS,A,1
2,test,1,C,mfborder.png,1,m,Fri Feb 28 2025 17:51:09 GMT-0600 (Central Standard Time),609146.3000000119,CFD-BM-029-026-HC.jpg,1200,dash,O,m,1270,6,1,5329.899999976158,603816.4000000358,7064,ATS,A,2
3,test,1,C,haborder.png,1,m,Fri Feb 28 2025 17:51:09 GMT-0600 (Central Standard Time),611479.1000000238,CFD-WF-002-008-HC.jpg,1500,solid,O,m,805,11,1,7662.699999988079,603816.4000000358,7064,ATS,A,3
3,test,1,C,mfborder.png,0,m,Fri Feb 28 2025 17:51:09 GMT-0600 (Central Standard Time),614014.1000000238,CFD-WM-006-013-HC.jpg,1000,dash,O,None,1516,4,1,10197.699999988079,603816.4000000358,7064,ATS,A,4
4,test,1,C,mfborder.png,1,z,Fri Feb 28 2025 17:51:09 GMT-0600 (Central Standard Time),616712.5,CFD-BF-023-013-A.jpg,1600,dash,O,z,1084,2,1,12896.099999964237,603816.4000000358,7064,ATS,A,5
5,test,1,C,mfborder.png,1,z,Fri Feb 28 2025 17:51:09 GMT-0600 (Central Standard Time),619144.1000000238,CFD-BF-023-013-A.jpg,1600,dash,O,z,816,2,1,15327.699999988079,603816.4000000358,7064,ATS,A,6
6,test,1,C,mfborder.png,1,m,Fri Feb 28 2025 17:51:09 GMT-0600 (Central Standard Time),621975.1000000238,CFD-WM-019-013-A.jpg,2000,dash,O,m,813,5,1,18158.69999998808,603816.4000000358,7064,ATS,A,7
6,test,1,C,haborder.png,0,z,Fri Feb 28 2025 17:51:09 GMT-0600 (Central Standard Time),625073.8000000119,CFD-BM-010-019-A.jpg,1700,solid,O,m,1375,9,1,21257.399999976158,603816.4000000358,7064,ATS,A,8
7,test,1,C,mfborder.png,1,m,Fri Feb 28 2025 17:51:09 GMT-0600 (Central Standard Time),628008.1999999881,CFD-WM-019-013-A.jpg,2000,dash,O,m,906,5,1,24191.799999952316,603816.4000000358,7064,ATS,A,9
7,test,1,C,haborder.png,0,z,Fri Feb 28 2025 17:51:09 GMT-0600 (Central Standard Time),631439.1999999881,CFD-BM-005-010-A.jpg,1900,solid,O,None,1515,8,1,27622.799999952316,603816.4000000358,7064,ATS,A,10
8,test,1,C,mfborder.png,1,m,Fri Feb 28 2025 17:51:09 GMT-0600 (Central Standard Time),633705.8000000119,CFD-BM-029-026-HC.jpg,1200,dash,O,m,1045,6,1,29889.399999976158,603816.4000000358,7064,ATS,A,11
9,test,1,C,haborder.png,1,z,Fri Feb 28 2025 17:51:09 GMT-0600 (Central Standard Time),636205.1999999881,CFD-WM-013-015-A.jpg,1400,solid,O,z,1075,7,1,32388.799999952316,603816.4000000358,7064,ATS,A,12
10,test,1,C,mfborder.png,1,z,Fri Feb 28 2025 17:51:09 GMT-0600 (Central Standard Time),639121.3000000119,CFD-BF-010-005-HC.jpg,1700,dash,O,z,1196,1,1,35304.89999997616,603816.4000000358,7064,ATS,A,13
10,test,1,C,haborder.png,0,z,Fri Feb 28 2025 17:51:09 GMT-0600 (Central Standard Time),642069.8000000119,CFD-BM-005-010-A.jpg,1900,solid,O,m,1024,8,1,38253.39999997616,603816.4000000358,7064,ATS,A,14
11,test,1,C,mfborder.png,1,z,Fri Feb 28 2025 17:51:09 GMT-0600 (Central Standard Time),644918.6000000238,CFD-WF-003-014-A.jpg,1500,dash,O,z,1330,3,1,41102.19999998808,603816.4000000358,7064,ATS,A,15
12,test,1,C,mfborder.png,1,z,Fri Feb 28 2025 17:51:09 GMT-0600 (Central Standard Time),647550.4000000358,CFD-BF-010-005-HC.jpg,1700,dash,O,z,914,1,1,43734.0,603816.4000000358,7064,ATS,A,16
13,test,1,C,haborder.png,1,m,Fri Feb 28 2025 17:51:09 GMT-0600 (Central Standard Time),649535.1000000238,CFD-WF-017-016-HC.jpg,1000,solid,O,m,967,12,1,45718.69999998808,603816.4000000358,7064,ATS,A,17
14,test,1,C,haborder.png,1,z,Fri Feb 28 2025 17:51:09 GMT-0600 (Central Standard Time),652432.1000000238,CFD-BM-010-019-A.jpg,1700,solid,O,z,1176,9,1,48615.69999998808,603816.4000000358,7064,ATS,A,18
15,test,1,C,haborder.png,1,z,Fri Feb 28 2025 17:51:09 GMT-0600 (Central Standard Time),654983.4000000358,CFD-WM-013-015-A.jpg,1400,solid,O,z,1125,7,1,51167.0,603816.4000000358,7064,ATS,A,19
16,test,1,C,mfborder.png,1,m,Fri Feb 28 2025 17:51:09 GMT-0600 (Central Standard Time),656783.5,CFD-WM-006-013-HC.jpg,1000,dash,O,m,783,4,1,52967.09999996424,603816.4000000358,7064,ATS,A,20
16,test,1,C,haborder.png,0,m,Fri Feb 28 2025 17:51:09 GMT-0600 (Central Standard Time),659315.1000000238,CFD-WF-017-016-HC.jpg,1000,solid,O,None,1515,12,1,55498.69999998808,603816.4000000358,7064,ATS,A,21
16,test,1,C,mfborder.png,0,z,Fri Feb 28 2025 17:51:09 GMT-0600 (Central Standard Time),662347.1000000238,CFD-WF-003-014-A.jpg,1500,dash,O,None,1515,3,1,58530.69999998808,603816.4000000358,7064,ATS,A,22
17,test,1,C,haborder.png,1,m,Fri Feb 28 2025 17:51:09 GMT-0600 (Central Standard Time),664879.1999999881,CFD-WF-002-008-HC.jpg,1500,solid,O,m,1013,11,1,61062.799999952316,603816.4000000358,7064,ATS,A,23
17,test,1,C,haborder.png,0,m,Fri Feb 28 2025 17:51:09 GMT-0600 (Central Standard Time),667677.8000000119,CFD-BF-028-020-HC.jpg,1600,solid,O,z,1173,10,1,63861.39999997616,603816.4000000358,7064,ATS,A,24
1,test,2,C,haborder.png,1,m,Fri Feb 28 2025 17:51:09 GMT-0600 (Central Standard Time),674775.5,CFD-BM-029-026-HC.jpg,1600,solid,O,m,992,10,1,2615.399999976158,672160.1000000238,7064,ATS,A,1
2,test,2,C,mfborder.png,1,m,Fri Feb 28 2025 17:51:09 GMT-0600 (Central Standard Time),677927.3000000119,CFD-BM-005-010-A.jpg,2000,dash,O,m,1134,5,1,5767.199999988079,672160.1000000238,7064,ATS,A,2
3,test,2,C,mfborder.png,1,m,Fri Feb 28 2025 17:51:09 GMT-0600 (Central Standard Time),680424.1000000238,CFD-WM-013-015-A.jpg,1200,dash,O,m,1279,6,1,8264.0,672160.1000000238,7064,ATS,A,3
3,test,2,C,haborder.png,0,z,Fri Feb 28 2025 17:51:09 GMT-0600 (Central Standard Time),683855.6000000238,CFD-BF-039-039-A.jpg,1900,solid,O,None,1514,8,1,11695.5,672160.1000000238,7064,ATS,A,4
4,test,2,C,mfborder.png,1,z,Fri Feb 28 2025 17:51:09 GMT-0600 (Central Standard Time),686738.0,CFD-WF-019-015-A.jpg,1600,dash,O,z,1260,2,1,14577.899999976158,672160.1000000238,7064,ATS,A,5
5,test,2,C,haborder.png,1,z,Fri Feb 28 2025 17:51:09 GMT-0600 (Central Standard Time),689904.3000000119,CFD-WF-003-014-A.jpg,1700,solid,O,z,1435,9,1,17744.19999998808,672160.1000000238,7064,ATS,A,6
6,test,2,C,mfborder.png,1,z,Fri Feb 28 2025 17:51:09 GMT-0600 (Central Standard Time),692753.5,CFD-WF-019-015-A.jpg,1600,dash,O,z,1220,2,1,20593.399999976158,672160.1000000238,7064,ATS,A,7
7,test,2,C,mfborder.png,1,m,Fri Feb 28 2025 17:51:09 GMT-0600 (Central Standard Time),695753.1000000238,CFD-BM-005-010-A.jpg,2000,dash,O,m,970,5,1,23593.0,672160.1000000238,7064,ATS,A,8
8,test,2,C,mfborder.png,1,z,Fri Feb 28 2025 17:51:09 GMT-0600 (Central Standard Time),698452.6000000238,CFD-BF-028-020-HC.jpg,1500,dash,O,z,1176,3,1,26292.5,672160.1000000238,7064,ATS,A,9
9,test,2,C,haborder.png,1,m,Fri Feb 28 2025 17:51:09 GMT-0600 (Central Standard Time),700735.3000000119,CFD-WM-004-005-HC.jpg,1500,solid,O,m,767,11,1,28575.19999998808,672160.1000000238,7064,ATS,A,10
10,test,2,C,haborder.png,1,z,Fri Feb 28 2025 17:51:09 GMT-0600 (Central Standard Time),703284.0,CFD-BF-023-013-A.jpg,1400,solid,O,z,1117,7,1,31123.899999976158,672160.1000000238,7064,ATS,A,11
11,test,2,C,mfborder.png,1,m,Fri Feb 28 2025 17:51:09 GMT-0600 (Central Standard Time),705524.8000000119,CFD-WM-013-015-A.jpg,1200,dash,O,m,1017,6,1,33364.69999998808,672160.1000000238,7064,ATS,A,12
12,test,2,C,haborder.png,1,m,Fri Feb 28 2025 17:51:09 GMT-0600 (Central Standard Time),707482.1999999881,CFD-WM-004-005-HC.jpg,1000,solid,O,m,943,12,1,35322.09999996424,672160.1000000238,7064,ATS,A,13
13,test,2,C,haborder.png,1,m,Fri Feb 28 2025 17:51:09 GMT-0600 (Central Standard Time),710132.6999999881,CFD-BM-029-026-HC.jpg,1600,solid,O,m,1018,10,1,37972.59999996424,672160.1000000238,7064,ATS,A,14
14,test,2,C,mfborder.png,1,z,Fri Feb 28 2025 17:51:09 GMT-0600 (Central Standard Time),712714.3000000119,CFD-WF-017-016-HC.jpg,1700,dash,O,z,852,1,1,40554.19999998808,672160.1000000238,7064,ATS,A,15
15,test,2,C,mfborder.png,1,z,Fri Feb 28 2025 17:51:09 GMT-0600 (Central Standard Time),715181.0,CFD-BF-028-020-HC.jpg,1500,dash,O,z,943,3,1,43020.89999997616,672160.1000000238,7064,ATS,A,16
16,test,2,C,mfborder.png,1,z,Fri Feb 28 2025 17:51:09 GMT-0600 (Central Standard Time),717663.6000000238,CFD-WF-017-016-HC.jpg,1700,dash,O,z,767,1,1,45503.5,672160.1000000238,7064,ATS,A,17
17,test,2,C,mfborder.png,1,m,Fri Feb 28 2025 17:51:09 GMT-0600 (Central Standard Time),719543.8000000119,CFD-BM-017-052-HC.jpg,1000,dash,O,m,861,4,1,47383.69999998808,672160.1000000238,7064,ATS,A,18
18,test,2,C,haborder.png,1,m,Fri Feb 28 2025 17:51:09 GMT-0600 (Central Standard Time),721943.6999999881,CFD-WM-004-005-HC.jpg,1500,solid,O,m,881,11,1,49783.59999996424,672160.1000000238,7064,ATS,A,19
19,test,2,C,haborder.png,1,z,Fri Feb 28 2025 17:51:09 GMT-0600 (Central Standard Time),725044.8000000119,CFD-BF-039-039-A.jpg,1900,solid,O,z,1167,8,1,52884.69999998808,672160.1000000238,7064,ATS,A,20
20,test,2,C,mfborder.png,1,m,Fri Feb 28 2025 17:51:09 GMT-0600 (Central Standard Time),727510.9000000358,CFD-BM-017-052-HC.jpg,1000,dash,O,m,1448,4,1,55350.80000001192,672160.1000000238,7064,ATS,A,21
20,test,2,C,haborder.png,0,z,Fri Feb 28 2025 17:51:09 GMT-0600 (Central Standard Time),730742.4000000358,CFD-WF-003-014-A.jpg,1700,solid,O,None,1514,9,1,58582.30000001192,672160.1000000238,7064,ATS,A,22
21,test,2,C,haborder.png,1,m,Fri Feb 28 2025 17:51:09 GMT-0600 (Central Standard Time),732743.1999999881,CFD-WM-004-005-HC.jpg,1000,solid,O,m,983,12,1,60583.09999996424,672160.1000000238,7064,ATS,A,23
21,test,2,C,haborder.png,0,z,Fri Feb 28 2025 17:51:09 GMT-0600 (Central Standard Time),735589.6999999881,CFD-BF-023-013-A.jpg,1400,solid,O,m,1398,7,1,63429.59999996424,672160.1000000238,7064,ATS,A,24
1,test,3,C,mfborder.png,1,m,Fri Feb 28 2025 17:51:09 GMT-0600 (Central Standard Time),744938.4000000358,CFD-WM-019-013-A.jpg,2000,dash,O,m,1198,5,1,3233.900000035763,741704.5,7064,ATS,A,1
2,test,3,C,mfborder.png,1,m,Fri Feb 28 2025 17:51:09 GMT-0600 (Central Standard Time),746887.1999999881,CFD-WM-006-013-HC.jpg,1000,dash,O,m,923,4,1,5182.699999988079,741704.5,7064,ATS,A,2
3,test,3,C,haborder.png,1,m,Fri Feb 28 2025 17:51:09 GMT-0600 (Central Standard Time),749402.5,CFD-WF-002-008-HC.jpg,1500,solid,O,m,993,11,1,7698.0,741704.5,7064,ATS,A,3
3,test,3,C,haborder.png,0,z,Fri Feb 28 2025 17:51:09 GMT-0600 (Central Standard Time),751984.4000000358,CFD-WM-013-015-A.jpg,1400,solid,O,m,1153,7,1,10279.900000035763,741704.5,7064,ATS,A,4
4,test,3,C,mfborder.png,1,m,Fri Feb 28 2025 17:51:09 GMT-0600 (Central Standard Time),755016.9000000358,CFD-WM-019-013-A.jpg,2000,dash,O,m,1011,5,1,13312.400000035763,741704.5,7064,ATS,A,5
5,test,3,C,haborder.png,1,z,Fri Feb 28 2025 17:51:09 GMT-0600 (Central Standard Time),757833.8000000119,CFD-BM-005-010-A.jpg,1900,solid,O,z,891,8,1,16129.300000011921,741704.5,7064,ATS,A,6
5,test,3,C,haborder.png,0,m,Fri Feb 28 2025 17:51:09 GMT-0600 (Central Standard Time),760532.6999999881,CFD-BF-028-020-HC.jpg,1600,solid,O,z,1076,10,1,18828.19999998808,741704.5,7064,ATS,A,7
6,test,3,C,haborder.png,1,m,Fri Feb 28 2025 17:51:09 GMT-0600 (Central Standard Time),763114.4000000358,CFD-WF-002-008-HC.jpg,1500,solid,O,m,1058,11,1,21409.900000035763,741704.5,7064,ATS,A,8
7,test,3,C,mfborder.png,1,z,Fri Feb 28 2025 17:51:09 GMT-0600 (Central Standard Time),765613.9000000358,CFD-WF-003-014-A.jpg,1500,dash,O,z,974,3,1,23909.400000035763,741704.5,7064,ATS,A,9
7,test,3,C,haborder.png,0,z,Fri Feb 28 2025 17:51:09 GMT-0600 (Central Standard Time),768662.4000000358,CFD-BM-010-019-A.jpg,1700,solid,O,m,1331,9,1,26957.900000035763,741704.5,7064,ATS,A,10
8,test,3,C,mfborder.png,1,z,Fri Feb 28 2025 17:51:09 GMT-0600 (Central Standard Time),771480.6000000238,CFD-BF-010-005-HC.jpg,1700,dash,O,z,1100,1,1,29776.100000023842,741704.5,7064,ATS,A,11
9,test,3,C,mfborder.png,1,z,Fri Feb 28 2025 17:51:09 GMT-0600 (Central Standard Time),774046.3000000119,CFD-WF-003-014-A.jpg,1500,dash,O,z,1039,3,1,32341.80000001192,741704.5,7064,ATS,A,12
10,test,3,C,mfborder.png,1,m,Fri Feb 28 2025 17:51:09 GMT-0600 (Central Standard Time),776028.1999999881,CFD-WM-006-013-HC.jpg,1000,dash,O,m,960,4,1,34323.69999998808,741704.5,7064,ATS,A,13
10,test,3,C,haborder.png,0,z,Fri Feb 28 2025 17:51:09 GMT-0600 (Central Standard Time),779460.1999999881,CFD-BM-005-010-A.jpg,1900,solid,O,None,1515,8,1,37755.69999998808,741704.5,7064,ATS,A,14
11,test,3,C,haborder.png,1,z,Fri Feb 28 2025 17:51:09 GMT-0600 (Central Standard Time),782309.5,CFD-WM-013-015-A.jpg,1400,solid,O,z,1414,7,1,40605.0,741704.5,7064,ATS,A,15
11,test,3,C,mfborder.png,0,m,Fri Feb 28 2025 17:51:09 GMT-0600 (Central Standard Time),785040.8000000119,CFD-BM-029-026-HC.jpg,1200,dash,O,None,1515,6,1,43336.30000001192,741704.5,7064,ATS,A,16
12,test,3,C,mfborder.png,1,z,Fri Feb 28 2025 17:51:09 GMT-0600 (Central Standard Time),787772.8000000119,CFD-BF-023-013-A.jpg,1600,dash,O,z,1107,2,1,46068.30000001192,741704.5,7064,ATS,A,17
12,test,3,C,haborder.png,0,m,Fri Feb 28 2025 17:51:09 GMT-0600 (Central Standard Time),790905.5,CFD-BF-028-020-HC.jpg,1600,solid,O,None,1513,10,1,49201.0,741704.5,7064,ATS,A,18
12,test,3,C,haborder.png,0,m,Fri Feb 28 2025 17:51:09 GMT-0600 (Central Standard Time),793439.6999999881,CFD-WF-017-016-HC.jpg,1000,solid,O,None,1519,12,1,51735.19999998808,741704.5,7064,ATS,A,19
12,test,3,C,haborder.png,0,m,Fri Feb 28 2025 17:51:09 GMT-0600 (Central Standard Time),795971.3000000119,CFD-WF-017-016-HC.jpg,1000,solid,O,None,1507,12,1,54266.80000001192,741704.5,7064,ATS,A,20
13,test,3,C,haborder.png,1,z,Fri Feb 28 2025 17:51:09 GMT-0600 (Central Standard Time),798938.1000000238,CFD-BM-010-019-A.jpg,1700,solid,O,z,1239,9,1,57233.60000002384,741704.5,7064,ATS,A,21
14,test,3,C,mfborder.png,1,z,Fri Feb 28 2025 17:51:09 GMT-0600 (Central Standard Time),801335.6000000238,CFD-BF-023-013-A.jpg,1600,dash,O,z,764,2,1,59631.10000002384,741704.5,7064,ATS,A,22
15,test,3,C,mfborder.png,1,z,Fri Feb 28 2025 17:51:09 GMT-0600 (Central Standard Time),804068.5,CFD-BF-010-005-HC.jpg,1700,dash,O,z,1008,1,1,62364.0,741704.5,7064,ATS,A,23
16,test,3,C,mfborder.png,1,m,Fri Feb 28 2025 17:51:09 GMT-0600 (Central Standard Time),806250.5,CFD-BM-029-026-HC.jpg,1200,dash,O,m,950,6,1,64546.0,741704.5,7064,ATS,A,24
1,test,4,C,haborder.png,1,z,Fri Feb 28 2025 17:51:09 GMT-0600 (Central Standard Time),813632.9000000358,CFD-BF-039-039-A.jpg,1900,solid,O,z,1079,8,1,3017.600000023842,810615.3000000119,7064,ATS,A,1
2,test,4,C,mfborder.png,1,z,Fri Feb 28 2025 17:51:09 GMT-0600 (Central Standard Time),816497.5,CFD-WF-019-015-A.jpg,1600,dash,O,z,1245,2,1,5882.199999988079,810615.3000000119,7064,ATS,A,2
3,test,4,C,haborder.png,1,z,Fri Feb 28 2025 17:51:09 GMT-0600 (Central Standard Time),819413.0,CFD-BF-039-039-A.jpg,1900,solid,O,z,989,8,1,8797.699999988079,810615.3000000119,7064,ATS,A,3
4,test,4,C,haborder.png,1,m,Fri Feb 28 2025 17:51:09 GMT-0600 (Central Standard Time),821546.5,CFD-WM-004-005-HC.jpg,1000,solid,O,m,1110,12,1,10931.199999988079,810615.3000000119,7064,ATS,A,4
5,test,4,C,mfborder.png,1,m,Fri Feb 28 2025 17:51:09 GMT-0600 (Central Standard Time),824446.5,CFD-BM-005-010-A.jpg,2000,dash,O,m,883,5,1,13831.199999988079,810615.3000000119,7064,ATS,A,5
6,test,4,C,mfborder.png,1,z,Fri Feb 28 2025 17:51:09 GMT-0600 (Central Standard Time),826712.5,CFD-BF-028-020-HC.jpg,1500,dash,O,z,750,3,1,16097.199999988079,810615.3000000119,7064,ATS,A,6
7,test,4,C,mfborder.png,1,z,Fri Feb 28 2025 17:51:09 GMT-0600 (Central Standard Time),829476.4000000358,CFD-WF-017-016-HC.jpg,1700,dash,O,z,1040,1,1,18861.100000023842,810615.3000000119,7064,ATS,A,7
8,test,4,C,mfborder.png,1,z,Fri Feb 28 2025 17:51:09 GMT-0600 (Central Standard Time),831894.6999999881,CFD-BF-028-020-HC.jpg,1500,dash,O,z,899,3,1,21279.399999976158,810615.3000000119,7064,ATS,A,8
9,test,4,C,haborder.png,1,z,Fri Feb 28 2025 17:51:09 GMT-0600 (Central Standard Time),834874.5,CFD-WF-003-014-A.jpg,1700,solid,O,z,1250,9,1,24259.19999998808,810615.3000000119,7064,ATS,A,9
10,test,4,C,haborder.png,1,z,Fri Feb 28 2025 17:51:09 GMT-0600 (Central Standard Time),837507.8000000119,CFD-BF-023-013-A.jpg,1400,solid,O,z,1200,7,1,26892.5,810615.3000000119,7064,ATS,A,10
11,test,4,C,haborder.png,1,m,Fri Feb 28 2025 17:51:09 GMT-0600 (Central Standard Time),840106.6000000238,CFD-BM-029-026-HC.jpg,1600,solid,O,m,965,10,1,29491.30000001192,810615.3000000119,7064,ATS,A,11
12,test,4,C,mfborder.png,1,m,Fri Feb 28 2025 17:51:09 GMT-0600 (Central Standard Time),841972.3000000119,CFD-BM-017-052-HC.jpg,1000,dash,O,m,842,4,1,31357.0,810615.3000000119,7064,ATS,A,12
13,test,4,C,mfborder.png,1,z,Fri Feb 28 2025 17:51:09 GMT-0600 (Central Standard Time),844505.6999999881,CFD-WF-017-016-HC.jpg,1700,dash,O,z,803,1,1,33890.39999997616,810615.3000000119,7064,ATS,A,13
14,test,4,C,haborder.png,1,m,Fri Feb 28 2025 17:51:09 GMT-0600 (Central Standard Time),846837.6999999881,CFD-WM-004-005-HC.jpg,1500,solid,O,m,806,11,1,36222.39999997616,810615.3000000119,7064,ATS,A,14
15,test,4,C,haborder.png,1,m,Fri Feb 28 2025 17:51:09 GMT-0600 (Central Standard Time),849236.8000000119,CFD-WM-004-005-HC.jpg,1500,solid,O,m,875,11,1,38621.5,810615.3000000119,7064,ATS,A,15
16,test,4,C,haborder.png,1,z,Fri Feb 28 2025 17:51:09 GMT-0600 (Central Standard Time),851837.0,CFD-BF-023-013-A.jpg,1400,solid,O,z,1166,7,1,41221.69999998808,810615.3000000119,7064,ATS,A,16
17,test,4,C,mfborder.png,1,m,Fri Feb 28 2025 17:51:09 GMT-0600 (Central Standard Time),854437.1999999881,CFD-WM-013-015-A.jpg,1200,dash,O,m,1376,6,1,43821.89999997616,810615.3000000119,7064,ATS,A,17
18,test,4,C,mfborder.png,1,m,Fri Feb 28 2025 17:51:09 GMT-0600 (Central Standard Time),856253.6000000238,CFD-BM-017-052-HC.jpg,1000,dash,O,m,789,4,1,45638.30000001192,810615.3000000119,7064,ATS,A,18
19,test,4,C,haborder.png,1,z,Fri Feb 28 2025 17:51:09 GMT-0600 (Central Standard Time),858818.0,CFD-WF-003-014-A.jpg,1700,solid,O,z,836,9,1,48202.69999998808,810615.3000000119,7064,ATS,A,19
20,test,4,C,mfborder.png,1,z,Fri Feb 28 2025 17:51:09 GMT-0600 (Central Standard Time),861183.0,CFD-WF-019-015-A.jpg,1600,dash,O,z,747,2,1,50567.69999998808,810615.3000000119,7064,ATS,A,20
21,test,4,C,mfborder.png,1,m,Fri Feb 28 2025 17:51:09 GMT-0600 (Central Standard Time),864450.9000000358,CFD-BM-005-010-A.jpg,2000,dash,O,m,1238,5,1,53835.60000002384,810615.3000000119,7064,ATS,A,21
22,test,4,C,mfborder.png,1,m,Fri Feb 28 2025 17:51:09 GMT-0600 (Central Standard Time),866698.6999999881,CFD-WM-013-015-A.jpg,1200,dash,O,m,1017,6,1,56083.39999997616,810615.3000000119,7064,ATS,A,22
23,test,4,C,haborder.png,1,m,Fri Feb 28 2025 17:51:09 GMT-0600 (Central Standard Time),868714.3000000119,CFD-WM-004-005-HC.jpg,1000,solid,O,m,983,12,1,58099.0,810615.3000000119,7064,ATS,A,23
24,test,4,C,haborder.png,1,m,Fri Feb 28 2025 17:51:09 GMT-0600 (Central Standard Time),871262.6999999881,CFD-BM-029-026-HC.jpg,1600,solid,O,m,920,10,1,60647.39999997616,810615.3000000119,7064,ATS,A,24
