acc_sum,block,block_c,change,condition,correct,correct_response,datetime,endtime,face,project,response,response_time,row_sel,session_number,start_end,starttime,subject_id,task,task_vers,trial
0,prac,1,,1-Back,,,Wed Apr 30 2025 13:16:38 GMT-0500 (Central Daylight Time),,012_o_f_d_a.png,O,space,2010,1,1,,,7134,VNB,C,0
1,prac,1,0.0,1-Back,1,m,Wed Apr 30 2025 13:16:38 GMT-0500 (Central Daylight Time),101659.5,022_y_f_n_a.png,O,m,1159,2,1,2031.1000000238419,99628.39999997616,7134,VNB,C,1
2,prac,1,0.0,1-Back,1,m,Wed Apr 30 2025 13:16:38 GMT-0500 (Central Daylight Time),104191.59999990463,014_m_m_h_a.png,O,m,1630,3,1,2500.1999999284744,101691.39999997616,7134,VNB,C,2
3,prac,1,0.0,1-Back,1,m,Wed Apr 30 2025 13:16:38 GMT-0500 (Central Daylight Time),106008.5,025_y_m_d_a.png,O,m,942,4,1,1782.9000000953674,104225.59999990463,7134,VNB,C,3
4,prac,1,0.0,1-Back,1,m,Wed Apr 30 2025 13:16:38 GMT-0500 (Central Daylight Time),107792.0,012_o_f_n_a.png,O,m,896,5,1,1754.9000000953674,106037.09999990463,7134,VNB,C,4
5,prac,1,1.0,1-Back,1,z,Wed Apr 30 2025 13:16:38 GMT-0500 (Central Daylight Time),109540.19999992847,025_y_m_n_a.png,O,z,851,6,1,1714.6999999284744,107825.5,7134,VNB,C,5
6,prac,1,0.0,1-Back,1,m,Wed Apr 30 2025 13:16:38 GMT-0500 (Central Daylight Time),111522.09999990463,015_o_m_h_a.png,O,m,1077,7,1,1947.5999999046326,109574.5,7134,VNB,C,6
7,prac,1,0.0,1-Back,1,m,Wed Apr 30 2025 13:16:38 GMT-0500 (Central Daylight Time),113572.79999995232,019_m_f_d_a.png,O,m,1132,8,1,2018.7999999523163,111554.0,7134,VNB,C,7
8,prac,1,1.0,1-Back,1,z,Wed Apr 30 2025 13:16:38 GMT-0500 (Central Daylight Time),116401.59999990463,022_y_f_d_a.png,O,z,1917,9,1,2797.899999976158,113603.69999992847,7134,VNB,C,8
9,prac,1,0.0,1-Back,1,m,Wed Apr 30 2025 13:16:38 GMT-0500 (Central Daylight Time),118186.59999990463,014_m_m_n_a.png,O,m,907,10,1,1752.3999999761581,116434.19999992847,7134,VNB,C,9
10,prac,1,0.0,1-Back,1,m,Wed Apr 30 2025 13:16:38 GMT-0500 (Central Daylight Time),120770.5,012_o_f_h_a.png,O,m,1687,11,1,2549.5,118221.0,7134,VNB,C,10
11,prac,1,0.0,1-Back,1,m,Wed Apr 30 2025 13:16:38 GMT-0500 (Central Daylight Time),123252.59999990463,025_y_m_d_a.png,O,m,1600,12,1,2450.0,120802.59999990463,7134,VNB,C,11
0,test,1,0.0,1-Back,,,Wed Apr 30 2025 13:16:38 GMT-0500 (Central Daylight Time),123252.59999990463,022_y_f_d_a.png,O,space,1488,1,1,2450.0,120802.59999990463,7134,VNB,C,0
1,test,1,0.0,1-Back,1,m,Wed Apr 30 2025 13:16:38 GMT-0500 (Central Daylight Time),134680.89999997616,019_m_f_n_a.png,O,m,883,2,1,1900.1000000238419,132780.79999995232,7134,VNB,C,1
2,test,1,0.0,1-Back,1,m,Wed Apr 30 2025 13:16:38 GMT-0500 (Central Daylight Time),136747.0,015_o_m_h_a.png,O,m,1021,3,1,2032.3000000715256,134714.69999992847,7134,VNB,C,2
3,test,1,1.0,1-Back,1,z,Wed Apr 30 2025 13:16:38 GMT-0500 (Central Daylight Time),138513.29999995232,014_m_m_h_a.png,O,z,718,4,1,1736.7000000476837,136776.59999990463,7134,VNB,C,3
4,test,1,0.0,1-Back,1,m,Wed Apr 30 2025 13:16:38 GMT-0500 (Central Daylight Time),140213.79999995232,012_o_f_n_a.png,O,m,665,5,1,1670.0,138543.79999995232,7134,VNB,C,4
5,test,1,0.0,1-Back,1,m,Wed Apr 30 2025 13:16:38 GMT-0500 (Central Daylight Time),142013.89999997616,025_y_m_d_a.png,O,m,751,6,1,1773.0,140240.89999997616,7134,VNB,C,5
6,test,1,1.0,1-Back,1,z,Wed Apr 30 2025 13:16:38 GMT-0500 (Central Daylight Time),144045.09999990463,019_m_f_d_a.png,O,z,982,7,1,2001.0,142044.09999990463,7134,VNB,C,6
7,test,1,0.0,1-Back,1,m,Wed Apr 30 2025 13:16:38 GMT-0500 (Central Daylight Time),145959.0,022_y_f_h_a.png,O,m,849,8,1,1881.1000000238419,144077.89999997616,7134,VNB,C,7
8,test,1,0.0,1-Back,1,m,Wed Apr 30 2025 13:16:38 GMT-0500 (Central Daylight Time),147643.29999995232,015_o_m_n_a.png,O,m,634,9,1,1652.5,145990.79999995232,7134,VNB,C,8
9,test,1,0.0,1-Back,1,m,Wed Apr 30 2025 13:16:38 GMT-0500 (Central Daylight Time),149592.0,025_y_m_h_a.png,O,m,908,10,1,1917.9000000953674,147674.09999990463,7134,VNB,C,9
10,test,1,0.0,1-Back,1,m,Wed Apr 30 2025 13:16:38 GMT-0500 (Central Daylight Time),151493.09999990463,015_o_m_d_a.png,O,m,850,11,1,1870.0999999046326,149623.0,7134,VNB,C,10
11,test,1,1.0,1-Back,1,z,Wed Apr 30 2025 13:16:38 GMT-0500 (Central Daylight Time),153492.09999990463,012_o_f_d_a.png,O,z,950,12,1,1968.0999999046326,151524.0,7134,VNB,C,11
12,test,1,0.0,1-Back,1,m,Wed Apr 30 2025 13:16:38 GMT-0500 (Central Daylight Time),155224.39999997616,014_m_m_n_a.png,O,m,676,13,1,1698.5,153525.89999997616,7134,VNB,C,12
13,test,1,1.0,1-Back,1,z,Wed Apr 30 2025 13:16:38 GMT-0500 (Central Daylight Time),157391.29999995232,022_y_f_n_a.png,O,z,1127,14,1,2136.399999976158,155254.89999997616,7134,VNB,C,13
14,test,1,0.0,1-Back,1,m,Wed Apr 30 2025 13:16:38 GMT-0500 (Central Daylight Time),159489.09999990463,019_m_f_h_a.png,O,m,1057,15,1,2070.0,157419.09999990463,7134,VNB,C,14
15,test,1,0.0,1-Back,1,m,Wed Apr 30 2025 13:16:38 GMT-0500 (Central Daylight Time),161371.59999990463,014_m_m_d_a.png,O,m,846,16,1,1853.6999999284744,159517.89999997616,7134,VNB,C,15
16,test,1,0.0,1-Back,1,m,Wed Apr 30 2025 13:16:38 GMT-0500 (Central Daylight Time),163055.19999992847,025_y_m_n_a.png,O,m,644,17,1,1652.8999999761581,161402.29999995232,7134,VNB,C,16
17,test,1,0.0,1-Back,1,m,Wed Apr 30 2025 13:16:38 GMT-0500 (Central Daylight Time),164954.59999990463,012_o_f_h_a.png,O,m,850,18,1,1869.1999999284744,163085.39999997616,7134,VNB,C,17
0,test,2,0.0,1-Back,,,Wed Apr 30 2025 13:16:38 GMT-0500 (Central Daylight Time),164954.59999990463,025_y_m_n_a.png,O,space,1471,1,1,1869.1999999284744,163085.39999997616,7134,VNB,C,0
1,test,2,0.0,1-Back,1,m,Wed Apr 30 2025 13:16:38 GMT-0500 (Central Daylight Time),170502.19999992847,022_y_f_h_a.png,O,m,994,2,1,2015.3999999761581,168486.79999995232,7134,VNB,C,1
2,test,2,1.0,1-Back,1,m,Wed Apr 30 2025 13:16:38 GMT-0500 (Central Daylight Time),172418.69999992847,015_o_m_n_a.png,O,m,867,3,1,1887.2999999523163,170531.39999997616,7134,VNB,C,2
3,test,2,0.0,1-Back,1,m,Wed Apr 30 2025 13:16:38 GMT-0500 (Central Daylight Time),174184.09999990463,019_m_f_d_a.png,O,m,725,4,1,1734.1999999284744,172449.89999997616,7134,VNB,C,3
3,test,2,0.0,1-Back,0,z,Wed Apr 30 2025 13:16:38 GMT-0500 (Central Daylight Time),176435.39999997616,014_m_m_d_a.png,O,m,1199,5,1,2221.0,174214.39999997616,7134,VNB,C,4
4,test,2,0.0,1-Back,1,m,Wed Apr 30 2025 13:16:38 GMT-0500 (Central Daylight Time),178749.69999992847,025_y_m_h_a.png,O,m,1278,6,1,2283.600000023842,176466.09999990463,7134,VNB,C,5
5,test,2,1.0,1-Back,1,z,Wed Apr 30 2025 13:16:38 GMT-0500 (Central Daylight Time),180582.59999990463,012_o_f_h_a.png,O,z,785,7,1,1803.7999999523163,178778.79999995232,7134,VNB,C,6
6,test,2,0.0,1-Back,1,m,Wed Apr 30 2025 13:16:38 GMT-0500 (Central Daylight Time),182332.69999992847,019_m_f_n_a.png,O,m,682,8,1,1716.5,180616.19999992847,7134,VNB,C,7
7,test,2,0.0,1-Back,1,m,Wed Apr 30 2025 13:16:38 GMT-0500 (Central Daylight Time),184197.79999995232,022_y_f_d_a.png,O,m,819,9,1,1838.0,182359.79999995232,7134,VNB,C,8
8,test,2,0.0,1-Back,1,m,Wed Apr 30 2025 13:16:38 GMT-0500 (Central Daylight Time),185882.5,014_m_m_n_a.png,O,m,635,10,1,1653.1000000238419,184229.39999997616,7134,VNB,C,9
9,test,2,1.0,1-Back,1,m,Wed Apr 30 2025 13:16:38 GMT-0500 (Central Daylight Time),187764.5,019_m_f_h_a.png,O,m,849,11,1,1853.4000000953674,185911.09999990463,7134,VNB,C,10
10,test,2,0.0,1-Back,1,z,Wed Apr 30 2025 13:16:38 GMT-0500 (Central Daylight Time),189662.89999997616,015_o_m_h_a.png,O,z,851,12,1,1866.8999999761581,187796.0,7134,VNB,C,11
11,test,2,0.0,1-Back,1,m,Wed Apr 30 2025 13:16:38 GMT-0500 (Central Daylight Time),191429.19999992847,025_y_m_d_a.png,O,m,702,13,1,1732.7999999523163,189696.39999997616,7134,VNB,C,12
12,test,2,0.0,1-Back,1,m,Wed Apr 30 2025 13:16:38 GMT-0500 (Central Daylight Time),193195.39999997616,012_o_f_n_a.png,O,m,716,14,1,1734.7000000476837,191460.69999992847,7134,VNB,C,13
12,test,2,0.0,1-Back,0,z,Wed Apr 30 2025 13:16:38 GMT-0500 (Central Daylight Time),195344.59999990463,022_y_f_n_a.png,O,m,1092,15,1,2118.5,193226.09999990463,7134,VNB,C,14
13,test,2,1.0,1-Back,1,m,Wed Apr 30 2025 13:16:38 GMT-0500 (Central Daylight Time),197194.0,014_m_m_h_a.png,O,m,807,16,1,1821.9000000953674,195372.09999990463,7134,VNB,C,15
14,test,2,0.0,1-Back,1,m,Wed Apr 30 2025 13:16:38 GMT-0500 (Central Daylight Time),199244.69999992847,012_o_f_d_a.png,O,m,1014,17,1,2021.1999999284744,197223.5,7134,VNB,C,16
14,test,2,1.0,1-Back,0,z,Wed Apr 30 2025 13:16:38 GMT-0500 (Central Daylight Time),201228.29999995232,015_o_m_d_a.png,O,m,935,18,1,1953.3999999761581,199274.89999997616,7134,VNB,C,17
0,test,3,1.0,1-Back,,,Wed Apr 30 2025 13:16:38 GMT-0500 (Central Daylight Time),201228.29999995232,012_o_f_h_a.png,O,space,1846,1,1,1953.3999999761581,199274.89999997616,7134,VNB,C,0
1,test,3,0.0,1-Back,1,m,Wed Apr 30 2025 13:16:38 GMT-0500 (Central Daylight Time),206857.69999992847,019_m_f_d_a.png,O,m,624,2,1,1635.3999999761581,205222.29999995232,7134,VNB,C,1
2,test,3,1.0,1-Back,1,m,Wed Apr 30 2025 13:16:38 GMT-0500 (Central Daylight Time),208623.69999992847,014_m_m_n_a.png,O,m,726,3,1,1739.6000000238419,206884.09999990463,7134,VNB,C,2
3,test,3,0.0,1-Back,1,z,Wed Apr 30 2025 13:16:38 GMT-0500 (Central Daylight Time),210673.0,012_o_f_n_a.png,O,z,999,4,1,2020.7000000476837,208652.29999995232,7134,VNB,C,3
4,test,3,1.0,1-Back,1,m,Wed Apr 30 2025 13:16:38 GMT-0500 (Central Daylight Time),212372.69999992847,015_o_m_d_a.png,O,m,655,5,1,1670.1000000238419,210702.59999990463,7134,VNB,C,4
5,test,3,0.0,1-Back,1,m,Wed Apr 30 2025 13:16:38 GMT-0500 (Central Daylight Time),214072.0,022_y_f_h_a.png,O,m,650,6,1,1668.5,212403.5,7134,VNB,C,5
6,test,3,0.0,1-Back,1,z,Wed Apr 30 2025 13:16:38 GMT-0500 (Central Daylight Time),215788.79999995232,025_y_m_h_a.png,O,z,670,7,1,1687.1000000238419,214101.69999992847,7134,VNB,C,6
7,test,3,0.0,1-Back,1,m,Wed Apr 30 2025 13:16:38 GMT-0500 (Central Daylight Time),217433.89999997616,019_m_f_n_a.png,O,m,611,8,1,1613.8000000715256,215820.09999990463,7134,VNB,C,7
8,test,3,0.0,1-Back,1,m,Wed Apr 30 2025 13:16:38 GMT-0500 (Central Daylight Time),219387.79999995232,022_y_f_d_a.png,O,m,908,9,1,1926.3999999761581,217461.39999997616,7134,VNB,C,8
9,test,3,1.0,1-Back,1,m,Wed Apr 30 2025 13:16:38 GMT-0500 (Central Daylight Time),221137.5,015_o_m_n_a.png,O,m,684,10,1,1716.8000000715256,219420.69999992847,7134,VNB,C,9
10,test,3,0.0,1-Back,1,m,Wed Apr 30 2025 13:16:38 GMT-0500 (Central Daylight Time),223186.59999990463,014_m_m_h_a.png,O,m,999,11,1,2016.5999999046326,221170.0,7134,VNB,C,10
11,test,3,0.0,1-Back,1,z,Wed Apr 30 2025 13:16:38 GMT-0500 (Central Daylight Time),225101.79999995232,019_m_f_h_a.png,O,z,861,12,1,1881.8999999761581,223219.89999997616,7134,VNB,C,11
12,test,3,1.0,1-Back,1,m,Wed Apr 30 2025 13:16:38 GMT-0500 (Central Daylight Time),226768.89999997616,012_o_f_d_a.png,O,m,627,13,1,1643.2000000476837,225125.69999992847,7134,VNB,C,12
13,test,3,0.0,1-Back,1,z,Wed Apr 30 2025 13:16:38 GMT-0500 (Central Daylight Time),228969.29999995232,014_m_m_d_a.png,O,z,1160,14,1,2169.7999999523163,226799.5,7134,VNB,C,13
14,test,3,0.0,1-Back,1,m,Wed Apr 30 2025 13:16:38 GMT-0500 (Central Daylight Time),230701.19999992847,025_y_m_n_a.png,O,m,670,15,1,1696.5,229004.69999992847,7134,VNB,C,14
14,test,3,1.0,1-Back,0,m,Wed Apr 30 2025 13:16:38 GMT-0500 (Central Daylight Time),232516.69999992847,015_o_m_h_a.png,O,z,770,16,1,1784.0,230732.69999992847,7134,VNB,C,15
15,test,3,0.0,1-Back,1,m,Wed Apr 30 2025 13:16:38 GMT-0500 (Central Daylight Time),234216.79999995232,025_y_m_d_a.png,O,m,660,17,1,1670.7000000476837,232546.09999990463,7134,VNB,C,16
16,test,3,1.0,1-Back,1,m,Wed Apr 30 2025 13:16:38 GMT-0500 (Central Daylight Time),235933.59999990463,022_y_f_n_a.png,O,m,665,18,1,1683.3999999761581,234250.19999992847,7134,VNB,C,17
0,test,4,1.0,1-Back,,,Wed Apr 30 2025 13:16:38 GMT-0500 (Central Daylight Time),235933.59999990463,014_m_m_d_a.png,O,space,1123,1,1,1683.3999999761581,234250.19999992847,7134,VNB,C,0
1,test,4,0.0,1-Back,1,z,Wed Apr 30 2025 13:16:38 GMT-0500 (Central Daylight Time),241164.79999995232,015_o_m_d_a.png,O,z,1048,2,1,2054.5,239110.29999995232,7134,VNB,C,1
2,test,4,0.0,1-Back,1,m,Wed Apr 30 2025 13:16:38 GMT-0500 (Central Daylight Time),242947.29999995232,025_y_m_h_a.png,O,m,734,3,1,1763.3999999761581,241183.89999997616,7134,VNB,C,2
3,test,4,0.0,1-Back,1,m,Wed Apr 30 2025 13:16:38 GMT-0500 (Central Daylight Time),244780.0,019_m_f_n_a.png,O,m,768,4,1,1798.8000000715256,242981.19999992847,7134,VNB,C,3
3,test,4,1.0,1-Back,0,m,Wed Apr 30 2025 13:16:38 GMT-0500 (Central Daylight Time),247828.89999997616,012_o_f_h_a.png,O,None,2016,5,1,3019.399999976158,244809.5,7134,VNB,C,4
3,test,4,0.0,1-Back,0,m,Wed Apr 30 2025 13:16:38 GMT-0500 (Central Daylight Time),249794.39999997616,014_m_m_n_a.png,O,z,909,6,1,1932.5,247861.89999997616,7134,VNB,C,5
4,test,4,0.0,1-Back,1,m,Wed Apr 30 2025 13:16:38 GMT-0500 (Central Daylight Time),251710.0,025_y_m_d_a.png,O,m,868,7,1,1884.8000000715256,249825.19999992847,7134,VNB,C,6
5,test,4,1.0,1-Back,1,z,Wed Apr 30 2025 13:16:38 GMT-0500 (Central Daylight Time),254027.19999992847,022_y_f_d_a.png,O,z,1252,8,1,2284.6999999284744,251742.5,7134,VNB,C,7
6,test,4,0.0,1-Back,1,m,Wed Apr 30 2025 13:16:38 GMT-0500 (Central Daylight Time),256126.19999992847,019_m_f_h_a.png,O,m,1039,9,1,2066.600000023842,254059.59999990463,7134,VNB,C,8
7,test,4,0.0,1-Back,1,z,Wed Apr 30 2025 13:16:38 GMT-0500 (Central Daylight Time),257909.29999995232,015_o_m_h_a.png,O,z,750,10,1,1751.8999999761581,256157.39999997616,7134,VNB,C,9
8,test,4,1.0,1-Back,1,m,Wed Apr 30 2025 13:16:38 GMT-0500 (Central Daylight Time),259641.89999997616,012_o_f_n_a.png,O,m,667,11,1,1702.1000000238419,257939.79999995232,7134,VNB,C,10
9,test,4,0.0,1-Back,1,m,Wed Apr 30 2025 13:16:38 GMT-0500 (Central Daylight Time),261423.79999995232,019_m_f_d_a.png,O,m,733,12,1,1752.7999999523163,259671.0,7134,VNB,C,11
10,test,4,0.0,1-Back,1,m,Wed Apr 30 2025 13:16:38 GMT-0500 (Central Daylight Time),263173.7999999523,022_y_f_n_a.png,O,m,704,13,1,1718.2000000476837,261455.59999990463,7134,VNB,C,12
11,test,4,0.0,1-Back,1,m,Wed Apr 30 2025 13:16:38 GMT-0500 (Central Daylight Time),265123.1999999285,012_o_f_d_a.png,O,m,900,14,1,1919.1999999284744,263204.0,7134,VNB,C,13
12,test,4,0.0,1-Back,1,m,Wed Apr 30 2025 13:16:38 GMT-0500 (Central Daylight Time),267038.39999997616,022_y_f_h_a.png,O,m,861,15,1,1886.0,265152.39999997616,7134,VNB,C,14
13,test,4,1.0,1-Back,1,z,Wed Apr 30 2025 13:16:38 GMT-0500 (Central Daylight Time),268905.7999999523,014_m_m_h_a.png,O,z,817,16,1,1836.7000000476837,267069.09999990463,7134,VNB,C,15
14,test,4,0.0,1-Back,1,m,Wed Apr 30 2025 13:16:38 GMT-0500 (Central Daylight Time),270754.6999999285,015_o_m_n_a.png,O,m,805,17,1,1815.5,268939.1999999285,7134,VNB,C,16
15,test,4,1.0,1-Back,1,z,Wed Apr 30 2025 13:16:38 GMT-0500 (Central Daylight Time),272704.2999999523,025_y_m_n_a.png,O,z,909,18,1,1918.5,270785.7999999523,7134,VNB,C,17
0,test,5,1.0,1-Back,,,Wed Apr 30 2025 13:16:38 GMT-0500 (Central Daylight Time),272704.2999999523,015_o_m_n_a.png,O,space,1569,1,1,1918.5,270785.7999999523,7134,VNB,C,0
0,test,5,1.0,1-Back,0,m,Wed Apr 30 2025 13:16:38 GMT-0500 (Central Daylight Time),279352.0,012_o_f_h_a.png,O,None,2015,2,1,3020.3000000715256,276331.6999999285,7134,VNB,C,1
0,test,5,0.0,1-Back,0,m,Wed Apr 30 2025 13:16:38 GMT-0500 (Central Daylight Time),282103.0,025_y_m_d_a.png,O,z,1718,3,1,2730.8000000715256,279372.1999999285,7134,VNB,C,2
1,test,5,0.0,1-Back,1,z,Wed Apr 30 2025 13:16:38 GMT-0500 (Central Daylight Time),284533.39999997616,015_o_m_d_a.png,O,z,1382,4,1,2400.100000023842,282133.2999999523,7134,VNB,C,3
2,test,5,0.0,1-Back,1,m,Wed Apr 30 2025 13:16:38 GMT-0500 (Central Daylight Time),286282.6999999285,019_m_f_h_a.png,O,m,707,5,1,1721.0,284561.6999999285,7134,VNB,C,4
3,test,5,0.0,1-Back,1,m,Wed Apr 30 2025 13:16:38 GMT-0500 (Central Daylight Time),288131.39999997616,022_y_f_n_a.png,O,m,783,6,1,1815.0,286316.39999997616,7134,VNB,C,5
4,test,5,1.0,1-Back,1,z,Wed Apr 30 2025 13:16:38 GMT-0500 (Central Daylight Time),290148.0,012_o_f_n_a.png,O,z,983,7,1,1985.9000000953674,288162.09999990463,7134,VNB,C,6
5,test,5,0.0,1-Back,1,m,Wed Apr 30 2025 13:16:38 GMT-0500 (Central Daylight Time),291865.0,019_m_f_d_a.png,O,m,667,8,1,1685.7000000476837,290179.2999999523,7134,VNB,C,7
6,test,5,0.0,1-Back,1,m,Wed Apr 30 2025 13:16:38 GMT-0500 (Central Daylight Time),293846.39999997616,025_y_m_h_a.png,O,m,943,9,1,1952.8000000715256,291893.59999990463,7134,VNB,C,8
6,test,5,0.0,1-Back,0,m,Wed Apr 30 2025 13:16:38 GMT-0500 (Central Daylight Time),295746.0,022_y_f_d_a.png,O,z,857,10,1,1867.4000000953674,293878.59999990463,7134,VNB,C,9
7,test,5,0.0,1-Back,1,m,Wed Apr 30 2025 13:16:38 GMT-0500 (Central Daylight Time),297445.2999999523,014_m_m_n_a.png,O,m,663,11,1,1673.5,295771.7999999523,7134,VNB,C,10
8,test,5,1.0,1-Back,1,z,Wed Apr 30 2025 13:16:38 GMT-0500 (Central Daylight Time),299394.89999997616,019_m_f_n_a.png,O,z,901,12,1,1919.0,297475.89999997616,7134,VNB,C,11
9,test,5,0.0,1-Back,1,m,Wed Apr 30 2025 13:16:38 GMT-0500 (Central Daylight Time),301211.7999999523,015_o_m_h_a.png,O,m,768,13,1,1793.3999999761581,299418.39999997616,7134,VNB,C,12
9,test,5,0.0,1-Back,0,z,Wed Apr 30 2025 13:16:38 GMT-0500 (Central Daylight Time),303410.7999999523,014_m_m_h_a.png,O,m,1157,14,1,2167.7000000476837,301243.09999990463,7134,VNB,C,13
10,test,5,1.0,1-Back,1,m,Wed Apr 30 2025 13:16:38 GMT-0500 (Central Daylight Time),305809.89999997616,012_o_f_d_a.png,O,m,1358,15,1,2368.0,303441.89999997616,7134,VNB,C,14
11,test,5,0.0,1-Back,1,m,Wed Apr 30 2025 13:16:38 GMT-0500 (Central Daylight Time),307558.7999999523,025_y_m_n_a.png,O,m,702,16,1,1719.0,305839.7999999523,7134,VNB,C,15
12,test,5,0.0,1-Back,1,m,Wed Apr 30 2025 13:16:38 GMT-0500 (Central Daylight Time),309707.7999999523,022_y_f_h_a.png,O,m,1105,17,1,2119.2000000476837,307588.59999990463,7134,VNB,C,16
13,test,5,0.0,1-Back,1,m,Wed Apr 30 2025 13:16:38 GMT-0500 (Central Daylight Time),311874.1999999285,014_m_m_d_a.png,O,m,1123,18,1,2134.899999976158,309739.2999999523,7134,VNB,C,17
0,prac,1,0.0,2-Back,,,Wed Apr 30 2025 13:16:38 GMT-0500 (Central Daylight Time),311874.1999999285,019_m_f_n_a.png,O,space,1558,1,1,2134.899999976158,309739.2999999523,7134,VNB,C,0
0,prac,1,0.0,2-Back,,,Wed Apr 30 2025 13:16:38 GMT-0500 (Central Daylight Time),311874.1999999285,012_o_f_h_a.png,O,space,1558,2,1,2134.899999976158,309739.2999999523,7134,VNB,C,0
1,prac,1,0.0,2-Back,1,m,Wed Apr 30 2025 13:16:38 GMT-0500 (Central Daylight Time),374939.39999997616,015_o_m_d_a.png,O,m,1049,3,1,1932.8000000715256,373006.59999990463,7134,VNB,C,1
1,prac,1,1.0,2-Back,0,z,Wed Apr 30 2025 13:16:38 GMT-0500 (Central Daylight Time),377838.59999990463,014_m_m_h_a.png,O,None,2009,4,1,2865.5,374973.09999990463,7134,VNB,C,2
2,prac,1,0.0,2-Back,1,m,Wed Apr 30 2025 13:16:38 GMT-0500 (Central Daylight Time),380152.6999999285,022_y_f_n_a.png,O,m,1393,5,1,2280.5,377872.1999999285,7134,VNB,C,3
3,prac,1,1.0,2-Back,1,z,Wed Apr 30 2025 13:16:38 GMT-0500 (Central Daylight Time),381702.1999999285,015_o_m_h_a.png,O,z,744,6,1,1517.5,380184.6999999285,7134,VNB,C,4
4,prac,1,1.0,2-Back,1,z,Wed Apr 30 2025 13:16:38 GMT-0500 (Central Daylight Time),383885.59999990463,025_y_m_n_a.png,O,z,1288,7,1,2151.5999999046326,381734.0,7134,VNB,C,5
5,prac,1,0.0,2-Back,1,m,Wed Apr 30 2025 13:16:38 GMT-0500 (Central Daylight Time),385850.7999999523,019_m_f_d_a.png,O,m,1041,8,1,1931.2000000476837,383919.59999990463,7134,VNB,C,6
6,prac,1,0.0,2-Back,1,m,Wed Apr 30 2025 13:16:38 GMT-0500 (Central Daylight Time),388050.39999997616,012_o_f_d_a.png,O,m,1285,9,1,2164.399999976158,385886.0,7134,VNB,C,7
7,prac,1,0.0,2-Back,1,m,Wed Apr 30 2025 13:16:38 GMT-0500 (Central Daylight Time),389800.0,014_m_m_h_a.png,O,m,935,10,1,1716.6000000238419,388083.39999997616,7134,VNB,C,8
8,prac,1,1.0,2-Back,1,z,Wed Apr 30 2025 13:16:38 GMT-0500 (Central Daylight Time),391667.0,022_y_f_d_a.png,O,z,945,11,1,1834.4000000953674,389832.59999990463,7134,VNB,C,9
9,prac,1,0.0,2-Back,1,m,Wed Apr 30 2025 13:16:38 GMT-0500 (Central Daylight Time),393632.0,015_o_m_n_a.png,O,m,1044,12,1,1933.9000000953674,391698.09999990463,7134,VNB,C,10
0,test,1,0.0,2-Back,,,Wed Apr 30 2025 13:16:38 GMT-0500 (Central Daylight Time),393632.0,025_y_m_h_a.png,O,space,1140,1,1,1933.9000000953674,391698.09999990463,7134,VNB,C,0
0,test,1,0.0,2-Back,,,Wed Apr 30 2025 13:16:38 GMT-0500 (Central Daylight Time),393632.0,012_o_f_n_a.png,O,space,1140,2,1,1933.9000000953674,391698.09999990463,7134,VNB,C,0
1,test,1,0.0,2-Back,1,z,Wed Apr 30 2025 13:16:38 GMT-0500 (Central Daylight Time),406878.1999999285,015_o_m_h_a.png,O,z,667,3,1,1668.7999999523163,405209.39999997616,7134,VNB,C,1
2,test,1,0.0,2-Back,1,m,Wed Apr 30 2025 13:16:38 GMT-0500 (Central Daylight Time),408543.39999997616,019_m_f_d_a.png,O,m,626,4,1,1635.3000000715256,406908.09999990463,7134,VNB,C,2
3,test,1,1.0,2-Back,1,m,Wed Apr 30 2025 13:16:38 GMT-0500 (Central Daylight Time),410659.59999990463,025_y_m_n_a.png,O,m,1070,5,1,2086.2999999523163,408573.2999999523,7134,VNB,C,3
4,test,1,0.0,2-Back,1,z,Wed Apr 30 2025 13:16:38 GMT-0500 (Central Daylight Time),412727.5,022_y_f_d_a.png,O,z,1020,6,1,2037.4000000953674,410690.09999990463,7134,VNB,C,4
5,test,1,0.0,2-Back,1,m,Wed Apr 30 2025 13:16:38 GMT-0500 (Central Daylight Time),415009.09999990463,014_m_m_h_a.png,O,m,1215,7,1,2250.0,412759.09999990463,7134,VNB,C,5
5,test,1,1.0,2-Back,0,m,Wed Apr 30 2025 13:16:38 GMT-0500 (Central Daylight Time),417291.2999999523,022_y_f_n_a.png,O,z,1236,8,1,2253.100000023842,415038.1999999285,7134,VNB,C,6
6,test,1,0.0,2-Back,1,z,Wed Apr 30 2025 13:16:38 GMT-0500 (Central Daylight Time),420256.5,012_o_f_h_a.png,O,z,1925,9,1,2933.8000000715256,417322.6999999285,7134,VNB,C,7
7,test,1,0.0,2-Back,1,m,Wed Apr 30 2025 13:16:38 GMT-0500 (Central Daylight Time),422240.2999999523,015_o_m_d_a.png,O,m,942,10,1,1956.2999999523163,420284.0,7134,VNB,C,8
8,test,1,1.0,2-Back,1,m,Wed Apr 30 2025 13:16:38 GMT-0500 (Central Daylight Time),424555.2999999523,014_m_m_d_a.png,O,m,1271,11,1,2286.2000000476837,422269.09999990463,7134,VNB,C,9
9,test,1,0.0,2-Back,1,m,Wed Apr 30 2025 13:16:38 GMT-0500 (Central Daylight Time),427105.0,019_m_f_n_a.png,O,m,1508,12,1,2519.600000023842,424585.39999997616,7134,VNB,C,10
10,test,1,0.0,2-Back,1,m,Wed Apr 30 2025 13:16:38 GMT-0500 (Central Daylight Time),429553.2999999523,022_y_f_h_a.png,O,m,1389,13,1,2414.2000000476837,427139.09999990463,7134,VNB,C,11
11,test,1,0.0,2-Back,1,z,Wed Apr 30 2025 13:16:38 GMT-0500 (Central Daylight Time),431387.6999999285,014_m_m_n_a.png,O,z,789,14,1,1806.1999999284744,429581.5,7134,VNB,C,12
12,test,1,0.0,2-Back,1,m,Wed Apr 30 2025 13:16:38 GMT-0500 (Central Daylight Time),433368.5,025_y_m_d_a.png,O,m,925,15,1,1947.7000000476837,431420.7999999523,7134,VNB,C,13
13,test,1,1.0,2-Back,1,m,Wed Apr 30 2025 13:16:38 GMT-0500 (Central Daylight Time),436100.89999997616,019_m_f_h_a.png,O,m,1694,16,1,2701.100000023842,433399.7999999523,7134,VNB,C,14
13,test,1,0.0,2-Back,0,z,Wed Apr 30 2025 13:16:38 GMT-0500 (Central Daylight Time),438932.39999997616,012_o_f_d_a.png,O,m,1785,17,1,2800.8000000715256,436131.59999990463,7134,VNB,C,15
13,test,1,0.0,2-Back,0,m,Wed Apr 30 2025 13:16:38 GMT-0500 (Central Daylight Time),441317.2999999523,015_o_m_n_a.png,O,z,1338,18,1,2355.600000023842,438961.6999999285,7134,VNB,C,16
0,test,2,0.0,2-Back,,,Wed Apr 30 2025 13:16:38 GMT-0500 (Central Daylight Time),441317.2999999523,014_m_m_h_a.png,O,space,1235,1,1,2355.600000023842,438961.6999999285,7134,VNB,C,0
0,test,2,0.0,2-Back,,,Wed Apr 30 2025 13:16:38 GMT-0500 (Central Daylight Time),441317.2999999523,022_y_f_n_a.png,O,space,1235,2,1,2355.600000023842,438961.6999999285,7134,VNB,C,0
1,test,2,1.0,2-Back,1,z,Wed Apr 30 2025 13:16:38 GMT-0500 (Central Daylight Time),449481.0,012_o_f_h_a.png,O,z,634,3,1,1652.1000000238419,447828.89999997616,7134,VNB,C,1
2,test,2,0.0,2-Back,1,m,Wed Apr 30 2025 13:16:38 GMT-0500 (Central Daylight Time),451364.0,015_o_m_d_a.png,O,m,837,4,1,1851.4000000953674,449512.59999990463,7134,VNB,C,2
3,test,2,0.0,2-Back,1,m,Wed Apr 30 2025 13:16:38 GMT-0500 (Central Daylight Time),453828.39999997616,019_m_f_d_a.png,O,m,1428,5,1,2433.3000000715256,451395.09999990463,7134,VNB,C,3
4,test,2,0.0,2-Back,1,m,Wed Apr 30 2025 13:16:38 GMT-0500 (Central Daylight Time),456094.89999997616,025_y_m_h_a.png,O,m,1217,6,1,2244.0,453850.89999997616,7134,VNB,C,4
5,test,2,0.0,2-Back,1,m,Wed Apr 30 2025 13:16:38 GMT-0500 (Central Daylight Time),458994.59999990463,012_o_f_n_a.png,O,m,1850,7,1,2868.899999976158,456125.6999999285,7134,VNB,C,5
6,test,2,1.0,2-Back,1,z,Wed Apr 30 2025 13:16:38 GMT-0500 (Central Daylight Time),460592.2999999523,015_o_m_h_a.png,O,z,555,8,1,1566.6000000238419,459025.6999999285,7134,VNB,C,6
7,test,2,0.0,2-Back,1,m,Wed Apr 30 2025 13:16:38 GMT-0500 (Central Daylight Time),462844.09999990463,022_y_f_d_a.png,O,m,1200,9,1,2222.899999976158,460621.1999999285,7134,VNB,C,7
8,test,2,0.0,2-Back,1,m,Wed Apr 30 2025 13:16:38 GMT-0500 (Central Daylight Time),465076.2999999523,025_y_m_d_a.png,O,m,1188,10,1,2203.7999999523163,462872.5,7134,VNB,C,8
8,test,2,0.0,2-Back,0,m,Wed Apr 30 2025 13:16:38 GMT-0500 (Central Daylight Time),467508.2999999523,014_m_m_n_a.png,O,z,1384,11,1,2400.7999999523163,465107.5,7134,VNB,C,9
9,test,2,0.0,2-Back,1,m,Wed Apr 30 2025 13:16:38 GMT-0500 (Central Daylight Time),470339.89999997616,019_m_f_h_a.png,O,m,1771,12,1,2800.2000000476837,467539.6999999285,7134,VNB,C,10
10,test,2,1.0,2-Back,1,z,Wed Apr 30 2025 13:16:38 GMT-0500 (Central Daylight Time),472258.7999999523,015_o_m_n_a.png,O,z,875,13,1,1887.7000000476837,470371.09999990463,7134,VNB,C,11
11,test,2,0.0,2-Back,1,m,Wed Apr 30 2025 13:16:38 GMT-0500 (Central Daylight Time),474441.6999999285,012_o_f_d_a.png,O,m,1116,14,1,2152.100000023842,472289.59999990463,7134,VNB,C,12
12,test,2,0.0,2-Back,1,m,Wed Apr 30 2025 13:16:38 GMT-0500 (Central Daylight Time),476605.0,022_y_f_h_a.png,O,m,1107,15,1,2131.600000023842,474473.39999997616,7134,VNB,C,13
13,test,2,0.0,2-Back,1,z,Wed Apr 30 2025 13:16:38 GMT-0500 (Central Daylight Time),478924.5,014_m_m_d_a.png,O,z,1268,16,1,2288.0,476636.5,7134,VNB,C,14
14,test,2,0.0,2-Back,1,m,Wed Apr 30 2025 13:16:38 GMT-0500 (Central Daylight Time),480654.0,025_y_m_n_a.png,O,m,684,17,1,1702.5,478951.5,7134,VNB,C,15
15,test,2,1.0,2-Back,1,m,Wed Apr 30 2025 13:16:38 GMT-0500 (Central Daylight Time),482870.1999999285,019_m_f_n_a.png,O,m,1177,18,1,2185.899999976158,480684.2999999523,7134,VNB,C,16
0,test,3,1.0,2-Back,,,Wed Apr 30 2025 13:16:38 GMT-0500 (Central Daylight Time),482870.1999999285,015_o_m_n_a.png,O,space,1138,1,1,2185.899999976158,480684.2999999523,7134,VNB,C,0
0,test,3,1.0,2-Back,,,Wed Apr 30 2025 13:16:38 GMT-0500 (Central Daylight Time),482870.1999999285,012_o_f_d_a.png,O,space,1138,2,1,2185.899999976158,480684.2999999523,7134,VNB,C,0
1,test,3,0.0,2-Back,1,m,Wed Apr 30 2025 13:16:38 GMT-0500 (Central Daylight Time),491118.0,022_y_f_h_a.png,O,m,998,3,1,2019.2000000476837,489098.7999999523,7134,VNB,C,1
2,test,3,0.0,2-Back,1,z,Wed Apr 30 2025 13:16:38 GMT-0500 (Central Daylight Time),493233.1999999285,019_m_f_d_a.png,O,z,1074,4,1,2084.1999999284744,491149.0,7134,VNB,C,2
3,test,3,1.0,2-Back,1,m,Wed Apr 30 2025 13:16:38 GMT-0500 (Central Daylight Time),495016.09999990463,025_y_m_n_a.png,O,m,741,5,1,1752.2999999523163,493263.7999999523,7134,VNB,C,3
4,test,3,0.0,2-Back,1,m,Wed Apr 30 2025 13:16:38 GMT-0500 (Central Daylight Time),498033.89999997616,015_o_m_h_a.png,O,m,1977,6,1,2987.100000023842,495046.7999999523,7134,VNB,C,4
5,test,3,0.0,2-Back,1,z,Wed Apr 30 2025 13:16:38 GMT-0500 (Central Daylight Time),500115.09999990463,022_y_f_n_a.png,O,z,1035,7,1,2049.0999999046326,498066.0,7134,VNB,C,5
6,test,3,1.0,2-Back,1,m,Wed Apr 30 2025 13:16:38 GMT-0500 (Central Daylight Time),502180.09999990463,014_m_m_d_a.png,O,m,1005,8,1,2034.6999999284744,500145.39999997616,7134,VNB,C,6
7,test,3,0.0,2-Back,1,m,Wed Apr 30 2025 13:16:38 GMT-0500 (Central Daylight Time),504580.09999990463,025_y_m_d_a.png,O,m,1338,9,1,2367.7999999523163,502212.2999999523,7134,VNB,C,7
8,test,3,0.0,2-Back,1,m,Wed Apr 30 2025 13:16:38 GMT-0500 (Central Daylight Time),506712.39999997616,012_o_f_h_a.png,O,m,1093,10,1,2103.600000023842,504608.7999999523,7134,VNB,C,8
9,test,3,1.0,2-Back,1,m,Wed Apr 30 2025 13:16:38 GMT-0500 (Central Daylight Time),509011.7999999523,019_m_f_n_a.png,O,m,1254,11,1,2269.0,506742.7999999523,7134,VNB,C,9
9,test,3,1.0,2-Back,0,z,Wed Apr 30 2025 13:16:38 GMT-0500 (Central Daylight Time),512060.1999999285,014_m_m_h_a.png,O,None,2014,12,1,3026.7999999523163,509033.39999997616,7134,VNB,C,10
9,test,3,0.0,2-Back,0,m,Wed Apr 30 2025 13:16:38 GMT-0500 (Central Daylight Time),514343.0,022_y_f_d_a.png,O,z,1236,13,1,2252.5,512090.5,7134,VNB,C,11
9,test,3,0.0,2-Back,0,m,Wed Apr 30 2025 13:16:38 GMT-0500 (Central Daylight Time),517393.59999990463,012_o_f_n_a.png,O,None,2017,14,1,3017.2999999523163,514376.2999999523,7134,VNB,C,12
9,test,3,0.0,2-Back,0,z,Wed Apr 30 2025 13:16:38 GMT-0500 (Central Daylight Time),520443.0,015_o_m_d_a.png,O,None,2001,15,1,3017.2000000476837,517425.7999999523,7134,VNB,C,13
10,test,3,1.0,2-Back,1,m,Wed Apr 30 2025 13:16:38 GMT-0500 (Central Daylight Time),522907.7999999523,019_m_f_h_a.png,O,m,1400,16,1,2436.0,520471.7999999523,7134,VNB,C,14
11,test,3,0.0,2-Back,1,m,Wed Apr 30 2025 13:16:38 GMT-0500 (Central Daylight Time),525389.6999999285,014_m_m_n_a.png,O,m,1421,17,1,2450.1999999284744,522939.5,7134,VNB,C,15
12,test,3,0.0,2-Back,1,z,Wed Apr 30 2025 13:16:38 GMT-0500 (Central Daylight Time),527072.7999999523,025_y_m_h_a.png,O,z,633,18,1,1667.0,525405.7999999523,7134,VNB,C,16
0,test,4,0.0,2-Back,,,Wed Apr 30 2025 13:16:38 GMT-0500 (Central Daylight Time),527072.7999999523,019_m_f_n_a.png,O,space,3400,1,1,1667.0,525405.7999999523,7134,VNB,C,0
0,test,4,0.0,2-Back,,,Wed Apr 30 2025 13:16:38 GMT-0500 (Central Daylight Time),527072.7999999523,015_o_m_n_a.png,O,space,3400,2,1,1667.0,525405.7999999523,7134,VNB,C,0
1,test,4,1.0,2-Back,1,m,Wed Apr 30 2025 13:16:38 GMT-0500 (Central Daylight Time),537300.5999999046,025_y_m_h_a.png,O,m,509,3,1,1516.0,535784.5999999046,7134,VNB,C,1
2,test,4,1.0,2-Back,1,m,Wed Apr 30 2025 13:16:38 GMT-0500 (Central Daylight Time),539318.0999999046,012_o_f_d_a.png,O,m,978,4,1,1987.0,537331.0999999046,7134,VNB,C,2
3,test,4,0.0,2-Back,1,z,Wed Apr 30 2025 13:16:38 GMT-0500 (Central Daylight Time),540903.2999999523,015_o_m_h_a.png,O,z,538,5,1,1554.7000000476837,539348.5999999046,7134,VNB,C,3
4,test,4,0.0,2-Back,1,m,Wed Apr 30 2025 13:16:38 GMT-0500 (Central Daylight Time),542632.7999999523,014_m_m_n_a.png,O,m,682,6,1,1697.2999999523163,540935.5,7134,VNB,C,4
5,test,4,0.0,2-Back,1,m,Wed Apr 30 2025 13:16:38 GMT-0500 (Central Daylight Time),544799.7999999523,019_m_f_d_a.png,O,m,1125,7,1,2141.2000000476837,542658.5999999046,7134,VNB,C,5
6,test,4,0.0,2-Back,1,z,Wed Apr 30 2025 13:16:38 GMT-0500 (Central Daylight Time),546649.0,022_y_f_n_a.png,O,z,801,8,1,1818.2000000476837,544830.7999999523,7134,VNB,C,6
7,test,4,1.0,2-Back,1,m,Wed Apr 30 2025 13:16:38 GMT-0500 (Central Daylight Time),548632.3999999762,012_o_f_h_a.png,O,m,943,9,1,1953.5,546678.8999999762,7134,VNB,C,7
8,test,4,0.0,2-Back,1,m,Wed Apr 30 2025 13:16:38 GMT-0500 (Central Daylight Time),550581.2999999523,014_m_m_h_a.png,O,m,903,10,1,1919.2999999523163,548662.0,7134,VNB,C,8
9,test,4,0.0,2-Back,1,m,Wed Apr 30 2025 13:16:38 GMT-0500 (Central Daylight Time),553247.1999999285,022_y_f_d_a.png,O,m,1618,11,1,2637.0,550610.1999999285,7134,VNB,C,9
9,test,4,0.0,2-Back,0,m,Wed Apr 30 2025 13:16:38 GMT-0500 (Central Daylight Time),555498.5999999046,025_y_m_n_a.png,O,z,1200,12,1,2221.399999976158,553277.1999999285,7134,VNB,C,10
9,test,4,0.0,2-Back,0,z,Wed Apr 30 2025 13:16:38 GMT-0500 (Central Daylight Time),557696.0,015_o_m_d_a.png,O,m,1143,13,1,2168.100000023842,555527.8999999762,7134,VNB,C,11
10,test,4,1.0,2-Back,1,m,Wed Apr 30 2025 13:16:38 GMT-0500 (Central Daylight Time),559747.8999999762,019_m_f_h_a.png,O,m,1001,14,1,2020.7000000476837,557727.1999999285,7134,VNB,C,12
11,test,4,1.0,2-Back,1,m,Wed Apr 30 2025 13:16:38 GMT-0500 (Central Daylight Time),561878.2999999523,022_y_f_h_a.png,O,m,1069,15,1,2099.100000023842,559779.1999999285,7134,VNB,C,13
12,test,4,0.0,2-Back,1,m,Wed Apr 30 2025 13:16:38 GMT-0500 (Central Daylight Time),564193.6999999285,012_o_f_n_a.png,O,m,1267,16,1,2284.1999999284744,561909.5,7134,VNB,C,14
13,test,4,0.0,2-Back,1,m,Wed Apr 30 2025 13:16:38 GMT-0500 (Central Daylight Time),566493.5,025_y_m_d_a.png,O,m,1255,17,1,2268.5,564225.0,7134,VNB,C,15
14,test,4,1.0,2-Back,1,m,Wed Apr 30 2025 13:16:38 GMT-0500 (Central Daylight Time),569243.3999999762,014_m_m_d_a.png,O,m,1701,18,1,2720.7000000476837,566522.6999999285,7134,VNB,C,16
0,test,5,1.0,2-Back,,,Wed Apr 30 2025 13:16:38 GMT-0500 (Central Daylight Time),569243.3999999762,022_y_f_d_a.png,O,space,999,1,1,2720.7000000476837,566522.6999999285,7134,VNB,C,0
0,test,5,1.0,2-Back,,,Wed Apr 30 2025 13:16:38 GMT-0500 (Central Daylight Time),569243.3999999762,012_o_f_h_a.png,O,space,999,2,1,2720.7000000476837,566522.6999999285,7134,VNB,C,0
1,test,5,1.0,2-Back,1,z,Wed Apr 30 2025 13:16:38 GMT-0500 (Central Daylight Time),577888.8999999762,015_o_m_d_a.png,O,z,1334,3,1,2351.2000000476837,575537.6999999285,7134,VNB,C,1
2,test,5,1.0,2-Back,1,m,Wed Apr 30 2025 13:16:38 GMT-0500 (Central Daylight Time),579507.0,019_m_f_n_a.png,O,m,573,4,1,1588.6000000238419,577918.3999999762,7134,VNB,C,2
3,test,5,0.0,2-Back,1,m,Wed Apr 30 2025 13:16:38 GMT-0500 (Central Daylight Time),581789.0999999046,014_m_m_h_a.png,O,m,1222,5,1,2249.0,579540.0999999046,7134,VNB,C,3
3,test,5,0.0,2-Back,0,z,Wed Apr 30 2025 13:16:38 GMT-0500 (Central Daylight Time),584856.3999999762,022_y_f_n_a.png,O,None,2016,6,1,3037.0,581819.3999999762,7134,VNB,C,4
4,test,5,0.0,2-Back,1,m,Wed Apr 30 2025 13:16:38 GMT-0500 (Central Daylight Time),586920.1999999285,012_o_f_d_a.png,O,m,1016,7,1,2034.1000000238419,584886.0999999046,7134,VNB,C,5
5,test,5,0.0,2-Back,1,m,Wed Apr 30 2025 13:16:38 GMT-0500 (Central Daylight Time),588937.1999999285,015_o_m_h_a.png,O,m,967,8,1,1985.6999999284744,586951.5,7134,VNB,C,6
6,test,5,1.0,2-Back,1,z,Wed Apr 30 2025 13:16:38 GMT-0500 (Central Daylight Time),590769.6999999285,019_m_f_d_a.png,O,z,783,9,1,1803.1000000238419,588966.5999999046,7134,VNB,C,7
7,test,5,0.0,2-Back,1,m,Wed Apr 30 2025 13:16:38 GMT-0500 (Central Daylight Time),592821.6999999285,025_y_m_n_a.png,O,m,999,10,1,2023.0,590798.6999999285,7134,VNB,C,8
8,test,5,0.0,2-Back,1,m,Wed Apr 30 2025 13:16:38 GMT-0500 (Central Daylight Time),595551.1999999285,014_m_m_n_a.png,O,m,1668,11,1,2697.899999976158,592853.2999999523,7134,VNB,C,9
9,test,5,0.0,2-Back,1,m,Wed Apr 30 2025 13:16:38 GMT-0500 (Central Daylight Time),597800.6999999285,022_y_f_h_a.png,O,m,1184,12,1,2219.100000023842,595581.5999999046,7134,VNB,C,10
10,test,5,0.0,2-Back,1,m,Wed Apr 30 2025 13:16:38 GMT-0500 (Central Daylight Time),600381.8999999762,025_y_m_d_a.png,O,m,1536,13,1,2552.0,597829.8999999762,7134,VNB,C,11
11,test,5,1.0,2-Back,1,z,Wed Apr 30 2025 13:16:38 GMT-0500 (Central Daylight Time),602533.2999999523,019_m_f_h_a.png,O,z,1115,14,1,2121.399999976158,600411.8999999762,7134,VNB,C,12
12,test,5,0.0,2-Back,1,m,Wed Apr 30 2025 13:16:38 GMT-0500 (Central Daylight Time),604649.0999999046,015_o_m_n_a.png,O,m,1068,15,1,2084.899999976158,602564.1999999285,7134,VNB,C,13
13,test,5,0.0,2-Back,1,m,Wed Apr 30 2025 13:16:38 GMT-0500 (Central Daylight Time),606764.6999999285,014_m_m_d_a.png,O,m,1053,16,1,2087.399999976158,604677.2999999523,7134,VNB,C,14
14,test,5,0.0,2-Back,1,z,Wed Apr 30 2025 13:16:38 GMT-0500 (Central Daylight Time),608963.5,012_o_f_n_a.png,O,z,1139,17,1,2167.0,606796.5,7134,VNB,C,15
15,test,5,1.0,2-Back,1,m,Wed Apr 30 2025 13:16:38 GMT-0500 (Central Daylight Time),610864.3999999762,025_y_m_h_a.png,O,m,835,18,1,1878.8999999761581,608985.5,7134,VNB,C,16
