acc_sum,block,block_c,block_cond,con_img,correct,correct_response,datetime,endtime,face,jitter,line,project,response,response_time,row_sel,session_number,start_end,starttime,subject_id,task,task_vers,trial
0,prac,1,A,haborder.png,0,m,Wed Mar 26 2025 15:32:34 GMT-0500 (Central Daylight Time),48836.59999996424,CFD-WM-012-007-HC.jpg,1700,solid,O,None,1514,9,1,4032.199999988079,44804.39999997616,7091,ATS,B,1
1,prac,1,A,haborder.png,1,m,Wed Mar 26 2025 15:32:34 GMT-0500 (Central Daylight Time),52585.30000001192,CFD-BF-035-007-HC.jpg,2000,solid,O,m,926,5,1,7780.900000035763,44804.39999997616,7091,ATS,B,2
2,prac,1,A,haborder.png,1,z,Wed Mar 26 2025 15:32:34 GMT-0500 (Central Daylight Time),56067.39999997616,CFD-WF-026-008-A.jpg,1600,solid,O,z,1056,10,1,11263.0,44804.39999997616,7091,ATS,B,3
3,prac,1,A,haborder.png,1,z,Wed Mar 26 2025 15:32:34 GMT-0500 (Central Daylight Time),59466.30000001192,CFD-WM-009-009-A.jpg,1900,solid,O,z,682,8,1,14661.900000035763,44804.39999997616,7091,ATS,B,4
4,prac,1,A,haborder.png,1,m,Wed Mar 26 2025 15:32:34 GMT-0500 (Central Daylight Time),62731.89999997616,CFD-BM-015-017-HC.jpg,1700,solid,O,m,739,1,1,17927.5,44804.39999997616,7091,ATS,B,5
5,prac,1,A,haborder.png,1,z,Wed Mar 26 2025 15:32:34 GMT-0500 (Central Daylight Time),66164.09999996424,CFD-BM-037-041-A.jpg,1600,solid,O,z,1005,2,1,21359.69999998808,44804.39999997616,7091,ATS,B,6
6,prac,1,A,haborder.png,1,z,Wed Mar 26 2025 15:32:34 GMT-0500 (Central Daylight Time),69262.89999997616,CFD-BF-050-012-A.jpg,1200,solid,O,z,1069,6,1,24458.5,44804.39999997616,7091,ATS,B,7
6,prac,1,A,haborder.png,0,z,Wed Mar 26 2025 15:32:34 GMT-0500 (Central Daylight Time),72178.59999996424,CFD-WF-013-015-A.jpg,1000,solid,O,m,1089,12,1,27374.19999998808,44804.39999997616,7091,ATS,B,8
7,prac,1,A,haborder.png,1,z,Wed Mar 26 2025 15:32:34 GMT-0500 (Central Daylight Time),74861.39999997616,CFD-BF-051-043-A.jpg,1000,solid,O,z,854,4,1,30057.0,44804.39999997616,7091,ATS,B,9
8,prac,1,A,haborder.png,1,m,Wed Mar 26 2025 15:32:34 GMT-0500 (Central Daylight Time),77777.19999998808,CFD-BM-020-024-HC.jpg,1500,solid,O,m,592,3,1,32972.80000001192,44804.39999997616,7091,ATS,B,10
9,prac,1,A,haborder.png,1,m,Wed Mar 26 2025 15:32:34 GMT-0500 (Central Daylight Time),80759.09999996424,CFD-WM-011-006-HC.jpg,1400,solid,O,m,752,7,1,35954.69999998808,44804.39999997616,7091,ATS,B,11
10,prac,1,A,haborder.png,1,m,Wed Mar 26 2025 15:32:34 GMT-0500 (Central Daylight Time),83891.69999998808,CFD-WF-011-006-HC.jpg,1500,solid,O,m,806,11,1,39087.30000001192,44804.39999997616,7091,ATS,B,12
1,prac,1,B,mfborder.png,1,m,Wed Mar 26 2025 15:32:34 GMT-0500 (Central Daylight Time),119013.39999997616,CFD-WM-009-009-A.jpg,1700,dash,O,m,645,9,1,3149.899999976158,115863.5,7091,ATS,B,1
2,prac,1,B,mfborder.png,1,z,Wed Mar 26 2025 15:32:34 GMT-0500 (Central Daylight Time),121362.59999996424,CFD-WF-011-006-HC.jpg,1000,dash,O,z,548,12,1,5499.099999964237,115863.5,7091,ATS,B,2
3,prac,1,B,mfborder.png,1,z,Wed Mar 26 2025 15:32:34 GMT-0500 (Central Daylight Time),124361.89999997616,CFD-WF-026-008-A.jpg,1500,dash,O,z,684,11,1,8498.399999976158,115863.5,7091,ATS,B,3
4,prac,1,B,mfborder.png,1,m,Wed Mar 26 2025 15:32:34 GMT-0500 (Central Daylight Time),127460.89999997616,CFD-BM-020-024-HC.jpg,1700,dash,O,m,571,1,1,11597.399999976158,115863.5,7091,ATS,B,4
5,prac,1,B,mfborder.png,1,m,Wed Mar 26 2025 15:32:34 GMT-0500 (Central Daylight Time),131242.80000001192,CFD-BM-037-041-A.jpg,2000,dash,O,m,951,5,1,15379.300000011921,115863.5,7091,ATS,B,5
6,prac,1,B,mfborder.png,1,z,Wed Mar 26 2025 15:32:34 GMT-0500 (Central Daylight Time),134341.80000001192,CFD-BF-027-013-HC.jpg,1500,dash,O,z,769,3,1,18478.30000001192,115863.5,7091,ATS,B,6
7,prac,1,B,mfborder.png,1,z,Wed Mar 26 2025 15:32:34 GMT-0500 (Central Daylight Time),138523.5,CFD-WF-027-007-HC.jpg,1900,dash,O,z,1473,8,1,22660.0,115863.5,7091,ATS,B,7
7,prac,1,B,mfborder.png,0,z,Wed Mar 26 2025 15:32:34 GMT-0500 (Central Daylight Time),141789.19999998808,CFD-BF-035-007-HC.jpg,1400,dash,O,m,1045,7,1,25925.69999998808,115863.5,7091,ATS,B,8
8,prac,1,B,mfborder.png,1,m,Wed Mar 26 2025 15:32:34 GMT-0500 (Central Daylight Time),145271.39999997616,CFD-BM-041-048-A.jpg,1600,dash,O,m,1052,2,1,29407.899999976158,115863.5,7091,ATS,B,9
9,prac,1,B,mfborder.png,1,m,Wed Mar 26 2025 15:32:34 GMT-0500 (Central Daylight Time),148404.09999996424,CFD-WM-012-007-HC.jpg,1600,dash,O,m,729,10,1,32540.599999964237,115863.5,7091,ATS,B,10
10,prac,1,B,mfborder.png,1,m,Wed Mar 26 2025 15:32:34 GMT-0500 (Central Daylight Time),151268.59999996424,CFD-WM-037-060-A.jpg,1200,dash,O,m,838,6,1,35405.09999996424,115863.5,7091,ATS,B,11
11,prac,1,B,mfborder.png,1,z,Wed Mar 26 2025 15:32:34 GMT-0500 (Central Daylight Time),154467.39999997616,CFD-BF-051-043-A.jpg,1000,dash,O,z,1405,4,1,38603.89999997616,115863.5,7091,ATS,B,12
1,test,1,A,haborder.png,1,z,Wed Mar 26 2025 15:32:34 GMT-0500 (Central Daylight Time),179775.80000001192,CFD-BF-051-043-A.jpg,1000,solid,O,z,830,4,1,1866.1000000238419,177909.69999998808,7091,ATS,B,1
2,test,1,A,haborder.png,1,z,Wed Mar 26 2025 15:32:34 GMT-0500 (Central Daylight Time),181692.80000001192,CFD-BF-050-012-A.jpg,1200,solid,O,z,685,6,1,3783.100000023842,177909.69999998808,7091,ATS,B,2
3,test,1,A,haborder.png,1,z,Wed Mar 26 2025 15:32:34 GMT-0500 (Central Daylight Time),184491.80000001192,CFD-BM-037-041-A.jpg,1600,solid,O,z,1151,2,1,6582.100000023842,177909.69999998808,7091,ATS,B,3
4,test,1,A,haborder.png,1,z,Wed Mar 26 2025 15:32:34 GMT-0500 (Central Daylight Time),186690.09999996424,CFD-WF-013-015-A.jpg,1000,solid,O,z,1142,12,1,8780.399999976158,177909.69999998808,7091,ATS,B,4
5,test,1,A,haborder.png,1,m,Wed Mar 26 2025 15:32:34 GMT-0500 (Central Daylight Time),188606.09999996424,CFD-WM-011-006-HC.jpg,1400,solid,O,m,488,7,1,10696.399999976158,177909.69999998808,7091,ATS,B,5
6,test,1,A,haborder.png,1,m,Wed Mar 26 2025 15:32:34 GMT-0500 (Central Daylight Time),190722.59999996424,CFD-WF-011-006-HC.jpg,1500,solid,O,m,576,11,1,12812.899999976158,177909.69999998808,7091,ATS,B,6
7,test,1,A,haborder.png,1,m,Wed Mar 26 2025 15:32:34 GMT-0500 (Central Daylight Time),193173.0,CFD-BM-015-017-HC.jpg,1700,solid,O,m,733,1,1,15263.300000011921,177909.69999998808,7091,ATS,B,7
8,test,1,A,haborder.png,1,z,Wed Mar 26 2025 15:32:34 GMT-0500 (Central Daylight Time),195787.30000001192,CFD-BM-037-041-A.jpg,1600,solid,O,z,982,2,1,17877.600000023842,177909.69999998808,7091,ATS,B,8
9,test,1,A,haborder.png,1,z,Wed Mar 26 2025 15:32:34 GMT-0500 (Central Daylight Time),197719.89999997616,CFD-BF-050-012-A.jpg,1200,solid,O,z,703,6,1,19810.19999998808,177909.69999998808,7091,ATS,B,9
10,test,1,A,haborder.png,1,m,Wed Mar 26 2025 15:32:34 GMT-0500 (Central Daylight Time),200202.30000001192,CFD-WM-012-007-HC.jpg,1700,solid,O,m,749,9,1,22292.600000023842,177909.69999998808,7091,ATS,B,10
11,test,1,A,haborder.png,1,z,Wed Mar 26 2025 15:32:34 GMT-0500 (Central Daylight Time),203267.89999997616,CFD-WM-009-009-A.jpg,1900,solid,O,z,1138,8,1,25358.19999998808,177909.69999998808,7091,ATS,B,11
12,test,1,A,haborder.png,1,z,Wed Mar 26 2025 15:32:34 GMT-0500 (Central Daylight Time),205933.89999997616,CFD-WM-009-009-A.jpg,1900,solid,O,z,736,8,1,28024.19999998808,177909.69999998808,7091,ATS,B,12
13,test,1,A,haborder.png,1,z,Wed Mar 26 2025 15:32:34 GMT-0500 (Central Daylight Time),208566.39999997616,CFD-WF-026-008-A.jpg,1600,solid,O,z,1013,10,1,30656.69999998808,177909.69999998808,7091,ATS,B,13
14,test,1,A,haborder.png,1,m,Wed Mar 26 2025 15:32:34 GMT-0500 (Central Daylight Time),210965.59999996424,CFD-BM-020-024-HC.jpg,1500,solid,O,m,872,3,1,33055.89999997616,177909.69999998808,7091,ATS,B,14
15,test,1,A,haborder.png,1,m,Wed Mar 26 2025 15:32:34 GMT-0500 (Central Daylight Time),213681.19999998808,CFD-WF-011-006-HC.jpg,1500,solid,O,m,1193,11,1,35771.5,177909.69999998808,7091,ATS,B,15
16,test,1,A,haborder.png,1,m,Wed Mar 26 2025 15:32:34 GMT-0500 (Central Daylight Time),215863.89999997616,CFD-WM-011-006-HC.jpg,1400,solid,O,m,753,7,1,37954.19999998808,177909.69999998808,7091,ATS,B,16
17,test,1,A,haborder.png,1,z,Wed Mar 26 2025 15:32:34 GMT-0500 (Central Daylight Time),217596.5,CFD-BF-051-043-A.jpg,1000,solid,O,z,704,4,1,39686.80000001192,177909.69999998808,7091,ATS,B,17
18,test,1,A,haborder.png,1,z,Wed Mar 26 2025 15:32:34 GMT-0500 (Central Daylight Time),219379.30000001192,CFD-WF-013-015-A.jpg,1000,solid,O,z,758,12,1,41469.60000002384,177909.69999998808,7091,ATS,B,18
19,test,1,A,haborder.png,1,m,Wed Mar 26 2025 15:32:34 GMT-0500 (Central Daylight Time),222361.80000001192,CFD-BF-035-007-HC.jpg,2000,solid,O,m,942,5,1,44452.10000002384,177909.69999998808,7091,ATS,B,19
20,test,1,A,haborder.png,1,z,Wed Mar 26 2025 15:32:34 GMT-0500 (Central Daylight Time),225011.19999998808,CFD-WF-026-008-A.jpg,1600,solid,O,z,1033,10,1,47101.5,177909.69999998808,7091,ATS,B,20
21,test,1,A,haborder.png,1,m,Wed Mar 26 2025 15:32:34 GMT-0500 (Central Daylight Time),228026.39999997616,CFD-BF-035-007-HC.jpg,2000,solid,O,m,967,5,1,50116.69999998808,177909.69999998808,7091,ATS,B,21
22,test,1,A,haborder.png,1,m,Wed Mar 26 2025 15:32:34 GMT-0500 (Central Daylight Time),230392.30000001192,CFD-WM-012-007-HC.jpg,1700,solid,O,m,644,9,1,52482.60000002384,177909.69999998808,7091,ATS,B,22
23,test,1,A,haborder.png,1,m,Wed Mar 26 2025 15:32:34 GMT-0500 (Central Daylight Time),232924.89999997616,CFD-BM-020-024-HC.jpg,1500,solid,O,m,1012,3,1,55015.19999998808,177909.69999998808,7091,ATS,B,23
24,test,1,A,haborder.png,1,m,Wed Mar 26 2025 15:32:34 GMT-0500 (Central Daylight Time),235708.19999998808,CFD-BM-015-017-HC.jpg,1700,solid,O,m,1059,1,1,57798.5,177909.69999998808,7091,ATS,B,24
1,test,1,B,mfborder.png,1,z,Wed Mar 26 2025 15:32:34 GMT-0500 (Central Daylight Time),266031.5,CFD-BF-051-043-A.jpg,1000,dash,O,z,759,4,1,1815.800000011921,264215.6999999881,7091,ATS,B,1
2,test,1,B,mfborder.png,1,m,Wed Mar 26 2025 15:32:34 GMT-0500 (Central Daylight Time),268664.3000000119,CFD-BM-037-041-A.jpg,2000,dash,O,m,569,5,1,4448.600000023842,264215.6999999881,7091,ATS,B,2
3,test,1,B,mfborder.png,1,z,Wed Mar 26 2025 15:32:34 GMT-0500 (Central Daylight Time),271183.3000000119,CFD-WF-027-007-HC.jpg,1900,dash,O,z,557,8,1,6967.600000023842,264215.6999999881,7091,ATS,B,3
4,test,1,B,mfborder.png,1,z,Wed Mar 26 2025 15:32:34 GMT-0500 (Central Daylight Time),273012.8000000119,CFD-BF-051-043-A.jpg,1000,dash,O,z,789,4,1,8797.100000023842,264215.6999999881,7091,ATS,B,4
5,test,1,B,mfborder.png,1,z,Wed Mar 26 2025 15:32:34 GMT-0500 (Central Daylight Time),275495.3000000119,CFD-WF-027-007-HC.jpg,1900,dash,O,z,546,8,1,11279.600000023842,264215.6999999881,7091,ATS,B,5
6,test,1,B,mfborder.png,1,m,Wed Mar 26 2025 15:32:34 GMT-0500 (Central Daylight Time),277727.59999996424,CFD-WM-012-007-HC.jpg,1600,dash,O,m,586,10,1,13511.899999976158,264215.6999999881,7091,ATS,B,6
7,test,1,B,mfborder.png,1,z,Wed Mar 26 2025 15:32:34 GMT-0500 (Central Daylight Time),280343.39999997616,CFD-WF-026-008-A.jpg,1500,dash,O,z,1077,11,1,16127.699999988079,264215.6999999881,7091,ATS,B,7
8,test,1,B,mfborder.png,1,m,Wed Mar 26 2025 15:32:34 GMT-0500 (Central Daylight Time),282293.5,CFD-WM-037-060-A.jpg,1200,dash,O,m,698,6,1,18077.80000001192,264215.6999999881,7091,ATS,B,8
9,test,1,B,mfborder.png,1,m,Wed Mar 26 2025 15:32:34 GMT-0500 (Central Daylight Time),284909.09999996424,CFD-WM-009-009-A.jpg,1700,dash,O,m,880,9,1,20693.399999976158,264215.6999999881,7091,ATS,B,9
10,test,1,B,mfborder.png,1,m,Wed Mar 26 2025 15:32:34 GMT-0500 (Central Daylight Time),287391.1999999881,CFD-BM-041-048-A.jpg,1600,dash,O,m,837,2,1,23175.5,264215.6999999881,7091,ATS,B,10
10,test,1,B,mfborder.png,0,z,Wed Mar 26 2025 15:32:34 GMT-0500 (Central Daylight Time),289957.3000000119,CFD-BF-035-007-HC.jpg,1400,dash,O,m,1131,7,1,25741.600000023842,264215.6999999881,7091,ATS,B,11
11,test,1,B,mfborder.png,1,m,Wed Mar 26 2025 15:32:34 GMT-0500 (Central Daylight Time),292672.89999997616,CFD-BM-037-041-A.jpg,2000,dash,O,m,677,5,1,28457.19999998808,264215.6999999881,7091,ATS,B,12
12,test,1,B,mfborder.png,1,m,Wed Mar 26 2025 15:32:34 GMT-0500 (Central Daylight Time),294889.0,CFD-BM-041-048-A.jpg,1600,dash,O,m,568,2,1,30673.30000001192,264215.6999999881,7091,ATS,B,13
13,test,1,B,mfborder.png,1,z,Wed Mar 26 2025 15:32:34 GMT-0500 (Central Daylight Time),297237.1999999881,CFD-WF-026-008-A.jpg,1500,dash,O,z,811,11,1,33021.5,264215.6999999881,7091,ATS,B,14
14,test,1,B,mfborder.png,1,m,Wed Mar 26 2025 15:32:34 GMT-0500 (Central Daylight Time),299653.6999999881,CFD-WM-012-007-HC.jpg,1600,dash,O,m,772,10,1,35438.0,264215.6999999881,7091,ATS,B,15
15,test,1,B,mfborder.png,1,m,Wed Mar 26 2025 15:32:34 GMT-0500 (Central Daylight Time),302352.59999996424,CFD-WM-009-009-A.jpg,1700,dash,O,m,960,9,1,38136.89999997616,264215.6999999881,7091,ATS,B,16
16,test,1,B,mfborder.png,1,z,Wed Mar 26 2025 15:32:34 GMT-0500 (Central Daylight Time),304069.5,CFD-WF-011-006-HC.jpg,1000,dash,O,z,672,12,1,39853.80000001192,264215.6999999881,7091,ATS,B,17
17,test,1,B,mfborder.png,1,z,Wed Mar 26 2025 15:32:34 GMT-0500 (Central Daylight Time),305785.09999996424,CFD-WF-011-006-HC.jpg,1000,dash,O,z,668,12,1,41569.39999997616,264215.6999999881,7091,ATS,B,18
18,test,1,B,mfborder.png,1,z,Wed Mar 26 2025 15:32:34 GMT-0500 (Central Daylight Time),308450.8000000119,CFD-BF-027-013-HC.jpg,1500,dash,O,z,1116,3,1,44235.10000002384,264215.6999999881,7091,ATS,B,19
19,test,1,B,mfborder.png,1,m,Wed Mar 26 2025 15:32:34 GMT-0500 (Central Daylight Time),310833.5,CFD-BM-020-024-HC.jpg,1700,dash,O,m,642,1,1,46617.80000001192,264215.6999999881,7091,ATS,B,20
19,test,1,B,mfborder.png,0,z,Wed Mar 26 2025 15:32:34 GMT-0500 (Central Daylight Time),313599.59999996424,CFD-BF-035-007-HC.jpg,1400,dash,O,m,1311,7,1,49383.89999997616,264215.6999999881,7091,ATS,B,21
20,test,1,B,mfborder.png,1,z,Wed Mar 26 2025 15:32:34 GMT-0500 (Central Daylight Time),315749.0,CFD-BF-027-013-HC.jpg,1500,dash,O,z,599,3,1,51533.30000001192,264215.6999999881,7091,ATS,B,22
21,test,1,B,mfborder.png,1,m,Wed Mar 26 2025 15:32:34 GMT-0500 (Central Daylight Time),318063.59999996424,CFD-BM-020-024-HC.jpg,1700,dash,O,m,576,1,1,53847.89999997616,264215.6999999881,7091,ATS,B,23
22,test,1,B,mfborder.png,1,m,Wed Mar 26 2025 15:32:34 GMT-0500 (Central Daylight Time),320447.0,CFD-WM-037-060-A.jpg,1200,dash,O,m,1144,6,1,56231.30000001192,264215.6999999881,7091,ATS,B,24
0,3,1,C,mfborder.png,0,z,Wed Mar 26 2025 15:32:34 GMT-0500 (Central Daylight Time),373946.3000000119,CFD-BF-035-007-HC.jpg,1000,dash,O,None,1514,prac,1,3332.400000035763,370613.89999997616,7091,ATS,B,1
1,8,1,C,haborder.png,1,z,Wed Mar 26 2025 15:32:34 GMT-0500 (Central Daylight Time),377961.8000000119,CFD-BF-050-012-A.jpg,1700,solid,O,z,1491,prac,1,7347.900000035763,370613.89999997616,7091,ATS,B,2
1,1,1,C,mfborder.png,0,z,Wed Mar 26 2025 15:32:34 GMT-0500 (Central Daylight Time),381860.3000000119,CFD-WF-011-006-HC.jpg,1600,dash,O,m,1480,prac,1,11246.400000035763,370613.89999997616,7091,ATS,B,3
1,7,1,C,haborder.png,0,z,Wed Mar 26 2025 15:32:34 GMT-0500 (Central Daylight Time),386075.39999997616,CFD-BF-051-043-A.jpg,1900,dash,O,None,1516,prac,1,15461.5,370613.89999997616,7091,ATS,B,4
1,11,1,C,haborder.png,0,m,Wed Mar 26 2025 15:32:34 GMT-0500 (Central Daylight Time),389191.0,CFD-WM-011-006-HC.jpg,1000,dash,O,z,1294,prac,1,18577.100000023842,370613.89999997616,7091,ATS,B,5
1,4,1,C,mfborder.png,0,m,Wed Mar 26 2025 15:32:34 GMT-0500 (Central Daylight Time),393522.6999999881,CFD-BM-015-017-HC.jpg,2000,solid,O,None,1514,prac,1,22908.80000001192,370613.89999997616,7091,ATS,B,6
2,10,1,C,haborder.png,1,m,Wed Mar 26 2025 15:32:34 GMT-0500 (Central Daylight Time),396871.6999999881,CFD-BM-020-024-HC.jpg,1500,solid,O,m,1018,prac,1,26257.80000001192,370613.89999997616,7091,ATS,B,7
3,12,1,C,haborder.png,1,m,Wed Mar 26 2025 15:32:34 GMT-0500 (Central Daylight Time),399821.0,CFD-WM-011-006-HC.jpg,1400,solid,O,m,745,prac,1,29207.100000023842,370613.89999997616,7091,ATS,B,8
4,9,1,C,haborder.png,1,z,Wed Mar 26 2025 15:32:34 GMT-0500 (Central Daylight Time),403369.8000000119,CFD-WF-026-008-A.jpg,1600,dash,O,z,1124,prac,1,32755.900000035763,370613.89999997616,7091,ATS,B,9
5,5,1,C,mfborder.png,1,m,Wed Mar 26 2025 15:32:34 GMT-0500 (Central Daylight Time),406768.8000000119,CFD-BM-037-041-A.jpg,1200,dash,O,m,1367,prac,1,36154.90000003576,370613.89999997616,7091,ATS,B,10
5,6,1,C,mfborder.png,0,m,Wed Mar 26 2025 15:32:34 GMT-0500 (Central Daylight Time),410467.5,CFD-WM-009-009-A.jpg,1700,solid,O,z,1182,prac,1,39853.60000002384,370613.89999997616,7091,ATS,B,11
5,2,1,C,mfborder.png,0,z,Wed Mar 26 2025 15:32:34 GMT-0500 (Central Daylight Time),414282.8000000119,CFD-WF-013-015-A.jpg,1500,solid,O,None,1514,prac,1,43668.90000003576,370613.89999997616,7091,ATS,B,12
0,6,2,C,mfborder.png,0,m,Wed Mar 26 2025 15:32:34 GMT-0500 (Central Daylight Time),430627.1999999881,CFD-WM-009-009-A.jpg,1700,solid,O,None,1515,prac,1,60013.30000001192,370613.89999997616,7091,ATS,B,1
1,2,2,C,mfborder.png,1,z,Wed Mar 26 2025 15:32:34 GMT-0500 (Central Daylight Time),433925.6999999881,CFD-WF-013-015-A.jpg,1500,solid,O,z,969,prac,1,63311.80000001192,370613.89999997616,7091,ATS,B,2
1,5,2,C,mfborder.png,0,m,Wed Mar 26 2025 15:32:34 GMT-0500 (Central Daylight Time),437425.3000000119,CFD-BM-037-041-A.jpg,1200,dash,O,None,1515,prac,1,66811.40000003576,370613.89999997616,7091,ATS,B,3
2,10,2,C,haborder.png,1,m,Wed Mar 26 2025 15:32:34 GMT-0500 (Central Daylight Time),440940.8000000119,CFD-BM-020-024-HC.jpg,1500,solid,O,m,1195,prac,1,70326.90000003576,370613.89999997616,7091,ATS,B,4
3,9,2,C,haborder.png,1,z,Wed Mar 26 2025 15:32:34 GMT-0500 (Central Daylight Time),444256.8000000119,CFD-WF-026-008-A.jpg,1600,dash,O,z,884,prac,1,73642.90000003576,370613.89999997616,7091,ATS,B,5
4,12,2,C,haborder.png,1,m,Wed Mar 26 2025 15:32:34 GMT-0500 (Central Daylight Time),447371.5,CFD-WM-011-006-HC.jpg,1400,solid,O,m,903,prac,1,76757.60000002384,370613.89999997616,7091,ATS,B,6
5,11,2,C,haborder.png,1,m,Wed Mar 26 2025 15:32:34 GMT-0500 (Central Daylight Time),450038.09999996424,CFD-WM-011-006-HC.jpg,1000,dash,O,m,863,prac,1,79424.19999998808,370613.89999997616,7091,ATS,B,7
5,4,2,C,mfborder.png,0,m,Wed Mar 26 2025 15:32:34 GMT-0500 (Central Daylight Time),454286.3000000119,CFD-BM-015-017-HC.jpg,2000,solid,O,z,1427,prac,1,83672.40000003576,370613.89999997616,7091,ATS,B,8
6,7,2,C,haborder.png,1,z,Wed Mar 26 2025 15:32:34 GMT-0500 (Central Daylight Time),458085.39999997616,CFD-BF-051-043-A.jpg,1900,dash,O,z,1071,prac,1,87471.5,370613.89999997616,7091,ATS,B,9
7,8,2,C,haborder.png,1,z,Wed Mar 26 2025 15:32:34 GMT-0500 (Central Daylight Time),461600.59999996424,CFD-BF-050-012-A.jpg,1700,solid,O,z,985,prac,1,90986.69999998808,370613.89999997616,7091,ATS,B,10
7,3,2,C,mfborder.png,0,z,Wed Mar 26 2025 15:32:34 GMT-0500 (Central Daylight Time),464649.6999999881,CFD-BF-035-007-HC.jpg,1000,dash,O,m,1224,prac,1,94035.80000001192,370613.89999997616,7091,ATS,B,11
7,1,2,C,mfborder.png,0,z,Wed Mar 26 2025 15:32:34 GMT-0500 (Central Daylight Time),468581.5,CFD-WF-011-006-HC.jpg,1600,dash,O,None,1514,prac,1,97967.60000002384,370613.89999997616,7091,ATS,B,12
1,test,1,C,haborder.png,1,m,Wed Mar 26 2025 15:32:34 GMT-0500 (Central Daylight Time),496672.59999996424,CFD-WF-027-007-HC.jpg,1500,solid,O,m,1494,11,1,3032.2999999523163,493640.3000000119,7091,ATS,B,1
2,test,1,C,mfborder.png,1,m,Wed Mar 26 2025 15:32:34 GMT-0500 (Central Daylight Time),499954.6999999881,CFD-WM-037-060-A.jpg,2000,dash,O,m,1212,5,1,6314.399999976158,493640.3000000119,7091,ATS,B,2
2,test,1,C,mfborder.png,0,m,Wed Mar 26 2025 15:32:34 GMT-0500 (Central Daylight Time),502503.8000000119,CFD-WM-012-007-HC.jpg,1000,dash,O,None,1515,4,1,8863.5,493640.3000000119,7091,ATS,B,3
3,test,1,C,mfborder.png,1,m,Wed Mar 26 2025 15:32:34 GMT-0500 (Central Daylight Time),504653.09999996424,CFD-BM-020-024-HC.jpg,1200,dash,O,m,915,6,1,11012.799999952316,493640.3000000119,7091,ATS,B,4
4,test,1,C,haborder.png,1,z,Wed Mar 26 2025 15:32:34 GMT-0500 (Central Daylight Time),507435.39999997616,CFD-WM-009-009-A.jpg,1400,solid,O,z,1340,7,1,13795.099999964237,493640.3000000119,7091,ATS,B,5
5,test,1,C,mfborder.png,1,z,Wed Mar 26 2025 15:32:34 GMT-0500 (Central Daylight Time),510434.5,CFD-WF-026-008-A.jpg,1500,dash,O,z,1450,3,1,16794.19999998808,493640.3000000119,7091,ATS,B,6
5,test,1,C,haborder.png,0,m,Wed Mar 26 2025 15:32:34 GMT-0500 (Central Daylight Time),512400.5,CFD-WF-011-006-HC.jpg,1000,solid,O,z,927,12,1,18760.19999998808,493640.3000000119,7091,ATS,B,7
5,test,1,C,haborder.png,0,m,Wed Mar 26 2025 15:32:34 GMT-0500 (Central Daylight Time),515549.5,CFD-BF-035-007-HC.jpg,1600,solid,O,None,1514,10,1,21909.19999998808,493640.3000000119,7091,ATS,B,8
5,test,1,C,haborder.png,0,m,Wed Mar 26 2025 15:32:34 GMT-0500 (Central Daylight Time),518165.3000000119,CFD-WF-027-007-HC.jpg,1500,solid,O,z,1072,11,1,24525.0,493640.3000000119,7091,ATS,B,9
5,test,1,C,mfborder.png,0,m,Wed Mar 26 2025 15:32:34 GMT-0500 (Central Daylight Time),521714.09999996424,CFD-WM-037-060-A.jpg,2000,dash,O,None,1515,5,1,28073.799999952316,493640.3000000119,7091,ATS,B,10
5,test,1,C,haborder.png,0,z,Wed Mar 26 2025 15:32:34 GMT-0500 (Central Daylight Time),524201.89999997616,CFD-WM-009-009-A.jpg,1400,solid,O,m,1031,7,1,30561.599999964237,493640.3000000119,7091,ATS,B,11
5,test,1,C,haborder.png,0,z,Wed Mar 26 2025 15:32:34 GMT-0500 (Central Daylight Time),527145.6999999881,CFD-BM-041-048-A.jpg,1700,solid,O,m,1201,9,1,33505.39999997616,493640.3000000119,7091,ATS,B,12
6,test,1,C,haborder.png,1,z,Wed Mar 26 2025 15:32:34 GMT-0500 (Central Daylight Time),530061.3999999762,CFD-BM-037-041-A.jpg,1900,solid,O,z,956,8,1,36421.09999996424,493640.3000000119,7091,ATS,B,13
6,test,1,C,mfborder.png,0,z,Wed Mar 26 2025 15:32:34 GMT-0500 (Central Daylight Time),533310.3000000119,CFD-BF-027-013-HC.jpg,1700,dash,O,None,1514,1,1,39670.0,493640.3000000119,7091,ATS,B,14
7,test,1,C,mfborder.png,1,m,Wed Mar 26 2025 15:32:34 GMT-0500 (Central Daylight Time),535926.0,CFD-BM-020-024-HC.jpg,1200,dash,O,m,1381,6,1,42285.69999998808,493640.3000000119,7091,ATS,B,15
8,test,1,C,haborder.png,1,m,Wed Mar 26 2025 15:32:34 GMT-0500 (Central Daylight Time),538958.5,CFD-BF-035-007-HC.jpg,1600,solid,O,m,1372,10,1,45318.19999998808,493640.3000000119,7091,ATS,B,16
8,test,1,C,haborder.png,0,m,Wed Mar 26 2025 15:32:34 GMT-0500 (Central Daylight Time),541524.3000000119,CFD-WF-011-006-HC.jpg,1000,solid,O,None,1514,12,1,47884.0,493640.3000000119,7091,ATS,B,17
8,test,1,C,haborder.png,0,z,Wed Mar 26 2025 15:32:34 GMT-0500 (Central Daylight Time),544023.1999999881,CFD-BM-041-048-A.jpg,1700,solid,O,m,761,9,1,50382.89999997616,493640.3000000119,7091,ATS,B,18
8,test,1,C,mfborder.png,0,m,Wed Mar 26 2025 15:32:34 GMT-0500 (Central Daylight Time),546072.8999999762,CFD-WM-012-007-HC.jpg,1000,dash,O,z,1001,4,1,52432.59999996424,493640.3000000119,7091,ATS,B,19
9,test,1,C,mfborder.png,1,z,Wed Mar 26 2025 15:32:34 GMT-0500 (Central Daylight Time),548789.1999999881,CFD-BF-051-043-A.jpg,1600,dash,O,z,1082,2,1,55148.89999997616,493640.3000000119,7091,ATS,B,20
10,test,1,C,mfborder.png,1,z,Wed Mar 26 2025 15:32:34 GMT-0500 (Central Daylight Time),551354.3999999762,CFD-WF-026-008-A.jpg,1500,dash,O,z,1017,3,1,57714.09999996424,493640.3000000119,7091,ATS,B,21
11,test,1,C,mfborder.png,1,z,Wed Mar 26 2025 15:32:34 GMT-0500 (Central Daylight Time),553803.5999999642,CFD-BF-051-043-A.jpg,1600,dash,O,z,783,2,1,60163.299999952316,493640.3000000119,7091,ATS,B,22
11,test,1,C,mfborder.png,0,z,Wed Mar 26 2025 15:32:34 GMT-0500 (Central Daylight Time),556919.3999999762,CFD-BF-027-013-HC.jpg,1700,dash,O,m,1378,1,1,63279.09999996424,493640.3000000119,7091,ATS,B,23
11,test,1,C,haborder.png,0,z,Wed Mar 26 2025 15:32:34 GMT-0500 (Central Daylight Time),560385.1999999881,CFD-BM-037-041-A.jpg,1900,solid,O,None,1515,8,1,66744.89999997616,493640.3000000119,7091,ATS,B,24
0,test,2,C,haborder.png,0,m,Wed Mar 26 2025 15:32:34 GMT-0500 (Central Daylight Time),570032.0,CFD-WM-011-006-HC.jpg,1000,solid,O,None,1510,12,1,2566.0,567466.0,7091,ATS,B,1
0,test,2,C,haborder.png,0,m,Wed Mar 26 2025 15:32:34 GMT-0500 (Central Daylight Time),572597.5999999642,CFD-WM-011-006-HC.jpg,1000,solid,O,None,1503,12,1,5131.599999964237,567466.0,7091,ATS,B,2
0,test,2,C,haborder.png,0,z,Wed Mar 26 2025 15:32:34 GMT-0500 (Central Daylight Time),575546.3999999762,CFD-BF-051-043-A.jpg,1400,solid,O,None,1514,7,1,8080.399999976158,567466.0,7091,ATS,B,3
1,test,2,C,mfborder.png,1,m,Wed Mar 26 2025 15:32:34 GMT-0500 (Central Daylight Time),577629.0999999642,CFD-BM-015-017-HC.jpg,1000,dash,O,m,1040,4,1,10163.099999964237,567466.0,7091,ATS,B,4
2,test,2,C,haborder.png,1,z,Wed Mar 26 2025 15:32:34 GMT-0500 (Central Daylight Time),579895.0999999642,CFD-BF-051-043-A.jpg,1400,solid,O,z,828,7,1,12429.099999964237,567466.0,7091,ATS,B,5
3,test,2,C,haborder.png,1,m,Wed Mar 26 2025 15:32:34 GMT-0500 (Central Daylight Time),582677.3000000119,CFD-BM-020-024-HC.jpg,1600,solid,O,m,1147,10,1,15211.300000011921,567466.0,7091,ATS,B,6
3,test,2,C,mfborder.png,0,z,Wed Mar 26 2025 15:32:34 GMT-0500 (Central Daylight Time),585943.0999999642,CFD-WF-011-006-HC.jpg,1700,dash,O,None,1515,1,1,18477.099999964237,567466.0,7091,ATS,B,7
4,test,2,C,haborder.png,1,z,Wed Mar 26 2025 15:32:34 GMT-0500 (Central Daylight Time),588730.5999999642,CFD-WF-026-008-A.jpg,1700,solid,O,z,1032,9,1,21264.599999964237,567466.0,7091,ATS,B,8
5,test,2,C,mfborder.png,1,m,Wed Mar 26 2025 15:32:34 GMT-0500 (Central Daylight Time),591291.3999999762,CFD-WM-009-009-A.jpg,1200,dash,O,m,1324,6,1,23825.399999976158,567466.0,7091,ATS,B,9
6,test,2,C,haborder.png,1,m,Wed Mar 26 2025 15:32:34 GMT-0500 (Central Daylight Time),594257.0,CFD-WM-011-006-HC.jpg,1500,solid,O,m,1426,11,1,26791.0,567466.0,7091,ATS,B,10
7,test,2,C,mfborder.png,1,z,Wed Mar 26 2025 15:32:34 GMT-0500 (Central Daylight Time),597005.8999999762,CFD-WF-013-015-A.jpg,1600,dash,O,z,1114,2,1,29539.899999976158,567466.0,7091,ATS,B,11
8,test,2,C,mfborder.png,1,m,Wed Mar 26 2025 15:32:34 GMT-0500 (Central Daylight Time),599605.5,CFD-WM-009-009-A.jpg,1200,dash,O,m,1357,6,1,32139.5,567466.0,7091,ATS,B,12
9,test,2,C,mfborder.png,1,m,Wed Mar 26 2025 15:32:34 GMT-0500 (Central Daylight Time),603087.3999999762,CFD-BM-037-041-A.jpg,2000,dash,O,m,1445,5,1,35621.39999997616,567466.0,7091,ATS,B,13
10,test,2,C,mfborder.png,1,z,Wed Mar 26 2025 15:32:34 GMT-0500 (Central Daylight Time),605936.5999999642,CFD-BF-035-007-HC.jpg,1500,dash,O,z,1302,3,1,38470.59999996424,567466.0,7091,ATS,B,14
11,test,2,C,haborder.png,1,z,Wed Mar 26 2025 15:32:34 GMT-0500 (Central Daylight Time),609168.8000000119,CFD-BF-050-012-A.jpg,1900,solid,O,z,1292,8,1,41702.80000001192,567466.0,7091,ATS,B,15
12,test,2,C,haborder.png,1,m,Wed Mar 26 2025 15:32:34 GMT-0500 (Central Daylight Time),611884.6999999881,CFD-BM-020-024-HC.jpg,1600,solid,O,m,1049,10,1,44418.69999998808,567466.0,7091,ATS,B,16
13,test,2,C,mfborder.png,1,m,Wed Mar 26 2025 15:32:34 GMT-0500 (Central Daylight Time),614383.6999999881,CFD-BM-015-017-HC.jpg,1000,dash,O,m,1453,4,1,46917.69999998808,567466.0,7091,ATS,B,17
13,test,2,C,mfborder.png,0,z,Wed Mar 26 2025 15:32:34 GMT-0500 (Central Daylight Time),617433.0,CFD-BF-035-007-HC.jpg,1500,dash,O,None,1515,3,1,49967.0,567466.0,7091,ATS,B,18
14,test,2,C,haborder.png,1,z,Wed Mar 26 2025 15:32:34 GMT-0500 (Central Daylight Time),620281.8999999762,CFD-BF-050-012-A.jpg,1900,solid,O,z,901,8,1,52815.89999997616,567466.0,7091,ATS,B,19
14,test,2,C,mfborder.png,0,z,Wed Mar 26 2025 15:32:34 GMT-0500 (Central Daylight Time),623430.5999999642,CFD-WF-013-015-A.jpg,1600,dash,O,None,1514,2,1,55964.59999996424,567466.0,7091,ATS,B,20
14,test,2,C,mfborder.png,0,z,Wed Mar 26 2025 15:32:34 GMT-0500 (Central Daylight Time),626679.5999999642,CFD-WF-011-006-HC.jpg,1700,dash,O,None,1514,1,1,59213.59999996424,567466.0,7091,ATS,B,21
15,test,2,C,haborder.png,1,z,Wed Mar 26 2025 15:32:34 GMT-0500 (Central Daylight Time),629845.3000000119,CFD-WF-026-008-A.jpg,1700,solid,O,z,1421,9,1,62379.30000001192,567466.0,7091,ATS,B,22
16,test,2,C,mfborder.png,1,m,Wed Mar 26 2025 15:32:34 GMT-0500 (Central Daylight Time),633061.3999999762,CFD-BM-037-041-A.jpg,2000,dash,O,m,1164,5,1,65595.39999997616,567466.0,7091,ATS,B,23
17,test,2,C,haborder.png,1,m,Wed Mar 26 2025 15:32:34 GMT-0500 (Central Daylight Time),636043.3000000119,CFD-WM-011-006-HC.jpg,1500,solid,O,m,1433,11,1,68577.30000001192,567466.0,7091,ATS,B,24
0,test,3,C,mfborder.png,0,m,Wed Mar 26 2025 15:32:34 GMT-0500 (Central Daylight Time),646289.5,CFD-WM-012-007-HC.jpg,1000,dash,O,None,1514,4,1,2565.199999988079,643724.3000000119,7091,ATS,B,1
1,test,3,C,mfborder.png,1,m,Wed Mar 26 2025 15:32:34 GMT-0500 (Central Daylight Time),648489.3999999762,CFD-BM-020-024-HC.jpg,1200,dash,O,m,937,6,1,4765.099999964237,643724.3000000119,7091,ATS,B,2
1,test,3,C,mfborder.png,0,z,Wed Mar 26 2025 15:32:34 GMT-0500 (Central Daylight Time),651538.0999999642,CFD-WF-026-008-A.jpg,1500,dash,O,None,1515,3,1,7813.799999952316,643724.3000000119,7091,ATS,B,3
1,test,3,C,haborder.png,0,m,Wed Mar 26 2025 15:32:34 GMT-0500 (Central Daylight Time),654703.0,CFD-BF-035-007-HC.jpg,1600,solid,O,None,1505,10,1,10978.699999988079,643724.3000000119,7091,ATS,B,4
2,test,3,C,mfborder.png,1,m,Wed Mar 26 2025 15:32:34 GMT-0500 (Central Daylight Time),656953.0999999642,CFD-BM-020-024-HC.jpg,1200,dash,O,m,1028,6,1,13228.799999952316,643724.3000000119,7091,ATS,B,5
3,test,3,C,mfborder.png,1,m,Wed Mar 26 2025 15:32:34 GMT-0500 (Central Daylight Time),659935.3999999762,CFD-WM-037-060-A.jpg,2000,dash,O,m,945,5,1,16211.099999964237,643724.3000000119,7091,ATS,B,6
4,test,3,C,mfborder.png,1,z,Wed Mar 26 2025 15:32:34 GMT-0500 (Central Daylight Time),662817.8000000119,CFD-BF-027-013-HC.jpg,1700,dash,O,z,1143,1,1,19093.5,643724.3000000119,7091,ATS,B,7
4,test,3,C,haborder.png,0,z,Wed Mar 26 2025 15:32:34 GMT-0500 (Central Daylight Time),665900.1999999881,CFD-BM-041-048-A.jpg,1700,solid,O,m,1340,9,1,22175.899999976158,643724.3000000119,7091,ATS,B,8
4,test,3,C,haborder.png,0,m,Wed Mar 26 2025 15:32:34 GMT-0500 (Central Daylight Time),668749.3000000119,CFD-WF-027-007-HC.jpg,1500,solid,O,z,1306,11,1,25025.0,643724.3000000119,7091,ATS,B,9
5,test,3,C,haborder.png,1,m,Wed Mar 26 2025 15:32:34 GMT-0500 (Central Daylight Time),670765.1999999881,CFD-WF-011-006-HC.jpg,1000,solid,O,m,973,12,1,27040.899999976158,643724.3000000119,7091,ATS,B,10
6,test,3,C,mfborder.png,1,m,Wed Mar 26 2025 15:32:34 GMT-0500 (Central Daylight Time),674114.1999999881,CFD-WM-037-060-A.jpg,2000,dash,O,m,1301,5,1,30389.899999976158,643724.3000000119,7091,ATS,B,11
7,test,3,C,haborder.png,1,m,Wed Mar 26 2025 15:32:34 GMT-0500 (Central Daylight Time),676747.8000000119,CFD-WF-027-007-HC.jpg,1500,solid,O,m,1092,11,1,33023.5,643724.3000000119,7091,ATS,B,12
8,test,3,C,mfborder.png,1,z,Wed Mar 26 2025 15:32:34 GMT-0500 (Central Daylight Time),679578.8999999762,CFD-WF-026-008-A.jpg,1500,dash,O,z,1291,3,1,35854.59999996424,643724.3000000119,7091,ATS,B,13
9,test,3,C,haborder.png,1,z,Wed Mar 26 2025 15:32:34 GMT-0500 (Central Daylight Time),682711.1999999881,CFD-BM-041-048-A.jpg,1700,solid,O,z,1395,9,1,38986.89999997616,643724.3000000119,7091,ATS,B,14
10,test,3,C,mfborder.png,1,m,Wed Mar 26 2025 15:32:34 GMT-0500 (Central Daylight Time),684877.1999999881,CFD-WM-012-007-HC.jpg,1000,dash,O,m,1091,4,1,41152.89999997616,643724.3000000119,7091,ATS,B,15
11,test,3,C,haborder.png,1,z,Wed Mar 26 2025 15:32:34 GMT-0500 (Central Daylight Time),687863.3000000119,CFD-BM-037-041-A.jpg,1900,solid,O,z,1016,8,1,44139.0,643724.3000000119,7091,ATS,B,16
11,test,3,C,mfborder.png,0,z,Wed Mar 26 2025 15:32:34 GMT-0500 (Central Daylight Time),691008.6999999881,CFD-BF-051-043-A.jpg,1600,dash,O,None,1514,2,1,47284.39999997616,643724.3000000119,7091,ATS,B,17
12,test,3,C,mfborder.png,1,z,Wed Mar 26 2025 15:32:34 GMT-0500 (Central Daylight Time),693740.8000000119,CFD-BF-051-043-A.jpg,1600,dash,O,z,1089,2,1,50016.5,643724.3000000119,7091,ATS,B,18
12,test,3,C,haborder.png,0,m,Wed Mar 26 2025 15:32:34 GMT-0500 (Central Daylight Time),696906.8000000119,CFD-BF-035-007-HC.jpg,1600,solid,O,None,1514,10,1,53182.5,643724.3000000119,7091,ATS,B,19
12,test,3,C,haborder.png,0,z,Wed Mar 26 2025 15:32:34 GMT-0500 (Central Daylight Time),699855.8999999762,CFD-WM-009-009-A.jpg,1400,solid,O,None,1515,7,1,56131.59999996424,643724.3000000119,7091,ATS,B,20
13,test,3,C,mfborder.png,1,z,Wed Mar 26 2025 15:32:34 GMT-0500 (Central Daylight Time),702638.0999999642,CFD-BF-027-013-HC.jpg,1700,dash,O,z,1039,1,1,58913.799999952316,643724.3000000119,7091,ATS,B,21
13,test,3,C,haborder.png,0,z,Wed Mar 26 2025 15:32:34 GMT-0500 (Central Daylight Time),705370.3999999762,CFD-WM-009-009-A.jpg,1400,solid,O,m,1292,7,1,61646.09999996424,643724.3000000119,7091,ATS,B,22
13,test,3,C,haborder.png,0,m,Wed Mar 26 2025 15:32:34 GMT-0500 (Central Daylight Time),707936.5,CFD-WF-011-006-HC.jpg,1000,solid,O,None,1514,12,1,64212.19999998808,643724.3000000119,7091,ATS,B,23
14,test,3,C,haborder.png,1,z,Wed Mar 26 2025 15:32:34 GMT-0500 (Central Daylight Time),711318.3999999762,CFD-BM-037-041-A.jpg,1900,solid,O,z,1445,8,1,67594.09999996424,643724.3000000119,7091,ATS,B,24
1,test,4,C,haborder.png,1,z,Wed Mar 26 2025 15:32:34 GMT-0500 (Central Daylight Time),719099.5,CFD-WF-026-008-A.jpg,1700,solid,O,z,1416,9,1,3149.699999988079,715949.8000000119,7091,ATS,B,1
2,test,4,C,haborder.png,1,m,Wed Mar 26 2025 15:32:34 GMT-0500 (Central Daylight Time),721798.1999999881,CFD-BM-020-024-HC.jpg,1600,solid,O,m,1035,10,1,5848.399999976158,715949.8000000119,7091,ATS,B,2
3,test,4,C,haborder.png,1,z,Wed Mar 26 2025 15:32:34 GMT-0500 (Central Daylight Time),724730.5999999642,CFD-BF-050-012-A.jpg,1900,solid,O,z,991,8,1,8780.799999952316,715949.8000000119,7091,ATS,B,3
4,test,4,C,mfborder.png,1,z,Wed Mar 26 2025 15:32:34 GMT-0500 (Central Daylight Time),727496.5999999642,CFD-WF-011-006-HC.jpg,1700,dash,O,z,1011,1,1,11546.799999952316,715949.8000000119,7091,ATS,B,4
5,test,4,C,mfborder.png,1,m,Wed Mar 26 2025 15:32:34 GMT-0500 (Central Daylight Time),729812.0,CFD-WM-009-009-A.jpg,1200,dash,O,m,1072,6,1,13862.199999988079,715949.8000000119,7091,ATS,B,5
6,test,4,C,mfborder.png,1,z,Wed Mar 26 2025 15:32:34 GMT-0500 (Central Daylight Time),732494.8000000119,CFD-WF-013-015-A.jpg,1600,dash,O,z,1045,2,1,16545.0,715949.8000000119,7091,ATS,B,6
7,test,4,C,haborder.png,1,z,Wed Mar 26 2025 15:32:34 GMT-0500 (Central Daylight Time),734860.6999999881,CFD-BF-051-043-A.jpg,1400,solid,O,z,923,7,1,18910.899999976158,715949.8000000119,7091,ATS,B,7
8,test,4,C,haborder.png,1,m,Wed Mar 26 2025 15:32:34 GMT-0500 (Central Daylight Time),736693.6999999881,CFD-WM-011-006-HC.jpg,1000,solid,O,m,759,12,1,20743.899999976158,715949.8000000119,7091,ATS,B,8
9,test,4,C,mfborder.png,1,m,Wed Mar 26 2025 15:32:34 GMT-0500 (Central Daylight Time),738958.5,CFD-BM-015-017-HC.jpg,1000,dash,O,m,1219,4,1,23008.69999998808,715949.8000000119,7091,ATS,B,9
10,test,4,C,haborder.png,1,z,Wed Mar 26 2025 15:32:34 GMT-0500 (Central Daylight Time),741941.3000000119,CFD-WF-026-008-A.jpg,1700,solid,O,z,1263,9,1,25991.5,715949.8000000119,7091,ATS,B,10
11,test,4,C,haborder.png,1,z,Wed Mar 26 2025 15:32:34 GMT-0500 (Central Daylight Time),744791.0999999642,CFD-BF-051-043-A.jpg,1400,solid,O,z,1421,7,1,28841.299999952316,715949.8000000119,7091,ATS,B,11
12,test,4,C,mfborder.png,1,m,Wed Mar 26 2025 15:32:34 GMT-0500 (Central Daylight Time),747040.0999999642,CFD-BM-015-017-HC.jpg,1000,dash,O,m,1203,4,1,31090.299999952316,715949.8000000119,7091,ATS,B,12
13,test,4,C,mfborder.png,1,z,Wed Mar 26 2025 15:32:34 GMT-0500 (Central Daylight Time),749821.6999999881,CFD-WF-013-015-A.jpg,1600,dash,O,z,1128,2,1,33871.89999997616,715949.8000000119,7091,ATS,B,13
14,test,4,C,haborder.png,1,m,Wed Mar 26 2025 15:32:34 GMT-0500 (Central Daylight Time),751754.3999999762,CFD-WM-011-006-HC.jpg,1000,solid,O,m,909,12,1,35804.59999996424,715949.8000000119,7091,ATS,B,14
15,test,4,C,haborder.png,1,z,Wed Mar 26 2025 15:32:34 GMT-0500 (Central Daylight Time),754837.0,CFD-BF-050-012-A.jpg,1900,solid,O,z,1154,8,1,38887.19999998808,715949.8000000119,7091,ATS,B,15
16,test,4,C,mfborder.png,1,z,Wed Mar 26 2025 15:32:34 GMT-0500 (Central Daylight Time),757637.0999999642,CFD-WF-011-006-HC.jpg,1700,dash,O,z,1065,1,1,41687.299999952316,715949.8000000119,7091,ATS,B,16
17,test,4,C,haborder.png,1,m,Wed Mar 26 2025 15:32:34 GMT-0500 (Central Daylight Time),760318.8999999762,CFD-BM-020-024-HC.jpg,1600,solid,O,m,1046,10,1,44369.09999996424,715949.8000000119,7091,ATS,B,17
17,test,4,C,mfborder.png,0,z,Wed Mar 26 2025 15:32:34 GMT-0500 (Central Daylight Time),763318.0999999642,CFD-BF-035-007-HC.jpg,1500,dash,O,m,1457,3,1,47368.299999952316,715949.8000000119,7091,ATS,B,18
17,test,4,C,mfborder.png,0,m,Wed Mar 26 2025 15:32:34 GMT-0500 (Central Daylight Time),766067.5999999642,CFD-WM-009-009-A.jpg,1200,dash,O,None,1515,6,1,50117.799999952316,715949.8000000119,7091,ATS,B,19
17,test,4,C,haborder.png,0,m,Wed Mar 26 2025 15:32:34 GMT-0500 (Central Daylight Time),769116.3999999762,CFD-WM-011-006-HC.jpg,1500,solid,O,None,1514,11,1,53166.59999996424,715949.8000000119,7091,ATS,B,20
17,test,4,C,mfborder.png,0,z,Wed Mar 26 2025 15:32:34 GMT-0500 (Central Daylight Time),771965.5,CFD-BF-035-007-HC.jpg,1500,dash,O,m,1306,3,1,56015.69999998808,715949.8000000119,7091,ATS,B,21
18,test,4,C,mfborder.png,1,m,Wed Mar 26 2025 15:32:34 GMT-0500 (Central Daylight Time),775097.5999999642,CFD-BM-037-041-A.jpg,2000,dash,O,m,1093,5,1,59147.799999952316,715949.8000000119,7091,ATS,B,22
19,test,4,C,mfborder.png,1,m,Wed Mar 26 2025 15:32:34 GMT-0500 (Central Daylight Time),777880.0999999642,CFD-BM-037-041-A.jpg,2000,dash,O,m,736,5,1,61930.299999952316,715949.8000000119,7091,ATS,B,23
19,test,4,C,haborder.png,0,m,Wed Mar 26 2025 15:32:34 GMT-0500 (Central Daylight Time),780862.1999999881,CFD-WM-011-006-HC.jpg,1500,solid,O,z,1446,11,1,64912.39999997616,715949.8000000119,7091,ATS,B,24
