Number,acc_sum,block,block_c,block_cond,con_img,correct,correct_response,datetime,endtime,jitter,project,response,response_time,row_sel,session_number,start_end,starttime,subject_id,task,task_vers,trial
4,0,prac,1,A,circle.png,0,z,Fri Mar 21 2025 14:46:51 GMT-0500 (Central Daylight Time),81056.80000001192,1400,O,None,1515,4,1,3693.600000023842,77363.19999998808,7117,NTS,B,1
6,0,prac,1,A,circle.png,0,m,Fri Mar 21 2025 14:46:51 GMT-0500 (Central Daylight Time),85255.30000001192,1900,O,None,1515,5,1,4192.4000000059605,81062.90000000596,7117,NTS,B,2
9,1,prac,1,A,circle.png,1,m,Fri Mar 21 2025 14:46:51 GMT-0500 (Central Daylight Time),88354.30000001192,1500,O,m,802,8,1,3093.600000023842,85260.69999998808,7117,NTS,B,3
6,2,prac,1,A,circle.png,1,m,Fri Mar 21 2025 14:46:51 GMT-0500 (Central Daylight Time),92253.30000001192,1900,O,m,1200,5,1,3893.300000011921,88360.0,7117,NTS,B,4
8,3,prac,1,A,circle.png,1,m,Fri Mar 21 2025 14:46:51 GMT-0500 (Central Daylight Time),95335.5,1600,O,m,696,7,1,3075.9000000059605,92259.59999999404,7117,NTS,B,5
7,4,prac,1,A,circle.png,1,m,Fri Mar 21 2025 14:46:51 GMT-0500 (Central Daylight Time),98600.90000000596,1700,O,m,779,6,1,3259.7000000178814,95341.19999998808,7117,NTS,B,6
2,5,prac,1,A,circle.png,1,z,Fri Mar 21 2025 14:46:51 GMT-0500 (Central Daylight Time),102250.09999999404,2000,O,z,861,2,1,3643.699999988079,98606.40000000596,7117,NTS,B,7
7,6,prac,1,A,circle.png,1,m,Fri Mar 21 2025 14:46:51 GMT-0500 (Central Daylight Time),105582.5,1700,O,m,848,6,1,3327.199999988079,102255.30000001192,7117,NTS,B,8
3,7,prac,1,A,circle.png,1,z,Fri Mar 21 2025 14:46:51 GMT-0500 (Central Daylight Time),108847.80000001192,1200,O,z,1272,3,1,3259.600000023842,105588.19999998808,7117,NTS,B,9
3,8,prac,1,A,circle.png,1,z,Fri Mar 21 2025 14:46:51 GMT-0500 (Central Daylight Time),111813.5,1200,O,z,982,3,1,2960.300000011921,108853.19999998808,7117,NTS,B,10
1,9,prac,1,A,circle.png,1,z,Fri Mar 21 2025 14:46:51 GMT-0500 (Central Daylight Time),114647.0,1000,O,z,1040,1,1,2828.0999999940395,111818.90000000596,7117,NTS,B,11
4,9,prac,1,A,circle.png,0,z,Fri Mar 21 2025 14:46:51 GMT-0500 (Central Daylight Time),118345.09999999404,1400,O,None,1514,4,1,3692.5999999940395,114652.5,7117,NTS,B,12
8,1,prac,1,B,triangle.png,1,m,Fri Mar 21 2025 14:46:51 GMT-0500 (Central Daylight Time),165413.69999998808,1200,O,m,1478,7,1,3444.5,161969.19999998808,7117,NTS,B,1
1,2,prac,1,B,triangle.png,1,z,Fri Mar 21 2025 14:46:51 GMT-0500 (Central Daylight Time),168829.0,1900,O,z,725,1,1,3409.9000000059605,165419.09999999404,7117,NTS,B,2
8,3,prac,1,B,triangle.png,1,m,Fri Mar 21 2025 14:46:51 GMT-0500 (Central Daylight Time),171894.5,1200,O,m,1081,7,1,3060.199999988079,168834.30000001192,7117,NTS,B,3
7,3,prac,1,B,triangle.png,0,z,Fri Mar 21 2025 14:46:51 GMT-0500 (Central Daylight Time),176177.90000000596,2000,O,None,1516,6,1,4278.300000011921,171899.59999999404,7117,NTS,B,4
7,4,prac,1,B,triangle.png,1,z,Fri Mar 21 2025 14:46:51 GMT-0500 (Central Daylight Time),179608.90000000596,2000,O,z,638,6,1,3425.5999999940395,176183.30000001192,7117,NTS,B,5
3,5,prac,1,B,triangle.png,1,z,Fri Mar 21 2025 14:46:51 GMT-0500 (Central Daylight Time),182791.5,1600,O,z,798,3,1,3176.9000000059605,179614.59999999404,7117,NTS,B,6
2,6,prac,1,B,triangle.png,1,m,Fri Mar 21 2025 14:46:51 GMT-0500 (Central Daylight Time),186173.59999999404,1700,O,m,891,2,1,3376.5999999940395,182797.0,7117,NTS,B,7
1,7,prac,1,B,triangle.png,1,z,Fri Mar 21 2025 14:46:51 GMT-0500 (Central Daylight Time),189689.30000001192,1900,O,z,710,1,1,3510.600000023842,186178.69999998808,7117,NTS,B,8
4,8,prac,1,B,triangle.png,1,m,Fri Mar 21 2025 14:46:51 GMT-0500 (Central Daylight Time),192971.19999998808,1500,O,m,993,4,1,3276.2999999821186,189694.90000000596,7117,NTS,B,9
9,8,prac,1,B,triangle.png,0,z,Fri Mar 21 2025 14:46:51 GMT-0500 (Central Daylight Time),195920.59999999404,1400,O,m,763,8,1,2944.5,192976.09999999404,7117,NTS,B,10
4,9,prac,1,B,triangle.png,1,m,Fri Mar 21 2025 14:46:51 GMT-0500 (Central Daylight Time),199602.80000001192,1500,O,m,1386,4,1,3677.0,195925.80000001192,7117,NTS,B,11
6,10,prac,1,B,triangle.png,1,m,Fri Mar 21 2025 14:46:51 GMT-0500 (Central Daylight Time),202602.0,1000,O,m,1211,5,1,2994.4000000059605,199607.59999999404,7117,NTS,B,12
9,1,test,1,A,circle.png,1,m,Fri Mar 21 2025 14:46:51 GMT-0500 (Central Daylight Time),242390.40000000596,1500,O,m,1251,8,1,2779.0,239611.40000000596,7117,NTS,B,1
2,2,test,1,A,circle.png,1,z,Fri Mar 21 2025 14:46:51 GMT-0500 (Central Daylight Time),245121.59999999404,2000,O,z,713,2,1,2727.199999988079,242394.40000000596,7117,NTS,B,2
6,3,test,1,A,circle.png,1,m,Fri Mar 21 2025 14:46:51 GMT-0500 (Central Daylight Time),248337.40000000596,1900,O,m,1288,5,1,3212.2000000178814,245125.19999998808,7117,NTS,B,3
8,4,test,1,A,circle.png,1,m,Fri Mar 21 2025 14:46:51 GMT-0500 (Central Daylight Time),250653.30000001192,1600,O,m,685,7,1,2312.2000000178814,248341.09999999404,7117,NTS,B,4
6,5,test,1,A,circle.png,1,m,Fri Mar 21 2025 14:46:51 GMT-0500 (Central Daylight Time),253518.90000000596,1900,O,m,948,5,1,2861.7000000178814,250657.19999998808,7117,NTS,B,5
1,6,test,1,A,circle.png,1,z,Fri Mar 21 2025 14:46:51 GMT-0500 (Central Daylight Time),255185.40000000596,1000,O,z,647,1,1,1662.9000000059605,253522.5,7117,NTS,B,6
8,7,test,1,A,circle.png,1,m,Fri Mar 21 2025 14:46:51 GMT-0500 (Central Daylight Time),257601.09999999404,1600,O,m,788,7,1,2412.0,255189.09999999404,7117,NTS,B,7
1,8,test,1,A,circle.png,1,z,Fri Mar 21 2025 14:46:51 GMT-0500 (Central Daylight Time),259367.0,1000,O,z,740,1,1,1762.0999999940395,257604.90000000596,7117,NTS,B,8
7,9,test,1,A,circle.png,1,m,Fri Mar 21 2025 14:46:51 GMT-0500 (Central Daylight Time),262449.90000000596,1700,O,m,1363,6,1,3079.5,259370.40000000596,7117,NTS,B,9
3,10,test,1,A,circle.png,1,z,Fri Mar 21 2025 14:46:51 GMT-0500 (Central Daylight Time),264499.09999999404,1200,O,z,828,3,1,2045.0,262454.09999999404,7117,NTS,B,10
8,11,test,1,A,circle.png,1,m,Fri Mar 21 2025 14:46:51 GMT-0500 (Central Daylight Time),266948.09999999404,1600,O,m,827,7,1,2445.2999999821186,264502.8000000119,7117,NTS,B,11
9,12,test,1,A,circle.png,1,m,Fri Mar 21 2025 14:46:51 GMT-0500 (Central Daylight Time),269114.3000000119,1500,O,m,638,8,1,2162.300000011921,266952.0,7117,NTS,B,12
3,13,test,1,A,circle.png,1,z,Fri Mar 21 2025 14:46:51 GMT-0500 (Central Daylight Time),271163.59999999404,1200,O,z,828,3,1,2045.5999999940395,269118.0,7117,NTS,B,13
8,14,test,1,A,circle.png,1,m,Fri Mar 21 2025 14:46:51 GMT-0500 (Central Daylight Time),273845.90000000596,1600,O,m,1059,7,1,2678.4000000059605,271167.5,7117,NTS,B,14
6,15,test,1,A,circle.png,1,m,Fri Mar 21 2025 14:46:51 GMT-0500 (Central Daylight Time),276611.6999999881,1900,O,m,836,5,1,2761.7999999821186,273849.90000000596,7117,NTS,B,15
9,16,test,1,A,circle.png,1,m,Fri Mar 21 2025 14:46:51 GMT-0500 (Central Daylight Time),279177.59999999404,1500,O,m,1046,8,1,2562.199999988079,276615.40000000596,7117,NTS,B,16
4,17,test,1,A,circle.png,1,z,Fri Mar 21 2025 14:46:51 GMT-0500 (Central Daylight Time),281293.90000000596,1400,O,z,692,4,1,2112.7000000178814,279181.1999999881,7117,NTS,B,17
7,18,test,1,A,circle.png,1,m,Fri Mar 21 2025 14:46:51 GMT-0500 (Central Daylight Time),283943.09999999404,1700,O,m,924,6,1,2645.5,281297.59999999404,7117,NTS,B,18
1,19,test,1,A,circle.png,1,z,Fri Mar 21 2025 14:46:51 GMT-0500 (Central Daylight Time),285692.3000000119,1000,O,z,719,1,1,1745.6000000238419,283946.6999999881,7117,NTS,B,19
6,20,test,1,A,circle.png,1,m,Fri Mar 21 2025 14:46:51 GMT-0500 (Central Daylight Time),288191.5,1900,O,m,574,5,1,2495.5,285696.0,7117,NTS,B,20
4,21,test,1,A,circle.png,1,z,Fri Mar 21 2025 14:46:51 GMT-0500 (Central Daylight Time),290274.1999999881,1400,O,z,655,4,1,2078.699999988079,288195.5,7117,NTS,B,21
1,22,test,1,A,circle.png,1,z,Fri Mar 21 2025 14:46:51 GMT-0500 (Central Daylight Time),292090.40000000596,1000,O,z,796,1,1,1812.300000011921,290278.09999999404,7117,NTS,B,22
2,23,test,1,A,circle.png,1,z,Fri Mar 21 2025 14:46:51 GMT-0500 (Central Daylight Time),294856.1999999881,2000,O,z,748,2,1,2762.199999988079,292094.0,7117,NTS,B,23
9,24,test,1,A,circle.png,1,m,Fri Mar 21 2025 14:46:51 GMT-0500 (Central Daylight Time),297155.3000000119,1500,O,m,770,8,1,2295.600000023842,294859.6999999881,7117,NTS,B,24
4,1,test,1,B,triangle.png,1,m,Fri Mar 21 2025 14:46:51 GMT-0500 (Central Daylight Time),327895.6999999881,1500,O,m,1107,4,1,2629.399999976158,325266.3000000119,7117,NTS,B,1
7,2,test,1,B,triangle.png,1,z,Fri Mar 21 2025 14:46:51 GMT-0500 (Central Daylight Time),330511.3000000119,1600,O,z,989,14,1,2611.5,327899.8000000119,7117,NTS,B,2
9,3,test,1,B,triangle.png,1,z,Fri Mar 21 2025 14:46:51 GMT-0500 (Central Daylight Time),332960.90000000596,1400,O,z,1021,8,1,2446.0,330514.90000000596,7117,NTS,B,3
6,4,test,1,B,triangle.png,1,m,Fri Mar 21 2025 14:46:51 GMT-0500 (Central Daylight Time),335010.09999999404,1000,O,m,1029,5,1,2045.199999988079,332964.90000000596,7117,NTS,B,4
7,5,test,1,B,triangle.png,1,z,Fri Mar 21 2025 14:46:51 GMT-0500 (Central Daylight Time),337859.3000000119,1600,O,z,1220,14,1,2845.4000000059605,335013.90000000596,7117,NTS,B,5
6,6,test,1,B,triangle.png,1,m,Fri Mar 21 2025 14:46:51 GMT-0500 (Central Daylight Time),339492.09999999404,1000,O,m,611,5,1,1629.0,337863.09999999404,7117,NTS,B,6
2,7,test,1,B,triangle.png,1,m,Fri Mar 21 2025 14:46:51 GMT-0500 (Central Daylight Time),342307.90000000596,1700,O,m,1086,2,1,2812.0999999940395,339495.8000000119,7117,NTS,B,7
4,8,test,1,B,triangle.png,1,m,Fri Mar 21 2025 14:46:51 GMT-0500 (Central Daylight Time),344990.40000000596,1500,O,m,1158,4,1,2678.7000000178814,342311.6999999881,7117,NTS,B,8
7,9,test,1,B,triangle.png,1,z,Fri Mar 21 2025 14:46:51 GMT-0500 (Central Daylight Time),347772.90000000596,2000,O,z,760,6,1,2778.5999999940395,344994.3000000119,7117,NTS,B,9
7,10,test,1,B,triangle.png,1,z,Fri Mar 21 2025 14:46:51 GMT-0500 (Central Daylight Time),350305.40000000596,2000,O,z,513,6,1,2528.5999999940395,347776.8000000119,7117,NTS,B,10
3,11,test,1,B,triangle.png,1,z,Fri Mar 21 2025 14:46:51 GMT-0500 (Central Daylight Time),353049.6999999881,2000,O,z,727,11,1,2740.5999999940395,350309.09999999404,7117,NTS,B,11
6,12,test,1,B,triangle.png,1,m,Fri Mar 21 2025 14:46:51 GMT-0500 (Central Daylight Time),355320.5,1500,O,m,740,13,1,2266.800000011921,353053.6999999881,7117,NTS,B,12
8,13,test,1,B,triangle.png,1,m,Fri Mar 21 2025 14:46:51 GMT-0500 (Central Daylight Time),357253.09999999404,1200,O,m,709,7,1,1929.0,355324.09999999404,7117,NTS,B,13
1,14,test,1,B,triangle.png,1,z,Fri Mar 21 2025 14:46:51 GMT-0500 (Central Daylight Time),360002.40000000596,1900,O,z,821,1,1,2745.5999999940395,357256.8000000119,7117,NTS,B,14
6,15,test,1,B,triangle.png,1,m,Fri Mar 21 2025 14:46:51 GMT-0500 (Central Daylight Time),362268.09999999404,1500,O,m,736,13,1,2261.7999999821186,360006.3000000119,7117,NTS,B,15
3,16,test,1,B,triangle.png,1,z,Fri Mar 21 2025 14:46:51 GMT-0500 (Central Daylight Time),365017.59999999404,2000,O,z,722,11,1,2745.5999999940395,362272.0,7117,NTS,B,16
3,17,test,1,B,triangle.png,1,z,Fri Mar 21 2025 14:46:51 GMT-0500 (Central Daylight Time),367450.09999999404,1600,O,z,805,3,1,2428.699999988079,365021.40000000596,7117,NTS,B,17
1,18,test,1,B,triangle.png,1,z,Fri Mar 21 2025 14:46:51 GMT-0500 (Central Daylight Time),369599.40000000596,1400,O,z,716,9,1,2145.7000000178814,367453.6999999881,7117,NTS,B,18
4,19,test,1,B,triangle.png,1,m,Fri Mar 21 2025 14:46:51 GMT-0500 (Central Daylight Time),371382.09999999404,1000,O,m,759,12,1,1779.0999999940395,369603.0,7117,NTS,B,19
9,19,test,1,B,triangle.png,0,z,Fri Mar 21 2025 14:46:51 GMT-0500 (Central Daylight Time),373631.3000000119,1400,O,m,832,8,1,2245.300000011921,371386.0,7117,NTS,B,20
2,19,test,1,B,triangle.png,0,m,Fri Mar 21 2025 14:46:51 GMT-0500 (Central Daylight Time),376428.3000000119,1200,O,None,1580,10,1,2793.300000011921,373635.0,7117,NTS,B,21
2,20,test,1,B,triangle.png,1,m,Fri Mar 21 2025 14:46:51 GMT-0500 (Central Daylight Time),379046.40000000596,1700,O,m,892,2,1,2614.300000011921,376432.09999999404,7117,NTS,B,22
9,20,test,1,B,triangle.png,0,z,Fri Mar 21 2025 14:46:51 GMT-0500 (Central Daylight Time),382478.59999999404,1900,O,None,1516,16,1,3428.5,379050.09999999404,7117,NTS,B,23
8,20,test,1,B,triangle.png,0,m,Fri Mar 21 2025 14:46:51 GMT-0500 (Central Daylight Time),384861.09999999404,1700,O,z,660,15,1,2378.699999988079,382482.40000000596,7117,NTS,B,24
2,0,prac,1,C,triangle.png,0,m,Fri Mar 21 2025 14:46:51 GMT-0500 (Central Daylight Time),437661.5,1600,O,z,1224,2,1,3610.699999988079,434050.8000000119,7117,NTS,B,1
9,0,prac,1,C,circle.png,0,m,Fri Mar 21 2025 14:46:51 GMT-0500 (Central Daylight Time),441860.09999999404,1900,O,None,1516,8,1,4193.199999988079,437666.90000000596,7117,NTS,B,2
3,1,prac,1,C,triangle.png,1,z,Fri Mar 21 2025 14:46:51 GMT-0500 (Central Daylight Time),445509.09999999404,1500,O,z,1350,3,1,3644.2999999821186,441864.8000000119,7117,NTS,B,3
1,1,prac,1,C,circle.png,0,z,Fri Mar 21 2025 14:46:51 GMT-0500 (Central Daylight Time),448791.09999999404,1700,O,m,802,1,1,3277.0999999940395,445514.0,7117,NTS,B,4
1,2,prac,1,C,circle.png,1,z,Fri Mar 21 2025 14:46:51 GMT-0500 (Central Daylight Time),452173.5,1700,O,z,899,1,1,3376.699999988079,448796.8000000119,7117,NTS,B,5
7,2,prac,1,C,triangle.png,0,z,Fri Mar 21 2025 14:46:51 GMT-0500 (Central Daylight Time),455672.59999999404,1200,O,None,1515,6,1,3492.4000000059605,452180.1999999881,7117,NTS,B,6
6,3,prac,1,C,circle.png,1,m,Fri Mar 21 2025 14:46:51 GMT-0500 (Central Daylight Time),459105.6999999881,2000,O,m,654,5,1,3428.0,455677.6999999881,7117,NTS,B,7
6,4,prac,1,C,circle.png,1,m,Fri Mar 21 2025 14:46:51 GMT-0500 (Central Daylight Time),462837.09999999404,2000,O,m,942,5,1,3726.0999999940395,459111.0,7117,NTS,B,8
8,4,prac,1,C,triangle.png,0,m,Fri Mar 21 2025 14:46:51 GMT-0500 (Central Daylight Time),466535.5,1400,O,None,1516,7,1,3693.5,462842.0,7117,NTS,B,9
8,4,prac,1,C,triangle.png,0,m,Fri Mar 21 2025 14:46:51 GMT-0500 (Central Daylight Time),470234.6999999881,1400,O,None,1516,7,1,3694.0999999940395,466540.59999999404,7117,NTS,B,10
4,5,prac,1,C,circle.png,1,z,Fri Mar 21 2025 14:46:51 GMT-0500 (Central Daylight Time),472617.1999999881,1000,O,z,596,4,1,2377.0999999940395,470240.09999999404,7117,NTS,B,11
2,5,prac,1,C,triangle.png,0,m,Fri Mar 21 2025 14:46:51 GMT-0500 (Central Daylight Time),476032.90000000596,1600,O,z,1021,2,1,3410.800000011921,472622.09999999404,7117,NTS,B,12
4,0,prac,2,C,circle.png,0,z,Fri Mar 21 2025 14:46:51 GMT-0500 (Central Daylight Time),486495.90000000596,1000,O,None,1515,4,1,3294.300000011921,483201.59999999404,7117,NTS,B,1
9,1,prac,2,C,circle.png,1,m,Fri Mar 21 2025 14:46:51 GMT-0500 (Central Daylight Time),489811.6999999881,1900,O,m,619,8,1,3310.399999976158,486501.3000000119,7117,NTS,B,2
9,2,prac,2,C,circle.png,1,m,Fri Mar 21 2025 14:46:51 GMT-0500 (Central Daylight Time),493177.40000000596,1900,O,m,670,8,1,3360.9000000059605,489816.5,7117,NTS,B,3
8,2,prac,2,C,triangle.png,0,m,Fri Mar 21 2025 14:46:51 GMT-0500 (Central Daylight Time),496309.5,1400,O,z,941,7,1,3127.0999999940395,493182.40000000596,7117,NTS,B,4
8,3,prac,2,C,triangle.png,1,m,Fri Mar 21 2025 14:46:51 GMT-0500 (Central Daylight Time),499242.09999999404,1400,O,m,745,7,1,2927.199999988079,496314.90000000596,7117,NTS,B,5
3,3,prac,2,C,triangle.png,0,z,Fri Mar 21 2025 14:46:51 GMT-0500 (Central Daylight Time),502724.1999999881,1500,O,m,1193,3,1,3477.199999988079,499247.0,7117,NTS,B,6
2,3,prac,2,C,triangle.png,0,m,Fri Mar 21 2025 14:46:51 GMT-0500 (Central Daylight Time),506156.59999999404,1600,O,z,1042,2,1,3427.4000000059605,502729.1999999881,7117,NTS,B,7
7,3,prac,2,C,triangle.png,0,z,Fri Mar 21 2025 14:46:51 GMT-0500 (Central Daylight Time),508605.8000000119,1200,O,m,458,6,1,2444.0,506161.8000000119,7117,NTS,B,8
3,3,prac,2,C,triangle.png,0,z,Fri Mar 21 2025 14:46:51 GMT-0500 (Central Daylight Time),511738.3000000119,1500,O,m,836,3,1,3127.4000000059605,508610.90000000596,7117,NTS,B,9
1,4,prac,2,C,circle.png,1,z,Fri Mar 21 2025 14:46:51 GMT-0500 (Central Daylight Time),514753.90000000596,1700,O,z,528,1,1,3010.800000011921,511743.09999999404,7117,NTS,B,10
6,5,prac,2,C,circle.png,1,m,Fri Mar 21 2025 14:46:51 GMT-0500 (Central Daylight Time),518402.8000000119,2000,O,m,880,5,1,3641.800000011921,514761.0,7117,NTS,B,11
4,5,prac,2,C,circle.png,0,z,Fri Mar 21 2025 14:46:51 GMT-0500 (Central Daylight Time),520918.40000000596,1000,O,m,724,4,1,2510.7000000178814,518407.6999999881,7117,NTS,B,12
7,1,test,1,C,circle.png,1,m,Fri Mar 21 2025 14:46:51 GMT-0500 (Central Daylight Time),577717.599999994,2000,O,m,1483,14,1,3511.5,574206.099999994,7117,NTS,B,1
1,2,test,1,C,circle.png,1,z,Fri Mar 21 2025 14:46:51 GMT-0500 (Central Daylight Time),579683.599999994,1000,O,z,945,1,1,1961.9000000059605,577721.6999999881,7117,NTS,B,2
9,3,test,1,C,circle.png,1,m,Fri Mar 21 2025 14:46:51 GMT-0500 (Central Daylight Time),582116.0,1500,O,m,903,8,1,2428.800000011921,579687.1999999881,7117,NTS,B,3
8,4,test,1,C,triangle.png,1,m,Fri Mar 21 2025 14:46:51 GMT-0500 (Central Daylight Time),585181.8000000119,1600,O,m,1434,7,1,3062.0,582119.8000000119,7117,NTS,B,4
3,4,test,1,C,triangle.png,0,z,Fri Mar 21 2025 14:46:51 GMT-0500 (Central Daylight Time),587914.1999999881,1200,O,None,1516,3,1,2728.5999999940395,585185.599999994,7117,NTS,B,5
8,5,test,1,C,circle.png,1,m,Fri Mar 21 2025 14:46:51 GMT-0500 (Central Daylight Time),590230.099999994,1200,O,m,1092,15,1,2311.9000000059605,587918.1999999881,7117,NTS,B,6
4,5,test,1,C,triangle.png,0,m,Fri Mar 21 2025 14:46:51 GMT-0500 (Central Daylight Time),593195.900000006,1500,O,z,1436,20,1,2961.7000000178814,590234.1999999881,7117,NTS,B,7
4,5,test,1,C,circle.png,0,z,Fri Mar 21 2025 14:46:51 GMT-0500 (Central Daylight Time),595945.099999994,1400,O,m,1330,4,1,2745.2999999821186,593199.8000000119,7117,NTS,B,8
6,6,test,1,C,circle.png,1,m,Fri Mar 21 2025 14:46:51 GMT-0500 (Central Daylight Time),599044.099999994,1900,O,m,1178,21,1,3095.2999999821186,595948.8000000119,7117,NTS,B,9
9,7,test,1,C,triangle.png,1,z,Fri Mar 21 2025 14:46:51 GMT-0500 (Central Daylight Time),601426.6999999881,1400,O,z,962,16,1,2377.199999988079,599049.5,7117,NTS,B,10
8,8,test,1,C,triangle.png,1,m,Fri Mar 21 2025 14:46:51 GMT-0500 (Central Daylight Time),604176.8000000119,1600,O,m,1132,23,1,2746.300000011921,601430.5,7117,NTS,B,11
6,8,test,1,C,circle.png,0,m,Fri Mar 21 2025 14:46:51 GMT-0500 (Central Daylight Time),607608.0,1900,O,None,1516,5,1,3426.699999988079,604181.3000000119,7117,NTS,B,12
3,9,test,1,C,circle.png,1,z,Fri Mar 21 2025 14:46:51 GMT-0500 (Central Daylight Time),610440.400000006,1600,O,z,1214,11,1,2828.5,607611.900000006,7117,NTS,B,13
9,10,test,1,C,circle.png,1,m,Fri Mar 21 2025 14:46:51 GMT-0500 (Central Daylight Time),612973.1999999881,1500,O,m,1009,24,1,2528.7999999821186,610444.400000006,7117,NTS,B,14
4,10,test,1,C,triangle.png,0,m,Fri Mar 21 2025 14:46:51 GMT-0500 (Central Daylight Time),616006.400000006,1500,O,None,1516,12,1,3029.4000000059605,612977.0,7117,NTS,B,15
3,10,test,1,C,circle.png,0,z,Fri Mar 21 2025 14:46:51 GMT-0500 (Central Daylight Time),618854.1999999881,1600,O,m,1217,19,1,2843.899999976158,616010.3000000119,7117,NTS,B,16
7,11,test,1,C,triangle.png,1,z,Fri Mar 21 2025 14:46:51 GMT-0500 (Central Daylight Time),621953.5,1700,O,z,1372,6,1,3095.300000011921,618858.1999999881,7117,NTS,B,17
2,12,test,1,C,circle.png,1,z,Fri Mar 21 2025 14:46:51 GMT-0500 (Central Daylight Time),624636.0,1700,O,z,952,18,1,2678.199999988079,621957.8000000119,7117,NTS,B,18
1,13,test,1,C,triangle.png,1,z,Fri Mar 21 2025 14:46:51 GMT-0500 (Central Daylight Time),627535.1999999881,1900,O,z,981,9,1,2895.5,624639.6999999881,7117,NTS,B,19
6,14,test,1,C,triangle.png,1,m,Fri Mar 21 2025 14:46:51 GMT-0500 (Central Daylight Time),629617.8000000119,1000,O,m,1063,13,1,2078.800000011921,627539.0,7117,NTS,B,20
2,14,test,1,C,triangle.png,0,m,Fri Mar 21 2025 14:46:51 GMT-0500 (Central Daylight Time),632333.6999999881,2000,O,z,692,2,1,2712.199999988079,629621.5,7117,NTS,B,21
1,14,test,1,C,triangle.png,0,z,Fri Mar 21 2025 14:46:51 GMT-0500 (Central Daylight Time),634849.6999999881,1900,O,m,589,17,1,2511.5999999940395,632338.099999994,7117,NTS,B,22
7,15,test,1,C,triangle.png,1,z,Fri Mar 21 2025 14:46:51 GMT-0500 (Central Daylight Time),637548.599999994,1700,O,z,968,22,1,2695.2999999821186,634853.3000000119,7117,NTS,B,23
2,16,test,1,C,circle.png,1,z,Fri Mar 21 2025 14:46:51 GMT-0500 (Central Daylight Time),639697.900000006,1700,O,z,430,10,1,2145.5,637552.400000006,7117,NTS,B,24
1,0,test,2,C,circle.png,0,z,Fri Mar 21 2025 14:46:51 GMT-0500 (Central Daylight Time),677303.0,1000,O,None,1516,1,1,2529.4000000059605,674773.599999994,7117,NTS,B,1
7,0,test,2,C,triangle.png,0,z,Fri Mar 21 2025 14:46:51 GMT-0500 (Central Daylight Time),679918.8000000119,1700,O,m,891,6,1,2611.2000000178814,677307.599999994,7117,NTS,B,2
1,1,test,2,C,triangle.png,1,z,Fri Mar 21 2025 14:46:51 GMT-0500 (Central Daylight Time),683151.0,1900,O,z,1316,17,1,3228.300000011921,679922.6999999881,7117,NTS,B,3
2,1,test,2,C,circle.png,0,z,Fri Mar 21 2025 14:46:51 GMT-0500 (Central Daylight Time),685966.8000000119,1700,O,m,1091,18,1,2812.100000023842,683154.6999999881,7117,NTS,B,4
7,1,test,2,C,circle.png,0,m,Fri Mar 21 2025 14:46:51 GMT-0500 (Central Daylight Time),689499.0,2000,O,None,1516,14,1,3528.5,685970.5,7117,NTS,B,5
6,2,test,2,C,circle.png,1,m,Fri Mar 21 2025 14:46:51 GMT-0500 (Central Daylight Time),692314.900000006,1900,O,m,887,5,1,2812.0999999940395,689502.8000000119,7117,NTS,B,6
8,3,test,2,C,circle.png,1,m,Fri Mar 21 2025 14:46:51 GMT-0500 (Central Daylight Time),694214.099999994,1200,O,m,676,23,1,1895.5,692318.599999994,7117,NTS,B,7
8,3,test,2,C,triangle.png,0,m,Fri Mar 21 2025 14:46:51 GMT-0500 (Central Daylight Time),697347.6999999881,1600,O,None,1517,7,1,3129.7999999821186,694217.900000006,7117,NTS,B,8
4,4,test,2,C,triangle.png,1,m,Fri Mar 21 2025 14:46:51 GMT-0500 (Central Daylight Time),700062.400000006,1500,O,m,1192,20,1,2710.4000000059605,697352.0,7117,NTS,B,9
9,4,test,2,C,triangle.png,0,z,Fri Mar 21 2025 14:46:51 GMT-0500 (Central Daylight Time),702995.0,1400,O,None,1516,16,1,2928.800000011921,700066.1999999881,7117,NTS,B,10
4,5,test,2,C,triangle.png,1,m,Fri Mar 21 2025 14:46:51 GMT-0500 (Central Daylight Time),705310.6999999881,1500,O,m,792,12,1,2312.0,702998.6999999881,7117,NTS,B,11
6,6,test,2,C,triangle.png,1,m,Fri Mar 21 2025 14:46:51 GMT-0500 (Central Daylight Time),707260.0,1000,O,m,919,21,1,1945.199999988079,705314.8000000119,7117,NTS,B,12
7,7,test,2,C,circle.png,1,m,Fri Mar 21 2025 14:46:51 GMT-0500 (Central Daylight Time),710659.1999999881,2000,O,m,1378,22,1,3395.2999999821186,707263.900000006,7117,NTS,B,13
9,8,test,2,C,circle.png,1,m,Fri Mar 21 2025 14:46:51 GMT-0500 (Central Daylight Time),713108.1999999881,1500,O,m,927,8,1,2445.0999999940395,710663.099999994,7117,NTS,B,14
2,8,test,2,C,triangle.png,0,m,Fri Mar 21 2025 14:46:51 GMT-0500 (Central Daylight Time),716307.1999999881,2000,O,z,1170,2,1,3195.2999999821186,713111.900000006,7117,NTS,B,15
3,8,test,2,C,circle.png,0,z,Fri Mar 21 2025 14:46:51 GMT-0500 (Central Daylight Time),719440.8000000119,1600,O,None,1517,11,1,3129.800000011921,716311.0,7117,NTS,B,16
8,9,test,2,C,circle.png,1,m,Fri Mar 21 2025 14:46:51 GMT-0500 (Central Daylight Time),721389.0,1200,O,m,719,15,1,1944.0999999940395,719444.900000006,7117,NTS,B,17
3,10,test,2,C,circle.png,1,z,Fri Mar 21 2025 14:46:51 GMT-0500 (Central Daylight Time),723954.900000006,1600,O,z,945,19,1,2560.5,721394.400000006,7117,NTS,B,18
2,11,test,2,C,circle.png,1,z,Fri Mar 21 2025 14:46:51 GMT-0500 (Central Daylight Time),726837.099999994,1700,O,z,1152,10,1,2878.4000000059605,723958.6999999881,7117,NTS,B,19
1,11,test,2,C,triangle.png,0,z,Fri Mar 21 2025 14:46:51 GMT-0500 (Central Daylight Time),729903.099999994,1900,O,m,1149,9,1,3061.699999988079,726841.400000006,7117,NTS,B,20
4,11,test,2,C,circle.png,0,z,Fri Mar 21 2025 14:46:51 GMT-0500 (Central Daylight Time),732835.400000006,1400,O,None,1515,4,1,2928.7000000178814,729906.6999999881,7117,NTS,B,21
6,11,test,2,C,triangle.png,0,m,Fri Mar 21 2025 14:46:51 GMT-0500 (Central Daylight Time),735318.099999994,1000,O,z,1451,13,1,2478.7999999821186,732839.3000000119,7117,NTS,B,22
3,12,test,2,C,triangle.png,1,z,Fri Mar 21 2025 14:46:51 GMT-0500 (Central Daylight Time),737550.599999994,1200,O,z,1008,3,1,2228.5999999940395,735322.0,7117,NTS,B,23
9,12,test,2,C,triangle.png,0,z,Fri Mar 21 2025 14:46:51 GMT-0500 (Central Daylight Time),739600.3000000119,1400,O,m,624,24,1,2045.9000000059605,737554.400000006,7117,NTS,B,24
2,0,test,3,C,circle.png,0,z,Fri Mar 21 2025 14:46:51 GMT-0500 (Central Daylight Time),755895.1999999881,1700,O,m,1083,10,1,2813.0,753082.1999999881,7117,NTS,B,1
3,0,test,3,C,triangle.png,0,z,Fri Mar 21 2025 14:46:51 GMT-0500 (Central Daylight Time),758627.3000000119,1200,O,None,1515,3,1,2728.300000011921,755899.0,7117,NTS,B,2
1,1,test,3,C,circle.png,1,z,Fri Mar 21 2025 14:46:51 GMT-0500 (Central Daylight Time),760360.0,1000,O,z,707,1,1,1729.0,758631.0,7117,NTS,B,3
3,1,test,3,C,circle.png,0,z,Fri Mar 21 2025 14:46:51 GMT-0500 (Central Daylight Time),763492.400000006,1600,O,None,1515,11,1,3128.5,760363.900000006,7117,NTS,B,4
8,1,test,3,C,triangle.png,0,m,Fri Mar 21 2025 14:46:51 GMT-0500 (Central Daylight Time),766624.8000000119,1600,O,None,1516,7,1,3128.4000000059605,763496.400000006,7117,NTS,B,5
2,1,test,3,C,triangle.png,0,m,Fri Mar 21 2025 14:46:51 GMT-0500 (Central Daylight Time),770158.099999994,2000,O,None,1517,18,1,3529.2999999821186,766628.8000000119,7117,NTS,B,6
7,2,test,3,C,circle.png,1,m,Fri Mar 21 2025 14:46:51 GMT-0500 (Central Daylight Time),772806.1999999881,2000,O,m,618,14,1,2644.199999988079,770162.0,7117,NTS,B,7
3,3,test,3,C,triangle.png,1,z,Fri Mar 21 2025 14:46:51 GMT-0500 (Central Daylight Time),775072.1999999881,1200,O,z,1048,19,1,2261.899999976158,772810.3000000119,7117,NTS,B,8
7,3,test,3,C,triangle.png,0,z,Fri Mar 21 2025 14:46:51 GMT-0500 (Central Daylight Time),778187.6999999881,1700,O,m,1387,22,1,3111.899999976158,775075.8000000119,7117,NTS,B,9
6,4,test,3,C,circle.png,1,m,Fri Mar 21 2025 14:46:51 GMT-0500 (Central Daylight Time),781087.0,1900,O,m,975,5,1,2895.5,778191.5,7117,NTS,B,10
6,5,test,3,C,triangle.png,1,m,Fri Mar 21 2025 14:46:51 GMT-0500 (Central Daylight Time),783586.0,1000,O,m,1471,13,1,2495.0,781091.0,7117,NTS,B,11
9,6,test,3,C,triangle.png,1,z,Fri Mar 21 2025 14:46:51 GMT-0500 (Central Daylight Time),786435.1999999881,1400,O,z,1420,16,1,2845.2999999821186,783589.900000006,7117,NTS,B,12
1,7,test,3,C,triangle.png,1,z,Fri Mar 21 2025 14:46:51 GMT-0500 (Central Daylight Time),789201.099999994,1900,O,z,839,9,1,2762.199999988079,786438.900000006,7117,NTS,B,13
4,7,test,3,C,circle.png,0,z,Fri Mar 21 2025 14:46:51 GMT-0500 (Central Daylight Time),791517.0,1400,O,m,893,4,1,2312.0999999940395,789204.900000006,7117,NTS,B,14
7,7,test,3,C,triangle.png,0,z,Fri Mar 21 2025 14:46:51 GMT-0500 (Central Daylight Time),794749.3000000119,1700,O,None,1515,6,1,3227.7000000178814,791521.599999994,7117,NTS,B,15
4,8,test,3,C,triangle.png,1,m,Fri Mar 21 2025 14:46:51 GMT-0500 (Central Daylight Time),797148.599999994,1500,O,m,869,12,1,2395.199999988079,794753.400000006,7117,NTS,B,16
2,9,test,3,C,triangle.png,1,m,Fri Mar 21 2025 14:46:51 GMT-0500 (Central Daylight Time),800095.099999994,2000,O,m,930,2,1,2942.5,797152.599999994,7117,NTS,B,17
1,10,test,3,C,circle.png,1,z,Fri Mar 21 2025 14:46:51 GMT-0500 (Central Daylight Time),802613.8000000119,1000,O,z,1493,17,1,2514.9000000059605,800098.900000006,7117,NTS,B,18
8,11,test,3,C,circle.png,1,m,Fri Mar 21 2025 14:46:51 GMT-0500 (Central Daylight Time),804996.3000000119,1200,O,m,1160,15,1,2378.7000000178814,802617.599999994,7117,NTS,B,19
8,11,test,3,C,triangle.png,0,m,Fri Mar 21 2025 14:46:51 GMT-0500 (Central Daylight Time),807978.5,1600,O,z,1362,23,1,2978.4000000059605,805000.099999994,7117,NTS,B,20
9,11,test,3,C,circle.png,0,m,Fri Mar 21 2025 14:46:51 GMT-0500 (Central Daylight Time),811011.1999999881,1500,O,None,1516,8,1,3028.7999999821186,807982.400000006,7117,NTS,B,21
4,12,test,3,C,circle.png,1,z,Fri Mar 21 2025 14:46:51 GMT-0500 (Central Daylight Time),813893.3000000119,1400,O,z,1450,20,1,2878.2000000178814,811015.099999994,7117,NTS,B,22
9,13,test,3,C,circle.png,1,m,Fri Mar 21 2025 14:46:51 GMT-0500 (Central Daylight Time),816359.400000006,1500,O,m,933,24,1,2462.2000000178814,813897.1999999881,7117,NTS,B,23
6,13,test,3,C,circle.png,0,m,Fri Mar 21 2025 14:46:51 GMT-0500 (Central Daylight Time),819791.599999994,1900,O,None,1516,21,1,3428.199999988079,816363.400000006,7117,NTS,B,24
2,0,test,4,C,circle.png,0,z,Fri Mar 21 2025 14:46:51 GMT-0500 (Central Daylight Time),829538.599999994,1700,O,m,912,10,1,2629.0,826909.599999994,7117,NTS,B,1
6,0,test,4,C,triangle.png,0,m,Fri Mar 21 2025 14:46:51 GMT-0500 (Central Daylight Time),832071.099999994,1000,O,None,1516,13,1,2526.4000000059605,829544.6999999881,7117,NTS,B,2
1,1,test,4,C,circle.png,1,z,Fri Mar 21 2025 14:46:51 GMT-0500 (Central Daylight Time),834136.900000006,1000,O,z,1039,1,1,2061.9000000059605,832075.0,7117,NTS,B,3
4,1,test,4,C,triangle.png,0,m,Fri Mar 21 2025 14:46:51 GMT-0500 (Central Daylight Time),837169.5,1500,O,None,1515,12,1,3028.4000000059605,834141.099999994,7117,NTS,B,4
2,2,test,4,C,triangle.png,1,m,Fri Mar 21 2025 14:46:51 GMT-0500 (Central Daylight Time),840235.3000000119,2000,O,m,1045,18,1,3061.800000011921,837173.5,7117,NTS,B,5
6,3,test,4,C,circle.png,1,m,Fri Mar 21 2025 14:46:51 GMT-0500 (Central Daylight Time),843134.1999999881,1900,O,m,967,21,1,2895.0999999940395,840239.099999994,7117,NTS,B,6
1,4,test,4,C,triangle.png,1,z,Fri Mar 21 2025 14:46:51 GMT-0500 (Central Daylight Time),845866.8000000119,1900,O,z,812,9,1,2727.800000011921,843139.0,7117,NTS,B,7
4,4,test,4,C,circle.png,0,z,Fri Mar 21 2025 14:46:51 GMT-0500 (Central Daylight Time),848132.599999994,1400,O,m,776,20,1,2262.199999988079,845870.400000006,7117,NTS,B,8
8,5,test,4,C,triangle.png,1,m,Fri Mar 21 2025 14:46:51 GMT-0500 (Central Daylight Time),850782.8000000119,1600,O,m,1018,7,1,2646.600000023842,848136.1999999881,7117,NTS,B,9
8,6,test,4,C,triangle.png,1,m,Fri Mar 21 2025 14:46:51 GMT-0500 (Central Daylight Time),853047.5,1600,O,m,649,23,1,2260.5,850787.0,7117,NTS,B,10
1,7,test,4,C,circle.png,1,z,Fri Mar 21 2025 14:46:51 GMT-0500 (Central Daylight Time),854930.5,1000,O,z,854,17,1,1879.4000000059605,853051.099999994,7117,NTS,B,11
7,8,test,4,C,circle.png,1,m,Fri Mar 21 2025 14:46:51 GMT-0500 (Central Daylight Time),857746.400000006,2000,O,m,795,14,1,2812.0999999940395,854934.3000000119,7117,NTS,B,12
7,8,test,4,C,triangle.png,0,z,Fri Mar 21 2025 14:46:51 GMT-0500 (Central Daylight Time),860628.8000000119,1700,O,m,1160,22,1,2876.600000023842,857752.1999999881,7117,NTS,B,13
9,9,test,4,C,triangle.png,1,z,Fri Mar 21 2025 14:46:51 GMT-0500 (Central Daylight Time),863044.599999994,1400,O,z,994,16,1,2412.0,860632.599999994,7117,NTS,B,14
8,10,test,4,C,circle.png,1,m,Fri Mar 21 2025 14:46:51 GMT-0500 (Central Daylight Time),865027.400000006,1200,O,m,753,15,1,1978.9000000059605,863048.5,7117,NTS,B,15
9,11,test,4,C,circle.png,1,m,Fri Mar 21 2025 14:46:51 GMT-0500 (Central Daylight Time),867526.5,1500,O,m,975,24,1,2495.4000000059605,865031.099999994,7117,NTS,B,16
3,12,test,4,C,triangle.png,1,z,Fri Mar 21 2025 14:46:51 GMT-0500 (Central Daylight Time),870075.8000000119,1200,O,z,1328,3,1,2545.600000023842,867530.1999999881,7117,NTS,B,17
2,13,test,4,C,triangle.png,1,m,Fri Mar 21 2025 14:46:51 GMT-0500 (Central Daylight Time),873424.6999999881,2000,O,m,1331,2,1,3345.199999988079,870079.5,7117,NTS,B,18
3,14,test,4,C,triangle.png,1,z,Fri Mar 21 2025 14:46:51 GMT-0500 (Central Daylight Time),875640.599999994,1200,O,z,997,19,1,2212.4000000059605,873428.1999999881,7117,NTS,B,19
6,15,test,4,C,circle.png,1,m,Fri Mar 21 2025 14:46:51 GMT-0500 (Central Daylight Time),878539.900000006,1900,O,m,970,5,1,2895.5999999940395,875644.3000000119,7117,NTS,B,20
3,15,test,4,C,circle.png,0,z,Fri Mar 21 2025 14:46:51 GMT-0500 (Central Daylight Time),881672.099999994,1600,O,None,1516,11,1,3128.4000000059605,878543.6999999881,7117,NTS,B,21
4,16,test,4,C,circle.png,1,z,Fri Mar 21 2025 14:46:51 GMT-0500 (Central Daylight Time),884304.599999994,1400,O,z,1214,4,1,2628.699999988079,881675.900000006,7117,NTS,B,22
9,16,test,4,C,circle.png,0,m,Fri Mar 21 2025 14:46:51 GMT-0500 (Central Daylight Time),887087.1999999881,1500,O,z,1266,8,1,2778.399999976158,884308.8000000119,7117,NTS,B,23
7,16,test,4,C,triangle.png,0,z,Fri Mar 21 2025 14:46:51 GMT-0500 (Central Daylight Time),890319.599999994,1700,O,None,1516,6,1,3228.699999988079,887090.900000006,7117,NTS,B,24
