acc_sum,block,block_c,condition,correct,correct_response,datetime,endtime,flanker,jitter,project,response,response_test_buffer_response,response_test_target_response,response_time,response_time_test_buffer_response,response_time_test_target_response,row_sel,session_number,start_end,starttime,subject_id,target,task,task_vers,time_test_buffer,time_test_buffer_response,time_test_constants,time_test_flanker,time_test_jitter,time_test_logger,time_test_target,time_test_target_response,time_test_variables,trial
0,prac,1,inc,0,m,Mon Apr 07 2025 08:33:56 GMT-0500 (Central Daylight Time),136752.39999997616,plum,1100,I,None,,,1814,,,16,1,5190.700000047684,131561.69999992847,7118,lead,NF,C,,,,,,,,,,1
0,prac,1,inc,0,m,Mon Apr 07 2025 08:33:56 GMT-0500 (Central Daylight Time),140501.59999990463,raisin,1100,I,z,,,1326,,,12,1,3722.2999999523163,136779.29999995232,7118,cobalt,NF,C,,,,,,,,,,2
1,prac,1,con,1,z,Mon Apr 07 2025 08:33:56 GMT-0500 (Central Daylight Time),143533.89999997616,banana,800,I,z,,,908,,,1,1,3012.3000000715256,140521.59999990463,7118,banana,NF,C,,,,,,,,,,3
2,prac,1,con,1,m,Mon Apr 07 2025 08:33:56 GMT-0500 (Central Daylight Time),146315.89999997616,zinc,1000,I,m,,,453,,,15,1,2757.600000023842,143558.29999995232,7118,zinc,NF,C,,,,,,,,,,4
2,prac,1,con,0,m,Mon Apr 07 2025 08:33:56 GMT-0500 (Central Daylight Time),149015.39999997616,bronze,800,I,z,,,574,,,9,1,2677.5,146337.89999997616,7118,bronze,NF,C,,,,,,,,,,5
2,prac,1,con,0,z,Mon Apr 07 2025 08:33:56 GMT-0500 (Central Daylight Time),151830.79999995232,kiwi,1000,I,m,,,483,,,7,1,2792.399999976158,149038.39999997616,7118,kiwi,NF,C,,,,,,,,,,6
2,prac,1,inc,0,z,Mon Apr 07 2025 08:33:56 GMT-0500 (Central Daylight Time),154813.09999990463,cobalt,1100,I,m,,,562,,,4,1,2960.0999999046326,151853.0,7118,raisin,NF,C,,,,,,,,,,7
3,prac,1,inc,1,z,Mon Apr 07 2025 08:33:56 GMT-0500 (Central Daylight Time),157878.69999992847,lead,1100,I,z,,,641,,,8,1,3043.5,154835.19999992847,7118,plum,NF,C,,,,,,,,,,8
4,prac,1,con,1,z,Mon Apr 07 2025 08:33:56 GMT-0500 (Central Daylight Time),160578.0,lime,800,I,z,,,572,,,5,1,2676.3000000715256,157901.69999992847,7118,lime,NF,C,,,,,,,,,,9
5,prac,1,inc,1,z,Mon Apr 07 2025 08:33:56 GMT-0500 (Central Daylight Time),163377.09999990463,iron,900,I,z,,,581,,,6,1,2774.6999999284744,160602.39999997616,7118,pear,NF,C,,,,,,,,,,10
6,prac,1,con,1,z,Mon Apr 07 2025 08:33:56 GMT-0500 (Central Daylight Time),166209.29999995232,orange,1000,I,z,,,505,,,3,1,2806.2000000476837,163403.09999990463,7118,orange,NF,C,,,,,,,,,,11
7,prac,1,inc,1,m,Mon Apr 07 2025 08:33:56 GMT-0500 (Central Daylight Time),168808.5,pear,900,I,m,,,374,,,14,1,2580.5,166228.0,7118,iron,NF,C,,,,,,,,,,12
8,prac,1,inc,1,m,Mon Apr 07 2025 08:33:56 GMT-0500 (Central Daylight Time),171674.29999995232,cherry,900,I,m,,,646,,,10,1,2844.100000023842,168830.19999992847,7118,copper,NF,C,,,,,,,,,,13
9,prac,1,con,1,m,Mon Apr 07 2025 08:33:56 GMT-0500 (Central Daylight Time),174539.89999997616,silver,1000,I,m,,,536,,,11,1,2842.3000000715256,171697.59999990463,7118,silver,NF,C,,,,,,,,,,14
10,prac,1,con,1,m,Mon Apr 07 2025 08:33:56 GMT-0500 (Central Daylight Time),177155.79999995232,gold,800,I,m,,,512,,,13,1,2591.7999999523163,174564.0,7118,gold,NF,C,,,,,,,,,,15
10,prac,1,inc,0,z,Mon Apr 07 2025 08:33:56 GMT-0500 (Central Daylight Time),179721.39999997616,copper,900,I,m,,,347,,,2,1,2543.399999976158,177178.0,7118,cherry,NF,C,,,,,,,,,,16
1,prac,2,inc,1,m,Mon Apr 07 2025 08:33:56 GMT-0500 (Central Daylight Time),191366.89999997616,cherry,900,I,m,,,807,,,10,1,3007.5,188359.39999997616,7118,copper,NF,C,,,,,,,,,,1
2,prac,2,inc,1,z,Mon Apr 07 2025 08:33:56 GMT-0500 (Central Daylight Time),194283.39999997616,copper,900,I,z,,,703,,,2,1,2909.100000023842,191374.29999995232,7118,cherry,NF,C,,,,,,,,,,2
3,prac,2,con,1,m,Mon Apr 07 2025 08:33:56 GMT-0500 (Central Daylight Time),197032.5,zinc,1000,I,m,,,431,,,15,1,2726.7000000476837,194305.79999995232,7118,zinc,NF,C,,,,,,,,,,3
4,prac,2,inc,1,z,Mon Apr 07 2025 08:33:56 GMT-0500 (Central Daylight Time),200081.5,cobalt,1100,I,z,,,622,,,4,1,3027.7000000476837,197053.79999995232,7118,raisin,NF,C,,,,,,,,,,4
5,prac,2,con,1,z,Mon Apr 07 2025 08:33:56 GMT-0500 (Central Daylight Time),202763.89999997616,banana,800,I,z,,,562,,,1,1,2664.600000023842,200099.29999995232,7118,banana,NF,C,,,,,,,,,,5
6,prac,2,con,1,z,Mon Apr 07 2025 08:33:56 GMT-0500 (Central Daylight Time),205579.89999997616,kiwi,1000,I,z,,,496,,,7,1,2795.100000023842,202784.79999995232,7118,kiwi,NF,C,,,,,,,,,,6
7,prac,2,inc,1,m,Mon Apr 07 2025 08:33:56 GMT-0500 (Central Daylight Time),208478.89999997616,raisin,1100,I,m,,,467,,,12,1,2877.600000023842,205601.29999995232,7118,cobalt,NF,C,,,,,,,,,,7
8,prac,2,con,1,m,Mon Apr 07 2025 08:33:56 GMT-0500 (Central Daylight Time),211093.59999990463,bronze,800,I,m,,,492,,,9,1,2595.5,208498.09999990463,7118,bronze,NF,C,,,,,,,,,,8
9,prac,2,inc,1,z,Mon Apr 07 2025 08:33:56 GMT-0500 (Central Daylight Time),214142.69999992847,lead,1100,I,z,,,633,,,8,1,3043.5,211099.19999992847,7118,plum,NF,C,,,,,,,,,,9
10,prac,2,con,1,z,Mon Apr 07 2025 08:33:56 GMT-0500 (Central Daylight Time),216925.09999990463,orange,1000,I,z,,,469,,,3,1,2776.2999999523163,214148.79999995232,7118,orange,NF,C,,,,,,,,,,10
11,prac,2,inc,1,z,Mon Apr 07 2025 08:33:56 GMT-0500 (Central Daylight Time),219641.0,iron,900,I,z,,,515,,,6,1,2710.0,216931.0,7118,pear,NF,C,,,,,,,,,,11
12,prac,2,inc,1,m,Mon Apr 07 2025 08:33:56 GMT-0500 (Central Daylight Time),222223.5,pear,900,I,m,,,373,,,14,1,2576.2000000476837,219647.29999995232,7118,iron,NF,C,,,,,,,,,,12
13,prac,2,inc,1,m,Mon Apr 07 2025 08:33:56 GMT-0500 (Central Daylight Time),225372.19999992847,plum,1100,I,m,,,735,,,16,1,3143.2999999523163,222228.89999997616,7118,lead,NF,C,,,,,,,,,,13
14,prac,2,con,1,m,Mon Apr 07 2025 08:33:56 GMT-0500 (Central Daylight Time),228071.5,silver,1000,I,m,,,391,,,11,1,2693.2000000476837,225378.29999995232,7118,silver,NF,C,,,,,,,,,,14
15,prac,2,con,1,m,Mon Apr 07 2025 08:33:56 GMT-0500 (Central Daylight Time),230538.59999990463,gold,800,I,m,,,355,,,13,1,2461.7999999523163,228076.79999995232,7118,gold,NF,C,,,,,,,,,,15
16,prac,2,con,1,z,Mon Apr 07 2025 08:33:56 GMT-0500 (Central Daylight Time),233036.5,lime,800,I,z,,,370,,,5,1,2477.100000023842,230559.39999997616,7118,lime,NF,C,,,,,,,,,,16
1,test,1,inc,1,m,Mon Apr 07 2025 08:33:56 GMT-0500 (Central Daylight Time),252480.19999992847,pear,900,I,m,m,None,491,292.0,199.0,110,1,1927.6000000238419,250552.59999990463,7118,iron,NF,C,244267,244267,242639,243552,242639,244566,244067,244067,244566,1
2,test,1,con,1,m,Mon Apr 07 2025 08:33:56 GMT-0500 (Central Daylight Time),254513.69999992847,silver,1100,I,m,m,None,382,183.0,199.0,84,1,2026.7999999523163,252486.89999997616,7118,silver,NF,C,246401,246401,244573,245683,244573,246600,246201,246201,246599,2
3,test,1,inc,1,m,Mon Apr 07 2025 08:33:56 GMT-0500 (Central Daylight Time),256545.29999995232,cherry,900,I,m,m,None,599,399.0,200.0,78,1,2018.2999999523163,254527.0,7118,copper,NF,C,248232,248232,246613,247516,246614,248631,248032,248032,248631,3
4,test,1,con,1,m,Mon Apr 07 2025 08:33:56 GMT-0500 (Central Daylight Time),258578.0,iron,1100,I,m,m,None,397,198.0,199.0,108,1,2027.2000000476837,256550.79999995232,7118,iron,NF,C,250464,250465,248637,249748,248637,250664,250265,250265,250664,4
5,test,1,inc,1,z,Mon Apr 07 2025 08:33:56 GMT-0500 (Central Daylight Time),260644.0,silver,1000,I,z,z,None,529,329.0,200.0,15,1,2060.100000023842,258583.89999997616,7118,cherry,NF,C,252398,252398,250670,251681,250670,252730,252198,252198,252730,5
6,test,1,con,1,m,Mon Apr 07 2025 08:33:56 GMT-0500 (Central Daylight Time),262677.0,cobalt,1100,I,m,m,None,388,188.0,200.0,92,1,2027.5,260649.5,7118,cobalt,NF,C,254563,254563,252736,253847,252736,254763,254363,254363,254763,6
7,test,1,con,1,z,Mon Apr 07 2025 08:33:56 GMT-0500 (Central Daylight Time),264509.5,kiwi,1000,I,z,z,None,287,87.0,200.0,51,1,1827.2000000476837,262682.2999999523,7118,kiwi,NF,C,256496,256496,254768,255780,254769,256596,256296,256296,256596,7
8,test,1,con,1,z,Mon Apr 07 2025 08:33:56 GMT-0500 (Central Daylight Time),266943.0,pear,1100,I,z,z,None,793,594.0,199.0,44,1,2427.9000000953674,264515.09999990463,7118,pear,NF,C,258430,258430,256601,257712,256602,259029,258230,258230,259029,8
9,test,1,inc,1,m,Mon Apr 07 2025 08:33:56 GMT-0500 (Central Daylight Time),269091.39999997616,raisin,1100,I,m,m,None,496,297.0,199.0,96,1,2126.5,266964.89999997616,7118,cobalt,NF,C,260878,260878,259051,260161,259052,261177,260678,260678,261177,9
10,test,1,con,1,z,Mon Apr 07 2025 08:33:56 GMT-0500 (Central Daylight Time),271190.6999999285,plum,1100,I,z,z,None,453,253.0,200.0,60,1,2094.100000023842,269096.59999990463,7118,plum,NF,C,263010,263010,261183,262294,261183,263277,262810,262810,263277,10
11,test,1,con,1,m,Mon Apr 07 2025 08:33:56 GMT-0500 (Central Daylight Time),272973.5,bronze,900,I,m,m,None,344,144.0,200.0,66,1,1777.6000000238419,271195.89999997616,7118,bronze,NF,C,264911,264911,263282,264193,263282,265060,264710,264710,265059,11
12,test,1,con,1,m,Mon Apr 07 2025 08:33:56 GMT-0500 (Central Daylight Time),274922.7999999523,gold,1000,I,m,m,None,414,215.0,199.0,99,1,1943.5,272979.2999999523,7118,gold,NF,C,266792,266792,265065,266076,265066,267009,266593,266593,267009,12
13,test,1,inc,1,z,Mon Apr 07 2025 08:33:56 GMT-0500 (Central Daylight Time),276972.0,zinc,1000,I,z,z,None,504,305.0,199.0,63,1,2044.2000000476837,274927.7999999523,7118,plum,NF,C,268742,268742,267014,268025,267014,269058,268542,268542,269058,13
14,test,1,inc,1,z,Mon Apr 07 2025 08:33:56 GMT-0500 (Central Daylight Time),279104.7999999523,silver,1000,I,z,z,None,589,390.0,199.0,31,1,2127.100000023842,276977.6999999285,7118,raisin,NF,C,270793,270793,269064,270075,269064,271191,270593,270593,271191,14
15,test,1,inc,1,z,Mon Apr 07 2025 08:33:56 GMT-0500 (Central Daylight Time),281154.09999990463,zinc,1000,I,z,z,None,514,315.0,199.0,55,1,2044.0,279110.09999990463,7118,kiwi,NF,C,272924,272924,271196,272207,271197,273240,272724,272724,273240,15
16,test,1,inc,1,z,Mon Apr 07 2025 08:33:56 GMT-0500 (Central Daylight Time),283270.0,gold,800,I,z,z,None,778,578.0,200.0,45,1,2109.9000000953674,281160.09999990463,7118,pear,NF,C,274773,274773,273246,274058,273247,275356,274573,274573,275356,16
17,test,1,con,1,m,Mon Apr 07 2025 08:33:56 GMT-0500 (Central Daylight Time),284986.89999997616,silver,800,I,m,m,None,375,175.0,200.0,81,1,1711.8999999761581,283275.0,7118,silver,NF,C,276889,276889,275361,276173,275361,277073,276689,276689,277073,17
18,test,1,con,1,z,Mon Apr 07 2025 08:33:56 GMT-0500 (Central Daylight Time),287168.89999997616,cherry,1100,I,z,z,None,517,317.0,200.0,12,1,2160.8000000715256,285008.09999990463,7118,cherry,NF,C,278922,278922,277094,278205,277096,279255,278722,278722,279255,18
18,test,1,inc,0,z,Mon Apr 07 2025 08:33:56 GMT-0500 (Central Daylight Time),288851.5,bronze,800,I,m,m,None,347,147.0,200.0,5,1,1676.8000000715256,287174.6999999285,7118,banana,NF,C,280788,280788,279261,280073,279261,280938,280588,280588,280938,19
19,test,1,inc,1,m,Mon Apr 07 2025 08:33:56 GMT-0500 (Central Daylight Time),290901.2999999523,orange,1000,I,m,m,None,503,304.0,199.0,95,1,2044.5,288856.7999999523,7118,cobalt,NF,C,282671,282671,280943,281954,280943,282987,282471,282471,282987,20
20,test,1,inc,1,z,Mon Apr 07 2025 08:33:56 GMT-0500 (Central Daylight Time),292766.89999997616,bronze,800,I,z,z,None,501,302.0,199.0,13,1,1848.3000000715256,290918.59999990463,7118,cherry,NF,C,284537,284537,283005,283820,283006,284853,284337,284337,284853,21
21,test,1,con,1,m,Mon Apr 07 2025 08:33:56 GMT-0500 (Central Daylight Time),295032.7999999523,zinc,1000,I,m,m,None,724,525.0,199.0,115,1,2260.5,292772.2999999523,7118,zinc,NF,C,286586,286586,284858,285870,284859,287119,286387,286387,287119,22
22,test,1,con,1,m,Mon Apr 07 2025 08:33:56 GMT-0500 (Central Daylight Time),297083.09999990463,silver,1000,I,m,m,None,508,308.0,200.0,83,1,2044.3999999761581,295038.6999999285,7118,silver,NF,C,288852,288852,287125,288135,287125,289169,288652,288652,289169,23
23,test,1,inc,1,m,Mon Apr 07 2025 08:33:56 GMT-0500 (Central Daylight Time),299131.39999997616,cherry,900,I,m,m,None,597,397.0,200.0,94,1,2028.1000000238419,297103.2999999523,7118,cobalt,NF,C,290818,290818,289189,290101,289191,291217,290618,290618,291217,24
24,test,1,inc,1,z,Mon Apr 07 2025 08:33:56 GMT-0500 (Central Daylight Time),300965.0,bronze,800,I,z,z,None,495,296.0,199.0,21,1,1828.2000000476837,299136.7999999523,7118,orange,NF,C,292752,292752,291223,292036,291223,293051,292552,292552,293051,25
25,test,1,con,1,z,Mon Apr 07 2025 08:33:56 GMT-0500 (Central Daylight Time),302914.5,cherry,900,I,z,z,None,489,274.0,215.0,10,1,1929.0,300985.5,7118,cherry,NF,C,294718,294718,293072,293985,293073,295001,294501,294502,295000,26
26,test,1,con,1,m,Mon Apr 07 2025 08:33:56 GMT-0500 (Central Daylight Time),304963.59999990463,bronze,1100,I,m,m,None,386,172.0,214.0,68,1,2028.5999999046326,302935.0,7118,bronze,NF,C,296867,296868,295021,296134,295023,297050,296652,296652,297050,27
27,test,1,con,1,m,Mon Apr 07 2025 08:33:56 GMT-0500 (Central Daylight Time),306680.0,cobalt,800,I,m,m,None,360,161.0,199.0,89,1,1694.9000000953674,304985.09999990463,7118,cobalt,NF,C,298600,298600,297071,297884,297073,298766,298400,298400,298766,28
28,test,1,con,1,z,Mon Apr 07 2025 08:33:56 GMT-0500 (Central Daylight Time),308445.89999997616,pear,800,I,z,z,None,411,212.0,199.0,41,1,1745.5,306700.39999997616,7118,pear,NF,C,300316,300316,298786,299600,298788,300532,300116,300116,300532,29
29,test,1,inc,1,z,Mon Apr 07 2025 08:33:56 GMT-0500 (Central Daylight Time),310512.0,silver,1000,I,z,z,None,502,303.0,199.0,7,1,2043.9000000953674,308468.09999990463,7118,banana,NF,C,302281,302281,300554,301566,300556,302598,302082,302082,302598,30
30,test,1,inc,1,z,Mon Apr 07 2025 08:33:56 GMT-0500 (Central Daylight Time),312428.0,copper,900,I,z,z,None,456,256.0,200.0,6,1,1895.7000000476837,310532.2999999523,7118,banana,NF,C,304248,304248,302618,303532,302620,304514,304048,304048,304514,31
31,test,1,inc,1,z,Mon Apr 07 2025 08:33:56 GMT-0500 (Central Daylight Time),314527.59999990463,iron,900,I,z,z,None,635,436.0,199.0,46,1,2079.399999976158,312448.1999999285,7118,pear,NF,C,306164,306164,304534,305448,304536,306614,305964,305964,306614,32
32,test,1,inc,1,m,Mon Apr 07 2025 08:33:56 GMT-0500 (Central Daylight Time),316492.5,cherry,900,I,m,m,None,513,313.0,200.0,86,1,1944.1000000238419,314548.39999997616,7118,silver,NF,C,308262,308262,306634,307546,306636,308579,308062,308062,308579,33
33,test,1,con,1,m,Mon Apr 07 2025 08:33:56 GMT-0500 (Central Daylight Time),318625.1999999285,copper,1000,I,m,m,None,583,384.0,199.0,75,1,2126.5,316498.6999999285,7118,copper,NF,C,310311,310311,308585,309595,308585,310711,310112,310112,310711,34
34,test,1,con,1,m,Mon Apr 07 2025 08:33:56 GMT-0500 (Central Daylight Time),320459.09999990463,iron,900,I,m,m,None,398,199.0,199.0,106,1,1827.8999999761581,318631.1999999285,7118,iron,NF,C,312345,312345,310717,311630,310718,312545,312146,312146,312545,35
35,test,1,con,1,z,Mon Apr 07 2025 08:33:56 GMT-0500 (Central Daylight Time),322374.59999990463,cherry,1000,I,z,z,None,360,161.0,199.0,11,1,1895.5999999046326,320479.0,7118,cherry,NF,C,314294,314295,312565,313579,312567,314461,314095,314095,314461,36
35,test,1,con,0,m,Mon Apr 07 2025 08:33:56 GMT-0500 (Central Daylight Time),324443.39999997616,cobalt,1000,I,z,z,None,517,302.0,215.0,91,1,2049.2000000476837,322394.1999999285,7118,cobalt,NF,C,316227,316227,314480,315495,314481,316529,316012,316012,316529,37
36,test,1,con,1,m,Mon Apr 07 2025 08:33:56 GMT-0500 (Central Daylight Time),326856.6999999285,cobalt,900,I,m,m,None,950,751.0,199.0,90,1,2393.2999999523163,324463.39999997616,7118,cobalt,NF,C,318177,318177,316549,317460,316550,318943,317977,317977,318943,38
37,test,1,con,1,m,Mon Apr 07 2025 08:33:56 GMT-0500 (Central Daylight Time),328872.7999999523,iron,1000,I,m,m,None,450,251.0,199.0,107,1,1994.1000000238419,326878.6999999285,7118,iron,NF,C,320693,320693,318965,319976,318966,320959,320493,320493,320959,39
38,test,1,inc,1,m,Mon Apr 07 2025 08:33:56 GMT-0500 (Central Daylight Time),331022.0,orange,1000,I,m,m,None,586,387.0,199.0,71,1,2128.4000000953674,328893.59999990463,7118,bronze,NF,C,322708,322709,320980,321992,320981,323108,322509,322509,323108,40
39,test,1,con,1,m,Mon Apr 07 2025 08:33:56 GMT-0500 (Central Daylight Time),332954.5,iron,800,I,m,m,None,573,374.0,199.0,105,1,1911.3000000715256,331043.1999999285,7118,iron,NF,C,324658,324658,323129,323942,323131,325041,324458,324458,325040,41
39,test,1,inc,0,m,Mon Apr 07 2025 08:33:56 GMT-0500 (Central Daylight Time),334854.0,orange,1000,I,z,z,None,336,137.0,199.0,79,1,1878.5,332975.5,7118,copper,NF,C,326791,326791,325062,326074,325063,326940,326591,326591,326940,42
40,test,1,inc,1,z,Mon Apr 07 2025 08:33:56 GMT-0500 (Central Daylight Time),337187.09999990463,lead,1100,I,z,z,None,681,482.0,199.0,40,1,2312.899999976158,334874.1999999285,7118,lime,NF,C,328790,328790,326960,328074,326962,329273,328590,328590,329273,43
41,test,1,inc,1,m,Mon Apr 07 2025 08:33:56 GMT-0500 (Central Daylight Time),339352.39999997616,pear,900,I,m,m,None,710,511.0,199.0,118,1,2144.7000000476837,337207.6999999285,7118,zinc,NF,C,330922,330922,329294,330206,329295,331439,330723,330723,331438,44
42,test,1,inc,1,m,Mon Apr 07 2025 08:33:56 GMT-0500 (Central Daylight Time),341601.2999999523,kiwi,1000,I,m,m,None,691,492.0,199.0,103,1,2228.2000000476837,339373.09999990463,7118,gold,NF,C,333188,333188,331459,332472,331460,333687,332989,332989,333687,45
43,test,1,con,1,z,Mon Apr 07 2025 08:33:56 GMT-0500 (Central Daylight Time),343951.09999990463,orange,1100,I,z,z,None,703,503.0,200.0,20,1,2338.399999976158,341612.6999999285,7118,orange,NF,C,335521,335521,333699,334805,333700,336037,335321,335321,336037,46
44,test,1,inc,1,m,Mon Apr 07 2025 08:33:56 GMT-0500 (Central Daylight Time),346000.1999999285,pear,900,I,m,m,None,592,393.0,199.0,102,1,2029.1000000238419,343971.09999990463,7118,gold,NF,C,337687,337687,336057,336971,336059,338086,337487,337487,338086,47
45,test,1,inc,1,z,Mon Apr 07 2025 08:33:56 GMT-0500 (Central Daylight Time),348132.7999999523,copper,900,I,z,z,None,679,480.0,199.0,14,1,2112.0,346020.7999999523,7118,cherry,NF,C,339736,339736,338107,339020,338108,340219,339537,339537,340219,48
46,test,1,con,1,z,Mon Apr 07 2025 08:33:56 GMT-0500 (Central Daylight Time),350298.59999990463,plum,1000,I,z,z,None,605,390.0,215.0,59,1,2145.6999999284744,348152.89999997616,7118,plum,NF,C,341986,341986,340239,341253,340240,342385,341769,341770,342385,49
47,test,1,con,1,m,Mon Apr 07 2025 08:33:56 GMT-0500 (Central Daylight Time),352514.7999999523,zinc,1100,I,m,m,None,557,357.0,200.0,116,1,2195.2999999523163,350319.5,7118,zinc,NF,C,344235,344235,342405,343519,342407,344601,344035,344035,344601,50
48,test,1,con,1,z,Mon Apr 07 2025 08:33:56 GMT-0500 (Central Daylight Time),354497.5,lime,900,I,z,z,None,516,317.0,199.0,34,1,1962.5,352535.0,7118,lime,NF,C,346251,346251,344621,345535,344623,346584,346051,346051,346584,51
49,test,1,con,1,m,Mon Apr 07 2025 08:33:56 GMT-0500 (Central Daylight Time),356396.7999999523,copper,800,I,m,m,None,546,347.0,199.0,73,1,1878.2000000476837,354518.59999990463,7118,copper,NF,C,348133,348133,346605,347418,346606,348483,347934,347934,348483,52
50,test,1,con,1,m,Mon Apr 07 2025 08:33:56 GMT-0500 (Central Daylight Time),358612.39999997616,lead,1100,I,m,m,None,554,355.0,199.0,124,1,2197.8000000715256,356414.59999990463,7118,lead,NF,C,350333,350333,348501,349617,348502,350698,350133,350133,350698,53
51,test,1,con,1,m,Mon Apr 07 2025 08:33:56 GMT-0500 (Central Daylight Time),360545.59999990463,silver,900,I,m,m,None,492,293.0,199.0,82,1,1922.0,358623.59999990463,7118,silver,NF,C,352332,352332,350710,351616,350711,352632,352133,352133,352632,54
52,test,1,inc,1,m,Mon Apr 07 2025 08:33:56 GMT-0500 (Central Daylight Time),362528.1999999285,banana,800,I,m,m,None,640,425.0,215.0,77,1,1962.3999999761581,360565.7999999523,7118,copper,NF,C,354183,354183,352652,353465,352653,354614,353967,353967,354614,55
53,test,1,con,1,z,Mon Apr 07 2025 08:33:56 GMT-0500 (Central Daylight Time),364643.89999997616,orange,1000,I,z,z,None,564,365.0,199.0,19,1,2094.8000000715256,362549.09999990463,7118,orange,NF,C,356364,356364,354635,355648,354637,356730,356165,356165,356730,56
54,test,1,inc,1,m,Mon Apr 07 2025 08:33:56 GMT-0500 (Central Daylight Time),366476.6999999285,banana,800,I,m,m,None,479,280.0,199.0,93,1,1814.2999999523163,364662.39999997616,7118,cobalt,NF,C,358280,358280,356748,357564,356749,358563,358081,358081,358563,57
55,test,1,con,1,m,Mon Apr 07 2025 08:33:56 GMT-0500 (Central Daylight Time),368676.0,copper,900,I,m,m,None,745,546.0,199.0,74,1,2181.100000023842,366494.89999997616,7118,copper,NF,C,360214,360214,358581,359497,358582,360762,360015,360015,360762,58
56,test,1,con,1,z,Mon Apr 07 2025 08:33:56 GMT-0500 (Central Daylight Time),370491.7999999523,orange,900,I,z,z,None,353,154.0,199.0,18,1,1793.5,368698.2999999523,7118,orange,NF,C,362413,362413,360784,361696,360786,362578,362212,362213,362578,59
57,test,1,con,1,m,Mon Apr 07 2025 08:33:56 GMT-0500 (Central Daylight Time),372508.1999999285,zinc,900,I,m,m,None,572,373.0,199.0,114,1,2005.6000000238419,370502.59999990463,7118,zinc,NF,C,364212,364212,362589,363494,362589,364594,364012,364012,364594,60
58,test,1,con,1,m,Mon Apr 07 2025 08:33:56 GMT-0500 (Central Daylight Time),374407.2999999523,lead,900,I,m,m,None,434,235.0,199.0,122,1,1877.7999999523163,372529.5,7118,lead,NF,C,366245,366245,364616,365528,364617,366493,366045,366045,366493,61
59,test,1,con,1,m,Mon Apr 07 2025 08:33:56 GMT-0500 (Central Daylight Time),376173.7999999523,gold,800,I,m,m,None,428,229.0,199.0,97,1,1752.3999999761581,374421.39999997616,7118,gold,NF,C,368027,368027,366507,367311,366508,368260,367827,367827,368260,62
60,test,1,inc,1,z,Mon Apr 07 2025 08:33:56 GMT-0500 (Central Daylight Time),378005.59999990463,gold,800,I,z,z,None,469,270.0,199.0,37,1,1811.8999999761581,376193.6999999285,7118,lime,NF,C,369809,369809,368280,369094,368281,370092,369609,369609,370092,63
61,test,1,inc,1,z,Mon Apr 07 2025 08:33:56 GMT-0500 (Central Daylight Time),380022.59999990463,copper,900,I,z,z,None,569,370.0,199.0,22,1,2011.3999999761581,378011.1999999285,7118,orange,NF,C,371726,371726,370097,371009,370098,372109,371526,371526,372109,64
62,test,1,inc,1,m,Mon Apr 07 2025 08:33:56 GMT-0500 (Central Daylight Time),381905.1999999285,lime,800,I,m,m,None,525,326.0,199.0,101,1,1861.6999999284744,380043.5,7118,gold,NF,C,373658,373658,372130,372943,372131,373991,373459,373459,373991,65
63,test,1,inc,1,m,Mon Apr 07 2025 08:33:56 GMT-0500 (Central Daylight Time),384154.2999999523,plum,1100,I,m,m,None,598,399.0,199.0,128,1,2227.5,381926.7999999523,7118,lead,NF,C,375841,375841,374013,375125,374014,376240,375641,375641,376240,66
64,test,1,con,1,z,Mon Apr 07 2025 08:33:56 GMT-0500 (Central Daylight Time),386155.09999990463,banana,1000,I,z,z,None,465,266.0,199.0,3,1,1989.3999999761581,384165.6999999285,7118,banana,NF,C,377974,377974,376252,377258,376253,378241,377774,377774,378241,67
65,test,1,con,1,z,Mon Apr 07 2025 08:33:56 GMT-0500 (Central Daylight Time),388186.5,cherry,800,I,z,z,None,665,466.0,199.0,9,1,2012.7000000476837,386173.7999999523,7118,cherry,NF,C,379790,379790,378260,379074,378261,380273,379590,379590,380272,68
66,test,1,inc,1,m,Mon Apr 07 2025 08:33:56 GMT-0500 (Central Daylight Time),390102.5,banana,800,I,m,m,None,552,353.0,199.0,69,1,1896.2000000476837,388206.2999999523,7118,bronze,NF,C,381822,381823,380292,381106,380294,382189,381623,381623,382189,69
67,test,1,con,1,z,Mon Apr 07 2025 08:33:56 GMT-0500 (Central Daylight Time),392168.59999990463,lime,1000,I,z,z,None,508,309.0,199.0,35,1,2045.5,390123.09999990463,7118,lime,NF,C,383939,383939,382209,383222,382211,384255,383739,383739,384255,70
68,test,1,inc,1,z,Mon Apr 07 2025 08:33:56 GMT-0500 (Central Daylight Time),394217.7999999523,silver,1000,I,z,z,None,484,285.0,199.0,23,1,2029.2999999523163,392188.5,7118,orange,NF,C,386004,386004,384275,385288,384276,386304,385805,385805,386304,71
69,test,1,inc,1,m,Mon Apr 07 2025 08:33:56 GMT-0500 (Central Daylight Time),396383.59999990463,plum,1100,I,m,m,None,509,310.0,199.0,120,1,2145.399999976158,394238.1999999285,7118,zinc,NF,C,388154,388154,386324,387438,386326,388470,387954,387954,388470,72
70,test,1,inc,1,z,Mon Apr 07 2025 08:33:56 GMT-0500 (Central Daylight Time),398532.5,cobalt,1100,I,z,z,None,487,272.0,215.0,8,1,2129.5,396403.0,7118,banana,NF,C,390336,390336,388489,389604,388490,390619,390121,390121,390619,73
71,test,1,inc,1,z,Mon Apr 07 2025 08:33:56 GMT-0500 (Central Daylight Time),400699.1999999285,bronze,800,I,z,z,None,831,632.0,199.0,29,1,2154.899999976158,398544.2999999523,7118,raisin,NF,C,392152,392153,390630,391436,390631,392785,391953,391953,392785,74
72,test,1,inc,1,z,Mon Apr 07 2025 08:33:56 GMT-0500 (Central Daylight Time),402915.1999999285,cobalt,1100,I,z,z,None,563,348.0,215.0,32,1,2196.100000023842,400719.09999990463,7118,raisin,NF,C,394652,394652,392805,393919,392807,395001,394436,394436,395001,75
73,test,1,inc,1,m,Mon Apr 07 2025 08:33:56 GMT-0500 (Central Daylight Time),404881.0,lime,800,I,m,m,None,600,401.0,199.0,125,1,1945.8000000715256,402935.1999999285,7118,lead,NF,C,396551,396551,395021,395835,395023,396967,396352,396352,396967,76
74,test,1,con,1,z,Mon Apr 07 2025 08:33:56 GMT-0500 (Central Daylight Time),406931.2999999523,raisin,900,I,z,z,None,598,399.0,199.0,26,1,2029.1000000238419,404902.1999999285,7118,raisin,NF,C,398617,398617,396988,397901,396990,399017,398417,398417,399017,77
75,test,1,inc,1,z,Mon Apr 07 2025 08:33:56 GMT-0500 (Central Daylight Time),408946.2999999523,iron,900,I,z,z,None,548,349.0,199.0,54,1,1995.2999999523163,406951.0,7118,kiwi,NF,C,400666,400667,399037,399950,399039,401032,400467,400467,401032,78
76,test,1,inc,1,z,Mon Apr 07 2025 08:33:56 GMT-0500 (Central Daylight Time),411012.2999999523,copper,900,I,z,z,None,604,405.0,199.0,30,1,2046.1000000238419,408966.1999999285,7118,raisin,NF,C,402683,402683,401052,401966,401055,403098,402483,402483,403098,79
77,test,1,inc,1,m,Mon Apr 07 2025 08:33:56 GMT-0500 (Central Daylight Time),413211.59999990463,kiwi,1000,I,m,m,None,638,439.0,199.0,111,1,2178.5,411033.09999990463,7118,iron,NF,C,404849,404849,403119,404132,403121,405298,404649,404649,405298,80
78,test,1,con,1,z,Mon Apr 07 2025 08:33:56 GMT-0500 (Central Daylight Time),415344.1999999285,pear,900,I,z,z,None,668,469.0,199.0,42,1,2111.899999976158,413232.2999999523,7118,pear,NF,C,406947,406948,405318,406232,405319,407430,406748,406748,407430,81
79,test,1,con,1,z,Mon Apr 07 2025 08:33:56 GMT-0500 (Central Daylight Time),417510.09999990463,banana,1100,I,z,z,None,502,287.0,215.0,4,1,2146.0999999046326,415364.0,7118,banana,NF,C,409297,409297,407450,408564,407452,409596,409081,409081,409596,82
80,test,1,inc,1,m,Mon Apr 07 2025 08:33:56 GMT-0500 (Central Daylight Time),419676.09999990463,plum,1100,I,m,m,None,505,306.0,199.0,104,1,2145.0999999046326,417531.0,7118,gold,NF,C,411446,411446,409617,410730,409619,411762,411246,411246,411762,83
81,test,1,con,1,z,Mon Apr 07 2025 08:33:56 GMT-0500 (Central Daylight Time),421608.89999997616,plum,800,I,z,z,None,567,368.0,199.0,57,1,1911.8000000715256,419697.09999990463,7118,plum,NF,C,413312,413312,411783,412596,411785,413695,413113,413113,413695,84
82,test,1,con,1,z,Mon Apr 07 2025 08:33:56 GMT-0500 (Central Daylight Time),423708.09999990463,lime,800,I,z,z,None,738,539.0,199.0,33,1,2076.7999999523163,421631.2999999523,7118,lime,NF,C,415245,415245,413717,414529,413719,415794,415045,415045,415794,85
83,test,1,inc,1,m,Mon Apr 07 2025 08:33:56 GMT-0500 (Central Daylight Time),425857.5,plum,1100,I,m,m,None,492,293.0,199.0,112,1,2129.2000000476837,423728.2999999523,7118,iron,NF,C,417644,417644,415814,416928,415816,417944,417445,417445,417943,86
84,test,1,inc,1,m,Mon Apr 07 2025 08:33:56 GMT-0500 (Central Daylight Time),427707.0,lime,800,I,m,m,None,497,298.0,199.0,117,1,1829.8000000715256,425877.1999999285,7118,zinc,NF,C,419494,419494,417963,418777,417965,419793,419294,419294,419793,87
85,test,1,con,1,z,Mon Apr 07 2025 08:33:56 GMT-0500 (Central Daylight Time),429972.7999999523,raisin,1100,I,z,z,None,612,413.0,199.0,28,1,2248.600000023842,427724.1999999285,7118,raisin,NF,C,421643,421643,419810,420926,419811,422059,421443,421443,422059,88
86,test,1,con,1,z,Mon Apr 07 2025 08:33:56 GMT-0500 (Central Daylight Time),431738.7999999523,raisin,800,I,z,z,None,407,207.0,200.0,25,1,1745.5,429993.2999999523,7118,raisin,NF,C,423608,423609,422079,422892,422081,423825,423408,423408,423825,89
87,test,1,inc,1,m,Mon Apr 07 2025 08:33:56 GMT-0500 (Central Daylight Time),433754.89999997616,orange,1000,I,m,m,None,456,257.0,199.0,87,1,1995.5,431759.39999997616,7118,silver,NF,C,425575,425575,423845,424858,423847,425841,425375,425375,425841,90
88,test,1,inc,1,z,Mon Apr 07 2025 08:33:56 GMT-0500 (Central Daylight Time),435970.89999997616,cobalt,1100,I,z,z,None,549,350.0,199.0,16,1,2194.2000000476837,433776.6999999285,7118,cherry,NF,C,427691,427691,425863,426973,425864,428057,427491,427491,428057,91
89,test,1,con,1,m,Mon Apr 07 2025 08:33:56 GMT-0500 (Central Daylight Time),438103.0,gold,1100,I,m,m,None,469,270.0,199.0,100,1,2111.4000000953674,435991.59999990463,7118,gold,NF,C,429906,429906,428078,429191,428079,430189,429706,429706,430189,92
90,test,1,con,1,m,Mon Apr 07 2025 08:33:56 GMT-0500 (Central Daylight Time),439936.09999990463,zinc,800,I,m,m,None,485,285.0,200.0,113,1,1821.5999999046326,438114.5,7118,zinc,NF,C,431723,431723,430201,431006,430202,432022,431522,431522,432022,93
91,test,1,inc,1,m,Mon Apr 07 2025 08:33:56 GMT-0500 (Central Daylight Time),442201.2999999523,raisin,1100,I,m,m,None,597,382.0,215.0,88,1,2244.2999999523163,439957.0,7118,silver,NF,C,433888,433889,432043,433156,432045,434287,433672,433673,434287,94
92,test,1,inc,1,z,Mon Apr 07 2025 08:33:56 GMT-0500 (Central Daylight Time),444168.0,iron,900,I,z,z,None,526,327.0,199.0,62,1,1960.3000000715256,442207.6999999285,7118,plum,NF,C,435921,435921,434294,435204,434294,436254,435722,435722,436254,95
93,test,1,con,1,m,Mon Apr 07 2025 08:33:56 GMT-0500 (Central Daylight Time),446250.0,bronze,1000,I,m,m,None,523,323.0,200.0,67,1,2061.9000000953674,444188.09999990463,7118,bronze,NF,C,438004,438004,436274,437288,436276,438336,437804,437804,438336,96
94,test,1,inc,1,z,Mon Apr 07 2025 08:33:56 GMT-0500 (Central Daylight Time),448449.09999990463,lead,1100,I,z,z,None,557,358.0,199.0,56,1,2193.6999999284744,446255.39999997616,7118,kiwi,NF,C,440169,440169,438341,439454,438342,440535,439970,439970,440535,97
95,test,1,con,1,m,Mon Apr 07 2025 08:33:56 GMT-0500 (Central Daylight Time),450266.09999990463,bronze,800,I,m,m,None,475,260.0,215.0,65,1,1811.0999999046326,448455.0,7118,bronze,NF,C,442085,442085,440541,441353,440541,442352,441870,441870,442352,98
96,test,1,con,1,m,Mon Apr 07 2025 08:33:56 GMT-0500 (Central Daylight Time),452398.6999999285,copper,1100,I,m,m,None,468,253.0,215.0,76,1,2113.1999999284744,450285.5,7118,copper,NF,C,444219,444219,442372,443486,442372,444485,444003,444003,444485,99
97,test,1,inc,1,m,Mon Apr 07 2025 08:33:56 GMT-0500 (Central Daylight Time),454631.1999999285,raisin,1100,I,m,m,None,569,369.0,200.0,80,1,2211.899999976158,452419.2999999523,7118,copper,NF,C,446335,446335,444505,445618,444507,446717,446135,446135,446717,100
98,test,1,con,1,z,Mon Apr 07 2025 08:33:56 GMT-0500 (Central Daylight Time),456614.09999990463,banana,800,I,z,z,None,629,430.0,199.0,1,1,1963.2999999523163,454650.7999999523,7118,banana,NF,C,448267,448267,446737,447551,446738,448700,448068,448068,448700,101
99,test,1,con,1,z,Mon Apr 07 2025 08:33:56 GMT-0500 (Central Daylight Time),458480.09999990463,banana,900,I,z,z,None,401,202.0,199.0,2,1,1845.1999999284744,456634.89999997616,7118,banana,NF,C,450350,450350,448721,449634,448722,450566,450150,450150,450566,102
100,test,1,inc,1,z,Mon Apr 07 2025 08:33:56 GMT-0500 (Central Daylight Time),460662.6999999285,lead,1100,I,z,z,None,518,303.0,215.0,48,1,2162.1999999284744,458500.5,7118,pear,NF,C,452433,452433,450587,451700,450588,452749,452216,452217,452749,103
101,test,1,inc,1,m,Mon Apr 07 2025 08:33:56 GMT-0500 (Central Daylight Time),462611.7999999523,cherry,900,I,m,m,None,497,298.0,199.0,70,1,1928.7999999523163,460683.0,7118,bronze,NF,C,454398,454398,452769,453683,452771,454698,454199,454199,454698,104
102,test,1,inc,1,z,Mon Apr 07 2025 08:33:56 GMT-0500 (Central Daylight Time),465011.1999999285,lead,1100,I,z,z,None,739,540.0,199.0,64,1,2380.100000023842,462631.09999990463,7118,plum,NF,C,456548,456548,454717,455832,454719,457097,456348,456348,457097,105
103,test,1,inc,1,m,Mon Apr 07 2025 08:33:56 GMT-0500 (Central Daylight Time),467093.89999997616,kiwi,1000,I,m,m,None,528,313.0,215.0,119,1,2061.899999976158,465032.0,7118,zinc,NF,C,458864,458864,457118,458131,457120,459180,458648,458648,459180,106
104,test,1,inc,1,m,Mon Apr 07 2025 08:33:56 GMT-0500 (Central Daylight Time),468993.2999999523,banana,800,I,m,m,None,541,342.0,199.0,85,1,1880.6000000238419,467112.6999999285,7118,silver,NF,C,460730,460730,459199,460014,459200,461079,460530,460530,461079,107
105,test,1,inc,1,m,Mon Apr 07 2025 08:33:56 GMT-0500 (Central Daylight Time),470875.59999990463,lime,800,I,m,m,None,539,339.0,200.0,109,1,1868.0999999046326,469007.5,7118,iron,NF,C,462612,462612,461094,461896,461094,462962,462412,462412,462962,108
106,test,1,con,1,z,Mon Apr 07 2025 08:33:56 GMT-0500 (Central Daylight Time),472608.7999999523,kiwi,800,I,z,z,None,384,185.0,199.0,49,1,1722.0,470886.7999999523,7118,kiwi,NF,C,464495,464495,462973,463779,462974,464695,464296,464296,464695,109
107,test,1,con,1,m,Mon Apr 07 2025 08:33:56 GMT-0500 (Central Daylight Time),474641.39999997616,lead,800,I,m,m,None,666,467.0,199.0,121,1,2011.8000000715256,472629.59999990463,7118,lead,NF,C,466244,466245,464716,465528,464717,466727,466045,466045,466727,110
108,test,1,con,1,z,Mon Apr 07 2025 08:33:56 GMT-0500 (Central Daylight Time),476657.89999997616,pear,1000,I,z,z,None,450,251.0,199.0,43,1,1997.0,474660.89999997616,7118,pear,NF,C,468477,468477,466747,467761,466749,468744,468278,468278,468744,111
109,test,1,con,1,z,Mon Apr 07 2025 08:33:56 GMT-0500 (Central Daylight Time),478756.7999999523,lime,1100,I,z,z,None,439,240.0,199.0,36,1,2079.7999999523163,476677.0,7118,lime,NF,C,470593,470593,468763,469877,468765,470843,470394,470394,470843,112
110,test,1,inc,1,z,Mon Apr 07 2025 08:33:56 GMT-0500 (Central Daylight Time),480989.1999999285,cobalt,1100,I,z,z,None,570,371.0,199.0,24,1,2211.1999999284744,478778.0,7118,orange,NF,C,472693,472693,470864,471976,470866,473075,472493,472493,473075,113
111,test,1,inc,1,z,Mon Apr 07 2025 08:33:56 GMT-0500 (Central Daylight Time),482888.5,gold,800,I,z,z,None,534,335.0,199.0,53,1,1881.5,481007.0,7118,kiwi,NF,C,474625,474625,473093,473909,473094,474975,474426,474426,474975,114
112,test,1,inc,1,z,Mon Apr 07 2025 08:33:56 GMT-0500 (Central Daylight Time),484671.5,gold,800,I,z,z,None,427,228.0,199.0,61,1,1762.5,482909.0,7118,plum,NF,C,476525,476525,474995,475809,474997,476758,476325,476325,476757,115
113,test,1,inc,1,z,Mon Apr 07 2025 08:33:56 GMT-0500 (Central Daylight Time),486670.89999997616,zinc,1000,I,z,z,None,435,236.0,199.0,39,1,1979.6000000238419,484691.2999999523,7118,lime,NF,C,478508,478508,476777,477791,476779,478757,478308,478308,478757,116
114,test,1,con,1,z,Mon Apr 07 2025 08:33:56 GMT-0500 (Central Daylight Time),488621.1999999285,raisin,1000,I,z,z,None,395,179.0,216.0,27,1,1928.6000000238419,486692.59999990463,7118,raisin,NF,C,480525,480525,478779,479791,478780,480707,480308,480308,480707,117
115,test,1,con,1,z,Mon Apr 07 2025 08:33:56 GMT-0500 (Central Daylight Time),490336.09999990463,orange,800,I,z,z,None,359,160.0,199.0,17,1,1693.2999999523163,488642.7999999523,7118,orange,NF,C,482256,482256,480729,481540,480730,482422,482056,482057,482422,118
116,test,1,inc,1,m,Mon Apr 07 2025 08:33:56 GMT-0500 (Central Daylight Time),492369.09999990463,pear,900,I,m,m,None,566,351.0,215.0,126,1,2012.2999999523163,490356.7999999523,7118,lead,NF,C,484089,484089,482443,483356,482444,484455,483873,483873,484455,119
117,test,1,inc,1,m,Mon Apr 07 2025 08:33:56 GMT-0500 (Central Daylight Time),494601.59999990463,raisin,1100,I,m,m,None,574,375.0,199.0,72,1,2212.399999976158,492389.1999999285,7118,bronze,NF,C,486305,486305,484475,485590,484477,486688,486105,486105,486688,120
118,test,1,con,1,m,Mon Apr 07 2025 08:33:56 GMT-0500 (Central Daylight Time),496450.09999990463,gold,900,I,m,m,None,390,191.0,199.0,98,1,1828.5,494621.59999990463,7118,gold,NF,C,488336,488336,486708,487621,486709,488536,488137,488137,488536,121
119,test,1,inc,1,m,Mon Apr 07 2025 08:33:56 GMT-0500 (Central Daylight Time),498499.59999990463,kiwi,1000,I,m,m,None,506,306.0,200.0,127,1,2043.6999999284744,496455.89999997616,7118,lead,NF,C,490269,490269,488542,489553,488542,490586,490069,490069,490586,122
120,test,1,con,1,z,Mon Apr 07 2025 08:33:56 GMT-0500 (Central Daylight Time),500533.0,plum,900,I,z,z,None,587,388.0,199.0,58,1,2027.6000000238419,498505.39999997616,7118,plum,NF,C,492220,492220,490591,491503,490592,492619,492020,492020,492619,123
121,test,1,inc,1,z,Mon Apr 07 2025 08:33:56 GMT-0500 (Central Daylight Time),502431.5,iron,900,I,z,z,None,433,219.0,214.0,38,1,1878.9000000953674,500552.59999990463,7118,lime,NF,C,494284,494284,492639,493553,492640,494518,494069,494070,494517,124
122,test,1,con,1,m,Mon Apr 07 2025 08:33:56 GMT-0500 (Central Daylight Time),504714.89999997616,lead,1000,I,m,m,None,740,541.0,199.0,123,1,2278.0,502436.89999997616,7118,lead,NF,C,496251,496251,494523,495535,494524,496801,496052,496052,496801,125
123,test,1,con,1,z,Mon Apr 07 2025 08:33:56 GMT-0500 (Central Daylight Time),506714.2999999523,kiwi,1100,I,z,z,None,340,141.0,199.0,52,1,1981.2000000476837,504733.09999990463,7118,kiwi,NF,C,498651,498651,496819,497935,496820,498801,498451,498451,498800,126
124,test,1,con,1,z,Mon Apr 07 2025 08:33:56 GMT-0500 (Central Daylight Time),508647.0,kiwi,900,I,z,z,None,477,278.0,199.0,50,1,1913.4000000953674,506733.59999990463,7118,kiwi,NF,C,500450,500450,498820,499734,498821,500733,500251,500251,500733,127
125,test,1,inc,1,z,Mon Apr 07 2025 08:33:56 GMT-0500 (Central Daylight Time),510812.89999997616,zinc,1000,I,z,z,None,605,406.0,199.0,47,1,2145.7000000476837,508667.1999999285,7118,pear,NF,C,502483,502483,500753,501767,500755,502899,502283,502283,502899,128
