acc_sum,block,block_c,change,condition,correct,correct_response,datetime,endtime,face,project,response,response_time,row_sel,session_number,start_end,starttime,subject_id,task,task_vers,trial
0,prac,1,,1-Back,,,Fri Apr 18 2025 11:55:37 GMT-0500 (Central Daylight Time),,005_o_f_d_a.png,O,space,6115,1,1,,,7126,VNB,B,0
1,prac,1,0.0,1-Back,1,m,Fri Apr 18 2025 11:55:37 GMT-0500 (Central Daylight Time),134835.0,020_y_f_n_a.png,O,m,1153,2,1,2008.5,132826.5,7126,VNB,B,1
2,prac,1,0.0,1-Back,1,m,Fri Apr 18 2025 11:55:37 GMT-0500 (Central Daylight Time),137016.0,007_m_m_h_a.png,O,m,1298,3,1,2170.2000000029802,134845.79999999702,7126,VNB,B,2
3,prac,1,0.0,1-Back,1,m,Fri Apr 18 2025 11:55:37 GMT-0500 (Central Daylight Time),138981.79999999702,016_y_m_d_a.png,O,m,1075,4,1,1957.0,137024.79999999702,7126,VNB,B,3
4,prac,1,0.0,1-Back,1,m,Fri Apr 18 2025 11:55:37 GMT-0500 (Central Daylight Time),140931.70000000298,005_o_f_n_a.png,O,m,1073,5,1,1941.2000000029802,138990.5,7126,VNB,B,4
4,prac,1,1.0,1-Back,0,z,Fri Apr 18 2025 11:55:37 GMT-0500 (Central Daylight Time),142899.70000000298,016_y_m_n_a.png,O,m,1076,6,1,1958.800000011921,140940.89999999106,7126,VNB,B,5
5,prac,1,0.0,1-Back,1,m,Fri Apr 18 2025 11:55:37 GMT-0500 (Central Daylight Time),145029.79999999702,004_o_m_h_a.png,O,m,1267,7,1,2121.0999999940395,142908.70000000298,7126,VNB,B,6
6,prac,1,0.0,1-Back,1,m,Fri Apr 18 2025 11:55:37 GMT-0500 (Central Daylight Time),147080.70000000298,011_m_f_d_a.png,O,m,1160,8,1,2040.7000000029802,145040.0,7126,VNB,B,7
7,prac,1,1.0,1-Back,1,z,Fri Apr 18 2025 11:55:37 GMT-0500 (Central Daylight Time),149178.70000000298,020_y_f_d_a.png,O,z,1233,9,1,2089.2000000029802,147089.5,7126,VNB,B,8
8,prac,1,0.0,1-Back,1,m,Fri Apr 18 2025 11:55:37 GMT-0500 (Central Daylight Time),151078.0,007_m_m_n_a.png,O,m,1000,10,1,1887.7000000029802,149190.29999999702,7126,VNB,B,9
9,prac,1,0.0,1-Back,1,m,Fri Apr 18 2025 11:55:37 GMT-0500 (Central Daylight Time),153296.0,005_o_f_h_a.png,O,m,1329,11,1,2211.7000000029802,151084.29999999702,7126,VNB,B,10
9,prac,1,0.0,1-Back,0,m,Fri Apr 18 2025 11:55:37 GMT-0500 (Central Daylight Time),155510.59999999404,016_y_m_d_a.png,O,z,1320,12,1,2205.2000000029802,153305.39999999106,7126,VNB,B,11
0,test,1,0.0,1-Back,,,Fri Apr 18 2025 11:55:37 GMT-0500 (Central Daylight Time),155510.59999999404,020_y_f_d_a.png,O,space,14277,1,1,2205.2000000029802,153305.39999999106,7126,VNB,B,0
1,test,1,0.0,1-Back,1,m,Fri Apr 18 2025 11:55:37 GMT-0500 (Central Daylight Time),181302.79999999702,011_m_f_n_a.png,O,m,854,2,1,1873.9000000059605,179428.89999999106,7126,VNB,B,1
2,test,1,0.0,1-Back,1,m,Fri Apr 18 2025 11:55:37 GMT-0500 (Central Daylight Time),183386.89999999106,004_o_m_h_a.png,O,m,1065,3,1,2076.199999988079,181310.70000000298,7126,VNB,B,2
3,test,1,1.0,1-Back,1,z,Fri Apr 18 2025 11:55:37 GMT-0500 (Central Daylight Time),185068.39999999106,007_m_m_h_a.png,O,z,654,4,1,1675.199999988079,183393.20000000298,7126,VNB,B,3
4,test,1,0.0,1-Back,1,m,Fri Apr 18 2025 11:55:37 GMT-0500 (Central Daylight Time),187583.70000000298,005_o_f_n_a.png,O,m,1485,5,1,2507.9000000059605,185075.79999999702,7126,VNB,B,4
5,test,1,0.0,1-Back,1,m,Fri Apr 18 2025 11:55:37 GMT-0500 (Central Daylight Time),190550.0,016_y_m_d_a.png,O,m,1937,6,1,2957.7999999970198,187592.20000000298,7126,VNB,B,5
6,test,1,1.0,1-Back,1,z,Fri Apr 18 2025 11:55:37 GMT-0500 (Central Daylight Time),192582.79999999702,011_m_f_d_a.png,O,z,1010,7,1,2024.0,190558.79999999702,7126,VNB,B,6
7,test,1,0.0,1-Back,1,m,Fri Apr 18 2025 11:55:37 GMT-0500 (Central Daylight Time),194549.29999999702,020_y_f_h_a.png,O,m,949,8,1,1957.4000000059605,192591.89999999106,7126,VNB,B,7
8,test,1,0.0,1-Back,1,m,Fri Apr 18 2025 11:55:37 GMT-0500 (Central Daylight Time),196446.5,004_o_m_n_a.png,O,m,868,9,1,1888.1000000089407,194558.39999999106,7126,VNB,B,8
9,test,1,0.0,1-Back,1,m,Fri Apr 18 2025 11:55:37 GMT-0500 (Central Daylight Time),198380.70000000298,016_y_m_h_a.png,O,m,914,10,1,1926.9000000059605,196453.79999999702,7126,VNB,B,9
10,test,1,0.0,1-Back,1,m,Fri Apr 18 2025 11:55:37 GMT-0500 (Central Daylight Time),200296.39999999106,004_o_m_d_a.png,O,m,882,11,1,1907.8999999910593,198388.5,7126,VNB,B,10
11,test,1,1.0,1-Back,1,z,Fri Apr 18 2025 11:55:37 GMT-0500 (Central Daylight Time),202412.5,005_o_f_d_a.png,O,z,1097,12,1,2109.7999999970198,200302.70000000298,7126,VNB,B,11
12,test,1,0.0,1-Back,1,m,Fri Apr 18 2025 11:55:37 GMT-0500 (Central Daylight Time),204478.29999999702,007_m_m_n_a.png,O,m,1045,13,1,2056.5,202421.79999999702,7126,VNB,B,12
12,test,1,1.0,1-Back,0,z,Fri Apr 18 2025 11:55:37 GMT-0500 (Central Daylight Time),206395.20000000298,020_y_f_n_a.png,O,m,880,14,1,1910.5,204484.70000000298,7126,VNB,B,13
13,test,1,0.0,1-Back,1,m,Fri Apr 18 2025 11:55:37 GMT-0500 (Central Daylight Time),208461.09999999404,011_m_f_h_a.png,O,m,1049,15,1,2056.2999999970198,206404.79999999702,7126,VNB,B,14
14,test,1,0.0,1-Back,1,m,Fri Apr 18 2025 11:55:37 GMT-0500 (Central Daylight Time),210342.29999999702,007_m_m_d_a.png,O,m,851,16,1,1873.9000000059605,208468.39999999106,7126,VNB,B,15
14,test,1,0.0,1-Back,0,m,Fri Apr 18 2025 11:55:37 GMT-0500 (Central Daylight Time),213157.0,016_y_m_n_a.png,O,z,1785,17,1,2808.6000000089407,210348.39999999106,7126,VNB,B,16
14,test,1,0.0,1-Back,0,m,Fri Apr 18 2025 11:55:37 GMT-0500 (Central Daylight Time),214992.0,005_o_f_h_a.png,O,z,801,18,1,1827.6000000089407,213164.39999999106,7126,VNB,B,17
0,test,2,0.0,1-Back,,,Fri Apr 18 2025 11:55:37 GMT-0500 (Central Daylight Time),214992.0,016_y_m_n_a.png,O,space,5164,1,1,1827.6000000089407,213164.39999999106,7126,VNB,B,0
1,test,2,0.0,1-Back,1,m,Fri Apr 18 2025 11:55:37 GMT-0500 (Central Daylight Time),224122.0,020_y_f_h_a.png,O,m,905,2,1,1927.1000000089407,222194.89999999106,7126,VNB,B,1
2,test,2,1.0,1-Back,1,m,Fri Apr 18 2025 11:55:37 GMT-0500 (Central Daylight Time),225955.5,004_o_m_n_a.png,O,m,806,3,1,1825.2000000029802,224130.29999999702,7126,VNB,B,2
2,test,2,0.0,1-Back,0,m,Fri Apr 18 2025 11:55:37 GMT-0500 (Central Daylight Time),228121.20000000298,011_m_f_d_a.png,O,z,1141,4,1,2159.2000000029802,225962.0,7126,VNB,B,3
3,test,2,0.0,1-Back,1,z,Fri Apr 18 2025 11:55:37 GMT-0500 (Central Daylight Time),230005.29999999702,007_m_m_d_a.png,O,z,868,5,1,1878.7000000029802,228126.59999999404,7126,VNB,B,4
4,test,2,0.0,1-Back,1,m,Fri Apr 18 2025 11:55:37 GMT-0500 (Central Daylight Time),231753.39999999106,016_y_m_h_a.png,O,m,719,6,1,1741.7999999970198,230011.59999999404,7126,VNB,B,5
5,test,2,1.0,1-Back,1,z,Fri Apr 18 2025 11:55:37 GMT-0500 (Central Daylight Time),233917.70000000298,005_o_f_h_a.png,O,z,1143,7,1,2158.1000000089407,231759.59999999404,7126,VNB,B,6
6,test,2,0.0,1-Back,1,m,Fri Apr 18 2025 11:55:37 GMT-0500 (Central Daylight Time),235768.20000000298,011_m_f_n_a.png,O,m,818,8,1,1842.300000011921,233925.89999999106,7126,VNB,B,7
7,test,2,0.0,1-Back,1,m,Fri Apr 18 2025 11:55:37 GMT-0500 (Central Daylight Time),238401.70000000298,020_y_f_d_a.png,O,m,1610,9,1,2627.1000000089407,235774.59999999404,7126,VNB,B,8
7,test,2,0.0,1-Back,0,m,Fri Apr 18 2025 11:55:37 GMT-0500 (Central Daylight Time),240534.0,007_m_m_n_a.png,O,z,1104,10,1,2123.4000000059605,238410.59999999404,7126,VNB,B,9
8,test,2,1.0,1-Back,1,m,Fri Apr 18 2025 11:55:37 GMT-0500 (Central Daylight Time),242582.20000000298,011_m_f_h_a.png,O,m,1028,11,1,2040.6000000089407,240541.59999999404,7126,VNB,B,10
9,test,2,0.0,1-Back,1,z,Fri Apr 18 2025 11:55:37 GMT-0500 (Central Daylight Time),244684.20000000298,004_o_m_h_a.png,O,z,1083,12,1,2096.2000000029802,242588.0,7126,VNB,B,11
10,test,2,0.0,1-Back,1,m,Fri Apr 18 2025 11:55:37 GMT-0500 (Central Daylight Time),246415.20000000298,016_y_m_d_a.png,O,m,702,13,1,1722.800000011921,244692.39999999106,7126,VNB,B,12
11,test,2,0.0,1-Back,1,m,Fri Apr 18 2025 11:55:37 GMT-0500 (Central Daylight Time),248580.5,005_o_f_n_a.png,O,m,1139,14,1,2157.2000000029802,246423.29999999702,7126,VNB,B,13
11,test,2,0.0,1-Back,0,z,Fri Apr 18 2025 11:55:37 GMT-0500 (Central Daylight Time),250413.89999999106,020_y_f_n_a.png,O,m,804,15,1,1826.0999999940395,248587.79999999702,7126,VNB,B,14
12,test,2,1.0,1-Back,1,m,Fri Apr 18 2025 11:55:37 GMT-0500 (Central Daylight Time),252531.0,007_m_m_h_a.png,O,m,1098,16,1,2109.5,250421.5,7126,VNB,B,15
13,test,2,0.0,1-Back,1,m,Fri Apr 18 2025 11:55:37 GMT-0500 (Central Daylight Time),254429.0,005_o_f_d_a.png,O,m,871,17,1,1892.1000000089407,252536.89999999106,7126,VNB,B,16
14,test,2,1.0,1-Back,1,z,Fri Apr 18 2025 11:55:37 GMT-0500 (Central Daylight Time),256395.0,004_o_m_d_a.png,O,z,939,18,1,1958.0,254437.0,7126,VNB,B,17
0,test,3,1.0,1-Back,,,Fri Apr 18 2025 11:55:37 GMT-0500 (Central Daylight Time),256395.0,005_o_f_h_a.png,O,space,5118,1,1,1958.0,254437.0,7126,VNB,B,0
1,test,3,0.0,1-Back,1,m,Fri Apr 18 2025 11:55:37 GMT-0500 (Central Daylight Time),265677.799999997,011_m_f_d_a.png,O,m,1018,2,1,2027.5,263650.299999997,7126,VNB,B,1
2,test,3,1.0,1-Back,1,m,Fri Apr 18 2025 11:55:37 GMT-0500 (Central Daylight Time),267991.59999999404,007_m_m_n_a.png,O,m,1284,3,1,2306.0999999940395,265685.5,7126,VNB,B,2
3,test,3,0.0,1-Back,1,z,Fri Apr 18 2025 11:55:37 GMT-0500 (Central Daylight Time),270008.0,005_o_f_n_a.png,O,z,994,4,1,2009.9000000059605,267998.09999999404,7126,VNB,B,3
4,test,3,1.0,1-Back,1,m,Fri Apr 18 2025 11:55:37 GMT-0500 (Central Daylight Time),271908.0,004_o_m_d_a.png,O,m,873,5,1,1895.5,270012.5,7126,VNB,B,4
5,test,3,0.0,1-Back,1,m,Fri Apr 18 2025 11:55:37 GMT-0500 (Central Daylight Time),273856.39999999106,020_y_f_h_a.png,O,m,917,6,1,1943.5999999940395,271912.799999997,7126,VNB,B,5
6,test,3,0.0,1-Back,1,z,Fri Apr 18 2025 11:55:37 GMT-0500 (Central Daylight Time),275706.299999997,016_y_m_h_a.png,O,z,825,7,1,1843.7000000029802,273862.59999999404,7126,VNB,B,6
7,test,3,0.0,1-Back,1,m,Fri Apr 18 2025 11:55:37 GMT-0500 (Central Daylight Time),278272.200000003,011_m_f_n_a.png,O,m,1543,8,1,2559.9000000059605,275712.299999997,7126,VNB,B,7
8,test,3,0.0,1-Back,1,m,Fri Apr 18 2025 11:55:37 GMT-0500 (Central Daylight Time),280120.39999999106,020_y_f_d_a.png,O,m,825,9,1,1841.199999988079,278279.200000003,7126,VNB,B,8
8,test,3,1.0,1-Back,0,m,Fri Apr 18 2025 11:55:37 GMT-0500 (Central Daylight Time),282335.89999999106,004_o_m_n_a.png,O,z,1183,10,1,2209.5999999940395,280126.299999997,7126,VNB,B,9
9,test,3,0.0,1-Back,1,m,Fri Apr 18 2025 11:55:37 GMT-0500 (Central Daylight Time),284469.89999999106,007_m_m_h_a.png,O,m,1104,11,1,2126.0,282343.89999999106,7126,VNB,B,10
10,test,3,0.0,1-Back,1,z,Fri Apr 18 2025 11:55:37 GMT-0500 (Central Daylight Time),286969.39999999106,011_m_f_h_a.png,O,z,1475,12,1,2492.5999999940395,284476.799999997,7126,VNB,B,11
11,test,3,1.0,1-Back,1,m,Fri Apr 18 2025 11:55:37 GMT-0500 (Central Daylight Time),288684.799999997,005_o_f_d_a.png,O,m,697,13,1,1710.2999999970198,286974.5,7126,VNB,B,12
12,test,3,0.0,1-Back,1,z,Fri Apr 18 2025 11:55:37 GMT-0500 (Central Daylight Time),290817.799999997,007_m_m_d_a.png,O,z,1100,14,1,2125.7000000029802,288692.09999999404,7126,VNB,B,13
13,test,3,0.0,1-Back,1,m,Fri Apr 18 2025 11:55:37 GMT-0500 (Central Daylight Time),293150.59999999404,016_y_m_n_a.png,O,m,1313,15,1,2326.2000000029802,290824.39999999106,7126,VNB,B,14
13,test,3,1.0,1-Back,0,m,Fri Apr 18 2025 11:55:37 GMT-0500 (Central Daylight Time),294932.89999999106,004_o_m_h_a.png,O,z,764,16,1,1773.3999999910593,293159.5,7126,VNB,B,15
14,test,3,0.0,1-Back,1,m,Fri Apr 18 2025 11:55:37 GMT-0500 (Central Daylight Time),297131.299999997,016_y_m_d_a.png,O,m,1172,17,1,2189.5,294941.799999997,7126,VNB,B,16
15,test,3,1.0,1-Back,1,m,Fri Apr 18 2025 11:55:37 GMT-0500 (Central Daylight Time),299031.0,020_y_f_n_a.png,O,m,878,18,1,1890.5,297140.5,7126,VNB,B,17
0,test,4,1.0,1-Back,,,Fri Apr 18 2025 11:55:37 GMT-0500 (Central Daylight Time),299031.0,007_m_m_d_a.png,O,space,2955,1,1,1890.5,297140.5,7126,VNB,B,0
1,test,4,0.0,1-Back,1,z,Fri Apr 18 2025 11:55:37 GMT-0500 (Central Daylight Time),306029.299999997,004_o_m_d_a.png,O,z,983,2,1,2008.0,304021.299999997,7126,VNB,B,1
2,test,4,0.0,1-Back,1,m,Fri Apr 18 2025 11:55:37 GMT-0500 (Central Daylight Time),307844.799999997,016_y_m_h_a.png,O,m,794,3,1,1807.5,306037.299999997,7126,VNB,B,2
3,test,4,0.0,1-Back,1,m,Fri Apr 18 2025 11:55:37 GMT-0500 (Central Daylight Time),309795.09999999404,011_m_f_n_a.png,O,m,932,4,1,1943.0,307852.09999999404,7126,VNB,B,3
4,test,4,1.0,1-Back,1,m,Fri Apr 18 2025 11:55:37 GMT-0500 (Central Daylight Time),312161.09999999404,005_o_f_h_a.png,O,m,1342,5,1,2359.2000000029802,309801.89999999106,7126,VNB,B,4
5,test,4,0.0,1-Back,1,m,Fri Apr 18 2025 11:55:37 GMT-0500 (Central Daylight Time),313993.799999997,007_m_m_n_a.png,O,m,806,6,1,1824.7000000029802,312169.09999999404,7126,VNB,B,5
6,test,4,0.0,1-Back,1,m,Fri Apr 18 2025 11:55:37 GMT-0500 (Central Daylight Time),316210.0,016_y_m_d_a.png,O,m,1182,7,1,2209.9000000059605,314000.09999999404,7126,VNB,B,6
7,test,4,1.0,1-Back,1,z,Fri Apr 18 2025 11:55:37 GMT-0500 (Central Daylight Time),318258.89999999106,020_y_f_d_a.png,O,z,1024,8,1,2042.199999988079,316216.700000003,7126,VNB,B,7
7,test,4,0.0,1-Back,0,m,Fri Apr 18 2025 11:55:37 GMT-0500 (Central Daylight Time),320308.200000003,011_m_f_h_a.png,O,z,1022,9,1,2043.6000000089407,318264.59999999404,7126,VNB,B,8
7,test,4,0.0,1-Back,0,z,Fri Apr 18 2025 11:55:37 GMT-0500 (Central Daylight Time),322557.700000003,004_o_m_h_a.png,O,m,1213,10,1,2241.300000011921,320316.39999999106,7126,VNB,B,9
7,test,4,1.0,1-Back,0,m,Fri Apr 18 2025 11:55:37 GMT-0500 (Central Daylight Time),325588.299999997,005_o_f_n_a.png,O,None,2015,11,1,3023.2999999970198,322565.0,7126,VNB,B,10
7,test,4,0.0,1-Back,0,m,Fri Apr 18 2025 11:55:37 GMT-0500 (Central Daylight Time),328622.5,011_m_f_d_a.png,O,None,2015,12,1,3030.6000000089407,325591.89999999106,7126,VNB,B,11
8,test,4,0.0,1-Back,1,m,Fri Apr 18 2025 11:55:37 GMT-0500 (Central Daylight Time),330688.0,020_y_f_n_a.png,O,m,1043,13,1,2058.7000000029802,328629.299999997,7126,VNB,B,12
8,test,4,0.0,1-Back,0,m,Fri Apr 18 2025 11:55:37 GMT-0500 (Central Daylight Time),333719.700000003,005_o_f_d_a.png,O,None,2014,14,1,3023.300000011921,330696.39999999106,7126,VNB,B,13
9,test,4,0.0,1-Back,1,m,Fri Apr 18 2025 11:55:37 GMT-0500 (Central Daylight Time),335788.09999999404,020_y_f_h_a.png,O,m,1050,15,1,2059.0,333729.09999999404,7126,VNB,B,14
10,test,4,1.0,1-Back,1,z,Fri Apr 18 2025 11:55:37 GMT-0500 (Central Daylight Time),337652.59999999404,007_m_m_h_a.png,O,z,845,16,1,1856.2999999970198,335796.299999997,7126,VNB,B,15
11,test,4,0.0,1-Back,1,m,Fri Apr 18 2025 11:55:37 GMT-0500 (Central Daylight Time),339602.799999997,004_o_m_n_a.png,O,m,916,17,1,1941.5999999940395,337661.200000003,7126,VNB,B,16
12,test,4,1.0,1-Back,1,z,Fri Apr 18 2025 11:55:37 GMT-0500 (Central Daylight Time),341484.700000003,016_y_m_n_a.png,O,z,863,18,1,1875.4000000059605,339609.299999997,7126,VNB,B,17
0,test,5,1.0,1-Back,,,Fri Apr 18 2025 11:55:37 GMT-0500 (Central Daylight Time),341484.700000003,004_o_m_n_a.png,O,space,2965,1,1,1875.4000000059605,339609.299999997,7126,VNB,B,0
1,test,5,1.0,1-Back,1,m,Fri Apr 18 2025 11:55:37 GMT-0500 (Central Daylight Time),348333.39999999106,005_o_f_h_a.png,O,m,839,2,1,1858.3999999910593,346475.0,7126,VNB,B,1
2,test,5,0.0,1-Back,1,m,Fri Apr 18 2025 11:55:37 GMT-0500 (Central Daylight Time),350132.5,016_y_m_d_a.png,O,m,764,3,1,1790.7000000029802,348341.799999997,7126,VNB,B,2
3,test,5,0.0,1-Back,1,z,Fri Apr 18 2025 11:55:37 GMT-0500 (Central Daylight Time),351983.0,004_o_m_d_a.png,O,z,821,4,1,1843.0,350140.0,7126,VNB,B,3
4,test,5,0.0,1-Back,1,m,Fri Apr 18 2025 11:55:37 GMT-0500 (Central Daylight Time),354148.299999997,011_m_f_h_a.png,O,m,1148,5,1,2156.9000000059605,351991.39999999106,7126,VNB,B,4
5,test,5,0.0,1-Back,1,m,Fri Apr 18 2025 11:55:37 GMT-0500 (Central Daylight Time),355846.59999999404,020_y_f_n_a.png,O,m,678,6,1,1693.0999999940395,354153.5,7126,VNB,B,5
6,test,5,1.0,1-Back,1,z,Fri Apr 18 2025 11:55:37 GMT-0500 (Central Daylight Time),357613.09999999404,005_o_f_n_a.png,O,z,747,7,1,1759.3999999910593,355853.700000003,7126,VNB,B,6
7,test,5,0.0,1-Back,1,m,Fri Apr 18 2025 11:55:37 GMT-0500 (Central Daylight Time),360063.299999997,011_m_f_d_a.png,O,m,1419,8,1,2442.2999999970198,357621.0,7126,VNB,B,7
8,test,5,0.0,1-Back,1,m,Fri Apr 18 2025 11:55:37 GMT-0500 (Central Daylight Time),362027.39999999106,016_y_m_h_a.png,O,m,938,9,1,1957.5,360069.89999999106,7126,VNB,B,8
9,test,5,0.0,1-Back,1,m,Fri Apr 18 2025 11:55:37 GMT-0500 (Central Daylight Time),363761.89999999106,020_y_f_d_a.png,O,m,710,10,1,1727.199999988079,362034.700000003,7126,VNB,B,9
10,test,5,0.0,1-Back,1,m,Fri Apr 18 2025 11:55:37 GMT-0500 (Central Daylight Time),365743.59999999404,007_m_m_n_a.png,O,m,959,11,1,1976.0999999940395,363767.5,7126,VNB,B,10
10,test,5,1.0,1-Back,0,z,Fri Apr 18 2025 11:55:37 GMT-0500 (Central Daylight Time),367709.59999999404,011_m_f_n_a.png,O,m,947,12,1,1958.5999999940395,365751.0,7126,VNB,B,11
11,test,5,0.0,1-Back,1,m,Fri Apr 18 2025 11:55:37 GMT-0500 (Central Daylight Time),370058.700000003,004_o_m_h_a.png,O,m,1330,13,1,2342.2000000029802,367716.5,7126,VNB,B,12
12,test,5,0.0,1-Back,1,z,Fri Apr 18 2025 11:55:37 GMT-0500 (Central Daylight Time),372107.700000003,007_m_m_h_a.png,O,z,1024,14,1,2044.6000000089407,370063.09999999404,7126,VNB,B,13
13,test,5,1.0,1-Back,1,m,Fri Apr 18 2025 11:55:37 GMT-0500 (Central Daylight Time),373909.5,005_o_f_d_a.png,O,m,783,15,1,1794.0,372115.5,7126,VNB,B,14
14,test,5,0.0,1-Back,1,m,Fri Apr 18 2025 11:55:37 GMT-0500 (Central Daylight Time),375857.5,016_y_m_n_a.png,O,m,926,16,1,1939.7999999970198,373917.700000003,7126,VNB,B,15
15,test,5,0.0,1-Back,1,m,Fri Apr 18 2025 11:55:37 GMT-0500 (Central Daylight Time),378274.200000003,020_y_f_h_a.png,O,m,1383,17,1,2408.9000000059605,375865.299999997,7126,VNB,B,16
16,test,5,0.0,1-Back,1,m,Fri Apr 18 2025 11:55:37 GMT-0500 (Central Daylight Time),380307.200000003,007_m_m_d_a.png,O,m,1016,18,1,2025.4000000059605,378281.799999997,7126,VNB,B,17
0,prac,1,0.0,2-Back,,,Fri Apr 18 2025 11:55:37 GMT-0500 (Central Daylight Time),380307.200000003,011_m_f_n_a.png,O,space,2525,1,1,2025.4000000059605,378281.799999997,7126,VNB,B,0
0,prac,1,0.0,2-Back,,,Fri Apr 18 2025 11:55:37 GMT-0500 (Central Daylight Time),380307.200000003,005_o_f_h_a.png,O,space,2525,2,1,2025.4000000059605,378281.799999997,7126,VNB,B,0
0,prac,1,0.0,2-Back,0,m,Fri Apr 18 2025 11:55:37 GMT-0500 (Central Daylight Time),470244.5,004_o_m_d_a.png,O,z,1396,3,1,2264.0,467980.5,7126,VNB,B,1
0,prac,1,1.0,2-Back,0,z,Fri Apr 18 2025 11:55:37 GMT-0500 (Central Daylight Time),472743.09999999404,007_m_m_h_a.png,O,m,1611,4,1,2489.7999999970198,470253.299999997,7126,VNB,B,2
0,prac,1,0.0,2-Back,0,m,Fri Apr 18 2025 11:55:37 GMT-0500 (Central Daylight Time),475625.799999997,020_y_f_n_a.png,O,None,2018,5,1,2874.0999999940395,472751.700000003,7126,VNB,B,3
1,prac,1,1.0,2-Back,1,z,Fri Apr 18 2025 11:55:37 GMT-0500 (Central Daylight Time),478225.200000003,004_o_m_h_a.png,O,z,1827,6,1,2592.7000000029802,475632.5,7126,VNB,B,4
1,prac,1,1.0,2-Back,0,z,Fri Apr 18 2025 11:55:37 GMT-0500 (Central Daylight Time),480524.799999997,016_y_m_n_a.png,O,m,1417,7,1,2291.2999999970198,478233.5,7126,VNB,B,5
1,prac,1,0.0,2-Back,0,m,Fri Apr 18 2025 11:55:37 GMT-0500 (Central Daylight Time),483024.799999997,011_m_f_d_a.png,O,z,1625,8,1,2490.9000000059605,480533.89999999106,7126,VNB,B,6
1,prac,1,0.0,2-Back,0,m,Fri Apr 18 2025 11:55:37 GMT-0500 (Central Daylight Time),485153.799999997,005_o_f_d_a.png,O,z,1244,9,1,2125.2999999970198,483028.5,7126,VNB,B,7
2,prac,1,0.0,2-Back,1,m,Fri Apr 18 2025 11:55:37 GMT-0500 (Central Daylight Time),487023.09999999404,007_m_m_h_a.png,O,m,1108,10,1,1865.5,485157.59999999404,7126,VNB,B,8
2,prac,1,1.0,2-Back,0,z,Fri Apr 18 2025 11:55:37 GMT-0500 (Central Daylight Time),489405.799999997,020_y_f_d_a.png,O,m,1505,11,1,2373.5999999940395,487032.200000003,7126,VNB,B,9
2,prac,1,0.0,2-Back,0,m,Fri Apr 18 2025 11:55:37 GMT-0500 (Central Daylight Time),491604.5,004_o_m_n_a.png,O,z,1329,12,1,2189.2000000029802,489415.299999997,7126,VNB,B,10
0,prac,2,0.0,2-Back,,,Fri Apr 18 2025 11:55:37 GMT-0500 (Central Daylight Time),491604.5,011_m_f_n_a.png,O,a,10631,1,1,2189.2000000029802,489415.299999997,7126,VNB,B,0
0,prac,2,0.0,2-Back,,,Fri Apr 18 2025 11:55:37 GMT-0500 (Central Daylight Time),491604.5,005_o_f_h_a.png,O,a,10631,2,1,2189.2000000029802,489415.299999997,7126,VNB,B,0
1,prac,2,0.0,2-Back,1,m,Fri Apr 18 2025 11:55:37 GMT-0500 (Central Daylight Time),509398.700000003,004_o_m_d_a.png,O,m,1035,3,1,1907.0,507491.700000003,7126,VNB,B,1
1,prac,2,1.0,2-Back,0,z,Fri Apr 18 2025 11:55:37 GMT-0500 (Central Daylight Time),512179.700000003,007_m_m_h_a.png,O,None,2007,4,1,2771.800000011921,509407.89999999106,7126,VNB,B,2
1,prac,2,0.0,2-Back,0,m,Fri Apr 18 2025 11:55:37 GMT-0500 (Central Daylight Time),514396.0,020_y_f_n_a.png,O,z,1341,5,1,2204.6000000089407,512191.39999999106,7126,VNB,B,3
2,prac,2,1.0,2-Back,1,z,Fri Apr 18 2025 11:55:37 GMT-0500 (Central Daylight Time),516696.200000003,004_o_m_h_a.png,O,z,1429,6,1,2291.6000000089407,514404.59999999404,7126,VNB,B,4
2,prac,2,1.0,2-Back,0,z,Fri Apr 18 2025 11:55:37 GMT-0500 (Central Daylight Time),518827.5,016_y_m_n_a.png,O,m,1248,7,1,2124.6000000089407,516702.89999999106,7126,VNB,B,5
2,prac,2,0.0,2-Back,0,m,Fri Apr 18 2025 11:55:37 GMT-0500 (Central Daylight Time),520828.5,011_m_f_d_a.png,O,z,1127,8,1,1989.2000000029802,518839.299999997,7126,VNB,B,6
3,prac,2,0.0,2-Back,1,m,Fri Apr 18 2025 11:55:37 GMT-0500 (Central Daylight Time),523144.09999999404,005_o_f_d_a.png,O,m,1425,9,1,2306.7000000029802,520837.39999999106,7126,VNB,B,7
4,prac,2,0.0,2-Back,1,m,Fri Apr 18 2025 11:55:37 GMT-0500 (Central Daylight Time),525293.0,007_m_m_h_a.png,O,m,1362,10,1,2141.1000000089407,523151.89999999106,7126,VNB,B,8
4,prac,2,1.0,2-Back,0,z,Fri Apr 18 2025 11:55:37 GMT-0500 (Central Daylight Time),527527.099999994,020_y_f_d_a.png,O,m,1348,11,1,2226.2999999970198,525300.799999997,7126,VNB,B,9
4,prac,2,0.0,2-Back,0,m,Fri Apr 18 2025 11:55:37 GMT-0500 (Central Daylight Time),529575.200000003,004_o_m_n_a.png,O,z,1177,12,1,2039.2000000029802,527536.0,7126,VNB,B,10
0,test,1,0.0,2-Back,,,Fri Apr 18 2025 11:55:37 GMT-0500 (Central Daylight Time),529575.200000003,016_y_m_h_a.png,O,space,5262,1,1,2039.2000000029802,527536.0,7126,VNB,B,0
0,test,1,0.0,2-Back,,,Fri Apr 18 2025 11:55:37 GMT-0500 (Central Daylight Time),529575.200000003,005_o_f_n_a.png,O,space,5262,2,1,2039.2000000029802,527536.0,7126,VNB,B,0
1,test,1,0.0,2-Back,1,z,Fri Apr 18 2025 11:55:37 GMT-0500 (Central Daylight Time),549452.8999999911,004_o_m_h_a.png,O,z,1390,3,1,2407.0,547045.8999999911,7126,VNB,B,1
2,test,1,0.0,2-Back,1,m,Fri Apr 18 2025 11:55:37 GMT-0500 (Central Daylight Time),552367.0,011_m_f_d_a.png,O,m,1895,4,1,2906.5,549460.5,7126,VNB,B,2
3,test,1,1.0,2-Back,1,m,Fri Apr 18 2025 11:55:37 GMT-0500 (Central Daylight Time),554816.3999999911,016_y_m_n_a.png,O,m,1425,5,1,2440.199999988079,552376.200000003,7126,VNB,B,3
3,test,1,0.0,2-Back,0,z,Fri Apr 18 2025 11:55:37 GMT-0500 (Central Daylight Time),557432.099999994,020_y_f_d_a.png,O,m,1583,6,1,2608.5,554823.599999994,7126,VNB,B,4
4,test,1,0.0,2-Back,1,m,Fri Apr 18 2025 11:55:37 GMT-0500 (Central Daylight Time),559815.3999999911,007_m_m_h_a.png,O,m,1350,7,1,2375.0,557440.3999999911,7126,VNB,B,5
5,test,1,1.0,2-Back,1,m,Fri Apr 18 2025 11:55:37 GMT-0500 (Central Daylight Time),561847.299999997,020_y_f_n_a.png,O,m,1009,8,1,2025.2999999970198,559822.0,7126,VNB,B,6
6,test,1,0.0,2-Back,1,z,Fri Apr 18 2025 11:55:37 GMT-0500 (Central Daylight Time),563964.200000003,005_o_f_h_a.png,O,z,1088,9,1,2109.2000000029802,561855.0,7126,VNB,B,7
6,test,1,0.0,2-Back,0,m,Fri Apr 18 2025 11:55:37 GMT-0500 (Central Daylight Time),566364.3999999911,004_o_m_d_a.png,O,z,1373,10,1,2393.7999999970198,563970.599999994,7126,VNB,B,8
7,test,1,1.0,2-Back,1,m,Fri Apr 18 2025 11:55:37 GMT-0500 (Central Daylight Time),569146.700000003,007_m_m_d_a.png,O,m,1750,11,1,2775.9000000059605,566370.799999997,7126,VNB,B,9
8,test,1,0.0,2-Back,1,m,Fri Apr 18 2025 11:55:37 GMT-0500 (Central Daylight Time),571528.0,011_m_f_n_a.png,O,m,1351,12,1,2371.6000000089407,569156.3999999911,7126,VNB,B,10
9,test,1,0.0,2-Back,1,m,Fri Apr 18 2025 11:55:37 GMT-0500 (Central Daylight Time),573478.599999994,020_y_f_h_a.png,O,m,932,13,1,1945.3999999910593,571533.200000003,7126,VNB,B,11
9,test,1,0.0,2-Back,0,z,Fri Apr 18 2025 11:55:37 GMT-0500 (Central Daylight Time),576510.5,007_m_m_n_a.png,O,None,2015,14,1,3022.2000000029802,573488.299999997,7126,VNB,B,12
10,test,1,0.0,2-Back,1,m,Fri Apr 18 2025 11:55:37 GMT-0500 (Central Daylight Time),578742.8999999911,016_y_m_d_a.png,O,m,1203,15,1,2225.8999999910593,576517.0,7126,VNB,B,13
10,test,1,1.0,2-Back,0,m,Fri Apr 18 2025 11:55:37 GMT-0500 (Central Daylight Time),581693.200000003,011_m_f_h_a.png,O,z,1922,16,1,2942.4000000059605,578750.799999997,7126,VNB,B,14
10,test,1,0.0,2-Back,0,z,Fri Apr 18 2025 11:55:37 GMT-0500 (Central Daylight Time),584724.099999994,005_o_f_d_a.png,O,None,2015,17,1,3022.7000000029802,581701.3999999911,7126,VNB,B,15
11,test,1,0.0,2-Back,1,m,Fri Apr 18 2025 11:55:37 GMT-0500 (Central Daylight Time),587223.700000003,004_o_m_n_a.png,O,m,1466,18,1,2493.0,584730.700000003,7126,VNB,B,16
0,test,2,0.0,2-Back,,,Fri Apr 18 2025 11:55:37 GMT-0500 (Central Daylight Time),587223.700000003,007_m_m_h_a.png,O,space,4874,1,1,2493.0,584730.700000003,7126,VNB,B,0
0,test,2,0.0,2-Back,,,Fri Apr 18 2025 11:55:37 GMT-0500 (Central Daylight Time),587223.700000003,020_y_f_n_a.png,O,space,4874,2,1,2493.0,584730.700000003,7126,VNB,B,0
1,test,2,1.0,2-Back,1,z,Fri Apr 18 2025 11:55:37 GMT-0500 (Central Daylight Time),599319.700000003,005_o_f_h_a.png,O,z,935,3,1,1957.1000000089407,597362.599999994,7126,VNB,B,1
2,test,2,0.0,2-Back,1,m,Fri Apr 18 2025 11:55:37 GMT-0500 (Central Daylight Time),601403.3999999911,004_o_m_d_a.png,O,m,1057,4,1,2075.2999999970198,599328.099999994,7126,VNB,B,2
2,test,2,0.0,2-Back,0,m,Fri Apr 18 2025 11:55:37 GMT-0500 (Central Daylight Time),604435.8999999911,011_m_f_d_a.png,O,None,2016,5,1,3025.8999999910593,601410.0,7126,VNB,B,3
2,test,2,0.0,2-Back,0,m,Fri Apr 18 2025 11:55:37 GMT-0500 (Central Daylight Time),607467.599999994,016_y_m_h_a.png,O,None,2014,6,1,3023.2000000029802,604444.3999999911,7126,VNB,B,4
3,test,2,0.0,2-Back,1,m,Fri Apr 18 2025 11:55:37 GMT-0500 (Central Daylight Time),610467.5,005_o_f_n_a.png,O,m,1966,7,1,2991.7999999970198,607475.700000003,7126,VNB,B,5
4,test,2,1.0,2-Back,1,z,Fri Apr 18 2025 11:55:37 GMT-0500 (Central Daylight Time),613099.799999997,004_o_m_h_a.png,O,z,1615,8,1,2624.5,610475.299999997,7126,VNB,B,6
5,test,2,0.0,2-Back,1,m,Fri Apr 18 2025 11:55:37 GMT-0500 (Central Daylight Time),615646.0,020_y_f_d_a.png,O,m,1519,9,1,2539.0,613107.0,7126,VNB,B,7
6,test,2,0.0,2-Back,1,m,Fri Apr 18 2025 11:55:37 GMT-0500 (Central Daylight Time),618530.0,016_y_m_d_a.png,O,m,1859,10,1,2881.7000000029802,615648.299999997,7126,VNB,B,8
7,test,2,0.0,2-Back,1,m,Fri Apr 18 2025 11:55:37 GMT-0500 (Central Daylight Time),620644.8999999911,007_m_m_n_a.png,O,m,1095,11,1,2107.7999999970198,618537.099999994,7126,VNB,B,9
7,test,2,0.0,2-Back,0,m,Fri Apr 18 2025 11:55:37 GMT-0500 (Central Daylight Time),623679.0,011_m_f_h_a.png,O,None,2016,12,1,3029.9000000059605,620649.099999994,7126,VNB,B,10
8,test,2,1.0,2-Back,1,z,Fri Apr 18 2025 11:55:37 GMT-0500 (Central Daylight Time),625845.299999997,004_o_m_n_a.png,O,z,1149,13,1,2159.7000000029802,623685.599999994,7126,VNB,B,11
8,test,2,0.0,2-Back,0,m,Fri Apr 18 2025 11:55:37 GMT-0500 (Central Daylight Time),628876.3999999911,005_o_f_d_a.png,O,None,2014,14,1,3024.0999999940395,625852.299999997,7126,VNB,B,12
9,test,2,0.0,2-Back,1,m,Fri Apr 18 2025 11:55:37 GMT-0500 (Central Daylight Time),631425.799999997,020_y_f_h_a.png,O,m,1523,15,1,2543.4000000059605,628882.3999999911,7126,VNB,B,13
10,test,2,0.0,2-Back,1,z,Fri Apr 18 2025 11:55:37 GMT-0500 (Central Daylight Time),633843.8999999911,007_m_m_d_a.png,O,z,1385,16,1,2413.0,631430.8999999911,7126,VNB,B,14
10,test,2,0.0,2-Back,0,m,Fri Apr 18 2025 11:55:37 GMT-0500 (Central Daylight Time),636876.599999994,016_y_m_n_a.png,O,None,2016,17,1,3025.0999999940395,633851.5,7126,VNB,B,15
10,test,2,1.0,2-Back,0,m,Fri Apr 18 2025 11:55:37 GMT-0500 (Central Daylight Time),639173.799999997,011_m_f_n_a.png,O,z,1270,18,1,2291.5,636882.299999997,7126,VNB,B,16
0,test,3,1.0,2-Back,,,Fri Apr 18 2025 11:55:37 GMT-0500 (Central Daylight Time),639173.799999997,004_o_m_n_a.png,O,space,2355,1,1,2291.5,636882.299999997,7126,VNB,B,0
0,test,3,1.0,2-Back,,,Fri Apr 18 2025 11:55:37 GMT-0500 (Central Daylight Time),639173.799999997,005_o_f_d_a.png,O,space,2355,2,1,2291.5,636882.299999997,7126,VNB,B,0
1,test,3,0.0,2-Back,1,m,Fri Apr 18 2025 11:55:37 GMT-0500 (Central Daylight Time),648637.0,020_y_f_h_a.png,O,m,1019,3,1,2041.4000000059605,646595.599999994,7126,VNB,B,1
2,test,3,0.0,2-Back,1,z,Fri Apr 18 2025 11:55:37 GMT-0500 (Central Daylight Time),651188.200000003,011_m_f_d_a.png,O,z,1533,4,1,2544.300000011921,648643.8999999911,7126,VNB,B,2
2,test,3,1.0,2-Back,0,m,Fri Apr 18 2025 11:55:37 GMT-0500 (Central Daylight Time),654218.099999994,016_y_m_n_a.png,O,None,2013,5,1,3023.3999999910593,651194.700000003,7126,VNB,B,3
3,test,3,0.0,2-Back,1,m,Fri Apr 18 2025 11:55:37 GMT-0500 (Central Daylight Time),656651.8999999911,004_o_m_h_a.png,O,m,1407,6,1,2426.199999988079,654225.700000003,7126,VNB,B,4
3,test,3,0.0,2-Back,0,z,Fri Apr 18 2025 11:55:37 GMT-0500 (Central Daylight Time),659684.299999997,020_y_f_n_a.png,O,None,2015,7,1,3025.2999999970198,656659.0,7126,VNB,B,5
4,test,3,1.0,2-Back,1,m,Fri Apr 18 2025 11:55:37 GMT-0500 (Central Daylight Time),662267.0,007_m_m_d_a.png,O,m,1550,8,1,2575.7000000029802,659691.299999997,7126,VNB,B,6
5,test,3,0.0,2-Back,1,m,Fri Apr 18 2025 11:55:37 GMT-0500 (Central Daylight Time),664517.299999997,016_y_m_d_a.png,O,m,1233,9,1,2241.0999999940395,662276.200000003,7126,VNB,B,7
5,test,3,0.0,2-Back,0,m,Fri Apr 18 2025 11:55:37 GMT-0500 (Central Daylight Time),667548.3999999911,005_o_f_h_a.png,O,None,2015,10,1,3024.5,664523.8999999911,7126,VNB,B,8
6,test,3,1.0,2-Back,1,m,Fri Apr 18 2025 11:55:37 GMT-0500 (Central Daylight Time),670296.700000003,011_m_f_n_a.png,O,m,1715,11,1,2741.7000000029802,667555.0,7126,VNB,B,9
6,test,3,1.0,2-Back,0,z,Fri Apr 18 2025 11:55:37 GMT-0500 (Central Daylight Time),673330.799999997,007_m_m_h_a.png,O,None,2017,12,1,3025.5,670305.299999997,7126,VNB,B,10
7,test,3,0.0,2-Back,1,m,Fri Apr 18 2025 11:55:37 GMT-0500 (Central Daylight Time),675546.799999997,020_y_f_d_a.png,O,m,1199,13,1,2208.2000000029802,673338.599999994,7126,VNB,B,11
7,test,3,0.0,2-Back,0,m,Fri Apr 18 2025 11:55:37 GMT-0500 (Central Daylight Time),677710.8999999911,005_o_f_n_a.png,O,z,1136,14,1,2157.5,675553.3999999911,7126,VNB,B,12
7,test,3,0.0,2-Back,0,z,Fri Apr 18 2025 11:55:37 GMT-0500 (Central Daylight Time),680260.5,004_o_m_d_a.png,O,m,1520,15,1,2541.0,677719.5,7126,VNB,B,13
7,test,3,1.0,2-Back,0,m,Fri Apr 18 2025 11:55:37 GMT-0500 (Central Daylight Time),683278.200000003,011_m_f_h_a.png,O,None,2001,16,1,3009.4000000059605,680268.799999997,7126,VNB,B,14
8,test,3,0.0,2-Back,1,m,Fri Apr 18 2025 11:55:37 GMT-0500 (Central Daylight Time),685292.099999994,007_m_m_n_a.png,O,m,988,17,1,2006.2999999970198,683285.799999997,7126,VNB,B,15
8,test,3,0.0,2-Back,0,z,Fri Apr 18 2025 11:55:37 GMT-0500 (Central Daylight Time),687940.0,016_y_m_h_a.png,O,m,1633,18,1,2641.2000000029802,685298.799999997,7126,VNB,B,16
0,test,4,0.0,2-Back,,,Fri Apr 18 2025 11:55:37 GMT-0500 (Central Daylight Time),687940.0,011_m_f_n_a.png,O,space,4168,1,1,2641.2000000029802,685298.799999997,7126,VNB,B,0
0,test,4,0.0,2-Back,,,Fri Apr 18 2025 11:55:37 GMT-0500 (Central Daylight Time),687940.0,004_o_m_n_a.png,O,space,4168,2,1,2641.2000000029802,685298.799999997,7126,VNB,B,0
1,test,4,1.0,2-Back,1,m,Fri Apr 18 2025 11:55:37 GMT-0500 (Central Daylight Time),699371.0,016_y_m_h_a.png,O,m,1006,3,1,2023.9000000059605,697347.099999994,7126,VNB,B,1
2,test,4,1.0,2-Back,1,m,Fri Apr 18 2025 11:55:37 GMT-0500 (Central Daylight Time),701988.599999994,005_o_f_d_a.png,O,m,1600,4,1,2607.7999999970198,699380.799999997,7126,VNB,B,2
2,test,4,0.0,2-Back,0,z,Fri Apr 18 2025 11:55:37 GMT-0500 (Central Daylight Time),704436.5,004_o_m_h_a.png,O,m,1423,5,1,2437.5,701999.0,7126,VNB,B,3
2,test,4,0.0,2-Back,0,m,Fri Apr 18 2025 11:55:37 GMT-0500 (Central Daylight Time),707285.599999994,007_m_m_n_a.png,O,z,1819,6,1,2840.7999999970198,704444.799999997,7126,VNB,B,4
3,test,4,0.0,2-Back,1,m,Fri Apr 18 2025 11:55:37 GMT-0500 (Central Daylight Time),709601.3999999911,011_m_f_d_a.png,O,m,1293,7,1,2308.0999999940395,707293.299999997,7126,VNB,B,5
4,test,4,0.0,2-Back,1,z,Fri Apr 18 2025 11:55:37 GMT-0500 (Central Daylight Time),712035.599999994,020_y_f_n_a.png,O,z,1409,8,1,2429.2999999970198,709606.299999997,7126,VNB,B,6
5,test,4,1.0,2-Back,1,m,Fri Apr 18 2025 11:55:37 GMT-0500 (Central Daylight Time),714798.5,005_o_f_h_a.png,O,m,1744,9,1,2759.9000000059605,712038.599999994,7126,VNB,B,7
6,test,4,0.0,2-Back,1,m,Fri Apr 18 2025 11:55:37 GMT-0500 (Central Daylight Time),717315.799999997,007_m_m_h_a.png,O,m,1490,10,1,2510.5,714805.299999997,7126,VNB,B,8
6,test,4,0.0,2-Back,0,m,Fri Apr 18 2025 11:55:37 GMT-0500 (Central Daylight Time),719748.799999997,020_y_f_d_a.png,O,z,1415,11,1,2426.0,717322.799999997,7126,VNB,B,9
7,test,4,0.0,2-Back,1,m,Fri Apr 18 2025 11:55:37 GMT-0500 (Central Daylight Time),722047.200000003,016_y_m_n_a.png,O,m,1267,12,1,2291.6000000089407,719755.599999994,7126,VNB,B,10
7,test,4,0.0,2-Back,0,z,Fri Apr 18 2025 11:55:37 GMT-0500 (Central Daylight Time),725062.8999999911,004_o_m_d_a.png,O,m,1995,13,1,3009.2999999970198,722053.599999994,7126,VNB,B,11
7,test,4,1.0,2-Back,0,m,Fri Apr 18 2025 11:55:37 GMT-0500 (Central Daylight Time),727545.099999994,011_m_f_h_a.png,O,z,1458,14,1,2474.8999999910593,725070.200000003,7126,VNB,B,12
7,test,4,1.0,2-Back,0,m,Fri Apr 18 2025 11:55:37 GMT-0500 (Central Daylight Time),730011.599999994,020_y_f_h_a.png,O,z,1441,15,1,2458.0,727553.599999994,7126,VNB,B,13
8,test,4,0.0,2-Back,1,m,Fri Apr 18 2025 11:55:37 GMT-0500 (Central Daylight Time),732794.299999997,005_o_f_n_a.png,O,m,1749,16,1,2774.9000000059605,730019.3999999911,7126,VNB,B,14
9,test,4,0.0,2-Back,1,m,Fri Apr 18 2025 11:55:37 GMT-0500 (Central Daylight Time),735677.599999994,016_y_m_d_a.png,O,m,1864,17,1,2875.7000000029802,732801.8999999911,7126,VNB,B,15
9,test,4,1.0,2-Back,0,m,Fri Apr 18 2025 11:55:37 GMT-0500 (Central Daylight Time),737942.5,007_m_m_d_a.png,O,z,1235,18,1,2257.2000000029802,735685.299999997,7126,VNB,B,16
0,test,5,1.0,2-Back,,,Fri Apr 18 2025 11:55:37 GMT-0500 (Central Daylight Time),737942.5,020_y_f_d_a.png,O,space,6108,1,1,2257.2000000029802,735685.299999997,7126,VNB,B,0
0,test,5,1.0,2-Back,,,Fri Apr 18 2025 11:55:37 GMT-0500 (Central Daylight Time),737942.5,005_o_f_h_a.png,O,space,6108,2,1,2257.2000000029802,735685.299999997,7126,VNB,B,0
1,test,5,1.0,2-Back,1,z,Fri Apr 18 2025 11:55:37 GMT-0500 (Central Daylight Time),751421.799999997,004_o_m_d_a.png,O,z,1104,3,1,2125.7999999970198,749296.0,7126,VNB,B,1
2,test,5,1.0,2-Back,1,m,Fri Apr 18 2025 11:55:37 GMT-0500 (Central Daylight Time),753453.799999997,011_m_f_n_a.png,O,m,1006,4,1,2024.0999999940395,751429.700000003,7126,VNB,B,2
2,test,5,0.0,2-Back,0,m,Fri Apr 18 2025 11:55:37 GMT-0500 (Central Daylight Time),755603.8999999911,007_m_m_h_a.png,O,z,1116,5,1,2142.5999999940395,753461.299999997,7126,VNB,B,3
2,test,5,0.0,2-Back,0,z,Fri Apr 18 2025 11:55:37 GMT-0500 (Central Daylight Time),757668.8999999911,020_y_f_n_a.png,O,m,1038,6,1,2056.2999999970198,755612.599999994,7126,VNB,B,4
3,test,5,0.0,2-Back,1,m,Fri Apr 18 2025 11:55:37 GMT-0500 (Central Daylight Time),760653.5,005_o_f_d_a.png,O,m,1967,7,1,2975.7999999970198,757677.700000003,7126,VNB,B,5
3,test,5,0.0,2-Back,0,m,Fri Apr 18 2025 11:55:37 GMT-0500 (Central Daylight Time),763233.099999994,004_o_m_h_a.png,O,z,1548,8,1,2574.2999999970198,760658.799999997,7126,VNB,B,6
3,test,5,1.0,2-Back,0,z,Fri Apr 18 2025 11:55:37 GMT-0500 (Central Daylight Time),765966.8999999911,011_m_f_d_a.png,O,m,1699,9,1,2725.2999999970198,763241.599999994,7126,VNB,B,7
4,test,5,0.0,2-Back,1,m,Fri Apr 18 2025 11:55:37 GMT-0500 (Central Daylight Time),767965.799999997,016_y_m_n_a.png,O,m,966,10,1,1991.0,765974.799999997,7126,VNB,B,8
5,test,5,0.0,2-Back,1,m,Fri Apr 18 2025 11:55:37 GMT-0500 (Central Daylight Time),770015.799999997,007_m_m_n_a.png,O,m,1020,11,1,2042.2999999970198,767973.5,7126,VNB,B,9
6,test,5,0.0,2-Back,1,m,Fri Apr 18 2025 11:55:37 GMT-0500 (Central Daylight Time),772533.700000003,020_y_f_h_a.png,O,m,1499,12,1,2511.6000000089407,770022.099999994,7126,VNB,B,10
6,test,5,0.0,2-Back,0,m,Fri Apr 18 2025 11:55:37 GMT-0500 (Central Daylight Time),775013.8999999911,016_y_m_d_a.png,O,z,1453,13,1,2472.699999988079,772541.200000003,7126,VNB,B,11
6,test,5,1.0,2-Back,0,z,Fri Apr 18 2025 11:55:37 GMT-0500 (Central Daylight Time),778046.099999994,011_m_f_h_a.png,O,None,2015,14,1,3025.0,775021.099999994,7126,VNB,B,12
7,test,5,0.0,2-Back,1,m,Fri Apr 18 2025 11:55:37 GMT-0500 (Central Daylight Time),779162.299999997,004_o_m_n_a.png,O,m,90,15,1,1110.5,778051.799999997,7126,VNB,B,13
8,test,5,0.0,2-Back,1,m,Fri Apr 18 2025 11:55:37 GMT-0500 (Central Daylight Time),780996.3999999911,007_m_m_d_a.png,O,m,815,16,1,1826.7999999970198,779169.599999994,7126,VNB,B,14
9,test,5,0.0,2-Back,1,z,Fri Apr 18 2025 11:55:37 GMT-0500 (Central Daylight Time),782894.0,005_o_f_n_a.png,O,z,871,17,1,1889.9000000059605,781004.099999994,7126,VNB,B,15
9,test,5,1.0,2-Back,0,m,Fri Apr 18 2025 11:55:37 GMT-0500 (Central Daylight Time),785927.700000003,016_y_m_h_a.png,O,None,2016,18,1,3025.800000011921,782901.8999999911,7126,VNB,B,16
