block_c,block_dur,condition,countdown,datetime,endtime,list,multichar_response,project,response,response_time,session_number,start_end,starttime,subject_id,task,task_vers,trial
,,,,Thu Mar 27 2025 11:13:21 GMT-0500 (Central Daylight Time),,,,O,space,932,1,,,7106,WL,A,
prac,,0,,Thu Mar 27 2025 11:13:21 GMT-0500 (Central Daylight Time),,NA,b,O,b,3566,1,,,7106,WL,A,1.0
prac,,0,,Thu Mar 27 2025 11:13:21 GMT-0500 (Central Daylight Time),,NA,bo,O,o,554,1,,,7106,WL,A,1.0
prac,,0,,Thu Mar 27 2025 11:13:21 GMT-0500 (Central Daylight Time),,NA,boo,O,o,128,1,,,7106,WL,A,1.0
prac,,0,,Thu Mar 27 2025 11:13:21 GMT-0500 (Central Daylight Time),,NA,boos,O,s,92,1,,,7106,WL,A,1.0
prac,,0,,Thu Mar 27 2025 11:13:21 GMT-0500 (Central Daylight Time),,NA,boost,O,t,111,1,,,7106,WL,A,1.0
prac,,0,,Thu Mar 27 2025 11:13:21 GMT-0500 (Central Daylight Time),,NA,boostenter,O,enter,479,1,,,7106,WL,A,1.0
1,0.75,learn,59250.0,Thu Mar 27 2025 11:13:21 GMT-0500 (Central Daylight Time),134438.09999996424,A,b,O,b,716,1,749.0,133689.09999996424,7106,WL,A,1.0
1,0.8989999294281006,learn,59101.0000705719,Thu Mar 27 2025 11:13:21 GMT-0500 (Central Daylight Time),134587.5,A,bo,O,o,100,1,898.4000000357628,133689.09999996424,7106,WL,A,1.0
1,1.065999984741211,learn,58934.00001525879,Thu Mar 27 2025 11:13:21 GMT-0500 (Central Daylight Time),134754.39999997616,A,boo,O,o,139,1,1065.300000011921,133689.09999996424,7106,WL,A,1.0
1,1.2659997940063477,learn,58734.00020599365,Thu Mar 27 2025 11:13:21 GMT-0500 (Central Daylight Time),134953.69999998808,A,book,O,k,162,1,1264.6000000238419,133689.09999996424,7106,WL,A,1.0
1,1.5319998264312744,learn,58468.000173568726,Thu Mar 27 2025 11:13:21 GMT-0500 (Central Daylight Time),135219.89999997616,A,bookenter,O,enter,236,1,1530.800000011921,133689.09999996424,7106,WL,A,1.0
1,1.930999994277954,learn,58069.000005722046,Thu Mar 27 2025 11:13:21 GMT-0500 (Central Daylight Time),135619.69999998808,A,m,O,m,383,1,399.39999997615814,135220.30000001192,7106,WL,A,2.0
1,2.047999858856201,learn,57952.0001411438,Thu Mar 27 2025 11:13:21 GMT-0500 (Central Daylight Time),135736.30000001192,A,me,O,e,94,1,516.0,135220.30000001192,7106,WL,A,2.0
1,2.115000009536743,learn,57884.99999046326,Thu Mar 27 2025 11:13:21 GMT-0500 (Central Daylight Time),135802.89999997616,A,mea,O,a,43,1,582.5999999642372,135220.30000001192,7106,WL,A,2.0
1,2.31499981880188,learn,57685.00018119812,Thu Mar 27 2025 11:13:21 GMT-0500 (Central Daylight Time),136003.0,A,mead,O,d,175,1,782.6999999880791,135220.30000001192,7106,WL,A,2.0
1,2.447999954223633,learn,57552.00004577637,Thu Mar 27 2025 11:13:21 GMT-0500 (Central Daylight Time),136136.19999998808,A,meado,O,o,120,1,915.8999999761581,135220.30000001192,7106,WL,A,2.0
1,2.5979998111724854,learn,57402.000188827515,Thu Mar 27 2025 11:13:21 GMT-0500 (Central Daylight Time),136286.09999996424,A,meadow,O,w,136,1,1065.7999999523163,135220.30000001192,7106,WL,A,2.0
1,3.0139999389648438,learn,56986.000061035156,Thu Mar 27 2025 11:13:21 GMT-0500 (Central Daylight Time),136702.59999996424,A,meadowenter,O,enter,403,1,1482.2999999523163,135220.30000001192,7106,WL,A,2.0
1,3.2639999389648438,learn,56736.000061035156,Thu Mar 27 2025 11:13:21 GMT-0500 (Central Daylight Time),136952.59999996424,A,f,O,f,236,1,249.5999999642372,136703.0,7106,WL,A,3.0
1,3.380999803543091,learn,56619.00019645691,Thu Mar 27 2025 11:13:21 GMT-0500 (Central Daylight Time),137069.0,A,fi,O,i,106,1,366.0,136703.0,7106,WL,A,3.0
1,3.4639999866485596,learn,56536.00001335144,Thu Mar 27 2025 11:13:21 GMT-0500 (Central Daylight Time),137152.39999997616,A,fin,O,n,69,1,449.39999997615814,136703.0,7106,WL,A,3.0
1,3.547999858856201,learn,56452.0001411438,Thu Mar 27 2025 11:13:21 GMT-0500 (Central Daylight Time),137235.69999998808,A,fing,O,g,74,1,532.6999999880791,136703.0,7106,WL,A,3.0
1,3.681999921798706,learn,56318.000078201294,Thu Mar 27 2025 11:13:21 GMT-0500 (Central Daylight Time),137369.80000001192,A,finge,O,e,120,1,666.8000000119209,136703.0,7106,WL,A,3.0
1,3.7639999389648438,learn,56236.000061035156,Thu Mar 27 2025 11:13:21 GMT-0500 (Central Daylight Time),137452.5,A,finger,O,r,54,1,749.5,136703.0,7106,WL,A,3.0
1,4.013999938964844,learn,55986.000061035156,Thu Mar 27 2025 11:13:21 GMT-0500 (Central Daylight Time),137702.39999997616,A,fingerenter,O,enter,225,1,999.3999999761581,136703.0,7106,WL,A,3.0
1,5.06499981880188,learn,54935.00018119812,Thu Mar 27 2025 11:13:21 GMT-0500 (Central Daylight Time),138753.09999996424,A,r,O,r,1039,1,1050.2999999523163,137702.80000001192,7106,WL,A,4.0
1,5.163999795913696,learn,54836.000204086304,Thu Mar 27 2025 11:13:21 GMT-0500 (Central Daylight Time),138852.69999998808,A,ru,O,u,62,1,1149.8999999761581,137702.80000001192,7106,WL,A,4.0
1,5.330999851226807,learn,54669.00014877319,Thu Mar 27 2025 11:13:21 GMT-0500 (Central Daylight Time),139019.30000001192,A,rug,O,g,131,1,1316.5,137702.80000001192,7106,WL,A,4.0
1,5.613999843597412,learn,54386.00015640259,Thu Mar 27 2025 11:13:21 GMT-0500 (Central Daylight Time),139301.89999997616,A,rugenter,O,enter,243,1,1599.0999999642372,137702.80000001192,7106,WL,A,4.0
1,14.01199984550476,learn,45988.00015449524,Thu Mar 27 2025 11:13:21 GMT-0500 (Central Daylight Time),147699.89999997616,A,c,O,c,8375,1,8397.599999964237,139302.30000001192,7106,WL,A,5.0
1,14.09499979019165,learn,45905.00020980835,Thu Mar 27 2025 11:13:21 GMT-0500 (Central Daylight Time),147783.0,A,ch,O,h,41,1,8480.699999988079,139302.30000001192,7106,WL,A,5.0
1,14.178999900817871,learn,45821.00009918213,Thu Mar 27 2025 11:13:21 GMT-0500 (Central Daylight Time),147867.0,A,chi,O,i,65,1,8564.699999988079,139302.30000001192,7106,WL,A,5.0
1,14.42799997329712,learn,45572.00002670288,Thu Mar 27 2025 11:13:21 GMT-0500 (Central Daylight Time),148116.5,A,chim,O,m,213,1,8814.199999988079,139302.30000001192,7106,WL,A,5.0
1,14.777999877929688,learn,45222.00012207031,Thu Mar 27 2025 11:13:21 GMT-0500 (Central Daylight Time),148466.59999996424,A,chimn,O,n,317,1,9164.299999952316,139302.30000001192,7106,WL,A,5.0
1,14.911999940872192,learn,45088.00005912781,Thu Mar 27 2025 11:13:21 GMT-0500 (Central Daylight Time),148599.80000001192,A,chimne,O,e,102,1,9297.5,139302.30000001192,7106,WL,A,5.0
1,15.043999910354614,learn,44956.000089645386,Thu Mar 27 2025 11:13:21 GMT-0500 (Central Daylight Time),148732.59999996424,A,chimney,O,y,95,1,9430.299999952316,139302.30000001192,7106,WL,A,5.0
1,15.793999910354614,learn,44206.000089645386,Thu Mar 27 2025 11:13:21 GMT-0500 (Central Daylight Time),149481.89999997616,A,chimneyenter,O,enter,719,1,10179.599999964237,139302.30000001192,7106,WL,A,5.0
1,18.109999895095825,learn,41890.000104904175,Thu Mar 27 2025 11:13:21 GMT-0500 (Central Daylight Time),151798.5,A,f,O,f,2307,1,2316.300000011921,149482.19999998808,7106,WL,A,6.0
1,18.22699999809265,learn,41773.00000190735,Thu Mar 27 2025 11:13:21 GMT-0500 (Central Daylight Time),151914.89999997616,A,fl,O,l,81,1,2432.699999988079,149482.19999998808,7106,WL,A,6.0
1,18.426999807357788,learn,41573.00019264221,Thu Mar 27 2025 11:13:21 GMT-0500 (Central Daylight Time),152115.19999998808,A,flo,O,o,170,1,2633.0,149482.19999998808,7106,WL,A,6.0
1,18.457000017166138,learn,41542.99998283386,Thu Mar 27 2025 11:13:21 GMT-0500 (Central Daylight Time),152145.19999998808,A,flow,O,w,1,1,2663.0,149482.19999998808,7106,WL,A,6.0
1,18.47699999809265,learn,41523.00000190735,Thu Mar 27 2025 11:13:21 GMT-0500 (Central Daylight Time),152165.39999997616,A,flowe,O,e,4,1,2683.199999988079,149482.19999998808,7106,WL,A,6.0
1,18.592999935150146,learn,41407.00006484985,Thu Mar 27 2025 11:13:21 GMT-0500 (Central Daylight Time),152280.80000001192,A,flower,O,r,98,1,2798.600000023842,149482.19999998808,7106,WL,A,6.0
1,19.143999814987183,learn,40856.00018501282,Thu Mar 27 2025 11:13:21 GMT-0500 (Central Daylight Time),152831.69999998808,A,flowerenter,O,enter,531,1,3349.5,149482.19999998808,7106,WL,A,6.0
1,30.756999969482422,learn,29243.000030517578,Thu Mar 27 2025 11:13:21 GMT-0500 (Central Daylight Time),164445.09999996424,A,m,O,m,11606,1,11613.099999964237,152832.0,7106,WL,A,7.0
1,30.85599994659424,learn,29144.00005340576,Thu Mar 27 2025 11:13:21 GMT-0500 (Central Daylight Time),164543.69999998808,A,me,O,e,60,1,11711.699999988079,152832.0,7106,WL,A,7.0
1,30.938999891281128,learn,29061.000108718872,Thu Mar 27 2025 11:13:21 GMT-0500 (Central Daylight Time),164627.09999996424,A,mea,O,a,51,1,11795.099999964237,152832.0,7106,WL,A,7.0
1,31.10599994659424,learn,28894.00005340576,Thu Mar 27 2025 11:13:21 GMT-0500 (Central Daylight Time),164794.19999998808,A,mead,O,d,130,1,11962.199999988079,152832.0,7106,WL,A,7.0
1,31.238999843597412,learn,28761.000156402588,Thu Mar 27 2025 11:13:21 GMT-0500 (Central Daylight Time),164927.19999998808,A,meado,O,o,104,1,12095.199999988079,152832.0,7106,WL,A,7.0
1,31.33899998664856,learn,28661.00001335144,Thu Mar 27 2025 11:13:21 GMT-0500 (Central Daylight Time),165027.30000001192,A,meadow,O,w,67,1,12195.300000011921,152832.0,7106,WL,A,7.0
1,31.83899998664856,learn,28161.00001335144,Thu Mar 27 2025 11:13:21 GMT-0500 (Central Daylight Time),165527.59999996424,A,meadowenter,O,enter,470,1,12695.599999964237,152832.0,7106,WL,A,7.0
1,40.6029999256134,learn,19397.000074386597,Thu Mar 27 2025 11:13:21 GMT-0500 (Central Daylight Time),174291.39999997616,A,b,O,b,8750,1,8763.5,165527.89999997616,7106,WL,A,8.0
1,40.819000005722046,learn,19180.999994277954,Thu Mar 27 2025 11:13:21 GMT-0500 (Central Daylight Time),174507.69999998808,A,ba,O,a,185,1,8979.800000011921,165527.89999997616,7106,WL,A,8.0
1,41.03600001335144,learn,18963.99998664856,Thu Mar 27 2025 11:13:21 GMT-0500 (Central Daylight Time),174724.30000001192,A,bal,O,l,179,1,9196.400000035763,165527.89999997616,7106,WL,A,8.0
1,41.21999979019165,learn,18780.00020980835,Thu Mar 27 2025 11:13:21 GMT-0500 (Central Daylight Time),174908.0,A,ball,O,l,139,1,9380.100000023842,165527.89999997616,7106,WL,A,8.0
1,41.55199980735779,learn,18448.000192642212,Thu Mar 27 2025 11:13:21 GMT-0500 (Central Daylight Time),175240.0,A,ballenter,O,enter,300,1,9712.100000023842,165527.89999997616,7106,WL,A,8.0
1,51.41699981689453,learn,8583.000183105469,Thu Mar 27 2025 11:13:21 GMT-0500 (Central Daylight Time),185104.30000001192,A,r,O,r,9853,1,9864.0,175240.30000001192,7106,WL,A,9.0
1,51.85099983215332,learn,8149.00016784668,Thu Mar 27 2025 11:13:21 GMT-0500 (Central Daylight Time),185537.89999997616,A,ri,O,i,398,1,10297.599999964237,175240.30000001192,7106,WL,A,9.0
1,51.876999855041504,learn,8123.000144958496,Thu Mar 27 2025 11:13:21 GMT-0500 (Central Daylight Time),185563.89999997616,A,rin,O,n,1,1,10323.599999964237,175240.30000001192,7106,WL,A,9.0
1,52.03399991989136,learn,7966.000080108643,Thu Mar 27 2025 11:13:21 GMT-0500 (Central Daylight Time),185720.5,A,ring,O,g,138,1,10480.199999988079,175240.30000001192,7106,WL,A,9.0
1,52.34999990463257,learn,7650.000095367432,Thu Mar 27 2025 11:13:21 GMT-0500 (Central Daylight Time),186036.5,A,ringenter,O,enter,289,1,10796.199999988079,175240.30000001192,7106,WL,A,9.0
1,60.014999866485596,learn,-14.999866485595703,Thu Mar 27 2025 11:13:21 GMT-0500 (Central Daylight Time),193701.59999996424,A,None,O,None,7658,1,7664.899999976158,186036.69999998808,7106,WL,A,10.0
2,0.8169999122619629,learn,59183.00008773804,Thu Mar 27 2025 11:13:21 GMT-0500 (Central Daylight Time),265911.1999999881,A,k,O,k,789,1,816.0,265095.1999999881,7106,WL,A,1.0
2,0.9830000400543213,learn,59016.99995994568,Thu Mar 27 2025 11:13:21 GMT-0500 (Central Daylight Time),266077.39999997616,A,ke,O,e,141,1,982.1999999880791,265095.1999999881,7106,WL,A,1.0
2,1.1159999370574951,learn,58884.000062942505,Thu Mar 27 2025 11:13:21 GMT-0500 (Central Daylight Time),266210.89999997616,A,key,O,y,108,1,1115.699999988079,265095.1999999881,7106,WL,A,1.0
2,1.431999921798706,learn,58568.000078201294,Thu Mar 27 2025 11:13:21 GMT-0500 (Central Daylight Time),266526.6999999881,A,keyenter,O,enter,283,1,1431.5,265095.1999999881,7106,WL,A,1.0
2,1.815999984741211,learn,58184.00001525879,Thu Mar 27 2025 11:13:21 GMT-0500 (Central Daylight Time),266910.89999997616,A,r,O,r,374,1,383.89999997615814,266527.0,7106,WL,A,2.0
2,2.0,learn,58000.0,Thu Mar 27 2025 11:13:21 GMT-0500 (Central Daylight Time),267094.1999999881,A,ra,O,a,145,1,567.1999999880791,266527.0,7106,WL,A,2.0
2,2.183000087738037,learn,57816.99991226196,Thu Mar 27 2025 11:13:21 GMT-0500 (Central Daylight Time),267277.5,A,rat,O,t,148,1,750.5,266527.0,7106,WL,A,2.0
2,2.3489999771118164,learn,57651.00002288818,Thu Mar 27 2025 11:13:21 GMT-0500 (Central Daylight Time),267443.89999997616,A,ratt,O,t,132,1,916.8999999761581,266527.0,7106,WL,A,2.0
2,2.5160000324249268,learn,57483.99996757507,Thu Mar 27 2025 11:13:21 GMT-0500 (Central Daylight Time),267610.6999999881,A,rattl,O,l,138,1,1083.699999988079,266527.0,7106,WL,A,2.0
2,2.5989999771118164,learn,57401.00002288818,Thu Mar 27 2025 11:13:21 GMT-0500 (Central Daylight Time),267693.0,A,rattle,O,e,54,1,1166.0,266527.0,7106,WL,A,2.0
2,2.75,learn,57250.0,Thu Mar 27 2025 11:13:21 GMT-0500 (Central Daylight Time),267844.09999996424,A,rattleenter,O,enter,129,1,1317.0999999642372,266527.0,7106,WL,A,2.0
2,2.9830000400543213,learn,57016.99995994568,Thu Mar 27 2025 11:13:21 GMT-0500 (Central Daylight Time),268077.09999996424,A,g,O,g,218,1,232.69999998807907,267844.39999997616,7106,WL,A,3.0
2,3.065999984741211,learn,56934.00001525879,Thu Mar 27 2025 11:13:21 GMT-0500 (Central Daylight Time),268160.5,A,go,O,o,58,1,316.10000002384186,267844.39999997616,7106,WL,A,3.0
2,3.2660000324249268,learn,56733.99996757507,Thu Mar 27 2025 11:13:21 GMT-0500 (Central Daylight Time),268360.59999996424,A,gol,O,l,172,1,516.1999999880791,267844.39999997616,7106,WL,A,3.0
2,3.3489999771118164,learn,56651.00002288818,Thu Mar 27 2025 11:13:21 GMT-0500 (Central Daylight Time),268443.09999996424,A,gold,O,d,56,1,598.6999999880791,267844.39999997616,7106,WL,A,3.0
2,3.565000057220459,learn,56434.99994277954,Thu Mar 27 2025 11:13:21 GMT-0500 (Central Daylight Time),268659.5,A,goldenter,O,enter,199,1,815.1000000238419,267844.39999997616,7106,WL,A,3.0
2,3.9159998893737793,learn,56084.00011062622,Thu Mar 27 2025 11:13:21 GMT-0500 (Central Daylight Time),269010.3000000119,A,f,O,f,330,1,350.5,268659.8000000119,7106,WL,A,4.0
2,4.014999866485596,learn,55985.000133514404,Thu Mar 27 2025 11:13:21 GMT-0500 (Central Daylight Time),269109.1999999881,A,fi,O,i,70,1,449.39999997615814,268659.8000000119,7106,WL,A,4.0
2,4.081000089645386,learn,55918.999910354614,Thu Mar 27 2025 11:13:21 GMT-0500 (Central Daylight Time),269175.89999997616,A,fin,O,n,50,1,516.0999999642372,268659.8000000119,7106,WL,A,4.0
2,4.181999921798706,learn,55818.000078201294,Thu Mar 27 2025 11:13:21 GMT-0500 (Central Daylight Time),269276.3000000119,A,fing,O,g,83,1,616.5,268659.8000000119,7106,WL,A,4.0
2,4.299000024795532,learn,55700.99997520447,Thu Mar 27 2025 11:13:21 GMT-0500 (Central Daylight Time),269393.09999996424,A,finge,O,e,93,1,733.2999999523163,268659.8000000119,7106,WL,A,4.0
2,4.414999961853027,learn,55585.00003814697,Thu Mar 27 2025 11:13:21 GMT-0500 (Central Daylight Time),269509.1999999881,A,finger,O,r,85,1,849.3999999761581,268659.8000000119,7106,WL,A,4.0
2,4.63100004196167,learn,55368.99995803833,Thu Mar 27 2025 11:13:21 GMT-0500 (Central Daylight Time),269725.5,A,fingerenter,O,enter,191,1,1065.699999988079,268659.8000000119,7106,WL,A,4.0
2,4.915999889373779,learn,55084.00011062622,Thu Mar 27 2025 11:13:21 GMT-0500 (Central Daylight Time),270010.0,A,s,O,s,264,1,284.30000001192093,269725.6999999881,7106,WL,A,5.0
2,5.065000057220459,learn,54934.99994277954,Thu Mar 27 2025 11:13:21 GMT-0500 (Central Daylight Time),270159.6999999881,A,sa,O,a,119,1,434.0,269725.6999999881,7106,WL,A,5.0
2,5.198999881744385,learn,54801.000118255615,Thu Mar 27 2025 11:13:21 GMT-0500 (Central Daylight Time),270293.09999996424,A,sal,O,l,106,1,567.3999999761581,269725.6999999881,7106,WL,A,5.0
2,5.381999969482422,learn,54618.00003051758,Thu Mar 27 2025 11:13:21 GMT-0500 (Central Daylight Time),270476.0,A,salt,O,t,162,1,750.3000000119209,269725.6999999881,7106,WL,A,5.0
2,5.5980000495910645,learn,54401.999950408936,Thu Mar 27 2025 11:13:21 GMT-0500 (Central Daylight Time),270692.0,A,saltenter,O,enter,189,1,966.3000000119209,269725.6999999881,7106,WL,A,5.0
2,5.815000057220459,learn,54184.99994277954,Thu Mar 27 2025 11:13:21 GMT-0500 (Central Daylight Time),270909.39999997616,A,a,O,a,209,1,217.0999999642372,270692.3000000119,7106,WL,A,6.0
2,5.980999946594238,learn,54019.00005340576,Thu Mar 27 2025 11:13:21 GMT-0500 (Central Daylight Time),271075.5,A,ap,O,p,131,1,383.19999998807907,270692.3000000119,7106,WL,A,6.0
2,6.148000001907349,learn,53851.99999809265,Thu Mar 27 2025 11:13:21 GMT-0500 (Central Daylight Time),271242.09999996424,A,app,O,p,143,1,549.7999999523163,270692.3000000119,7106,WL,A,6.0
2,6.3480000495910645,learn,53651.999950408936,Thu Mar 27 2025 11:13:21 GMT-0500 (Central Daylight Time),271442.8000000119,A,appl,O,l,182,1,750.5,270692.3000000119,7106,WL,A,6.0
2,6.497999906539917,learn,53502.00009346008,Thu Mar 27 2025 11:13:21 GMT-0500 (Central Daylight Time),271592.6999999881,A,apple,O,e,111,1,900.3999999761581,270692.3000000119,7106,WL,A,6.0
2,6.63100004196167,learn,53368.99995803833,Thu Mar 27 2025 11:13:21 GMT-0500 (Central Daylight Time),271725.0,A,appleenter,O,enter,103,1,1032.699999988079,270692.3000000119,7106,WL,A,6.0
2,6.88100004196167,learn,53118.99995803833,Thu Mar 27 2025 11:13:21 GMT-0500 (Central Daylight Time),271975.89999997616,A,b,O,b,233,1,250.5999999642372,271725.3000000119,7106,WL,A,7.0
2,6.999000072479248,learn,53000.99992752075,Thu Mar 27 2025 11:13:21 GMT-0500 (Central Daylight Time),272093.09999996424,A,bo,O,o,89,1,367.7999999523163,271725.3000000119,7106,WL,A,7.0
2,7.198999881744385,learn,52801.000118255615,Thu Mar 27 2025 11:13:21 GMT-0500 (Central Daylight Time),272293.3000000119,A,boo,O,o,178,1,568.0,271725.3000000119,7106,WL,A,7.0
2,7.365000009536743,learn,52634.99999046326,Thu Mar 27 2025 11:13:21 GMT-0500 (Central Daylight Time),272459.3000000119,A,book,O,k,125,1,734.0,271725.3000000119,7106,WL,A,7.0
2,7.46399998664856,learn,52536.00001335144,Thu Mar 27 2025 11:13:21 GMT-0500 (Central Daylight Time),272558.09999996424,A,booke,O,e,69,1,832.7999999523163,271725.3000000119,7106,WL,A,7.0
2,7.614000082015991,learn,52385.99991798401,Thu Mar 27 2025 11:13:21 GMT-0500 (Central Daylight Time),272708.0,A,bookeenter,O,enter,129,1,982.6999999880791,271725.3000000119,7106,WL,A,7.0
2,8.496999979019165,learn,51503.000020980835,Thu Mar 27 2025 11:13:21 GMT-0500 (Central Daylight Time),273591.09999996424,A,m,O,m,873,1,882.7999999523163,272708.3000000119,7106,WL,A,8.0
2,8.595999956130981,learn,51404.00004386902,Thu Mar 27 2025 11:13:21 GMT-0500 (Central Daylight Time),273690.8000000119,A,me,O,e,83,1,982.5,272708.3000000119,7106,WL,A,8.0
2,8.662999868392944,learn,51337.000131607056,Thu Mar 27 2025 11:13:21 GMT-0500 (Central Daylight Time),273757.59999996424,A,mea,O,a,49,1,1049.2999999523163,272708.3000000119,7106,WL,A,8.0
2,8.930999994277954,learn,51069.000005722046,Thu Mar 27 2025 11:13:21 GMT-0500 (Central Daylight Time),274025.1999999881,A,mead,O,d,255,1,1316.8999999761581,272708.3000000119,7106,WL,A,8.0
2,9.079999923706055,learn,50920.000076293945,Thu Mar 27 2025 11:13:21 GMT-0500 (Central Daylight Time),274174.89999997616,A,meado,O,o,111,1,1466.5999999642372,272708.3000000119,7106,WL,A,8.0
2,9.230999946594238,learn,50769.00005340576,Thu Mar 27 2025 11:13:21 GMT-0500 (Central Daylight Time),274325.0,A,meadow,O,w,124,1,1616.699999988079,272708.3000000119,7106,WL,A,8.0
2,9.946000099182129,learn,50053.99990081787,Thu Mar 27 2025 11:13:21 GMT-0500 (Central Daylight Time),275040.59999996424,A,meadowenter,O,enter,676,1,2332.2999999523163,272708.3000000119,7106,WL,A,8.0
2,10.346999883651733,learn,49653.00011634827,Thu Mar 27 2025 11:13:21 GMT-0500 (Central Daylight Time),275441.39999997616,A,r,O,r,381,1,400.5,275040.89999997616,7106,WL,A,9.0
2,10.428999900817871,learn,49571.00009918213,Thu Mar 27 2025 11:13:21 GMT-0500 (Central Daylight Time),275523.6999999881,A,ru,O,u,56,1,482.80000001192093,275040.89999997616,7106,WL,A,9.0
2,10.61299991607666,learn,49387.00008392334,Thu Mar 27 2025 11:13:21 GMT-0500 (Central Daylight Time),275707.89999997616,A,rug,O,g,167,1,667.0,275040.89999997616,7106,WL,A,9.0
2,11.395999908447266,learn,48604.000091552734,Thu Mar 27 2025 11:13:21 GMT-0500 (Central Daylight Time),276490.0,A,rugenter,O,enter,749,1,1449.1000000238419,275040.89999997616,7106,WL,A,9.0
2,12.013999938964844,learn,47986.000061035156,Thu Mar 27 2025 11:13:21 GMT-0500 (Central Daylight Time),277108.89999997616,A,f,O,f,612,1,618.5,276490.39999997616,7106,WL,A,10.0
2,12.129999876022339,learn,47870.00012397766,Thu Mar 27 2025 11:13:21 GMT-0500 (Central Daylight Time),277224.3000000119,A,fl,O,l,84,1,733.9000000357628,276490.39999997616,7106,WL,A,10.0
2,12.329999923706055,learn,47670.000076293945,Thu Mar 27 2025 11:13:21 GMT-0500 (Central Daylight Time),277424.1999999881,A,flo,O,o,167,1,933.8000000119209,276490.39999997616,7106,WL,A,10.0
2,12.378999948501587,learn,47621.00005149841,Thu Mar 27 2025 11:13:21 GMT-0500 (Central Daylight Time),277473.1999999881,A,flow,O,w,17,1,982.8000000119209,276490.39999997616,7106,WL,A,10.0
2,12.428999900817871,learn,47571.00009918213,Thu Mar 27 2025 11:13:21 GMT-0500 (Central Daylight Time),277523.1999999881,A,flowe,O,e,31,1,1032.800000011921,276490.39999997616,7106,WL,A,10.0
2,12.529000043869019,learn,47470.99995613098,Thu Mar 27 2025 11:13:21 GMT-0500 (Central Daylight Time),277623.89999997616,A,flower,O,r,86,1,1133.5,276490.39999997616,7106,WL,A,10.0
2,13.277999877929688,learn,46722.00012207031,Thu Mar 27 2025 11:13:21 GMT-0500 (Central Daylight Time),278372.8000000119,A,flowerenter,O,enter,714,1,1882.4000000357628,276490.39999997616,7106,WL,A,10.0
2,24.625,learn,35375.0,Thu Mar 27 2025 11:13:21 GMT-0500 (Central Daylight Time),289719.39999997616,A,f,O,f,11327,1,11346.399999976158,278373.0,7106,WL,A,11.0
2,24.72499990463257,learn,35275.00009536743,Thu Mar 27 2025 11:13:21 GMT-0500 (Central Daylight Time),289819.09999996424,A,fl,O,l,70,1,11446.099999964237,278373.0,7106,WL,A,11.0
2,24.907999992370605,learn,35092.000007629395,Thu Mar 27 2025 11:13:21 GMT-0500 (Central Daylight Time),290002.1999999881,A,flo,O,o,168,1,11629.199999988079,278373.0,7106,WL,A,11.0
2,24.95799994468689,learn,35042.00005531311,Thu Mar 27 2025 11:13:21 GMT-0500 (Central Daylight Time),290052.09999996424,A,flow,O,w,33,1,11679.099999964237,278373.0,7106,WL,A,11.0
2,25.058000087738037,learn,34941.99991226196,Thu Mar 27 2025 11:13:21 GMT-0500 (Central Daylight Time),290152.59999996424,A,flowe,O,e,80,1,11779.599999964237,278373.0,7106,WL,A,11.0
2,25.157999992370605,learn,34842.000007629395,Thu Mar 27 2025 11:13:21 GMT-0500 (Central Daylight Time),290252.59999996424,A,flower,O,r,77,1,11879.599999964237,278373.0,7106,WL,A,11.0
2,25.407999992370605,learn,34592.000007629395,Thu Mar 27 2025 11:13:21 GMT-0500 (Central Daylight Time),290502.09999996424,A,flowerenter,O,enter,226,1,12129.099999964237,278373.0,7106,WL,A,11.0
2,53.73399996757507,learn,6266.000032424927,Thu Mar 27 2025 11:13:21 GMT-0500 (Central Daylight Time),318827.39999997616,A,f,O,f,28304,1,28325.0,290502.39999997616,7106,WL,A,12.0
2,54.0,learn,6000.0,Thu Mar 27 2025 11:13:21 GMT-0500 (Central Daylight Time),319093.5,A,fi,O,i,239,1,28591.100000023842,290502.39999997616,7106,WL,A,12.0
2,54.02799987792969,learn,5972.0001220703125,Thu Mar 27 2025 11:13:21 GMT-0500 (Central Daylight Time),319121.1999999881,A,fin,O,n,2,1,28618.80000001192,290502.39999997616,7106,WL,A,12.0
2,54.26699995994568,learn,5733.000040054321,Thu Mar 27 2025 11:13:21 GMT-0500 (Central Daylight Time),319360.5,A,fing,O,g,214,1,28858.100000023842,290502.39999997616,7106,WL,A,12.0
2,54.65000009536743,learn,5349.999904632568,Thu Mar 27 2025 11:13:21 GMT-0500 (Central Daylight Time),319743.5,A,finge,O,e,346,1,29241.100000023842,290502.39999997616,7106,WL,A,12.0
2,54.73300004005432,learn,5266.999959945679,Thu Mar 27 2025 11:13:21 GMT-0500 (Central Daylight Time),319826.09999996424,A,finger,O,r,50,1,29323.69999998808,290502.39999997616,7106,WL,A,12.0
2,55.0,learn,5000.0,Thu Mar 27 2025 11:13:21 GMT-0500 (Central Daylight Time),320093.39999997616,A,fingerenter,O,enter,253,1,29591.0,290502.39999997616,7106,WL,A,12.0
2,60.014999866485596,learn,-14.999866485595703,Thu Mar 27 2025 11:13:21 GMT-0500 (Central Daylight Time),325108.39999997616,A,None,O,None,5008,1,5014.599999964237,320093.8000000119,7106,WL,A,13.0
3,0.5829999446868896,learn,59417.00005531311,Thu Mar 27 2025 11:13:21 GMT-0500 (Central Daylight Time),394269.0,A,b,O,b,558,1,582.6999999880791,393686.3000000119,7106,WL,A,1.0
3,0.748999834060669,learn,59251.00016593933,Thu Mar 27 2025 11:13:21 GMT-0500 (Central Daylight Time),394434.8000000119,A,bu,O,u,138,1,748.5,393686.3000000119,7106,WL,A,1.0
3,0.9159998893737793,learn,59084.00011062622,Thu Mar 27 2025 11:13:21 GMT-0500 (Central Daylight Time),394602.3000000119,A,but,O,t,144,1,916.0,393686.3000000119,7106,WL,A,1.0
3,1.0829999446868896,learn,58917.00005531311,Thu Mar 27 2025 11:13:21 GMT-0500 (Central Daylight Time),394768.8000000119,A,butt,O,t,127,1,1082.5,393686.3000000119,7106,WL,A,1.0
3,1.1649999618530273,learn,58835.00003814697,Thu Mar 27 2025 11:13:21 GMT-0500 (Central Daylight Time),394851.1999999881,A,butto,O,o,39,1,1164.8999999761581,393686.3000000119,7106,WL,A,1.0
3,1.2319998741149902,learn,58768.00012588501,Thu Mar 27 2025 11:13:21 GMT-0500 (Central Daylight Time),394917.89999997616,A,button,O,n,35,1,1231.5999999642372,393686.3000000119,7106,WL,A,1.0
3,1.4819998741149902,learn,58518.00012588501,Thu Mar 27 2025 11:13:21 GMT-0500 (Central Daylight Time),395167.8000000119,A,buttonenter,O,enter,236,1,1481.5,393686.3000000119,7106,WL,A,1.0
3,2.115999937057495,learn,57884.000062942505,Thu Mar 27 2025 11:13:21 GMT-0500 (Central Daylight Time),395801.8000000119,A,g,O,g,614,1,633.8000000119209,395168.0,7106,WL,A,2.0
3,2.248999834060669,learn,57751.00016593933,Thu Mar 27 2025 11:13:21 GMT-0500 (Central Daylight Time),395935.3000000119,A,go,O,o,95,1,767.3000000119209,395168.0,7106,WL,A,2.0
3,2.7659997940063477,learn,57234.00020599365,Thu Mar 27 2025 11:13:21 GMT-0500 (Central Daylight Time),396451.89999997616,A,gol,O,l,475,1,1283.8999999761581,395168.0,7106,WL,A,2.0
3,2.9159998893737793,learn,57084.00011062622,Thu Mar 27 2025 11:13:21 GMT-0500 (Central Daylight Time),396601.59999996424,A,gold,O,d,118,1,1433.5999999642372,395168.0,7106,WL,A,2.0
3,3.0979998111724854,learn,56902.000188827515,Thu Mar 27 2025 11:13:21 GMT-0500 (Central Daylight Time),396784.0,A,goldenter,O,enter,145,1,1616.0,395168.0,7106,WL,A,2.0
3,3.4149999618530273,learn,56585.00003814697,Thu Mar 27 2025 11:13:21 GMT-0500 (Central Daylight Time),397101.3000000119,A,l,O,l,309,1,317.10000002384186,396784.1999999881,7106,WL,A,3.0
3,3.615999937057495,learn,56384.000062942505,Thu Mar 27 2025 11:13:21 GMT-0500 (Central Daylight Time),397301.59999996424,A,lo,O,o,165,1,517.3999999761581,396784.1999999881,7106,WL,A,3.0
3,3.7149999141693115,learn,56285.00008583069,Thu Mar 27 2025 11:13:21 GMT-0500 (Central Daylight Time),397400.3000000119,A,log,O,g,67,1,616.1000000238419,396784.1999999881,7106,WL,A,3.0
3,3.9649999141693115,learn,56035.00008583069,Thu Mar 27 2025 11:13:21 GMT-0500 (Central Daylight Time),397650.3000000119,A,logenter,O,enter,224,1,866.1000000238419,396784.1999999881,7106,WL,A,3.0
3,4.198999881744385,learn,55801.000118255615,Thu Mar 27 2025 11:13:21 GMT-0500 (Central Daylight Time),397885.09999996424,A,k,O,k,228,1,234.5999999642372,397650.5,7106,WL,A,4.0
3,4.31499981880188,learn,55685.00018119812,Thu Mar 27 2025 11:13:21 GMT-0500 (Central Daylight Time),398000.8000000119,A,ke,O,e,77,1,350.30000001192093,397650.5,7106,WL,A,4.0
3,4.447999954223633,learn,55552.00004577637,Thu Mar 27 2025 11:13:21 GMT-0500 (Central Daylight Time),398134.0,A,key,O,y,105,1,483.5,397650.5,7106,WL,A,4.0
3,4.81499981880188,learn,55185.00018119812,Thu Mar 27 2025 11:13:21 GMT-0500 (Central Daylight Time),398501.3000000119,A,keyr,O,r,343,1,850.8000000119209,397650.5,7106,WL,A,4.0
3,4.947999954223633,learn,55052.00004577637,Thu Mar 27 2025 11:13:21 GMT-0500 (Central Daylight Time),398634.09999996424,A,keyra,O,a,108,1,983.5999999642372,397650.5,7106,WL,A,4.0
3,5.148000001907349,learn,54851.99999809265,Thu Mar 27 2025 11:13:21 GMT-0500 (Central Daylight Time),398833.89999997616,A,keyrat,O,t,167,1,1183.3999999761581,397650.5,7106,WL,A,4.0
3,5.56499981880188,learn,54435.00018119812,Thu Mar 27 2025 11:13:21 GMT-0500 (Central Daylight Time),399250.6999999881,A,keyra,O,backspace,377,1,1600.199999988079,397650.5,7106,WL,A,4.0
3,5.73199987411499,learn,54268.00012588501,Thu Mar 27 2025 11:13:21 GMT-0500 (Central Daylight Time),399417.39999997616,A,keyr,O,backspace,128,1,1766.8999999761581,397650.5,7106,WL,A,4.0
3,5.880999803543091,learn,54119.00019645691,Thu Mar 27 2025 11:13:21 GMT-0500 (Central Daylight Time),399566.89999997616,A,key,O,backspace,120,1,1916.3999999761581,397650.5,7106,WL,A,4.0
3,6.047999858856201,learn,53952.0001411438,Thu Mar 27 2025 11:13:21 GMT-0500 (Central Daylight Time),399733.8000000119,A,ke,O,backspace,140,1,2083.300000011921,397650.5,7106,WL,A,4.0
3,6.830999851226807,learn,53169.00014877319,Thu Mar 27 2025 11:13:21 GMT-0500 (Central Daylight Time),400517.0,A,keu,O,u,742,1,2866.5,397650.5,7106,WL,A,4.0
3,7.480999946594238,learn,52519.00005340576,Thu Mar 27 2025 11:13:21 GMT-0500 (Central Daylight Time),401166.39999997616,A,ke,O,backspace,621,1,3515.899999976158,397650.5,7106,WL,A,4.0
3,7.7809998989105225,learn,52219.00010108948,Thu Mar 27 2025 11:13:21 GMT-0500 (Central Daylight Time),401466.59999996424,A,key,O,y,263,1,3816.099999964237,397650.5,7106,WL,A,4.0
3,8.02999997138977,learn,51970.00002861023,Thu Mar 27 2025 11:13:21 GMT-0500 (Central Daylight Time),401715.59999996424,A,keyenter,O,enter,219,1,4065.099999964237,397650.5,7106,WL,A,4.0
3,8.430999994277954,learn,51569.000005722046,Thu Mar 27 2025 11:13:21 GMT-0500 (Central Daylight Time),402116.89999997616,A,r,O,r,394,1,401.0,401715.89999997616,7106,WL,A,5.0
3,8.580999851226807,learn,51419.00014877319,Thu Mar 27 2025 11:13:21 GMT-0500 (Central Daylight Time),402266.3000000119,A,ra,O,a,118,1,550.4000000357628,401715.89999997616,7106,WL,A,5.0
3,8.77999997138977,learn,51220.00002861023,Thu Mar 27 2025 11:13:21 GMT-0500 (Central Daylight Time),402466.3000000119,A,rat,O,t,162,1,750.4000000357628,401715.89999997616,7106,WL,A,5.0
3,8.929999828338623,learn,51070.00017166138,Thu Mar 27 2025 11:13:21 GMT-0500 (Central Daylight Time),402616.39999997616,A,ratt,O,t,112,1,900.5,401715.89999997616,7106,WL,A,5.0
3,9.079999923706055,learn,50920.000076293945,Thu Mar 27 2025 11:13:21 GMT-0500 (Central Daylight Time),402766.0,A,rattl,O,l,120,1,1050.1000000238419,401715.89999997616,7106,WL,A,5.0
3,9.162999868392944,learn,50837.000131607056,Thu Mar 27 2025 11:13:21 GMT-0500 (Central Daylight Time),402848.59999996424,A,rattle,O,e,52,1,1132.699999988079,401715.89999997616,7106,WL,A,5.0
3,9.712999820709229,learn,50287.00017929077,Thu Mar 27 2025 11:13:21 GMT-0500 (Central Daylight Time),403398.39999997616,A,rattleenter,O,enter,534,1,1682.5,401715.89999997616,7106,WL,A,5.0
3,9.946999788284302,learn,50053.0002117157,Thu Mar 27 2025 11:13:21 GMT-0500 (Central Daylight Time),403632.6999999881,A,c,O,c,224,1,234.10000002384186,403398.59999996424,7106,WL,A,6.0
3,10.02899980545044,learn,49971.00019454956,Thu Mar 27 2025 11:13:21 GMT-0500 (Central Daylight Time),403715.09999996424,A,ch,O,h,49,1,316.5,403398.59999996424,7106,WL,A,6.0
3,10.078999996185303,learn,49921.0000038147,Thu Mar 27 2025 11:13:21 GMT-0500 (Central Daylight Time),403765.0,A,chi,O,i,33,1,366.4000000357628,403398.59999996424,7106,WL,A,6.0
3,10.27999997138977,learn,49720.00002861023,Thu Mar 27 2025 11:13:21 GMT-0500 (Central Daylight Time),403965.39999997616,A,chim,O,m,190,1,566.8000000119209,403398.59999996424,7106,WL,A,6.0
3,10.77999997138977,learn,49220.00002861023,Thu Mar 27 2025 11:13:21 GMT-0500 (Central Daylight Time),404465.89999997616,A,chimn,O,n,461,1,1067.300000011921,403398.59999996424,7106,WL,A,6.0
3,10.879999876022339,learn,49120.00012397766,Thu Mar 27 2025 11:13:21 GMT-0500 (Central Daylight Time),404565.59999996424,A,chimne,O,e,69,1,1167.0,403398.59999996424,7106,WL,A,6.0
3,11.012999773025513,learn,48987.00022697449,Thu Mar 27 2025 11:13:21 GMT-0500 (Central Daylight Time),404698.59999996424,A,chimney,O,y,101,1,1300.0,403398.59999996424,7106,WL,A,6.0
3,11.262999773025513,learn,48737.00022697449,Thu Mar 27 2025 11:13:21 GMT-0500 (Central Daylight Time),404948.89999997616,A,chimneyenter,O,enter,225,1,1550.300000011921,403398.59999996424,7106,WL,A,6.0
3,11.412999868392944,learn,48587.000131607056,Thu Mar 27 2025 11:13:21 GMT-0500 (Central Daylight Time),405098.6999999881,A,s,O,s,137,1,149.5,404949.1999999881,7106,WL,A,7.0
3,11.51199984550476,learn,48488.00015449524,Thu Mar 27 2025 11:13:21 GMT-0500 (Central Daylight Time),405198.0,A,sa,O,a,76,1,248.80000001192093,404949.1999999881,7106,WL,A,7.0
3,11.662999868392944,learn,48337.000131607056,Thu Mar 27 2025 11:13:21 GMT-0500 (Central Daylight Time),405349.1999999881,A,sal,O,l,132,1,400.0,404949.1999999881,7106,WL,A,7.0
3,11.795999765396118,learn,48204.00023460388,Thu Mar 27 2025 11:13:21 GMT-0500 (Central Daylight Time),405481.89999997616,A,salk,O,k,101,1,532.6999999880791,404949.1999999881,7106,WL,A,7.0
3,12.27899980545044,learn,47721.00019454956,Thu Mar 27 2025 11:13:21 GMT-0500 (Central Daylight Time),405965.09999996424,A,sal,O,backspace,449,1,1015.8999999761581,404949.1999999881,7106,WL,A,7.0
3,12.378999948501587,learn,47621.00005149841,Thu Mar 27 2025 11:13:21 GMT-0500 (Central Daylight Time),406065.1999999881,A,salt,O,t,72,1,1116.0,404949.1999999881,7106,WL,A,7.0
3,12.744999885559082,learn,47255.00011444092,Thu Mar 27 2025 11:13:21 GMT-0500 (Central Daylight Time),406430.6999999881,A,saltenter,O,enter,344,1,1481.5,404949.1999999881,7106,WL,A,7.0
3,13.111999988555908,learn,46888.00001144409,Thu Mar 27 2025 11:13:21 GMT-0500 (Central Daylight Time),406798.0,A,f,O,f,359,1,367.10000002384186,406430.89999997616,7106,WL,A,8.0
3,13.295999765396118,learn,46704.00023460388,Thu Mar 27 2025 11:13:21 GMT-0500 (Central Daylight Time),406981.5,A,fi,O,i,149,1,550.6000000238419,406430.89999997616,7106,WL,A,8.0
3,13.34499979019165,learn,46655.00020980835,Thu Mar 27 2025 11:13:21 GMT-0500 (Central Daylight Time),407030.6999999881,A,fin,O,n,21,1,599.8000000119209,406430.89999997616,7106,WL,A,8.0
3,13.444999933242798,learn,46555.0000667572,Thu Mar 27 2025 11:13:21 GMT-0500 (Central Daylight Time),407130.89999997616,A,fing,O,g,85,1,700.0,406430.89999997616,7106,WL,A,8.0
3,13.562999963760376,learn,46437.000036239624,Thu Mar 27 2025 11:13:21 GMT-0500 (Central Daylight Time),407248.5,A,finge,O,e,88,1,817.6000000238419,406430.89999997616,7106,WL,A,8.0
3,13.661999940872192,learn,46338.00005912781,Thu Mar 27 2025 11:13:21 GMT-0500 (Central Daylight Time),407347.5,A,finger,O,r,65,1,916.6000000238419,406430.89999997616,7106,WL,A,8.0
3,13.92799997329712,learn,46072.00002670288,Thu Mar 27 2025 11:13:21 GMT-0500 (Central Daylight Time),407613.59999996424,A,fingerenter,O,enter,249,1,1182.699999988079,406430.89999997616,7106,WL,A,8.0
3,14.111999988555908,learn,45888.00001144409,Thu Mar 27 2025 11:13:21 GMT-0500 (Central Daylight Time),407797.59999996424,A,a,O,a,176,1,183.69999998807907,407613.89999997616,7106,WL,A,9.0
3,14.27899980545044,learn,45721.00019454956,Thu Mar 27 2025 11:13:21 GMT-0500 (Central Daylight Time),407964.39999997616,A,ap,O,p,138,1,350.5,407613.89999997616,7106,WL,A,9.0
3,14.444999933242798,learn,45555.0000667572,Thu Mar 27 2025 11:13:21 GMT-0500 (Central Daylight Time),408131.3000000119,A,app,O,p,127,1,517.4000000357628,407613.89999997616,7106,WL,A,9.0
3,14.644999980926514,learn,45355.000019073486,Thu Mar 27 2025 11:13:21 GMT-0500 (Central Daylight Time),408330.3000000119,A,appl,O,l,166,1,716.4000000357628,407613.89999997616,7106,WL,A,9.0
3,14.76199984550476,learn,45238.00015449524,Thu Mar 27 2025 11:13:21 GMT-0500 (Central Daylight Time),408447.59999996424,A,apple,O,e,101,1,833.6999999880791,407613.89999997616,7106,WL,A,9.0
3,14.943999767303467,learn,45056.00023269653,Thu Mar 27 2025 11:13:21 GMT-0500 (Central Daylight Time),408630.0,A,appleenter,O,enter,155,1,1016.1000000238419,407613.89999997616,7106,WL,A,9.0
3,16.110999822616577,learn,43889.00017738342,Thu Mar 27 2025 11:13:21 GMT-0500 (Central Daylight Time),409797.3000000119,A,b,O,b,1152,1,1167.1000000238419,408630.1999999881,7106,WL,A,10.0
3,16.24399995803833,learn,43756.00004196167,Thu Mar 27 2025 11:13:21 GMT-0500 (Central Daylight Time),409930.0,A,bo,O,o,102,1,1299.800000011921,408630.1999999881,7106,WL,A,10.0
3,16.393999814987183,learn,43606.00018501282,Thu Mar 27 2025 11:13:21 GMT-0500 (Central Daylight Time),410080.0,A,boo,O,o,131,1,1449.800000011921,408630.1999999881,7106,WL,A,10.0
3,16.526999950408936,learn,43473.000049591064,Thu Mar 27 2025 11:13:21 GMT-0500 (Central Daylight Time),410212.89999997616,A,book,O,k,115,1,1582.699999988079,408630.1999999881,7106,WL,A,10.0
3,16.793999910354614,learn,43206.000089645386,Thu Mar 27 2025 11:13:21 GMT-0500 (Central Daylight Time),410479.39999997616,A,bookenter,O,enter,237,1,1849.199999988079,408630.1999999881,7106,WL,A,10.0
3,17.043999910354614,learn,42956.000089645386,Thu Mar 27 2025 11:13:21 GMT-0500 (Central Daylight Time),410729.6999999881,A,m,O,m,237,1,250.10000002384186,410479.59999996424,7106,WL,A,11.0
3,17.126999855041504,learn,42873.000144958496,Thu Mar 27 2025 11:13:21 GMT-0500 (Central Daylight Time),410813.09999996424,A,me,O,e,58,1,333.5,410479.59999996424,7106,WL,A,11.0
3,17.15999984741211,learn,42840.00015258789,Thu Mar 27 2025 11:13:21 GMT-0500 (Central Daylight Time),410846.1999999881,A,mea,O,a,16,1,366.60000002384186,410479.59999996424,7106,WL,A,11.0
3,17.377999782562256,learn,42622.000217437744,Thu Mar 27 2025 11:13:21 GMT-0500 (Central Daylight Time),411063.5,A,mead,O,d,206,1,583.9000000357628,410479.59999996424,7106,WL,A,11.0
3,17.49399995803833,learn,42506.00004196167,Thu Mar 27 2025 11:13:21 GMT-0500 (Central Daylight Time),411179.59999996424,A,meado,O,o,83,1,700.0,410479.59999996424,7106,WL,A,11.0
3,17.810999870300293,learn,42189.00012969971,Thu Mar 27 2025 11:13:21 GMT-0500 (Central Daylight Time),411496.5,A,meadow,O,w,298,1,1016.9000000357628,410479.59999996424,7106,WL,A,11.0
3,18.65999984741211,learn,41340.00015258789,Thu Mar 27 2025 11:13:21 GMT-0500 (Central Daylight Time),412345.39999997616,A,meadowenter,O,enter,809,1,1865.800000011921,410479.59999996424,7106,WL,A,11.0
3,19.009999990463257,learn,40990.00000953674,Thu Mar 27 2025 11:13:21 GMT-0500 (Central Daylight Time),412696.1999999881,A,r,O,r,340,1,350.5,412345.6999999881,7106,WL,A,12.0
3,19.125999927520752,learn,40874.00007247925,Thu Mar 27 2025 11:13:21 GMT-0500 (Central Daylight Time),412812.0,A,ru,O,u,89,1,466.30000001192093,412345.6999999881,7106,WL,A,12.0
3,19.793999910354614,learn,40206.000089645386,Thu Mar 27 2025 11:13:21 GMT-0500 (Central Daylight Time),413479.5,A,rug,O,g,645,1,1133.800000011921,412345.6999999881,7106,WL,A,12.0
3,20.89199995994568,learn,39108.00004005432,Thu Mar 27 2025 11:13:21 GMT-0500 (Central Daylight Time),414578.0,A,rugenter,O,enter,1065,1,2232.300000011921,412345.6999999881,7106,WL,A,12.0
3,21.042999982833862,learn,38957.00001716614,Thu Mar 27 2025 11:13:21 GMT-0500 (Central Daylight Time),414728.89999997616,A,f,O,f,140,1,150.5,414578.39999997616,7106,WL,A,13.0
3,21.192999839782715,learn,38807.000160217285,Thu Mar 27 2025 11:13:21 GMT-0500 (Central Daylight Time),414878.8000000119,A,fl,O,l,128,1,300.4000000357628,414578.39999997616,7106,WL,A,13.0
3,21.39299988746643,learn,38607.00011253357,Thu Mar 27 2025 11:13:21 GMT-0500 (Central Daylight Time),415078.6999999881,A,flo,O,o,169,1,500.30000001192093,414578.39999997616,7106,WL,A,13.0
3,21.441999912261963,learn,38558.00008773804,Thu Mar 27 2025 11:13:21 GMT-0500 (Central Daylight Time),415127.89999997616,A,flow,O,w,11,1,549.5,414578.39999997616,7106,WL,A,13.0
3,21.491999864578247,learn,38508.00013542175,Thu Mar 27 2025 11:13:21 GMT-0500 (Central Daylight Time),415177.8000000119,A,flowe,O,e,34,1,599.4000000357628,414578.39999997616,7106,WL,A,13.0
3,21.625999927520752,learn,38374.00007247925,Thu Mar 27 2025 11:13:21 GMT-0500 (Central Daylight Time),415311.6999999881,A,flower,O,r,114,1,733.3000000119209,414578.39999997616,7106,WL,A,13.0
3,22.825999975204468,learn,37174.00002479553,Thu Mar 27 2025 11:13:21 GMT-0500 (Central Daylight Time),416510.6999999881,A,flowerenter,O,enter,1166,1,1932.300000011921,414578.39999997616,7106,WL,A,13.0
3,29.924999952316284,learn,30075.000047683716,Thu Mar 27 2025 11:13:21 GMT-0500 (Central Daylight Time),423609.39999997616,A,b,O,b,7079,1,7098.399999976158,416511.0,7106,WL,A,14.0
3,30.00499987602234,learn,29995.00012397766,Thu Mar 27 2025 11:13:21 GMT-0500 (Central Daylight Time),423689.59999996424,A,bo,O,o,31,1,7178.599999964237,416511.0,7106,WL,A,14.0
3,30.157999992370605,learn,29842.000007629395,Thu Mar 27 2025 11:13:21 GMT-0500 (Central Daylight Time),423842.1999999881,A,boo,O,o,131,1,7331.199999988079,416511.0,7106,WL,A,14.0
3,30.29099988937378,learn,29709.00011062622,Thu Mar 27 2025 11:13:21 GMT-0500 (Central Daylight Time),423975.59999996424,A,book,O,k,107,1,7464.599999964237,416511.0,7106,WL,A,14.0
3,30.58999991416931,learn,29410.00008583069,Thu Mar 27 2025 11:13:21 GMT-0500 (Central Daylight Time),424274.8000000119,A,bookenter,O,enter,271,1,7763.800000011921,416511.0,7106,WL,A,14.0
3,37.95599985122681,learn,22044.000148773193,Thu Mar 27 2025 11:13:21 GMT-0500 (Central Daylight Time),431640.09999996424,A,b,O,b,7354,1,7365.0,424275.09999996424,7106,WL,A,15.0
3,38.15499997138977,learn,21845.00002861023,Thu Mar 27 2025 11:13:21 GMT-0500 (Central Daylight Time),431839.6999999881,A,bu,O,u,162,1,7564.600000023842,424275.09999996424,7106,WL,A,15.0
3,38.388999938964844,learn,21611.000061035156,Thu Mar 27 2025 11:13:21 GMT-0500 (Central Daylight Time),432073.1999999881,A,but,O,t,205,1,7798.100000023842,424275.09999996424,7106,WL,A,15.0
3,38.5719997882843,learn,21428.0002117157,Thu Mar 27 2025 11:13:21 GMT-0500 (Central Daylight Time),432256.5,A,butt,O,t,159,1,7981.400000035763,424275.09999996424,7106,WL,A,15.0
3,38.73899984359741,learn,21261.000156402588,Thu Mar 27 2025 11:13:21 GMT-0500 (Central Daylight Time),432423.0,A,butto,O,o,138,1,8147.900000035763,424275.09999996424,7106,WL,A,15.0
3,38.90499997138977,learn,21095.00002861023,Thu Mar 27 2025 11:13:21 GMT-0500 (Central Daylight Time),432589.89999997616,A,button,O,n,133,1,8314.800000011921,424275.09999996424,7106,WL,A,15.0
3,39.353999853134155,learn,20646.000146865845,Thu Mar 27 2025 11:13:21 GMT-0500 (Central Daylight Time),433038.59999996424,A,buttonenter,O,enter,411,1,8763.5,424275.09999996424,7106,WL,A,15.0
4,0.7670001983642578,learn,59232.99980163574,Thu Mar 27 2025 11:13:21 GMT-0500 (Central Daylight Time),504716.1999999881,A,b,O,b,732,1,766.3999999761581,503949.8000000119,7106,WL,A,1.0
4,0.9000000953674316,learn,59099.99990463257,Thu Mar 27 2025 11:13:21 GMT-0500 (Central Daylight Time),504849.39999997616,A,bu,O,u,92,1,899.5999999642372,503949.8000000119,7106,WL,A,1.0
4,1.0500001907348633,learn,58949.99980926514,Thu Mar 27 2025 11:13:21 GMT-0500 (Central Daylight Time),504999.3000000119,A,but,O,t,113,1,1049.5,503949.8000000119,7106,WL,A,1.0
4,1.2330000400543213,learn,58766.99995994568,Thu Mar 27 2025 11:13:21 GMT-0500 (Central Daylight Time),505182.39999997616,A,butt,O,t,147,1,1232.5999999642372,503949.8000000119,7106,WL,A,1.0
4,1.315999984741211,learn,58684.00001525879,Thu Mar 27 2025 11:13:21 GMT-0500 (Central Daylight Time),505265.09999996424,A,butto,O,o,51,1,1315.2999999523163,503949.8000000119,7106,WL,A,1.0
4,1.3660001754760742,learn,58633.999824523926,Thu Mar 27 2025 11:13:21 GMT-0500 (Central Daylight Time),505315.39999997616,A,button,O,n,36,1,1365.5999999642372,503949.8000000119,7106,WL,A,1.0
4,1.8990001678466797,learn,58100.99983215332,Thu Mar 27 2025 11:13:21 GMT-0500 (Central Daylight Time),505848.09999996424,A,buttonenter,O,enter,518,1,1898.2999999523163,503949.8000000119,7106,WL,A,1.0
4,2.2829999923706055,learn,57717.000007629395,Thu Mar 27 2025 11:13:21 GMT-0500 (Central Daylight Time),506232.1999999881,A,g,O,g,373,1,383.89999997615814,505848.3000000119,7106,WL,A,2.0
4,2.366000175476074,learn,57633.999824523926,Thu Mar 27 2025 11:13:21 GMT-0500 (Central Daylight Time),506314.6999999881,A,go,O,o,48,1,466.39999997615814,505848.3000000119,7106,WL,A,2.0
4,2.5500001907348633,learn,57449.99980926514,Thu Mar 27 2025 11:13:21 GMT-0500 (Central Daylight Time),506499.09999996424,A,gol,O,l,166,1,650.7999999523163,505848.3000000119,7106,WL,A,2.0
4,2.6490001678466797,learn,57350.99983215332,Thu Mar 27 2025 11:13:21 GMT-0500 (Central Daylight Time),506598.1999999881,A,gold,O,d,69,1,749.8999999761581,505848.3000000119,7106,WL,A,2.0
4,2.815000057220459,learn,57184.99994277954,Thu Mar 27 2025 11:13:21 GMT-0500 (Central Daylight Time),506764.3000000119,A,goldenter,O,enter,142,1,916.0,505848.3000000119,7106,WL,A,2.0
4,3.0320000648498535,learn,56967.99993515015,Thu Mar 27 2025 11:13:21 GMT-0500 (Central Daylight Time),506981.5,A,k,O,k,201,1,216.9000000357628,506764.59999996424,7106,WL,A,3.0
4,3.132000207901001,learn,56867.999792099,Thu Mar 27 2025 11:13:21 GMT-0500 (Central Daylight Time),507081.0,A,ke,O,e,76,1,316.4000000357628,506764.59999996424,7106,WL,A,3.0
4,3.2660000324249268,learn,56733.99996757507,Thu Mar 27 2025 11:13:21 GMT-0500 (Central Daylight Time),507215.0,A,key,O,y,108,1,450.4000000357628,506764.59999996424,7106,WL,A,3.0
4,4.549000024795532,learn,55450.99997520447,Thu Mar 27 2025 11:13:21 GMT-0500 (Central Daylight Time),508498.1999999881,A,keyenter,O,enter,1253,1,1733.6000000238419,506764.59999996424,7106,WL,A,3.0
4,5.0320000648498535,learn,54967.99993515015,Thu Mar 27 2025 11:13:21 GMT-0500 (Central Daylight Time),508981.1999999881,A,l,O,l,476,1,482.80000001192093,508498.39999997616,7106,WL,A,4.0
4,5.215000152587891,learn,54784.99984741211,Thu Mar 27 2025 11:13:21 GMT-0500 (Central Daylight Time),509164.59999996424,A,lo,O,o,149,1,666.1999999880791,508498.39999997616,7106,WL,A,4.0
4,5.314000129699707,learn,54685.99987030029,Thu Mar 27 2025 11:13:21 GMT-0500 (Central Daylight Time),509263.39999997616,A,log,O,g,63,1,765.0,508498.39999997616,7106,WL,A,4.0
4,5.498000144958496,learn,54501.999855041504,Thu Mar 27 2025 11:13:21 GMT-0500 (Central Daylight Time),509446.89999997616,A,logenter,O,enter,172,1,948.5,508498.39999997616,7106,WL,A,4.0
4,5.7820000648498535,learn,54217.99993515015,Thu Mar 27 2025 11:13:21 GMT-0500 (Central Daylight Time),509731.1999999881,A,r,O,r,263,1,284.10000002384186,509447.09999996424,7106,WL,A,5.0
4,5.9150002002716064,learn,54084.99979972839,Thu Mar 27 2025 11:13:21 GMT-0500 (Central Daylight Time),509864.1999999881,A,ra,O,a,97,1,417.10000002384186,509447.09999996424,7106,WL,A,5.0
4,6.0980000495910645,learn,53901.999950408936,Thu Mar 27 2025 11:13:21 GMT-0500 (Central Daylight Time),510047.09999996424,A,rat,O,t,154,1,600.0,509447.09999996424,7106,WL,A,5.0
4,6.265000104904175,learn,53734.999895095825,Thu Mar 27 2025 11:13:21 GMT-0500 (Central Daylight Time),510213.89999997616,A,ratt,O,t,147,1,766.8000000119209,509447.09999996424,7106,WL,A,5.0
4,6.398000001907349,learn,53601.99999809265,Thu Mar 27 2025 11:13:21 GMT-0500 (Central Daylight Time),510347.59999996424,A,rattl,O,l,94,1,900.5,509447.09999996424,7106,WL,A,5.0
4,6.515000104904175,learn,53484.999895095825,Thu Mar 27 2025 11:13:21 GMT-0500 (Central Daylight Time),510464.09999996424,A,rattle,O,e,79,1,1017.0,509447.09999996424,7106,WL,A,5.0
4,6.864000082015991,learn,53135.99991798401,Thu Mar 27 2025 11:13:21 GMT-0500 (Central Daylight Time),510813.09999996424,A,rattleenter,O,enter,313,1,1366.0,509447.09999996424,7106,WL,A,5.0
4,7.180999994277954,learn,52819.000005722046,Thu Mar 27 2025 11:13:21 GMT-0500 (Central Daylight Time),511130.5,A,a,O,a,305,1,317.10000002384186,510813.39999997616,7106,WL,A,6.0
4,7.315000057220459,learn,52684.99994277954,Thu Mar 27 2025 11:13:21 GMT-0500 (Central Daylight Time),511264.0,A,ap,O,p,96,1,450.60000002384186,510813.39999997616,7106,WL,A,6.0
4,7.46399998664856,learn,52536.00001335144,Thu Mar 27 2025 11:13:21 GMT-0500 (Central Daylight Time),511413.59999996424,A,app,O,p,124,1,600.1999999880791,510813.39999997616,7106,WL,A,6.0
4,7.680999994277954,learn,52319.000005722046,Thu Mar 27 2025 11:13:21 GMT-0500 (Central Daylight Time),511630.39999997616,A,appl,O,l,183,1,817.0,510813.39999997616,7106,WL,A,6.0
4,7.797000169754028,learn,52202.99983024597,Thu Mar 27 2025 11:13:21 GMT-0500 (Central Daylight Time),511746.8000000119,A,apple,O,e,75,1,933.4000000357628,510813.39999997616,7106,WL,A,6.0
4,8.015000104904175,learn,51984.999895095825,Thu Mar 27 2025 11:13:21 GMT-0500 (Central Daylight Time),511964.0,A,appleenter,O,enter,186,1,1150.6000000238419,510813.39999997616,7106,WL,A,6.0
4,8.160000085830688,learn,51839.99991416931,Thu Mar 27 2025 11:13:21 GMT-0500 (Central Daylight Time),512109.0,A,s,O,s,138,1,144.80000001192093,511964.1999999881,7106,WL,A,7.0
4,8.264000177383423,learn,51735.99982261658,Thu Mar 27 2025 11:13:21 GMT-0500 (Central Daylight Time),512212.6999999881,A,sa,O,a,80,1,248.5,511964.1999999881,7106,WL,A,7.0
4,8.448000192642212,learn,51551.99980735779,Thu Mar 27 2025 11:13:21 GMT-0500 (Central Daylight Time),512396.8000000119,A,sal,O,l,168,1,432.60000002384186,511964.1999999881,7106,WL,A,7.0
4,8.614000082015991,learn,51385.99991798401,Thu Mar 27 2025 11:13:21 GMT-0500 (Central Daylight Time),512563.3000000119,A,salt,O,t,124,1,599.1000000238419,511964.1999999881,7106,WL,A,7.0
4,8.797000169754028,learn,51202.99983024597,Thu Mar 27 2025 11:13:21 GMT-0500 (Central Daylight Time),512745.6999999881,A,saltenter,O,enter,141,1,781.5,511964.1999999881,7106,WL,A,7.0
4,9.13100004196167,learn,50868.99995803833,Thu Mar 27 2025 11:13:21 GMT-0500 (Central Daylight Time),513080.0,A,f,O,f,325,1,334.0,512746.0,7106,WL,A,8.0
4,9.281000137329102,learn,50718.9998626709,Thu Mar 27 2025 11:13:21 GMT-0500 (Central Daylight Time),513229.89999997616,A,fi,O,i,114,1,483.89999997615814,512746.0,7106,WL,A,8.0
4,9.347000122070312,learn,50652.99987792969,Thu Mar 27 2025 11:13:21 GMT-0500 (Central Daylight Time),513295.6999999881,A,fin,O,n,36,1,549.6999999880791,512746.0,7106,WL,A,8.0
4,9.430000066757202,learn,50569.9999332428,Thu Mar 27 2025 11:13:21 GMT-0500 (Central Daylight Time),513378.6999999881,A,fing,O,g,55,1,632.6999999880791,512746.0,7106,WL,A,8.0
4,9.52999997138977,learn,50470.00002861023,Thu Mar 27 2025 11:13:21 GMT-0500 (Central Daylight Time),513479.59999996424,A,finge,O,e,89,1,733.5999999642372,512746.0,7106,WL,A,8.0
4,9.630000114440918,learn,50369.99988555908,Thu Mar 27 2025 11:13:21 GMT-0500 (Central Daylight Time),513579.09999996424,A,finger,O,r,76,1,833.0999999642372,512746.0,7106,WL,A,8.0
4,9.896000146865845,learn,50103.999853134155,Thu Mar 27 2025 11:13:21 GMT-0500 (Central Daylight Time),513845.3000000119,A,fingerenter,O,enter,252,1,1099.300000011921,512746.0,7106,WL,A,8.0
4,10.246999979019165,learn,49753.000020980835,Thu Mar 27 2025 11:13:21 GMT-0500 (Central Daylight Time),514196.3000000119,A,b,O,b,329,1,350.7000000476837,513845.59999996424,7106,WL,A,9.0
4,10.397000074386597,learn,49602.9999256134,Thu Mar 27 2025 11:13:21 GMT-0500 (Central Daylight Time),514346.1999999881,A,bo,O,o,118,1,500.60000002384186,513845.59999996424,7106,WL,A,9.0
4,10.563000202178955,learn,49436.999797821045,Thu Mar 27 2025 11:13:21 GMT-0500 (Central Daylight Time),514512.5,A,boo,O,o,138,1,666.9000000357628,513845.59999996424,7106,WL,A,9.0
4,10.663000106811523,learn,49336.99989318848,Thu Mar 27 2025 11:13:21 GMT-0500 (Central Daylight Time),514612.1999999881,A,book,O,k,70,1,766.6000000238419,513845.59999996424,7106,WL,A,9.0
4,10.879000186920166,learn,49120.999813079834,Thu Mar 27 2025 11:13:21 GMT-0500 (Central Daylight Time),514828.39999997616,A,bookenter,O,enter,191,1,982.8000000119209,513845.59999996424,7106,WL,A,9.0
4,11.11300015449524,learn,48886.99984550476,Thu Mar 27 2025 11:13:21 GMT-0500 (Central Daylight Time),515062.59999996424,A,m,O,m,217,1,233.89999997615814,514828.6999999881,7106,WL,A,10.0
4,11.196000099182129,learn,48803.99990081787,Thu Mar 27 2025 11:13:21 GMT-0500 (Central Daylight Time),515145.1999999881,A,me,O,e,50,1,316.5,514828.6999999881,7106,WL,A,10.0
4,11.233000040054321,learn,48766.99995994568,Thu Mar 27 2025 11:13:21 GMT-0500 (Central Daylight Time),515182.0,A,mea,O,a,21,1,353.30000001192093,514828.6999999881,7106,WL,A,10.0
4,11.44700002670288,learn,48552.99997329712,Thu Mar 27 2025 11:13:21 GMT-0500 (Central Daylight Time),515395.8000000119,A,mead,O,d,197,1,567.1000000238419,514828.6999999881,7106,WL,A,10.0
4,11.563000202178955,learn,48436.999797821045,Thu Mar 27 2025 11:13:21 GMT-0500 (Central Daylight Time),515512.0,A,meado,O,o,78,1,683.3000000119209,514828.6999999881,7106,WL,A,10.0
4,11.67900013923645,learn,48320.99986076355,Thu Mar 27 2025 11:13:21 GMT-0500 (Central Daylight Time),515628.5,A,meadow,O,w,83,1,799.8000000119209,514828.6999999881,7106,WL,A,10.0
4,12.046000003814697,learn,47953.9999961853,Thu Mar 27 2025 11:13:21 GMT-0500 (Central Daylight Time),515994.59999996424,A,meadowenter,O,enter,337,1,1165.8999999761581,514828.6999999881,7106,WL,A,10.0
4,13.196000099182129,learn,46803.99990081787,Thu Mar 27 2025 11:13:21 GMT-0500 (Central Daylight Time),517145.3000000119,A,t,O,t,1131,1,1150.4000000357628,515994.89999997616,7106,WL,A,11.0
4,13.36300015449524,learn,46636.99984550476,Thu Mar 27 2025 11:13:21 GMT-0500 (Central Daylight Time),517311.8000000119,A,tr,O,r,141,1,1316.9000000357628,515994.89999997616,7106,WL,A,11.0
4,13.417999982833862,learn,46582.00001716614,Thu Mar 27 2025 11:13:21 GMT-0500 (Central Daylight Time),517366.89999997616,A,tra,O,a,26,1,1372.0,515994.89999997616,7106,WL,A,11.0
4,13.562000036239624,learn,46437.999963760376,Thu Mar 27 2025 11:13:21 GMT-0500 (Central Daylight Time),517511.59999996424,A,trai,O,i,128,1,1516.699999988079,515994.89999997616,7106,WL,A,11.0
4,13.662000179290771,learn,46337.99982070923,Thu Mar 27 2025 11:13:21 GMT-0500 (Central Daylight Time),517611.1999999881,A,train,O,n,58,1,1616.300000011921,515994.89999997616,7106,WL,A,11.0
4,14.979000091552734,learn,45020.999908447266,Thu Mar 27 2025 11:13:21 GMT-0500 (Central Daylight Time),518928.3000000119,A,trainenter,O,enter,1290,1,2933.400000035763,515994.89999997616,7106,WL,A,11.0
4,15.545000076293945,learn,44454.999923706055,Thu Mar 27 2025 11:13:21 GMT-0500 (Central Daylight Time),519494.5,A,m,O,m,550,1,566.0,518928.5,7106,WL,A,12.0
4,15.644999980926514,learn,44355.000019073486,Thu Mar 27 2025 11:13:21 GMT-0500 (Central Daylight Time),519593.6999999881,A,me,O,e,59,1,665.1999999880791,518928.5,7106,WL,A,12.0
4,15.67799997329712,learn,44322.00002670288,Thu Mar 27 2025 11:13:21 GMT-0500 (Central Daylight Time),519627.0,A,mea,O,a,11,1,698.5,518928.5,7106,WL,A,12.0
4,16.111999988555908,learn,43888.00001144409,Thu Mar 27 2025 11:13:21 GMT-0500 (Central Daylight Time),520061.1999999881,A,me,O,backspace,415,1,1132.699999988079,518928.5,7106,WL,A,12.0
4,16.295000076293945,learn,43704.999923706055,Thu Mar 27 2025 11:13:21 GMT-0500 (Central Daylight Time),520244.09999996424,A,m,O,backspace,141,1,1315.5999999642372,518928.5,7106,WL,A,12.0
4,16.462000131607056,learn,43537.999868392944,Thu Mar 27 2025 11:13:21 GMT-0500 (Central Daylight Time),520411.09999996424,A,,O,backspace,127,1,1482.5999999642372,518928.5,7106,WL,A,12.0
4,17.211000204086304,learn,42788.999795913696,Thu Mar 27 2025 11:13:21 GMT-0500 (Central Daylight Time),521160.59999996424,A,r,O,r,722,1,2232.099999964237,518928.5,7106,WL,A,12.0
4,17.311000108718872,learn,42688.99989128113,Thu Mar 27 2025 11:13:21 GMT-0500 (Central Daylight Time),521260.0,A,ru,O,u,66,1,2331.5,518928.5,7106,WL,A,12.0
4,17.49500012397766,learn,42504.99987602234,Thu Mar 27 2025 11:13:21 GMT-0500 (Central Daylight Time),521443.89999997616,A,rug,O,g,158,1,2515.399999976158,518928.5,7106,WL,A,12.0
4,18.542999982833862,learn,41457.00001716614,Thu Mar 27 2025 11:13:21 GMT-0500 (Central Daylight Time),522492.5,A,rugenter,O,enter,1021,1,3564.0,518928.5,7106,WL,A,12.0
4,20.06000018119812,learn,39939.99981880188,Thu Mar 27 2025 11:13:21 GMT-0500 (Central Daylight Time),524009.59999996424,A,f,O,f,1497,1,1516.7999999523163,522492.8000000119,7106,WL,A,13.0
4,20.193000078201294,learn,39806.999921798706,Thu Mar 27 2025 11:13:21 GMT-0500 (Central Daylight Time),524141.8000000119,A,fl,O,l,95,1,1649.0,522492.8000000119,7106,WL,A,13.0
4,20.360000133514404,learn,39639.999866485596,Thu Mar 27 2025 11:13:21 GMT-0500 (Central Daylight Time),524309.1999999881,A,flo,O,o,160,1,1816.3999999761581,522492.8000000119,7106,WL,A,13.0
4,20.39300012588501,learn,39606.99987411499,Thu Mar 27 2025 11:13:21 GMT-0500 (Central Daylight Time),524342.3000000119,A,flow,O,w,11,1,1849.5,522492.8000000119,7106,WL,A,13.0
4,20.47699999809265,learn,39523.00000190735,Thu Mar 27 2025 11:13:21 GMT-0500 (Central Daylight Time),524425.5999999642,A,flowe,O,e,62,1,1932.7999999523163,522492.8000000119,7106,WL,A,13.0
4,20.593000173568726,learn,39406.999826431274,Thu Mar 27 2025 11:13:21 GMT-0500 (Central Daylight Time),524542.5999999642,A,flower,O,r,86,1,2049.7999999523163,522492.8000000119,7106,WL,A,13.0
4,21.259000062942505,learn,38740.999937057495,Thu Mar 27 2025 11:13:21 GMT-0500 (Central Daylight Time),525208.3000000119,A,flowerenter,O,enter,636,1,2715.5,522492.8000000119,7106,WL,A,13.0
4,26.375,learn,33625.0,Thu Mar 27 2025 11:13:21 GMT-0500 (Central Daylight Time),530324.5999999642,A,c,O,c,5109,1,5116.0,525208.5999999642,7106,WL,A,14.0
4,26.47000002861023,learn,33529.99997138977,Thu Mar 27 2025 11:13:21 GMT-0500 (Central Daylight Time),530419.3000000119,A,ch,O,h,28,1,5210.700000047684,525208.5999999642,7106,WL,A,14.0
4,26.509000062942505,learn,33490.999937057495,Thu Mar 27 2025 11:13:21 GMT-0500 (Central Daylight Time),530457.8000000119,A,chi,O,i,15,1,5249.200000047684,525208.5999999642,7106,WL,A,14.0
4,26.725000143051147,learn,33274.99985694885,Thu Mar 27 2025 11:13:21 GMT-0500 (Central Daylight Time),530674.0999999642,A,chim,O,m,193,1,5465.5,525208.5999999642,7106,WL,A,14.0
4,27.157999992370605,learn,32842.000007629395,Thu Mar 27 2025 11:13:21 GMT-0500 (Central Daylight Time),531106.8000000119,A,chimn,O,n,394,1,5898.200000047684,525208.5999999642,7106,WL,A,14.0
4,27.290000200271606,learn,32709.999799728394,Thu Mar 27 2025 11:13:21 GMT-0500 (Central Daylight Time),531239.5,A,chimne,O,e,114,1,6030.900000035763,525208.5999999642,7106,WL,A,14.0
4,27.407000064849854,learn,32592.999935150146,Thu Mar 27 2025 11:13:21 GMT-0500 (Central Daylight Time),531356.1999999881,A,chimney,O,y,101,1,6147.600000023842,525208.5999999642,7106,WL,A,14.0
4,27.674000024795532,learn,32325.999975204468,Thu Mar 27 2025 11:13:21 GMT-0500 (Central Daylight Time),531622.8999999762,A,chimneyenter,O,enter,248,1,6414.300000011921,525208.5999999642,7106,WL,A,14.0
4,60.015000104904175,learn,-15.000104904174805,Thu Mar 27 2025 11:13:21 GMT-0500 (Central Daylight Time),563963.1999999881,A,None,O,None,32334,1,32340.100000023842,531623.0999999642,7106,WL,A,15.0
5,0.7179999351501465,learn,60000.0,Thu Mar 27 2025 11:13:21 GMT-0500 (Central Daylight Time),631458.3000000119,A,h,O,h,686,1,716.8000000119209,630741.5,7106,WL,A,1.0
5,0.8329999446868896,learn,60000.0,Thu Mar 27 2025 11:13:21 GMT-0500 (Central Daylight Time),631574.0,A,ha,O,a,86,1,832.5,630741.5,7106,WL,A,1.0
5,0.9670000076293945,learn,60000.0,Thu Mar 27 2025 11:13:21 GMT-0500 (Central Daylight Time),631707.6999999881,A,har,O,r,103,1,966.1999999880791,630741.5,7106,WL,A,1.0
5,1.1339998245239258,learn,60000.0,Thu Mar 27 2025 11:13:21 GMT-0500 (Central Daylight Time),631874.1999999881,A,harp,O,p,127,1,1132.699999988079,630741.5,7106,WL,A,1.0
5,1.5329999923706055,learn,60000.0,Thu Mar 27 2025 11:13:21 GMT-0500 (Central Daylight Time),632273.0999999642,A,harpenter,O,enter,368,1,1531.5999999642372,630741.5,7106,WL,A,1.0
5,2.4830000400543213,learn,60000.0,Thu Mar 27 2025 11:13:21 GMT-0500 (Central Daylight Time),633223.6999999881,A,b,O,b,933,1,950.3000000119209,632273.3999999762,7106,WL,A,2.0
5,2.6499998569488525,learn,60000.0,Thu Mar 27 2025 11:13:21 GMT-0500 (Central Daylight Time),633390.6999999881,A,bo,O,o,131,1,1117.300000011921,632273.3999999762,7106,WL,A,2.0
5,2.799999952316284,learn,60000.0,Thu Mar 27 2025 11:13:21 GMT-0500 (Central Daylight Time),633540.8000000119,A,boo,O,o,124,1,1267.4000000357628,632273.3999999762,7106,WL,A,2.0
5,2.9159998893737793,learn,60000.0,Thu Mar 27 2025 11:13:21 GMT-0500 (Central Daylight Time),633657.0999999642,A,book,O,k,89,1,1383.699999988079,632273.3999999762,7106,WL,A,2.0
5,3.132999897003174,learn,60000.0,Thu Mar 27 2025 11:13:21 GMT-0500 (Central Daylight Time),633873.6999999881,A,bookenter,O,enter,177,1,1600.300000011921,632273.3999999762,7106,WL,A,2.0
5,3.565999984741211,learn,60000.0,Thu Mar 27 2025 11:13:21 GMT-0500 (Central Daylight Time),634307.0,A,m,O,m,420,1,433.0,633874.0,7106,WL,A,3.0
5,3.6649999618530273,learn,60000.0,Thu Mar 27 2025 11:13:21 GMT-0500 (Central Daylight Time),634405.8000000119,A,me,O,e,71,1,531.8000000119209,633874.0,7106,WL,A,3.0
5,3.7319998741149902,learn,60000.0,Thu Mar 27 2025 11:13:21 GMT-0500 (Central Daylight Time),634472.5,A,mea,O,a,43,1,598.5,633874.0,7106,WL,A,3.0
5,3.9159998893737793,learn,60000.0,Thu Mar 27 2025 11:13:21 GMT-0500 (Central Daylight Time),634656.6999999881,A,mead,O,d,173,1,782.6999999880791,633874.0,7106,WL,A,3.0
5,4.08299994468689,learn,60000.0,Thu Mar 27 2025 11:13:21 GMT-0500 (Central Daylight Time),634823.3999999762,A,meado,O,o,133,1,949.3999999761581,633874.0,7106,WL,A,3.0
5,4.281999826431274,learn,60000.0,Thu Mar 27 2025 11:13:21 GMT-0500 (Central Daylight Time),635023.0999999642,A,meadow,O,w,170,1,1149.0999999642372,633874.0,7106,WL,A,3.0
5,4.632999897003174,learn,60000.0,Thu Mar 27 2025 11:13:21 GMT-0500 (Central Daylight Time),635373.0,A,meadowenter,O,enter,328,1,1499.0,633874.0,7106,WL,A,3.0
5,5.315000057220459,learn,60000.0,Thu Mar 27 2025 11:13:21 GMT-0500 (Central Daylight Time),636055.6999999881,A,r,O,r,665,1,682.3999999761581,635373.3000000119,7106,WL,A,4.0
5,5.448999881744385,learn,60000.0,Thu Mar 27 2025 11:13:21 GMT-0500 (Central Daylight Time),636189.3000000119,A,ru,O,u,115,1,816.0,635373.3000000119,7106,WL,A,4.0
5,5.631999969482422,learn,60000.0,Thu Mar 27 2025 11:13:21 GMT-0500 (Central Daylight Time),636372.8999999762,A,rug,O,g,147,1,999.5999999642372,635373.3000000119,7106,WL,A,4.0
5,5.88100004196167,learn,60000.0,Thu Mar 27 2025 11:13:21 GMT-0500 (Central Daylight Time),636621.6999999881,A,rugenter,O,enter,220,1,1248.3999999761581,635373.3000000119,7106,WL,A,4.0
5,6.248999834060669,learn,60000.0,Thu Mar 27 2025 11:13:21 GMT-0500 (Central Daylight Time),636989.0999999642,A,t,O,t,360,1,367.19999998807907,636621.8999999762,7106,WL,A,5.0
5,6.48199987411499,learn,60000.0,Thu Mar 27 2025 11:13:21 GMT-0500 (Central Daylight Time),637222.5999999642,A,tr,O,r,198,1,600.6999999880791,636621.8999999762,7106,WL,A,5.0
5,6.547999858856201,learn,60000.0,Thu Mar 27 2025 11:13:21 GMT-0500 (Central Daylight Time),637288.0999999642,A,tra,O,a,30,1,666.1999999880791,636621.8999999762,7106,WL,A,5.0
5,6.697999954223633,learn,60000.0,Thu Mar 27 2025 11:13:21 GMT-0500 (Central Daylight Time),637438.8000000119,A,trai,O,i,132,1,816.9000000357628,636621.8999999762,7106,WL,A,5.0
5,6.7809998989105225,learn,60000.0,Thu Mar 27 2025 11:13:21 GMT-0500 (Central Daylight Time),637521.3999999762,A,train,O,n,44,1,899.5,636621.8999999762,7106,WL,A,5.0
5,7.113999843597412,learn,60000.0,Thu Mar 27 2025 11:13:21 GMT-0500 (Central Daylight Time),637854.5999999642,A,trainenter,O,enter,300,1,1232.699999988079,636621.8999999762,7106,WL,A,5.0
5,7.297999858856201,learn,60000.0,Thu Mar 27 2025 11:13:21 GMT-0500 (Central Daylight Time),638038.8999999762,A,f,O,f,174,1,184.0,637854.8999999762,7106,WL,A,6.0
5,7.447999954223633,learn,60000.0,Thu Mar 27 2025 11:13:21 GMT-0500 (Central Daylight Time),638188.8000000119,A,fl,O,l,106,1,333.9000000357628,637854.8999999762,7106,WL,A,6.0
5,7.631999969482422,learn,60000.0,Thu Mar 27 2025 11:13:21 GMT-0500 (Central Daylight Time),638372.0999999642,A,flo,O,o,142,1,517.1999999880791,637854.8999999762,7106,WL,A,6.0
5,7.680999994277954,learn,60000.0,Thu Mar 27 2025 11:13:21 GMT-0500 (Central Daylight Time),638421.8999999762,A,flow,O,w,14,1,567.0,637854.8999999762,7106,WL,A,6.0
5,7.730999946594238,learn,60000.0,Thu Mar 27 2025 11:13:21 GMT-0500 (Central Daylight Time),638471.0,A,flowe,O,e,28,1,616.1000000238419,637854.8999999762,7106,WL,A,6.0
5,7.8480000495910645,learn,60000.0,Thu Mar 27 2025 11:13:21 GMT-0500 (Central Daylight Time),638588.5999999642,A,flower,O,r,102,1,733.6999999880791,637854.8999999762,7106,WL,A,6.0
5,8.063999891281128,learn,60000.0,Thu Mar 27 2025 11:13:21 GMT-0500 (Central Daylight Time),638804.3999999762,A,flowerenter,O,enter,185,1,949.5,637854.8999999762,7106,WL,A,6.0
5,8.247999906539917,learn,60000.0,Thu Mar 27 2025 11:13:21 GMT-0500 (Central Daylight Time),638988.5999999642,A,s,O,s,162,1,183.89999997615814,638804.6999999881,7106,WL,A,7.0
5,8.381999969482422,learn,60000.0,Thu Mar 27 2025 11:13:21 GMT-0500 (Central Daylight Time),639122.0,A,sa,O,a,102,1,317.30000001192093,638804.6999999881,7106,WL,A,7.0
5,8.530999898910522,learn,60000.0,Thu Mar 27 2025 11:13:21 GMT-0500 (Central Daylight Time),639271.8000000119,A,sal,O,l,123,1,467.10000002384186,638804.6999999881,7106,WL,A,7.0
5,8.664999961853027,learn,60000.0,Thu Mar 27 2025 11:13:21 GMT-0500 (Central Daylight Time),639405.0999999642,A,salt,O,t,100,1,600.3999999761581,638804.6999999881,7106,WL,A,7.0
5,8.846999883651733,learn,60000.0,Thu Mar 27 2025 11:13:21 GMT-0500 (Central Daylight Time),639587.3999999762,A,saltenter,O,enter,137,1,782.6999999880791,638804.6999999881,7106,WL,A,7.0
5,9.013999938964844,learn,60000.0,Thu Mar 27 2025 11:13:21 GMT-0500 (Central Daylight Time),639754.3999999762,A,a,O,a,145,1,166.69999998807907,639587.6999999881,7106,WL,A,8.0
5,9.230999946594238,learn,60000.0,Thu Mar 27 2025 11:13:21 GMT-0500 (Central Daylight Time),639971.8000000119,A,ap,O,p,191,1,384.10000002384186,639587.6999999881,7106,WL,A,8.0
5,9.414000034332275,learn,60000.0,Thu Mar 27 2025 11:13:21 GMT-0500 (Central Daylight Time),640155.0,A,app,O,p,141,1,567.3000000119209,639587.6999999881,7106,WL,A,8.0
5,9.613999843597412,learn,60000.0,Thu Mar 27 2025 11:13:21 GMT-0500 (Central Daylight Time),640354.8999999762,A,appl,O,l,160,1,767.1999999880791,639587.6999999881,7106,WL,A,8.0
5,9.71399998664856,learn,60000.0,Thu Mar 27 2025 11:13:21 GMT-0500 (Central Daylight Time),640454.3999999762,A,apple,O,e,76,1,866.6999999880791,639587.6999999881,7106,WL,A,8.0
5,9.86299991607666,learn,60000.0,Thu Mar 27 2025 11:13:21 GMT-0500 (Central Daylight Time),640603.6999999881,A,appleenter,O,enter,116,1,1016.0,639587.6999999881,7106,WL,A,8.0
5,10.013999938964844,learn,60000.0,Thu Mar 27 2025 11:13:21 GMT-0500 (Central Daylight Time),640754.5999999642,A,f,O,f,138,1,150.5999999642372,640604.0,7106,WL,A,9.0
5,10.180999994277954,learn,60000.0,Thu Mar 27 2025 11:13:21 GMT-0500 (Central Daylight Time),640921.1999999881,A,fi,O,i,136,1,317.19999998807907,640604.0,7106,WL,A,9.0
5,10.346999883651733,learn,60000.0,Thu Mar 27 2025 11:13:21 GMT-0500 (Central Daylight Time),641087.8000000119,A,fig,O,g,139,1,483.80000001192093,640604.0,7106,WL,A,9.0
5,10.88100004196167,learn,60000.0,Thu Mar 27 2025 11:13:21 GMT-0500 (Central Daylight Time),641621.5,A,fi,O,backspace,508,1,1017.5,640604.0,7106,WL,A,9.0
5,11.129999876022339,learn,60000.0,Thu Mar 27 2025 11:13:21 GMT-0500 (Central Daylight Time),641870.8999999762,A,fin,O,n,222,1,1266.8999999761581,640604.0,7106,WL,A,9.0
5,11.230000019073486,learn,60000.0,Thu Mar 27 2025 11:13:21 GMT-0500 (Central Daylight Time),641970.5999999642,A,fing,O,g,66,1,1366.5999999642372,640604.0,7106,WL,A,9.0
5,11.363999843597412,learn,60000.0,Thu Mar 27 2025 11:13:21 GMT-0500 (Central Daylight Time),642104.1999999881,A,finge,O,e,104,1,1500.199999988079,640604.0,7106,WL,A,9.0
5,11.44599986076355,learn,60000.0,Thu Mar 27 2025 11:13:21 GMT-0500 (Central Daylight Time),642186.8999999762,A,finger,O,r,50,1,1582.8999999761581,640604.0,7106,WL,A,9.0
5,11.645999908447266,learn,60000.0,Thu Mar 27 2025 11:13:21 GMT-0500 (Central Daylight Time),642386.5,A,fingerenter,O,enter,178,1,1782.5,640604.0,7106,WL,A,9.0
5,12.146999835968018,learn,60000.0,Thu Mar 27 2025 11:13:21 GMT-0500 (Central Daylight Time),642887.3000000119,A,g,O,g,484,1,500.5,642386.8000000119,7106,WL,A,10.0
5,12.246999979019165,learn,60000.0,Thu Mar 27 2025 11:13:21 GMT-0500 (Central Daylight Time),642987.1999999881,A,go,O,o,68,1,600.3999999761581,642386.8000000119,7106,WL,A,10.0
5,12.44700002670288,learn,60000.0,Thu Mar 27 2025 11:13:21 GMT-0500 (Central Daylight Time),643187.1999999881,A,gol,O,l,159,1,800.3999999761581,642386.8000000119,7106,WL,A,10.0
5,12.529000043869019,learn,60000.0,Thu Mar 27 2025 11:13:21 GMT-0500 (Central Daylight Time),643269.8000000119,A,gold,O,d,57,1,883.0,642386.8000000119,7106,WL,A,10.0
5,12.678999900817871,learn,60000.0,Thu Mar 27 2025 11:13:21 GMT-0500 (Central Daylight Time),643419.3000000119,A,goldenter,O,enter,133,1,1032.5,642386.8000000119,7106,WL,A,10.0
5,12.912999868392944,learn,60000.0,Thu Mar 27 2025 11:13:21 GMT-0500 (Central Daylight Time),643653.3999999762,A,r,O,r,227,1,233.89999997615814,643419.5,7106,WL,A,11.0
5,13.128999948501587,learn,60000.0,Thu Mar 27 2025 11:13:21 GMT-0500 (Central Daylight Time),643870.0999999642,A,ra,O,a,191,1,450.5999999642372,643419.5,7106,WL,A,11.0
5,13.296000003814697,learn,60000.0,Thu Mar 27 2025 11:13:21 GMT-0500 (Central Daylight Time),644036.8000000119,A,rat,O,t,132,1,617.3000000119209,643419.5,7106,WL,A,11.0
5,13.44599986076355,learn,60000.0,Thu Mar 27 2025 11:13:21 GMT-0500 (Central Daylight Time),644187.0,A,ratt,O,t,117,1,767.5,643419.5,7106,WL,A,11.0
5,13.645999908447266,learn,60000.0,Thu Mar 27 2025 11:13:21 GMT-0500 (Central Daylight Time),644386.5999999642,A,rattl,O,l,160,1,967.0999999642372,643419.5,7106,WL,A,11.0
5,13.796000003814697,learn,60000.0,Thu Mar 27 2025 11:13:21 GMT-0500 (Central Daylight Time),644536.8999999762,A,rattle,O,e,111,1,1117.3999999761581,643419.5,7106,WL,A,11.0
5,14.694999933242798,learn,60000.0,Thu Mar 27 2025 11:13:21 GMT-0500 (Central Daylight Time),645435.5,A,rattleenter,O,enter,864,1,2016.0,643419.5,7106,WL,A,11.0
5,14.934999942779541,learn,60000.0,Thu Mar 27 2025 11:13:21 GMT-0500 (Central Daylight Time),645676.0,A,l,O,l,218,1,240.30000001192093,645435.6999999881,7106,WL,A,12.0
5,15.11299991607666,learn,60000.0,Thu Mar 27 2025 11:13:21 GMT-0500 (Central Daylight Time),645853.3000000119,A,lo,O,o,148,1,417.60000002384186,645435.6999999881,7106,WL,A,12.0
5,15.227999925613403,learn,60000.0,Thu Mar 27 2025 11:13:21 GMT-0500 (Central Daylight Time),645969.0,A,log,O,g,75,1,533.3000000119209,645435.6999999881,7106,WL,A,12.0
5,16.477999925613403,learn,60000.0,Thu Mar 27 2025 11:13:21 GMT-0500 (Central Daylight Time),647218.3999999762,A,logenter,O,enter,1221,1,1782.699999988079,645435.6999999881,7106,WL,A,12.0
5,16.711999893188477,learn,60000.0,Thu Mar 27 2025 11:13:21 GMT-0500 (Central Daylight Time),647452.3999999762,A,c,O,c,212,1,233.80000001192093,647218.5999999642,7106,WL,A,13.0
5,16.777999877929688,learn,60000.0,Thu Mar 27 2025 11:13:21 GMT-0500 (Central Daylight Time),647518.1999999881,A,ch,O,h,30,1,299.60000002384186,647218.5999999642,7106,WL,A,13.0
5,16.861999988555908,learn,60000.0,Thu Mar 27 2025 11:13:21 GMT-0500 (Central Daylight Time),647602.1999999881,A,chi,O,i,61,1,383.60000002384186,647218.5999999642,7106,WL,A,13.0
5,17.044999837875366,learn,60000.0,Thu Mar 27 2025 11:13:21 GMT-0500 (Central Daylight Time),647785.5,A,chim,O,m,146,1,566.9000000357628,647218.5999999642,7106,WL,A,13.0
5,17.26199984550476,learn,60000.0,Thu Mar 27 2025 11:13:21 GMT-0500 (Central Daylight Time),648002.3000000119,A,chimn,O,n,178,1,783.7000000476837,647218.5999999642,7106,WL,A,13.0
5,17.394999980926514,learn,60000.0,Thu Mar 27 2025 11:13:21 GMT-0500 (Central Daylight Time),648135.5999999642,A,chimne,O,e,98,1,917.0,647218.5999999642,7106,WL,A,13.0
5,17.51199984550476,learn,60000.0,Thu Mar 27 2025 11:13:21 GMT-0500 (Central Daylight Time),648252.1999999881,A,chimney,O,y,83,1,1033.6000000238419,647218.5999999642,7106,WL,A,13.0
5,17.810999870300293,learn,60000.0,Thu Mar 27 2025 11:13:21 GMT-0500 (Central Daylight Time),648551.0999999642,A,chimneyenter,O,enter,270,1,1332.5,647218.5999999642,7106,WL,A,13.0
5,26.675999879837036,learn,60000.0,Thu Mar 27 2025 11:13:21 GMT-0500 (Central Daylight Time),657415.5,A,l,O,l,8855,1,8864.199999988079,648551.3000000119,7106,WL,A,14.0
5,26.876999855041504,learn,60000.0,Thu Mar 27 2025 11:13:21 GMT-0500 (Central Daylight Time),657615.6999999881,A,lo,O,o,170,1,9064.399999976158,648551.3000000119,7106,WL,A,14.0
5,26.95899987220764,learn,60000.0,Thu Mar 27 2025 11:13:21 GMT-0500 (Central Daylight Time),657698.3999999762,A,log,O,g,43,1,9147.099999964237,648551.3000000119,7106,WL,A,14.0
5,27.325000047683716,learn,60000.0,Thu Mar 27 2025 11:13:21 GMT-0500 (Central Daylight Time),658064.6999999881,A,logenter,O,enter,345,1,9513.399999976158,648551.3000000119,7106,WL,A,14.0
5,30.274999856948853,learn,60000.0,Thu Mar 27 2025 11:13:21 GMT-0500 (Central Daylight Time),661014.5,A,r,O,r,2941,1,2949.600000023842,658064.8999999762,7106,WL,A,15.0
5,30.441999912261963,learn,60000.0,Thu Mar 27 2025 11:13:21 GMT-0500 (Central Daylight Time),661181.3999999762,A,ra,O,a,124,1,3116.5,658064.8999999762,7106,WL,A,15.0
5,30.608999967575073,learn,60000.0,Thu Mar 27 2025 11:13:21 GMT-0500 (Central Daylight Time),661348.0999999642,A,rat,O,t,126,1,3283.199999988079,658064.8999999762,7106,WL,A,15.0
5,30.79200005531311,learn,60000.0,Thu Mar 27 2025 11:13:21 GMT-0500 (Central Daylight Time),661531.0999999642,A,ratt,O,t,142,1,3466.199999988079,658064.8999999762,7106,WL,A,15.0
5,30.924999952316284,learn,60000.0,Thu Mar 27 2025 11:13:21 GMT-0500 (Central Daylight Time),661664.1999999881,A,rattl,O,l,96,1,3599.300000011921,658064.8999999762,7106,WL,A,15.0
5,31.024999856948853,learn,60000.0,Thu Mar 27 2025 11:13:21 GMT-0500 (Central Daylight Time),661763.8000000119,A,rattle,O,e,66,1,3698.900000035763,658064.8999999762,7106,WL,A,15.0
5,31.207000017166138,learn,60000.0,Thu Mar 27 2025 11:13:21 GMT-0500 (Central Daylight Time),661946.5999999642,A,rattleenter,O,enter,153,1,3881.699999988079,658064.8999999762,7106,WL,A,15.0
6,0.8340001106262207,distr,59165.99988937378,Thu Mar 27 2025 11:13:21 GMT-0500 (Central Daylight Time),741471.8999999762,B,m,O,m,806,1,833.1999999880791,740638.6999999881,7106,WL,A,1.0
6,0.9500000476837158,distr,59049.999952316284,Thu Mar 27 2025 11:13:21 GMT-0500 (Central Daylight Time),741588.3000000119,B,me,O,e,74,1,949.6000000238419,740638.6999999881,7106,WL,A,1.0
6,0.999000072479248,distr,59000.99992752075,Thu Mar 27 2025 11:13:21 GMT-0500 (Central Daylight Time),741637.1999999881,B,mea,O,a,21,1,998.5,740638.6999999881,7106,WL,A,1.0
6,1.1670000553131104,distr,58832.99994468689,Thu Mar 27 2025 11:13:21 GMT-0500 (Central Daylight Time),741804.8000000119,B,meal,O,l,146,1,1166.1000000238419,740638.6999999881,7106,WL,A,1.0
6,1.4160001277923584,distr,58583.99987220764,Thu Mar 27 2025 11:13:21 GMT-0500 (Central Daylight Time),742053.5999999642,B,mealenter,O,enter,220,1,1414.8999999761581,740638.6999999881,7106,WL,A,1.0
6,1.7170000076293945,distr,58282.999992370605,Thu Mar 27 2025 11:13:21 GMT-0500 (Central Daylight Time),742354.5999999642,B,c,O,c,280,1,300.69999998807907,742053.8999999762,7106,WL,A,2.0
6,1.8670001029968262,distr,58132.999897003174,Thu Mar 27 2025 11:13:21 GMT-0500 (Central Daylight Time),742504.5,B,co,O,o,123,1,450.60000002384186,742053.8999999762,7106,WL,A,2.0
6,2.133000135421753,distr,57866.99986457825,Thu Mar 27 2025 11:13:21 GMT-0500 (Central Daylight Time),742771.0999999642,B,coa,O,a,237,1,717.1999999880791,742053.8999999762,7106,WL,A,2.0
6,2.2829999923706055,distr,57717.000007629395,Thu Mar 27 2025 11:13:21 GMT-0500 (Central Daylight Time),742921.1999999881,B,coat,O,t,112,1,867.3000000119209,742053.8999999762,7106,WL,A,2.0
6,2.5820000171661377,distr,57417.99998283386,Thu Mar 27 2025 11:13:21 GMT-0500 (Central Daylight Time),743219.8000000119,B,coatenter,O,enter,273,1,1165.9000000357628,742053.8999999762,7106,WL,A,2.0
6,3.0160000324249268,distr,56983.99996757507,Thu Mar 27 2025 11:13:21 GMT-0500 (Central Daylight Time),743653.6999999881,B,b,O,b,426,1,433.60000002384186,743220.0999999642,7106,WL,A,3.0
6,3.133000135421753,distr,56866.99986457825,Thu Mar 27 2025 11:13:21 GMT-0500 (Central Daylight Time),743770.8000000119,B,bo,O,o,85,1,550.7000000476837,743220.0999999642,7106,WL,A,3.0
6,3.3330001831054688,distr,56666.99981689453,Thu Mar 27 2025 11:13:21 GMT-0500 (Central Daylight Time),743970.6999999881,B,bot,O,t,165,1,750.6000000238419,743220.0999999642,7106,WL,A,3.0
6,3.4830000400543213,distr,56516.99995994568,Thu Mar 27 2025 11:13:21 GMT-0500 (Central Daylight Time),744120.6999999881,B,bott,O,t,113,1,900.6000000238419,743220.0999999642,7106,WL,A,3.0
6,3.5989999771118164,distr,56401.00002288818,Thu Mar 27 2025 11:13:21 GMT-0500 (Central Daylight Time),744237.1999999881,B,bottl,O,l,81,1,1017.1000000238419,743220.0999999642,7106,WL,A,3.0
6,3.699000120162964,distr,56300.999879837036,Thu Mar 27 2025 11:13:21 GMT-0500 (Central Daylight Time),744336.6999999881,B,bottle,O,e,69,1,1116.6000000238419,743220.0999999642,7106,WL,A,3.0
6,3.8320000171661377,distr,56167.99998283386,Thu Mar 27 2025 11:13:21 GMT-0500 (Central Daylight Time),744469.5999999642,B,bottleenter,O,enter,111,1,1249.5,743220.0999999642,7106,WL,A,3.0
6,4.182000160217285,distr,55817.999839782715,Thu Mar 27 2025 11:13:21 GMT-0500 (Central Daylight Time),744820.3999999762,B,p,O,p,336,1,350.5999999642372,744469.8000000119,7106,WL,A,4.0
6,4.242000102996826,distr,55757.999897003174,Thu Mar 27 2025 11:13:21 GMT-0500 (Central Daylight Time),744880.5,B,pe,O,e,30,1,410.69999998807907,744469.8000000119,7106,WL,A,4.0
6,4.29800009727478,distr,55701.99990272522,Thu Mar 27 2025 11:13:21 GMT-0500 (Central Daylight Time),744936.0999999642,B,pea,O,a,34,1,466.2999999523163,744469.8000000119,7106,WL,A,4.0
6,4.549000024795532,distr,55450.99997520447,Thu Mar 27 2025 11:13:21 GMT-0500 (Central Daylight Time),745186.8999999762,B,peac,O,c,235,1,717.0999999642372,744469.8000000119,7106,WL,A,4.0
6,4.682000160217285,distr,55317.999839782715,Thu Mar 27 2025 11:13:21 GMT-0500 (Central Daylight Time),745320.3000000119,B,peach,O,h,105,1,850.5,744469.8000000119,7106,WL,A,4.0
6,6.031000137329102,distr,53968.9998626709,Thu Mar 27 2025 11:13:21 GMT-0500 (Central Daylight Time),746668.8000000119,B,peachenter,O,enter,1321,1,2199.0,744469.8000000119,7106,WL,A,4.0
6,8.180999994277954,distr,51819.000005722046,Thu Mar 27 2025 11:13:21 GMT-0500 (Central Daylight Time),748819.1999999881,B,b,O,b,2136,1,2150.100000023842,746669.0999999642,7106,WL,A,5.0
6,8.314000129699707,distr,51685.99987030029,Thu Mar 27 2025 11:13:21 GMT-0500 (Central Daylight Time),748951.8999999762,B,bo,O,o,95,1,2282.800000011921,746669.0999999642,7106,WL,A,5.0
6,8.598000049591064,distr,51401.999950408936,Thu Mar 27 2025 11:13:21 GMT-0500 (Central Daylight Time),749235.5,B,bow,O,w,254,1,2566.400000035763,746669.0999999642,7106,WL,A,5.0
6,8.71399998664856,distr,51286.00001335144,Thu Mar 27 2025 11:13:21 GMT-0500 (Central Daylight Time),749351.5999999642,B,bowl,O,l,87,1,2682.5,746669.0999999642,7106,WL,A,5.0
6,9.230000019073486,distr,50769.999980926514,Thu Mar 27 2025 11:13:21 GMT-0500 (Central Daylight Time),749867.8999999762,B,bowlenter,O,enter,496,1,3198.800000011921,746669.0999999642,7106,WL,A,5.0
6,30.27400016784668,distr,29725.99983215332,Thu Mar 27 2025 11:13:21 GMT-0500 (Central Daylight Time),770911.8000000119,B,m,O,m,21035,1,21043.700000047684,749868.0999999642,7106,WL,A,6.0
6,30.391000032424927,distr,29608.999967575073,Thu Mar 27 2025 11:13:21 GMT-0500 (Central Daylight Time),771029.0999999642,B,me,O,e,91,1,21161.0,749868.0999999642,7106,WL,A,6.0
6,30.420000076293945,distr,29579.999923706055,Thu Mar 27 2025 11:13:21 GMT-0500 (Central Daylight Time),771058.3000000119,B,mea,O,a,2,1,21190.200000047684,749868.0999999642,7106,WL,A,6.0
6,30.540000200271606,distr,29459.999799728394,Thu Mar 27 2025 11:13:21 GMT-0500 (Central Daylight Time),771178.0999999642,B,meal,O,l,100,1,21310.0,749868.0999999642,7106,WL,A,6.0
6,31.33899998664856,distr,28661.00001335144,Thu Mar 27 2025 11:13:21 GMT-0500 (Central Daylight Time),771977.1999999881,B,mealenter,O,enter,762,1,22109.100000023842,749868.0999999642,7106,WL,A,6.0
6,60.01600003242493,distr,-16.000032424926758,Thu Mar 27 2025 11:13:21 GMT-0500 (Central Daylight Time),800652.3000000119,B,None,O,None,28669,1,28674.80000001192,771977.5,7106,WL,A,7.0
7,0.7160000801086426,immed,59283.99991989136,Thu Mar 27 2025 11:13:21 GMT-0500 (Central Daylight Time),818696.1999999881,A,m,O,m,679,1,714.6999999880791,817981.5,7106,WL,A,1.0
7,0.8489999771118164,immed,59151.00002288818,Thu Mar 27 2025 11:13:21 GMT-0500 (Central Daylight Time),818829.5999999642,A,me,O,e,98,1,848.0999999642372,817981.5,7106,WL,A,1.0
7,0.9649999141693115,immed,59035.00008583069,Thu Mar 27 2025 11:13:21 GMT-0500 (Central Daylight Time),818945.8000000119,A,mea,O,a,89,1,964.3000000119209,817981.5,7106,WL,A,1.0
7,1.1989998817443848,immed,58801.000118255615,Thu Mar 27 2025 11:13:21 GMT-0500 (Central Daylight Time),819179.5,A,mead,O,d,206,1,1198.0,817981.5,7106,WL,A,1.0
7,1.3819999694824219,immed,58618.00003051758,Thu Mar 27 2025 11:13:21 GMT-0500 (Central Daylight Time),819362.6999999881,A,meado,O,o,152,1,1381.199999988079,817981.5,7106,WL,A,1.0
7,1.5149998664855957,immed,58485.000133514404,Thu Mar 27 2025 11:13:21 GMT-0500 (Central Daylight Time),819495.5999999642,A,meadow,O,w,105,1,1514.0999999642372,817981.5,7106,WL,A,1.0
7,1.7980000972747803,immed,58201.99990272522,Thu Mar 27 2025 11:13:21 GMT-0500 (Central Daylight Time),819778.3000000119,A,meadowenter,O,enter,247,1,1796.800000011921,817981.5,7106,WL,A,1.0
7,2.747999906539917,immed,57252.00009346008,Thu Mar 27 2025 11:13:21 GMT-0500 (Central Daylight Time),820728.6999999881,A,r,O,r,940,1,950.1999999880791,819778.5,7106,WL,A,2.0
7,2.88100004196167,immed,57118.99995803833,Thu Mar 27 2025 11:13:21 GMT-0500 (Central Daylight Time),820862.0999999642,A,ru,O,u,99,1,1083.5999999642372,819778.5,7106,WL,A,2.0
7,3.065000057220459,immed,56934.99994277954,Thu Mar 27 2025 11:13:21 GMT-0500 (Central Daylight Time),821045.5999999642,A,rug,O,g,151,1,1267.0999999642372,819778.5,7106,WL,A,2.0
7,3.2639999389648438,immed,56736.000061035156,Thu Mar 27 2025 11:13:21 GMT-0500 (Central Daylight Time),821244.3000000119,A,rugenter,O,enter,167,1,1465.800000011921,819778.5,7106,WL,A,2.0
7,3.447999954223633,immed,56552.00004577637,Thu Mar 27 2025 11:13:21 GMT-0500 (Central Daylight Time),821428.8999999762,A,t,O,t,178,1,184.30000001192093,821244.5999999642,7106,WL,A,3.0
7,3.6649999618530273,immed,56335.00003814697,Thu Mar 27 2025 11:13:21 GMT-0500 (Central Daylight Time),821645.1999999881,A,tr,O,r,183,1,400.60000002384186,821244.5999999642,7106,WL,A,3.0
7,3.7300000190734863,immed,56269.999980926514,Thu Mar 27 2025 11:13:21 GMT-0500 (Central Daylight Time),821710.8999999762,A,tra,O,a,31,1,466.30000001192093,821244.5999999642,7106,WL,A,3.0
7,3.88100004196167,immed,56118.99995803833,Thu Mar 27 2025 11:13:21 GMT-0500 (Central Daylight Time),821861.5,A,trai,O,i,134,1,616.9000000357628,821244.5999999642,7106,WL,A,3.0
7,3.947999954223633,immed,56052.00004577637,Thu Mar 27 2025 11:13:21 GMT-0500 (Central Daylight Time),821928.1999999881,A,train,O,n,31,1,683.6000000238419,821244.5999999642,7106,WL,A,3.0
7,4.329999923706055,immed,55670.000076293945,Thu Mar 27 2025 11:13:21 GMT-0500 (Central Daylight Time),822310.5,A,trainenter,O,enter,368,1,1065.9000000357628,821244.5999999642,7106,WL,A,3.0
7,4.61299991607666,immed,55387.00008392334,Thu Mar 27 2025 11:13:21 GMT-0500 (Central Daylight Time),822593.8999999762,A,g,O,g,270,1,283.19999998807907,822310.6999999881,7106,WL,A,4.0
7,4.696000099182129,immed,55303.99990081787,Thu Mar 27 2025 11:13:21 GMT-0500 (Central Daylight Time),822677.0,A,go,O,o,74,1,366.30000001192093,822310.6999999881,7106,WL,A,4.0
7,4.895999908447266,immed,55104.000091552734,Thu Mar 27 2025 11:13:21 GMT-0500 (Central Daylight Time),822877.0999999642,A,gol,O,l,183,1,566.3999999761581,822310.6999999881,7106,WL,A,4.0
7,4.996000051498413,immed,55003.99994850159,Thu Mar 27 2025 11:13:21 GMT-0500 (Central Daylight Time),822977.0999999642,A,gold,O,d,88,1,666.3999999761581,822310.6999999881,7106,WL,A,4.0
7,5.2799999713897705,immed,54720.00002861023,Thu Mar 27 2025 11:13:21 GMT-0500 (Central Daylight Time),823260.1999999881,A,goldenter,O,enter,276,1,949.5,822310.6999999881,7106,WL,A,4.0
7,5.813999891281128,immed,54186.00010871887,Thu Mar 27 2025 11:13:21 GMT-0500 (Central Daylight Time),823794.3999999762,A,r,O,r,522,1,533.8999999761581,823260.5,7106,WL,A,5.0
7,5.96399998664856,immed,54036.00001335144,Thu Mar 27 2025 11:13:21 GMT-0500 (Central Daylight Time),823944.3000000119,A,ra,O,a,121,1,683.8000000119209,823260.5,7106,WL,A,5.0
7,6.147000074386597,immed,53852.9999256134,Thu Mar 27 2025 11:13:21 GMT-0500 (Central Daylight Time),824127.3000000119,A,rat,O,t,169,1,866.8000000119209,823260.5,7106,WL,A,5.0
7,6.329999923706055,immed,53670.000076293945,Thu Mar 27 2025 11:13:21 GMT-0500 (Central Daylight Time),824310.8999999762,A,ratt,O,t,148,1,1050.3999999761581,823260.5,7106,WL,A,5.0
7,6.496999979019165,immed,53503.000020980835,Thu Mar 27 2025 11:13:21 GMT-0500 (Central Daylight Time),824477.8000000119,A,rattl,O,l,140,1,1217.300000011921,823260.5,7106,WL,A,5.0
7,6.628999948501587,immed,53371.00005149841,Thu Mar 27 2025 11:13:21 GMT-0500 (Central Daylight Time),824610.0999999642,A,rattle,O,e,93,1,1349.5999999642372,823260.5,7106,WL,A,5.0
7,7.0290000438690186,immed,52970.99995613098,Thu Mar 27 2025 11:13:21 GMT-0500 (Central Daylight Time),825009.8000000119,A,rattleenter,O,enter,371,1,1749.300000011921,823260.5,7106,WL,A,5.0
7,7.2809998989105225,immed,52719.00010108948,Thu Mar 27 2025 11:13:21 GMT-0500 (Central Daylight Time),825261.5,A,l,O,l,244,1,251.4000000357628,825010.0999999642,7106,WL,A,6.0
7,7.480000019073486,immed,52519.999980926514,Thu Mar 27 2025 11:13:21 GMT-0500 (Central Daylight Time),825460.8999999762,A,lo,O,o,155,1,450.80000001192093,825010.0999999642,7106,WL,A,6.0
7,7.5959999561309814,immed,52404.00004386902,Thu Mar 27 2025 11:13:21 GMT-0500 (Central Daylight Time),825576.8000000119,A,log,O,g,75,1,566.7000000476837,825010.0999999642,7106,WL,A,6.0
7,7.911999940872192,immed,52088.00005912781,Thu Mar 27 2025 11:13:21 GMT-0500 (Central Daylight Time),825892.6999999881,A,logenter,O,enter,299,1,882.6000000238419,825010.0999999642,7106,WL,A,6.0
7,8.312999963760376,immed,51687.000036239624,Thu Mar 27 2025 11:13:21 GMT-0500 (Central Daylight Time),826293.5999999642,A,r,O,r,385,1,400.5,825893.0999999642,7106,WL,A,7.0
7,8.463000059127808,immed,51536.99994087219,Thu Mar 27 2025 11:13:21 GMT-0500 (Central Daylight Time),826443.1999999881,A,ru,O,u,109,1,550.1000000238419,825893.0999999642,7106,WL,A,7.0
7,8.680000066757202,immed,51319.9999332428,Thu Mar 27 2025 11:13:21 GMT-0500 (Central Daylight Time),826660.1999999881,A,rug,O,g,192,1,767.1000000238419,825893.0999999642,7106,WL,A,7.0
7,8.911999940872192,immed,51088.00005912781,Thu Mar 27 2025 11:13:21 GMT-0500 (Central Daylight Time),826892.5,A,rugenter,O,enter,202,1,999.4000000357628,825893.0999999642,7106,WL,A,7.0
7,9.378999948501587,immed,50621.00005149841,Thu Mar 27 2025 11:13:21 GMT-0500 (Central Daylight Time),827360.0,A,s,O,s,450,1,467.30000001192093,826892.6999999881,7106,WL,A,8.0
7,9.546000003814697,immed,50453.9999961853,Thu Mar 27 2025 11:13:21 GMT-0500 (Central Daylight Time),827526.3999999762,A,sa,O,a,139,1,633.6999999880791,826892.6999999881,7106,WL,A,8.0
7,9.696000099182129,immed,50303.99990081787,Thu Mar 27 2025 11:13:21 GMT-0500 (Central Daylight Time),827676.3000000119,A,sal,O,l,122,1,783.6000000238419,826892.6999999881,7106,WL,A,8.0
7,9.828999996185303,immed,50171.0000038147,Thu Mar 27 2025 11:13:21 GMT-0500 (Central Daylight Time),827809.8999999762,A,salt,O,t,98,1,917.1999999880791,826892.6999999881,7106,WL,A,8.0
7,10.062000036239624,immed,49937.999963760376,Thu Mar 27 2025 11:13:21 GMT-0500 (Central Daylight Time),828042.3000000119,A,saltenter,O,enter,192,1,1149.6000000238419,826892.6999999881,7106,WL,A,8.0
7,10.328999996185303,immed,49671.0000038147,Thu Mar 27 2025 11:13:21 GMT-0500 (Central Daylight Time),828309.6999999881,A,f,O,f,259,1,267.10000002384186,828042.5999999642,7106,WL,A,9.0
7,10.461999893188477,immed,49538.00010681152,Thu Mar 27 2025 11:13:21 GMT-0500 (Central Daylight Time),828443.0,A,fi,O,i,107,1,400.4000000357628,828042.5999999642,7106,WL,A,9.0
7,10.545000076293945,immed,49454.999923706055,Thu Mar 27 2025 11:13:21 GMT-0500 (Central Daylight Time),828525.3000000119,A,fin,O,n,54,1,482.7000000476837,828042.5999999642,7106,WL,A,9.0
7,10.611999988555908,immed,49388.00001144409,Thu Mar 27 2025 11:13:21 GMT-0500 (Central Daylight Time),828592.3000000119,A,fing,O,g,46,1,549.7000000476837,828042.5999999642,7106,WL,A,9.0
7,10.710999965667725,immed,49289.000034332275,Thu Mar 27 2025 11:13:21 GMT-0500 (Central Daylight Time),828691.6999999881,A,finge,O,e,76,1,649.1000000238419,828042.5999999642,7106,WL,A,9.0
7,10.828999996185303,immed,49171.0000038147,Thu Mar 27 2025 11:13:21 GMT-0500 (Central Daylight Time),828809.3999999762,A,finger,O,r,105,1,766.8000000119209,828042.5999999642,7106,WL,A,9.0
7,11.16100001335144,immed,48838.99998664856,Thu Mar 27 2025 11:13:21 GMT-0500 (Central Daylight Time),829141.8000000119,A,fingerenter,O,enter,297,1,1099.2000000476837,828042.5999999642,7106,WL,A,9.0
7,11.513000011444092,immed,48486.99998855591,Thu Mar 27 2025 11:13:21 GMT-0500 (Central Daylight Time),829493.3000000119,A,a,O,a,344,1,351.2000000476837,829142.0999999642,7106,WL,A,10.0
7,11.611000061035156,immed,48388.999938964844,Thu Mar 27 2025 11:13:21 GMT-0500 (Central Daylight Time),829591.6999999881,A,ap,O,p,80,1,449.60000002384186,829142.0999999642,7106,WL,A,10.0
7,11.795000076293945,immed,48204.999923706055,Thu Mar 27 2025 11:13:21 GMT-0500 (Central Daylight Time),829775.8000000119,A,app,O,p,172,1,633.7000000476837,829142.0999999642,7106,WL,A,10.0
7,12.01200008392334,immed,47987.99991607666,Thu Mar 27 2025 11:13:21 GMT-0500 (Central Daylight Time),829992.1999999881,A,appl,O,l,190,1,850.1000000238419,829142.0999999642,7106,WL,A,10.0
7,12.128000020980835,immed,47871.999979019165,Thu Mar 27 2025 11:13:21 GMT-0500 (Central Daylight Time),830108.3999999762,A,apple,O,e,86,1,966.3000000119209,829142.0999999642,7106,WL,A,10.0
7,12.260999917984009,immed,47739.00008201599,Thu Mar 27 2025 11:13:21 GMT-0500 (Central Daylight Time),830241.3999999762,A,appleenter,O,enter,115,1,1099.300000011921,829142.0999999642,7106,WL,A,10.0
7,12.41100001335144,immed,47588.99998664856,Thu Mar 27 2025 11:13:21 GMT-0500 (Central Daylight Time),830391.5,A,c,O,c,140,1,149.80000001192093,830241.6999999881,7106,WL,A,11.0
7,13.111999988555908,immed,46888.00001144409,Thu Mar 27 2025 11:13:21 GMT-0500 (Central Daylight Time),831092.3000000119,A,ch,O,h,679,1,850.6000000238419,830241.6999999881,7106,WL,A,11.0
7,13.26200008392334,immed,46737.99991607666,Thu Mar 27 2025 11:13:21 GMT-0500 (Central Daylight Time),831242.1999999881,A,chi,O,i,110,1,1000.5,830241.6999999881,7106,WL,A,11.0
7,13.42799997329712,immed,46572.00002670288,Thu Mar 27 2025 11:13:21 GMT-0500 (Central Daylight Time),831408.3000000119,A,chim,O,m,138,1,1166.6000000238419,830241.6999999881,7106,WL,A,11.0
7,13.777999877929688,immed,46222.00012207031,Thu Mar 27 2025 11:13:21 GMT-0500 (Central Daylight Time),831758.5,A,chimn,O,n,323,1,1516.800000011921,830241.6999999881,7106,WL,A,11.0
7,13.894999980926514,immed,46105.000019073486,Thu Mar 27 2025 11:13:21 GMT-0500 (Central Daylight Time),831875.1999999881,A,chimne,O,e,81,1,1633.5,830241.6999999881,7106,WL,A,11.0
7,14.010999917984009,immed,45989.00008201599,Thu Mar 27 2025 11:13:21 GMT-0500 (Central Daylight Time),831991.1999999881,A,chimney,O,y,88,1,1749.5,830241.6999999881,7106,WL,A,11.0
7,14.276999950408936,immed,45723.000049591064,Thu Mar 27 2025 11:13:21 GMT-0500 (Central Daylight Time),832257.3999999762,A,chimneyenter,O,enter,237,1,2015.699999988079,830241.6999999881,7106,WL,A,11.0
7,14.526999950408936,immed,45473.000049591064,Thu Mar 27 2025 11:13:21 GMT-0500 (Central Daylight Time),832508.0,A,r,O,r,236,1,250.30000001192093,832257.6999999881,7106,WL,A,12.0
7,14.694999933242798,immed,45305.0000667572,Thu Mar 27 2025 11:13:21 GMT-0500 (Central Daylight Time),832675.0999999642,A,ra,O,a,137,1,417.39999997615814,832257.6999999881,7106,WL,A,12.0
7,14.82800006866455,immed,45171.99993133545,Thu Mar 27 2025 11:13:21 GMT-0500 (Central Daylight Time),832808.1999999881,A,rat,O,t,96,1,550.5,832257.6999999881,7106,WL,A,12.0
7,15.026000022888184,immed,44973.99997711182,Thu Mar 27 2025 11:13:21 GMT-0500 (Central Daylight Time),833007.0,A,ratt,O,t,169,1,749.3000000119209,832257.6999999881,7106,WL,A,12.0
7,15.175999879837036,immed,44824.000120162964,Thu Mar 27 2025 11:13:21 GMT-0500 (Central Daylight Time),833157.0,A,rattl,O,l,133,1,899.3000000119209,832257.6999999881,7106,WL,A,12.0
7,15.276999950408936,immed,44723.000049591064,Thu Mar 27 2025 11:13:21 GMT-0500 (Central Daylight Time),833257.5,A,rattle,O,e,79,1,999.8000000119209,832257.6999999881,7106,WL,A,12.0
7,15.559999942779541,immed,44440.00005722046,Thu Mar 27 2025 11:13:21 GMT-0500 (Central Daylight Time),833540.1999999881,A,rattleenter,O,enter,267,1,1282.5,832257.6999999881,7106,WL,A,12.0
7,19.57699990272522,immed,40423.00009727478,Thu Mar 27 2025 11:13:21 GMT-0500 (Central Daylight Time),837556.5999999642,A,b,O,b,3994,1,4016.099999964237,833540.5,7106,WL,A,13.0
7,20.109999895095825,immed,39890.000104904175,Thu Mar 27 2025 11:13:21 GMT-0500 (Central Daylight Time),838089.8000000119,A,bo,O,o,494,1,4549.300000011921,833540.5,7106,WL,A,13.0
7,20.293999910354614,immed,39706.000089645386,Thu Mar 27 2025 11:13:21 GMT-0500 (Central Daylight Time),838273.0,A,boo,O,o,152,1,4732.5,833540.5,7106,WL,A,13.0
7,21.193000078201294,immed,38806.999921798706,Thu Mar 27 2025 11:13:21 GMT-0500 (Central Daylight Time),839172.8000000119,A,book,O,k,866,1,5632.300000011921,833540.5,7106,WL,A,13.0
7,21.575999975204468,immed,38424.00002479553,Thu Mar 27 2025 11:13:21 GMT-0500 (Central Daylight Time),839555.1999999881,A,bookenter,O,enter,358,1,6014.699999988079,833540.5,7106,WL,A,13.0
7,30.874000072479248,immed,29125.999927520752,Thu Mar 27 2025 11:13:21 GMT-0500 (Central Daylight Time),848853.3000000119,A,h,O,h,9276,1,9297.800000011921,839555.5,7106,WL,A,14.0
7,30.973000049591064,immed,29026.999950408936,Thu Mar 27 2025 11:13:21 GMT-0500 (Central Daylight Time),848952.3000000119,A,ha,O,a,62,1,9396.800000011921,839555.5,7106,WL,A,14.0
7,31.08899998664856,immed,28911.00001335144,Thu Mar 27 2025 11:13:21 GMT-0500 (Central Daylight Time),849068.5999999642,A,har,O,r,101,1,9513.099999964237,839555.5,7106,WL,A,14.0
7,31.207000017166138,immed,28792.999982833862,Thu Mar 27 2025 11:13:21 GMT-0500 (Central Daylight Time),849186.5999999642,A,harp,O,p,97,1,9631.099999964237,839555.5,7106,WL,A,14.0
7,31.522000074386597,immed,28477.999925613403,Thu Mar 27 2025 11:13:21 GMT-0500 (Central Daylight Time),849501.8000000119,A,harpenter,O,enter,290,1,9946.300000011921,839555.5,7106,WL,A,14.0
7,60.013999938964844,immed,-13.99993896484375,Thu Mar 27 2025 11:13:21 GMT-0500 (Central Daylight Time),877993.1999999881,A,None,O,None,28485,1,28491.19999998808,849502.0,7106,WL,A,15.0
