acc_sum,block,block_c,condition,correct,correct_response,datetime,endtime,flanker,jitter,project,response,response_test_buffer_response,response_test_target_response,response_time,response_time_test_buffer_response,response_time_test_target_response,row_sel,session_number,start_end,starttime,subject_id,target,task,task_vers,time_test_buffer,time_test_buffer_response,time_test_constants,time_test_flanker,time_test_jitter,time_test_logger,time_test_target,time_test_target_response,time_test_variables,trial
1,prac,1,inc,1,m,Mon Jan 20 2025 15:08:46 GMT-0600 (Central Standard Time),137031.39999997616,plum,1100,I,m,,,1199,,,16,1,3611.0999999940395,133420.29999998212,7039,lead,NF,C,,,,,,,,,,1
1,prac,1,con,0,z,Mon Jan 20 2025 15:08:46 GMT-0600 (Central Standard Time),141313.29999998212,kiwi,1000,I,m,,,1972,,,7,1,4276.5999999940395,137036.69999998808,7039,kiwi,NF,C,,,,,,,,,,2
2,prac,1,inc,1,m,Mon Jan 20 2025 15:08:46 GMT-0600 (Central Standard Time),144895.39999997616,cherry,900,I,m,,,1366,,,10,1,3577.7999999821186,141317.59999999404,7039,copper,NF,C,,,,,,,,,,3
3,prac,1,con,1,z,Mon Jan 20 2025 15:08:46 GMT-0600 (Central Standard Time),148720.5,orange,1000,I,z,,,1402,,,3,1,3820.800000011921,144899.69999998808,7039,orange,NF,C,,,,,,,,,,4
4,prac,1,inc,1,z,Mon Jan 20 2025 15:08:46 GMT-0600 (Central Standard Time),152193.09999999404,iron,900,I,z,,,1255,,,6,1,3465.0999999940395,148728.0,7039,pear,NF,C,,,,,,,,,,5
5,prac,1,inc,1,z,Mon Jan 20 2025 15:08:46 GMT-0600 (Central Standard Time),155992.0,lead,1100,I,z,,,1390,,,8,1,3794.7000000178814,152197.29999998212,7039,plum,NF,C,,,,,,,,,,6
5,prac,1,inc,0,z,Mon Jan 20 2025 15:08:46 GMT-0600 (Central Standard Time),161157.0,cobalt,1100,I,None,,,1799,,,4,1,5160.600000023842,155996.39999997616,7039,raisin,NF,C,,,,,,,,,,7
6,prac,1,con,1,z,Mon Jan 20 2025 15:08:46 GMT-0600 (Central Standard Time),164422.59999999404,banana,800,I,z,,,1150,,,1,1,3261.300000011921,161161.29999998212,7039,banana,NF,C,,,,,,,,,,8
7,prac,1,inc,1,z,Mon Jan 20 2025 15:08:46 GMT-0600 (Central Standard Time),167738.39999997616,copper,900,I,z,,,1103,,,2,1,3311.699999988079,164426.69999998808,7039,cherry,NF,C,,,,,,,,,,9
8,prac,1,con,1,m,Mon Jan 20 2025 15:08:46 GMT-0600 (Central Standard Time),171188.29999998212,silver,1000,I,m,,,1144,,,11,1,3445.5999999940395,167742.69999998808,7039,silver,NF,C,,,,,,,,,,10
9,prac,1,con,1,z,Mon Jan 20 2025 15:08:46 GMT-0600 (Central Standard Time),174536.19999998808,lime,800,I,z,,,1232,,,5,1,3342.9000000059605,171193.29999998212,7039,lime,NF,C,,,,,,,,,,11
10,prac,1,con,1,m,Mon Jan 20 2025 15:08:46 GMT-0600 (Central Standard Time),177618.29999998212,gold,800,I,m,,,971,,,13,1,3077.9000000059605,174540.39999997616,7039,gold,NF,C,,,,,,,,,,12
11,prac,1,con,1,m,Mon Jan 20 2025 15:08:46 GMT-0600 (Central Standard Time),181050.69999998808,zinc,1000,I,m,,,1128,,,15,1,3428.5999999940395,177622.09999999404,7039,zinc,NF,C,,,,,,,,,,13
12,prac,1,con,1,m,Mon Jan 20 2025 15:08:46 GMT-0600 (Central Standard Time),184266.39999997616,bronze,800,I,m,,,1112,,,9,1,3211.699999988079,181054.69999998808,7039,bronze,NF,C,,,,,,,,,,14
13,prac,1,inc,1,m,Mon Jan 20 2025 15:08:46 GMT-0600 (Central Standard Time),187715.19999998808,raisin,1100,I,m,,,1036,,,12,1,3443.800000011921,184271.39999997616,7039,cobalt,NF,C,,,,,,,,,,15
14,prac,1,inc,1,m,Mon Jan 20 2025 15:08:46 GMT-0600 (Central Standard Time),191064.29999998212,pear,900,I,m,,,1148,,,14,1,3344.9000000059605,187719.39999997616,7039,iron,NF,C,,,,,,,,,,16
1,test,1,con,1,m,Mon Jan 20 2025 15:08:46 GMT-0600 (Central Standard Time),214923.39999997616,zinc,1100,I,m,m,None,1005,806.0,199.0,116,1,2645.899999976158,212277.5,7039,zinc,NF,C,207872,207872,206043,207156,206044,208688,207673,207673,208688,1
2,test,1,inc,1,m,Mon Jan 20 2025 15:08:46 GMT-0600 (Central Standard Time),217406.09999999404,orange,1000,I,m,m,None,935,736.0,199.0,87,1,2477.5,214928.59999999404,7039,silver,NF,C,210421,210422,208694,209705,208695,211171,210222,210222,211171,2
2,test,1,con,0,z,Mon Jan 20 2025 15:08:46 GMT-0600 (Central Standard Time),219565.79999998212,orange,1000,I,m,m,None,626,427.0,199.0,19,1,2155.199999988079,217410.59999999404,7039,orange,NF,C,212904,212904,211176,212188,211177,213331,212705,212705,213331,3
3,test,1,con,1,m,Mon Jan 20 2025 15:08:46 GMT-0600 (Central Standard Time),222354.5,silver,1100,I,m,m,None,1139,940.0,199.0,84,1,2784.300000011921,219570.19999998808,7039,silver,NF,C,215170,215170,213335,214454,213337,216120,214971,214971,216120,4
4,test,1,inc,1,z,Mon Jan 20 2025 15:08:46 GMT-0600 (Central Standard Time),224887.0,bronze,800,I,z,z,None,1200,986.0,214.0,5,1,2528.5,222358.5,7039,banana,NF,C,217652,217652,216124,216936,216125,218652,217438,217438,218652,5
5,test,1,con,1,z,Mon Jan 20 2025 15:08:46 GMT-0600 (Central Standard Time),227119.29999998212,plum,900,I,z,z,None,792,593.0,199.0,58,1,2228.5,224890.79999998212,7039,plum,NF,C,220285,220285,218656,219569,218657,220884,220086,220086,220884,6
6,test,1,inc,1,m,Mon Jan 20 2025 15:08:46 GMT-0600 (Central Standard Time),229401.89999997616,pear,900,I,m,m,None,847,632.0,215.0,126,1,2278.5999999940395,227123.29999998212,7039,lead,NF,C,222534,222534,220888,221802,220890,223167,222319,222319,223167,7
7,test,1,inc,1,z,Mon Jan 20 2025 15:08:46 GMT-0600 (Central Standard Time),231918.19999998808,lead,1100,I,z,z,None,869,670.0,199.0,48,1,2512.5,229405.69999998808,7039,pear,NF,C,225000,225000,223171,224284,223172,225683,224801,224801,225683,8
8,test,1,con,1,z,Mon Jan 20 2025 15:08:46 GMT-0600 (Central Standard Time),234467.09999999404,kiwi,1000,I,z,z,None,1013,814.0,199.0,51,1,2545.0,231922.09999999404,7039,kiwi,NF,C,227416,227416,225687,226700,225689,228232,227217,227217,228232,9
9,test,1,con,1,z,Mon Jan 20 2025 15:08:46 GMT-0600 (Central Standard Time),236666.5,raisin,800,I,z,z,None,863,648.0,215.0,25,1,2195.4000000059605,234471.09999999404,7039,raisin,NF,C,229782,229782,228236,229049,228237,230432,229567,229567,230431,10
9,test,1,con,0,m,Mon Jan 20 2025 15:08:46 GMT-0600 (Central Standard Time),239249.09999999404,silver,1000,I,z,z,None,1040,825.0,215.0,83,1,2578.300000011921,236670.79999998212,7039,silver,NF,C,232181,232181,230436,231449,230437,233014,231966,231966,233014,11
10,test,1,inc,1,m,Mon Jan 20 2025 15:08:46 GMT-0600 (Central Standard Time),241764.89999997616,raisin,1100,I,m,m,None,878,679.0,199.0,72,1,2511.699999988079,239253.19999998808,7039,bronze,NF,C,234847,234847,233018,234131,233020,235530,234648,234648,235530,12
11,test,1,inc,1,z,Mon Jan 20 2025 15:08:46 GMT-0600 (Central Standard Time),244247.39999997616,zinc,1000,I,z,z,None,944,744.0,200.0,55,1,2478.5,241768.89999997616,7039,kiwi,NF,C,237263,237263,235534,236547,235535,238013,237063,237063,238012,13
12,test,1,con,1,z,Mon Jan 20 2025 15:08:46 GMT-0600 (Central Standard Time),246447.0,banana,900,I,z,z,None,751,552.0,199.0,2,1,2195.5,244251.5,7039,banana,NF,C,239646,239646,238017,238930,238018,240212,239446,239446,240212,14
13,test,1,con,1,z,Mon Jan 20 2025 15:08:46 GMT-0600 (Central Standard Time),248812.59999999404,raisin,1000,I,z,z,None,828,629.0,199.0,27,1,2361.5,246451.09999999404,7039,raisin,NF,C,241945,241945,240216,241229,240218,242578,241746,241746,242578,15
14,test,1,inc,1,m,Mon Jan 20 2025 15:08:46 GMT-0600 (Central Standard Time),251112.0,kiwi,1000,I,m,m,None,758,559.0,199.0,111,1,2295.4000000059605,248816.59999999404,7039,iron,NF,C,244311,244311,242582,243595,242583,244877,244112,244112,244877,16
15,test,1,inc,1,m,Mon Jan 20 2025 15:08:46 GMT-0600 (Central Standard Time),253544.69999998808,orange,1000,I,m,m,None,891,692.0,199.0,95,1,2428.5999999940395,251116.09999999404,7039,cobalt,NF,C,246610,246610,244881,245894,244883,247310,246411,246411,247310,17
16,test,1,inc,1,z,Mon Jan 20 2025 15:08:46 GMT-0600 (Central Standard Time),256043.69999998808,gold,800,I,z,z,None,1162,947.0,215.0,53,1,2495.0999999940395,253548.59999999404,7039,kiwi,NF,C,248859,248859,247314,248127,247315,249809,248644,248644,249809,18
17,test,1,con,1,z,Mon Jan 20 2025 15:08:46 GMT-0600 (Central Standard Time),258093.0,orange,800,I,z,z,None,703,504.0,199.0,17,1,2045.2000000178814,256047.79999998212,7039,orange,NF,C,251342,251342,249813,250626,249814,251858,251143,251143,251858,19
18,test,1,con,1,z,Mon Jan 20 2025 15:08:46 GMT-0600 (Central Standard Time),260392.39999997616,orange,1100,I,z,z,None,650,451.0,199.0,20,1,2295.5,258096.89999997616,7039,orange,NF,C,253691,253691,251862,252975,251863,254157,253492,253492,254157,20
19,test,1,inc,1,m,Mon Jan 20 2025 15:08:46 GMT-0600 (Central Standard Time),262825.0,kiwi,1000,I,m,m,None,882,683.0,199.0,103,1,2428.300000011921,260396.69999998808,7039,gold,NF,C,255891,255891,254162,255175,254163,256590,255691,255691,256590,21
20,test,1,inc,1,m,Mon Jan 20 2025 15:08:46 GMT-0600 (Central Standard Time),265157.5,pear,900,I,m,m,None,886,687.0,199.0,102,1,2326.800000011921,262830.6999999881,7039,gold,NF,C,258223,258223,256596,257507,256597,258923,258024,258024,258922,22
21,test,1,inc,1,m,Mon Jan 20 2025 15:08:46 GMT-0600 (Central Standard Time),267357.0,lime,800,I,m,m,None,823,621.0,202.0,125,1,2195.4000000059605,265161.59999999404,7039,lead,NF,C,260489,260489,258927,259740,258928,261122,260286,260286,261122,23
22,test,1,con,1,z,Mon Jan 20 2025 15:08:46 GMT-0600 (Central Standard Time),269556.2999999821,pear,900,I,z,z,None,762,563.0,199.0,42,1,2195.199999988079,267361.09999999404,7039,pear,NF,C,262755,262755,261126,262039,261128,263321,262556,262556,263321,24
23,test,1,inc,1,m,Mon Jan 20 2025 15:08:46 GMT-0600 (Central Standard Time),271722.1999999881,cherry,900,I,m,m,None,723,524.0,199.0,78,1,2162.0,269560.1999999881,7039,copper,NF,C,264954,264954,263325,264239,263327,265487,264755,264755,265487,25
24,test,1,con,1,m,Mon Jan 20 2025 15:08:46 GMT-0600 (Central Standard Time),274004.7999999821,cobalt,900,I,m,m,None,845,645.0,200.0,90,1,2278.7999999821186,271726.0,7039,cobalt,NF,C,267121,267121,265491,266404,265492,267770,266921,266921,267770,26
25,test,1,con,1,z,Mon Jan 20 2025 15:08:46 GMT-0600 (Central Standard Time),276037.6999999881,kiwi,800,I,z,z,None,694,495.0,199.0,49,1,2029.0,274008.6999999881,7039,kiwi,NF,C,269303,269303,267774,268587,267775,269803,269104,269104,269803,27
26,test,1,inc,1,z,Mon Jan 20 2025 15:08:46 GMT-0600 (Central Standard Time),278403.39999997616,silver,1000,I,z,z,None,821,606.0,215.0,23,1,2361.5999999940395,276041.7999999821,7039,orange,NF,C,271552,271552,269807,270820,269808,272168,271337,271337,272168,28
27,test,1,con,1,m,Mon Jan 20 2025 15:08:46 GMT-0600 (Central Standard Time),280819.39999997616,iron,1000,I,m,m,None,871,672.0,199.0,107,1,2412.199999988079,278407.1999999881,7039,iron,NF,C,273902,273902,272172,273186,272174,274584,273702,273702,274584,29
28,test,1,con,1,m,Mon Jan 20 2025 15:08:46 GMT-0600 (Central Standard Time),283018.6999999881,iron,800,I,m,m,None,863,648.0,215.0,105,1,2195.699999988079,280823.0,7039,iron,NF,C,276134,276134,274588,275402,274589,276784,275919,275919,276784,30
29,test,1,inc,1,m,Mon Jan 20 2025 15:08:46 GMT-0600 (Central Standard Time),285368.0,pear,900,I,m,m,None,908,693.0,215.0,118,1,2345.7000000178814,283022.2999999821,7039,zinc,NF,C,278433,278433,276787,277701,276789,279133,278218,278218,279133,31
30,test,1,inc,1,m,Mon Jan 20 2025 15:08:46 GMT-0600 (Central Standard Time),287484.09999999404,banana,800,I,m,m,None,771,572.0,199.0,85,1,2112.300000011921,285371.7999999821,7039,silver,NF,C,280666,280666,279137,279950,279138,281249,280467,280467,281249,32
31,test,1,inc,1,z,Mon Jan 20 2025 15:08:46 GMT-0600 (Central Standard Time),289616.5,iron,900,I,z,z,None,691,492.0,199.0,62,1,2128.7000000178814,287487.7999999821,7039,plum,NF,C,282882,282882,281253,282166,281254,283382,282683,282683,283381,33
32,test,1,inc,1,m,Mon Jan 20 2025 15:08:46 GMT-0600 (Central Standard Time),291999.09999999404,raisin,1100,I,m,m,None,742,527.0,215.0,88,1,2378.800000011921,289620.2999999821,7039,silver,NF,C,285231,285231,283385,284499,283387,285764,285016,285016,285764,34
33,test,1,inc,1,m,Mon Jan 20 2025 15:08:46 GMT-0600 (Central Standard Time),294514.59999999404,orange,1000,I,m,m,None,972,773.0,199.0,71,1,2511.9000000059605,292002.6999999881,7039,bronze,NF,C,287497,287497,285768,286782,285769,288280,287298,287298,288280,35
34,test,1,inc,1,z,Mon Jan 20 2025 15:08:46 GMT-0600 (Central Standard Time),296631.1999999881,copper,900,I,z,z,None,668,469.0,199.0,30,1,2112.0,294519.1999999881,7039,raisin,NF,C,289913,289913,288284,289197,288286,290396,289714,289714,290396,36
35,test,1,inc,1,z,Mon Jan 20 2025 15:08:46 GMT-0600 (Central Standard Time),298797.09999999404,iron,900,I,z,z,None,728,529.0,199.0,38,1,2161.9000000059605,296635.1999999881,7039,lime,NF,C,292029,292029,290400,291313,290401,292562,291830,291830,292562,37
36,test,1,inc,1,m,Mon Jan 20 2025 15:08:46 GMT-0600 (Central Standard Time),300763.09999999404,lime,800,I,m,m,None,622,423.0,199.0,101,1,1962.300000011921,298800.7999999821,7039,gold,NF,C,294095,294095,292566,293379,292567,294528,293896,293896,294528,38
37,test,1,con,1,m,Mon Jan 20 2025 15:08:46 GMT-0600 (Central Standard Time),303329.0,gold,1100,I,m,m,None,916,717.0,199.0,100,1,2562.300000011921,300766.6999999881,7039,gold,NF,C,296361,296361,294532,295645,294533,297094,296162,296162,297094,39
38,test,1,inc,1,m,Mon Jan 20 2025 15:08:46 GMT-0600 (Central Standard Time),305911.39999997616,plum,1100,I,m,m,None,934,735.0,199.0,120,1,2578.2999999821186,303333.09999999404,7039,zinc,NF,C,298927,298927,297098,298211,297100,299676,298728,298728,299676,40
39,test,1,con,1,z,Mon Jan 20 2025 15:08:46 GMT-0600 (Central Standard Time),308494.0,plum,1000,I,z,z,None,1043,844.0,199.0,59,1,2578.9000000059605,305915.09999999404,7039,plum,NF,C,301410,301410,299680,300694,299681,302259,301210,301210,302259,41
40,test,1,con,1,m,Mon Jan 20 2025 15:08:46 GMT-0600 (Central Standard Time),310959.7999999821,copper,1100,I,m,m,None,817,618.0,199.0,76,1,2462.0999999940395,308497.6999999881,7039,copper,NF,C,304092,304092,302263,303376,302264,304725,303893,303893,304725,42
41,test,1,inc,1,z,Mon Jan 20 2025 15:08:46 GMT-0600 (Central Standard Time),313475.89999997616,cobalt,1100,I,z,z,None,879,680.0,199.0,24,1,2512.5,310963.39999997616,7039,orange,NF,C,306558,306558,304728,305842,304730,307241,306359,306359,307241,43
42,test,1,inc,1,m,Mon Jan 20 2025 15:08:46 GMT-0600 (Central Standard Time),315641.6999999881,banana,800,I,m,m,None,823,624.0,199.0,77,1,2162.0,313479.6999999881,7039,copper,NF,C,308774,308774,307245,308058,307246,309407,308575,308575,309407,44
43,test,1,con,1,m,Mon Jan 20 2025 15:08:46 GMT-0600 (Central Standard Time),317741.0,cobalt,800,I,m,m,None,753,554.0,199.0,89,1,2095.600000023842,315645.39999997616,7039,cobalt,NF,C,310940,310940,309410,310224,309412,311506,310741,310741,311506,45
44,test,1,con,1,z,Mon Jan 20 2025 15:08:46 GMT-0600 (Central Standard Time),319906.89999997616,lime,1000,I,z,z,None,630,431.0,199.0,35,1,2162.199999988079,317744.6999999881,7039,lime,NF,C,313239,313239,311510,312523,311511,313672,313040,313040,313672,46
45,test,1,inc,1,m,Mon Jan 20 2025 15:08:46 GMT-0600 (Central Standard Time),322123.09999999404,kiwi,1000,I,m,m,None,671,472.0,199.0,119,1,2212.300000011921,319910.7999999821,7039,zinc,NF,C,315405,315406,313676,314689,313677,315888,315206,315206,315888,47
46,test,1,con,1,z,Mon Jan 20 2025 15:08:46 GMT-0600 (Central Standard Time),324305.5,kiwi,900,I,z,z,None,748,549.0,199.0,50,1,2178.7000000178814,322126.7999999821,7039,kiwi,NF,C,317521,317521,315892,316805,315893,318071,317322,317322,318071,48
47,test,1,inc,1,m,Mon Jan 20 2025 15:08:46 GMT-0600 (Central Standard Time),326571.59999999404,plum,1100,I,m,m,None,629,414.0,215.0,104,1,2262.5999999940395,324309.0,7039,gold,NF,C,319920,319920,318074,319188,318075,320337,319705,319705,320337,49
48,test,1,con,1,m,Mon Jan 20 2025 15:08:46 GMT-0600 (Central Standard Time),328787.7999999821,lead,900,I,m,m,None,772,572.0,200.0,122,1,2212.5,326575.2999999821,7039,lead,NF,C,321970,321970,320340,321254,320342,322553,321770,321770,322553,50
49,test,1,inc,1,z,Mon Jan 20 2025 15:08:46 GMT-0600 (Central Standard Time),331053.59999999404,zinc,1000,I,z,z,None,719,520.0,199.0,63,1,2262.2000000178814,328791.39999997616,7039,plum,NF,C,324285,324286,322556,323569,322558,324819,324086,324086,324819,51
50,test,1,con,1,m,Mon Jan 20 2025 15:08:46 GMT-0600 (Central Standard Time),333219.59999999404,gold,800,I,m,m,None,829,614.0,215.0,97,1,2162.0999999940395,331057.5,7039,gold,NF,C,326368,326368,324822,325636,324824,326985,326153,326153,326985,52
51,test,1,con,1,z,Mon Jan 20 2025 15:08:46 GMT-0600 (Central Standard Time),335385.09999999404,raisin,1100,I,z,z,None,516,317.0,199.0,28,1,2161.5,333223.59999999404,7039,raisin,NF,C,328817,328817,326989,328101,326990,329150,328618,328618,329150,53
52,test,1,con,1,z,Mon Jan 20 2025 15:08:46 GMT-0600 (Central Standard Time),337584.5,pear,1000,I,z,z,None,658,363.0,295.0,43,1,2194.800000011921,335389.6999999881,7039,pear,NF,C,330979,330979,329155,330167,329156,331350,330684,330684,331350,54
53,test,1,con,1,m,Mon Jan 20 2025 15:08:46 GMT-0600 (Central Standard Time),339800.89999997616,cobalt,1100,I,m,m,None,573,358.0,215.0,92,1,2212.5,337588.39999997616,7039,cobalt,NF,C,333200,333200,331353,332467,331355,333566,332984,332984,333566,55
54,test,1,inc,1,m,Mon Jan 20 2025 15:08:46 GMT-0600 (Central Standard Time),342133.09999999404,plum,1100,I,m,m,None,695,496.0,199.0,112,1,2328.5999999940395,339804.5,7039,iron,NF,C,335398,335398,333570,334682,333571,335898,335199,335199,335898,56
55,test,1,con,1,m,Mon Jan 20 2025 15:08:46 GMT-0600 (Central Standard Time),344632.59999999404,zinc,1000,I,m,m,None,957,758.0,199.0,115,1,2495.300000011921,342137.2999999821,7039,zinc,NF,C,337631,337632,335902,336916,335904,338398,337432,337432,338398,57
56,test,1,con,1,m,Mon Jan 20 2025 15:08:46 GMT-0600 (Central Standard Time),346748.5,copper,800,I,m,m,None,777,562.0,215.0,73,1,2112.2000000178814,344636.2999999821,7039,copper,NF,C,339948,339948,338401,339215,338403,340514,339732,339732,340514,58
57,test,1,con,1,z,Mon Jan 20 2025 15:08:46 GMT-0600 (Central Standard Time),348764.5,lime,900,I,z,z,None,578,363.0,215.0,34,1,2012.2000000178814,346752.2999999821,7039,lime,NF,C,342163,342163,340517,341431,340519,342530,341948,341948,342530,59
58,test,1,con,1,z,Mon Jan 20 2025 15:08:46 GMT-0600 (Central Standard Time),351013.89999997616,pear,1100,I,z,z,None,610,395.0,215.0,44,1,2245.5,348768.39999997616,7039,pear,NF,C,344379,344379,342533,343647,342535,344779,344164,344164,344779,60
59,test,1,con,1,z,Mon Jan 20 2025 15:08:46 GMT-0600 (Central Standard Time),353163.2999999821,plum,800,I,z,z,None,813,614.0,199.0,57,1,2145.5999999940395,351017.6999999881,7039,plum,NF,C,346312,346312,344783,345596,344784,346928,346113,346113,346928,61
60,test,1,inc,1,z,Mon Jan 20 2025 15:08:46 GMT-0600 (Central Standard Time),355445.89999997616,gold,800,I,z,z,None,942,728.0,214.0,61,1,2278.699999988079,353167.1999999881,7039,plum,NF,C,348478,348478,346932,347746,346934,349211,348262,348263,349211,62
61,test,1,con,1,m,Mon Jan 20 2025 15:08:46 GMT-0600 (Central Standard Time),357745.0,gold,900,I,m,m,None,857,658.0,199.0,98,1,2295.300000011921,355449.6999999881,7039,gold,NF,C,350844,350844,349215,350128,349216,351510,350645,350645,351510,63
62,test,1,inc,1,z,Mon Jan 20 2025 15:08:46 GMT-0600 (Central Standard Time),360177.6999999881,cobalt,1100,I,z,z,None,790,591.0,199.0,16,1,2429.0999999940395,357748.59999999404,7039,cherry,NF,C,353343,353343,351514,352627,351515,353943,353144,353144,353943,64
63,test,1,con,1,z,Mon Jan 20 2025 15:08:46 GMT-0600 (Central Standard Time),362110.39999997616,cherry,900,I,z,z,None,492,277.0,215.0,10,1,1928.8999999761581,360181.5,7039,cherry,NF,C,355593,355593,353947,354860,353948,355875,355377,355377,355875,65
64,test,1,con,1,z,Mon Jan 20 2025 15:08:46 GMT-0600 (Central Standard Time),364343.0,banana,1100,I,z,z,None,584,385.0,199.0,4,1,2228.9000000059605,362114.09999999404,7039,banana,NF,C,357709,357709,355879,356993,355880,358108,357509,357509,358108,66
65,test,1,con,1,z,Mon Jan 20 2025 15:08:46 GMT-0600 (Central Standard Time),366375.89999997616,pear,800,I,z,z,None,692,493.0,199.0,41,1,2029.0,364346.89999997616,7039,pear,NF,C,359641,359641,358112,358926,358113,360141,359442,359442,360141,67
66,test,1,con,1,z,Mon Jan 20 2025 15:08:46 GMT-0600 (Central Standard Time),368375.39999997616,raisin,900,I,z,z,None,551,352.0,199.0,26,1,1995.8999999761581,366379.5,7039,raisin,NF,C,361774,361774,360145,361058,360146,362141,361575,361575,362140,68
67,test,1,inc,1,z,Mon Jan 20 2025 15:08:46 GMT-0600 (Central Standard Time),370425.5,bronze,800,I,z,z,None,707,492.0,215.0,13,1,2046.300000011921,368379.1999999881,7039,cherry,NF,C,363690,363690,362144,362957,362145,364191,363474,363475,364191,69
68,test,1,con,1,m,Mon Jan 20 2025 15:08:46 GMT-0600 (Central Standard Time),372840.59999999404,iron,1100,I,m,m,None,774,575.0,199.0,108,1,2411.0999999940395,370429.5,7039,iron,NF,C,366023,366023,364195,365307,364196,366606,365823,365823,366606,70
69,test,1,inc,1,m,Mon Jan 20 2025 15:08:46 GMT-0600 (Central Standard Time),374823.0,lime,800,I,m,m,None,642,443.0,199.0,109,1,1978.6000000238419,372844.39999997616,7039,iron,NF,C,368139,368139,366609,367422,366611,368588,367939,367939,368588,71
70,test,1,inc,1,z,Mon Jan 20 2025 15:08:46 GMT-0600 (Central Standard Time),377205.59999999404,cobalt,1100,I,z,z,None,735,520.0,215.0,32,1,2378.800000011921,374826.7999999821,7039,raisin,NF,C,370438,370438,368592,369705,368593,370971,370222,370222,370971,72
71,test,1,con,1,z,Mon Jan 20 2025 15:08:46 GMT-0600 (Central Standard Time),379871.09999999404,cherry,1000,I,z,z,None,1117,902.0,215.0,11,1,2661.800000011921,377209.2999999821,7039,cherry,NF,C,372720,372720,370974,371988,370976,373636,372505,372505,373636,73
72,test,1,con,1,m,Mon Jan 20 2025 15:08:46 GMT-0600 (Central Standard Time),382220.6999999881,gold,1000,I,m,m,None,804,589.0,215.0,99,1,2345.800000011921,379874.89999997616,7039,gold,NF,C,375386,375386,373640,374654,373641,375986,375171,375171,375986,74
73,test,1,inc,1,m,Mon Jan 20 2025 15:08:46 GMT-0600 (Central Standard Time),384464.39999997616,pear,900,I,m,m,None,808,593.0,215.0,110,1,2240.0999999940395,382224.2999999821,7039,iron,NF,C,377636,377636,375989,376903,375991,378229,377420,377420,378229,75
74,test,1,inc,1,z,Mon Jan 20 2025 15:08:46 GMT-0600 (Central Standard Time),386452.7999999821,bronze,800,I,z,z,None,645,446.0,199.0,29,1,1984.199999988079,384468.59999999404,7039,raisin,NF,C,379768,379768,378234,379052,378235,380218,379569,379569,380218,76
75,test,1,inc,1,z,Mon Jan 20 2025 15:08:46 GMT-0600 (Central Standard Time),389019.6999999881,silver,1000,I,z,z,None,1029,814.0,215.0,31,1,2562.9000000059605,386456.7999999821,7039,raisin,NF,C,381968,381968,380222,381235,380223,382785,381752,381752,382785,77
76,test,1,inc,1,m,Mon Jan 20 2025 15:08:46 GMT-0600 (Central Standard Time),391151.09999999404,cherry,900,I,m,m,None,683,468.0,215.0,86,1,2127.4000000059605,389023.6999999881,7039,silver,NF,C,384434,384434,382789,383701,382790,384916,384218,384218,384916,78
76,test,1,con,0,m,Mon Jan 20 2025 15:08:46 GMT-0600 (Central Standard Time),393317.1999999881,iron,900,I,z,z,None,720,521.0,199.0,106,1,2161.9000000059605,391155.2999999821,7039,iron,NF,C,386549,386549,384920,385834,384922,387082,386350,386350,387082,79
77,test,1,con,1,m,Mon Jan 20 2025 15:08:46 GMT-0600 (Central Standard Time),395833.5,bronze,1000,I,m,m,None,966,767.0,199.0,67,1,2512.5,393321.0,7039,bronze,NF,C,388815,388815,387086,388100,387087,389599,388616,388616,389599,80
78,test,1,con,1,z,Mon Jan 20 2025 15:08:46 GMT-0600 (Central Standard Time),398015.7999999821,orange,900,I,z,z,None,734,535.0,199.0,18,1,2178.5999999940395,395837.1999999881,7039,orange,NF,C,391231,391231,389602,390516,389604,391781,391032,391032,391781,81
79,test,1,con,1,m,Mon Jan 20 2025 15:08:46 GMT-0600 (Central Standard Time),400298.2999999821,copper,900,I,m,m,None,839,640.0,199.0,74,1,2278.9000000059605,398019.39999997616,7039,copper,NF,C,393414,393414,391784,392698,391786,394064,393215,393215,394063,82
80,test,1,inc,1,z,Mon Jan 20 2025 15:08:46 GMT-0600 (Central Standard Time),402764.09999999404,cobalt,1100,I,z,z,None,828,629.0,199.0,8,1,2462.0,400302.09999999404,7039,banana,NF,C,395897,395897,394067,395181,394068,396529,395697,395697,396529,83
81,test,1,inc,1,m,Mon Jan 20 2025 15:08:46 GMT-0600 (Central Standard Time),404797.0,banana,800,I,m,m,None,695,496.0,199.0,93,1,2028.9000000059605,402768.09999999404,7039,cobalt,NF,C,398062,398062,396533,397347,396534,398562,397863,397863,398562,84
82,test,1,inc,1,z,Mon Jan 20 2025 15:08:46 GMT-0600 (Central Standard Time),406996.2999999821,copper,900,I,z,z,None,754,555.0,199.0,22,1,2195.4000000059605,404800.89999997616,7039,orange,NF,C,400195,400195,398566,399479,398567,400761,399996,399996,400761,85
83,test,1,con,1,z,Mon Jan 20 2025 15:08:46 GMT-0600 (Central Standard Time),409612.1999999881,cherry,1100,I,z,z,None,971,772.0,199.0,12,1,2612.300000011921,406999.89999997616,7039,cherry,NF,C,402594,402594,400765,401878,400766,403377,402395,402395,403377,86
84,test,1,con,1,m,Mon Jan 20 2025 15:08:46 GMT-0600 (Central Standard Time),411761.2999999821,bronze,900,I,m,m,None,715,516.0,199.0,66,1,2145.2999999821186,409616.0,7039,bronze,NF,C,405010,405010,403381,404295,403382,405526,404811,404811,405526,87
85,test,1,inc,1,z,Mon Jan 20 2025 15:08:46 GMT-0600 (Central Standard Time),413994.09999999404,zinc,1000,I,z,z,None,689,474.0,215.0,39,1,2229.0,411765.09999999404,7039,lime,NF,C,407276,407276,405530,406544,405531,407759,407061,407061,407759,88
86,test,1,inc,1,z,Mon Jan 20 2025 15:08:46 GMT-0600 (Central Standard Time),416276.6999999881,copper,900,I,z,z,None,845,646.0,199.0,6,1,2278.9000000059605,413997.7999999821,7039,banana,NF,C,409392,409392,407763,408676,407764,410042,409193,409193,410042,89
87,test,1,inc,1,z,Mon Jan 20 2025 15:08:46 GMT-0600 (Central Standard Time),418392.59999999404,bronze,800,I,z,z,None,774,575.0,199.0,21,1,2112.2000000178814,416280.39999997616,7039,orange,NF,C,411575,411575,410045,410859,410047,412158,411376,411376,412158,90
88,test,1,inc,1,z,Mon Jan 20 2025 15:08:46 GMT-0600 (Central Standard Time),420841.89999997616,iron,900,I,z,z,None,1006,807.0,199.0,46,1,2445.699999988079,418396.1999999881,7039,pear,NF,C,413791,413791,412161,413075,412163,414607,413592,413592,414607,91
89,test,1,inc,1,z,Mon Jan 20 2025 15:08:46 GMT-0600 (Central Standard Time),423058.0,silver,1000,I,z,z,None,681,482.0,199.0,7,1,2212.100000023842,420845.89999997616,7039,banana,NF,C,416340,416340,414611,415624,414612,416823,416141,416141,416823,92
90,test,1,con,1,m,Mon Jan 20 2025 15:08:46 GMT-0600 (Central Standard Time),424957.2999999821,bronze,800,I,m,m,None,553,354.0,199.0,65,1,1896.0,423061.2999999821,7039,bronze,NF,C,418356,418356,416826,417640,416828,418722,418157,418157,418722,93
91,test,1,inc,1,m,Mon Jan 20 2025 15:08:46 GMT-0600 (Central Standard Time),426873.2999999821,banana,800,I,m,m,None,574,375.0,199.0,69,1,1912.5,424960.7999999821,7039,bronze,NF,C,420255,420255,418726,419540,418727,420638,420056,420056,420638,94
92,test,1,con,1,m,Mon Jan 20 2025 15:08:46 GMT-0600 (Central Standard Time),429172.6999999881,lead,1000,I,m,m,None,753,538.0,215.0,123,1,2295.9000000059605,426876.7999999821,7039,lead,NF,C,422388,422388,420642,421656,420643,422938,422173,422173,422938,95
93,test,1,con,1,m,Mon Jan 20 2025 15:08:46 GMT-0600 (Central Standard Time),431238.5,silver,900,I,m,m,None,626,427.0,199.0,82,1,2062.100000023842,429176.39999997616,7039,silver,NF,C,424571,424571,422941,423855,422943,425004,424372,424372,425004,96
94,test,1,con,1,z,Mon Jan 20 2025 15:08:46 GMT-0600 (Central Standard Time),433204.6999999881,banana,800,I,z,z,None,628,413.0,215.0,1,1,1962.4000000059605,431242.2999999821,7039,banana,NF,C,426553,426553,425007,425821,425009,426970,426338,426338,426970,97
95,test,1,con,1,m,Mon Jan 20 2025 15:08:46 GMT-0600 (Central Standard Time),435570.6999999881,bronze,1100,I,m,m,None,729,514.0,215.0,68,1,2362.199999988079,433208.5,7039,bronze,NF,C,428820,428820,426974,428088,426975,429336,428604,428604,429336,98
96,test,1,con,1,m,Mon Jan 20 2025 15:08:46 GMT-0600 (Central Standard Time),437753.2999999821,cobalt,1000,I,m,m,None,640,441.0,199.0,91,1,2178.7999999821186,435574.5,7039,cobalt,NF,C,431069,431069,429340,430353,429341,431518,430870,430870,431518,99
97,test,1,inc,1,m,Mon Jan 20 2025 15:08:46 GMT-0600 (Central Standard Time),439985.7999999821,raisin,1100,I,m,m,None,597,398.0,199.0,80,1,2228.7999999821186,437757.0,7039,copper,NF,C,433351,433352,431522,432635,431523,433751,433152,433152,433751,100
98,test,1,inc,1,z,Mon Jan 20 2025 15:08:46 GMT-0600 (Central Standard Time),442035.39999997616,gold,800,I,z,z,None,713,514.0,199.0,37,1,2046.0,439989.39999997616,7039,lime,NF,C,435284,435284,433754,434568,433756,435801,435085,435085,435800,101
99,test,1,con,1,z,Mon Jan 20 2025 15:08:46 GMT-0600 (Central Standard Time),444401.09999999404,lime,1100,I,z,z,None,723,508.0,215.0,36,1,2361.9000000059605,442039.1999999881,7039,lime,NF,C,437650,437650,435804,436918,435806,438166,437435,437435,438166,102
100,test,1,inc,1,m,Mon Jan 20 2025 15:08:46 GMT-0600 (Central Standard Time),446667.1999999881,orange,1000,I,m,m,None,730,531.0,199.0,79,1,2262.300000011921,444404.89999997616,7039,copper,NF,C,439899,439899,438170,439183,438171,440432,439700,439700,440432,103
101,test,1,con,1,z,Mon Jan 20 2025 15:08:46 GMT-0600 (Central Standard Time),449216.59999999404,kiwi,1100,I,z,z,None,900,701.0,199.0,52,1,2545.800000011921,446670.7999999821,7039,kiwi,NF,C,442265,442265,440436,441550,440437,442982,442066,442066,442982,104
102,test,1,inc,1,m,Mon Jan 20 2025 15:08:46 GMT-0600 (Central Standard Time),451465.6999999881,plum,1100,I,m,m,None,600,400.0,200.0,128,1,2245.5999999940395,449220.09999999404,7039,lead,NF,C,444815,444815,442985,444099,442986,445231,444615,444615,445231,105
103,test,1,con,1,z,Mon Jan 20 2025 15:08:46 GMT-0600 (Central Standard Time),453415.09999999404,cherry,800,I,z,z,None,601,402.0,199.0,9,1,1945.5999999940395,451469.5,7039,cherry,NF,C,446764,446764,445235,446048,445236,447180,446565,446565,447180,106
104,test,1,inc,1,z,Mon Jan 20 2025 15:08:46 GMT-0600 (Central Standard Time),455947.5,lead,1100,I,z,z,None,817,613.0,204.0,40,1,2528.5,453419.0,7039,lime,NF,C,449097,449097,447184,448297,447185,449713,448892,448892,449713,107
105,test,1,con,1,z,Mon Jan 20 2025 15:08:46 GMT-0600 (Central Standard Time),458097.0,banana,1000,I,z,z,None,599,384.0,215.0,3,1,2145.7000000178814,455951.2999999821,7039,banana,NF,C,451462,451462,449716,450730,449718,451862,451247,451247,451862,108
106,test,1,con,1,z,Mon Jan 20 2025 15:08:46 GMT-0600 (Central Standard Time),460279.39999997616,plum,1100,I,z,z,None,542,343.0,199.0,60,1,2178.5,458100.89999997616,7039,plum,NF,C,453695,453695,451866,452979,451867,454044,453496,453496,454044,109
107,test,1,con,1,m,Mon Jan 20 2025 15:08:46 GMT-0600 (Central Standard Time),462279.1999999881,silver,800,I,m,m,None,651,452.0,199.0,81,1,1995.9000000059605,460283.2999999821,7039,silver,NF,C,455578,455578,454048,454862,454050,456044,455379,455379,456044,110
108,test,1,inc,1,z,Mon Jan 20 2025 15:08:46 GMT-0600 (Central Standard Time),464794.6999999881,lead,1100,I,z,z,None,872,673.0,199.0,64,1,2511.5,462283.1999999881,7039,plum,NF,C,457877,457877,456048,457161,456050,458560,457678,457678,458560,111
109,test,1,inc,1,m,Mon Jan 20 2025 15:08:46 GMT-0600 (Central Standard Time),466844.09999999404,cherry,900,I,m,m,None,612,413.0,199.0,94,1,2045.7000000178814,464798.39999997616,7039,cobalt,NF,C,460193,460193,458563,459477,458564,460609,459994,459994,460609,112
110,test,1,inc,1,z,Mon Jan 20 2025 15:08:46 GMT-0600 (Central Standard Time),469110.09999999404,zinc,1000,I,z,z,None,727,528.0,199.0,47,1,2262.0,466848.09999999404,7039,pear,NF,C,462342,462342,460613,461626,460614,462875,462143,462143,462875,113
111,test,1,inc,1,z,Mon Jan 20 2025 15:08:46 GMT-0600 (Central Standard Time),471376.1999999881,iron,900,I,z,z,None,825,626.0,199.0,54,1,2262.4000000059605,469113.7999999821,7039,kiwi,NF,C,464508,464508,462879,463792,462880,465141,464309,464309,465141,114
112,test,1,inc,1,z,Mon Jan 20 2025 15:08:46 GMT-0600 (Central Standard Time),473408.6999999881,gold,800,I,z,z,None,691,492.0,199.0,45,1,2028.800000011921,471379.89999997616,7039,pear,NF,C,466674,466674,465145,465958,465147,467174,466475,466475,467174,115
113,test,1,inc,1,z,Mon Jan 20 2025 15:08:46 GMT-0600 (Central Standard Time),475574.6999999881,copper,900,I,z,z,None,718,519.0,199.0,14,1,2162.300000011921,473412.39999997616,7039,cherry,NF,C,468807,468807,467177,468091,467179,469340,468608,468608,469340,116
114,test,1,con,1,z,Mon Jan 20 2025 15:08:46 GMT-0600 (Central Standard Time),477524.09999999404,lime,800,I,z,z,None,612,413.0,199.0,33,1,1945.4000000059605,475578.6999999881,7039,lime,NF,C,470873,470873,469344,470157,469345,471289,470674,470674,471289,117
115,test,1,inc,1,m,Mon Jan 20 2025 15:08:46 GMT-0600 (Central Standard Time),479640.09999999404,cherry,900,I,m,m,None,590,391.0,199.0,70,1,2112.4000000059605,477527.6999999881,7039,bronze,NF,C,473007,473007,471293,472298,471294,473405,472806,472807,473405,118
116,test,1,inc,1,z,Mon Jan 20 2025 15:08:46 GMT-0600 (Central Standard Time),481922.7999999821,silver,1000,I,z,z,None,747,548.0,199.0,15,1,2279.0999999940395,479643.6999999881,7039,cherry,NF,C,475138,475138,473409,474422,473410,475688,474939,474939,475688,119
117,test,1,inc,1,m,Mon Jan 20 2025 15:08:46 GMT-0600 (Central Standard Time),484038.89999997616,lime,800,I,m,m,None,768,569.0,199.0,117,1,2112.399999976158,481926.5,7039,zinc,NF,C,477221,477221,475692,476505,475693,477804,477022,477022,477804,120
118,test,1,inc,1,z,Mon Jan 20 2025 15:08:46 GMT-0600 (Central Standard Time),486388.1999999881,lead,1100,I,z,z,None,704,489.0,215.0,56,1,2345.5,484042.6999999881,7039,kiwi,NF,C,479653,479653,477808,478921,477809,480153,479438,479438,480153,121
119,test,1,con,1,m,Mon Jan 20 2025 15:08:46 GMT-0600 (Central Standard Time),489037.1999999881,lead,1100,I,m,m,None,1011,812.0,199.0,124,1,2645.300000011921,486391.89999997616,7039,lead,NF,C,481986,481986,480157,481270,480158,482802,481787,481787,482802,122
120,test,1,inc,1,m,Mon Jan 20 2025 15:08:46 GMT-0600 (Central Standard Time),491270.0,kiwi,1000,I,m,m,None,694,495.0,199.0,127,1,2228.600000023842,489041.39999997616,7039,lead,NF,C,484535,484535,482806,483819,482808,485035,484336,484336,485035,123
121,test,1,inc,1,m,Mon Jan 20 2025 15:08:46 GMT-0600 (Central Standard Time),493519.1999999881,raisin,1100,I,m,m,None,609,410.0,199.0,96,1,2245.5,491273.6999999881,7039,cobalt,NF,C,486868,486868,485039,486152,485040,487284,486669,486669,487284,124
122,test,1,con,1,m,Mon Jan 20 2025 15:08:46 GMT-0600 (Central Standard Time),495685.1999999881,copper,1000,I,m,m,None,628,429.0,199.0,75,1,2162.4000000059605,493522.7999999821,7039,copper,NF,C,489017,489017,487288,488301,487289,489450,488818,488818,489450,125
123,test,1,con,1,m,Mon Jan 20 2025 15:08:46 GMT-0600 (Central Standard Time),497884.59999999404,zinc,900,I,m,m,None,754,555.0,199.0,114,1,2195.7000000178814,495688.89999997616,7039,zinc,NF,C,491083,491083,489454,490368,489455,491650,490884,490884,491650,126
124,test,1,con,1,m,Mon Jan 20 2025 15:08:46 GMT-0600 (Central Standard Time),499733.7999999821,zinc,800,I,m,m,None,502,287.0,215.0,113,1,1845.5999999940395,497888.1999999881,7039,zinc,NF,C,493199,493199,491653,492466,491655,493499,492984,492984,493499,127
125,test,1,con,1,m,Mon Jan 20 2025 15:08:46 GMT-0600 (Central Standard Time),501716.59999999404,lead,800,I,m,m,None,645,446.0,199.0,121,1,1979.300000011921,499737.2999999821,7039,lead,NF,C,495032,495032,493502,494318,493504,495482,494833,494833,495482,128
