acc_sum,block,block_c,condition,correct,correct_response,datetime,endtime,flanker,jitter,project,response,response_test_buffer_response,response_test_target_response,response_time,response_time_test_buffer_response,response_time_test_target_response,row_sel,session_number,start_end,starttime,subject_id,target,task,task_vers,time_test_buffer,time_test_buffer_response,time_test_constants,time_test_flanker,time_test_jitter,time_test_logger,time_test_target,time_test_target_response,time_test_variables,trial
1,prac,1,con,1,z,Fri Feb 21 2025 16:09:04 GMT-0600 (Central Standard Time),121576.5,brutal,800,O,z,,,732,,,13,1,2826.399999999907,118750.1000000001,7056,brutal,AF,B,,,,,,,,,,1
1,prac,1,inc,0,z,Fri Feb 21 2025 16:09:04 GMT-0600 (Central Standard Time),124241.1000000001,film,900,O,m,,,465,,,14,1,2657.600000000093,121583.5,7056,hate,AF,B,,,,,,,,,,2
2,prac,1,con,1,m,Fri Feb 21 2025 16:09:04 GMT-0600 (Central Standard Time),127056.70000000019,remote,1000,O,m,,,515,,,7,1,2810.2000000001863,124246.5,7056,remote,AF,B,,,,,,,,,,3
3,prac,1,con,1,m,Fri Feb 21 2025 16:09:04 GMT-0600 (Central Standard Time),130020.6000000001,bell,1000,O,m,,,650,,,3,1,2957.100000000093,127063.5,7056,bell,AF,B,,,,,,,,,,4
4,prac,1,inc,1,m,Fri Feb 21 2025 16:09:04 GMT-0600 (Central Standard Time),132970.5,brutal,1100,O,m,,,547,,,8,1,2942.5,130028.0,7056,window,AF,B,,,,,,,,,,5
5,prac,1,con,1,z,Fri Feb 21 2025 16:09:04 GMT-0600 (Central Standard Time),135654.5,rage,1000,O,z,,,385,,,15,1,2677.2000000001863,132977.2999999998,7056,rage,AF,B,,,,,,,,,,6
6,prac,1,inc,1,m,Fri Feb 21 2025 16:09:04 GMT-0600 (Central Standard Time),138435.7000000002,kind,900,O,m,,,571,,,2,1,2776.0,135659.7000000002,7056,rock,AF,B,,,,,,,,,,7
7,prac,1,inc,1,m,Fri Feb 21 2025 16:09:04 GMT-0600 (Central Standard Time),141419.0,hate,1100,O,m,,,574,,,4,1,2977.100000000093,138441.8999999999,7056,film,AF,B,,,,,,,,,,8
8,prac,1,inc,1,z,Fri Feb 21 2025 16:09:04 GMT-0600 (Central Standard Time),144401.3999999999,rock,900,O,z,,,781,,,10,1,2977.399999999907,141424.0,7056,kind,AF,B,,,,,,,,,,9
9,prac,1,con,1,z,Fri Feb 21 2025 16:09:04 GMT-0600 (Central Standard Time),147165.6000000001,elated,800,O,z,,,667,,,9,1,2758.600000000093,144407.0,7056,elated,AF,B,,,,,,,,,,10
9,prac,1,inc,0,z,Fri Feb 21 2025 16:09:04 GMT-0600 (Central Standard Time),150281.5,napkin,1100,O,m,,,705,,,12,1,3109.399999999907,147172.1000000001,7056,friend,AF,B,,,,,,,,,,11
10,prac,1,con,1,z,Fri Feb 21 2025 16:09:04 GMT-0600 (Central Standard Time),153430.7000000002,love,1000,O,z,,,858,,,11,1,3142.8000000002794,150287.8999999999,7056,love,AF,B,,,,,,,,,,12
11,prac,1,inc,1,m,Fri Feb 21 2025 16:09:04 GMT-0600 (Central Standard Time),156296.2000000002,elated,900,O,m,,,657,,,6,1,2859.8000000002794,153436.3999999999,7056,napkin,AF,B,,,,,,,,,,13
11,prac,1,con,0,m,Fri Feb 21 2025 16:09:04 GMT-0600 (Central Standard Time),159046.6000000001,step,800,O,z,,,642,,,1,1,2744.5,156302.1000000001,7056,step,AF,B,,,,,,,,,,14
12,prac,1,inc,1,z,Fri Feb 21 2025 16:09:04 GMT-0600 (Central Standard Time),162263.2999999998,window,1100,O,z,,,810,,,16,1,3210.5,159052.7999999998,7056,temper,AF,B,,,,,,,,,,15
13,prac,1,con,1,m,Fri Feb 21 2025 16:09:04 GMT-0600 (Central Standard Time),165060.7999999998,jacket,800,O,m,,,693,,,5,1,2794.0999999996275,162266.7000000002,7056,jacket,AF,B,,,,,,,,,,16
1,test,1,inc,1,z,Fri Feb 21 2025 16:09:04 GMT-0600 (Central Standard Time),188237.0,film,1100,O,z,z,None,671,470.0,201.0,48,1,2311.899999999907,185925.1000000001,7056,hate,AF,B,185808,185808,183977,185091,183977,186289,185607,185607,186289,1
2,test,1,inc,1,m,Fri Feb 21 2025 16:09:04 GMT-0600 (Central Standard Time),190434.8999999999,hate,1100,O,m,m,None,564,365.0,199.0,80,1,2190.5,188244.3999999999,7056,rock,AF,B,188106,188106,186296,187405,186297,188487,187906,187906,188487,2
2,test,1,inc,0,m,Fri Feb 21 2025 16:09:04 GMT-0600 (Central Standard Time),192786.0,kind,900,O,z,z,None,908,708.0,200.0,86,1,2344.0,190442.0,7056,bell,AF,B,190122,190122,188494,189407,188494,190838,189921,189921,190838,3
2,test,1,inc,0,m,Fri Feb 21 2025 16:09:04 GMT-0600 (Central Standard Time),194984.7999999998,elated,800,O,z,z,None,850,651.0,199.0,117,1,2194.0,192790.7999999998,7056,remote,AF,B,192369,192370,190843,191655,190843,193037,192170,192170,193037,4
3,test,1,con,1,z,Fri Feb 21 2025 16:09:04 GMT-0600 (Central Standard Time),197099.6000000001,love,800,O,z,z,None,780,579.0,201.0,17,1,2110.399999999907,194989.2000000002,7056,love,AF,B,194572,194572,193041,193854,193042,195152,194370,194370,195152,5
4,test,1,con,1,m,Fri Feb 21 2025 16:09:04 GMT-0600 (Central Standard Time),199566.6000000001,step,1100,O,m,m,None,819,620.0,199.0,68,1,2461.399999999907,197105.2000000002,7056,step,AF,B,196986,196986,195157,196270,195157,197619,196786,196786,197619,6
5,test,1,con,1,z,Fri Feb 21 2025 16:09:04 GMT-0600 (Central Standard Time),201783.6000000001,elated,1100,O,z,z,None,569,353.0,216.0,4,1,2211.5,199572.1000000001,7056,elated,AF,B,199469,199469,197624,198736,197624,199836,199253,199253,199836,7
6,test,1,inc,1,z,Fri Feb 21 2025 16:09:04 GMT-0600 (Central Standard Time),204180.6000000001,film,1100,O,z,z,None,761,562.0,199.0,24,1,2390.7000000001863,201789.8999999999,7056,love,AF,B,201668,201668,199842,200952,199842,202233,201468,201468,202233,8
7,test,1,inc,1,m,Fri Feb 21 2025 16:09:04 GMT-0600 (Central Standard Time),206514.2999999998,hate,1100,O,m,m,None,697,498.0,199.0,72,1,2329.5,204184.7999999998,7056,step,AF,B,204067,204068,202237,203352,202237,204566,203867,203868,204566,9
8,test,1,con,1,z,Fri Feb 21 2025 16:09:04 GMT-0600 (Central Standard Time),208729.6000000001,friend,900,O,z,z,None,768,567.0,201.0,26,1,2209.100000000093,206520.5,7056,friend,AF,B,206200,206200,204573,205484,204573,206782,205999,205999,206782,10
9,test,1,inc,1,m,Fri Feb 21 2025 16:09:04 GMT-0600 (Central Standard Time),210862.2000000002,kind,900,O,m,m,None,685,485.0,200.0,94,1,2126.4000000003725,208735.7999999998,7056,film,AF,B,208417,208417,206788,207699,206788,208914,208216,208216,208914,11
10,test,1,inc,1,z,Fri Feb 21 2025 16:09:04 GMT-0600 (Central Standard Time),212928.7999999998,napkin,900,O,z,z,None,625,425.0,200.0,62,1,2062.1999999997206,210866.6000000001,7056,temper,AF,B,210549,210549,208919,209831,208919,210981,210348,210348,210981,12
11,test,1,inc,1,m,Fri Feb 21 2025 16:09:04 GMT-0600 (Central Standard Time),215179.0,kind,900,O,m,m,None,815,615.0,200.0,70,1,2246.2999999998137,212932.7000000002,7056,step,AF,B,212615,212615,210985,211899,210985,213231,212415,212415,213231,13
12,test,1,inc,1,z,Fri Feb 21 2025 16:09:04 GMT-0600 (Central Standard Time),217212.2000000002,jacket,800,O,z,z,None,691,490.0,201.0,5,1,2028.0,215184.2000000002,7056,elated,AF,B,214765,214765,213236,214048,213237,215264,214563,214563,215264,14
13,test,1,con,1,m,Fri Feb 21 2025 16:09:04 GMT-0600 (Central Standard Time),219310.0,film,900,O,m,m,None,668,453.0,215.0,90,1,2093.5,217216.5,7056,film,AF,B,216896,216897,215269,216178,215269,217362,216681,216681,217362,15
14,test,1,con,1,z,Fri Feb 21 2025 16:09:04 GMT-0600 (Central Standard Time),221243.5,elated,800,O,z,z,None,598,398.0,200.0,1,1,1927.8999999999069,219315.6000000001,7056,elated,AF,B,218897,218897,217368,218179,217368,219296,218696,218696,219295,16
15,test,1,con,1,z,Fri Feb 21 2025 16:09:04 GMT-0600 (Central Standard Time),223391.7000000002,hate,1000,O,z,z,None,608,392.0,216.0,43,1,2142.8000000002794,221248.8999999999,7056,hate,AF,B,221045,221046,219301,220312,219301,221444,220829,220829,221444,17
16,test,1,con,1,m,Fri Feb 21 2025 16:09:04 GMT-0600 (Central Standard Time),225340.2000000002,napkin,800,O,m,m,None,611,396.0,215.0,105,1,1943.7000000001863,223396.5,7056,napkin,AF,B,222994,222994,221449,222261,221449,223392,222778,222778,223392,18
16,test,1,con,0,m,Fri Feb 21 2025 16:09:04 GMT-0600 (Central Standard Time),227606.7999999998,film,1100,O,z,z,None,629,427.0,202.0,92,1,2261.5,225345.2999999998,7056,film,AF,B,225227,225227,223397,224511,223398,225659,225025,225025,225659,19
16,test,1,inc,0,m,Fri Feb 21 2025 16:09:04 GMT-0600 (Central Standard Time),229572.7000000002,elated,800,O,z,z,None,619,420.0,199.0,125,1,1961.4000000003725,227611.2999999998,7056,window,AF,B,227193,227193,225663,226478,225664,227625,226993,226993,227625,20
17,test,1,con,1,m,Fri Feb 21 2025 16:09:04 GMT-0600 (Central Standard Time),231589.0,window,900,O,m,m,None,571,371.0,200.0,122,1,2012.1000000000931,229576.8999999999,7056,window,AF,B,229259,229259,227629,228541,227629,229641,229059,229059,229641,21
17,test,1,inc,0,m,Fri Feb 21 2025 16:09:04 GMT-0600 (Central Standard Time),233922.7999999998,friend,1100,O,z,z,None,701,499.0,202.0,120,1,2328.5,231594.2999999998,7056,remote,AF,B,231459,231459,229646,230756,229647,231975,231257,231257,231975,22
18,test,1,inc,1,z,Fri Feb 21 2025 16:09:04 GMT-0600 (Central Standard Time),236122.3999999999,remote,1000,O,z,z,None,665,466.0,199.0,7,1,2193.7999999998137,233928.6000000001,7056,elated,AF,B,233708,233708,231981,232991,231981,234174,233508,233508,234174,23
19,test,1,inc,1,m,Fri Feb 21 2025 16:09:04 GMT-0600 (Central Standard Time),238354.0,hate,1100,O,m,m,None,591,391.0,200.0,88,1,2226.899999999907,236127.1000000001,7056,bell,AF,B,236007,236007,234179,235290,234179,236406,235806,235806,236406,24
20,test,1,con,1,z,Fri Feb 21 2025 16:09:04 GMT-0600 (Central Standard Time),240320.5,brutal,800,O,z,z,None,643,443.0,200.0,33,1,1962.2999999998137,238358.2000000002,7056,brutal,AF,B,237923,237923,236410,237222,236411,238373,237723,237723,238372,25
21,test,1,inc,1,z,Fri Feb 21 2025 16:09:04 GMT-0600 (Central Standard Time),242685.2999999998,bell,1000,O,z,z,None,828,628.0,200.0,23,1,2360.1999999997206,240325.1000000001,7056,love,AF,B,240106,240106,238377,239389,238378,240737,239905,239905,240737,26
22,test,1,inc,1,z,Fri Feb 21 2025 16:09:04 GMT-0600 (Central Standard Time),244820.6000000001,step,800,O,z,z,None,800,600.0,200.0,21,1,2130.8000000002794,242689.7999999998,7056,love,AF,B,242272,242272,240742,241554,240742,242873,242072,242072,242873,27
23,test,1,inc,1,m,Fri Feb 21 2025 16:09:04 GMT-0600 (Central Standard Time),246934.3999999999,temper,1000,O,m,m,None,570,371.0,199.0,111,1,2109.6999999997206,244824.7000000002,7056,napkin,AF,B,244603,244603,242877,243887,242877,244986,244404,244404,244986,28
24,test,1,con,1,z,Fri Feb 21 2025 16:09:04 GMT-0600 (Central Standard Time),249100.5,love,900,O,z,z,None,731,518.0,213.0,18,1,2161.899999999907,246938.6000000001,7056,love,AF,B,246634,246634,244991,245905,244991,247153,246421,246421,247153,29
25,test,1,con,1,z,Fri Feb 21 2025 16:09:04 GMT-0600 (Central Standard Time),251348.7999999998,rage,1100,O,z,z,None,599,399.0,200.0,52,1,2243.899999999907,249104.8999999999,7056,rage,AF,B,248986,248986,247157,248270,247157,249401,248786,248786,249401,30
26,test,1,con,1,z,Fri Feb 21 2025 16:09:04 GMT-0600 (Central Standard Time),253598.7999999998,kind,1000,O,z,z,None,709,510.0,199.0,11,1,2243.0,251355.7999999998,7056,kind,AF,B,251135,251136,249408,250419,249408,251651,250936,250936,251651,31
27,test,1,con,1,m,Fri Feb 21 2025 16:09:04 GMT-0600 (Central Standard Time),255948.3999999999,rock,1100,O,m,m,None,706,505.0,201.0,76,1,2345.2999999998137,253603.1000000001,7056,rock,AF,B,253484,253484,251655,252769,251655,254001,253282,253282,254000,32
28,test,1,con,1,z,Fri Feb 21 2025 16:09:04 GMT-0600 (Central Standard Time),258414.2999999998,friend,1100,O,z,z,None,828,628.0,200.0,28,1,2459.899999999907,255954.3999999999,7056,friend,AF,B,255834,255834,254006,255117,254007,256466,255633,255633,256466,33
29,test,1,inc,1,z,Fri Feb 21 2025 16:09:04 GMT-0600 (Central Standard Time),260813.0,film,1100,O,z,z,None,761,545.0,216.0,56,1,2394.7999999998137,258418.2000000002,7056,rage,AF,B,258317,258317,256470,257583,256471,258865,258101,258101,258865,34
30,test,1,con,1,m,Fri Feb 21 2025 16:09:04 GMT-0600 (Central Standard Time),262946.7999999998,rock,1000,O,m,m,None,583,383.0,200.0,75,1,2127.5,260819.2999999998,7056,rock,AF,B,260600,260600,258871,259883,258872,260999,260400,260400,260999,35
30,test,1,inc,0,m,Fri Feb 21 2025 16:09:04 GMT-0600 (Central Standard Time),265129.2000000002,elated,800,O,z,z,None,840,625.0,215.0,109,1,2176.4000000003725,262952.7999999998,7056,napkin,AF,B,262549,262549,261005,261815,261005,263181,262333,262333,263181,36
31,test,1,inc,1,m,Fri Feb 21 2025 16:09:04 GMT-0600 (Central Standard Time),267411.0,friend,1100,O,m,m,None,648,449.0,199.0,112,1,2276.899999999907,265134.1000000001,7056,napkin,AF,B,265014,265014,263186,264298,263186,265463,264814,264814,265463,37
32,test,1,inc,1,m,Fri Feb 21 2025 16:09:04 GMT-0600 (Central Standard Time),269543.2000000002,brutal,900,O,m,m,None,686,486.0,200.0,102,1,2127.600000000093,267415.6000000001,7056,jacket,AF,B,267096,267096,265468,266381,265468,267595,266896,266896,267595,38
33,test,1,inc,1,z,Fri Feb 21 2025 16:09:04 GMT-0600 (Central Standard Time),271676.5,napkin,900,O,z,z,None,704,488.0,216.0,38,1,2126.600000000093,269549.8999999999,7056,brutal,AF,B,269230,269230,267602,268512,267602,269729,269014,269014,269728,39
34,test,1,con,1,z,Fri Feb 21 2025 16:09:04 GMT-0600 (Central Standard Time),273793.1000000001,love,1000,O,z,z,None,568,367.0,201.0,19,1,2110.899999999907,271682.2000000002,7056,love,AF,B,271462,271462,269734,270745,269735,271845,271261,271261,271845,40
34,test,1,con,0,z,Fri Feb 21 2025 16:09:04 GMT-0600 (Central Standard Time),276541.5,friend,1000,O,m,m,None,1214,1015.0,199.0,27,1,2744.0,273797.5,7056,friend,AF,B,273578,273578,271850,272862,271850,274594,273379,273379,274594,41
35,test,1,con,1,z,Fri Feb 21 2025 16:09:04 GMT-0600 (Central Standard Time),279041.2000000002,hate,1100,O,z,z,None,849,650.0,199.0,44,1,2494.0,276547.2000000002,7056,hate,AF,B,276428,276428,274599,275712,274600,277093,276228,276228,277093,42
36,test,1,inc,1,m,Fri Feb 21 2025 16:09:04 GMT-0600 (Central Standard Time),281240.2000000002,love,1000,O,m,m,None,659,443.0,216.0,79,1,2193.5,279046.7000000002,7056,rock,AF,B,278843,278843,277099,278110,277099,279292,278627,278627,279292,43
36,test,1,con,0,m,Fri Feb 21 2025 16:09:04 GMT-0600 (Central Standard Time),283372.2999999998,window,800,O,z,z,None,781,566.0,215.0,121,1,2127.1999999997206,281245.1000000001,7056,window,AF,B,280842,280842,279297,280110,279297,281424,280626,280626,281424,44
36,test,1,inc,0,m,Fri Feb 21 2025 16:09:04 GMT-0600 (Central Standard Time),285838.7999999998,love,1000,O,z,z,None,933,734.0,199.0,87,1,2461.6999999997206,283377.1000000001,7056,bell,AF,B,283143,283143,281429,282441,281429,283891,282943,282943,283891,45
37,test,1,con,1,z,Fri Feb 21 2025 16:09:04 GMT-0600 (Central Standard Time),288137.8999999999,brutal,900,O,z,z,None,860,659.0,201.0,34,1,2295.2999999998137,285842.6000000001,7056,brutal,AF,B,285524,285524,283895,284808,283895,286190,285322,285322,286190,46
38,test,1,con,1,m,Fri Feb 21 2025 16:09:04 GMT-0600 (Central Standard Time),290236.7000000002,step,800,O,m,m,None,753,537.0,216.0,65,1,2094.5,288142.2000000002,7056,step,AF,B,287741,287741,286194,287006,286195,288289,287524,287524,288289,47
39,test,1,inc,1,z,Fri Feb 21 2025 16:09:04 GMT-0600 (Central Standard Time),292804.6000000001,window,1100,O,z,z,None,932,715.0,217.0,64,1,2563.8000000002794,290240.7999999998,7056,temper,AF,B,290141,290141,288293,289408,288293,290857,289923,289923,290857,48
40,test,1,con,1,m,Fri Feb 21 2025 16:09:04 GMT-0600 (Central Standard Time),295184.2999999998,napkin,1100,O,m,m,None,739,525.0,214.0,108,1,2372.1999999997206,292812.1000000001,7056,napkin,AF,B,292704,292704,290864,291974,290864,293236,292490,292490,293236,49
41,test,1,inc,1,z,Fri Feb 21 2025 16:09:04 GMT-0600 (Central Standard Time),297335.6000000001,rock,900,O,z,z,None,709,510.0,199.0,54,1,2144.7000000001863,295190.8999999999,7056,rage,AF,B,294872,294872,293243,294156,293243,295388,294672,294672,295388,50
41,test,1,con,0,m,Fri Feb 21 2025 16:09:04 GMT-0600 (Central Standard Time),299584.3999999999,bell,1100,O,z,z,None,609,410.0,199.0,84,1,2242.899999999907,297341.5,7056,bell,AF,B,297219,297220,295394,296505,295394,297636,297020,297020,297636,51
42,test,1,inc,1,m,Fri Feb 21 2025 16:09:04 GMT-0600 (Central Standard Time),301950.3999999999,hate,1100,O,m,m,None,718,519.0,199.0,96,1,2361.5,299588.8999999999,7056,film,AF,B,299471,299471,297641,298753,297641,300002,299272,299272,300002,52
43,test,1,inc,1,z,Fri Feb 21 2025 16:09:04 GMT-0600 (Central Standard Time),304199.6000000001,bell,1000,O,z,z,None,724,509.0,215.0,15,1,2245.3000000002794,301954.2999999998,7056,kind,AF,B,301737,301737,300006,301020,300007,302252,301521,301521,302252,53
44,test,1,inc,1,m,Fri Feb 21 2025 16:09:04 GMT-0600 (Central Standard Time),306415.2999999998,kind,900,O,m,m,None,766,550.0,216.0,78,1,2210.399999999907,304204.8999999999,7056,rock,AF,B,303903,303903,302257,303169,302257,304467,303686,303686,304467,54
45,test,1,inc,1,z,Fri Feb 21 2025 16:09:04 GMT-0600 (Central Standard Time),308516.5,step,800,O,z,z,None,765,550.0,215.0,53,1,2097.399999999907,306419.1000000001,7056,rage,AF,B,306018,306018,304471,305286,304471,306569,305802,305802,306569,55
46,test,1,inc,1,z,Fri Feb 21 2025 16:09:04 GMT-0600 (Central Standard Time),310779.8999999999,bell,1000,O,z,z,None,729,530.0,199.0,55,1,2259.1999999997206,308520.7000000002,7056,rage,AF,B,308300,308300,306573,307584,306573,308832,308101,308101,308832,56
46,test,1,con,0,z,Fri Feb 21 2025 16:09:04 GMT-0600 (Central Standard Time),313213.6000000001,temper,1100,O,m,m,None,812,612.0,200.0,60,1,2427.3000000002794,310786.2999999998,7056,temper,AF,B,310651,310651,308838,309948,308839,311266,310450,310450,311266,57
46,test,1,inc,0,m,Fri Feb 21 2025 16:09:04 GMT-0600 (Central Standard Time),315229.7999999998,rage,800,O,z,z,None,669,455.0,214.0,69,1,2010.5999999996275,313219.2000000002,7056,step,AF,B,312815,312815,311271,312083,311272,313282,312600,312600,313282,58
47,test,1,con,1,z,Fri Feb 21 2025 16:09:04 GMT-0600 (Central Standard Time),317778.2999999998,temper,900,O,z,z,None,1105,891.0,214.0,58,1,2543.1999999997206,315235.1000000001,7056,temper,AF,B,314931,314931,313287,314199,313288,315830,314716,314716,315830,59
48,test,1,con,1,m,Fri Feb 21 2025 16:09:04 GMT-0600 (Central Standard Time),320542.8999999999,bell,1000,O,m,m,None,1219,1020.0,199.0,83,1,2760.1999999997206,317782.7000000002,7056,bell,AF,B,317561,317561,315835,316848,315835,318595,317362,317362,318595,60
49,test,1,inc,1,z,Fri Feb 21 2025 16:09:04 GMT-0600 (Central Standard Time),322874.7999999998,film,1100,O,z,z,None,689,487.0,202.0,16,1,2328.5,320546.2999999998,7056,kind,AF,B,320430,320430,318598,319713,318599,320927,320227,320227,320927,61
49,test,1,con,0,m,Fri Feb 21 2025 16:09:04 GMT-0600 (Central Standard Time),325159.1000000001,film,1000,O,z,z,None,760,560.0,200.0,91,1,2281.3000000002794,322877.7999999998,7056,film,AF,B,322645,322645,320930,321944,320930,323211,322445,322445,323211,62
49,test,1,inc,0,m,Fri Feb 21 2025 16:09:04 GMT-0600 (Central Standard Time),327140.3999999999,rage,800,O,z,z,None,644,443.0,201.0,93,1,1977.3999999999069,325163.0,7056,film,AF,B,324746,324746,323215,324030,323215,325192,324544,324544,325192,63
49,test,1,con,0,m,Fri Feb 21 2025 16:09:04 GMT-0600 (Central Standard Time),329557.7999999998,remote,1000,O,z,z,None,868,655.0,213.0,115,1,2414.0999999996275,327143.7000000002,7056,remote,AF,B,326943,326943,325196,326211,325196,327610,326729,326729,327610,64
50,test,1,con,1,z,Fri Feb 21 2025 16:09:04 GMT-0600 (Central Standard Time),331841.7000000002,brutal,1000,O,z,z,None,736,533.0,203.0,35,1,2278.9000000003725,329562.7999999998,7056,brutal,AF,B,329345,329345,327615,328626,327615,329894,329141,329141,329894,65
51,test,1,con,1,m,Fri Feb 21 2025 16:09:04 GMT-0600 (Central Standard Time),334155.8999999999,window,1100,O,m,m,None,672,472.0,200.0,124,1,2309.100000000093,331846.7999999998,7056,window,AF,B,331727,331727,329899,331009,329899,332208,331527,331527,332208,66
52,test,1,inc,1,m,Fri Feb 21 2025 16:09:04 GMT-0600 (Central Standard Time),336555.0,love,1000,O,m,m,None,864,651.0,213.0,71,1,2393.600000000093,334161.3999999999,7056,step,AF,B,333956,333956,332213,333225,332214,334607,333743,333743,334607,67
53,test,1,con,1,z,Fri Feb 21 2025 16:09:04 GMT-0600 (Central Standard Time),338855.2000000002,elated,1000,O,z,z,None,750,534.0,216.0,3,1,2296.8000000002794,336558.3999999999,7056,elated,AF,B,336359,336359,334610,335624,334611,336907,336143,336143,336907,68
54,test,1,con,1,m,Fri Feb 21 2025 16:09:04 GMT-0600 (Central Standard Time),340955.3999999999,napkin,1000,O,m,m,None,554,340.0,214.0,107,1,2095.5,338859.8999999999,7056,napkin,AF,B,338657,338657,336912,337925,336912,339007,338442,338442,339007,69
55,test,1,inc,1,z,Fri Feb 21 2025 16:09:04 GMT-0600 (Central Standard Time),343287.0,window,1100,O,z,z,None,693,493.0,200.0,40,1,2324.2999999998137,340962.7000000002,7056,brutal,AF,B,340841,340841,339015,340126,339015,341339,340641,340641,341339,70
55,test,1,inc,0,z,Fri Feb 21 2025 16:09:04 GMT-0600 (Central Standard Time),345670.0,napkin,900,O,m,m,None,944,744.0,200.0,30,1,2379.399999999907,343290.6000000001,7056,friend,AF,B,342974,342974,341343,342257,341343,343722,342773,342773,343722,71
56,test,1,con,1,m,Fri Feb 21 2025 16:09:04 GMT-0600 (Central Standard Time),348368.2999999998,jacket,1100,O,m,m,None,1058,859.0,199.0,100,1,2693.6999999997206,345674.6000000001,7056,jacket,AF,B,345554,345554,343727,344839,343727,346420,345354,345354,346420,72
57,test,1,con,1,z,Fri Feb 21 2025 16:09:04 GMT-0600 (Central Standard Time),350467.7999999998,kind,1100,O,z,z,None,463,248.0,215.0,12,1,2094.1999999997206,348373.6000000001,7056,kind,AF,B,348272,348272,346426,347537,346426,348520,348056,348056,348520,73
57,test,1,inc,0,m,Fri Feb 21 2025 16:09:04 GMT-0600 (Central Standard Time),352749.8999999999,temper,1000,O,z,z,None,760,561.0,199.0,119,1,2278.899999999907,350471.0,7056,remote,AF,B,350237,350237,348523,349536,348523,350802,350038,350038,350802,74
58,test,1,inc,1,z,Fri Feb 21 2025 16:09:04 GMT-0600 (Central Standard Time),354616.2999999998,step,800,O,z,z,None,540,325.0,215.0,13,1,1862.0,352754.2999999998,7056,kind,AF,B,352337,352337,350806,351620,350807,352668,352121,352121,352668,75
59,test,1,con,1,z,Fri Feb 21 2025 16:09:04 GMT-0600 (Central Standard Time),356483.2999999998,kind,800,O,z,z,None,533,317.0,216.0,9,1,1863.0,354620.2999999998,7056,kind,AF,B,354202,354202,352672,353484,352673,354536,353986,353986,354535,76
60,test,1,con,1,z,Fri Feb 21 2025 16:09:04 GMT-0600 (Central Standard Time),358450.8999999999,kind,900,O,z,z,None,536,335.0,201.0,10,1,1961.5,356489.3999999999,7056,kind,AF,B,356168,356168,354541,355453,354542,356503,355967,355967,356503,77
60,test,1,inc,0,m,Fri Feb 21 2025 16:09:04 GMT-0600 (Central Standard Time),360563.7999999998,temper,1000,O,z,z,None,578,362.0,216.0,127,1,2108.6999999997206,358455.1000000001,7056,window,AF,B,358253,358253,356507,357517,356507,358616,358036,358036,358616,78
61,test,1,con,1,z,Fri Feb 21 2025 16:09:04 GMT-0600 (Central Standard Time),362613.1000000001,hate,900,O,z,z,None,611,411.0,200.0,42,1,2045.1000000000931,360568.0,7056,hate,AF,B,360251,360251,358620,359536,358620,360665,360051,360051,360665,79
62,test,1,inc,1,z,Fri Feb 21 2025 16:09:04 GMT-0600 (Central Standard Time),364847.1000000001,window,1100,O,z,z,None,592,377.0,215.0,32,1,2230.600000000093,362616.5,7056,friend,AF,B,362517,362517,360669,361784,360669,362899,362301,362301,362899,80
63,test,1,con,1,z,Fri Feb 21 2025 16:09:04 GMT-0600 (Central Standard Time),367045.5,love,1100,O,z,z,None,551,351.0,200.0,20,1,2194.399999999907,364851.1000000001,7056,love,AF,B,364734,364734,362903,364017,362904,365098,364533,364533,365097,81
64,test,1,con,1,m,Fri Feb 21 2025 16:09:04 GMT-0600 (Central Standard Time),369128.2000000002,jacket,900,O,m,m,None,633,433.0,200.0,98,1,2077.5,367050.7000000002,7056,jacket,AF,B,366732,366732,365103,366016,365103,367180,366532,366532,367180,82
64,test,1,inc,0,m,Fri Feb 21 2025 16:09:04 GMT-0600 (Central Standard Time),371294.5,love,1000,O,z,z,None,627,411.0,216.0,95,1,2159.399999999907,369135.1000000001,7056,film,AF,B,368931,368931,367187,368199,367187,369347,368715,368715,369347,83
65,test,1,con,1,z,Fri Feb 21 2025 16:09:04 GMT-0600 (Central Standard Time),373546.0,temper,1000,O,z,z,None,717,517.0,200.0,59,1,2247.600000000093,371298.3999999999,7056,temper,AF,B,371081,371081,369350,370364,369351,371598,370880,370880,371598,84
65,test,1,con,0,m,Fri Feb 21 2025 16:09:04 GMT-0600 (Central Standard Time),375576.2000000002,remote,800,O,z,z,None,692,492.0,200.0,113,1,2025.8000000002794,373550.3999999999,7056,remote,AF,B,373130,373131,371602,372414,371603,373628,372930,372930,373628,85
66,test,1,inc,1,z,Fri Feb 21 2025 16:09:04 GMT-0600 (Central Standard Time),377726.2999999998,jacket,800,O,z,z,None,801,601.0,200.0,61,1,2146.0,375580.2999999998,7056,temper,AF,B,375164,375164,373632,374446,373633,375778,374963,374963,375778,86
67,test,1,inc,1,m,Fri Feb 21 2025 16:09:04 GMT-0600 (Central Standard Time),379643.3999999999,rage,800,O,m,m,None,598,398.0,200.0,85,1,1912.2999999998137,377731.1000000001,7056,bell,AF,B,377296,377296,375783,376594,375783,377696,377095,377095,377695,87
68,test,1,con,1,m,Fri Feb 21 2025 16:09:04 GMT-0600 (Central Standard Time),381709.0,jacket,1000,O,m,m,None,522,323.0,199.0,99,1,2061.2000000001863,379647.7999999998,7056,jacket,AF,B,379426,379427,377700,378713,377700,379761,379227,379227,379761,88
69,test,1,con,1,m,Fri Feb 21 2025 16:09:04 GMT-0600 (Central Standard Time),383541.5,bell,900,O,m,m,None,396,197.0,199.0,82,1,1827.5,381714.0,7056,bell,AF,B,381393,381393,379766,380677,379766,381594,381193,381193,381594,89
69,test,1,inc,0,m,Fri Feb 21 2025 16:09:04 GMT-0600 (Central Standard Time),385323.8999999999,brutal,900,O,z,z,None,348,134.0,214.0,118,1,1779.0,383544.8999999999,7056,remote,AF,B,383242,383242,381597,382510,381597,383376,383027,383027,383376,90
70,test,1,inc,1,z,Fri Feb 21 2025 16:09:04 GMT-0600 (Central Standard Time),387525.2000000002,bell,1000,O,z,z,None,667,467.0,200.0,47,1,2197.2000000001863,385328.0,7056,hate,AF,B,385110,385110,383380,384393,383380,385577,384909,384909,385577,91
71,test,1,con,1,m,Fri Feb 21 2025 16:09:04 GMT-0600 (Central Standard Time),389405.7999999998,napkin,900,O,m,m,None,437,237.0,200.0,106,1,1875.0,387530.7999999998,7056,napkin,AF,B,387209,387209,385583,386492,385583,387458,387008,387008,387458,92
72,test,1,con,1,z,Fri Feb 21 2025 16:09:04 GMT-0600 (Central Standard Time),391388.1000000001,rage,800,O,z,z,None,648,448.0,200.0,49,1,1977.3999999999069,389410.7000000002,7056,rage,AF,B,388992,388992,387463,388275,387463,389440,388791,388791,389440,93
72,test,1,con,0,m,Fri Feb 21 2025 16:09:04 GMT-0600 (Central Standard Time),393437.8999999999,bell,800,O,z,z,None,702,487.0,215.0,81,1,2045.0,391392.8999999999,7056,bell,AF,B,390991,390991,389445,390258,389445,391490,390776,390776,391490,94
73,test,1,inc,1,z,Fri Feb 21 2025 16:09:04 GMT-0600 (Central Standard Time),395470.8999999999,step,800,O,z,z,None,686,487.0,199.0,45,1,2028.0,393442.8999999999,7056,hate,AF,B,393023,393023,391495,392308,391495,393523,392824,392824,393523,95
73,test,1,con,0,m,Fri Feb 21 2025 16:09:04 GMT-0600 (Central Standard Time),397686.2999999998,remote,1100,O,z,z,None,568,368.0,200.0,116,1,2209.1999999997206,395477.1000000001,7056,remote,AF,B,395357,395357,393529,394640,393529,395738,395157,395157,395738,96
74,test,1,con,1,z,Fri Feb 21 2025 16:09:04 GMT-0600 (Central Standard Time),399486.7999999998,elated,900,O,z,z,None,361,145.0,216.0,2,1,1795.7999999998137,397691.0,7056,elated,AF,B,397390,397390,395743,396656,395743,397539,397173,397173,397539,97
74,test,1,inc,0,z,Fri Feb 21 2025 16:09:04 GMT-0600 (Central Standard Time),401436.7000000002,rock,900,O,m,m,None,516,317.0,199.0,22,1,1944.6000000000931,399492.1000000001,7056,love,AF,B,399171,399171,397544,398454,397545,399489,398972,398972,399489,98
75,test,1,con,1,m,Fri Feb 21 2025 16:09:04 GMT-0600 (Central Standard Time),403518.7999999998,jacket,800,O,m,m,None,760,545.0,215.0,97,1,2076.0999999996275,401442.7000000002,7056,jacket,AF,B,401021,401022,399495,400304,399495,401571,400806,400806,401571,99
76,test,1,inc,1,m,Fri Feb 21 2025 16:09:04 GMT-0600 (Central Standard Time),405584.0,brutal,900,O,m,m,None,642,443.0,199.0,110,1,2057.2999999998137,403526.7000000002,7056,napkin,AF,B,403188,403188,401579,402485,401579,403636,402988,402988,403636,100
77,test,1,con,1,m,Fri Feb 21 2025 16:09:04 GMT-0600 (Central Standard Time),407800.5,window,1000,O,m,m,None,668,468.0,200.0,123,1,2208.7000000001863,405591.7999999998,7056,window,AF,B,405370,405370,403644,404653,403644,405853,405169,405169,405853,101
78,test,1,inc,1,z,Fri Feb 21 2025 16:09:04 GMT-0600 (Central Standard Time),410000.8999999999,remote,1000,O,z,z,None,652,452.0,200.0,39,1,2190.6999999997206,407810.2000000002,7056,brutal,AF,B,407586,407586,405862,406871,405863,408053,407385,407385,408053,102
79,test,1,con,1,m,Fri Feb 21 2025 16:09:04 GMT-0600 (Central Standard Time),411982.5,film,800,O,m,m,None,637,437.0,200.0,89,1,1972.5,410010.0,7056,film,AF,B,409585,409585,408062,408869,408063,410035,409384,409384,410035,103
80,test,1,inc,1,z,Fri Feb 21 2025 16:09:04 GMT-0600 (Central Standard Time),414100.0,remote,1000,O,z,z,None,598,399.0,199.0,63,1,2106.2000000001863,411993.7999999998,7056,temper,AF,B,411752,411752,410046,411051,410047,412152,411553,411553,412152,104
81,test,1,con,1,z,Fri Feb 21 2025 16:09:04 GMT-0600 (Central Standard Time),415981.3999999999,temper,800,O,z,z,None,539,339.0,200.0,57,1,1874.6000000000931,414106.7999999998,7056,temper,AF,B,413683,413683,412159,412968,412159,414033,413483,413483,414033,105
82,test,1,inc,1,z,Fri Feb 21 2025 16:09:04 GMT-0600 (Central Standard Time),418179.3999999999,remote,1000,O,z,z,None,664,464.0,200.0,31,1,2192.899999999907,415986.5,7056,friend,AF,B,415767,415767,414039,415050,414039,416232,415566,415566,416231,106
83,test,1,con,1,z,Fri Feb 21 2025 16:09:04 GMT-0600 (Central Standard Time),420013.2999999998,friend,800,O,z,z,None,504,305.0,199.0,25,1,1825.6999999997206,418187.6000000001,7056,friend,AF,B,417749,417749,416240,417048,416240,418065,417550,417550,418065,107
84,test,1,con,1,m,Fri Feb 21 2025 16:09:04 GMT-0600 (Central Standard Time),421962.7999999998,remote,900,O,m,m,None,508,307.0,201.0,114,1,1943.5,420019.2999999998,7056,remote,AF,B,419700,419700,418071,418984,418072,420015,419499,419499,420015,108
85,test,1,inc,1,m,Fri Feb 21 2025 16:09:04 GMT-0600 (Central Standard Time),424211.6000000001,friend,1100,O,m,m,None,612,398.0,214.0,128,1,2241.2000000001863,421970.3999999999,7056,window,AF,B,421864,421864,420022,421132,420023,422264,421649,421649,422264,109
86,test,1,inc,1,z,Fri Feb 21 2025 16:09:04 GMT-0600 (Central Standard Time),426359.3999999999,rock,900,O,z,z,None,706,492.0,214.0,14,1,2141.600000000093,424217.7999999998,7056,kind,AF,B,423913,423913,422270,423181,422270,424411,423698,423698,424411,110
87,test,1,inc,1,m,Fri Feb 21 2025 16:09:04 GMT-0600 (Central Standard Time),428694.1000000001,brutal,900,O,m,m,None,898,699.0,199.0,126,1,2329.3000000002794,426364.7999999998,7056,window,AF,B,426047,426047,424417,425330,424417,426746,425847,425847,426746,111
87,test,1,con,0,m,Fri Feb 21 2025 16:09:04 GMT-0600 (Central Standard Time),430960.2999999998,step,1000,O,z,z,None,715,516.0,199.0,67,1,2259.0,428701.2999999998,7056,step,AF,B,428481,428481,426753,427765,426754,429012,428281,428281,429012,112
88,test,1,inc,1,z,Fri Feb 21 2025 16:09:04 GMT-0600 (Central Standard Time),432910.6000000001,jacket,800,O,z,z,None,616,416.0,200.0,29,1,1941.3000000002794,430969.2999999998,7056,friend,AF,B,430546,430546,429021,429828,429022,430963,430346,430346,430963,113
89,test,1,inc,1,m,Fri Feb 21 2025 16:09:04 GMT-0600 (Central Standard Time),434941.0,rage,800,O,m,m,None,686,487.0,199.0,77,1,2025.2000000001863,432915.7999999998,7056,rock,AF,B,432495,432495,430968,431778,430968,432993,432295,432295,432993,114
89,test,1,con,0,m,Fri Feb 21 2025 16:09:04 GMT-0600 (Central Standard Time),437042.8999999999,step,900,O,z,z,None,668,468.0,200.0,66,1,2099.2999999998137,434943.6000000001,7056,step,AF,B,434626,434626,432996,433915,432996,435095,434426,434426,435095,115
90,test,1,con,1,z,Fri Feb 21 2025 16:09:04 GMT-0600 (Central Standard Time),439323.3999999999,rage,1000,O,z,z,None,755,556.0,199.0,51,1,2275.600000000093,437047.7999999998,7056,rage,AF,B,436810,436810,435100,436107,435100,437375,436610,436610,437375,116
90,test,1,inc,0,z,Fri Feb 21 2025 16:09:04 GMT-0600 (Central Standard Time),441073.2999999998,jacket,800,O,m,m,None,407,208.0,199.0,37,1,1744.8999999999069,439328.3999999999,7056,brutal,AF,B,438910,438910,437380,438192,437381,439125,438710,438710,439125,117
91,test,1,inc,1,z,Fri Feb 21 2025 16:09:04 GMT-0600 (Central Standard Time),443571.3999999999,window,1100,O,z,z,None,862,647.0,215.0,8,1,2493.399999999907,441078.0,7056,elated,AF,B,440975,440975,439130,440242,439130,441624,440760,440760,441623,118
92,test,1,inc,1,z,Fri Feb 21 2025 16:09:04 GMT-0600 (Central Standard Time),445621.0,rock,900,O,z,z,None,603,387.0,216.0,46,1,2044.2999999998137,443576.7000000002,7056,hate,AF,B,443275,443275,441629,442539,441629,443673,443058,443058,443673,119
93,test,1,inc,1,m,Fri Feb 21 2025 16:09:04 GMT-0600 (Central Standard Time),447871.3999999999,friend,1100,O,m,m,None,611,396.0,215.0,104,1,2246.6999999997206,445624.7000000002,7056,jacket,AF,B,445522,445522,443677,444791,443677,445923,445307,445307,445923,120
93,test,1,inc,0,m,Fri Feb 21 2025 16:09:04 GMT-0600 (Central Standard Time),450087.7999999998,elated,800,O,z,z,None,886,687.0,199.0,101,1,2211.5,447876.2999999998,7056,jacket,AF,B,447440,447440,445928,446739,445929,448140,447240,447240,448140,121
93,test,1,inc,0,m,Fri Feb 21 2025 16:09:04 GMT-0600 (Central Standard Time),452151.6000000001,temper,1000,O,z,z,None,528,327.0,201.0,103,1,2056.899999999907,450094.7000000002,7056,jacket,AF,B,449872,449872,448147,449156,448147,450204,449670,449670,450204,122
93,test,1,inc,0,z,Fri Feb 21 2025 16:09:04 GMT-0600 (Central Standard Time),454036.5,napkin,900,O,m,m,None,466,267.0,199.0,6,1,1880.5,452156.0,7056,elated,AF,B,451821,451821,450208,451121,450208,452089,451622,451622,452089,123
94,test,1,con,1,m,Fri Feb 21 2025 16:09:04 GMT-0600 (Central Standard Time),456068.6000000001,rock,800,O,m,m,None,697,480.0,217.0,73,1,2027.1000000000931,454041.5,7056,rock,AF,B,453638,453638,452094,452905,452094,454121,453421,453421,454121,124
95,test,1,con,1,z,Fri Feb 21 2025 16:09:04 GMT-0600 (Central Standard Time),458218.3999999999,hate,800,O,z,z,None,813,599.0,214.0,41,1,2143.1999999997206,456075.2000000002,7056,hate,AF,B,455671,455671,454127,454938,454128,456270,455456,455456,456270,125
96,test,1,con,1,z,Fri Feb 21 2025 16:09:04 GMT-0600 (Central Standard Time),460500.0,brutal,1100,O,z,z,None,640,424.0,216.0,36,1,2276.100000000093,458223.8999999999,7056,brutal,AF,B,458119,458119,456276,457387,456276,458552,457903,457903,458552,126
97,test,1,con,1,m,Fri Feb 21 2025 16:09:04 GMT-0600 (Central Standard Time),462317.1000000001,rock,900,O,m,m,None,383,184.0,199.0,74,1,1812.0,460505.1000000001,7056,rock,AF,B,460185,460185,458557,459470,458558,460369,459986,459986,460369,127
98,test,1,con,1,z,Fri Feb 21 2025 16:09:04 GMT-0600 (Central Standard Time),464449.6000000001,rage,900,O,z,z,None,682,483.0,199.0,50,1,2127.5,462322.1000000001,7056,rage,AF,B,462002,462002,460374,461284,460374,462502,461802,461802,462502,128
