acc_sum,block,block_c,condition,correct,correct_response,datetime,endtime,flanker,jitter,project,response,response_test_buffer_response,response_test_target_response,response_time,response_time_test_buffer_response,response_time_test_target_response,row_sel,session_number,start_end,starttime,subject_id,target,task,task_vers,time_test_buffer,time_test_buffer_response,time_test_constants,time_test_flanker,time_test_jitter,time_test_logger,time_test_target,time_test_target_response,time_test_variables,trial
0,prac,1,con,0,z,Thu Jan 09 2025 13:16:43 GMT-0600 (Central Standard Time),101984.89999999851,elated,800,I,None,,,1875,,,9,2,4927.19999999553,97057.70000000298,8008,elated,AF,C,,,,,,,,,,1
1,prac,1,con,1,z,Thu Jan 09 2025 13:16:43 GMT-0600 (Central Standard Time),105234.30000000447,brutal,800,I,z,,,1139,,,13,2,3244.10000000149,101990.20000000298,8008,brutal,AF,C,,,,,,,,,,2
2,prac,1,con,1,z,Thu Jan 09 2025 13:16:43 GMT-0600 (Central Standard Time),108249.89999999851,love,1000,I,z,,,706,,,11,2,3011.5,105238.39999999851,8008,love,AF,C,,,,,,,,,,3
3,prac,1,inc,1,m,Thu Jan 09 2025 13:16:43 GMT-0600 (Central Standard Time),111332.0,brutal,1100,I,m,,,670,,,8,2,3077.5,108254.5,8008,window,AF,C,,,,,,,,,,4
4,prac,1,inc,1,m,Thu Jan 09 2025 13:16:43 GMT-0600 (Central Standard Time),114464.5,hate,1100,I,m,,,716,,,4,2,3127.89999999851,111336.60000000149,8008,film,AF,C,,,,,,,,,,5
5,prac,1,inc,1,m,Thu Jan 09 2025 13:16:43 GMT-0600 (Central Standard Time),117413.39999999851,elated,900,I,m,,,735,,,6,2,2944.5,114468.89999999851,8008,napkin,AF,C,,,,,,,,,,6
6,prac,1,inc,1,z,Thu Jan 09 2025 13:16:43 GMT-0600 (Central Standard Time),120329.20000000298,rock,900,I,z,,,706,,,10,2,2910.3000000044703,117418.89999999851,8008,kind,AF,C,,,,,,,,,,7
7,prac,1,con,1,m,Thu Jan 09 2025 13:16:43 GMT-0600 (Central Standard Time),123344.80000000447,remote,1000,I,m,,,699,,,7,2,3011.7000000029802,120333.10000000149,8008,remote,AF,C,,,,,,,,,,8
8,prac,1,inc,1,m,Thu Jan 09 2025 13:16:43 GMT-0600 (Central Standard Time),126360.80000000447,kind,900,I,m,,,815,,,2,2,3011.7000000029802,123349.10000000149,8008,rock,AF,C,,,,,,,,,,9
9,prac,1,con,1,m,Thu Jan 09 2025 13:16:43 GMT-0600 (Central Standard Time),129626.30000000447,bell,1000,I,m,,,963,,,3,2,3260.8000000044703,126365.5,8008,bell,AF,C,,,,,,,,,,10
10,prac,1,con,1,m,Thu Jan 09 2025 13:16:43 GMT-0600 (Central Standard Time),132425.30000000447,step,800,I,m,,,698,,,1,2,2794.4000000059605,129630.89999999851,8008,step,AF,C,,,,,,,,,,11
11,prac,1,con,1,m,Thu Jan 09 2025 13:16:43 GMT-0600 (Central Standard Time),135492.1000000015,jacket,800,I,m,,,954,,,5,2,3062.60000000149,132429.5,8008,jacket,AF,C,,,,,,,,,,12
11,prac,1,inc,0,z,Thu Jan 09 2025 13:16:43 GMT-0600 (Central Standard Time),138639.70000000298,window,1100,I,m,,,741,,,16,2,3143.3000000044703,135496.3999999985,8008,temper,AF,C,,,,,,,,,,13
12,prac,1,inc,1,z,Thu Jan 09 2025 13:16:43 GMT-0600 (Central Standard Time),141822.5,film,900,I,z,,,975,,,14,2,3178.60000000149,138643.8999999985,8008,hate,AF,C,,,,,,,,,,14
13,prac,1,con,1,z,Thu Jan 09 2025 13:16:43 GMT-0600 (Central Standard Time),144904.70000000298,rage,1000,I,z,,,782,,,15,2,3077.89999999851,141826.80000000447,8008,rage,AF,C,,,,,,,,,,15
13,prac,1,inc,0,z,Thu Jan 09 2025 13:16:43 GMT-0600 (Central Standard Time),148470.30000000447,napkin,1100,I,m,,,1151,,,12,2,3561.5,144908.80000000447,8008,friend,AF,C,,,,,,,,,,16
0,prac,2,con,0,m,Thu Jan 09 2025 13:16:43 GMT-0600 (Central Standard Time),159517.0,remote,1000,I,None,,,1799,,,7,2,5061.39999999851,154455.6000000015,8008,remote,AF,C,,,,,,,,,,1
1,prac,2,inc,1,z,Thu Jan 09 2025 13:16:43 GMT-0600 (Central Standard Time),162615.8999999985,window,1100,I,z,,,691,,,16,2,3094.39999999851,159521.5,8008,temper,AF,C,,,,,,,,,,2
2,prac,2,con,1,m,Thu Jan 09 2025 13:16:43 GMT-0600 (Central Standard Time),165548.6000000015,jacket,800,I,m,,,828,,,5,2,2928.2999999970198,162620.30000000447,8008,jacket,AF,C,,,,,,,,,,3
3,prac,2,con,1,m,Thu Jan 09 2025 13:16:43 GMT-0600 (Central Standard Time),168547.6000000015,bell,1000,I,m,,,696,,,3,2,2994.89999999851,165552.70000000298,8008,bell,AF,C,,,,,,,,,,4
4,prac,2,inc,1,z,Thu Jan 09 2025 13:16:43 GMT-0600 (Central Standard Time),171646.3999999985,napkin,1100,I,z,,,711,,,12,2,3093.0999999940395,168553.30000000447,8008,friend,AF,C,,,,,,,,,,5
5,prac,2,inc,1,m,Thu Jan 09 2025 13:16:43 GMT-0600 (Central Standard Time),174745.6000000015,brutal,1100,I,m,,,698,,,8,2,3095.39999999851,171650.20000000298,8008,window,AF,C,,,,,,,,,,6
6,prac,2,inc,1,z,Thu Jan 09 2025 13:16:43 GMT-0600 (Central Standard Time),177645.6000000015,rock,900,I,z,,,686,,,10,2,2896.2000000029802,174749.3999999985,8008,kind,AF,C,,,,,,,,,,7
7,prac,2,inc,1,m,Thu Jan 09 2025 13:16:43 GMT-0600 (Central Standard Time),180660.30000000447,kind,900,I,m,,,803,,,2,2,3010.4000000059605,177649.8999999985,8008,rock,AF,C,,,,,,,,,,8
8,prac,2,inc,1,m,Thu Jan 09 2025 13:16:43 GMT-0600 (Central Standard Time),183559.3999999985,elated,900,I,m,,,692,,,6,2,2894.89999999851,180664.5,8008,napkin,AF,C,,,,,,,,,,9
9,prac,2,con,1,m,Thu Jan 09 2025 13:16:43 GMT-0600 (Central Standard Time),186508.6000000015,step,800,I,m,,,837,,,1,2,2945.0,183563.6000000015,8008,step,AF,C,,,,,,,,,,10
10,prac,2,inc,1,z,Thu Jan 09 2025 13:16:43 GMT-0600 (Central Standard Time),189374.30000000447,film,900,I,z,,,659,,,14,2,2861.60000000149,186512.70000000298,8008,hate,AF,C,,,,,,,,,,11
11,prac,2,con,1,z,Thu Jan 09 2025 13:16:43 GMT-0600 (Central Standard Time),192156.80000000447,brutal,800,I,z,,,670,,,13,2,2778.7000000029802,189378.1000000015,8008,brutal,AF,C,,,,,,,,,,12
12,prac,2,inc,1,m,Thu Jan 09 2025 13:16:43 GMT-0600 (Central Standard Time),195372.20000000298,hate,1100,I,m,,,810,,,4,2,3211.3000000044703,192160.8999999985,8008,film,AF,C,,,,,,,,,,13
13,prac,2,con,1,z,Thu Jan 09 2025 13:16:43 GMT-0600 (Central Standard Time),198304.70000000298,love,1000,I,z,,,630,,,11,2,2928.39999999851,195376.30000000447,8008,love,AF,C,,,,,,,,,,14
14,prac,2,con,1,z,Thu Jan 09 2025 13:16:43 GMT-0600 (Central Standard Time),201304.0,rage,1000,I,z,,,692,,,15,2,2995.39999999851,198308.6000000015,8008,rage,AF,C,,,,,,,,,,15
15,prac,2,con,1,z,Thu Jan 09 2025 13:16:43 GMT-0600 (Central Standard Time),204186.20000000298,elated,800,I,z,,,779,,,9,2,2878.2000000029802,201308.0,8008,elated,AF,C,,,,,,,,,,16
1,test,1,con,1,z,Thu Jan 09 2025 13:16:43 GMT-0600 (Central Standard Time),212983.30000000447,hate,1100,I,z,z,None,726,527.0,199.0,44,2,2362.5,210620.80000000447,8008,hate,AF,C,204568,204568,202738,203852,202739,205100,204368,204368,205100,1
2,test,1,con,1,m,Thu Jan 09 2025 13:16:43 GMT-0600 (Central Standard Time),215166.20000000298,rock,900,I,m,m,None,736,521.0,215.0,74,2,2178.8000000044703,212987.3999999985,8008,rock,AF,C,206750,206750,205104,206018,205106,207283,206535,206535,207283,2
3,test,1,con,1,m,Thu Jan 09 2025 13:16:43 GMT-0600 (Central Standard Time),217348.80000000447,jacket,900,I,m,m,None,746,547.0,199.0,98,2,2177.2000000029802,215171.6000000015,8008,jacket,AF,C,208916,208916,207289,208200,207290,209466,208717,208717,209466,3
4,test,1,con,1,m,Thu Jan 09 2025 13:16:43 GMT-0600 (Central Standard Time),219631.30000000447,step,900,I,m,m,None,843,628.0,215.0,66,2,2276.3000000044703,217355.0,8008,step,AF,C,211115,211115,209472,210382,209474,211748,210900,210900,211748,4
5,test,1,inc,1,z,Thu Jan 09 2025 13:16:43 GMT-0600 (Central Standard Time),222080.6000000015,film,1100,I,z,z,None,801,602.0,199.0,16,2,2445.2999999970198,219635.30000000447,8008,kind,AF,C,213581,213581,211752,212866,211753,214198,213382,213382,214198,5
6,test,1,con,1,z,Thu Jan 09 2025 13:16:43 GMT-0600 (Central Standard Time),224263.20000000298,kind,1100,I,z,z,None,535,336.0,199.0,12,2,2178.60000000149,222084.6000000015,8008,kind,AF,C,216031,216031,214202,215315,214203,216380,215831,215831,216380,6
7,test,1,inc,1,z,Thu Jan 09 2025 13:16:43 GMT-0600 (Central Standard Time),226679.1000000015,film,1100,I,z,z,None,769,570.0,199.0,56,2,2412.0,224267.1000000015,8008,rage,AF,C,218213,218213,216384,217497,216385,218796,218014,218014,218796,7
8,test,1,inc,1,z,Thu Jan 09 2025 13:16:43 GMT-0600 (Central Standard Time),228811.8999999985,bell,1000,I,z,z,None,597,398.0,199.0,15,2,2128.89999999851,226683.0,8008,kind,AF,C,220529,220529,218800,219813,218801,220929,220330,220330,220929,8
9,test,1,inc,1,m,Thu Jan 09 2025 13:16:43 GMT-0600 (Central Standard Time),231011.1000000015,temper,1000,I,m,m,None,656,457.0,199.0,127,2,2195.2999999970198,228815.80000000447,8008,window,AF,C,222662,222662,220933,221946,220934,223128,222463,222463,223128,9
10,test,1,con,1,z,Thu Jan 09 2025 13:16:43 GMT-0600 (Central Standard Time),232910.5,rage,800,I,z,z,None,553,354.0,199.0,49,2,1895.6999999955297,231014.80000000447,8008,rage,AF,C,224661,224661,223132,223945,223133,225028,224462,224462,225027,10
11,test,1,inc,1,m,Thu Jan 09 2025 13:16:43 GMT-0600 (Central Standard Time),235093.1000000015,temper,1000,I,m,m,None,637,422.0,215.0,111,2,2178.89999999851,232914.20000000298,8008,napkin,AF,C,226777,226777,225031,226045,225032,227210,226561,226562,227210,11
12,test,1,inc,1,z,Thu Jan 09 2025 13:16:43 GMT-0600 (Central Standard Time),237275.80000000447,remote,1000,I,z,z,None,647,448.0,199.0,31,2,2179.0,235096.80000000447,8008,friend,AF,C,228943,228943,227214,228227,227215,229393,228744,228744,229393,12
13,test,1,inc,1,m,Thu Jan 09 2025 13:16:43 GMT-0600 (Central Standard Time),239391.80000000447,rage,800,I,m,m,None,776,577.0,199.0,77,2,2112.10000000149,237279.70000000298,8008,rock,AF,C,230926,230926,229397,230210,229398,231509,230727,230727,231509,13
14,test,1,inc,1,m,Thu Jan 09 2025 13:16:43 GMT-0600 (Central Standard Time),241669.70000000298,kind,900,I,m,m,None,842,627.0,215.0,94,2,2274.39999999851,239395.30000000447,8008,film,AF,C,233159,233159,231512,232426,231513,233787,232943,232943,233787,14
15,test,1,con,1,z,Thu Jan 09 2025 13:16:43 GMT-0600 (Central Standard Time),243556.8999999985,love,800,I,z,z,None,546,347.0,199.0,17,2,1882.5999999940395,241674.30000000447,8008,love,AF,C,235324,235324,233791,234608,233793,235674,235125,235125,235674,15
16,test,1,con,1,z,Thu Jan 09 2025 13:16:43 GMT-0600 (Central Standard Time),245556.5,love,900,I,z,z,None,555,356.0,199.0,18,2,1995.6999999955297,243560.80000000447,8008,love,AF,C,237307,237307,235678,236591,235679,237674,237108,237108,237674,16
17,test,1,con,1,m,Thu Jan 09 2025 13:16:43 GMT-0600 (Central Standard Time),247972.3999999985,jacket,1100,I,m,m,None,779,564.0,215.0,100,2,2412.1999999955297,245560.20000000298,8008,jacket,AF,C,239523,239523,237677,238791,237679,240089,239308,239308,240089,17
18,test,1,inc,1,z,Thu Jan 09 2025 13:16:43 GMT-0600 (Central Standard Time),249871.80000000447,step,800,I,z,z,None,559,344.0,215.0,45,2,1895.8000000044703,247976.0,8008,hate,AF,C,241639,241639,240093,240907,240094,241989,241424,241424,241989,18
19,test,1,inc,1,m,Thu Jan 09 2025 13:16:43 GMT-0600 (Central Standard Time),252037.6000000015,brutal,900,I,m,m,None,728,529.0,199.0,110,2,2162.2000000029802,249875.3999999985,8008,napkin,AF,C,243622,243622,241992,242906,241994,244155,243423,243423,244155,19
20,test,1,con,1,z,Thu Jan 09 2025 13:16:43 GMT-0600 (Central Standard Time),254287.1000000015,temper,800,I,z,z,None,902,703.0,199.0,57,2,2245.7999999970198,252041.30000000447,8008,temper,AF,C,245688,245688,244158,244972,244160,246404,245489,245489,246404,20
21,test,1,inc,1,m,Thu Jan 09 2025 13:16:43 GMT-0600 (Central Standard Time),256486.30000000447,temper,1000,I,m,m,None,661,462.0,199.0,103,2,2195.3000000044703,254291.0,8008,jacket,AF,C,248137,248137,246408,247421,246409,248603,247938,247938,248603,21
22,test,1,con,1,z,Thu Jan 09 2025 13:16:43 GMT-0600 (Central Standard Time),259268.80000000447,brutal,1100,I,z,z,None,1145,930.0,215.0,36,2,2778.8000000044703,256490.0,8008,brutal,AF,C,250453,250453,248607,249721,248608,251386,250238,250238,251386,22
23,test,1,inc,1,z,Thu Jan 09 2025 13:16:43 GMT-0600 (Central Standard Time),261285.1000000015,rock,900,I,z,z,None,579,380.0,199.0,14,2,2012.6000000014901,259272.5,8008,kind,AF,C,253019,253019,251390,252303,251391,253402,252820,252820,253402,23
24,test,1,con,1,m,Thu Jan 09 2025 13:16:43 GMT-0600 (Central Standard Time),263367.3999999985,remote,900,I,m,m,None,643,444.0,199.0,114,2,2078.5,261288.8999999985,8008,remote,AF,C,255035,255035,253406,254319,253407,255485,254836,254836,255484,24
25,test,1,con,1,m,Thu Jan 09 2025 13:16:43 GMT-0600 (Central Standard Time),265400.30000000447,window,800,I,m,m,None,683,468.0,215.0,121,2,2029.2000000029802,263371.1000000015,8008,window,AF,C,257035,257035,255488,256301,255489,257517,256819,256819,257517,25
26,test,1,con,1,m,Thu Jan 09 2025 13:16:43 GMT-0600 (Central Standard Time),267682.80000000447,bell,1100,I,m,m,None,640,441.0,199.0,84,2,2278.8000000044703,265404.0,8008,bell,AF,C,259350,259350,257521,258635,257522,259800,259151,259151,259800,26
27,test,1,inc,1,z,Thu Jan 09 2025 13:16:43 GMT-0600 (Central Standard Time),269882.1000000015,window,1100,I,z,z,None,550,351.0,199.0,32,2,2195.2999999970198,267686.80000000447,8008,friend,AF,C,261633,261633,259804,260917,259805,261999,261434,261434,261999,27
28,test,1,inc,1,m,Thu Jan 09 2025 13:16:43 GMT-0600 (Central Standard Time),272148.200000003,friend,1100,I,m,m,None,622,423.0,199.0,112,2,2262.2000000029802,269886.0,8008,napkin,AF,C,263832,263832,262003,263117,262004,264265,263633,263633,264265,28
29,test,1,inc,1,m,Thu Jan 09 2025 13:16:43 GMT-0600 (Central Standard Time),274363.700000003,friend,1100,I,m,m,None,580,381.0,199.0,104,2,2210.39999999851,272153.30000000447,8008,jacket,AF,C,266098,266098,264270,265382,264271,266481,265899,265899,266481,29
30,test,1,inc,1,z,Thu Jan 09 2025 13:16:43 GMT-0600 (Central Standard Time),276463.6000000015,bell,1000,I,z,z,None,560,361.0,199.0,47,2,2096.0,274367.6000000015,8008,hate,AF,C,268214,268214,266485,267498,266486,268581,268015,268015,268581,30
31,test,1,con,1,m,Thu Jan 09 2025 13:16:43 GMT-0600 (Central Standard Time),278413.0,rock,800,I,m,m,None,612,397.0,215.0,73,2,1945.7999999970198,276467.200000003,8008,rock,AF,C,270130,270130,268584,269398,268586,270530,269915,269915,270530,31
32,test,1,inc,1,m,Thu Jan 09 2025 13:16:43 GMT-0600 (Central Standard Time),280595.700000003,love,1000,I,m,m,None,647,448.0,199.0,87,2,2178.89999999851,278416.80000000447,8008,bell,AF,C,272263,272263,270534,271547,270535,272713,272064,272064,272713,32
33,test,1,inc,1,z,Thu Jan 09 2025 13:16:43 GMT-0600 (Central Standard Time),282745.0,jacket,800,I,z,z,None,799,584.0,215.0,61,2,2145.89999999851,280599.1000000015,8008,temper,AF,C,274263,274263,272716,273530,272717,274862,274047,274047,274862,33
34,test,1,inc,1,z,Thu Jan 09 2025 13:16:43 GMT-0600 (Central Standard Time),284844.200000003,napkin,900,I,z,z,None,663,464.0,199.0,38,2,2095.5,282748.700000003,8008,brutal,AF,C,276495,276495,274866,275779,274867,276961,276296,276296,276961,34
35,test,1,con,1,z,Thu Jan 09 2025 13:16:43 GMT-0600 (Central Standard Time),287126.8999999985,friend,1100,I,z,z,None,636,437.0,199.0,28,2,2279.0999999940395,284847.80000000447,8008,friend,AF,C,278794,278794,276965,278078,276966,279244,278595,278595,279244,35
36,test,1,inc,1,m,Thu Jan 09 2025 13:16:43 GMT-0600 (Central Standard Time),289259.6000000015,kind,900,I,m,m,None,620,415.0,205.0,86,2,2129.2000000029802,287130.3999999985,8008,bell,AF,C,280960,280960,279247,280161,279249,281377,280755,280755,281377,36
37,test,1,con,1,m,Thu Jan 09 2025 13:16:43 GMT-0600 (Central Standard Time),291575.3999999985,film,1100,I,m,m,None,676,461.0,215.0,92,2,2312.0999999940395,289263.30000000447,8008,film,AF,C,283226,283226,281380,282494,281382,283693,283011,283011,283692,37
38,test,1,con,1,z,Thu Jan 09 2025 13:16:43 GMT-0600 (Central Standard Time),293724.80000000447,love,1000,I,z,z,None,604,405.0,199.0,19,2,2145.7000000029802,291579.1000000015,8008,love,AF,C,285426,285426,283696,284711,283698,285842,285226,285226,285842,38
39,test,1,inc,1,m,Thu Jan 09 2025 13:16:43 GMT-0600 (Central Standard Time),296091.8999999985,hate,1100,I,m,m,None,732,532.0,200.0,96,2,2363.1999999955297,293728.700000003,8008,film,AF,C,287675,287675,285846,286959,285847,288209,287475,287475,288209,39
40,test,1,con,1,z,Thu Jan 09 2025 13:16:43 GMT-0600 (Central Standard Time),298324.3999999985,love,1100,I,z,z,None,597,398.0,199.0,20,2,2228.6999999955297,296095.700000003,8008,love,AF,C,290041,290041,288213,289325,288214,290441,289842,289842,290441,40
41,test,1,con,1,m,Thu Jan 09 2025 13:16:43 GMT-0600 (Central Standard Time),300639.200000003,remote,1100,I,m,m,None,677,478.0,199.0,116,2,2310.89999999851,298328.30000000447,8008,remote,AF,C,292273,292273,290445,291559,290447,292756,292074,292074,292756,41
42,test,1,con,1,m,Thu Jan 09 2025 13:16:43 GMT-0600 (Central Standard Time),302821.8999999985,bell,1000,I,m,m,None,637,438.0,199.0,83,2,2178.6999999955297,300643.200000003,8008,bell,AF,C,294489,294489,292760,293774,292762,294939,294290,294290,294939,42
43,test,1,con,1,z,Thu Jan 09 2025 13:16:43 GMT-0600 (Central Standard Time),304804.6000000015,elated,800,I,z,z,None,638,439.0,199.0,1,2,1979.1000000014901,302825.5,8008,elated,AF,C,296472,296472,294943,295756,294944,296922,296273,296273,296922,43
44,test,1,con,1,z,Thu Jan 09 2025 13:16:43 GMT-0600 (Central Standard Time),307087.30000000447,brutal,1000,I,z,z,None,735,536.0,199.0,35,2,2279.0,304808.30000000447,8008,brutal,AF,C,298655,298655,296925,297939,296927,299204,298455,298455,299204,44
45,test,1,con,1,m,Thu Jan 09 2025 13:16:43 GMT-0600 (Central Standard Time),309103.3999999985,remote,800,I,m,m,None,677,478.0,199.0,113,2,2012.7999999970198,307090.6000000015,8008,remote,AF,C,300737,300737,299208,300022,299209,301220,300538,300538,301220,45
46,test,1,inc,1,m,Thu Jan 09 2025 13:16:43 GMT-0600 (Central Standard Time),311086.200000003,elated,800,I,m,m,None,645,446.0,199.0,109,2,1979.2000000029802,309107.0,8008,napkin,AF,C,302753,302753,301224,302038,301225,303203,302554,302554,303203,46
47,test,1,inc,1,m,Thu Jan 09 2025 13:16:43 GMT-0600 (Central Standard Time),313435.200000003,hate,1100,I,m,m,None,589,390.0,199.0,80,2,2345.39999999851,311089.80000000447,8008,rock,AF,C,305153,305153,303207,304445,303208,305552,304954,304954,305552,47
47,test,1,con,0,m,Thu Jan 09 2025 13:16:43 GMT-0600 (Central Standard Time),315634.700000003,film,1000,I,z,z,None,657,458.0,199.0,91,2,2196.0,313438.700000003,8008,film,AF,C,307285,307285,305556,306570,305557,307752,307086,307086,307752,48
48,test,1,inc,1,z,Thu Jan 09 2025 13:16:43 GMT-0600 (Central Standard Time),318017.1000000015,remote,1000,I,z,z,None,833,618.0,215.0,39,2,2378.7000000029802,315638.3999999985,8008,brutal,AF,C,309501,309501,307755,308769,307757,310134,309286,309286,310134,49
49,test,1,con,1,m,Thu Jan 09 2025 13:16:43 GMT-0600 (Central Standard Time),320050.0,step,800,I,m,m,None,691,492.0,199.0,65,2,2029.2999999970198,318020.700000003,8008,step,AF,C,311667,311667,310138,310952,310139,312167,311468,311468,312167,50
50,test,1,inc,1,m,Thu Jan 09 2025 13:16:43 GMT-0600 (Central Standard Time),322165.700000003,elated,800,I,m,m,None,770,571.0,199.0,125,2,2112.0,320053.700000003,8008,window,AF,C,313700,313700,312171,312984,312172,314283,313501,313501,314283,51
51,test,1,con,1,z,Thu Jan 09 2025 13:16:43 GMT-0600 (Central Standard Time),324465.200000003,temper,1000,I,z,z,None,750,551.0,199.0,59,2,2295.60000000149,322169.6000000015,8008,temper,AF,C,316016,316016,314287,315300,314288,316582,315817,315817,316582,52
52,test,1,inc,1,m,Thu Jan 09 2025 13:16:43 GMT-0600 (Central Standard Time),326831.0,rage,800,I,m,m,None,1027,828.0,199.0,93,2,2362.10000000149,324468.8999999985,8008,film,AF,C,318115,318115,316586,317399,316587,318948,317916,317916,318948,53
53,test,1,inc,1,z,Thu Jan 09 2025 13:16:43 GMT-0600 (Central Standard Time),328930.3999999985,rock,900,I,z,z,None,657,458.0,199.0,46,2,2095.89999999851,326834.5,8008,hate,AF,C,320581,320581,318952,319865,318953,321047,320382,320382,321047,54
54,test,1,con,1,m,Thu Jan 09 2025 13:16:43 GMT-0600 (Central Standard Time),331146.200000003,jacket,1000,I,m,m,None,681,482.0,199.0,99,2,2212.3000000044703,328933.8999999985,8008,jacket,AF,C,322781,322781,321051,322064,321052,323263,322581,322581,323263,55
55,test,1,inc,1,m,Thu Jan 09 2025 13:16:43 GMT-0600 (Central Standard Time),333545.700000003,hate,1100,I,m,m,None,749,550.0,199.0,88,2,2396.0,331149.700000003,8008,bell,AF,C,325096,325097,323267,324381,323268,325663,324897,324897,325663,56
56,test,1,con,1,z,Thu Jan 09 2025 13:16:43 GMT-0600 (Central Standard Time),335891.0,kind,900,I,z,z,None,893,678.0,215.0,10,2,2341.60000000149,333549.3999999985,8008,kind,AF,C,327313,327313,325666,326580,325668,328008,327097,327097,328008,57
57,test,1,inc,1,m,Thu Jan 09 2025 13:16:43 GMT-0600 (Central Standard Time),338294.0,temper,1000,I,m,m,None,861,662.0,199.0,119,2,2399.0,335895.0,8008,remote,AF,C,329745,329745,328012,329029,328013,330411,329546,329546,330411,58
58,test,1,inc,1,z,Thu Jan 09 2025 13:16:43 GMT-0600 (Central Standard Time),340710.200000003,step,800,I,z,z,None,1078,879.0,199.0,21,2,2412.60000000149,338297.6000000015,8008,love,AF,C,331944,331944,330415,331228,330416,332827,331745,331745,332827,59
59,test,1,inc,1,z,Thu Jan 09 2025 13:16:43 GMT-0600 (Central Standard Time),343159.30000000447,window,1100,I,z,z,None,809,610.0,199.0,64,2,2445.4000000059605,340713.8999999985,8008,temper,AF,C,334661,334661,332831,333944,332832,335276,334461,334461,335276,60
60,test,1,con,1,m,Thu Jan 09 2025 13:16:43 GMT-0600 (Central Standard Time),345542.0,window,1100,I,m,m,None,737,538.0,199.0,124,2,2378.89999999851,343163.1000000015,8008,window,AF,C,337109,337109,335280,336394,335281,337659,336910,336910,337659,61
61,test,1,con,1,m,Thu Jan 09 2025 13:16:43 GMT-0600 (Central Standard Time),347774.3999999985,napkin,1000,I,m,m,None,686,487.0,199.0,107,2,2228.6999999955297,345545.700000003,8008,napkin,AF,C,339392,339392,337663,338676,337664,339891,339193,339193,339891,62
62,test,1,con,1,z,Thu Jan 09 2025 13:16:43 GMT-0600 (Central Standard Time),349824.0,hate,800,I,z,z,None,701,486.0,215.0,41,2,2046.1000000014901,347777.8999999985,8008,hate,AF,C,341441,341441,339895,340709,339896,341941,341226,341226,341941,63
63,test,1,inc,1,m,Thu Jan 09 2025 13:16:43 GMT-0600 (Central Standard Time),352006.8999999985,kind,900,I,m,m,None,734,520.0,214.0,78,2,2179.2999999970198,349827.6000000015,8008,rock,AF,C,343591,343591,341945,342858,341946,344124,343376,343376,344124,64
64,test,1,inc,1,z,Thu Jan 09 2025 13:16:43 GMT-0600 (Central Standard Time),354289.1000000015,film,1100,I,z,z,None,640,426.0,214.0,24,2,2278.7000000029802,352010.3999999985,8008,love,AF,C,345973,345973,344127,345241,344129,346406,345759,345759,346406,65
65,test,1,inc,1,z,Thu Jan 09 2025 13:16:43 GMT-0600 (Central Standard Time),356472.0,rock,900,I,z,z,None,734,535.0,199.0,22,2,2179.39999999851,354292.6000000015,8008,love,AF,C,348040,348040,346410,347323,346411,348589,347840,347840,348589,66
66,test,1,con,1,z,Thu Jan 09 2025 13:16:43 GMT-0600 (Central Standard Time),358654.30000000447,brutal,900,I,z,z,None,736,537.0,199.0,34,2,2178.5,356475.80000000447,8008,brutal,AF,C,350222,350222,348593,349506,348594,350771,350023,350023,350771,67
67,test,1,inc,1,m,Thu Jan 09 2025 13:16:43 GMT-0600 (Central Standard Time),360837.1000000015,kind,900,I,m,m,None,738,539.0,199.0,70,2,2179.2000000029802,358657.8999999985,8008,step,AF,C,352404,352404,350775,351688,350776,352954,352205,352205,352954,68
68,test,1,con,1,m,Thu Jan 09 2025 13:16:43 GMT-0600 (Central Standard Time),363186.200000003,napkin,1100,I,m,m,None,707,508.0,199.0,108,2,2345.39999999851,360840.80000000447,8008,napkin,AF,C,354787,354787,352958,354071,352959,355303,354588,354588,355303,69
69,test,1,con,1,z,Thu Jan 09 2025 13:16:43 GMT-0600 (Central Standard Time),365318.80000000447,brutal,800,I,z,z,None,785,570.0,215.0,33,2,2129.0,363189.80000000447,8008,brutal,AF,C,356853,356853,355307,356121,355308,357436,356638,356638,357436,70
70,test,1,inc,1,z,Thu Jan 09 2025 13:16:43 GMT-0600 (Central Standard Time),367518.5,napkin,900,I,z,z,None,761,562.0,199.0,62,2,2196.2999999970198,365322.200000003,8008,temper,AF,C,359069,359069,357439,358353,357441,359636,358870,358870,359636,71
71,test,1,inc,1,m,Thu Jan 09 2025 13:16:43 GMT-0600 (Central Standard Time),369767.6000000015,love,1000,I,m,m,None,702,503.0,199.0,79,2,2245.5,367522.1000000015,8008,rock,AF,C,361368,361368,359639,360653,359640,361885,361169,361169,361885,72
72,test,1,inc,1,z,Thu Jan 09 2025 13:16:43 GMT-0600 (Central Standard Time),371950.30000000447,napkin,900,I,z,z,None,734,520.0,214.0,6,2,2179.2000000029802,369771.1000000015,8008,elated,AF,C,363535,363535,361888,362802,361889,364067,363320,363320,364067,73
73,test,1,con,1,z,Thu Jan 09 2025 13:16:43 GMT-0600 (Central Standard Time),374149.6000000015,rage,1000,I,z,z,None,662,463.0,199.0,51,2,2195.60000000149,371954.0,8008,rage,AF,C,365800,365800,364071,365085,364072,366267,365601,365601,366267,74
74,test,1,inc,1,m,Thu Jan 09 2025 13:16:43 GMT-0600 (Central Standard Time),376382.1000000015,brutal,900,I,m,m,None,786,571.0,215.0,102,2,2228.89999999851,374153.200000003,8008,jacket,AF,C,367916,367916,366270,367184,366272,368499,367701,367701,368499,75
75,test,1,inc,1,m,Thu Jan 09 2025 13:16:43 GMT-0600 (Central Standard Time),378831.3999999985,friend,1100,I,m,m,None,810,611.0,199.0,120,2,2445.6999999955297,376385.700000003,8008,remote,AF,C,370332,370332,368503,369616,368504,370948,370133,370133,370948,76
76,test,1,con,1,m,Thu Jan 09 2025 13:16:43 GMT-0600 (Central Standard Time),381498.5,step,1100,I,m,m,None,1024,825.0,199.0,68,2,2663.60000000149,378834.8999999985,8008,step,AF,C,372782,372782,370952,372066,370953,373616,372582,372582,373615,77
77,test,1,inc,1,z,Thu Jan 09 2025 13:16:43 GMT-0600 (Central Standard Time),383580.1000000015,jacket,800,I,z,z,None,653,448.0,205.0,37,2,2077.7000000029802,381502.3999999985,8008,brutal,AF,C,375247,375247,373619,374431,373621,375697,375042,375042,375697,78
78,test,1,con,1,z,Thu Jan 09 2025 13:16:43 GMT-0600 (Central Standard Time),385912.5,rage,900,I,z,z,None,884,685.0,199.0,50,2,2328.89999999851,383583.6000000015,8008,rage,AF,C,377330,377330,375701,376614,375702,378030,377131,377131,378030,79
79,test,1,con,1,m,Thu Jan 09 2025 13:16:43 GMT-0600 (Central Standard Time),388378.5,rock,1000,I,m,m,None,931,716.0,215.0,75,2,2462.39999999851,385916.1000000015,8008,rock,AF,C,379779,379779,378033,379047,378035,380496,379564,379564,380495,80
80,test,1,con,1,z,Thu Jan 09 2025 13:16:43 GMT-0600 (Central Standard Time),390594.30000000447,kind,1000,I,z,z,None,673,458.0,215.0,11,2,2212.5,388381.80000000447,8008,kind,AF,C,382245,382245,380499,381513,380500,382711,382029,382030,382711,81
81,test,1,inc,1,m,Thu Jan 09 2025 13:16:43 GMT-0600 (Central Standard Time),392827.0,rage,800,I,m,m,None,888,674.0,214.0,85,2,2228.89999999851,390598.1000000015,8008,bell,AF,C,384261,384261,382715,383529,382716,384944,384047,384047,384944,82
82,test,1,con,1,z,Thu Jan 09 2025 13:16:43 GMT-0600 (Central Standard Time),395093.0,elated,1000,I,z,z,None,729,530.0,199.0,3,2,2262.39999999851,392830.6000000015,8008,elated,AF,C,386677,386677,384948,385961,384949,387210,386478,386478,387210,83
83,test,1,con,1,m,Thu Jan 09 2025 13:16:43 GMT-0600 (Central Standard Time),397242.5,bell,800,I,m,m,None,807,608.0,199.0,81,2,2145.7999999970198,395096.700000003,8008,bell,AF,C,388743,388743,387214,388027,387215,389360,388544,388544,389359,84
84,test,1,inc,1,m,Thu Jan 09 2025 13:16:43 GMT-0600 (Central Standard Time),399641.6000000015,hate,1100,I,m,m,None,757,558.0,199.0,72,2,2395.5,397246.1000000015,8008,step,AF,C,391193,391193,389363,390476,389364,391759,390993,390993,391759,85
85,test,1,con,1,z,Thu Jan 09 2025 13:16:43 GMT-0600 (Central Standard Time),401841.0,hate,1000,I,z,z,None,659,459.0,200.0,43,2,2195.7999999970198,399645.200000003,8008,hate,AF,C,393492,393492,391762,392776,391764,393958,393292,393292,393958,86
86,test,1,con,1,z,Thu Jan 09 2025 13:16:43 GMT-0600 (Central Standard Time),404190.30000000447,temper,1100,I,z,z,None,710,495.0,215.0,60,2,2345.8000000044703,401844.5,8008,temper,AF,C,395808,395808,393962,395075,393963,396307,395593,395593,396307,87
87,test,1,inc,1,z,Thu Jan 09 2025 13:16:43 GMT-0600 (Central Standard Time),406303.200000003,jacket,800,I,z,z,None,779,580.0,199.0,29,2,2109.39999999851,404193.80000000447,8008,friend,AF,C,397840,397840,396311,397124,396312,398420,397641,397641,398420,88
88,test,1,con,1,z,Thu Jan 09 2025 13:16:43 GMT-0600 (Central Standard Time),408639.1000000015,friend,900,I,z,z,None,894,695.0,199.0,26,2,2332.10000000149,406307.0,8008,friend,AF,C,400056,400056,398424,399340,398425,400756,399857,399857,400756,89
89,test,1,con,1,z,Thu Jan 09 2025 13:16:43 GMT-0600 (Central Standard Time),411071.3999999985,elated,1100,I,z,z,None,785,586.0,199.0,4,2,2428.7999999970198,408642.6000000015,8008,elated,AF,C,402589,402589,400760,401873,400761,403188,402390,402390,403188,90
90,test,1,inc,1,z,Thu Jan 09 2025 13:16:43 GMT-0600 (Central Standard Time),413503.8999999985,film,1100,I,z,z,None,793,594.0,199.0,48,2,2429.0,411074.8999999985,8008,hate,AF,C,405021,405021,403192,404305,403193,405621,404822,404822,405621,91
91,test,1,inc,1,m,Thu Jan 09 2025 13:16:43 GMT-0600 (Central Standard Time),415836.5,love,1000,I,m,m,None,788,589.0,199.0,71,2,2328.89999999851,413507.6000000015,8008,step,AF,C,407354,407354,405625,406638,405626,407954,407155,407155,407954,92
92,test,1,inc,1,z,Thu Jan 09 2025 13:16:43 GMT-0600 (Central Standard Time),417785.700000003,step,800,I,z,z,None,606,391.0,215.0,53,2,1945.2000000029802,415840.5,8008,rage,AF,C,409503,409504,407958,408770,407959,409903,409287,409288,409903,93
93,test,1,inc,1,z,Thu Jan 09 2025 13:16:43 GMT-0600 (Central Standard Time),420118.5,napkin,900,I,z,z,None,894,695.0,199.0,30,2,2329.0,417789.5,8008,friend,AF,C,411536,411536,409907,410820,409908,412236,411337,411337,412236,94
94,test,1,con,1,m,Thu Jan 09 2025 13:16:43 GMT-0600 (Central Standard Time),422202.30000000447,jacket,800,I,m,m,None,742,542.0,200.0,97,2,2080.0,420122.30000000447,8008,jacket,AF,C,413769,413769,412239,413053,412241,414319,413569,413569,414319,95
95,test,1,inc,1,m,Thu Jan 09 2025 13:16:43 GMT-0600 (Central Standard Time),424350.6000000015,elated,800,I,m,m,None,803,604.0,199.0,117,2,2144.5,422206.1000000015,8008,remote,AF,C,415851,415851,414323,415135,414324,416468,415652,415652,416468,96
96,test,1,inc,1,m,Thu Jan 09 2025 13:16:43 GMT-0600 (Central Standard Time),426666.6000000015,friend,1100,I,m,m,None,672,458.0,214.0,128,2,2312.2999999970198,424354.30000000447,8008,window,AF,C,418317,418317,416471,417586,416473,418784,418103,418103,418784,97
97,test,1,con,1,z,Thu Jan 09 2025 13:16:43 GMT-0600 (Central Standard Time),429032.3999999985,rage,1100,I,z,z,None,726,527.0,199.0,52,2,2362.1999999955297,426670.200000003,8008,rage,AF,C,420616,420616,418787,419901,418789,421149,420417,420417,421149,98
98,test,1,con,1,m,Thu Jan 09 2025 13:16:43 GMT-0600 (Central Standard Time),431248.3999999985,window,1000,I,m,m,None,668,469.0,199.0,123,2,2212.5999999940395,429035.80000000447,8008,window,AF,C,422882,422882,421153,422166,421154,423365,422683,422683,423365,99
99,test,1,inc,1,z,Thu Jan 09 2025 13:16:43 GMT-0600 (Central Standard Time),433264.3999999985,jacket,800,I,z,z,None,675,460.0,215.0,5,2,2012.5,431251.8999999985,8008,elated,AF,C,424915,424915,423369,424183,423370,425382,424700,424700,425381,100
100,test,1,inc,1,z,Thu Jan 09 2025 13:16:43 GMT-0600 (Central Standard Time),435480.3999999985,remote,1000,I,z,z,None,667,452.0,215.0,63,2,2212.6999999955297,433267.700000003,8008,temper,AF,C,427131,427131,425385,426399,425386,427597,426916,426916,427597,101
101,test,1,inc,1,z,Thu Jan 09 2025 13:16:43 GMT-0600 (Central Standard Time),437713.30000000447,bell,1000,I,z,z,None,683,468.0,215.0,23,2,2229.4000000059605,435483.8999999985,8008,love,AF,C,429347,429347,427601,428615,427602,429830,429131,429132,429830,102
102,test,1,inc,1,m,Thu Jan 09 2025 13:16:43 GMT-0600 (Central Standard Time),439712.200000003,rage,800,I,m,m,None,659,460.0,199.0,69,2,1995.1000000014901,437717.1000000015,8008,step,AF,C,431363,431363,429834,430649,429835,431829,431164,431164,431829,103
102,test,1,con,0,m,Thu Jan 09 2025 13:16:43 GMT-0600 (Central Standard Time),441928.30000000447,remote,1000,I,z,z,None,676,477.0,199.0,115,2,2212.5,439715.80000000447,8008,remote,AF,C,433562,433562,431833,432847,431834,434045,433363,433363,434045,104
103,test,1,con,1,m,Thu Jan 09 2025 13:16:43 GMT-0600 (Central Standard Time),444177.80000000447,bell,900,I,m,m,None,808,609.0,199.0,82,2,2245.9000000059605,441931.8999999985,8008,bell,AF,C,435678,435678,434049,434962,434050,436295,435479,435479,436295,105
104,test,1,con,1,m,Thu Jan 09 2025 13:16:43 GMT-0600 (Central Standard Time),446410.5,window,900,I,m,m,None,790,591.0,199.0,122,2,2229.1999999955297,444181.30000000447,8008,window,AF,C,437928,437928,436298,437212,436300,438528,437729,437729,438528,106
105,test,1,con,1,m,Thu Jan 09 2025 13:16:43 GMT-0600 (Central Standard Time),448760.3999999985,film,800,I,m,m,None,1002,803.0,199.0,89,2,2346.2999999970198,446414.1000000015,8008,film,AF,C,440060,440060,438531,439345,438532,440877,439861,439861,440877,107
106,test,1,inc,1,z,Thu Jan 09 2025 13:16:43 GMT-0600 (Central Standard Time),450942.1000000015,step,800,I,z,z,None,836,637.0,199.0,13,2,2178.10000000149,448764.0,8008,kind,AF,C,442410,442410,440881,441694,440882,443059,442211,442211,443059,108
107,test,1,con,1,z,Thu Jan 09 2025 13:16:43 GMT-0600 (Central Standard Time),452858.5,kind,800,I,z,z,None,574,375.0,199.0,9,2,1912.7999999970198,450945.700000003,8008,kind,AF,C,444592,444592,443063,443876,443064,444976,444393,444393,444975,109
108,test,1,inc,1,z,Thu Jan 09 2025 13:16:43 GMT-0600 (Central Standard Time),455224.200000003,remote,1000,I,z,z,None,818,619.0,199.0,7,2,2362.2000000029802,452862.0,8008,elated,AF,C,446708,446708,444979,445992,444980,447341,446509,446509,447341,110
109,test,1,inc,1,m,Thu Jan 09 2025 13:16:43 GMT-0600 (Central Standard Time),457323.5,brutal,900,I,m,m,None,663,464.0,199.0,126,2,2095.6999999955297,455227.80000000447,8008,window,AF,C,448975,448975,447345,448259,447346,449441,448775,448775,449441,111
110,test,1,con,1,m,Thu Jan 09 2025 13:16:43 GMT-0600 (Central Standard Time),459322.8999999985,napkin,800,I,m,m,None,656,441.0,215.0,105,2,1995.7999999970198,457327.1000000015,8008,napkin,AF,C,450990,450990,449444,450258,449445,451440,450775,450775,451440,112
111,test,1,con,1,m,Thu Jan 09 2025 13:16:43 GMT-0600 (Central Standard Time),461522.200000003,film,900,I,m,m,None,757,558.0,199.0,90,2,2195.8000000044703,459326.3999999985,8008,film,AF,C,453073,453073,451443,452357,451445,453639,452874,452874,453639,113
112,test,1,con,1,z,Thu Jan 09 2025 13:16:43 GMT-0600 (Central Standard Time),463605.0,friend,800,I,z,z,None,746,547.0,199.0,25,2,2079.10000000149,461525.8999999985,8008,friend,AF,C,455172,455172,453643,454457,453644,455722,454973,454973,455722,114
113,test,1,con,1,z,Thu Jan 09 2025 13:16:43 GMT-0600 (Central Standard Time),465904.1000000015,elated,900,I,z,z,None,851,652.0,199.0,2,2,2295.5,463608.6000000015,8008,elated,AF,C,457355,457355,455726,456639,455727,458021,457156,457156,458021,115
114,test,1,inc,1,z,Thu Jan 09 2025 13:16:43 GMT-0600 (Central Standard Time),468170.1000000015,bell,1000,I,z,z,None,731,516.0,215.0,55,2,2262.7000000029802,465907.3999999985,8008,rage,AF,C,459771,459771,458024,459038,458026,460287,459556,459556,460287,116
115,test,1,inc,1,m,Thu Jan 09 2025 13:16:43 GMT-0600 (Central Standard Time),470402.700000003,brutal,900,I,m,m,None,798,599.0,199.0,118,2,2229.10000000149,468173.6000000015,8008,remote,AF,C,461920,461920,460291,461204,460292,462520,461721,461721,462520,117
116,test,1,con,1,m,Thu Jan 09 2025 13:16:43 GMT-0600 (Central Standard Time),473068.6000000015,step,1000,I,m,m,None,1128,913.0,215.0,67,2,2662.39999999851,470406.200000003,8008,step,AF,C,464270,464270,462523,463537,462524,465186,464054,464054,465186,118
117,test,1,con,1,z,Thu Jan 09 2025 13:16:43 GMT-0600 (Central Standard Time),475318.0,friend,1000,I,z,z,None,710,495.0,215.0,27,2,2245.60000000149,473072.3999999985,8008,friend,AF,C,466935,466936,465189,466203,465191,467435,466720,466720,467435,119
118,test,1,inc,1,z,Thu Jan 09 2025 13:16:43 GMT-0600 (Central Standard Time),477834.0,window,1100,I,z,z,None,755,551.0,204.0,8,2,2512.5,475321.5,8008,elated,AF,C,469384,469384,467439,468552,467440,469951,469180,469180,469951,120
119,test,1,inc,1,m,Thu Jan 09 2025 13:16:43 GMT-0600 (Central Standard Time),479849.80000000447,elated,800,I,m,m,None,674,475.0,199.0,101,2,2012.4000000059605,477837.3999999985,8008,jacket,AF,C,471484,471484,469954,470768,469956,471967,471285,471285,471967,121
120,test,1,con,1,m,Thu Jan 09 2025 13:16:43 GMT-0600 (Central Standard Time),482132.3999999985,rock,1100,I,m,m,None,645,430.0,215.0,76,2,2279.0999999940395,479853.30000000447,8008,rock,AF,C,473817,473817,471970,473084,471972,474249,473601,473601,474249,122
121,test,1,con,1,z,Thu Jan 09 2025 13:16:43 GMT-0600 (Central Standard Time),484248.3999999985,hate,900,I,z,z,None,675,476.0,199.0,42,2,2112.5,482135.8999999985,8008,hate,AF,C,475883,475883,474253,475167,474254,476365,475683,475683,476365,123
122,test,1,con,1,m,Thu Jan 09 2025 13:16:43 GMT-0600 (Central Standard Time),486381.1000000015,napkin,900,I,m,m,None,695,496.0,199.0,106,2,2129.10000000149,484252.0,8008,napkin,AF,C,477999,477999,476369,477283,476370,478498,477800,477800,478498,124
123,test,1,inc,1,m,Thu Jan 09 2025 13:16:43 GMT-0600 (Central Standard Time),488730.200000003,love,1000,I,m,m,None,807,607.0,200.0,95,2,2345.7000000029802,486384.5,8008,film,AF,C,480232,480232,478502,479515,478503,480847,480032,480032,480847,125
124,test,1,inc,1,z,Thu Jan 09 2025 13:16:43 GMT-0600 (Central Standard Time),491012.80000000447,window,1100,I,z,z,None,646,447.0,199.0,40,2,2279.2000000029802,488733.6000000015,8008,brutal,AF,C,482680,482680,480851,481965,480852,483130,482481,482481,483130,126
125,test,1,inc,1,z,Thu Jan 09 2025 13:16:43 GMT-0600 (Central Standard Time),493145.80000000447,rock,900,I,z,z,None,691,491.0,200.0,54,2,2129.60000000149,491016.200000003,8008,rage,AF,C,484764,484764,483133,484047,483135,485263,484564,484564,485263,127
126,test,1,con,1,z,Thu Jan 09 2025 13:16:43 GMT-0600 (Central Standard Time),495328.1000000015,temper,900,I,z,z,None,741,526.0,215.0,58,2,2178.39999999851,493149.700000003,8008,temper,AF,C,486912,486913,485267,486180,485268,487445,486697,486697,487445,128
