block_c,block_dur,condition,countdown,datetime,endtime,list,multichar_response,project,response,response_time,session_number,start_end,starttime,subject_id,task,task_vers,trial
,,,,Fri Feb 28 2025 18:24:03 GMT-0600 (Central Standard Time),,,,O,space,546,1,,,7064,WL,A,
prac,,0,,Fri Feb 28 2025 18:24:03 GMT-0600 (Central Standard Time),,NA,b,O,b,5618,1,,,7064,WL,A,1.0
prac,,0,,Fri Feb 28 2025 18:24:03 GMT-0600 (Central Standard Time),,NA,bo,O,o,1059,1,,,7064,WL,A,1.0
prac,,0,,Fri Feb 28 2025 18:24:03 GMT-0600 (Central Standard Time),,NA,boo,O,o,138,1,,,7064,WL,A,1.0
prac,,0,,Fri Feb 28 2025 18:24:03 GMT-0600 (Central Standard Time),,NA,boos,O,s,479,1,,,7064,WL,A,1.0
prac,,0,,Fri Feb 28 2025 18:24:03 GMT-0600 (Central Standard Time),,NA,boost,O,t,285,1,,,7064,WL,A,1.0
prac,,0,,Fri Feb 28 2025 18:24:03 GMT-0600 (Central Standard Time),,NA,boostenter,O,enter,2412,1,,,7064,WL,A,1.0
1,1.0179998874664307,learn,58982.00011253357,Fri Feb 28 2025 18:24:03 GMT-0600 (Central Standard Time),141075.30000001192,A,f,O,f,1003,1,1018.1000000238419,140057.19999998808,7064,WL,A,1.0
1,1.2690000534057617,learn,58730.99994659424,Fri Feb 28 2025 18:24:03 GMT-0600 (Central Standard Time),141326.19999998808,A,fi,O,i,245,1,1269.0,140057.19999998808,7064,WL,A,1.0
1,1.566999912261963,learn,58433.00008773804,Fri Feb 28 2025 18:24:03 GMT-0600 (Central Standard Time),141623.80000001192,A,fin,O,n,278,1,1566.6000000238419,140057.19999998808,7064,WL,A,1.0
1,1.935999870300293,learn,58064.00012969971,Fri Feb 28 2025 18:24:03 GMT-0600 (Central Standard Time),141993.0,A,fing,O,g,356,1,1935.800000011921,140057.19999998808,7064,WL,A,1.0
1,2.2360000610351562,learn,57763.999938964844,Fri Feb 28 2025 18:24:03 GMT-0600 (Central Standard Time),142293.09999996424,A,finge,O,e,283,1,2235.899999976158,140057.19999998808,7064,WL,A,1.0
1,2.619999885559082,learn,57380.00011444092,Fri Feb 28 2025 18:24:03 GMT-0600 (Central Standard Time),142676.19999998808,A,finger,O,r,378,1,2619.0,140057.19999998808,7064,WL,A,1.0
1,3.9659998416900635,learn,56034.00015830994,Fri Feb 28 2025 18:24:03 GMT-0600 (Central Standard Time),144022.89999997616,A,fingerenter,O,enter,1336,1,3965.699999988079,140057.19999998808,7064,WL,A,1.0
1,4.615999937057495,learn,55384.000062942505,Fri Feb 28 2025 18:24:03 GMT-0600 (Central Standard Time),144673.19999998808,A,a,O,a,628,1,649.8999999761581,144023.30000001192,7064,WL,A,2.0
1,5.2159998416900635,learn,54784.00015830994,Fri Feb 28 2025 18:24:03 GMT-0600 (Central Standard Time),145273.0,A,ap,O,p,586,1,1249.699999988079,144023.30000001192,7064,WL,A,2.0
1,5.365999937057495,learn,54634.000062942505,Fri Feb 28 2025 18:24:03 GMT-0600 (Central Standard Time),145423.19999998808,A,app,O,p,140,1,1399.8999999761581,144023.30000001192,7064,WL,A,2.0
1,5.598999977111816,learn,54401.00002288818,Fri Feb 28 2025 18:24:03 GMT-0600 (Central Standard Time),145655.5,A,appl,O,l,221,1,1632.199999988079,144023.30000001192,7064,WL,A,2.0
1,5.764999866485596,learn,54235.000133514404,Fri Feb 28 2025 18:24:03 GMT-0600 (Central Standard Time),145822.19999998808,A,apple,O,e,156,1,1798.8999999761581,144023.30000001192,7064,WL,A,2.0
1,6.648000001907349,learn,53351.99999809265,Fri Feb 28 2025 18:24:03 GMT-0600 (Central Standard Time),146704.69999998808,A,appleenter,O,enter,862,1,2681.399999976158,144023.30000001192,7064,WL,A,2.0
1,7.5980000495910645,learn,52401.999950408936,Fri Feb 28 2025 18:24:03 GMT-0600 (Central Standard Time),147655.19999998808,A,l,O,l,931,1,950.1000000238419,146705.09999996424,7064,WL,A,3.0
1,7.815000057220459,learn,52184.99994277954,Fri Feb 28 2025 18:24:03 GMT-0600 (Central Standard Time),147871.5,A,lo,O,o,205,1,1166.4000000357628,146705.09999996424,7064,WL,A,3.0
1,8.13100004196167,learn,51868.99995803833,Fri Feb 28 2025 18:24:03 GMT-0600 (Central Standard Time),148187.89999997616,A,log,O,g,309,1,1482.800000011921,146705.09999996424,7064,WL,A,3.0
1,9.098999977111816,learn,50901.00002288818,Fri Feb 28 2025 18:24:03 GMT-0600 (Central Standard Time),149155.69999998808,A,logenter,O,enter,953,1,2450.600000023842,146705.09999996424,7064,WL,A,3.0
1,10.514999866485596,learn,49485.000133514404,Fri Feb 28 2025 18:24:03 GMT-0600 (Central Standard Time),150571.69999998808,A,t,O,t,1401,1,1415.699999988079,149156.0,7064,WL,A,4.0
1,10.763999938964844,learn,49236.000061035156,Fri Feb 28 2025 18:24:03 GMT-0600 (Central Standard Time),150821.0,A,tr,O,r,243,1,1665.0,149156.0,7064,WL,A,4.0
1,10.999000072479248,learn,49000.99992752075,Fri Feb 28 2025 18:24:03 GMT-0600 (Central Standard Time),151055.39999997616,A,tre,O,e,215,1,1899.3999999761581,149156.0,7064,WL,A,4.0
1,11.214999914169312,learn,48785.00008583069,Fri Feb 28 2025 18:24:03 GMT-0600 (Central Standard Time),151271.39999997616,A,tree,O,e,196,1,2115.399999976158,149156.0,7064,WL,A,4.0
1,11.530999898910522,learn,48469.00010108948,Fri Feb 28 2025 18:24:03 GMT-0600 (Central Standard Time),151588.0,A,treeenter,O,enter,310,1,2432.0,149156.0,7064,WL,A,4.0
1,13.562999963760376,learn,46437.000036239624,Fri Feb 28 2025 18:24:03 GMT-0600 (Central Standard Time),153619.80000001192,A,g,O,g,2017,1,2031.4000000357628,151588.39999997616,7064,WL,A,5.0
1,13.780999898910522,learn,46219.00010108948,Fri Feb 28 2025 18:24:03 GMT-0600 (Central Standard Time),153837.39999997616,A,go,O,o,201,1,2249.0,151588.39999997616,7064,WL,A,5.0
1,14.013999938964844,learn,45986.000061035156,Fri Feb 28 2025 18:24:03 GMT-0600 (Central Standard Time),154070.30000001192,A,gol,O,l,223,1,2481.900000035763,151588.39999997616,7064,WL,A,5.0
1,14.42799997329712,learn,45572.00002670288,Fri Feb 28 2025 18:24:03 GMT-0600 (Central Standard Time),154485.19999998808,A,gold,O,d,397,1,2896.800000011921,151588.39999997616,7064,WL,A,5.0
1,14.730000019073486,learn,45269.999980926514,Fri Feb 28 2025 18:24:03 GMT-0600 (Central Standard Time),154786.30000001192,A,goldenter,O,enter,278,1,3197.900000035763,151588.39999997616,7064,WL,A,5.0
1,21.39400005340576,learn,38605.99994659424,Fri Feb 28 2025 18:24:03 GMT-0600 (Central Standard Time),161450.80000001192,A,a,O,a,6651,1,6664.200000047684,154786.59999996424,7064,WL,A,6.0
1,22.144999980926514,learn,37855.000019073486,Fri Feb 28 2025 18:24:03 GMT-0600 (Central Standard Time),162201.69999998808,A,ap,O,p,731,1,7415.100000023842,154786.59999996424,7064,WL,A,6.0
1,22.294999837875366,learn,37705.000162124634,Fri Feb 28 2025 18:24:03 GMT-0600 (Central Standard Time),162351.39999997616,A,app,O,p,130,1,7564.800000011921,154786.59999996424,7064,WL,A,6.0
1,23.32699990272522,learn,36673.00009727478,Fri Feb 28 2025 18:24:03 GMT-0600 (Central Standard Time),163383.59999996424,A,appl,O,l,1011,1,8597.0,154786.59999996424,7064,WL,A,6.0
1,23.876999855041504,learn,36123.000144958496,Fri Feb 28 2025 18:24:03 GMT-0600 (Central Standard Time),163933.80000001192,A,apple,O,e,531,1,9147.200000047684,154786.59999996424,7064,WL,A,6.0
1,24.810999870300293,learn,35189.00012969971,Fri Feb 28 2025 18:24:03 GMT-0600 (Central Standard Time),164867.59999996424,A,appleenter,O,enter,926,1,10081.0,154786.59999996424,7064,WL,A,6.0
1,34.789000034332275,learn,25210.999965667725,Fri Feb 28 2025 18:24:03 GMT-0600 (Central Standard Time),174846.19999998808,A,k,O,k,9969,1,9978.300000011921,164867.89999997616,7064,WL,A,7.0
1,34.94000005722046,learn,25059.99994277954,Fri Feb 28 2025 18:24:03 GMT-0600 (Central Standard Time),174997.09999996424,A,ke,O,e,134,1,10129.199999988079,164867.89999997616,7064,WL,A,7.0
1,35.257999897003174,learn,24742.000102996826,Fri Feb 28 2025 18:24:03 GMT-0600 (Central Standard Time),175314.30000001192,A,key,O,y,303,1,10446.400000035763,164867.89999997616,7064,WL,A,7.0
1,35.82299995422363,learn,24177.000045776367,Fri Feb 28 2025 18:24:03 GMT-0600 (Central Standard Time),175879.30000001192,A,keyenter,O,enter,546,1,11011.400000035763,164867.89999997616,7064,WL,A,7.0
1,42.486000061035156,learn,17513.999938964844,Fri Feb 28 2025 18:24:03 GMT-0600 (Central Standard Time),182544.30000001192,A,s,O,s,6653,1,6664.600000023842,175879.69999998808,7064,WL,A,8.0
1,42.61999988555908,learn,17380.000114440918,Fri Feb 28 2025 18:24:03 GMT-0600 (Central Standard Time),182677.59999996424,A,st,O,t,115,1,6797.899999976158,175879.69999998808,7064,WL,A,8.0
1,42.75399994850159,learn,17246.000051498413,Fri Feb 28 2025 18:24:03 GMT-0600 (Central Standard Time),182812.5,A,sta,O,a,129,1,6932.800000011921,175879.69999998808,7064,WL,A,8.0
1,42.9210000038147,learn,17078.999996185303,Fri Feb 28 2025 18:24:03 GMT-0600 (Central Standard Time),182978.80000001192,A,star,O,r,145,1,7099.100000023842,175879.69999998808,7064,WL,A,8.0
1,43.4689998626709,learn,16531.0001373291,Fri Feb 28 2025 18:24:03 GMT-0600 (Central Standard Time),183527.5,A,starenter,O,enter,536,1,7647.800000011921,175879.69999998808,7064,WL,A,8.0
1,47.43400001525879,learn,12565.999984741211,Fri Feb 28 2025 18:24:03 GMT-0600 (Central Standard Time),187492.19999998808,A,enter,O,enter,3949,1,3964.300000011921,183527.89999997616,7064,WL,A,9.0
1,47.651000022888184,learn,12348.999977111816,Fri Feb 28 2025 18:24:03 GMT-0600 (Central Standard Time),187709.5,A,enter,O,enter,208,1,216.9000000357628,187492.59999996424,7064,WL,A,10.0
1,47.91700005531311,learn,12082.99994468689,Fri Feb 28 2025 18:24:03 GMT-0600 (Central Standard Time),187975.09999996424,A,enter,O,enter,247,1,265.19999998807907,187709.89999997616,7064,WL,A,11.0
1,48.134000062942505,learn,11865.999937057495,Fri Feb 28 2025 18:24:03 GMT-0600 (Central Standard Time),188192.09999996424,A,enter,O,enter,197,1,216.5,187975.59999996424,7064,WL,A,12.0
1,48.61699986457825,learn,11383.000135421753,Fri Feb 28 2025 18:24:03 GMT-0600 (Central Standard Time),188675.39999997616,A,enter,O,enter,461,1,482.89999997615814,188192.5,7064,WL,A,13.0
1,48.93299984931946,learn,11067.000150680542,Fri Feb 28 2025 18:24:03 GMT-0600 (Central Standard Time),188991.5,A,enter,O,enter,305,1,315.80000001192093,188675.69999998808,7064,WL,A,14.0
1,49.36800003051758,learn,10631.999969482422,Fri Feb 28 2025 18:24:03 GMT-0600 (Central Standard Time),189425.89999997616,A,enter,O,enter,413,1,434.0999999642372,188991.80000001192,7064,WL,A,15.0
2,1.566999912261963,learn,58433.00008773804,Fri Feb 28 2025 18:24:03 GMT-0600 (Central Standard Time),271316.6999999881,A,b,O,b,1560,1,1566.6000000238419,269750.09999996424,7064,WL,A,1.0
2,2.0329999923706055,learn,57967.000007629395,Fri Feb 28 2025 18:24:03 GMT-0600 (Central Standard Time),271782.6999999881,A,bo,O,o,447,1,2032.6000000238419,269750.09999996424,7064,WL,A,1.0
2,2.1989998817443848,learn,57801.000118255615,Fri Feb 28 2025 18:24:03 GMT-0600 (Central Standard Time),271948.6999999881,A,boo,O,o,159,1,2198.600000023842,269750.09999996424,7064,WL,A,1.0
2,3.866999864578247,learn,56133.00013542175,Fri Feb 28 2025 18:24:03 GMT-0600 (Central Standard Time),273616.89999997616,A,book,O,k,1646,1,3866.800000011921,269750.09999996424,7064,WL,A,1.0
2,4.565999984741211,learn,55434.00001525879,Fri Feb 28 2025 18:24:03 GMT-0600 (Central Standard Time),274315.5,A,bookenter,O,enter,692,1,4565.400000035763,269750.09999996424,7064,WL,A,1.0
2,5.31499981880188,learn,54685.00018119812,Fri Feb 28 2025 18:24:03 GMT-0600 (Central Standard Time),275064.8000000119,A,a,O,a,730,1,749.0,274315.8000000119,7064,WL,A,2.0
2,5.664999961853027,learn,54335.00003814697,Fri Feb 28 2025 18:24:03 GMT-0600 (Central Standard Time),275414.5,A,ap,O,p,337,1,1098.699999988079,274315.8000000119,7064,WL,A,2.0
2,5.830999851226807,learn,54169.00014877319,Fri Feb 28 2025 18:24:03 GMT-0600 (Central Standard Time),275580.59999996424,A,app,O,p,145,1,1264.7999999523163,274315.8000000119,7064,WL,A,2.0
2,6.065999984741211,learn,53934.00001525879,Fri Feb 28 2025 18:24:03 GMT-0600 (Central Standard Time),275815.5,A,appl,O,l,214,1,1499.699999988079,274315.8000000119,7064,WL,A,2.0
2,6.265999794006348,learn,53734.00020599365,Fri Feb 28 2025 18:24:03 GMT-0600 (Central Standard Time),276015.39999997616,A,apple,O,e,189,1,1699.5999999642372,274315.8000000119,7064,WL,A,2.0
2,6.764999866485596,learn,53235.000133514404,Fri Feb 28 2025 18:24:03 GMT-0600 (Central Standard Time),276514.59999996424,A,appleenter,O,enter,493,1,2198.7999999523163,274315.8000000119,7064,WL,A,2.0
2,8.765999794006348,learn,51234.00020599365,Fri Feb 28 2025 18:24:03 GMT-0600 (Central Standard Time),278514.89999997616,A,m,O,m,1986,1,2000.0999999642372,276514.8000000119,7064,WL,A,3.0
2,9.164999961853027,learn,50835.00003814697,Fri Feb 28 2025 18:24:03 GMT-0600 (Central Standard Time),278914.39999997616,A,me,O,e,393,1,2399.599999964237,276514.8000000119,7064,WL,A,3.0
2,9.746999979019165,learn,50253.000020980835,Fri Feb 28 2025 18:24:03 GMT-0600 (Central Standard Time),279496.8000000119,A,mea,O,a,562,1,2982.0,276514.8000000119,7064,WL,A,3.0
2,10.264999866485596,learn,49735.000133514404,Fri Feb 28 2025 18:24:03 GMT-0600 (Central Standard Time),280014.1999999881,A,mead,O,d,500,1,3499.399999976158,276514.8000000119,7064,WL,A,3.0
2,10.530999898910522,learn,49469.00010108948,Fri Feb 28 2025 18:24:03 GMT-0600 (Central Standard Time),280280.59999996424,A,meado,O,o,255,1,3765.7999999523163,276514.8000000119,7064,WL,A,3.0
2,10.730999946594238,learn,49269.00005340576,Fri Feb 28 2025 18:24:03 GMT-0600 (Central Standard Time),280480.5,A,meadow,O,w,187,1,3965.699999988079,276514.8000000119,7064,WL,A,3.0
2,11.246999979019165,learn,48753.000020980835,Fri Feb 28 2025 18:24:03 GMT-0600 (Central Standard Time),280996.6999999881,A,meadowenter,O,enter,499,1,4481.899999976158,276514.8000000119,7064,WL,A,3.0
2,11.962999820709229,learn,48037.00017929077,Fri Feb 28 2025 18:24:03 GMT-0600 (Central Standard Time),281712.09999996424,A,g,O,g,696,1,715.0999999642372,280997.0,7064,WL,A,4.0
2,12.145999908447266,learn,47854.000091552734,Fri Feb 28 2025 18:24:03 GMT-0600 (Central Standard Time),281895.1999999881,A,go,O,o,174,1,898.1999999880791,280997.0,7064,WL,A,4.0
2,12.495999813079834,learn,47504.000186920166,Fri Feb 28 2025 18:24:03 GMT-0600 (Central Standard Time),282245.59999996424,A,gol,O,l,329,1,1248.5999999642372,280997.0,7064,WL,A,4.0
2,12.877999782562256,learn,47122.000217437744,Fri Feb 28 2025 18:24:03 GMT-0600 (Central Standard Time),282627.59999996424,A,gold,O,d,376,1,1630.5999999642372,280997.0,7064,WL,A,4.0
2,13.379999876022339,learn,46620.00012397766,Fri Feb 28 2025 18:24:03 GMT-0600 (Central Standard Time),283129.0,A,goldenter,O,enter,483,1,2132.0,280997.0,7064,WL,A,4.0
2,13.896999835968018,learn,46103.00016403198,Fri Feb 28 2025 18:24:03 GMT-0600 (Central Standard Time),283646.1999999881,A,l,O,l,501,1,517.0,283129.1999999881,7064,WL,A,5.0
2,14.145999908447266,learn,45854.000091552734,Fri Feb 28 2025 18:24:03 GMT-0600 (Central Standard Time),283895.1999999881,A,lo,O,o,230,1,766.0,283129.1999999881,7064,WL,A,5.0
2,14.646999835968018,learn,45353.00016403198,Fri Feb 28 2025 18:24:03 GMT-0600 (Central Standard Time),284396.3000000119,A,log,O,g,486,1,1267.1000000238419,283129.1999999881,7064,WL,A,5.0
2,15.144999980926514,learn,44855.000019073486,Fri Feb 28 2025 18:24:03 GMT-0600 (Central Standard Time),284894.6999999881,A,logenter,O,enter,489,1,1765.5,283129.1999999881,7064,WL,A,5.0
2,17.876999855041504,learn,42123.000144958496,Fri Feb 28 2025 18:24:03 GMT-0600 (Central Standard Time),287626.3000000119,A,h,O,h,2726,1,2731.400000035763,284894.89999997616,7064,WL,A,6.0
2,18.092999935150146,learn,41907.00006484985,Fri Feb 28 2025 18:24:03 GMT-0600 (Central Standard Time),287841.89999997616,A,ha,O,a,209,1,2947.0,284894.89999997616,7064,WL,A,6.0
2,18.459999799728394,learn,41540.00020027161,Fri Feb 28 2025 18:24:03 GMT-0600 (Central Standard Time),288209.5,A,har,O,r,347,1,3314.600000023842,284894.89999997616,7064,WL,A,6.0
2,18.925999879837036,learn,41074.000120162964,Fri Feb 28 2025 18:24:03 GMT-0600 (Central Standard Time),288675.1999999881,A,harp,O,p,460,1,3780.300000011921,284894.89999997616,7064,WL,A,6.0
2,19.460999965667725,learn,40539.000034332275,Fri Feb 28 2025 18:24:03 GMT-0600 (Central Standard Time),289210.1999999881,A,harpenter,O,enter,531,1,4315.300000011921,284894.89999997616,7064,WL,A,6.0
2,20.478999853134155,learn,39521.000146865845,Fri Feb 28 2025 18:24:03 GMT-0600 (Central Standard Time),290228.3000000119,A,b,O,b,1014,1,1017.9000000357628,289210.39999997616,7064,WL,A,7.0
2,20.925999879837036,learn,39074.000120162964,Fri Feb 28 2025 18:24:03 GMT-0600 (Central Standard Time),290675.8000000119,A,bu,O,u,432,1,1465.4000000357628,289210.39999997616,7064,WL,A,7.0
2,21.194000005722046,learn,38805.999994277954,Fri Feb 28 2025 18:24:03 GMT-0600 (Central Standard Time),290943.6999999881,A,but,O,t,247,1,1733.300000011921,289210.39999997616,7064,WL,A,7.0
2,21.376999855041504,learn,38623.000144958496,Fri Feb 28 2025 18:24:03 GMT-0600 (Central Standard Time),291126.8000000119,A,butt,O,t,164,1,1916.4000000357628,289210.39999997616,7064,WL,A,7.0
2,21.82699990272522,learn,38173.00009727478,Fri Feb 28 2025 18:24:03 GMT-0600 (Central Standard Time),291576.8000000119,A,butto,O,o,437,1,2366.400000035763,289210.39999997616,7064,WL,A,7.0
2,22.41100001335144,learn,37588.99998664856,Fri Feb 28 2025 18:24:03 GMT-0600 (Central Standard Time),292160.0,A,button,O,n,572,1,2949.600000023842,289210.39999997616,7064,WL,A,7.0
2,22.842999935150146,learn,37157.00006484985,Fri Feb 28 2025 18:24:03 GMT-0600 (Central Standard Time),292592.8000000119,A,buttonenter,O,enter,413,1,3382.400000035763,289210.39999997616,7064,WL,A,7.0
2,37.13699984550476,learn,22863.00015449524,Fri Feb 28 2025 18:24:03 GMT-0600 (Central Standard Time),306887.89999997616,A,f,O,f,14276,1,14294.699999988079,292593.1999999881,7064,WL,A,8.0
2,37.33699989318848,learn,22663.000106811523,Fri Feb 28 2025 18:24:03 GMT-0600 (Central Standard Time),307087.1999999881,A,fi,O,i,180,1,14494.0,292593.1999999881,7064,WL,A,8.0
2,37.63800001144409,learn,22361.99998855591,Fri Feb 28 2025 18:24:03 GMT-0600 (Central Standard Time),307388.59999996424,A,fin,O,n,285,1,14795.399999976158,292593.1999999881,7064,WL,A,8.0
2,37.97099995613098,learn,22029.00004386902,Fri Feb 28 2025 18:24:03 GMT-0600 (Central Standard Time),307721.6999999881,A,fing,O,g,320,1,15128.5,292593.1999999881,7064,WL,A,8.0
2,38.18599987030029,learn,21814.000129699707,Fri Feb 28 2025 18:24:03 GMT-0600 (Central Standard Time),307937.1999999881,A,finge,O,e,195,1,15344.0,292593.1999999881,7064,WL,A,8.0
2,38.40399980545044,learn,21596.00019454956,Fri Feb 28 2025 18:24:03 GMT-0600 (Central Standard Time),308155.0,A,finger,O,r,204,1,15561.800000011921,292593.1999999881,7064,WL,A,8.0
2,38.71999979019165,learn,21280.00020980835,Fri Feb 28 2025 18:24:03 GMT-0600 (Central Standard Time),308470.39999997616,A,fingerenter,O,enter,305,1,15877.199999988079,292593.1999999881,7064,WL,A,8.0
2,41.83699989318848,learn,18163.000106811523,Fri Feb 28 2025 18:24:03 GMT-0600 (Central Standard Time),311587.5,A,enter,O,enter,3102,1,3116.800000011921,308470.6999999881,7064,WL,A,9.0
2,42.502999782562256,learn,17497.000217437744,Fri Feb 28 2025 18:24:03 GMT-0600 (Central Standard Time),312253.3000000119,A,enter,O,enter,650,1,665.6000000238419,311587.6999999881,7064,WL,A,10.0
2,42.88699984550476,learn,17113.00015449524,Fri Feb 28 2025 18:24:03 GMT-0600 (Central Standard Time),312637.59999996424,A,enter,O,enter,378,1,384.0,312253.59999996424,7064,WL,A,11.0
2,43.168999910354614,learn,16831.000089645386,Fri Feb 28 2025 18:24:03 GMT-0600 (Central Standard Time),312920.09999996424,A,enter,O,enter,264,1,282.0999999642372,312638.0,7064,WL,A,12.0
2,43.51899981498718,learn,16481.000185012817,Fri Feb 28 2025 18:24:03 GMT-0600 (Central Standard Time),313269.8000000119,A,enter,O,enter,342,1,349.30000001192093,312920.5,7064,WL,A,13.0
2,44.36899995803833,learn,15631.00004196167,Fri Feb 28 2025 18:24:03 GMT-0600 (Central Standard Time),314119.39999997616,A,enter,O,enter,839,1,849.1999999880791,313270.1999999881,7064,WL,A,14.0
2,44.86899995803833,learn,15131.00004196167,Fri Feb 28 2025 18:24:03 GMT-0600 (Central Standard Time),314619.59999996424,A,enter,O,enter,494,1,499.89999997615814,314119.6999999881,7064,WL,A,15.0
3,2.5980000495910645,learn,57401.999950408936,Fri Feb 28 2025 18:24:03 GMT-0600 (Central Standard Time),388862.3000000119,A,b,O,b,2580,1,2598.0,386264.3000000119,7064,WL,A,1.0
3,3.0980000495910645,learn,56901.999950408936,Fri Feb 28 2025 18:24:03 GMT-0600 (Central Standard Time),389362.0,A,bo,O,o,487,1,3097.699999988079,386264.3000000119,7064,WL,A,1.0
3,3.265000104904175,learn,56734.999895095825,Fri Feb 28 2025 18:24:03 GMT-0600 (Central Standard Time),389528.8000000119,A,boo,O,o,147,1,3264.5,386264.3000000119,7064,WL,A,1.0
3,3.5810000896453857,learn,56418.999910354614,Fri Feb 28 2025 18:24:03 GMT-0600 (Central Standard Time),389845.1999999881,A,book,O,k,299,1,3580.899999976158,386264.3000000119,7064,WL,A,1.0
3,4.38100004196167,learn,55618.99995803833,Fri Feb 28 2025 18:24:03 GMT-0600 (Central Standard Time),390644.59999996424,A,bookenter,O,enter,783,1,4380.299999952316,386264.3000000119,7064,WL,A,1.0
3,5.3480000495910645,learn,54651.999950408936,Fri Feb 28 2025 18:24:03 GMT-0600 (Central Standard Time),391612.39999997616,A,k,O,k,963,1,967.5999999642372,390644.8000000119,7064,WL,A,2.0
3,5.697999954223633,learn,54302.00004577637,Fri Feb 28 2025 18:24:03 GMT-0600 (Central Standard Time),391961.59999996424,A,ke,O,e,328,1,1316.7999999523163,390644.8000000119,7064,WL,A,2.0
3,6.013000011444092,learn,53986.99998855591,Fri Feb 28 2025 18:24:03 GMT-0600 (Central Standard Time),392276.59999996424,A,key,O,y,307,1,1631.7999999523163,390644.8000000119,7064,WL,A,2.0
3,6.513000011444092,learn,53486.99998855591,Fri Feb 28 2025 18:24:03 GMT-0600 (Central Standard Time),392777.1999999881,A,keyenter,O,enter,479,1,2132.399999976158,390644.8000000119,7064,WL,A,2.0
3,7.312999963760376,learn,52687.000036239624,Fri Feb 28 2025 18:24:03 GMT-0600 (Central Standard Time),393577.1999999881,A,m,O,m,788,1,799.6999999880791,392777.5,7064,WL,A,3.0
3,7.564000129699707,learn,52435.99987030029,Fri Feb 28 2025 18:24:03 GMT-0600 (Central Standard Time),393827.5,A,me,O,e,245,1,1050.0,392777.5,7064,WL,A,3.0
3,7.8459999561309814,learn,52154.00004386902,Fri Feb 28 2025 18:24:03 GMT-0600 (Central Standard Time),394110.09999996424,A,mea,O,a,265,1,1332.5999999642372,392777.5,7064,WL,A,3.0
3,8.263000011444092,learn,51736.99998855591,Fri Feb 28 2025 18:24:03 GMT-0600 (Central Standard Time),394527.0,A,mead,O,d,407,1,1749.5,392777.5,7064,WL,A,3.0
3,8.614000082015991,learn,51385.99991798401,Fri Feb 28 2025 18:24:03 GMT-0600 (Central Standard Time),394878.09999996424,A,meado,O,o,328,1,2100.599999964237,392777.5,7064,WL,A,3.0
3,8.814000129699707,learn,51185.99987030029,Fri Feb 28 2025 18:24:03 GMT-0600 (Central Standard Time),395077.5,A,meadow,O,w,176,1,2300.0,392777.5,7064,WL,A,3.0
3,9.180000066757202,learn,50819.9999332428,Fri Feb 28 2025 18:24:03 GMT-0600 (Central Standard Time),395443.89999997616,A,meadowenter,O,enter,350,1,2666.399999976158,392777.5,7064,WL,A,3.0
3,9.812999963760376,learn,50187.000036239624,Fri Feb 28 2025 18:24:03 GMT-0600 (Central Standard Time),396077.3000000119,A,b,O,b,616,1,633.1000000238419,395444.1999999881,7064,WL,A,4.0
3,10.194999933242798,learn,49805.0000667572,Fri Feb 28 2025 18:24:03 GMT-0600 (Central Standard Time),396459.0,A,bu,O,u,368,1,1014.8000000119209,395444.1999999881,7064,WL,A,4.0
3,10.463000059127808,learn,49536.99994087219,Fri Feb 28 2025 18:24:03 GMT-0600 (Central Standard Time),396726.59999996424,A,but,O,t,250,1,1282.3999999761581,395444.1999999881,7064,WL,A,4.0
3,10.61300015449524,learn,49386.99984550476,Fri Feb 28 2025 18:24:03 GMT-0600 (Central Standard Time),396877.0,A,butt,O,t,145,1,1432.800000011921,395444.1999999881,7064,WL,A,4.0
3,10.77999997138977,learn,49220.00002861023,Fri Feb 28 2025 18:24:03 GMT-0600 (Central Standard Time),397043.89999997616,A,butto,O,o,160,1,1599.699999988079,395444.1999999881,7064,WL,A,4.0
3,10.996000051498413,learn,49003.99994850159,Fri Feb 28 2025 18:24:03 GMT-0600 (Central Standard Time),397259.89999997616,A,button,O,n,201,1,1815.699999988079,395444.1999999881,7064,WL,A,4.0
3,11.42799997329712,learn,48572.00002670288,Fri Feb 28 2025 18:24:03 GMT-0600 (Central Standard Time),397692.09999996424,A,buttonenter,O,enter,417,1,2247.899999976158,395444.1999999881,7064,WL,A,4.0
3,13.094000101089478,learn,46905.99989891052,Fri Feb 28 2025 18:24:03 GMT-0600 (Central Standard Time),399357.6999999881,A,l,O,l,1648,1,1665.3999999761581,397692.3000000119,7064,WL,A,5.0
3,13.342999935150146,learn,46657.00006484985,Fri Feb 28 2025 18:24:03 GMT-0600 (Central Standard Time),399607.1999999881,A,lo,O,o,236,1,1914.8999999761581,397692.3000000119,7064,WL,A,5.0
3,13.66100001335144,learn,46338.99998664856,Fri Feb 28 2025 18:24:03 GMT-0600 (Central Standard Time),399925.3000000119,A,log,O,g,304,1,2233.0,397692.3000000119,7064,WL,A,5.0
3,14.026999950408936,learn,45973.000049591064,Fri Feb 28 2025 18:24:03 GMT-0600 (Central Standard Time),400290.8000000119,A,logenter,O,enter,352,1,2598.5,397692.3000000119,7064,WL,A,5.0
3,16.011000156402588,learn,43988.99984359741,Fri Feb 28 2025 18:24:03 GMT-0600 (Central Standard Time),402275.0,A,h,O,h,1971,1,1984.0,400291.0,7064,WL,A,6.0
3,16.478000164031982,learn,43521.99983596802,Fri Feb 28 2025 18:24:03 GMT-0600 (Central Standard Time),402742.1999999881,A,ha,O,a,443,1,2451.199999988079,400291.0,7064,WL,A,6.0
3,16.77900004386902,learn,43220.99995613098,Fri Feb 28 2025 18:24:03 GMT-0600 (Central Standard Time),403043.09999996424,A,har,O,r,293,1,2752.099999964237,400291.0,7064,WL,A,6.0
3,17.41000008583069,learn,42589.99991416931,Fri Feb 28 2025 18:24:03 GMT-0600 (Central Standard Time),403673.6999999881,A,harp,O,p,607,1,3382.699999988079,400291.0,7064,WL,A,6.0
3,17.877000093460083,learn,42122.99990653992,Fri Feb 28 2025 18:24:03 GMT-0600 (Central Standard Time),404141.09999996424,A,harpenter,O,enter,449,1,3850.099999964237,400291.0,7064,WL,A,6.0
3,22.026000022888184,learn,37973.99997711182,Fri Feb 28 2025 18:24:03 GMT-0600 (Central Standard Time),408290.09999996424,A,a,O,a,4137,1,4148.699999988079,404141.39999997616,7064,WL,A,7.0
3,22.37600016593933,learn,37623.99983406067,Fri Feb 28 2025 18:24:03 GMT-0600 (Central Standard Time),408639.5,A,ap,O,p,330,1,4498.100000023842,404141.39999997616,7064,WL,A,7.0
3,22.509000062942505,learn,37490.999937057495,Fri Feb 28 2025 18:24:03 GMT-0600 (Central Standard Time),408772.89999997616,A,app,O,p,117,1,4631.5,404141.39999997616,7064,WL,A,7.0
3,22.70900011062622,learn,37290.99988937378,Fri Feb 28 2025 18:24:03 GMT-0600 (Central Standard Time),408973.09999996424,A,appl,O,l,191,1,4831.699999988079,404141.39999997616,7064,WL,A,7.0
3,22.909000158309937,learn,37090.99984169006,Fri Feb 28 2025 18:24:03 GMT-0600 (Central Standard Time),409173.0,A,apple,O,e,194,1,5031.600000023842,404141.39999997616,7064,WL,A,7.0
3,23.39199995994568,learn,36608.00004005432,Fri Feb 28 2025 18:24:03 GMT-0600 (Central Standard Time),409655.5,A,appleenter,O,enter,469,1,5514.100000023842,404141.39999997616,7064,WL,A,7.0
3,24.05999994277954,learn,35940.00005722046,Fri Feb 28 2025 18:24:03 GMT-0600 (Central Standard Time),410323.59999996424,A,g,O,g,662,1,667.8999999761581,409655.6999999881,7064,WL,A,8.0
3,24.276000022888184,learn,35723.99997711182,Fri Feb 28 2025 18:24:03 GMT-0600 (Central Standard Time),410539.89999997616,A,go,O,o,200,1,884.1999999880791,409655.6999999881,7064,WL,A,8.0
3,24.508000135421753,learn,35491.99986457825,Fri Feb 28 2025 18:24:03 GMT-0600 (Central Standard Time),410771.89999997616,A,gol,O,l,227,1,1116.199999988079,409655.6999999881,7064,WL,A,8.0
3,24.674999952316284,learn,35325.000047683716,Fri Feb 28 2025 18:24:03 GMT-0600 (Central Standard Time),410939.0,A,gold,O,d,149,1,1283.300000011921,409655.6999999881,7064,WL,A,8.0
3,25.05900001525879,learn,34940.99998474121,Fri Feb 28 2025 18:24:03 GMT-0600 (Central Standard Time),411322.6999999881,A,goldenter,O,enter,377,1,1667.0,409655.6999999881,7064,WL,A,8.0
3,30.69000005722046,learn,29309.99994277954,Fri Feb 28 2025 18:24:03 GMT-0600 (Central Standard Time),416953.8000000119,A,k,O,k,5610,1,5630.800000011921,411323.0,7064,WL,A,9.0
3,30.9060001373291,learn,29093.9998626709,Fri Feb 28 2025 18:24:03 GMT-0600 (Central Standard Time),417170.1999999881,A,ke,O,e,210,1,5847.199999988079,411323.0,7064,WL,A,9.0
3,31.205000162124634,learn,28794.999837875366,Fri Feb 28 2025 18:24:03 GMT-0600 (Central Standard Time),417470.0,A,key,O,y,276,1,6147.0,411323.0,7064,WL,A,9.0
3,31.538000106811523,learn,28461.999893188477,Fri Feb 28 2025 18:24:03 GMT-0600 (Central Standard Time),417803.1999999881,A,keyenter,O,enter,317,1,6480.199999988079,411323.0,7064,WL,A,9.0
3,41.26600003242493,learn,18733.999967575073,Fri Feb 28 2025 18:24:03 GMT-0600 (Central Standard Time),427531.8000000119,A,b,O,b,9714,1,9728.300000011921,417803.5,7064,WL,A,10.0
3,41.53400015830994,learn,18465.999841690063,Fri Feb 28 2025 18:24:03 GMT-0600 (Central Standard Time),427799.39999997616,A,bo,O,o,248,1,9995.899999976158,417803.5,7064,WL,A,10.0
3,41.66799998283386,learn,18332.000017166138,Fri Feb 28 2025 18:24:03 GMT-0600 (Central Standard Time),427933.09999996424,A,boo,O,o,128,1,10129.599999964237,417803.5,7064,WL,A,10.0
3,41.83400011062622,learn,18165.99988937378,Fri Feb 28 2025 18:24:03 GMT-0600 (Central Standard Time),428099.5,A,book,O,k,158,1,10296.0,417803.5,7064,WL,A,10.0
3,42.117000102996826,learn,17882.999897003174,Fri Feb 28 2025 18:24:03 GMT-0600 (Central Standard Time),428382.3000000119,A,bookenter,O,enter,264,1,10578.800000011921,417803.5,7064,WL,A,10.0
3,43.549999952316284,learn,16450.000047683716,Fri Feb 28 2025 18:24:03 GMT-0600 (Central Standard Time),429815.39999997616,A,f,O,f,1415,1,1432.8999999761581,428382.5,7064,WL,A,11.0
3,43.867000102996826,learn,16132.999897003174,Fri Feb 28 2025 18:24:03 GMT-0600 (Central Standard Time),430132.1999999881,A,fl,O,l,302,1,1749.699999988079,428382.5,7064,WL,A,11.0
3,44.05200004577637,learn,15947.999954223633,Fri Feb 28 2025 18:24:03 GMT-0600 (Central Standard Time),430316.89999997616,A,flo,O,o,178,1,1934.3999999761581,428382.5,7064,WL,A,11.0
3,44.33400011062622,learn,15665.99988937378,Fri Feb 28 2025 18:24:03 GMT-0600 (Central Standard Time),430599.09999996424,A,flow,O,w,262,1,2216.599999964237,428382.5,7064,WL,A,11.0
3,44.58400011062622,learn,15415.99988937378,Fri Feb 28 2025 18:24:03 GMT-0600 (Central Standard Time),430849.3000000119,A,flowe,O,e,231,1,2466.800000011921,428382.5,7064,WL,A,11.0
3,44.83400011062622,learn,15165.99988937378,Fri Feb 28 2025 18:24:03 GMT-0600 (Central Standard Time),431099.3000000119,A,flower,O,r,242,1,2716.800000011921,428382.5,7064,WL,A,11.0
3,45.199000120162964,learn,14800.999879837036,Fri Feb 28 2025 18:24:03 GMT-0600 (Central Standard Time),431464.39999997616,A,flowerenter,O,enter,344,1,3081.899999976158,428382.5,7064,WL,A,11.0
3,53.36500000953674,learn,6634.999990463257,Fri Feb 28 2025 18:24:03 GMT-0600 (Central Standard Time),439630.39999997616,A,l,O,l,8160,1,8165.699999988079,431464.6999999881,7064,WL,A,12.0
3,53.59700012207031,learn,6402.9998779296875,Fri Feb 28 2025 18:24:03 GMT-0600 (Central Standard Time),439862.1999999881,A,lo,O,o,223,1,8397.5,431464.6999999881,7064,WL,A,12.0
3,53.930999994277954,learn,6069.000005722046,Fri Feb 28 2025 18:24:03 GMT-0600 (Central Standard Time),440195.89999997616,A,log,O,g,314,1,8731.199999988079,431464.6999999881,7064,WL,A,12.0
3,54.2810001373291,learn,5718.999862670898,Fri Feb 28 2025 18:24:03 GMT-0600 (Central Standard Time),440546.09999996424,A,logenter,O,enter,337,1,9081.399999976158,431464.6999999881,7064,WL,A,12.0
3,56.013999938964844,learn,3986.0000610351562,Fri Feb 28 2025 18:24:03 GMT-0600 (Central Standard Time),442278.8000000119,A,enter,O,enter,1723,1,1732.5,440546.3000000119,7064,WL,A,13.0
3,56.21300005912781,learn,3786.9999408721924,Fri Feb 28 2025 18:24:03 GMT-0600 (Central Standard Time),442478.6999999881,A,enter,O,enter,182,1,199.5,442279.1999999881,7064,WL,A,14.0
3,56.6470000743866,learn,3352.9999256134033,Fri Feb 28 2025 18:24:03 GMT-0600 (Central Standard Time),442911.89999997616,A,enter,O,enter,422,1,432.80000001192093,442479.09999996424,7064,WL,A,15.0
4,2.063999891281128,learn,57936.00010871887,Fri Feb 28 2025 18:24:03 GMT-0600 (Central Standard Time),521953.3000000119,A,b,O,b,2051,1,2063.100000023842,519890.1999999881,7064,WL,A,1.0
4,2.363999843597412,learn,57636.00015640259,Fri Feb 28 2025 18:24:03 GMT-0600 (Central Standard Time),522253.0,A,bo,O,o,283,1,2362.800000011921,519890.1999999881,7064,WL,A,1.0
4,2.513000011444092,learn,57486.99998855591,Fri Feb 28 2025 18:24:03 GMT-0600 (Central Standard Time),522402.89999997616,A,boo,O,o,143,1,2512.699999988079,519890.1999999881,7064,WL,A,1.0
4,2.763000011444092,learn,57236.99998855591,Fri Feb 28 2025 18:24:03 GMT-0600 (Central Standard Time),522653.0,A,book,O,k,243,1,2762.800000011921,519890.1999999881,7064,WL,A,1.0
4,3.178999900817871,learn,56821.00009918213,Fri Feb 28 2025 18:24:03 GMT-0600 (Central Standard Time),523068.89999997616,A,bookenter,O,enter,410,1,3178.699999988079,519890.1999999881,7064,WL,A,1.0
4,3.6480000019073486,learn,56351.99999809265,Fri Feb 28 2025 18:24:03 GMT-0600 (Central Standard Time),523537.5,A,k,O,k,448,1,468.4000000357628,523069.09999996424,7064,WL,A,2.0
4,3.929999828338623,learn,56070.00017166138,Fri Feb 28 2025 18:24:03 GMT-0600 (Central Standard Time),523819.59999996424,A,ke,O,e,275,1,750.5,523069.09999996424,7064,WL,A,2.0
4,4.246999979019165,learn,55753.000020980835,Fri Feb 28 2025 18:24:03 GMT-0600 (Central Standard Time),524136.3000000119,A,key,O,y,304,1,1067.2000000476837,523069.09999996424,7064,WL,A,2.0
4,4.980000019073486,learn,55019.999980926514,Fri Feb 28 2025 18:24:03 GMT-0600 (Central Standard Time),524869.5999999642,A,keyenter,O,enter,725,1,1800.5,523069.09999996424,7064,WL,A,2.0
4,5.980000019073486,learn,54019.999980926514,Fri Feb 28 2025 18:24:03 GMT-0600 (Central Standard Time),525869.1999999881,A,f,O,f,994,1,999.3999999761581,524869.8000000119,7064,WL,A,3.0
4,6.228999853134155,learn,53771.000146865845,Fri Feb 28 2025 18:24:03 GMT-0600 (Central Standard Time),526118.5,A,fl,O,l,230,1,1248.699999988079,524869.8000000119,7064,WL,A,3.0
4,6.561999797821045,learn,53438.000202178955,Fri Feb 28 2025 18:24:03 GMT-0600 (Central Standard Time),526451.6999999881,A,flo,O,o,317,1,1581.8999999761581,524869.8000000119,7064,WL,A,3.0
4,6.761999845504761,learn,53238.00015449524,Fri Feb 28 2025 18:24:03 GMT-0600 (Central Standard Time),526651.8000000119,A,flow,O,w,185,1,1782.0,524869.8000000119,7064,WL,A,3.0
4,6.9629998207092285,learn,53037.00017929077,Fri Feb 28 2025 18:24:03 GMT-0600 (Central Standard Time),526852.0999999642,A,flowe,O,e,184,1,1982.2999999523163,524869.8000000119,7064,WL,A,3.0
4,7.296000003814697,learn,52703.9999961853,Fri Feb 28 2025 18:24:03 GMT-0600 (Central Standard Time),527186.0999999642,A,flower,O,r,312,1,2316.2999999523163,524869.8000000119,7064,WL,A,3.0
4,7.69599986076355,learn,52304.00013923645,Fri Feb 28 2025 18:24:03 GMT-0600 (Central Standard Time),527585.0999999642,A,flowerenter,O,enter,378,1,2715.2999999523163,524869.8000000119,7064,WL,A,3.0
4,8.827999830245972,learn,51172.00016975403,Fri Feb 28 2025 18:24:03 GMT-0600 (Central Standard Time),528717.0999999642,A,l,O,l,1126,1,1131.699999988079,527585.3999999762,7064,WL,A,4.0
4,9.093999862670898,learn,50906.0001373291,Fri Feb 28 2025 18:24:03 GMT-0600 (Central Standard Time),528984.0999999642,A,lo,O,o,246,1,1398.699999988079,527585.3999999762,7064,WL,A,4.0
4,9.41100001335144,learn,50588.99998664856,Fri Feb 28 2025 18:24:03 GMT-0600 (Central Standard Time),529301.0,A,log,O,g,299,1,1715.6000000238419,527585.3999999762,7064,WL,A,4.0
4,9.694999933242798,learn,50305.0000667572,Fri Feb 28 2025 18:24:03 GMT-0600 (Central Standard Time),529584.5999999642,A,logenter,O,enter,273,1,1999.199999988079,527585.3999999762,7064,WL,A,4.0
4,10.24399995803833,learn,49756.00004196167,Fri Feb 28 2025 18:24:03 GMT-0600 (Central Standard Time),530133.5,A,b,O,b,532,1,548.6999999880791,529584.8000000119,7064,WL,A,5.0
4,10.559999942779541,learn,49440.00005722046,Fri Feb 28 2025 18:24:03 GMT-0600 (Central Standard Time),530449.1999999881,A,bu,O,u,303,1,864.3999999761581,529584.8000000119,7064,WL,A,5.0
4,10.777999877929688,learn,49222.00012207031,Fri Feb 28 2025 18:24:03 GMT-0600 (Central Standard Time),530667.3999999762,A,but,O,t,203,1,1082.5999999642372,529584.8000000119,7064,WL,A,5.0
4,10.942999839782715,learn,49057.000160217285,Fri Feb 28 2025 18:24:03 GMT-0600 (Central Standard Time),530833.0,A,butt,O,t,152,1,1248.199999988079,529584.8000000119,7064,WL,A,5.0
4,11.144999980926514,learn,48855.000019073486,Fri Feb 28 2025 18:24:03 GMT-0600 (Central Standard Time),531034.1999999881,A,butto,O,o,180,1,1449.3999999761581,529584.8000000119,7064,WL,A,5.0
4,11.442999839782715,learn,48557.000160217285,Fri Feb 28 2025 18:24:03 GMT-0600 (Central Standard Time),531332.8000000119,A,button,O,n,282,1,1748.0,529584.8000000119,7064,WL,A,5.0
4,11.876999855041504,learn,48123.000144958496,Fri Feb 28 2025 18:24:03 GMT-0600 (Central Standard Time),531766.1999999881,A,buttonenter,O,enter,414,1,2181.399999976158,529584.8000000119,7064,WL,A,5.0
4,15.675999879837036,learn,44324.000120162964,Fri Feb 28 2025 18:24:03 GMT-0600 (Central Standard Time),535565.5,A,r,O,r,3790,1,3799.100000023842,531766.3999999762,7064,WL,A,6.0
4,15.875999927520752,learn,44124.00007247925,Fri Feb 28 2025 18:24:03 GMT-0600 (Central Standard Time),535765.1999999881,A,ra,O,a,183,1,3998.800000011921,531766.3999999762,7064,WL,A,6.0
4,16.14199995994568,learn,43858.00004005432,Fri Feb 28 2025 18:24:03 GMT-0600 (Central Standard Time),536032.0,A,rat,O,t,246,1,4265.600000023842,531766.3999999762,7064,WL,A,6.0
4,16.258999824523926,learn,43741.000175476074,Fri Feb 28 2025 18:24:03 GMT-0600 (Central Standard Time),536148.3000000119,A,ratt,O,t,109,1,4381.900000035763,531766.3999999762,7064,WL,A,6.0
4,16.5939998626709,learn,43406.0001373291,Fri Feb 28 2025 18:24:03 GMT-0600 (Central Standard Time),536483.1999999881,A,rattl,O,l,327,1,4716.800000011921,531766.3999999762,7064,WL,A,6.0
4,16.842999935150146,learn,43157.00006484985,Fri Feb 28 2025 18:24:03 GMT-0600 (Central Standard Time),536732.8000000119,A,rattle,O,e,226,1,4966.400000035763,531766.3999999762,7064,WL,A,6.0
4,17.158999919891357,learn,42841.00008010864,Fri Feb 28 2025 18:24:03 GMT-0600 (Central Standard Time),537048.3999999762,A,rattleenter,O,enter,294,1,5282.0,531766.3999999762,7064,WL,A,6.0
4,23.6729998588562,learn,36327.0001411438,Fri Feb 28 2025 18:24:03 GMT-0600 (Central Standard Time),543563.6999999881,A,m,O,m,6501,1,6515.100000023842,537048.5999999642,7064,WL,A,7.0
4,23.938999891281128,learn,36061.00010871887,Fri Feb 28 2025 18:24:03 GMT-0600 (Central Standard Time),543829.5,A,me,O,e,248,1,6780.900000035763,537048.5999999642,7064,WL,A,7.0
4,24.188999891281128,learn,35811.00010871887,Fri Feb 28 2025 18:24:03 GMT-0600 (Central Standard Time),544079.6999999881,A,mea,O,a,231,1,7031.100000023842,537048.5999999642,7064,WL,A,7.0
4,24.488999843597412,learn,35511.00015640259,Fri Feb 28 2025 18:24:03 GMT-0600 (Central Standard Time),544379.3999999762,A,mead,O,d,293,1,7330.800000011921,537048.5999999642,7064,WL,A,7.0
4,24.804999828338623,learn,35195.00017166138,Fri Feb 28 2025 18:24:03 GMT-0600 (Central Standard Time),544695.8000000119,A,meado,O,o,298,1,7647.200000047684,537048.5999999642,7064,WL,A,7.0
4,25.055999994277954,learn,34944.000005722046,Fri Feb 28 2025 18:24:03 GMT-0600 (Central Standard Time),544946.5999999642,A,meadow,O,w,236,1,7898.0,537048.5999999642,7064,WL,A,7.0
4,25.521999835968018,learn,34478.00016403198,Fri Feb 28 2025 18:24:03 GMT-0600 (Central Standard Time),545412.8999999762,A,meadowenter,O,enter,443,1,8364.300000011921,537048.5999999642,7064,WL,A,7.0
4,32.520999908447266,learn,27479.000091552734,Fri Feb 28 2025 18:24:03 GMT-0600 (Central Standard Time),552411.3999999762,A,a,O,a,6977,1,6998.199999988079,545413.1999999881,7064,WL,A,8.0
4,32.95299983024597,learn,27047.00016975403,Fri Feb 28 2025 18:24:03 GMT-0600 (Central Standard Time),552843.6999999881,A,ap,O,p,426,1,7430.5,545413.1999999881,7064,WL,A,8.0
4,33.103999853134155,learn,26896.000146865845,Fri Feb 28 2025 18:24:03 GMT-0600 (Central Standard Time),552994.3999999762,A,app,O,p,137,1,7581.199999988079,545413.1999999881,7064,WL,A,8.0
4,33.30299997329712,learn,26697.00002670288,Fri Feb 28 2025 18:24:03 GMT-0600 (Central Standard Time),553193.3999999762,A,appl,O,l,174,1,7780.199999988079,545413.1999999881,7064,WL,A,8.0
4,33.50399994850159,learn,26496.000051498413,Fri Feb 28 2025 18:24:03 GMT-0600 (Central Standard Time),553394.6999999881,A,apple,O,e,177,1,7981.5,545413.1999999881,7064,WL,A,8.0
4,33.78499984741211,learn,26215.00015258789,Fri Feb 28 2025 18:24:03 GMT-0600 (Central Standard Time),553675.8999999762,A,appleenter,O,enter,265,1,8262.699999988079,545413.1999999881,7064,WL,A,8.0
4,46.08200001716614,learn,13917.999982833862,Fri Feb 28 2025 18:24:03 GMT-0600 (Central Standard Time),565972.3999999762,A,f,O,f,12291,1,12296.300000011921,553676.0999999642,7064,WL,A,9.0
4,46.33299994468689,learn,13667.00005531311,Fri Feb 28 2025 18:24:03 GMT-0600 (Central Standard Time),566223.8999999762,A,fi,O,i,231,1,12547.800000011921,553676.0999999642,7064,WL,A,9.0
4,46.58099985122681,learn,13419.000148773193,Fri Feb 28 2025 18:24:03 GMT-0600 (Central Standard Time),566471.8000000119,A,fin,O,n,234,1,12795.700000047684,553676.0999999642,7064,WL,A,9.0
4,46.88099980354309,learn,13119.00019645691,Fri Feb 28 2025 18:24:03 GMT-0600 (Central Standard Time),566771.6999999881,A,fing,O,g,283,1,13095.600000023842,553676.0999999642,7064,WL,A,9.0
4,47.06599998474121,learn,12934.000015258789,Fri Feb 28 2025 18:24:03 GMT-0600 (Central Standard Time),566957.0,A,finge,O,e,181,1,13280.900000035763,553676.0999999642,7064,WL,A,9.0
4,47.263999938964844,learn,12736.000061035156,Fri Feb 28 2025 18:24:03 GMT-0600 (Central Standard Time),567155.3000000119,A,finger,O,r,183,1,13479.200000047684,553676.0999999642,7064,WL,A,9.0
4,47.49799990653992,learn,12502.000093460083,Fri Feb 28 2025 18:24:03 GMT-0600 (Central Standard Time),567389.0999999642,A,fingerenter,O,enter,216,1,13713.0,553676.0999999642,7064,WL,A,9.0
4,53.34499979019165,learn,6655.00020980835,Fri Feb 28 2025 18:24:03 GMT-0600 (Central Standard Time),573236.0999999642,A,enter,O,enter,5840,1,5846.599999964237,567389.5,7064,WL,A,10.0
4,53.5460000038147,learn,6453.999996185303,Fri Feb 28 2025 18:24:03 GMT-0600 (Central Standard Time),573437.1999999881,A,enter,O,enter,194,1,200.80000001192093,573236.3999999762,7064,WL,A,11.0
4,53.74499988555908,learn,6255.000114440918,Fri Feb 28 2025 18:24:03 GMT-0600 (Central Standard Time),573636.1999999881,A,enter,O,enter,177,1,198.80000001192093,573437.3999999762,7064,WL,A,12.0
4,54.0460000038147,learn,5953.999996185303,Fri Feb 28 2025 18:24:03 GMT-0600 (Central Standard Time),573936.5999999642,A,enter,O,enter,280,1,300.0,573636.5999999642,7064,WL,A,13.0
4,54.37899994850159,learn,5621.000051498413,Fri Feb 28 2025 18:24:03 GMT-0600 (Central Standard Time),574269.5,A,enter,O,enter,316,1,332.60000002384186,573936.8999999762,7064,WL,A,14.0
4,54.82799983024597,learn,5172.000169754028,Fri Feb 28 2025 18:24:03 GMT-0600 (Central Standard Time),574719.0999999642,A,enter,O,enter,439,1,449.2999999523163,574269.8000000119,7064,WL,A,15.0
5,1.1489999294281006,learn,60000.0,Fri Feb 28 2025 18:24:03 GMT-0600 (Central Standard Time),649995.0999999642,A,t,O,t,1135,1,1149.0,648846.0999999642,7064,WL,A,1.0
5,1.432999849319458,learn,60000.0,Fri Feb 28 2025 18:24:03 GMT-0600 (Central Standard Time),650278.8000000119,A,tr,O,r,275,1,1432.7000000476837,648846.0999999642,7064,WL,A,1.0
5,1.6659998893737793,learn,60000.0,Fri Feb 28 2025 18:24:03 GMT-0600 (Central Standard Time),650512.3000000119,A,tra,O,a,214,1,1666.2000000476837,648846.0999999642,7064,WL,A,1.0
5,2.0159997940063477,learn,60000.0,Fri Feb 28 2025 18:24:03 GMT-0600 (Central Standard Time),650861.8000000119,A,trai,O,i,327,1,2015.7000000476837,648846.0999999642,7064,WL,A,1.0
5,2.25,learn,60000.0,Fri Feb 28 2025 18:24:03 GMT-0600 (Central Standard Time),651095.8999999762,A,train,O,n,221,1,2249.800000011921,648846.0999999642,7064,WL,A,1.0
5,2.682999849319458,learn,60000.0,Fri Feb 28 2025 18:24:03 GMT-0600 (Central Standard Time),651528.8000000119,A,trainenter,O,enter,421,1,2682.7000000476837,648846.0999999642,7064,WL,A,1.0
5,3.3339998722076416,learn,60000.0,Fri Feb 28 2025 18:24:03 GMT-0600 (Central Standard Time),652179.6999999881,A,r,O,r,645,1,650.6000000238419,651529.0999999642,7064,WL,A,2.0
5,3.750999927520752,learn,60000.0,Fri Feb 28 2025 18:24:03 GMT-0600 (Central Standard Time),652597.0,A,ru,O,u,412,1,1067.9000000357628,651529.0999999642,7064,WL,A,2.0
5,4.08299994468689,learn,60000.0,Fri Feb 28 2025 18:24:03 GMT-0600 (Central Standard Time),652929.0999999642,A,rug,O,g,312,1,1400.0,651529.0999999642,7064,WL,A,2.0
5,4.398000001907349,learn,60000.0,Fri Feb 28 2025 18:24:03 GMT-0600 (Central Standard Time),653243.8999999762,A,rugenter,O,enter,300,1,1714.800000011921,651529.0999999642,7064,WL,A,2.0
5,4.949999809265137,learn,60000.0,Fri Feb 28 2025 18:24:03 GMT-0600 (Central Standard Time),653796.5,A,s,O,s,547,1,552.3000000119209,653244.1999999881,7064,WL,A,3.0
5,5.198999881744385,learn,60000.0,Fri Feb 28 2025 18:24:03 GMT-0600 (Central Standard Time),654045.1999999881,A,sa,O,a,243,1,801.0,653244.1999999881,7064,WL,A,3.0
5,5.799000024795532,learn,60000.0,Fri Feb 28 2025 18:24:03 GMT-0600 (Central Standard Time),654644.6999999881,A,sal,O,l,582,1,1400.5,653244.1999999881,7064,WL,A,3.0
5,6.148999929428101,learn,60000.0,Fri Feb 28 2025 18:24:03 GMT-0600 (Central Standard Time),654994.8000000119,A,salt,O,t,342,1,1750.6000000238419,653244.1999999881,7064,WL,A,3.0
5,6.615000009536743,learn,60000.0,Fri Feb 28 2025 18:24:03 GMT-0600 (Central Standard Time),655460.8000000119,A,saltenter,O,enter,448,1,2216.600000023842,653244.1999999881,7064,WL,A,3.0
5,7.547999858856201,learn,60000.0,Fri Feb 28 2025 18:24:03 GMT-0600 (Central Standard Time),656393.8999999762,A,d,O,d,921,1,932.8999999761581,655461.0,7064,WL,A,4.0
5,8.662999868392944,learn,60000.0,Fri Feb 28 2025 18:24:03 GMT-0600 (Central Standard Time),657510.5999999642,A,,O,backspace,1108,1,2049.599999964237,655461.0,7064,WL,A,4.0
5,9.52999997138977,learn,60000.0,Fri Feb 28 2025 18:24:03 GMT-0600 (Central Standard Time),658377.1999999881,A,c,O,c,855,1,2916.199999988079,655461.0,7064,WL,A,4.0
5,9.861999988555908,learn,60000.0,Fri Feb 28 2025 18:24:03 GMT-0600 (Central Standard Time),658709.5,A,ch,O,h,323,1,3248.5,655461.0,7064,WL,A,4.0
5,10.145999908447266,learn,60000.0,Fri Feb 28 2025 18:24:03 GMT-0600 (Central Standard Time),658992.8000000119,A,chi,O,i,270,1,3531.800000011921,655461.0,7064,WL,A,4.0
5,11.230000019073486,learn,60000.0,Fri Feb 28 2025 18:24:03 GMT-0600 (Central Standard Time),660077.0999999642,A,chim,O,m,1068,1,4616.099999964237,655461.0,7064,WL,A,4.0
5,11.69599986076355,learn,60000.0,Fri Feb 28 2025 18:24:03 GMT-0600 (Central Standard Time),660543.0,A,chimn,O,n,456,1,5082.0,655461.0,7064,WL,A,4.0
5,11.893999814987183,learn,60000.0,Fri Feb 28 2025 18:24:03 GMT-0600 (Central Standard Time),660741.6999999881,A,chimne,O,e,192,1,5280.699999988079,655461.0,7064,WL,A,4.0
5,12.342999935150146,learn,60000.0,Fri Feb 28 2025 18:24:03 GMT-0600 (Central Standard Time),661190.3999999762,A,chimney,O,y,430,1,5729.399999976158,655461.0,7064,WL,A,4.0
5,13.143999814987183,learn,60000.0,Fri Feb 28 2025 18:24:03 GMT-0600 (Central Standard Time),661991.6999999881,A,chimneyenter,O,enter,790,1,6530.699999988079,655461.0,7064,WL,A,4.0
5,13.527999877929688,learn,60000.0,Fri Feb 28 2025 18:24:03 GMT-0600 (Central Standard Time),662375.1999999881,A,a,O,a,373,1,383.19999998807907,661992.0,7064,WL,A,5.0
5,13.91100001335144,learn,60000.0,Fri Feb 28 2025 18:24:03 GMT-0600 (Central Standard Time),662757.8999999762,A,ap,O,p,373,1,765.8999999761581,661992.0,7064,WL,A,5.0
5,14.060999870300293,learn,60000.0,Fri Feb 28 2025 18:24:03 GMT-0600 (Central Standard Time),662908.3999999762,A,app,O,p,134,1,916.3999999761581,661992.0,7064,WL,A,5.0
5,14.24399995803833,learn,60000.0,Fri Feb 28 2025 18:24:03 GMT-0600 (Central Standard Time),663091.3000000119,A,appl,O,l,168,1,1099.300000011921,661992.0,7064,WL,A,5.0
5,14.491999864578247,learn,60000.0,Fri Feb 28 2025 18:24:03 GMT-0600 (Central Standard Time),663339.3000000119,A,apple,O,e,232,1,1347.300000011921,661992.0,7064,WL,A,5.0
5,14.843999862670898,learn,60000.0,Fri Feb 28 2025 18:24:03 GMT-0600 (Central Standard Time),663690.8999999762,A,appleenter,O,enter,347,1,1698.8999999761581,661992.0,7064,WL,A,5.0
5,15.425999879837036,learn,60000.0,Fri Feb 28 2025 18:24:03 GMT-0600 (Central Standard Time),664272.8000000119,A,l,O,l,570,1,581.5,663691.3000000119,7064,WL,A,6.0
5,15.643999814987183,learn,60000.0,Fri Feb 28 2025 18:24:03 GMT-0600 (Central Standard Time),664491.6999999881,A,lo,O,o,213,1,800.3999999761581,663691.3000000119,7064,WL,A,6.0
5,15.995999813079834,learn,60000.0,Fri Feb 28 2025 18:24:03 GMT-0600 (Central Standard Time),664843.3000000119,A,log,O,g,337,1,1152.0,663691.3000000119,7064,WL,A,6.0
5,16.491999864578247,learn,60000.0,Fri Feb 28 2025 18:24:03 GMT-0600 (Central Standard Time),665339.0999999642,A,logenter,O,enter,482,1,1647.7999999523163,663691.3000000119,7064,WL,A,6.0
5,17.22699999809265,learn,60000.0,Fri Feb 28 2025 18:24:03 GMT-0600 (Central Standard Time),666074.5,A,f,O,f,724,1,735.1000000238419,665339.3999999762,7064,WL,A,7.0
5,17.526000022888184,learn,60000.0,Fri Feb 28 2025 18:24:03 GMT-0600 (Central Standard Time),666373.5999999642,A,fi,O,i,283,1,1034.199999988079,665339.3999999762,7064,WL,A,7.0
5,17.776000022888184,learn,60000.0,Fri Feb 28 2025 18:24:03 GMT-0600 (Central Standard Time),666623.5999999642,A,fin,O,n,240,1,1284.199999988079,665339.3999999762,7064,WL,A,7.0
5,18.276999950408936,learn,60000.0,Fri Feb 28 2025 18:24:03 GMT-0600 (Central Standard Time),667124.5,A,fing,O,g,486,1,1785.1000000238419,665339.3999999762,7064,WL,A,7.0
5,18.45899987220764,learn,60000.0,Fri Feb 28 2025 18:24:03 GMT-0600 (Central Standard Time),667306.5999999642,A,finge,O,e,168,1,1967.199999988079,665339.3999999762,7064,WL,A,7.0
5,18.626999855041504,learn,60000.0,Fri Feb 28 2025 18:24:03 GMT-0600 (Central Standard Time),667474.3000000119,A,finger,O,r,162,1,2134.900000035763,665339.3999999762,7064,WL,A,7.0
5,19.027999877929688,learn,60000.0,Fri Feb 28 2025 18:24:03 GMT-0600 (Central Standard Time),667875.1999999881,A,fingerenter,O,enter,395,1,2535.800000011921,665339.3999999762,7064,WL,A,7.0
5,19.694000005722046,learn,60000.0,Fri Feb 28 2025 18:24:03 GMT-0600 (Central Standard Time),668541.1999999881,A,b,O,b,660,1,665.8000000119209,667875.3999999762,7064,WL,A,8.0
5,19.924999952316284,learn,60000.0,Fri Feb 28 2025 18:24:03 GMT-0600 (Central Standard Time),668772.0,A,bo,O,o,215,1,896.6000000238419,667875.3999999762,7064,WL,A,8.0
5,20.092999935150146,learn,60000.0,Fri Feb 28 2025 18:24:03 GMT-0600 (Central Standard Time),668940.0,A,boo,O,o,153,1,1064.6000000238419,667875.3999999762,7064,WL,A,8.0
5,20.292999982833862,learn,60000.0,Fri Feb 28 2025 18:24:03 GMT-0600 (Central Standard Time),669140.0999999642,A,book,O,k,193,1,1264.699999988079,667875.3999999762,7064,WL,A,8.0
5,20.925999879837036,learn,60000.0,Fri Feb 28 2025 18:24:03 GMT-0600 (Central Standard Time),669772.8000000119,A,bookenter,O,enter,616,1,1897.4000000357628,667875.3999999762,7064,WL,A,8.0
5,21.80900001525879,learn,60000.0,Fri Feb 28 2025 18:24:03 GMT-0600 (Central Standard Time),670656.3999999762,A,f,O,f,864,1,883.3999999761581,669773.0,7064,WL,A,9.0
5,22.04199981689453,learn,60000.0,Fri Feb 28 2025 18:24:03 GMT-0600 (Central Standard Time),670889.1999999881,A,fo,O,o,219,1,1116.199999988079,669773.0,7064,WL,A,9.0
5,22.375,learn,60000.0,Fri Feb 28 2025 18:24:03 GMT-0600 (Central Standard Time),671222.3999999762,A,fow,O,w,326,1,1449.3999999761581,669773.0,7064,WL,A,9.0
5,22.65999984741211,learn,60000.0,Fri Feb 28 2025 18:24:03 GMT-0600 (Central Standard Time),671507.3999999762,A,fowe,O,e,280,1,1734.3999999761581,669773.0,7064,WL,A,9.0
5,22.908999919891357,learn,60000.0,Fri Feb 28 2025 18:24:03 GMT-0600 (Central Standard Time),671756.8000000119,A,fower,O,r,234,1,1983.800000011921,669773.0,7064,WL,A,9.0
5,23.691999912261963,learn,60000.0,Fri Feb 28 2025 18:24:03 GMT-0600 (Central Standard Time),672539.0,A,fowerenter,O,enter,757,1,2766.0,669773.0,7064,WL,A,9.0
5,24.274999856948853,learn,60000.0,Fri Feb 28 2025 18:24:03 GMT-0600 (Central Standard Time),673122.3000000119,A,r,O,r,570,1,583.1000000238419,672539.1999999881,7064,WL,A,10.0
5,24.674999952316284,learn,60000.0,Fri Feb 28 2025 18:24:03 GMT-0600 (Central Standard Time),673522.0999999642,A,ru,O,u,387,1,982.8999999761581,672539.1999999881,7064,WL,A,10.0
5,25.107999801635742,learn,60000.0,Fri Feb 28 2025 18:24:03 GMT-0600 (Central Standard Time),673955.5,A,rug,O,g,417,1,1416.300000011921,672539.1999999881,7064,WL,A,10.0
5,25.590999841690063,learn,60000.0,Fri Feb 28 2025 18:24:03 GMT-0600 (Central Standard Time),674438.5999999642,A,rugenter,O,enter,465,1,1899.3999999761581,672539.1999999881,7064,WL,A,10.0
5,27.526000022888184,learn,60000.0,Fri Feb 28 2025 18:24:03 GMT-0600 (Central Standard Time),676373.0999999642,A,k,O,k,1929,1,1934.2999999523163,674438.8000000119,7064,WL,A,11.0
5,27.806999921798706,learn,60000.0,Fri Feb 28 2025 18:24:03 GMT-0600 (Central Standard Time),676654.0999999642,A,ke,O,e,270,1,2215.2999999523163,674438.8000000119,7064,WL,A,11.0
5,28.10699987411499,learn,60000.0,Fri Feb 28 2025 18:24:03 GMT-0600 (Central Standard Time),676954.0999999642,A,key,O,y,279,1,2515.2999999523163,674438.8000000119,7064,WL,A,11.0
5,28.488999843597412,learn,60000.0,Fri Feb 28 2025 18:24:03 GMT-0600 (Central Standard Time),677336.0,A,keyenter,O,enter,369,1,2897.199999988079,674438.8000000119,7064,WL,A,11.0
5,30.789999961853027,learn,60000.0,Fri Feb 28 2025 18:24:03 GMT-0600 (Central Standard Time),679637.1999999881,A,r,O,r,2285,1,2300.899999976158,677336.3000000119,7064,WL,A,12.0
5,31.00599980354309,learn,60000.0,Fri Feb 28 2025 18:24:03 GMT-0600 (Central Standard Time),679853.6999999881,A,ra,O,a,199,1,2517.399999976158,677336.3000000119,7064,WL,A,12.0
5,31.256999969482422,learn,60000.0,Fri Feb 28 2025 18:24:03 GMT-0600 (Central Standard Time),680103.8999999762,A,rat,O,t,238,1,2767.599999964237,677336.3000000119,7064,WL,A,12.0
5,31.40499997138977,learn,60000.0,Fri Feb 28 2025 18:24:03 GMT-0600 (Central Standard Time),680252.8000000119,A,ratt,O,t,139,1,2916.5,677336.3000000119,7064,WL,A,12.0
5,32.27199983596802,learn,60000.0,Fri Feb 28 2025 18:24:03 GMT-0600 (Central Standard Time),681119.3000000119,A,rattl,O,l,855,1,3783.0,677336.3000000119,7064,WL,A,12.0
5,32.57099986076355,learn,60000.0,Fri Feb 28 2025 18:24:03 GMT-0600 (Central Standard Time),681418.0,A,rattle,O,e,285,1,4081.699999988079,677336.3000000119,7064,WL,A,12.0
5,32.90399980545044,learn,60000.0,Fri Feb 28 2025 18:24:03 GMT-0600 (Central Standard Time),681751.6999999881,A,rattleenter,O,enter,322,1,4415.399999976158,677336.3000000119,7064,WL,A,12.0
5,39.186999797821045,learn,60000.0,Fri Feb 28 2025 18:24:03 GMT-0600 (Central Standard Time),688034.3999999762,A,enter,O,enter,6278,1,6282.399999976158,681752.0,7064,WL,A,13.0
5,39.38699984550476,learn,60000.0,Fri Feb 28 2025 18:24:03 GMT-0600 (Central Standard Time),688234.0,A,enter,O,enter,186,1,199.30000001192093,688034.6999999881,7064,WL,A,14.0
5,40.569000005722046,learn,60000.0,Fri Feb 28 2025 18:24:03 GMT-0600 (Central Standard Time),689416.6999999881,A,enter,O,enter,1163,1,1182.3999999761581,688234.3000000119,7064,WL,A,15.0
6,1.5139999389648438,distr,58486.000061035156,Fri Feb 28 2025 18:24:03 GMT-0600 (Central Standard Time),778489.1999999881,B,b,O,b,1495,1,1515.300000011921,776973.8999999762,7064,WL,A,1.0
6,1.7630000114440918,distr,58236.99998855591,Fri Feb 28 2025 18:24:03 GMT-0600 (Central Standard Time),778738.0,B,be,O,e,236,1,1764.1000000238419,776973.8999999762,7064,WL,A,1.0
6,2.113999843597412,distr,57886.00015640259,Fri Feb 28 2025 18:24:03 GMT-0600 (Central Standard Time),779088.3000000119,B,bea,O,a,330,1,2114.400000035763,776973.8999999762,7064,WL,A,1.0
6,2.4619998931884766,distr,57538.00010681152,Fri Feb 28 2025 18:24:03 GMT-0600 (Central Standard Time),779437.0,B,beac,O,c,339,1,2463.100000023842,776973.8999999762,7064,WL,A,1.0
6,2.8299999237060547,distr,57170.000076293945,Fri Feb 28 2025 18:24:03 GMT-0600 (Central Standard Time),779804.8999999762,B,beach,O,h,352,1,2831.0,776973.8999999762,7064,WL,A,1.0
6,3.365000009536743,distr,56634.99999046326,Fri Feb 28 2025 18:24:03 GMT-0600 (Central Standard Time),780340.0999999642,B,beachenter,O,enter,513,1,3366.199999988079,776973.8999999762,7064,WL,A,1.0
6,3.8279998302459717,distr,56172.00016975403,Fri Feb 28 2025 18:24:03 GMT-0600 (Central Standard Time),780803.0,B,c,O,c,449,1,462.69999998807907,780340.3000000119,7064,WL,A,2.0
6,4.0959999561309814,distr,55904.00004386902,Fri Feb 28 2025 18:24:03 GMT-0600 (Central Standard Time),781071.1999999881,B,ch,O,h,249,1,730.8999999761581,780340.3000000119,7064,WL,A,2.0
6,4.413999795913696,distr,55586.000204086304,Fri Feb 28 2025 18:24:03 GMT-0600 (Central Standard Time),781388.1999999881,B,cha,O,a,312,1,1047.8999999761581,780340.3000000119,7064,WL,A,2.0
6,4.7799999713897705,distr,55220.00002861023,Fri Feb 28 2025 18:24:03 GMT-0600 (Central Standard Time),781754.5999999642,B,chai,O,i,344,1,1414.2999999523163,780340.3000000119,7064,WL,A,2.0
6,5.129999876022339,distr,54870.00012397766,Fri Feb 28 2025 18:24:03 GMT-0600 (Central Standard Time),782104.8999999762,B,chair,O,r,328,1,1764.5999999642372,780340.3000000119,7064,WL,A,2.0
6,5.663999795913696,distr,54336.000204086304,Fri Feb 28 2025 18:24:03 GMT-0600 (Central Standard Time),782638.8999999762,B,chairenter,O,enter,529,1,2298.599999964237,780340.3000000119,7064,WL,A,2.0
6,17.04199981689453,distr,42958.00018310547,Fri Feb 28 2025 18:24:03 GMT-0600 (Central Standard Time),794016.8999999762,B,d,O,d,11359,1,11377.599999964237,782639.3000000119,7064,WL,A,3.0
6,17.342000007629395,distr,42657.999992370605,Fri Feb 28 2025 18:24:03 GMT-0600 (Central Standard Time),794316.8000000119,B,do,O,o,293,1,11677.5,782639.3000000119,7064,WL,A,3.0
6,17.592999935150146,distr,42407.00006484985,Fri Feb 28 2025 18:24:03 GMT-0600 (Central Standard Time),794568.1999999881,B,dog,O,g,237,1,11928.899999976158,782639.3000000119,7064,WL,A,3.0
6,17.824999809265137,distr,42175.00019073486,Fri Feb 28 2025 18:24:03 GMT-0600 (Central Standard Time),794799.8999999762,B,dogenter,O,enter,210,1,12160.599999964237,782639.3000000119,7064,WL,A,3.0
6,21.674999952316284,distr,38325.000047683716,Fri Feb 28 2025 18:24:03 GMT-0600 (Central Standard Time),798649.8000000119,B,p,O,p,3839,1,3849.600000023842,794800.1999999881,7064,WL,A,4.0
6,21.924999952316284,distr,38075.000047683716,Fri Feb 28 2025 18:24:03 GMT-0600 (Central Standard Time),798899.3000000119,B,po,O,o,227,1,4099.100000023842,794800.1999999881,7064,WL,A,4.0
6,22.04099988937378,distr,37959.00011062622,Fri Feb 28 2025 18:24:03 GMT-0600 (Central Standard Time),799015.3000000119,B,poo,O,o,103,1,4215.100000023842,794800.1999999881,7064,WL,A,4.0
6,22.322999954223633,distr,37677.00004577637,Fri Feb 28 2025 18:24:03 GMT-0600 (Central Standard Time),799298.1999999881,B,pool,O,l,268,1,4498.0,794800.1999999881,7064,WL,A,4.0
6,22.822999954223633,distr,37177.00004577637,Fri Feb 28 2025 18:24:03 GMT-0600 (Central Standard Time),799797.5999999642,B,poolenter,O,enter,482,1,4997.399999976158,794800.1999999881,7064,WL,A,4.0
6,24.972999811172485,distr,35027.000188827515,Fri Feb 28 2025 18:24:03 GMT-0600 (Central Standard Time),801948.0999999642,B,c,O,c,2135,1,2150.199999988079,799797.8999999762,7064,WL,A,5.0
6,25.305999994277954,distr,34694.000005722046,Fri Feb 28 2025 18:24:03 GMT-0600 (Central Standard Time),802280.8000000119,B,co,O,o,321,1,2482.900000035763,799797.8999999762,7064,WL,A,5.0
6,25.590999841690063,distr,34409.00015830994,Fri Feb 28 2025 18:24:03 GMT-0600 (Central Standard Time),802565.8000000119,B,cou,O,u,270,1,2767.900000035763,799797.8999999762,7064,WL,A,5.0
6,25.85599994659424,distr,34144.00005340576,Fri Feb 28 2025 18:24:03 GMT-0600 (Central Standard Time),802830.6999999881,B,coun,O,n,255,1,3032.800000011921,799797.8999999762,7064,WL,A,5.0
6,26.138999938964844,distr,33861.000061035156,Fri Feb 28 2025 18:24:03 GMT-0600 (Central Standard Time),803114.0,B,count,O,t,259,1,3316.100000023842,799797.8999999762,7064,WL,A,5.0
6,26.388999938964844,distr,33611.000061035156,Fri Feb 28 2025 18:24:03 GMT-0600 (Central Standard Time),803363.6999999881,B,county,O,y,235,1,3565.800000011921,799797.8999999762,7064,WL,A,5.0
6,26.73799991607666,distr,33262.00008392334,Fri Feb 28 2025 18:24:03 GMT-0600 (Central Standard Time),803712.6999999881,B,countyenter,O,enter,335,1,3914.800000011921,799797.8999999762,7064,WL,A,5.0
6,28.83799982070923,distr,31162.00017929077,Fri Feb 28 2025 18:24:03 GMT-0600 (Central Standard Time),805812.3000000119,B,s,O,s,2084,1,2099.400000035763,803712.8999999762,7064,WL,A,6.0
6,29.11899995803833,distr,30881.00004196167,Fri Feb 28 2025 18:24:03 GMT-0600 (Central Standard Time),806094.1999999881,B,sh,O,h,266,1,2381.300000011921,803712.8999999762,7064,WL,A,6.0
6,29.324999809265137,distr,30675.000190734863,Fri Feb 28 2025 18:24:03 GMT-0600 (Central Standard Time),806299.1999999881,B,she,O,e,191,1,2586.300000011921,803712.8999999762,7064,WL,A,6.0
6,29.503999948501587,distr,30496.000051498413,Fri Feb 28 2025 18:24:03 GMT-0600 (Central Standard Time),806478.5,B,shee,O,e,161,1,2765.600000023842,803712.8999999762,7064,WL,A,6.0
6,30.486999988555908,distr,29513.00001144409,Fri Feb 28 2025 18:24:03 GMT-0600 (Central Standard Time),807462.1999999881,B,sheep,O,p,975,1,3749.300000011921,803712.8999999762,7064,WL,A,6.0
6,31.253000020980835,distr,28746.999979019165,Fri Feb 28 2025 18:24:03 GMT-0600 (Central Standard Time),808227.3999999762,B,sheepenter,O,enter,760,1,4514.5,803712.8999999762,7064,WL,A,6.0
6,32.88699984550476,distr,27113.00015449524,Fri Feb 28 2025 18:24:03 GMT-0600 (Central Standard Time),809861.3999999762,B,enter,O,enter,1614,1,1633.699999988079,808227.6999999881,7064,WL,A,7.0
6,33.05399990081787,distr,26946.00009918213,Fri Feb 28 2025 18:24:03 GMT-0600 (Central Standard Time),810029.0999999642,B,enter,O,enter,161,1,167.5,809861.5999999642,7064,WL,A,8.0
6,33.22099995613098,distr,26779.00004386902,Fri Feb 28 2025 18:24:03 GMT-0600 (Central Standard Time),810195.3999999762,B,enter,O,enter,162,1,166.0,810029.3999999762,7064,WL,A,9.0
6,33.37299990653992,distr,26627.000093460083,Fri Feb 28 2025 18:24:03 GMT-0600 (Central Standard Time),810347.3000000119,B,enter,O,enter,146,1,151.5,810195.8000000119,7064,WL,A,10.0
6,33.53600001335144,distr,26463.99998664856,Fri Feb 28 2025 18:24:03 GMT-0600 (Central Standard Time),810510.8999999762,B,enter,O,enter,155,1,163.39999997615814,810347.5,7064,WL,A,11.0
6,33.70299983024597,distr,26297.00016975403,Fri Feb 28 2025 18:24:03 GMT-0600 (Central Standard Time),810677.3999999762,B,enter,O,enter,150,1,166.0999999642372,810511.3000000119,7064,WL,A,12.0
6,34.169999837875366,distr,25830.000162124634,Fri Feb 28 2025 18:24:03 GMT-0600 (Central Standard Time),811144.3000000119,B,enter,O,enter,447,1,466.60000002384186,810677.6999999881,7064,WL,A,13.0
6,34.319000005722046,distr,25680.999994277954,Fri Feb 28 2025 18:24:03 GMT-0600 (Central Standard Time),811293.8000000119,B,enter,O,enter,133,1,149.10000002384186,811144.6999999881,7064,WL,A,14.0
6,35.01899981498718,distr,24981.000185012817,Fri Feb 28 2025 18:24:03 GMT-0600 (Central Standard Time),811994.0999999642,B,enter,O,enter,687,1,700.0,811294.0999999642,7064,WL,A,15.0
7,39.80299997329712,immed,20197.00002670288,Fri Feb 28 2025 18:24:03 GMT-0600 (Central Standard Time),866394.3000000119,A,p,O,p,39788,1,39804.60000002384,826589.6999999881,7064,WL,A,1.0
7,40.15299987792969,immed,19847.000122070312,Fri Feb 28 2025 18:24:03 GMT-0600 (Central Standard Time),866744.0999999642,A,po,O,o,340,1,40154.39999997616,826589.6999999881,7064,WL,A,1.0
7,40.319000005722046,immed,19680.999994277954,Fri Feb 28 2025 18:24:03 GMT-0600 (Central Standard Time),866910.3000000119,A,poo,O,o,150,1,40320.60000002384,826589.6999999881,7064,WL,A,1.0
7,40.51799988746643,immed,19482.00011253357,Fri Feb 28 2025 18:24:03 GMT-0600 (Central Standard Time),867108.5,A,pool,O,l,189,1,40518.80000001192,826589.6999999881,7064,WL,A,1.0
7,41.319000005722046,immed,18680.999994277954,Fri Feb 28 2025 18:24:03 GMT-0600 (Central Standard Time),867909.8999999762,A,poolenter,O,enter,792,1,41320.19999998808,826589.6999999881,7064,WL,A,1.0
7,42.10199999809265,immed,17898.00000190735,Fri Feb 28 2025 18:24:03 GMT-0600 (Central Standard Time),868692.8000000119,A,c,O,c,777,1,782.6000000238419,867910.1999999881,7064,WL,A,2.0
7,42.436999797821045,immed,17563.000202178955,Fri Feb 28 2025 18:24:03 GMT-0600 (Central Standard Time),869027.5,A,co,O,o,309,1,1117.300000011921,867910.1999999881,7064,WL,A,2.0
7,42.70299983024597,immed,17297.00016975403,Fri Feb 28 2025 18:24:03 GMT-0600 (Central Standard Time),869293.8999999762,A,cou,O,u,259,1,1383.699999988079,867910.1999999881,7064,WL,A,2.0
7,42.88499999046326,immed,17115.000009536743,Fri Feb 28 2025 18:24:03 GMT-0600 (Central Standard Time),869476.3000000119,A,coun,O,n,175,1,1566.1000000238419,867910.1999999881,7064,WL,A,2.0
7,43.20099997520447,immed,16799.000024795532,Fri Feb 28 2025 18:24:03 GMT-0600 (Central Standard Time),869792.3999999762,A,count,O,t,304,1,1882.199999988079,867910.1999999881,7064,WL,A,2.0
7,43.38499999046326,immed,16615.000009536743,Fri Feb 28 2025 18:24:03 GMT-0600 (Central Standard Time),869976.0999999642,A,county,O,y,164,1,2065.899999976158,867910.1999999881,7064,WL,A,2.0
7,43.88599991798401,immed,16114.000082015991,Fri Feb 28 2025 18:24:03 GMT-0600 (Central Standard Time),870477.0,A,countyenter,O,enter,483,1,2566.800000011921,867910.1999999881,7064,WL,A,2.0
7,60.01300001144409,immed,-13.000011444091797,Fri Feb 28 2025 18:24:03 GMT-0600 (Central Standard Time),886603.8000000119,A,None,O,None,16124,1,16126.600000023842,870477.1999999881,7064,WL,A,3.0
