acc_sum,block_c,block_dur,condition,correct,correct_response,countdown,datetime,endtime,project,response,response_time,response_time_test1_response,response_time_test2_response,row_sel,same,session_number,start_end,starttime,stim1,stim2,subject_id,task,task_vers,time_test1,time_test2,trial
1,1,0.0,prac,1,z,30000.0,Wed Dec 18 2024 14:05:33 GMT-0600 (Central Standard Time),40729.699999809265,O,z,1321,,,3,yes,1,2846.0999999046326,37883.59999990463,practrial3.png,practrial3.png,7031,PC,A,,,1
2,1,0.0,prac,1,m,30000.0,Wed Dec 18 2024 14:05:33 GMT-0600 (Central Standard Time),43112.699999809265,O,m,849,,,2,no,1,2370.0999999046326,40742.59999990463,practrial2.png,practrial2b.png,7031,PC,A,,,2
3,1,0.0,prac,1,z,30000.0,Wed Dec 18 2024 14:05:33 GMT-0600 (Central Standard Time),45644.300000190735,O,z,978,,,1,yes,1,2513.1000003814697,43131.199999809265,practrial1.png,practrial1.png,7031,PC,A,,,3
4,1,0.0,prac,1,m,30000.0,Wed Dec 18 2024 14:05:33 GMT-0600 (Central Standard Time),48810.800000190735,O,m,1632,,,4,no,1,3160.800000190735,45650.0,practrial4.png,practrial4b.png,7031,PC,A,,,4
5,1,0.0,prac,1,z,30000.0,Wed Dec 18 2024 14:05:33 GMT-0600 (Central Standard Time),51409.5,O,z,1048,,,5,yes,1,2581.0,48828.5,practrial5.png,practrial5.png,7031,PC,A,,,5
5,1,0.0,prac,0,m,30000.0,Wed Dec 18 2024 14:05:33 GMT-0600 (Central Standard Time),53958.90000009537,O,z,993,,,6,no,1,2531.0,51427.90000009537,practrial6.png,practrial6b.png,7031,PC,A,,,6
1,1,1.5829999446868896,test,1,z,28417.00005531311,Wed Dec 18 2024 14:05:33 GMT-0600 (Central Standard Time),63673.0,O,z,1552,1552,,1,yes,1,1571.1999998092651,62101.800000190735,test1trial1.png,test1trial1.png,7031,PC,A,59351,,1
2,1,2.815999984741211,test,1,m,27184.00001525879,Wed Dec 18 2024 14:05:33 GMT-0600 (Central Standard Time),64906.09999990463,O,m,1197,1197,,2,no,1,1219.7999997138977,63686.300000190735,test1trial2.png,test1trial2b.png,7031,PC,A,60937,,2
3,1,4.881999969482422,test,1,z,25118.000030517578,Wed Dec 18 2024 14:05:33 GMT-0600 (Central Standard Time),66971.5,O,z,2038,2038,,3,yes,1,2052.4000000953674,64919.09999990463,test1trial3.png,test1trial3.png,7031,PC,A,62169,,3
4,1,5.914999961853027,test,1,m,24085.000038146973,Wed Dec 18 2024 14:05:33 GMT-0600 (Central Standard Time),68004.5,O,m,1004,1004,,4,no,1,1020.9000000953674,66983.59999990463,test1trial4.png,test1trial4b.png,7031,PC,A,64235,,4
5,1,7.997999906539917,test,1,z,22002.000093460083,Wed Dec 18 2024 14:05:33 GMT-0600 (Central Standard Time),70087.30000019073,O,z,2060,2060,,5,yes,1,2070.9000000953674,68016.40000009537,test1trial5.png,test1trial5.png,7031,PC,A,65266,,5
6,1,9.746999979019165,test,1,m,20253.000020980835,Wed Dec 18 2024 14:05:33 GMT-0600 (Central Standard Time),71836.59999990463,O,m,1712,1712,,6,no,1,1736.1999998092651,70100.40000009537,test1trial6.png,test1trial6b.png,7031,PC,A,67351,,6
7,1,10.845999956130981,test,1,z,19154.00004386902,Wed Dec 18 2024 14:05:33 GMT-0600 (Central Standard Time),72936.0,O,z,1077,1077,,7,yes,1,1087.6999998092651,71848.30000019073,test1trial7.png,test1trial7.png,7031,PC,A,69098,,7
8,1,13.095999956130981,test,1,m,16904.00004386902,Wed Dec 18 2024 14:05:33 GMT-0600 (Central Standard Time),75185.40000009537,O,m,2230,2230,,8,no,1,2239.0999999046326,72946.30000019073,test1trial8.png,test1trial8b.png,7031,PC,A,70193,,8
9,1,14.494999885559082,test,1,z,15505.000114440918,Wed Dec 18 2024 14:05:33 GMT-0600 (Central Standard Time),76585.0,O,z,1375,1375,,9,yes,1,1387.8000001907349,75197.19999980927,test1trial9.png,test1trial9.png,7031,PC,A,72448,,9
10,1,15.961999893188477,test,1,m,14038.000106811523,Wed Dec 18 2024 14:05:33 GMT-0600 (Central Standard Time),78051.30000019073,O,m,1439,1439,,10,no,1,1454.5,76596.80000019073,test1trial10.png,test1trial10b.png,7031,PC,A,73847,,10
11,1,16.944999933242798,test,1,z,13055.000066757202,Wed Dec 18 2024 14:05:33 GMT-0600 (Central Standard Time),79034.40000009537,O,z,958,958,,11,yes,1,970.3000001907349,78064.09999990463,test1trial11.png,test1trial11.png,7031,PC,A,75313,,11
12,1,18.72699999809265,test,1,m,11273.000001907349,Wed Dec 18 2024 14:05:33 GMT-0600 (Central Standard Time),80817.0,O,m,1758,1758,,12,no,1,1770.5999999046326,79046.40000009537,test1trial12.png,test1trial12b.png,7031,PC,A,76297,,12
13,1,19.960000038146973,test,1,m,10039.999961853027,Wed Dec 18 2024 14:05:33 GMT-0600 (Central Standard Time),82049.90000009537,O,m,1208,1208,,13,no,1,1221.0,80828.90000009537,test1trial13.png,test1trial13b.png,7031,PC,A,78079,,13
14,1,23.608999967575073,test,1,m,6391.000032424927,Wed Dec 18 2024 14:05:33 GMT-0600 (Central Standard Time),85698.59999990463,O,m,3624,3624,,14,no,1,3636.699999809265,82061.90000009537,test1trial14.png,test1trial14b.png,7031,PC,A,79311,,14
15,1,24.491999864578247,test,1,z,5508.000135421753,Wed Dec 18 2024 14:05:33 GMT-0600 (Central Standard Time),86581.69999980927,O,z,854,854,,15,yes,1,870.3999996185303,85711.30000019073,test1trial15.png,test1trial15.png,7031,PC,A,82961,,15
16,1,25.840999841690063,test,1,m,4159.0001583099365,Wed Dec 18 2024 14:05:33 GMT-0600 (Central Standard Time),87930.90000009537,O,m,1322,1322,,16,no,1,1337.5999999046326,86593.30000019073,test1trial16.png,test1trial16b.png,7031,PC,A,83844,,16
17,1,27.22499990463257,test,1,z,2775.0000953674316,Wed Dec 18 2024 14:05:33 GMT-0600 (Central Standard Time),89314.09999990463,O,z,1358,1358,,17,yes,1,1376.4000000953674,87937.69999980927,test1trial17.png,test1trial17.png,7031,PC,A,85185,,17
18,1,28.424000024795532,test,1,m,1575.9999752044678,Wed Dec 18 2024 14:05:33 GMT-0600 (Central Standard Time),90513.69999980927,O,m,1175,1175,,18,no,1,1188.1999998092651,89325.5,test1trial18.png,test1trial18b.png,7031,PC,A,86576,,18
18,1,30.0239999294281,test,0,m,-23.999929428100586,Wed Dec 18 2024 14:05:33 GMT-0600 (Central Standard Time),92113.5,O,None,1580,1580,,19,no,1,1587.9000000953674,90525.59999990463,test1trial19.png,test1trial19b.png,7031,PC,A,87776,,19
1,2,1.116999864578247,test,1,m,28883.000135421753,Wed Dec 18 2024 14:05:33 GMT-0600 (Central Standard Time),97245.40000009537,O,m,1088,,1088.0,1,no,1,6719.800000190735,90525.59999990463,test2trial1.png,test2trial1b.png,7031,PC,A,,93391.0,1
1,2,2.482999801635742,test,0,m,27517.000198364258,Wed Dec 18 2024 14:05:33 GMT-0600 (Central Standard Time),98611.59999990463,O,z,1337,,1337.0,2,no,1,8086.0,90525.59999990463,test2trial2.png,test2trial2b.png,7031,PC,A,,94509.0,2
2,2,3.381999969482422,test,1,z,26618.000030517578,Wed Dec 18 2024 14:05:33 GMT-0600 (Central Standard Time),99510.90000009537,O,z,876,,876.0,3,yes,1,8985.300000190735,90525.59999990463,test2trial3.png,test2trial3.png,7031,PC,A,,95875.0,3
3,2,4.332000017166138,test,1,z,25667.999982833862,Wed Dec 18 2024 14:05:33 GMT-0600 (Central Standard Time),100460.40000009537,O,z,914,,914.0,4,yes,1,9934.800000190735,90525.59999990463,test2trial4.png,test2trial4.png,7031,PC,A,,96773.0,4
4,2,5.597999811172485,test,1,z,24402.000188827515,Wed Dec 18 2024 14:05:33 GMT-0600 (Central Standard Time),101726.90000009537,O,z,1237,,1237.0,5,yes,1,11201.300000190735,90525.59999990463,test2trial5.png,test2trial5.png,7031,PC,A,,97722.0,5
5,2,7.447999954223633,test,1,z,22552.000045776367,Wed Dec 18 2024 14:05:33 GMT-0600 (Central Standard Time),103576.19999980927,O,z,1826,,1826.0,6,yes,1,13050.599999904633,90525.59999990463,test2trial6.png,test2trial6.png,7031,PC,A,,98988.0,6
6,2,9.096999883651733,test,1,m,20903.000116348267,Wed Dec 18 2024 14:05:33 GMT-0600 (Central Standard Time),105225.59999990463,O,m,1616,,1616.0,7,no,1,14700.0,90525.59999990463,test2trial7.png,test2trial7b.png,7031,PC,A,,100839.0,7
7,2,10.212999820709229,test,1,m,19787.00017929077,Wed Dec 18 2024 14:05:33 GMT-0600 (Central Standard Time),106341.69999980927,O,m,1095,,1095.0,8,no,1,15816.099999904633,90525.59999990463,test2trial8.png,test2trial8b.png,7031,PC,A,,102488.0,8
8,2,11.812999963760376,test,1,z,18187.000036239624,Wed Dec 18 2024 14:05:33 GMT-0600 (Central Standard Time),107941.19999980927,O,z,1580,,1580.0,9,yes,1,17415.599999904633,90525.59999990463,test2trial9.png,test2trial9.png,7031,PC,A,,103603.0,9
9,2,13.19599986076355,test,1,z,16804.00013923645,Wed Dec 18 2024 14:05:33 GMT-0600 (Central Standard Time),109324.80000019073,O,z,1364,,1364.0,10,yes,1,18799.200000286102,90525.59999990463,test2trial10.png,test2trial10.png,7031,PC,A,,105203.0,10
10,2,14.84500002861023,test,1,m,15154.99997138977,Wed Dec 18 2024 14:05:33 GMT-0600 (Central Standard Time),110973.69999980927,O,m,1619,,1619.0,11,no,1,20448.099999904633,90525.59999990463,test2trial11.png,test2trial11b.png,7031,PC,A,,106588.0,11
11,2,16.561999797821045,test,1,m,13438.000202178955,Wed Dec 18 2024 14:05:33 GMT-0600 (Central Standard Time),112689.80000019073,O,m,1692,,1692.0,12,no,1,22164.200000286102,90525.59999990463,test2trial12.png,test2trial12b.png,7031,PC,A,,108235.0,12
12,2,17.828999996185303,test,1,z,12171.000003814697,Wed Dec 18 2024 14:05:33 GMT-0600 (Central Standard Time),113956.80000019073,O,z,1248,,1248.0,13,yes,1,23431.200000286102,90525.59999990463,test2trial13.png,test2trial13.png,7031,PC,A,,109951.0,13
13,2,19.128000020980835,test,1,m,10871.999979019165,Wed Dec 18 2024 14:05:33 GMT-0600 (Central Standard Time),115255.69999980927,O,m,1276,,1276.0,14,no,1,24730.099999904633,90525.59999990463,test2trial14.png,test2trial14b.png,7031,PC,A,,111219.0,14
14,2,20.42799997329712,test,1,m,9572.00002670288,Wed Dec 18 2024 14:05:33 GMT-0600 (Central Standard Time),116555.40000009537,O,m,1273,,1273.0,15,no,1,26029.800000190735,90525.59999990463,test2trial15.png,test2trial15b.png,7031,PC,A,,112518.0,15
14,2,21.626999855041504,test,0,m,8373.000144958496,Wed Dec 18 2024 14:05:33 GMT-0600 (Central Standard Time),117754.90000009537,O,z,1166,,1166.0,16,no,1,27229.300000190735,90525.59999990463,test2trial16.png,test2trial16b.png,7031,PC,A,,113817.0,16
15,2,22.609999895095825,test,1,z,7390.000104904175,Wed Dec 18 2024 14:05:33 GMT-0600 (Central Standard Time),118737.90000009537,O,z,959,,959.0,17,yes,1,28212.300000190735,90525.59999990463,test2trial17.png,test2trial17.png,7031,PC,A,,115016.0,17
16,2,23.609999895095825,test,1,z,6390.000104904175,Wed Dec 18 2024 14:05:33 GMT-0600 (Central Standard Time),119737.5,O,z,976,,976.0,18,yes,1,29211.900000095367,90525.59999990463,test2trial18.png,test2trial18.png,7031,PC,A,,115999.0,18
17,2,24.875999927520752,test,1,z,5124.000072479248,Wed Dec 18 2024 14:05:33 GMT-0600 (Central Standard Time),121003.90000009537,O,z,1240,,1240.0,19,yes,1,30478.300000190735,90525.59999990463,test2trial19.png,test2trial19.png,7031,PC,A,,116999.0,19
18,2,26.125,test,1,z,3875.0,Wed Dec 18 2024 14:05:33 GMT-0600 (Central Standard Time),122253.0,O,z,1231,,1231.0,20,yes,1,31727.400000095367,90525.59999990463,test2trial20.png,test2trial20.png,7031,PC,A,,118264.0,20
19,2,27.72499990463257,test,1,z,2275.0000953674316,Wed Dec 18 2024 14:05:33 GMT-0600 (Central Standard Time),123853.0,O,z,1581,,1581.0,21,yes,1,33327.40000009537,90525.59999990463,test2trial21.png,test2trial21.png,7031,PC,A,,119514.0,21
19,2,29.223999977111816,test,0,m,776.0000228881836,Wed Dec 18 2024 14:05:33 GMT-0600 (Central Standard Time),125351.5,O,z,1475,,1475.0,22,no,1,34825.90000009537,90525.59999990463,test2trial22.png,test2trial22b.png,7031,PC,A,,121115.0,22
19,2,30.006999969482422,test,0,m,-6.999969482421875,Wed Dec 18 2024 14:05:33 GMT-0600 (Central Standard Time),126134.59999990463,O,None,777,,777.0,23,no,1,35609.0,90525.59999990463,test2trial23.png,test2trial23b.png,7031,PC,A,,122600.0,23
