acc_sum,block,block_c,condition,correct,correct_response,datetime,endtime,flanker,jitter,project,response,response_test_buffer_response,response_test_target_response,response_time,response_time_test_buffer_response,response_time_test_target_response,row_sel,session_number,start_end,starttime,subject_id,target,task,task_vers,time_test_buffer,time_test_buffer_response,time_test_constants,time_test_flanker,time_test_jitter,time_test_logger,time_test_target,time_test_target_response,time_test_variables,trial
0,prac,1,con,0,z,Wed Mar 05 2025 10:33:42 GMT-0600 (Central Standard Time),130306.70000004768,elated,800,O,None,,,1799,,,9,1,4876.5,125430.20000004768,7086,elated,AF,C,,,,,,,,,,1
1,prac,1,inc,1,z,Wed Mar 05 2025 10:33:42 GMT-0600 (Central Standard Time),133304.10000002384,napkin,1100,O,z,,,590,,,12,1,2992.100000023842,130312.0,7086,friend,AF,C,,,,,,,,,,2
2,prac,1,inc,1,m,Wed Mar 05 2025 10:33:42 GMT-0600 (Central Standard Time),136019.0,elated,900,O,m,,,510,,,6,1,2709.0,133310.0,7086,napkin,AF,C,,,,,,,,,,3
3,prac,1,con,1,z,Wed Mar 05 2025 10:33:42 GMT-0600 (Central Standard Time),138704.20000004768,love,1000,O,z,,,375,,,11,1,2679.8000000715256,136024.39999997616,7086,love,AF,C,,,,,,,,,,4
4,prac,1,con,1,z,Wed Mar 05 2025 10:33:42 GMT-0600 (Central Standard Time),141186.0,brutal,800,O,z,,,374,,,13,1,2474.5,138711.5,7086,brutal,AF,C,,,,,,,,,,5
5,prac,1,inc,1,m,Wed Mar 05 2025 10:33:42 GMT-0600 (Central Standard Time),143834.20000004768,kind,900,O,m,,,451,,,2,1,2642.9000000953674,141191.29999995232,7086,rock,AF,C,,,,,,,,,,6
6,prac,1,inc,1,z,Wed Mar 05 2025 10:33:42 GMT-0600 (Central Standard Time),146816.60000002384,rock,900,O,z,,,790,,,10,1,2975.8000000715256,143840.79999995232,7086,kind,AF,C,,,,,,,,,,7
6,prac,1,con,0,m,Wed Mar 05 2025 10:33:42 GMT-0600 (Central Standard Time),149516.10000002384,remote,1000,O,z,,,386,,,7,1,2694.399999976158,146821.70000004768,7086,remote,AF,C,,,,,,,,,,8
6,prac,1,con,0,m,Wed Mar 05 2025 10:33:42 GMT-0600 (Central Standard Time),152782.89999997616,step,800,O,z,,,1159,,,1,1,3260.7999999523163,149522.10000002384,7086,step,AF,C,,,,,,,,,,9
7,prac,1,inc,1,m,Wed Mar 05 2025 10:33:42 GMT-0600 (Central Standard Time),155930.20000004768,brutal,1100,O,m,,,750,,,8,1,3141.9000000953674,152788.29999995232,7086,window,AF,C,,,,,,,,,,10
8,prac,1,con,1,z,Wed Mar 05 2025 10:33:42 GMT-0600 (Central Standard Time),158810.10000002384,rage,1000,O,z,,,576,,,15,1,2873.2000000476837,155936.89999997616,7086,rage,AF,C,,,,,,,,,,11
8,prac,1,inc,0,z,Wed Mar 05 2025 10:33:42 GMT-0600 (Central Standard Time),161762.39999997616,window,1100,O,m,,,548,,,16,1,2949.100000023842,158813.29999995232,7086,temper,AF,C,,,,,,,,,,12
9,prac,1,inc,1,z,Wed Mar 05 2025 10:33:42 GMT-0600 (Central Standard Time),164594.79999995232,film,900,O,z,,,621,,,14,1,2826.399999976158,161768.39999997616,7086,hate,AF,C,,,,,,,,,,13
10,prac,1,con,1,m,Wed Mar 05 2025 10:33:42 GMT-0600 (Central Standard Time),167294.89999997616,jacket,800,O,m,,,600,,,5,1,2695.1999999284744,164599.70000004768,7086,jacket,AF,C,,,,,,,,,,14
11,prac,1,con,1,m,Wed Mar 05 2025 10:33:42 GMT-0600 (Central Standard Time),170075.70000004768,bell,1000,O,m,,,477,,,3,1,2776.0,167299.70000004768,7086,bell,AF,C,,,,,,,,,,15
12,prac,1,inc,1,m,Wed Mar 05 2025 10:33:42 GMT-0600 (Central Standard Time),173026.29999995232,hate,1100,O,m,,,566,,,4,1,2945.7999999523163,170080.5,7086,film,AF,C,,,,,,,,,,16
1,prac,2,con,1,z,Wed Mar 05 2025 10:33:42 GMT-0600 (Central Standard Time),182290.60000002384,elated,800,O,z,,,690,,,9,1,2795.2000000476837,179495.39999997616,7086,elated,AF,C,,,,,,,,,,1
2,prac,2,con,1,z,Wed Mar 05 2025 10:33:42 GMT-0600 (Central Standard Time),185005.39999997616,rage,1000,O,z,,,402,,,15,1,2709.100000023842,182296.29999995232,7086,rage,AF,C,,,,,,,,,,2
3,prac,2,inc,1,m,Wed Mar 05 2025 10:33:42 GMT-0600 (Central Standard Time),187871.0,hate,1100,O,m,,,452,,,4,1,2859.7999999523163,185011.20000004768,7086,film,AF,C,,,,,,,,,,3
4,prac,2,con,1,m,Wed Mar 05 2025 10:33:42 GMT-0600 (Central Standard Time),190685.60000002384,bell,1000,O,m,,,524,,,3,1,2807.600000023842,187878.0,7086,bell,AF,C,,,,,,,,,,4
5,prac,2,inc,1,z,Wed Mar 05 2025 10:33:42 GMT-0600 (Central Standard Time),193369.39999997616,rock,900,O,z,,,488,,,10,1,2678.7999999523163,190690.60000002384,7086,kind,AF,C,,,,,,,,,,5
6,prac,2,inc,1,m,Wed Mar 05 2025 10:33:42 GMT-0600 (Central Standard Time),196101.89999997616,elated,900,O,m,,,541,,,6,1,2726.2999999523163,193375.60000002384,7086,napkin,AF,C,,,,,,,,,,6
7,prac,2,con,1,z,Wed Mar 05 2025 10:33:42 GMT-0600 (Central Standard Time),199017.39999997616,love,1000,O,z,,,599,,,11,1,2908.100000023842,196109.29999995232,7086,love,AF,C,,,,,,,,,,7
8,prac,2,inc,1,z,Wed Mar 05 2025 10:33:42 GMT-0600 (Central Standard Time),201733.29999995232,film,900,O,z,,,505,,,14,1,2710.5,199022.79999995232,7086,hate,AF,C,,,,,,,,,,8
8,prac,2,con,0,z,Wed Mar 05 2025 10:33:42 GMT-0600 (Central Standard Time),204531.60000002384,brutal,800,O,m,,,695,,,13,1,2793.399999976158,201738.20000004768,7086,brutal,AF,C,,,,,,,,,,9
9,prac,2,inc,1,m,Wed Mar 05 2025 10:33:42 GMT-0600 (Central Standard Time),207381.5,kind,900,O,m,,,637,,,2,1,2841.899999976158,204539.60000002384,7086,rock,AF,C,,,,,,,,,,10
10,prac,2,con,1,m,Wed Mar 05 2025 10:33:42 GMT-0600 (Central Standard Time),210380.10000002384,remote,1000,O,m,,,694,,,7,1,2992.399999976158,207387.70000004768,7086,remote,AF,C,,,,,,,,,,11
11,prac,2,con,1,m,Wed Mar 05 2025 10:33:42 GMT-0600 (Central Standard Time),212912.20000004768,jacket,800,O,m,,,431,,,5,1,2525.4000000953674,210386.79999995232,7086,jacket,AF,C,,,,,,,,,,12
12,prac,2,inc,1,z,Wed Mar 05 2025 10:33:42 GMT-0600 (Central Standard Time),215779.0,window,1100,O,z,,,480,,,16,1,2860.0,212919.0,7086,temper,AF,C,,,,,,,,,,13
13,prac,2,inc,1,z,Wed Mar 05 2025 10:33:42 GMT-0600 (Central Standard Time),219011.29999995232,napkin,1100,O,z,,,822,,,12,1,3228.1999999284744,215783.10000002384,7086,friend,AF,C,,,,,,,,,,14
14,prac,2,con,1,m,Wed Mar 05 2025 10:33:42 GMT-0600 (Central Standard Time),221760.79999995232,step,800,O,m,,,639,,,1,1,2741.5,219019.29999995232,7086,step,AF,C,,,,,,,,,,15
15,prac,2,inc,1,m,Wed Mar 05 2025 10:33:42 GMT-0600 (Central Standard Time),224794.29999995232,brutal,1100,O,m,,,631,,,8,1,3028.7999999523163,221765.5,7086,window,AF,C,,,,,,,,,,16
1,test,1,con,1,z,Wed Mar 05 2025 10:33:42 GMT-0600 (Central Standard Time),236705.60000002384,hate,1100,O,z,z,None,548,349.0,199.0,44,1,2194.399999976158,234511.20000004768,7086,hate,AF,C,228913,228913,227084,228195,227085,229279,228713,228713,229278,1
2,test,1,inc,1,m,Wed Mar 05 2025 10:33:42 GMT-0600 (Central Standard Time),238669.29999995232,rage,800,O,m,m,None,626,427.0,199.0,85,1,1956.3999999761581,236712.89999997616,7086,bell,AF,C,230811,230811,229286,230095,229286,231242,230611,230611,231242,2
3,test,1,con,1,z,Wed Mar 05 2025 10:33:42 GMT-0600 (Central Standard Time),240652.20000004768,elated,800,O,z,z,None,637,437.0,200.0,1,1,1977.0,238675.20000004768,7086,elated,AF,C,232777,232777,231248,232063,231249,233225,232577,232577,233225,3
4,test,1,inc,1,z,Wed Mar 05 2025 10:33:42 GMT-0600 (Central Standard Time),242788.10000002384,film,1100,O,z,z,None,494,290.0,204.0,48,1,2132.600000023842,240655.5,7086,hate,AF,C,235061,235061,233229,234343,233229,235361,234857,234857,235361,4
5,test,1,inc,1,m,Wed Mar 05 2025 10:33:42 GMT-0600 (Central Standard Time),244868.70000004768,friend,1100,O,m,m,None,435,220.0,215.0,128,1,2076.600000023842,242792.10000002384,7086,window,AF,C,237210,237210,235365,236477,235366,237442,236994,236994,237442,5
6,test,1,inc,1,z,Wed Mar 05 2025 10:33:42 GMT-0600 (Central Standard Time),246935.89999997616,jacket,800,O,z,z,None,726,527.0,199.0,5,1,2061.7999999523163,244874.10000002384,7086,elated,AF,C,238976,238976,237447,238259,237447,239509,238776,238776,239509,6
7,test,1,con,1,m,Wed Mar 05 2025 10:33:42 GMT-0600 (Central Standard Time),249034.79999995232,rock,1100,O,m,m,None,466,266.0,200.0,76,1,2094.0999999046326,246940.70000004768,7086,rock,AF,C,241341,241341,239514,240626,239514,241608,241141,241141,241608,7
8,test,1,inc,1,z,Wed Mar 05 2025 10:33:42 GMT-0600 (Central Standard Time),250832.20000004768,step,800,O,z,z,None,473,273.0,200.0,53,1,1791.2000000476837,249041.0,7086,rage,AF,C,243124,243125,241614,242423,241614,243405,242924,242924,243405,8
9,test,1,inc,1,z,Wed Mar 05 2025 10:33:42 GMT-0600 (Central Standard Time),252916.10000002384,window,1100,O,z,z,None,436,221.0,215.0,64,1,2080.7000000476837,250835.39999997616,7086,temper,AF,C,245257,245257,243408,244526,243409,245489,245041,245041,245489,9
10,test,1,con,1,m,Wed Mar 05 2025 10:33:42 GMT-0600 (Central Standard Time),254815.39999997616,bell,900,O,m,m,None,451,251.0,200.0,82,1,1894.7999999523163,252920.60000002384,7086,bell,AF,C,247122,247123,245494,246407,245494,247389,246922,246922,247388,10
11,test,1,inc,1,m,Wed Mar 05 2025 10:33:42 GMT-0600 (Central Standard Time),256965.0,love,1000,O,m,m,None,621,407.0,214.0,79,1,2143.2999999523163,254821.70000004768,7086,rock,AF,C,249121,249121,247395,248405,247395,249538,248907,248907,249538,11
12,test,1,con,1,m,Wed Mar 05 2025 10:33:42 GMT-0600 (Central Standard Time),259082.70000004768,step,1100,O,m,m,None,485,285.0,200.0,68,1,2112.600000023842,256970.10000002384,7086,step,AF,C,251371,251371,249543,250656,249543,251656,251171,251171,251656,12
13,test,1,con,1,m,Wed Mar 05 2025 10:33:42 GMT-0600 (Central Standard Time),261262.0,remote,1000,O,m,m,None,633,421.0,212.0,115,1,2173.5,259088.5,7086,remote,AF,C,253401,253401,251662,252672,251662,253835,253189,253189,253835,13
14,test,1,inc,1,m,Wed Mar 05 2025 10:33:42 GMT-0600 (Central Standard Time),263496.89999997616,kind,900,O,m,m,None,799,599.0,200.0,94,1,2228.399999976158,261268.5,7086,film,AF,C,255455,255455,253841,254754,253842,256070,255255,255255,256070,14
15,test,1,inc,1,z,Wed Mar 05 2025 10:33:42 GMT-0600 (Central Standard Time),265448.2999999523,rock,900,O,z,z,None,504,304.0,200.0,22,1,1946.0,263502.2999999523,7086,love,AF,C,257703,257703,256075,256986,256076,258022,257503,257503,258021,15
16,test,1,inc,1,z,Wed Mar 05 2025 10:33:42 GMT-0600 (Central Standard Time),267496.10000002384,rock,900,O,z,z,None,611,412.0,199.0,14,1,2044.3999999761581,265451.7000000477,7086,kind,AF,C,259651,259651,258025,258935,258025,260069,259452,259452,260069,16
16,test,1,con,0,z,Wed Mar 05 2025 10:33:42 GMT-0600 (Central Standard Time),269560.2999999523,brutal,1000,O,m,m,None,525,326.0,199.0,35,1,2057.2999999523163,267503.0,7086,brutal,AF,C,261801,261801,260076,261086,260077,262133,261602,261602,262133,17
17,test,1,con,1,m,Wed Mar 05 2025 10:33:42 GMT-0600 (Central Standard Time),271577.5,window,1000,O,m,m,None,467,268.0,199.0,123,1,2011.6000000238419,269565.89999997616,7086,window,AF,C,263867,263867,262139,263152,262139,264151,263667,263667,264151,18
18,test,1,con,1,m,Wed Mar 05 2025 10:33:42 GMT-0600 (Central Standard Time),273690.7999999523,window,1100,O,m,m,None,472,272.0,200.0,124,1,2107.5,271583.2999999523,7086,window,AF,C,265982,265982,264156,265265,264157,266264,265782,265782,266264,19
19,test,1,inc,1,m,Wed Mar 05 2025 10:33:42 GMT-0600 (Central Standard Time),275857.2999999523,temper,1000,O,m,m,None,616,416.0,200.0,103,1,2162.5,273694.7999999523,7086,jacket,AF,C,267999,267999,266268,267282,266268,268430,267798,267798,268430,20
20,test,1,inc,1,z,Wed Mar 05 2025 10:33:42 GMT-0600 (Central Standard Time),278023.7000000477,bell,1000,O,z,z,None,627,427.0,200.0,55,1,2162.2000000476837,275861.5,7086,rage,AF,C,270164,270164,268435,269447,268435,270597,269963,269963,270597,21
21,test,1,con,1,z,Wed Mar 05 2025 10:33:42 GMT-0600 (Central Standard Time),280106.39999997616,kind,900,O,z,z,None,649,449.0,200.0,10,1,2079.399999976158,278027.0,7086,kind,AF,C,272213,272214,270600,271512,270600,272679,272013,272013,272679,22
22,test,1,inc,1,m,Wed Mar 05 2025 10:33:42 GMT-0600 (Central Standard Time),282239.2000000477,temper,1000,O,m,m,None,607,391.0,216.0,111,1,2129.2000000476837,280110.0,7086,napkin,AF,C,274415,274415,272683,273697,272683,274812,274198,274199,274812,23
23,test,1,con,1,z,Wed Mar 05 2025 10:33:42 GMT-0600 (Central Standard Time),284205.7999999523,hate,900,O,z,z,None,543,327.0,216.0,42,1,1963.5,282242.2999999523,7086,hate,AF,C,276447,276447,274815,275730,274816,276779,276231,276231,276779,24
24,test,1,con,1,z,Wed Mar 05 2025 10:33:42 GMT-0600 (Central Standard Time),286087.60000002384,friend,800,O,z,z,None,558,358.0,200.0,25,1,1875.7000000476837,284211.89999997616,7086,friend,AF,C,278296,278296,276785,277595,276786,278661,278096,278096,278661,25
25,test,1,con,1,z,Wed Mar 05 2025 10:33:42 GMT-0600 (Central Standard Time),287921.89999997616,love,1000,O,z,z,None,313,98.0,215.0,19,1,1830.5,286091.39999997616,7086,love,AF,C,280396,280396,278664,279678,278665,280495,280180,280180,280495,26
26,test,1,con,1,m,Wed Mar 05 2025 10:33:42 GMT-0600 (Central Standard Time),289938.5,napkin,1000,O,m,m,None,467,265.0,202.0,107,1,2012.2000000476837,287926.2999999523,7086,napkin,AF,C,282230,282230,280499,281515,280500,282512,282028,282028,282512,27
27,test,1,inc,1,m,Wed Mar 05 2025 10:33:42 GMT-0600 (Central Standard Time),292069.89999997616,rage,800,O,m,m,None,787,586.0,201.0,69,1,2127.6999999284744,289942.2000000477,7086,step,AF,C,284044,284044,282515,283328,282515,284643,283843,283843,284643,28
28,test,1,con,1,m,Wed Mar 05 2025 10:33:42 GMT-0600 (Central Standard Time),294053.2000000477,napkin,800,O,m,m,None,653,438.0,215.0,105,1,1978.8000000715256,292074.39999997616,7086,napkin,AF,C,286177,286177,284647,285459,284648,286626,285961,285961,286626,29
29,test,1,con,1,m,Wed Mar 05 2025 10:33:42 GMT-0600 (Central Standard Time),296169.2000000477,napkin,1100,O,m,m,None,475,275.0,200.0,108,1,2111.100000023842,294058.10000002384,7086,napkin,AF,C,288460,288460,286631,287744,286632,288742,288260,288260,288742,30
30,test,1,inc,1,z,Wed Mar 05 2025 10:33:42 GMT-0600 (Central Standard Time),298235.60000002384,bell,1000,O,z,z,None,532,333.0,199.0,47,1,2062.600000023842,296173.0,7086,hate,AF,C,290475,290475,288746,289759,288746,290809,290276,290276,290809,31
31,test,1,inc,1,m,Wed Mar 05 2025 10:33:42 GMT-0600 (Central Standard Time),300284.39999997616,love,1000,O,m,m,None,497,296.0,201.0,87,1,2043.8999999761581,298240.5,7086,bell,AF,C,292543,292543,290814,291824,290814,292858,292342,292342,292857,32
32,test,1,con,1,z,Wed Mar 05 2025 10:33:42 GMT-0600 (Central Standard Time),302116.7000000477,rage,800,O,z,z,None,486,286.0,200.0,49,1,1827.3000000715256,300289.39999997616,7086,rage,AF,C,294392,294392,292862,293674,292863,294690,294192,294192,294690,33
33,test,1,inc,1,z,Wed Mar 05 2025 10:33:42 GMT-0600 (Central Standard Time),304316.2000000477,remote,1000,O,z,z,None,655,454.0,201.0,63,1,2193.600000023842,302122.60000002384,7086,temper,AF,C,296425,296425,294696,295707,294696,296889,296224,296224,296889,34
34,test,1,inc,1,m,Wed Mar 05 2025 10:33:42 GMT-0600 (Central Standard Time),306500.2999999523,friend,1100,O,m,m,None,549,350.0,199.0,104,1,2179.5999999046326,304320.7000000477,7086,jacket,AF,C,298723,298723,296894,298007,296894,299073,298524,298524,299073,35
35,test,1,con,1,m,Wed Mar 05 2025 10:33:42 GMT-0600 (Central Standard Time),308433.2000000477,bell,800,O,m,m,None,591,391.0,200.0,81,1,1927.7000000476837,306505.5,7086,bell,AF,C,300607,300607,299079,299888,299079,301006,300406,300406,301006,36
36,test,1,con,1,m,Wed Mar 05 2025 10:33:42 GMT-0600 (Central Standard Time),310648.2000000477,film,1100,O,m,m,None,584,384.0,200.0,92,1,2210.7000000476837,308437.5,7086,film,AF,C,302822,302822,301011,302121,301011,303221,302622,302622,303221,37
37,test,1,inc,1,z,Wed Mar 05 2025 10:33:42 GMT-0600 (Central Standard Time),312449.2000000477,step,800,O,z,z,None,454,255.0,199.0,13,1,1795.8000000715256,310653.39999997616,7086,kind,AF,C,304752,304752,303226,304038,303227,305022,304553,304553,305022,38
38,test,1,con,1,z,Wed Mar 05 2025 10:33:42 GMT-0600 (Central Standard Time),314595.5,love,1100,O,z,z,None,504,305.0,199.0,20,1,2143.0,312452.5,7086,love,AF,C,306854,306854,305026,306136,305026,307169,306655,306655,307168,39
39,test,1,inc,1,z,Wed Mar 05 2025 10:33:42 GMT-0600 (Central Standard Time),316330.39999997616,step,800,O,z,z,None,390,191.0,199.0,45,1,1730.8999999761581,314599.5,7086,hate,AF,C,308703,308703,307173,307986,307173,308903,308504,308504,308903,40
40,test,1,con,1,m,Wed Mar 05 2025 10:33:42 GMT-0600 (Central Standard Time),318277.60000002384,step,900,O,m,m,None,510,311.0,199.0,66,1,1941.3000000715256,316336.2999999523,7086,step,AF,C,310535,310535,308909,309819,308910,310851,310335,310335,310851,41
41,test,1,con,1,m,Wed Mar 05 2025 10:33:42 GMT-0600 (Central Standard Time),320062.10000002384,window,900,O,m,m,None,346,147.0,199.0,122,1,1781.1000000238419,318281.0,7086,window,AF,C,312484,312484,310854,311768,310854,312635,312285,312285,312635,42
42,test,1,inc,1,m,Wed Mar 05 2025 10:33:42 GMT-0600 (Central Standard Time),322094.0,love,1000,O,m,m,None,493,278.0,215.0,95,1,2026.6000000238419,320067.39999997616,7086,film,AF,C,314385,314385,312640,313652,312641,314667,314169,314169,314667,43
43,test,1,con,1,z,Wed Mar 05 2025 10:33:42 GMT-0600 (Central Standard Time),324509.60000002384,kind,1100,O,z,z,None,778,578.0,200.0,12,1,2410.899999976158,322098.7000000477,7086,kind,AF,C,316501,316501,314672,315785,314672,317083,316300,316300,317083,44
44,test,1,inc,1,z,Wed Mar 05 2025 10:33:42 GMT-0600 (Central Standard Time),326508.60000002384,remote,1000,O,z,z,None,453,254.0,199.0,31,1,1994.8999999761581,324513.7000000477,7086,friend,AF,C,318817,318817,317087,318101,317087,319082,318617,318617,319082,45
45,test,1,inc,1,m,Wed Mar 05 2025 10:33:42 GMT-0600 (Central Standard Time),328557.89999997616,kind,900,O,m,m,None,626,427.0,199.0,70,1,2043.8999999761581,326514.0,7086,step,AF,C,320700,320700,319087,319999,319087,321131,320501,320501,321131,46
46,test,1,inc,1,z,Wed Mar 05 2025 10:33:42 GMT-0600 (Central Standard Time),330775.0,window,1100,O,z,z,None,577,376.0,201.0,40,1,2212.5,328562.5,7086,brutal,AF,C,322967,322967,321136,322250,321136,323348,322766,322766,323348,47
47,test,1,con,1,z,Wed Mar 05 2025 10:33:42 GMT-0600 (Central Standard Time),332824.39999997616,temper,1000,O,z,z,None,501,302.0,199.0,59,1,2044.1999999284744,330780.2000000477,7086,temper,AF,C,325080,325080,323353,324364,323354,325397,324881,324881,325397,48
48,test,1,con,1,m,Wed Mar 05 2025 10:33:42 GMT-0600 (Central Standard Time),334807.7999999523,step,800,O,m,m,None,635,420.0,215.0,65,1,1978.0999999046326,332829.7000000477,7086,step,AF,C,326946,326946,325403,326215,325403,327381,326731,326731,327381,49
48,test,1,con,0,z,Wed Mar 05 2025 10:33:42 GMT-0600 (Central Standard Time),336722.89999997616,temper,800,O,m,m,None,581,381.0,200.0,57,1,1905.1000000238419,334817.7999999523,7086,temper,AF,C,328914,328914,327391,328197,327391,329296,328713,328713,329296,50
49,test,1,inc,1,m,Wed Mar 05 2025 10:33:42 GMT-0600 (Central Standard Time),338805.7000000477,temper,1000,O,m,m,None,537,338.0,199.0,127,1,2076.600000023842,336729.10000002384,7086,window,AF,C,331029,331029,329302,330314,329302,331379,330829,330829,331379,51
50,test,1,inc,1,m,Wed Mar 05 2025 10:33:42 GMT-0600 (Central Standard Time),340839.10000002384,kind,900,O,m,m,None,596,393.0,203.0,86,1,2024.6000000238419,338814.5,7086,bell,AF,C,333013,333013,331388,332293,331388,333412,332810,332810,333412,52
51,test,1,con,1,z,Wed Mar 05 2025 10:33:42 GMT-0600 (Central Standard Time),343003.39999997616,friend,900,O,z,z,None,744,531.0,213.0,26,1,2158.5,340844.89999997616,7086,friend,AF,C,335045,335045,333418,334329,333418,335576,334831,334831,335576,53
52,test,1,con,1,z,Wed Mar 05 2025 10:33:42 GMT-0600 (Central Standard Time),344988.0,temper,900,O,z,z,None,549,350.0,199.0,58,1,1976.8999999761581,343011.10000002384,7086,temper,AF,C,337211,337211,335584,336494,335584,337561,337011,337011,337561,54
53,test,1,inc,1,z,Wed Mar 05 2025 10:33:42 GMT-0600 (Central Standard Time),347036.10000002384,rock,900,O,z,z,None,612,397.0,215.0,54,1,2040.6000000238419,344995.5,7086,rage,AF,C,339209,339210,337569,338478,337569,339609,338993,338994,339609,55
54,test,1,inc,1,z,Wed Mar 05 2025 10:33:42 GMT-0600 (Central Standard Time),349153.2999999523,napkin,900,O,z,z,None,668,468.0,200.0,38,1,2112.6999999284744,347040.60000002384,7086,brutal,AF,C,341243,341243,339614,340526,339614,341726,341042,341042,341726,56
55,test,1,inc,1,m,Wed Mar 05 2025 10:33:42 GMT-0600 (Central Standard Time),351118.7000000477,brutal,900,O,m,m,None,525,310.0,215.0,110,1,1959.3000000715256,349159.39999997616,7086,napkin,AF,C,343376,343376,341732,342643,341733,343692,343160,343160,343692,57
56,test,1,inc,1,m,Wed Mar 05 2025 10:33:42 GMT-0600 (Central Standard Time),353001.2999999523,rage,800,O,m,m,None,533,334.0,199.0,93,1,1874.5,351126.7999999523,7086,film,AF,C,345225,345225,343700,344508,343700,345574,345025,345025,345574,58
57,test,1,inc,1,m,Wed Mar 05 2025 10:33:42 GMT-0600 (Central Standard Time),355434.39999997616,friend,1100,O,m,m,None,798,583.0,215.0,112,1,2426.2999999523163,353008.10000002384,7086,napkin,AF,C,347424,347424,345581,346691,345582,348008,347208,347208,348007,59
58,test,1,inc,1,m,Wed Mar 05 2025 10:33:42 GMT-0600 (Central Standard Time),357599.60000002384,hate,1100,O,m,m,None,525,326.0,199.0,72,1,2155.3000000715256,355444.2999999523,7086,step,AF,C,349841,349841,348017,349123,348018,350173,349641,349641,350173,60
59,test,1,inc,1,z,Wed Mar 05 2025 10:33:42 GMT-0600 (Central Standard Time),359532.7000000477,jacket,800,O,z,z,None,587,373.0,214.0,61,1,1926.6000000238419,357606.10000002384,7086,temper,AF,C,351721,351722,350179,350990,350180,352106,351507,351507,352106,61
60,test,1,con,1,z,Wed Mar 05 2025 10:33:42 GMT-0600 (Central Standard Time),361681.2999999523,kind,1000,O,z,z,None,605,390.0,215.0,11,1,2142.0,359539.2999999523,7086,kind,AF,C,353856,353856,352112,353123,352113,354254,353640,353640,354254,62
61,test,1,inc,1,z,Wed Mar 05 2025 10:33:42 GMT-0600 (Central Standard Time),363482.10000002384,jacket,800,O,z,z,None,448,249.0,199.0,29,1,1793.1000000238419,361689.0,7086,friend,AF,C,355789,355789,354262,355071,354263,356055,355589,355589,356055,63
62,test,1,con,1,z,Wed Mar 05 2025 10:33:42 GMT-0600 (Central Standard Time),365497.5,brutal,800,O,z,z,None,675,476.0,199.0,33,1,2006.3999999761581,363491.10000002384,7086,brutal,AF,C,357587,357587,356064,356874,356064,358071,357388,357388,358071,64
63,test,1,con,1,z,Wed Mar 05 2025 10:33:42 GMT-0600 (Central Standard Time),367646.2999999523,elated,1100,O,z,z,None,515,316.0,199.0,4,1,2143.0999999046326,365503.2000000477,7086,elated,AF,C,359903,359903,358076,359187,358077,360219,359704,359704,360219,65
64,test,1,con,1,m,Wed Mar 05 2025 10:33:42 GMT-0600 (Central Standard Time),369413.5,remote,800,O,m,m,None,432,218.0,214.0,113,1,1762.7999999523163,367650.7000000477,7086,remote,AF,C,361768,361768,360224,361036,360224,361987,361554,361554,361987,66
65,test,1,inc,1,z,Wed Mar 05 2025 10:33:42 GMT-0600 (Central Standard Time),371678.10000002384,bell,1000,O,z,z,None,718,517.0,201.0,23,1,2259.7000000476837,369418.39999997616,7086,love,AF,C,363721,363721,361991,363003,361992,364251,363519,363519,364251,67
66,test,1,con,1,z,Wed Mar 05 2025 10:33:42 GMT-0600 (Central Standard Time),373744.2999999523,kind,800,O,z,z,None,717,517.0,200.0,9,1,2061.0,371683.2999999523,7086,kind,AF,C,365785,365785,364256,365068,364257,366317,365585,365585,366317,68
67,test,1,inc,1,z,Wed Mar 05 2025 10:33:42 GMT-0600 (Central Standard Time),375944.10000002384,remote,1000,O,z,z,None,660,461.0,199.0,39,1,2194.7000000476837,373749.39999997616,7086,brutal,AF,C,368050,368050,366322,367335,366323,368517,367851,367851,368517,69
67,test,1,inc,0,m,Wed Mar 05 2025 10:33:42 GMT-0600 (Central Standard Time),378227.39999997616,friend,1100,O,z,z,None,665,466.0,199.0,120,1,2277.600000023842,375949.7999999523,7086,remote,AF,C,370334,370334,368523,369633,368523,370800,370135,370135,370800,70
68,test,1,inc,1,z,Wed Mar 05 2025 10:33:42 GMT-0600 (Central Standard Time),380376.10000002384,napkin,900,O,z,z,None,699,500.0,199.0,6,1,2143.2000000476837,378232.89999997616,7086,elated,AF,C,372434,372434,370806,371717,370806,372949,372234,372234,372949,71
69,test,1,con,1,z,Wed Mar 05 2025 10:33:42 GMT-0600 (Central Standard Time),382358.7000000477,friend,1000,O,z,z,None,435,221.0,214.0,27,1,1978.1000000238419,380380.60000002384,7086,friend,AF,C,374698,374698,372954,373966,372954,374932,374483,374483,374932,72
70,test,1,con,1,m,Wed Mar 05 2025 10:33:42 GMT-0600 (Central Standard Time),384273.2999999523,bell,1000,O,m,m,None,373,174.0,199.0,83,1,1910.0999999046326,382363.2000000477,7086,bell,AF,C,376665,376665,374936,375949,374937,376846,376465,376465,376846,73
71,test,1,inc,1,m,Wed Mar 05 2025 10:33:42 GMT-0600 (Central Standard Time),386424.10000002384,hate,1100,O,m,m,None,509,310.0,199.0,88,1,2144.8000000715256,384279.2999999523,7086,bell,AF,C,378681,378681,376852,377963,376853,378997,378481,378481,378997,74
71,test,1,inc,0,m,Wed Mar 05 2025 10:33:42 GMT-0600 (Central Standard Time),388553.89999997616,brutal,900,O,z,z,None,703,504.0,199.0,118,1,2125.399999976158,386428.5,7086,remote,AF,C,380614,380614,379002,379911,379002,381127,380415,380415,381127,75
72,test,1,con,1,m,Wed Mar 05 2025 10:33:42 GMT-0600 (Central Standard Time),390771.89999997616,film,900,O,m,m,None,765,566.0,199.0,90,1,2214.6999999284744,388557.2000000477,7086,film,AF,C,382763,382763,381130,382046,381131,383345,382564,382564,383345,76
73,test,1,con,1,m,Wed Mar 05 2025 10:33:42 GMT-0600 (Central Standard Time),392755.2999999523,bell,1100,O,m,m,None,340,141.0,199.0,84,1,1977.7999999523163,390777.5,7086,bell,AF,C,385178,385178,383351,384462,383351,385328,384979,384979,385328,77
73,test,1,con,0,m,Wed Mar 05 2025 10:33:42 GMT-0600 (Central Standard Time),394637.89999997616,remote,900,O,z,z,None,438,239.0,199.0,114,1,1877.3999999761581,392760.5,7086,remote,AF,C,386960,386960,385334,386246,385334,387211,386761,386761,387211,78
74,test,1,con,1,z,Wed Mar 05 2025 10:33:42 GMT-0600 (Central Standard Time),396656.5,brutal,900,O,z,z,None,577,362.0,215.0,34,1,2014.0,394642.5,7086,brutal,AF,C,388861,388861,387216,388128,387216,389230,388645,388645,389230,79
75,test,1,con,1,z,Wed Mar 05 2025 10:33:42 GMT-0600 (Central Standard Time),398370.2000000477,love,900,O,z,z,None,274,75.0,199.0,18,1,1709.0,396661.2000000477,7086,love,AF,C,390860,390860,389234,390145,389235,390943,390661,390661,390943,80
76,test,1,con,1,m,Wed Mar 05 2025 10:33:42 GMT-0600 (Central Standard Time),400433.7999999523,step,1000,O,m,m,None,531,329.0,202.0,67,1,2058.899999976158,398374.89999997616,7086,step,AF,C,392678,392678,390948,391961,390948,393007,392476,392476,393007,81
77,test,1,inc,1,z,Wed Mar 05 2025 10:33:42 GMT-0600 (Central Standard Time),402619.89999997616,remote,1000,O,z,z,None,649,434.0,215.0,7,1,2183.399999976158,400436.5,7086,elated,AF,C,394759,394759,393010,394027,393010,395193,394543,394543,395193,82
78,test,1,inc,1,m,Wed Mar 05 2025 10:33:42 GMT-0600 (Central Standard Time),404801.7000000477,hate,1100,O,m,m,None,532,333.0,199.0,96,1,2176.4000000953674,402625.2999999523,7086,film,AF,C,397025,397025,395198,396308,395199,397375,396826,396826,397375,83
78,test,1,con,0,m,Wed Mar 05 2025 10:33:42 GMT-0600 (Central Standard Time),407049.7000000477,remote,1100,O,z,z,None,613,399.0,214.0,116,1,2243.0,404806.7000000477,7086,remote,AF,C,399208,399208,397380,398490,397380,399623,398993,398993,399623,84
79,test,1,inc,1,z,Wed Mar 05 2025 10:33:42 GMT-0600 (Central Standard Time),409216.39999997616,napkin,900,O,z,z,None,716,516.0,200.0,30,1,2161.6999999284744,407054.7000000477,7086,friend,AF,C,401258,401258,399628,400541,399628,401790,401057,401057,401789,85
80,test,1,con,1,m,Wed Mar 05 2025 10:33:42 GMT-0600 (Central Standard Time),411132.7999999523,film,800,O,m,m,None,583,366.0,217.0,89,1,1911.3999999761581,409221.39999997616,7086,film,AF,C,403340,403340,401794,402607,401795,403706,403123,403123,403706,86
81,test,1,con,1,z,Wed Mar 05 2025 10:33:42 GMT-0600 (Central Standard Time),413081.0,hate,800,O,z,z,None,608,407.0,201.0,41,1,1944.3999999761581,411136.60000002384,7086,hate,AF,C,405239,405239,403710,404523,403710,405654,405038,405038,405654,87
82,test,1,con,1,z,Wed Mar 05 2025 10:33:42 GMT-0600 (Central Standard Time),415030.10000002384,hate,1000,O,z,z,None,409,210.0,199.0,43,1,1943.8000000715256,413086.2999999523,7086,hate,AF,C,407388,407388,405659,406673,405660,407603,407189,407189,407603,88
83,test,1,con,1,m,Wed Mar 05 2025 10:33:42 GMT-0600 (Central Standard Time),416830.39999997616,rock,1000,O,m,m,None,260,60.0,200.0,75,1,1796.1999999284744,415034.2000000477,7086,rock,AF,C,409339,409339,407607,408621,407607,409403,409138,409138,409403,89
84,test,1,inc,1,m,Wed Mar 05 2025 10:33:42 GMT-0600 (Central Standard Time),419029.10000002384,hate,1100,O,m,m,None,555,355.0,200.0,80,1,2194.5,416834.60000002384,7086,rock,AF,C,411237,411237,409408,410522,409408,411602,411037,411037,411602,90
85,test,1,inc,1,z,Wed Mar 05 2025 10:33:42 GMT-0600 (Central Standard Time),421113.2000000477,film,1100,O,z,z,None,433,234.0,199.0,24,1,2081.0,419032.2000000477,7086,love,AF,C,413437,413437,411605,412721,411605,413686,413237,413237,413686,91
86,test,1,con,1,z,Wed Mar 05 2025 10:33:42 GMT-0600 (Central Standard Time),423445.10000002384,brutal,1100,O,z,z,None,686,487.0,199.0,36,1,2325.8000000715256,421119.2999999523,7086,brutal,AF,C,415519,415519,413692,414802,413693,416018,415319,415319,416018,92
87,test,1,inc,1,m,Wed Mar 05 2025 10:33:42 GMT-0600 (Central Standard Time),425411.10000002384,rage,800,O,m,m,None,637,421.0,216.0,77,1,1959.3999999761581,423451.7000000477,7086,rock,AF,C,417553,417553,416025,416834,416025,417984,417336,417336,417984,93
88,test,1,con,1,m,Wed Mar 05 2025 10:33:42 GMT-0600 (Central Standard Time),427227.60000002384,jacket,900,O,m,m,None,374,174.0,200.0,98,1,1813.8999999761581,425413.7000000477,7086,jacket,AF,C,419617,419617,417987,418901,417987,419801,419417,419417,419801,94
88,test,1,con,0,m,Wed Mar 05 2025 10:33:42 GMT-0600 (Central Standard Time),429292.60000002384,film,1000,O,z,z,None,516,316.0,200.0,91,1,2060.399999976158,427232.2000000477,7086,film,AF,C,421534,421534,419805,420817,419806,421866,421333,421333,421866,95
89,test,1,inc,1,z,Wed Mar 05 2025 10:33:42 GMT-0600 (Central Standard Time),431124.89999997616,step,800,O,z,z,None,508,294.0,214.0,21,1,1826.8999999761581,429298.0,7086,love,AF,C,423401,423401,421871,422684,421871,423698,423186,423186,423698,96
90,test,1,con,1,z,Wed Mar 05 2025 10:33:42 GMT-0600 (Central Standard Time),433159.39999997616,friend,1100,O,z,z,None,394,194.0,200.0,28,1,2029.1999999284744,431130.2000000477,7086,friend,AF,C,425533,425533,423703,424816,423704,425733,425333,425333,425732,97
91,test,1,inc,1,z,Wed Mar 05 2025 10:33:42 GMT-0600 (Central Standard Time),435340.60000002384,rock,900,O,z,z,None,760,545.0,215.0,46,1,2177.2000000476837,433163.39999997616,7086,hate,AF,C,427366,427366,425736,426648,425737,427914,427150,427150,427914,98
92,test,1,con,1,z,Wed Mar 05 2025 10:33:42 GMT-0600 (Central Standard Time),437139.7999999523,elated,900,O,z,z,None,363,163.0,200.0,2,1,1794.3999999761581,435345.39999997616,7086,elated,AF,C,429548,429548,427918,428832,427919,429713,429348,429348,429713,99
92,test,1,inc,0,m,Wed Mar 05 2025 10:33:42 GMT-0600 (Central Standard Time),439439.60000002384,temper,1000,O,z,z,None,758,558.0,200.0,119,1,2293.8000000715256,437145.7999999523,7086,remote,AF,C,431448,431448,429719,430730,429719,432013,431247,431247,432013,100
93,test,1,inc,1,z,Wed Mar 05 2025 10:33:42 GMT-0600 (Central Standard Time),441624.10000002384,film,1100,O,z,z,None,544,343.0,201.0,16,1,2179.600000023842,439444.5,7086,kind,AF,C,433848,433848,432018,433131,432018,434197,433646,433646,434197,101
94,test,1,inc,1,m,Wed Mar 05 2025 10:33:42 GMT-0600 (Central Standard Time),443638.89999997616,brutal,900,O,m,m,None,570,371.0,199.0,102,1,2009.8999999761581,441629.0,7086,jacket,AF,C,435828,435828,434202,435114,434202,436212,435629,435629,436212,102
95,test,1,inc,1,m,Wed Mar 05 2025 10:33:42 GMT-0600 (Central Standard Time),445455.10000002384,kind,900,O,m,m,None,368,153.0,215.0,78,1,1810.2000000476837,443644.89999997616,7086,rock,AF,C,437862,437862,436218,437129,436218,438028,437646,437646,438028,103
95,test,1,inc,0,z,Wed Mar 05 2025 10:33:42 GMT-0600 (Central Standard Time),447437.5,bell,1000,O,m,m,None,437,238.0,199.0,15,1,1977.7000000476837,445459.7999999523,7086,kind,AF,C,439761,439761,438033,439046,438033,440011,439561,439561,440011,104
96,test,1,inc,1,z,Wed Mar 05 2025 10:33:42 GMT-0600 (Central Standard Time),449686.60000002384,film,1100,O,z,z,None,610,411.0,199.0,56,1,2244.3000000715256,447442.2999999523,7086,rage,AF,C,441844,441844,440015,441128,440016,442260,441645,441645,442260,105
97,test,1,con,1,m,Wed Mar 05 2025 10:33:42 GMT-0600 (Central Standard Time),452270.0,jacket,1000,O,m,m,None,1038,839.0,199.0,99,1,2578.2000000476837,449691.7999999523,7086,jacket,AF,C,443992,443992,442265,443277,442265,444843,443793,443793,444843,106
98,test,1,inc,1,z,Wed Mar 05 2025 10:33:42 GMT-0600 (Central Standard Time),454252.10000002384,napkin,900,O,z,z,None,545,330.0,215.0,62,1,1977.3999999761581,452274.7000000477,7086,temper,AF,C,446493,446493,444848,445759,444848,446825,446277,446277,446825,107
99,test,1,con,1,m,Wed Mar 05 2025 10:33:42 GMT-0600 (Central Standard Time),456600.7000000477,jacket,1100,O,m,m,None,700,501.0,199.0,100,1,2341.5,454259.2000000477,7086,jacket,AF,C,448658,448658,446832,447943,446833,449174,448458,448458,449174,108
100,test,1,con,1,m,Wed Mar 05 2025 10:33:42 GMT-0600 (Central Standard Time),458652.7000000477,window,800,O,m,m,None,717,518.0,199.0,121,1,2045.7000000476837,456607.0,7086,window,AF,C,450708,450708,449180,449993,449181,451226,450508,450508,451226,109
101,test,1,con,1,z,Wed Mar 05 2025 10:33:42 GMT-0600 (Central Standard Time),460584.2999999523,elated,1000,O,z,z,None,407,194.0,213.0,3,1,1926.0,458658.2999999523,7086,elated,AF,C,452957,452957,451231,452241,451232,453157,452743,452743,453157,110
102,test,1,con,1,m,Wed Mar 05 2025 10:33:42 GMT-0600 (Central Standard Time),462467.39999997616,rock,800,O,m,m,None,549,334.0,215.0,73,1,1879.3999999761581,460588.0,7086,rock,AF,C,454706,454706,453161,453976,453161,455040,454491,454491,455040,111
103,test,1,con,1,m,Wed Mar 05 2025 10:33:42 GMT-0600 (Central Standard Time),464283.2999999523,rock,900,O,m,m,None,373,174.0,199.0,74,1,1811.5,462471.7999999523,7086,rock,AF,C,456673,456673,455045,455958,455045,456856,456474,456474,456856,112
104,test,1,con,1,z,Wed Mar 05 2025 10:33:42 GMT-0600 (Central Standard Time),466014.2000000477,love,800,O,z,z,None,385,184.0,201.0,17,1,1727.0,464287.2000000477,7086,love,AF,C,458390,458390,456860,457673,456861,458587,458189,458189,458587,113
105,test,1,inc,1,m,Wed Mar 05 2025 10:33:42 GMT-0600 (Central Standard Time),468015.7999999523,elated,800,O,m,m,None,653,438.0,215.0,109,1,1995.8999999761581,466019.89999997616,7086,napkin,AF,C,460137,460137,458593,459406,458593,460589,459922,459922,460589,114
106,test,1,inc,1,m,Wed Mar 05 2025 10:33:42 GMT-0600 (Central Standard Time),469997.5,brutal,900,O,m,m,None,536,337.0,199.0,126,1,1975.7999999523163,468021.7000000477,7086,window,AF,C,462222,462222,460595,461504,460595,462571,462023,462023,462571,115
107,test,1,con,1,z,Wed Mar 05 2025 10:33:42 GMT-0600 (Central Standard Time),472047.7000000477,temper,1100,O,z,z,None,401,202.0,199.0,60,1,2045.9000000953674,470001.7999999523,7086,temper,AF,C,464404,464404,462575,463687,462575,464621,464205,464205,464621,116
108,test,1,con,1,m,Wed Mar 05 2025 10:33:42 GMT-0600 (Central Standard Time),474028.7999999523,napkin,900,O,m,m,None,545,345.0,200.0,106,1,1973.8999999761581,472054.89999997616,7086,napkin,AF,C,466254,466254,464628,465538,464628,466602,466054,466054,466602,117
109,test,1,con,1,z,Wed Mar 05 2025 10:33:42 GMT-0600 (Central Standard Time),475845.7000000477,rage,900,O,z,z,None,381,181.0,200.0,50,1,1811.4000000953674,474034.2999999523,7086,rage,AF,C,468236,468236,466607,467520,466608,468419,468036,468036,468419,118
110,test,1,inc,1,m,Wed Mar 05 2025 10:33:42 GMT-0600 (Central Standard Time),477828.39999997616,elated,800,O,m,m,None,639,438.0,201.0,101,1,1976.6000000238419,475851.7999999523,7086,jacket,AF,C,469952,469952,468425,469235,468425,470401,469751,469751,470401,119
111,test,1,inc,1,z,Wed Mar 05 2025 10:33:42 GMT-0600 (Central Standard Time),479693.7999999523,jacket,800,O,z,z,None,531,331.0,200.0,37,1,1858.1999999284744,477835.60000002384,7086,brutal,AF,C,471920,471920,470409,471218,470409,472267,471719,471719,472267,120
111,test,1,inc,0,m,Wed Mar 05 2025 10:33:42 GMT-0600 (Central Standard Time),481693.39999997616,elated,800,O,z,z,None,665,465.0,200.0,117,1,1992.1999999284744,479701.2000000477,7086,remote,AF,C,473801,473801,472274,473084,472275,474266,473600,473600,474266,121
111,test,1,inc,0,z,Wed Mar 05 2025 10:33:42 GMT-0600 (Central Standard Time),483825.60000002384,window,1100,O,m,m,None,491,291.0,200.0,32,1,2127.399999976158,481698.2000000477,7086,friend,AF,C,476100,476100,474271,475383,474272,476399,475900,475900,476399,122
112,test,1,con,1,m,Wed Mar 05 2025 10:33:42 GMT-0600 (Central Standard Time),485691.89999997616,jacket,800,O,m,m,None,531,331.0,200.0,97,1,1860.8999999761581,483831.0,7086,jacket,AF,C,477933,477933,476404,477216,476404,478265,477732,477732,478265,123
113,test,1,inc,1,z,Wed Mar 05 2025 10:33:42 GMT-0600 (Central Standard Time),487891.2999999523,window,1100,O,z,z,None,556,357.0,199.0,8,1,2192.2999999523163,485699.0,7086,elated,AF,C,480098,480098,478272,479382,478272,480464,479899,479899,480464,124
114,test,1,con,1,z,Wed Mar 05 2025 10:33:42 GMT-0600 (Central Standard Time),489774.0,rage,1000,O,z,z,None,344,144.0,200.0,51,1,1878.0,487896.0,7086,rage,AF,C,482199,482199,480469,481482,480469,482347,481999,481999,482347,125
115,test,1,inc,1,m,Wed Mar 05 2025 10:33:42 GMT-0600 (Central Standard Time),491689.2999999523,elated,800,O,m,m,None,597,398.0,199.0,125,1,1909.1999999284744,489780.10000002384,7086,window,AF,C,483864,483864,482353,483163,482354,484262,483665,483665,484262,126
116,test,1,con,1,z,Wed Mar 05 2025 10:33:42 GMT-0600 (Central Standard Time),493972.60000002384,rage,1100,O,z,z,None,648,449.0,199.0,52,1,2279.899999976158,491692.7000000477,7086,rage,AF,C,486096,486096,484266,485380,484266,486546,485897,485897,486546,127
117,test,1,inc,1,m,Wed Mar 05 2025 10:33:42 GMT-0600 (Central Standard Time),496039.2999999523,love,1000,O,m,m,None,535,336.0,199.0,71,1,2062.0,493977.2999999523,7086,step,AF,C,488263,488263,486550,487562,486551,488612,488064,488064,488612,128
