acc_sum,block,block_c,block_cond,con_img,correct,correct_response,datetime,endtime,face,jitter,line,project,response,response_time,row_sel,session_number,start_end,starttime,subject_id,task,task_vers,trial
1,prac,1,A,haborder.png,1,z,Thu Mar 27 2025 14:15:54 GMT-0500 (Central Daylight Time),64151.60000002384,CFD-WF-019-015-A.jpg,1000,solid,O,z,1057,12,1,2882.100000023842,61269.5,7092,ATS,A,1
2,prac,1,A,haborder.png,1,z,Thu Mar 27 2025 14:15:54 GMT-0500 (Central Daylight Time),66884.19999998808,CFD-BF-023-013-A.jpg,1000,solid,O,z,930,4,1,5614.699999988079,61269.5,7092,ATS,A,2
3,prac,1,A,haborder.png,1,z,Thu Mar 27 2025 14:15:54 GMT-0500 (Central Daylight Time),70382.19999998808,CFD-WM-013-015-A.jpg,1900,solid,O,z,777,8,1,9112.699999988079,61269.5,7092,ATS,A,3
4,prac,1,A,haborder.png,1,m,Thu Mar 27 2025 14:15:54 GMT-0500 (Central Daylight Time),74132.0,CFD-BF-028-020-HC.jpg,2000,solid,O,m,947,5,1,12862.5,61269.5,7092,ATS,A,4
5,prac,1,A,haborder.png,1,z,Thu Mar 27 2025 14:15:54 GMT-0500 (Central Daylight Time),77380.39999997616,CFD-BM-005-010-A.jpg,1600,solid,O,z,829,2,1,16110.899999976158,61269.5,7092,ATS,A,5
6,prac,1,A,haborder.png,1,z,Thu Mar 27 2025 14:15:54 GMT-0500 (Central Daylight Time),80263.0,CFD-BF-039-039-A.jpg,1200,solid,O,z,852,6,1,18993.5,61269.5,7092,ATS,A,6
7,prac,1,A,haborder.png,1,m,Thu Mar 27 2025 14:15:54 GMT-0500 (Central Daylight Time),83561.80000001192,CFD-BM-017-052-HC.jpg,1700,solid,O,m,791,1,1,22292.30000001192,61269.5,7092,ATS,A,7
8,prac,1,A,haborder.png,1,m,Thu Mar 27 2025 14:15:54 GMT-0500 (Central Daylight Time),86560.80000001192,CFD-WM-004-005-HC.jpg,1400,solid,O,m,776,7,1,25291.30000001192,61269.5,7092,ATS,A,8
9,prac,1,A,haborder.png,1,m,Thu Mar 27 2025 14:15:54 GMT-0500 (Central Daylight Time),89659.89999997616,CFD-BM-029-026-HC.jpg,1500,solid,O,m,778,3,1,28390.399999976158,61269.5,7092,ATS,A,9
9,prac,1,A,haborder.png,0,m,Thu Mar 27 2025 14:15:54 GMT-0500 (Central Daylight Time),93641.60000002384,CFD-WM-006-013-HC.jpg,1700,solid,O,z,1457,9,1,32372.100000023842,61269.5,7092,ATS,A,10
10,prac,1,A,haborder.png,1,m,Thu Mar 27 2025 14:15:54 GMT-0500 (Central Daylight Time),96707.60000002384,CFD-WF-017-016-HC.jpg,1500,solid,O,m,765,11,1,35438.10000002384,61269.5,7092,ATS,A,11
11,prac,1,A,haborder.png,1,z,Thu Mar 27 2025 14:15:54 GMT-0500 (Central Daylight Time),99973.39999997616,CFD-WF-003-014-A.jpg,1600,solid,O,z,843,10,1,38703.89999997616,61269.5,7092,ATS,A,12
1,prac,1,B,mfborder.png,1,m,Thu Mar 27 2025 14:15:54 GMT-0500 (Central Daylight Time),130779.5,CFD-BM-029-026-HC.jpg,1700,dash,O,m,655,1,1,3182.100000023842,127597.39999997616,7092,ATS,A,1
2,prac,1,B,mfborder.png,1,z,Thu Mar 27 2025 14:15:54 GMT-0500 (Central Daylight Time),133945.10000002384,CFD-WF-003-014-A.jpg,1500,dash,O,z,833,11,1,6347.700000047684,127597.39999997616,7092,ATS,A,2
3,prac,1,B,mfborder.png,1,m,Thu Mar 27 2025 14:15:54 GMT-0500 (Central Daylight Time),137510.60000002384,CFD-WM-013-015-A.jpg,1700,dash,O,m,1035,9,1,9913.200000047684,127597.39999997616,7092,ATS,A,3
4,prac,1,B,mfborder.png,1,z,Thu Mar 27 2025 14:15:54 GMT-0500 (Central Daylight Time),140676.5,CFD-BF-023-013-A.jpg,1000,dash,O,z,1346,4,1,13079.100000023842,127597.39999997616,7092,ATS,A,4
5,prac,1,B,mfborder.png,1,z,Thu Mar 27 2025 14:15:54 GMT-0500 (Central Daylight Time),144341.19999998808,CFD-BF-028-020-HC.jpg,1400,dash,O,z,1444,7,1,16743.80000001192,127597.39999997616,7092,ATS,A,5
6,prac,1,B,mfborder.png,1,m,Thu Mar 27 2025 14:15:54 GMT-0500 (Central Daylight Time),147407.5,CFD-WM-019-013-A.jpg,1200,dash,O,m,1060,6,1,19810.100000023842,127597.39999997616,7092,ATS,A,6
7,prac,1,B,mfborder.png,1,m,Thu Mar 27 2025 14:15:54 GMT-0500 (Central Daylight Time),150706.10000002384,CFD-BM-010-019-A.jpg,1600,dash,O,m,865,2,1,23108.700000047684,127597.39999997616,7092,ATS,A,7
8,prac,1,B,mfborder.png,1,z,Thu Mar 27 2025 14:15:54 GMT-0500 (Central Daylight Time),153672.0,CFD-BF-010-005-HC.jpg,1500,dash,O,z,659,3,1,26074.600000023842,127597.39999997616,7092,ATS,A,8
9,prac,1,B,mfborder.png,1,z,Thu Mar 27 2025 14:15:54 GMT-0500 (Central Daylight Time),157604.19999998808,CFD-WF-002-008-HC.jpg,1900,dash,O,z,1212,8,1,30006.80000001192,127597.39999997616,7092,ATS,A,9
10,prac,1,B,mfborder.png,1,z,Thu Mar 27 2025 14:15:54 GMT-0500 (Central Daylight Time),160236.60000002384,CFD-WF-017-016-HC.jpg,1000,dash,O,z,804,12,1,32639.200000047684,127597.39999997616,7092,ATS,A,10
11,prac,1,B,mfborder.png,1,m,Thu Mar 27 2025 14:15:54 GMT-0500 (Central Daylight Time),163668.80000001192,CFD-WM-006-013-HC.jpg,1600,dash,O,m,1004,10,1,36071.40000003576,127597.39999997616,7092,ATS,A,11
12,prac,1,B,mfborder.png,1,m,Thu Mar 27 2025 14:15:54 GMT-0500 (Central Daylight Time),167267.5,CFD-BM-005-010-A.jpg,2000,dash,O,m,780,5,1,39670.10000002384,127597.39999997616,7092,ATS,A,12
1,test,1,A,haborder.png,1,z,Thu Mar 27 2025 14:15:54 GMT-0500 (Central Daylight Time),199857.30000001192,CFD-BF-039-039-A.jpg,1200,solid,O,z,952,6,1,2199.400000035763,197657.89999997616,7092,ATS,A,1
1,test,1,A,haborder.png,0,m,Thu Mar 27 2025 14:15:54 GMT-0500 (Central Daylight Time),202522.80000001192,CFD-WM-004-005-HC.jpg,1400,solid,O,z,1224,7,1,4864.900000035763,197657.89999997616,7092,ATS,A,2
2,test,1,A,haborder.png,1,z,Thu Mar 27 2025 14:15:54 GMT-0500 (Central Daylight Time),205421.39999997616,CFD-WM-013-015-A.jpg,1900,solid,O,z,946,8,1,7763.5,197657.89999997616,7092,ATS,A,3
3,test,1,A,haborder.png,1,z,Thu Mar 27 2025 14:15:54 GMT-0500 (Central Daylight Time),208204.19999998808,CFD-WF-003-014-A.jpg,1600,solid,O,z,1140,10,1,10546.300000011921,197657.89999997616,7092,ATS,A,4
4,test,1,A,haborder.png,1,m,Thu Mar 27 2025 14:15:54 GMT-0500 (Central Daylight Time),210786.60000002384,CFD-WM-006-013-HC.jpg,1700,solid,O,m,817,9,1,13128.700000047684,197657.89999997616,7092,ATS,A,5
5,test,1,A,haborder.png,1,m,Thu Mar 27 2025 14:15:54 GMT-0500 (Central Daylight Time),213219.19999998808,CFD-WM-006-013-HC.jpg,1700,solid,O,m,683,9,1,15561.300000011921,197657.89999997616,7092,ATS,A,6
6,test,1,A,haborder.png,1,z,Thu Mar 27 2025 14:15:54 GMT-0500 (Central Daylight Time),214901.69999998808,CFD-BF-023-013-A.jpg,1000,solid,O,z,646,4,1,17243.80000001192,197657.89999997616,7092,ATS,A,7
7,test,1,A,haborder.png,1,z,Thu Mar 27 2025 14:15:54 GMT-0500 (Central Daylight Time),217584.30000001192,CFD-WM-013-015-A.jpg,1900,solid,O,z,743,8,1,19926.400000035763,197657.89999997616,7092,ATS,A,8
8,test,1,A,haborder.png,1,m,Thu Mar 27 2025 14:15:54 GMT-0500 (Central Daylight Time),220066.89999997616,CFD-BM-017-052-HC.jpg,1700,solid,O,m,733,1,1,22409.0,197657.89999997616,7092,ATS,A,9
9,test,1,A,haborder.png,1,m,Thu Mar 27 2025 14:15:54 GMT-0500 (Central Daylight Time),222516.69999998808,CFD-BM-029-026-HC.jpg,1500,solid,O,m,915,3,1,24858.80000001192,197657.89999997616,7092,ATS,A,10
9,test,1,A,haborder.png,0,m,Thu Mar 27 2025 14:15:54 GMT-0500 (Central Daylight Time),224748.0,CFD-WF-017-016-HC.jpg,1500,solid,O,z,698,11,1,27090.100000023842,197657.89999997616,7092,ATS,A,11
10,test,1,A,haborder.png,1,m,Thu Mar 27 2025 14:15:54 GMT-0500 (Central Daylight Time),227197.60000002384,CFD-WF-017-016-HC.jpg,1500,solid,O,m,929,11,1,29539.700000047684,197657.89999997616,7092,ATS,A,12
11,test,1,A,haborder.png,1,m,Thu Mar 27 2025 14:15:54 GMT-0500 (Central Daylight Time),229447.19999998808,CFD-BM-029-026-HC.jpg,1500,solid,O,m,695,3,1,31789.30000001192,197657.89999997616,7092,ATS,A,13
12,test,1,A,haborder.png,1,z,Thu Mar 27 2025 14:15:54 GMT-0500 (Central Daylight Time),231196.60000002384,CFD-BF-023-013-A.jpg,1000,solid,O,z,698,4,1,33538.700000047684,197657.89999997616,7092,ATS,A,14
13,test,1,A,haborder.png,1,m,Thu Mar 27 2025 14:15:54 GMT-0500 (Central Daylight Time),234462.10000002384,CFD-BF-028-020-HC.jpg,2000,solid,O,m,1204,5,1,36804.200000047684,197657.89999997616,7092,ATS,A,15
14,test,1,A,haborder.png,1,m,Thu Mar 27 2025 14:15:54 GMT-0500 (Central Daylight Time),237329.19999998808,CFD-BF-028-020-HC.jpg,2000,solid,O,m,810,5,1,39671.30000001192,197657.89999997616,7092,ATS,A,16
15,test,1,A,haborder.png,1,z,Thu Mar 27 2025 14:15:54 GMT-0500 (Central Daylight Time),239327.19999998808,CFD-BF-039-039-A.jpg,1200,solid,O,z,761,6,1,41669.30000001192,197657.89999997616,7092,ATS,A,17
16,test,1,A,haborder.png,1,z,Thu Mar 27 2025 14:15:54 GMT-0500 (Central Daylight Time),241876.19999998808,CFD-WF-003-014-A.jpg,1600,solid,O,z,899,10,1,44218.30000001192,197657.89999997616,7092,ATS,A,18
17,test,1,A,haborder.png,1,z,Thu Mar 27 2025 14:15:54 GMT-0500 (Central Daylight Time),244609.0,CFD-BM-005-010-A.jpg,1600,solid,O,z,1060,2,1,46951.10000002384,197657.89999997616,7092,ATS,A,19
18,test,1,A,haborder.png,1,m,Thu Mar 27 2025 14:15:54 GMT-0500 (Central Daylight Time),247007.89999997616,CFD-BM-017-052-HC.jpg,1700,solid,O,m,653,1,1,49350.0,197657.89999997616,7092,ATS,A,20
18,test,1,A,haborder.png,0,z,Thu Mar 27 2025 14:15:54 GMT-0500 (Central Daylight Time),250172.89999997616,CFD-BM-005-010-A.jpg,1600,solid,O,None,1515,2,1,52515.0,197657.89999997616,7092,ATS,A,21
19,test,1,A,haborder.png,1,m,Thu Mar 27 2025 14:15:54 GMT-0500 (Central Daylight Time),252322.89999997616,CFD-WM-004-005-HC.jpg,1400,solid,O,m,716,7,1,54665.0,197657.89999997616,7092,ATS,A,22
20,test,1,A,haborder.png,1,z,Thu Mar 27 2025 14:15:54 GMT-0500 (Central Daylight Time),254173.39999997616,CFD-WF-019-015-A.jpg,1000,solid,O,z,798,12,1,56515.5,197657.89999997616,7092,ATS,A,23
21,test,1,A,haborder.png,1,z,Thu Mar 27 2025 14:15:54 GMT-0500 (Central Daylight Time),256155.0,CFD-WF-019-015-A.jpg,1000,solid,O,z,941,12,1,58497.10000002384,197657.89999997616,7092,ATS,A,24
1,test,1,B,mfborder.png,1,m,Thu Mar 27 2025 14:15:54 GMT-0500 (Central Daylight Time),268584.1999999881,CFD-WM-013-015-A.jpg,1700,dash,O,m,827,9,1,2565.399999976158,266018.8000000119,7092,ATS,A,1
2,test,1,B,mfborder.png,1,m,Thu Mar 27 2025 14:15:54 GMT-0500 (Central Daylight Time),271183.39999997616,CFD-BM-029-026-HC.jpg,1700,dash,O,m,835,1,1,5164.599999964237,266018.8000000119,7092,ATS,A,2
3,test,1,B,mfborder.png,1,z,Thu Mar 27 2025 14:15:54 GMT-0500 (Central Daylight Time),273515.8000000119,CFD-WF-017-016-HC.jpg,1000,dash,O,z,1283,12,1,7497.0,266018.8000000119,7092,ATS,A,3
4,test,1,B,mfborder.png,1,z,Thu Mar 27 2025 14:15:54 GMT-0500 (Central Daylight Time),275781.3000000119,CFD-BF-010-005-HC.jpg,1500,dash,O,z,721,3,1,9762.5,266018.8000000119,7092,ATS,A,4
5,test,1,B,mfborder.png,1,m,Thu Mar 27 2025 14:15:54 GMT-0500 (Central Daylight Time),277948.1999999881,CFD-WM-006-013-HC.jpg,1600,dash,O,m,532,10,1,11929.399999976158,266018.8000000119,7092,ATS,A,5
6,test,1,B,mfborder.png,1,m,Thu Mar 27 2025 14:15:54 GMT-0500 (Central Daylight Time),280063.8000000119,CFD-WM-019-013-A.jpg,1200,dash,O,m,869,6,1,14045.0,266018.8000000119,7092,ATS,A,6
7,test,1,B,mfborder.png,1,m,Thu Mar 27 2025 14:15:54 GMT-0500 (Central Daylight Time),282613.0,CFD-WM-013-015-A.jpg,1700,dash,O,m,808,9,1,16594.19999998808,266018.8000000119,7092,ATS,A,7
8,test,1,B,mfborder.png,1,m,Thu Mar 27 2025 14:15:54 GMT-0500 (Central Daylight Time),284795.5,CFD-WM-019-013-A.jpg,1200,dash,O,m,923,6,1,18776.69999998808,266018.8000000119,7092,ATS,A,8
9,test,1,B,mfborder.png,1,m,Thu Mar 27 2025 14:15:54 GMT-0500 (Central Daylight Time),287561.1999999881,CFD-BM-005-010-A.jpg,2000,dash,O,m,726,5,1,21542.399999976158,266018.8000000119,7092,ATS,A,9
10,test,1,B,mfborder.png,1,z,Thu Mar 27 2025 14:15:54 GMT-0500 (Central Daylight Time),289827.39999997616,CFD-BF-028-020-HC.jpg,1400,dash,O,z,816,7,1,23808.599999964237,266018.8000000119,7092,ATS,A,10
11,test,1,B,mfborder.png,1,z,Thu Mar 27 2025 14:15:54 GMT-0500 (Central Daylight Time),291843.60000002384,CFD-BF-023-013-A.jpg,1000,dash,O,z,982,4,1,25824.80000001192,266018.8000000119,7092,ATS,A,11
12,test,1,B,mfborder.png,1,m,Thu Mar 27 2025 14:15:54 GMT-0500 (Central Daylight Time),294675.6999999881,CFD-BM-005-010-A.jpg,2000,dash,O,m,782,5,1,28656.899999976158,266018.8000000119,7092,ATS,A,12
13,test,1,B,mfborder.png,1,z,Thu Mar 27 2025 14:15:54 GMT-0500 (Central Daylight Time),296809.0,CFD-BF-023-013-A.jpg,1000,dash,O,z,1085,4,1,30790.19999998808,266018.8000000119,7092,ATS,A,13
14,test,1,B,mfborder.png,1,m,Thu Mar 27 2025 14:15:54 GMT-0500 (Central Daylight Time),299224.39999997616,CFD-WM-006-013-HC.jpg,1600,dash,O,m,761,10,1,33205.59999996424,266018.8000000119,7092,ATS,A,14
15,test,1,B,mfborder.png,1,z,Thu Mar 27 2025 14:15:54 GMT-0500 (Central Daylight Time),302073.1999999881,CFD-WF-002-008-HC.jpg,1900,dash,O,z,885,8,1,36054.39999997616,266018.8000000119,7092,ATS,A,15
16,test,1,B,mfborder.png,1,m,Thu Mar 27 2025 14:15:54 GMT-0500 (Central Daylight Time),304538.1999999881,CFD-BM-010-019-A.jpg,1600,dash,O,m,815,2,1,38519.39999997616,266018.8000000119,7092,ATS,A,16
17,test,1,B,mfborder.png,1,m,Thu Mar 27 2025 14:15:54 GMT-0500 (Central Daylight Time),306871.5,CFD-BM-010-019-A.jpg,1600,dash,O,m,702,2,1,40852.69999998808,266018.8000000119,7092,ATS,A,17
18,test,1,B,mfborder.png,1,z,Thu Mar 27 2025 14:15:54 GMT-0500 (Central Daylight Time),309154.3000000119,CFD-WF-003-014-A.jpg,1500,dash,O,z,740,11,1,43135.5,266018.8000000119,7092,ATS,A,18
19,test,1,B,mfborder.png,1,z,Thu Mar 27 2025 14:15:54 GMT-0500 (Central Daylight Time),311836.6999999881,CFD-WF-002-008-HC.jpg,1900,dash,O,z,723,8,1,45817.89999997616,266018.8000000119,7092,ATS,A,19
20,test,1,B,mfborder.png,1,m,Thu Mar 27 2025 14:15:54 GMT-0500 (Central Daylight Time),314619.39999997616,CFD-BM-029-026-HC.jpg,1700,dash,O,m,1032,1,1,48600.59999996424,266018.8000000119,7092,ATS,A,20
21,test,1,B,mfborder.png,1,z,Thu Mar 27 2025 14:15:54 GMT-0500 (Central Daylight Time),316751.89999997616,CFD-BF-028-020-HC.jpg,1400,dash,O,z,686,7,1,50733.09999996424,266018.8000000119,7092,ATS,A,21
22,test,1,B,mfborder.png,1,z,Thu Mar 27 2025 14:15:54 GMT-0500 (Central Daylight Time),319301.0,CFD-BF-010-005-HC.jpg,1500,dash,O,z,1014,3,1,53282.19999998808,266018.8000000119,7092,ATS,A,22
23,test,1,B,mfborder.png,1,z,Thu Mar 27 2025 14:15:54 GMT-0500 (Central Daylight Time),321833.3000000119,CFD-WF-003-014-A.jpg,1500,dash,O,z,976,11,1,55814.5,266018.8000000119,7092,ATS,A,23
24,test,1,B,mfborder.png,1,z,Thu Mar 27 2025 14:15:54 GMT-0500 (Central Daylight Time),323666.0,CFD-WF-017-016-HC.jpg,1000,dash,O,z,784,12,1,57647.19999998808,266018.8000000119,7092,ATS,A,24
1,prac,1,C,mfborder.png,1,m,Thu Mar 27 2025 14:15:54 GMT-0500 (Central Daylight Time),363136.89999997616,CFD-BM-017-052-HC.jpg,2000,solid,O,m,917,4,1,3731.5,359405.39999997616,7092,ATS,A,1
1,prac,1,C,mfborder.png,0,z,Thu Mar 27 2025 14:15:54 GMT-0500 (Central Daylight Time),366468.60000002384,CFD-BF-028-020-HC.jpg,1000,dash,O,None,1513,3,1,7063.200000047684,359405.39999997616,7092,ATS,A,2
2,prac,1,C,mfborder.png,1,z,Thu Mar 27 2025 14:15:54 GMT-0500 (Central Daylight Time),369768.0,CFD-WF-017-016-HC.jpg,1600,dash,O,z,893,1,1,10362.600000023842,359405.39999997616,7092,ATS,A,3
3,prac,1,C,haborder.png,1,z,Thu Mar 27 2025 14:15:54 GMT-0500 (Central Daylight Time),373250.0,CFD-WF-003-014-A.jpg,1600,dash,O,z,1050,9,1,13844.600000023842,359405.39999997616,7092,ATS,A,4
4,prac,1,C,mfborder.png,1,z,Thu Mar 27 2025 14:15:54 GMT-0500 (Central Daylight Time),376648.8000000119,CFD-WF-019-015-A.jpg,1500,solid,O,z,1067,2,1,17243.400000035763,359405.39999997616,7092,ATS,A,5
5,prac,1,C,mfborder.png,1,m,Thu Mar 27 2025 14:15:54 GMT-0500 (Central Daylight Time),379731.39999997616,CFD-BM-005-010-A.jpg,1200,dash,O,m,1056,5,1,20326.0,359405.39999997616,7092,ATS,A,6
6,prac,1,C,mfborder.png,1,m,Thu Mar 27 2025 14:15:54 GMT-0500 (Central Daylight Time),383396.8000000119,CFD-WM-013-015-A.jpg,1700,solid,O,m,1155,6,1,23991.400000035763,359405.39999997616,7092,ATS,A,7
7,prac,1,C,haborder.png,1,m,Thu Mar 27 2025 14:15:54 GMT-0500 (Central Daylight Time),386728.89999997616,CFD-WM-004-005-HC.jpg,1400,solid,O,m,1100,12,1,27323.5,359405.39999997616,7092,ATS,A,8
8,prac,1,C,haborder.png,1,m,Thu Mar 27 2025 14:15:54 GMT-0500 (Central Daylight Time),389378.0,CFD-WM-004-005-HC.jpg,1000,dash,O,m,816,11,1,29972.600000023842,359405.39999997616,7092,ATS,A,9
9,prac,1,C,haborder.png,1,m,Thu Mar 27 2025 14:15:54 GMT-0500 (Central Daylight Time),392510.5,CFD-BM-029-026-HC.jpg,1500,solid,O,m,803,10,1,33105.10000002384,359405.39999997616,7092,ATS,A,10
10,prac,1,C,haborder.png,1,z,Thu Mar 27 2025 14:15:54 GMT-0500 (Central Daylight Time),396342.3000000119,CFD-BF-039-039-A.jpg,1700,solid,O,z,1311,8,1,36936.90000003576,359405.39999997616,7092,ATS,A,11
11,prac,1,C,haborder.png,1,z,Thu Mar 27 2025 14:15:54 GMT-0500 (Central Daylight Time),400274.1999999881,CFD-BF-023-013-A.jpg,1900,dash,O,z,1216,7,1,40868.80000001192,359405.39999997616,7092,ATS,A,12
0,test,1,C,haborder.png,0,z,Thu Mar 27 2025 14:15:54 GMT-0500 (Central Daylight Time),424133.8000000119,CFD-BM-005-010-A.jpg,1900,solid,O,m,1014,8,1,2949.5,421184.3000000119,7092,ATS,A,1
0,test,1,C,mfborder.png,0,m,Thu Mar 27 2025 14:15:54 GMT-0500 (Central Daylight Time),426682.39999997616,CFD-WM-006-013-HC.jpg,1000,dash,O,None,1508,4,1,5498.099999964237,421184.3000000119,7092,ATS,A,2
0,test,1,C,haborder.png,0,m,Thu Mar 27 2025 14:15:54 GMT-0500 (Central Daylight Time),429014.89999997616,CFD-WF-017-016-HC.jpg,1000,solid,O,z,1295,12,1,7830.599999964237,421184.3000000119,7092,ATS,A,3
0,test,1,C,haborder.png,0,z,Thu Mar 27 2025 14:15:54 GMT-0500 (Central Daylight Time),431963.89999997616,CFD-WM-013-015-A.jpg,1400,solid,O,None,1515,7,1,10779.599999964237,421184.3000000119,7092,ATS,A,4
0,test,1,C,mfborder.png,0,z,Thu Mar 27 2025 14:15:54 GMT-0500 (Central Daylight Time),435112.89999997616,CFD-BF-023-013-A.jpg,1600,dash,O,None,1515,2,1,13928.599999964237,421184.3000000119,7092,ATS,A,5
1,test,1,C,mfborder.png,1,z,Thu Mar 27 2025 14:15:54 GMT-0500 (Central Daylight Time),437795.3000000119,CFD-BF-023-013-A.jpg,1600,dash,O,z,1025,2,1,16611.0,421184.3000000119,7092,ATS,A,6
2,test,1,C,mfborder.png,1,z,Thu Mar 27 2025 14:15:54 GMT-0500 (Central Daylight Time),440361.10000002384,CFD-WF-003-014-A.jpg,1500,dash,O,z,1027,3,1,19176.80000001192,421184.3000000119,7092,ATS,A,7
3,test,1,C,haborder.png,1,m,Thu Mar 27 2025 14:15:54 GMT-0500 (Central Daylight Time),442793.5,CFD-WF-017-016-HC.jpg,1000,solid,O,m,1384,12,1,21609.19999998808,421184.3000000119,7092,ATS,A,8
4,test,1,C,haborder.png,1,z,Thu Mar 27 2025 14:15:54 GMT-0500 (Central Daylight Time),445275.8000000119,CFD-WM-013-015-A.jpg,1400,solid,O,z,1032,7,1,24091.5,421184.3000000119,7092,ATS,A,9
5,test,1,C,haborder.png,1,m,Thu Mar 27 2025 14:15:54 GMT-0500 (Central Daylight Time),447709.3000000119,CFD-BF-028-020-HC.jpg,1600,solid,O,m,782,10,1,26525.0,421184.3000000119,7092,ATS,A,10
6,test,1,C,haborder.png,1,m,Thu Mar 27 2025 14:15:54 GMT-0500 (Central Daylight Time),450774.39999997616,CFD-BF-028-020-HC.jpg,1600,solid,O,m,1421,10,1,29590.099999964237,421184.3000000119,7092,ATS,A,11
7,test,1,C,mfborder.png,1,m,Thu Mar 27 2025 14:15:54 GMT-0500 (Central Daylight Time),454189.6999999881,CFD-WM-019-013-A.jpg,2000,dash,O,m,1371,5,1,33005.39999997616,421184.3000000119,7092,ATS,A,12
7,test,1,C,haborder.png,0,m,Thu Mar 27 2025 14:15:54 GMT-0500 (Central Daylight Time),457238.89999997616,CFD-WF-002-008-HC.jpg,1500,solid,O,None,1514,11,1,36054.59999996424,421184.3000000119,7092,ATS,A,13
8,test,1,C,haborder.png,1,z,Thu Mar 27 2025 14:15:54 GMT-0500 (Central Daylight Time),459938.0,CFD-BM-010-019-A.jpg,1700,solid,O,z,961,9,1,38753.69999998808,421184.3000000119,7092,ATS,A,14
8,test,1,C,haborder.png,0,m,Thu Mar 27 2025 14:15:54 GMT-0500 (Central Daylight Time),462986.10000002384,CFD-WF-002-008-HC.jpg,1500,solid,O,None,1516,11,1,41801.80000001192,421184.3000000119,7092,ATS,A,15
8,test,1,C,mfborder.png,0,z,Thu Mar 27 2025 14:15:54 GMT-0500 (Central Daylight Time),466218.5,CFD-BF-010-005-HC.jpg,1700,dash,O,None,1513,1,1,45034.19999998808,421184.3000000119,7092,ATS,A,16
8,test,1,C,haborder.png,0,z,Thu Mar 27 2025 14:15:54 GMT-0500 (Central Daylight Time),469185.0,CFD-BM-010-019-A.jpg,1700,solid,O,m,1246,9,1,48000.69999998808,421184.3000000119,7092,ATS,A,17
9,test,1,C,mfborder.png,1,m,Thu Mar 27 2025 14:15:54 GMT-0500 (Central Daylight Time),471583.5,CFD-WM-006-013-HC.jpg,1000,dash,O,m,1361,4,1,50399.19999998808,421184.3000000119,7092,ATS,A,18
10,test,1,C,mfborder.png,1,m,Thu Mar 27 2025 14:15:54 GMT-0500 (Central Daylight Time),474533.1999999881,CFD-WM-019-013-A.jpg,2000,dash,O,m,922,5,1,53348.89999997616,421184.3000000119,7092,ATS,A,19
11,test,1,C,mfborder.png,1,z,Thu Mar 27 2025 14:15:54 GMT-0500 (Central Daylight Time),477182.1999999881,CFD-BF-010-005-HC.jpg,1700,dash,O,z,905,1,1,55997.89999997616,421184.3000000119,7092,ATS,A,20
11,test,1,C,haborder.png,0,z,Thu Mar 27 2025 14:15:54 GMT-0500 (Central Daylight Time),480164.89999997616,CFD-BM-005-010-A.jpg,1900,solid,O,m,1040,8,1,58980.59999996424,421184.3000000119,7092,ATS,A,21
12,test,1,C,mfborder.png,1,z,Thu Mar 27 2025 14:15:54 GMT-0500 (Central Daylight Time),482797.1999999881,CFD-WF-003-014-A.jpg,1500,dash,O,z,1090,3,1,61612.89999997616,421184.3000000119,7092,ATS,A,22
13,test,1,C,mfborder.png,1,m,Thu Mar 27 2025 14:15:54 GMT-0500 (Central Daylight Time),485218.60000002384,CFD-BM-029-026-HC.jpg,1200,dash,O,m,1186,6,1,64034.30000001192,421184.3000000119,7092,ATS,A,23
14,test,1,C,mfborder.png,1,m,Thu Mar 27 2025 14:15:54 GMT-0500 (Central Daylight Time),487213.1999999881,CFD-BM-029-026-HC.jpg,1200,dash,O,m,766,6,1,66028.89999997616,421184.3000000119,7092,ATS,A,24
1,test,2,C,haborder.png,1,z,Thu Mar 27 2025 14:15:54 GMT-0500 (Central Daylight Time),496976.0,CFD-BF-039-039-A.jpg,1900,solid,O,z,1153,8,1,3098.899999976158,493877.10000002384,7092,ATS,A,1
2,test,2,C,haborder.png,1,m,Thu Mar 27 2025 14:15:54 GMT-0500 (Central Daylight Time),498842.1999999881,CFD-WM-004-005-HC.jpg,1000,solid,O,m,818,12,1,4965.099999964237,493877.10000002384,7092,ATS,A,2
3,test,2,C,haborder.png,1,z,Thu Mar 27 2025 14:15:54 GMT-0500 (Central Daylight Time),501324.60000002384,CFD-BF-023-013-A.jpg,1400,solid,O,z,1032,7,1,7447.5,493877.10000002384,7092,ATS,A,3
4,test,2,C,haborder.png,1,m,Thu Mar 27 2025 14:15:54 GMT-0500 (Central Daylight Time),503256.89999997616,CFD-WM-004-005-HC.jpg,1000,solid,O,m,868,12,1,9379.799999952316,493877.10000002384,7092,ATS,A,4
5,test,2,C,mfborder.png,1,m,Thu Mar 27 2025 14:15:54 GMT-0500 (Central Daylight Time),505456.3000000119,CFD-WM-013-015-A.jpg,1200,dash,O,m,962,6,1,11579.199999988079,493877.10000002384,7092,ATS,A,5
6,test,2,C,haborder.png,1,z,Thu Mar 27 2025 14:15:54 GMT-0500 (Central Daylight Time),508272.10000002384,CFD-WF-003-014-A.jpg,1700,solid,O,z,1052,9,1,14395.0,493877.10000002384,7092,ATS,A,6
7,test,2,C,mfborder.png,1,z,Thu Mar 27 2025 14:15:54 GMT-0500 (Central Daylight Time),511053.60000002384,CFD-BF-028-020-HC.jpg,1500,dash,O,z,1244,3,1,17176.5,493877.10000002384,7092,ATS,A,7
8,test,2,C,mfborder.png,1,z,Thu Mar 27 2025 14:15:54 GMT-0500 (Central Daylight Time),514036.89999997616,CFD-WF-019-015-A.jpg,1600,dash,O,z,1356,2,1,20159.799999952316,493877.10000002384,7092,ATS,A,8
9,test,2,C,mfborder.png,1,m,Thu Mar 27 2025 14:15:54 GMT-0500 (Central Daylight Time),515952.8000000119,CFD-BM-017-052-HC.jpg,1000,dash,O,m,876,4,1,22075.69999998808,493877.10000002384,7092,ATS,A,9
10,test,2,C,mfborder.png,1,z,Thu Mar 27 2025 14:15:54 GMT-0500 (Central Daylight Time),518968.5,CFD-WF-019-015-A.jpg,1600,dash,O,z,1377,2,1,25091.399999976158,493877.10000002384,7092,ATS,A,10
11,test,2,C,mfborder.png,1,m,Thu Mar 27 2025 14:15:54 GMT-0500 (Central Daylight Time),522317.3000000119,CFD-BM-005-010-A.jpg,2000,dash,O,m,1313,5,1,28440.19999998808,493877.10000002384,7092,ATS,A,11
12,test,2,C,haborder.png,1,m,Thu Mar 27 2025 14:15:54 GMT-0500 (Central Daylight Time),524833.1000000238,CFD-WM-004-005-HC.jpg,1500,solid,O,m,968,11,1,30956.0,493877.10000002384,7092,ATS,A,12
13,test,2,C,mfborder.png,1,m,Thu Mar 27 2025 14:15:54 GMT-0500 (Central Daylight Time),527332.5,CFD-WM-013-015-A.jpg,1200,dash,O,m,1256,6,1,33455.39999997616,493877.10000002384,7092,ATS,A,13
14,test,2,C,mfborder.png,1,z,Thu Mar 27 2025 14:15:54 GMT-0500 (Central Daylight Time),530081.6999999881,CFD-WF-017-016-HC.jpg,1700,dash,O,z,992,1,1,36204.59999996424,493877.10000002384,7092,ATS,A,14
15,test,2,C,haborder.png,1,m,Thu Mar 27 2025 14:15:54 GMT-0500 (Central Daylight Time),532779.6999999881,CFD-WM-004-005-HC.jpg,1500,solid,O,m,1163,11,1,38902.59999996424,493877.10000002384,7092,ATS,A,15
16,test,2,C,mfborder.png,1,m,Thu Mar 27 2025 14:15:54 GMT-0500 (Central Daylight Time),535262.8999999762,CFD-BM-017-052-HC.jpg,1000,dash,O,m,1427,4,1,41385.799999952316,493877.10000002384,7092,ATS,A,16
17,test,2,C,haborder.png,1,m,Thu Mar 27 2025 14:15:54 GMT-0500 (Central Daylight Time),537895.6000000238,CFD-BM-029-026-HC.jpg,1600,solid,O,m,1012,10,1,44018.5,493877.10000002384,7092,ATS,A,17
18,test,2,C,haborder.png,1,m,Thu Mar 27 2025 14:15:54 GMT-0500 (Central Daylight Time),540511.3000000119,CFD-BM-029-026-HC.jpg,1600,solid,O,m,963,10,1,46634.19999998808,493877.10000002384,7092,ATS,A,18
19,test,2,C,mfborder.png,1,z,Thu Mar 27 2025 14:15:54 GMT-0500 (Central Daylight Time),543210.1000000238,CFD-WF-017-016-HC.jpg,1700,dash,O,z,957,1,1,49333.0,493877.10000002384,7092,ATS,A,19
20,test,2,C,haborder.png,1,z,Thu Mar 27 2025 14:15:54 GMT-0500 (Central Daylight Time),546276.1999999881,CFD-WF-003-014-A.jpg,1700,solid,O,z,1340,9,1,52399.09999996424,493877.10000002384,7092,ATS,A,20
21,test,2,C,haborder.png,1,z,Thu Mar 27 2025 14:15:54 GMT-0500 (Central Daylight Time),549325.3000000119,CFD-BF-039-039-A.jpg,1900,solid,O,z,1115,8,1,55448.19999998808,493877.10000002384,7092,ATS,A,21
21,test,2,C,mfborder.png,0,m,Thu Mar 27 2025 14:15:54 GMT-0500 (Central Daylight Time),552724.1999999881,CFD-BM-005-010-A.jpg,2000,dash,O,z,1332,5,1,58847.09999996424,493877.10000002384,7092,ATS,A,22
21,test,2,C,mfborder.png,0,z,Thu Mar 27 2025 14:15:54 GMT-0500 (Central Daylight Time),555256.6999999881,CFD-BF-028-020-HC.jpg,1500,dash,O,m,993,3,1,61379.59999996424,493877.10000002384,7092,ATS,A,23
21,test,2,C,haborder.png,0,z,Thu Mar 27 2025 14:15:54 GMT-0500 (Central Daylight Time),558222.8000000119,CFD-BF-023-013-A.jpg,1400,solid,O,None,1510,7,1,64345.69999998808,493877.10000002384,7092,ATS,A,24
1,test,3,C,haborder.png,1,m,Thu Mar 27 2025 14:15:54 GMT-0500 (Central Daylight Time),563154.1999999881,CFD-BF-028-020-HC.jpg,1600,solid,O,m,1080,10,1,2748.699999988079,560405.5,7092,ATS,A,1
1,test,3,C,mfborder.png,0,z,Thu Mar 27 2025 14:15:54 GMT-0500 (Central Daylight Time),566203.1999999881,CFD-WF-003-014-A.jpg,1500,dash,O,None,1514,3,1,5797.699999988079,560405.5,7092,ATS,A,2
2,test,3,C,mfborder.png,1,m,Thu Mar 27 2025 14:15:54 GMT-0500 (Central Daylight Time),568351.5,CFD-BM-029-026-HC.jpg,1200,dash,O,m,911,6,1,7946.0,560405.5,7092,ATS,A,3
3,test,3,C,mfborder.png,1,z,Thu Mar 27 2025 14:15:54 GMT-0500 (Central Daylight Time),570751.5,CFD-WF-003-014-A.jpg,1500,dash,O,z,846,3,1,10346.0,560405.5,7092,ATS,A,4
4,test,3,C,haborder.png,1,m,Thu Mar 27 2025 14:15:54 GMT-0500 (Central Daylight Time),573034.3000000119,CFD-WF-017-016-HC.jpg,1000,solid,O,m,1225,12,1,12628.800000011921,560405.5,7092,ATS,A,5
5,test,3,C,mfborder.png,1,m,Thu Mar 27 2025 14:15:54 GMT-0500 (Central Daylight Time),575016.8999999762,CFD-WM-006-013-HC.jpg,1000,dash,O,m,935,4,1,14611.399999976158,560405.5,7092,ATS,A,6
5,test,3,C,haborder.png,0,z,Thu Mar 27 2025 14:15:54 GMT-0500 (Central Daylight Time),577865.8000000119,CFD-WM-013-015-A.jpg,1400,solid,O,m,1401,7,1,17460.30000001192,560405.5,7092,ATS,A,7
5,test,3,C,haborder.png,0,m,Thu Mar 27 2025 14:15:54 GMT-0500 (Central Daylight Time),580915.0,CFD-WF-002-008-HC.jpg,1500,solid,O,None,1515,11,1,20509.5,560405.5,7092,ATS,A,8
6,test,3,C,mfborder.png,1,z,Thu Mar 27 2025 14:15:54 GMT-0500 (Central Daylight Time),583780.6999999881,CFD-BF-010-005-HC.jpg,1700,dash,O,z,1115,1,1,23375.19999998808,560405.5,7092,ATS,A,9
6,test,3,C,haborder.png,0,z,Thu Mar 27 2025 14:15:54 GMT-0500 (Central Daylight Time),586646.3000000119,CFD-WM-013-015-A.jpg,1400,solid,O,m,1421,7,1,26240.80000001192,560405.5,7092,ATS,A,10
7,test,3,C,mfborder.png,1,z,Thu Mar 27 2025 14:15:54 GMT-0500 (Central Daylight Time),589229.5,CFD-BF-023-013-A.jpg,1600,dash,O,z,948,2,1,28824.0,560405.5,7092,ATS,A,11
8,test,3,C,mfborder.png,1,m,Thu Mar 27 2025 14:15:54 GMT-0500 (Central Daylight Time),591194.8000000119,CFD-WM-006-013-HC.jpg,1000,dash,O,m,924,4,1,30789.30000001192,560405.5,7092,ATS,A,12
8,test,3,C,haborder.png,0,m,Thu Mar 27 2025 14:15:54 GMT-0500 (Central Daylight Time),594077.1999999881,CFD-WF-002-008-HC.jpg,1500,solid,O,z,1341,11,1,33671.69999998808,560405.5,7092,ATS,A,13
9,test,3,C,haborder.png,1,z,Thu Mar 27 2025 14:15:54 GMT-0500 (Central Daylight Time),596826.6000000238,CFD-BM-010-019-A.jpg,1700,solid,O,z,1009,9,1,36421.10000002384,560405.5,7092,ATS,A,14
9,test,3,C,haborder.png,0,m,Thu Mar 27 2025 14:15:54 GMT-0500 (Central Daylight Time),599375.6000000238,CFD-WF-017-016-HC.jpg,1000,solid,O,None,1514,12,1,38970.10000002384,560405.5,7092,ATS,A,15
9,test,3,C,mfborder.png,0,m,Thu Mar 27 2025 14:15:54 GMT-0500 (Central Daylight Time),602874.5,CFD-WM-019-013-A.jpg,2000,dash,O,z,1458,5,1,42469.0,560405.5,7092,ATS,A,16
10,test,3,C,haborder.png,1,m,Thu Mar 27 2025 14:15:54 GMT-0500 (Central Daylight Time),605939.8000000119,CFD-BF-028-020-HC.jpg,1600,solid,O,m,1423,10,1,45534.30000001192,560405.5,7092,ATS,A,17
11,test,3,C,haborder.png,1,z,Thu Mar 27 2025 14:15:54 GMT-0500 (Central Daylight Time),608822.5,CFD-BM-005-010-A.jpg,1900,solid,O,z,938,8,1,48417.0,560405.5,7092,ATS,A,18
12,test,3,C,haborder.png,1,z,Thu Mar 27 2025 14:15:54 GMT-0500 (Central Daylight Time),611604.8000000119,CFD-BM-010-019-A.jpg,1700,solid,O,z,1016,9,1,51199.30000001192,560405.5,7092,ATS,A,19
13,test,3,C,mfborder.png,1,z,Thu Mar 27 2025 14:15:54 GMT-0500 (Central Daylight Time),614720.5,CFD-BF-010-005-HC.jpg,1700,dash,O,z,1375,1,1,54315.0,560405.5,7092,ATS,A,20
14,test,3,C,mfborder.png,1,z,Thu Mar 27 2025 14:15:54 GMT-0500 (Central Daylight Time),617236.1999999881,CFD-BF-023-013-A.jpg,1600,dash,O,z,858,2,1,56830.69999998808,560405.5,7092,ATS,A,21
15,test,3,C,mfborder.png,1,m,Thu Mar 27 2025 14:15:54 GMT-0500 (Central Daylight Time),620118.6999999881,CFD-WM-019-013-A.jpg,2000,dash,O,m,822,5,1,59713.19999998808,560405.5,7092,ATS,A,22
16,test,3,C,mfborder.png,1,m,Thu Mar 27 2025 14:15:54 GMT-0500 (Central Daylight Time),622084.6000000238,CFD-BM-029-026-HC.jpg,1200,dash,O,m,716,6,1,61679.10000002384,560405.5,7092,ATS,A,23
17,test,3,C,haborder.png,1,z,Thu Mar 27 2025 14:15:54 GMT-0500 (Central Daylight Time),625533.3999999762,CFD-BM-005-010-A.jpg,1900,solid,O,z,1498,8,1,65127.89999997616,560405.5,7092,ATS,A,24
1,test,4,C,haborder.png,1,z,Thu Mar 27 2025 14:15:54 GMT-0500 (Central Daylight Time),630632.1000000238,CFD-BF-039-039-A.jpg,1900,solid,O,z,1220,8,1,3182.5,627449.6000000238,7092,ATS,A,1
1,test,4,C,haborder.png,0,z,Thu Mar 27 2025 14:15:54 GMT-0500 (Central Daylight Time),633914.3999999762,CFD-WF-003-014-A.jpg,1700,solid,O,None,1515,9,1,6464.799999952316,627449.6000000238,7092,ATS,A,2
2,test,4,C,haborder.png,1,z,Thu Mar 27 2025 14:15:54 GMT-0500 (Central Daylight Time),636313.1999999881,CFD-BF-023-013-A.jpg,1400,solid,O,z,959,7,1,8863.599999964237,627449.6000000238,7092,ATS,A,3
3,test,4,C,mfborder.png,1,m,Thu Mar 27 2025 14:15:54 GMT-0500 (Central Daylight Time),638579.3999999762,CFD-BM-017-052-HC.jpg,1000,dash,O,m,1187,4,1,11129.799999952316,627449.6000000238,7092,ATS,A,4
3,test,4,C,haborder.png,0,m,Thu Mar 27 2025 14:15:54 GMT-0500 (Central Daylight Time),641728.1999999881,CFD-BM-029-026-HC.jpg,1600,solid,O,None,1514,10,1,14278.599999964237,627449.6000000238,7092,ATS,A,5
3,test,4,C,mfborder.png,0,z,Thu Mar 27 2025 14:15:54 GMT-0500 (Central Daylight Time),644643.3999999762,CFD-WF-017-016-HC.jpg,1700,dash,O,m,1143,1,1,17193.799999952316,627449.6000000238,7092,ATS,A,6
3,test,4,C,mfborder.png,0,m,Thu Mar 27 2025 14:15:54 GMT-0500 (Central Daylight Time),647376.6000000238,CFD-WM-013-015-A.jpg,1200,dash,O,None,1515,6,1,19927.0,627449.6000000238,7092,ATS,A,7
4,test,4,C,mfborder.png,1,z,Thu Mar 27 2025 14:15:54 GMT-0500 (Central Daylight Time),649941.8999999762,CFD-BF-028-020-HC.jpg,1500,dash,O,z,1012,3,1,22492.299999952316,627449.6000000238,7092,ATS,A,8
5,test,4,C,mfborder.png,1,m,Thu Mar 27 2025 14:15:54 GMT-0500 (Central Daylight Time),652007.8999999762,CFD-WM-013-015-A.jpg,1200,dash,O,m,819,6,1,24558.299999952316,627449.6000000238,7092,ATS,A,9
6,test,4,C,mfborder.png,1,m,Thu Mar 27 2025 14:15:54 GMT-0500 (Central Daylight Time),654330.8999999762,CFD-BM-017-052-HC.jpg,1000,dash,O,m,1287,4,1,26881.299999952316,627449.6000000238,7092,ATS,A,10
7,test,4,C,mfborder.png,1,m,Thu Mar 27 2025 14:15:54 GMT-0500 (Central Daylight Time),657606.1999999881,CFD-BM-005-010-A.jpg,2000,dash,O,m,1262,5,1,30156.599999964237,627449.6000000238,7092,ATS,A,11
8,test,4,C,haborder.png,1,m,Thu Mar 27 2025 14:15:54 GMT-0500 (Central Daylight Time),660506.1999999881,CFD-WM-004-005-HC.jpg,1500,solid,O,m,1351,11,1,33056.59999996424,627449.6000000238,7092,ATS,A,12
9,test,4,C,mfborder.png,1,m,Thu Mar 27 2025 14:15:54 GMT-0500 (Central Daylight Time),663887.5,CFD-BM-005-010-A.jpg,2000,dash,O,m,1336,5,1,36437.89999997616,627449.6000000238,7092,ATS,A,13
10,test,4,C,mfborder.png,1,z,Thu Mar 27 2025 14:15:54 GMT-0500 (Central Daylight Time),666535.8000000119,CFD-WF-017-016-HC.jpg,1700,dash,O,z,901,1,1,39086.19999998808,627449.6000000238,7092,ATS,A,14
11,test,4,C,haborder.png,1,z,Thu Mar 27 2025 14:15:54 GMT-0500 (Central Daylight Time),669702.5,CFD-WF-003-014-A.jpg,1700,solid,O,z,1438,9,1,42252.89999997616,627449.6000000238,7092,ATS,A,15
12,test,4,C,haborder.png,1,z,Thu Mar 27 2025 14:15:54 GMT-0500 (Central Daylight Time),672234.8000000119,CFD-BF-023-013-A.jpg,1400,solid,O,z,1091,7,1,44785.19999998808,627449.6000000238,7092,ATS,A,16
13,test,4,C,mfborder.png,1,z,Thu Mar 27 2025 14:15:54 GMT-0500 (Central Daylight Time),675000.5,CFD-BF-028-020-HC.jpg,1500,dash,O,z,1219,3,1,47550.89999997616,627449.6000000238,7092,ATS,A,17
14,test,4,C,mfborder.png,1,z,Thu Mar 27 2025 14:15:54 GMT-0500 (Central Daylight Time),677383.1999999881,CFD-WF-019-015-A.jpg,1600,dash,O,z,737,2,1,49933.59999996424,627449.6000000238,7092,ATS,A,18
15,test,4,C,mfborder.png,1,z,Thu Mar 27 2025 14:15:54 GMT-0500 (Central Daylight Time),679649.3999999762,CFD-WF-019-015-A.jpg,1600,dash,O,z,611,2,1,52199.799999952316,627449.6000000238,7092,ATS,A,19
16,test,4,C,haborder.png,1,m,Thu Mar 27 2025 14:15:54 GMT-0500 (Central Daylight Time),681781.1999999881,CFD-WM-004-005-HC.jpg,1000,solid,O,m,1096,12,1,54331.59999996424,627449.6000000238,7092,ATS,A,20
17,test,4,C,haborder.png,1,z,Thu Mar 27 2025 14:15:54 GMT-0500 (Central Daylight Time),685180.1000000238,CFD-BF-039-039-A.jpg,1900,solid,O,z,1456,8,1,57730.5,627449.6000000238,7092,ATS,A,21
18,test,4,C,haborder.png,1,m,Thu Mar 27 2025 14:15:54 GMT-0500 (Central Daylight Time),686846.1000000238,CFD-WM-004-005-HC.jpg,1000,solid,O,m,645,12,1,59396.5,627449.6000000238,7092,ATS,A,22
19,test,4,C,haborder.png,1,m,Thu Mar 27 2025 14:15:54 GMT-0500 (Central Daylight Time),689446.1000000238,CFD-WM-004-005-HC.jpg,1500,solid,O,m,1055,11,1,61996.5,627449.6000000238,7092,ATS,A,23
20,test,4,C,haborder.png,1,m,Thu Mar 27 2025 14:15:54 GMT-0500 (Central Daylight Time),691778.3999999762,CFD-BM-029-026-HC.jpg,1600,solid,O,m,692,10,1,64328.799999952316,627449.6000000238,7092,ATS,A,24
