acc_sum,block,block_c,condition,correct,correct_response,datetime,endtime,flanker,jitter,project,response,response_test_buffer_response,response_test_target_response,response_time,response_time_test_buffer_response,response_time_test_target_response,row_sel,session_number,start_end,starttime,subject_id,target,task,task_vers,time_test_buffer,time_test_buffer_response,time_test_constants,time_test_flanker,time_test_jitter,time_test_logger,time_test_target,time_test_target_response,time_test_variables,trial
0,prac,1,con,0,m,Tue Sep 24 2024 15:59:13 GMT-0500 (Central Daylight Time),176937.19999998808,bronze,800,I,None,,,1799,,,9,1,4859.899999976158,172077.30000001192,7019,bronze,NF,C,,,,,,,,,,1
1,prac,1,con,1,m,Tue Sep 24 2024 15:59:13 GMT-0500 (Central Daylight Time),179686.39999997616,silver,1000,I,m,,,442,,,11,1,2743.2999999523163,176943.10000002384,7019,silver,NF,C,,,,,,,,,,2
1,prac,1,inc,0,z,Tue Sep 24 2024 15:59:13 GMT-0500 (Central Daylight Time),182035.39999997616,copper,900,I,m,,,137,,,2,1,2344.399999976158,179691.0,7019,cherry,NF,C,,,,,,,,,,3
2,prac,1,con,1,z,Tue Sep 24 2024 15:59:13 GMT-0500 (Central Daylight Time),184934.39999997616,orange,1000,I,z,,,599,,,3,1,2893.7999999523163,182040.60000002384,7019,orange,NF,C,,,,,,,,,,4
3,prac,1,con,1,z,Tue Sep 24 2024 15:59:13 GMT-0500 (Central Daylight Time),187400.60000002384,banana,800,I,z,,,363,,,1,1,2461.7000000476837,184938.89999997616,7019,banana,NF,C,,,,,,,,,,5
4,prac,1,con,1,m,Tue Sep 24 2024 15:59:13 GMT-0500 (Central Daylight Time),190033.0,zinc,1000,I,m,,,321,,,15,1,2627.0,187406.0,7019,zinc,NF,C,,,,,,,,,,6
5,prac,1,inc,1,z,Tue Sep 24 2024 15:59:13 GMT-0500 (Central Daylight Time),193182.10000002384,lead,1100,I,z,,,742,,,8,1,3144.300000011921,190037.80000001192,7019,plum,NF,C,,,,,,,,,,7
6,prac,1,inc,1,m,Tue Sep 24 2024 15:59:13 GMT-0500 (Central Daylight Time),196114.39999997616,plum,1100,I,m,,,521,,,16,1,2928.099999964237,193186.30000001192,7019,lead,NF,C,,,,,,,,,,8
7,prac,1,inc,1,z,Tue Sep 24 2024 15:59:13 GMT-0500 (Central Daylight Time),198780.19999998808,iron,900,I,z,,,460,,,6,1,2661.099999964237,196119.10000002384,7019,pear,NF,C,,,,,,,,,,9
8,prac,1,inc,1,m,Tue Sep 24 2024 15:59:13 GMT-0500 (Central Daylight Time),201662.89999997616,pear,900,I,m,,,673,,,14,1,2878.0,198784.89999997616,7019,iron,NF,C,,,,,,,,,,10
9,prac,1,con,1,z,Tue Sep 24 2024 15:59:13 GMT-0500 (Central Daylight Time),204395.60000002384,lime,800,I,z,,,628,,,5,1,2728.100000023842,201667.5,7019,lime,NF,C,,,,,,,,,,11
9,prac,1,inc,0,m,Tue Sep 24 2024 15:59:13 GMT-0500 (Central Daylight Time),207027.89999997616,cherry,900,I,z,,,418,,,10,1,2628.2999999523163,204399.60000002384,7019,copper,NF,C,,,,,,,,,,12
9,prac,1,con,0,z,Tue Sep 24 2024 15:59:13 GMT-0500 (Central Daylight Time),209760.39999997616,kiwi,1000,I,m,,,430,,,7,1,2728.599999964237,207031.80000001192,7019,kiwi,NF,C,,,,,,,,,,13
10,prac,1,inc,1,z,Tue Sep 24 2024 15:59:13 GMT-0500 (Central Daylight Time),212742.19999998808,cobalt,1100,I,z,,,575,,,4,1,2977.800000011921,209764.39999997616,7019,raisin,NF,C,,,,,,,,,,14
11,prac,1,con,1,m,Tue Sep 24 2024 15:59:13 GMT-0500 (Central Daylight Time),215508.10000002384,gold,800,I,m,,,651,,,13,1,2761.400000035763,212746.69999998808,7019,gold,NF,C,,,,,,,,,,15
12,prac,1,inc,1,m,Tue Sep 24 2024 15:59:13 GMT-0500 (Central Daylight Time),218490.69999998808,raisin,1100,I,m,,,579,,,12,1,2978.0,215512.69999998808,7019,cobalt,NF,C,,,,,,,,,,16
1,test,1,con,1,z,Tue Sep 24 2024 15:59:13 GMT-0500 (Central Daylight Time),243099.80000001192,orange,800,I,z,z,None,446,246.0,200.0,17,1,1779.300000011921,241320.5,7019,orange,NF,C,236584,236584,235054,235868,235055,236834,236384,236384,236834,1
2,test,1,inc,1,m,Tue Sep 24 2024 15:59:13 GMT-0500 (Central Daylight Time),245232.39999997616,raisin,1100,I,m,m,None,490,291.0,199.0,88,1,2128.199999988079,243104.19999998808,7019,silver,NF,C,238667,238667,236838,237950,236839,238966,238467,238467,238966,2
2,test,1,inc,0,m,Tue Sep 24 2024 15:59:13 GMT-0500 (Central Daylight Time),247765.0,raisin,1100,I,z,z,None,886,686.0,200.0,80,1,2528.5,245236.5,7019,copper,NF,C,240799,240800,238971,240083,238971,241499,240599,240599,241499,3
3,test,1,con,1,m,Tue Sep 24 2024 15:59:13 GMT-0500 (Central Daylight Time),249781.10000002384,copper,900,I,m,m,None,570,370.0,200.0,74,1,2011.9000000357628,247769.19999998808,7019,copper,NF,C,243132,243132,241503,242416,241503,243515,242932,242932,243515,4
4,test,1,con,1,m,Tue Sep 24 2024 15:59:13 GMT-0500 (Central Daylight Time),252063.5,lead,1100,I,m,m,None,642,442.0,200.0,124,1,2278.399999976158,249785.10000002384,7019,lead,NF,C,245348,245348,243519,244633,243519,245798,245148,245148,245797,5
5,test,1,inc,1,m,Tue Sep 24 2024 15:59:13 GMT-0500 (Central Daylight Time),254296.19999998808,raisin,1100,I,m,m,None,584,384.0,200.0,96,1,2228.899999976158,252067.30000001192,7019,cobalt,NF,C,247630,247630,245801,246914,245802,248030,247430,247430,248030,6
6,test,1,con,1,z,Tue Sep 24 2024 15:59:13 GMT-0500 (Central Daylight Time),256362.10000002384,orange,1100,I,z,z,None,431,231.0,200.0,20,1,2062.2000000476837,254299.89999997616,7019,orange,NF,C,249863,249863,248034,249147,248034,250096,249663,249663,250096,7
7,test,1,inc,1,z,Tue Sep 24 2024 15:59:13 GMT-0500 (Central Daylight Time),258744.80000001192,cobalt,1100,I,z,z,None,741,541.0,200.0,32,1,2378.800000011921,256366.0,7019,raisin,NF,C,251929,251929,250100,251227,250100,252479,251729,251729,252479,8
8,test,1,con,1,z,Tue Sep 24 2024 15:59:13 GMT-0500 (Central Daylight Time),260794.10000002384,raisin,900,I,z,z,None,605,406.0,199.0,26,1,2045.6000000238419,258748.5,7019,raisin,NF,C,254112,254112,252483,253395,252483,254528,253912,253912,254528,9
9,test,1,inc,1,m,Tue Sep 24 2024 15:59:13 GMT-0500 (Central Daylight Time),262743.5,pear,900,I,m,m,None,501,301.0,200.0,110,1,1945.3999999761581,260798.10000002384,7019,iron,NF,C,256161,256161,254532,255445,254532,256478,255961,255961,256477,10
9,test,1,inc,0,z,Tue Sep 24 2024 15:59:13 GMT-0500 (Central Daylight Time),264842.89999997616,silver,1000,I,m,m,None,554,355.0,199.0,7,1,2094.899999976158,262748.0,7019,banana,NF,C,258211,258211,256482,257494,256482,258577,258011,258011,258577,11
10,test,1,con,1,m,Tue Sep 24 2024 15:59:13 GMT-0500 (Central Daylight Time),266958.89999997616,iron,1000,I,m,m,None,568,368.0,200.0,107,1,2111.899999976158,264847.0,7019,iron,NF,C,260310,260310,258581,259593,258581,260693,260110,260110,260693,12
11,test,1,con,1,m,Tue Sep 24 2024 15:59:13 GMT-0500 (Central Daylight Time),268941.5,cobalt,900,I,m,m,None,543,344.0,199.0,90,1,1978.800000011921,266962.6999999881,7019,cobalt,NF,C,262326,262326,260697,261609,260697,262676,262127,262127,262676,13
12,test,1,con,1,m,Tue Sep 24 2024 15:59:13 GMT-0500 (Central Daylight Time),270940.89999997616,iron,900,I,m,m,None,561,361.0,200.0,106,1,1995.199999988079,268945.6999999881,7019,iron,NF,C,264309,264309,262680,263592,262680,264675,264109,264109,264675,14
13,test,1,inc,1,z,Tue Sep 24 2024 15:59:13 GMT-0500 (Central Daylight Time),273240.10000002384,lead,1100,I,z,z,None,666,466.0,200.0,56,1,2295.2000000476837,270944.89999997616,7019,kiwi,NF,C,266508,266508,264679,265792,264679,266974,266308,266308,266974,15
14,test,1,inc,1,m,Tue Sep 24 2024 15:59:13 GMT-0500 (Central Daylight Time),275322.8000000119,pear,900,I,m,m,None,647,447.0,200.0,102,1,2078.400000035763,273244.39999997616,7019,gold,NF,C,268607,268607,266978,267891,266979,269057,268407,268407,269057,16
15,test,1,inc,1,m,Tue Sep 24 2024 15:59:13 GMT-0500 (Central Daylight Time),277655.39999997616,plum,1100,I,m,m,None,692,492.0,200.0,128,1,2328.699999988079,275326.6999999881,7019,lead,NF,C,270890,270890,269061,270173,269061,271389,270690,270690,271389,17
16,test,1,con,1,m,Tue Sep 24 2024 15:59:13 GMT-0500 (Central Daylight Time),279554.8000000119,copper,800,I,m,m,None,562,363.0,199.0,73,1,1895.5,277659.3000000119,7019,copper,NF,C,272923,272923,271393,272206,271394,273289,272723,272723,273289,18
17,test,1,con,1,z,Tue Sep 24 2024 15:59:13 GMT-0500 (Central Daylight Time),281471.0,plum,800,I,z,z,None,575,282.0,293.0,57,1,1912.300000011921,279558.6999999881,7019,plum,NF,C,274916,274916,273293,274105,273293,275205,274622,274622,275205,19
18,test,1,con,1,m,Tue Sep 24 2024 15:59:13 GMT-0500 (Central Daylight Time),283303.60000002384,iron,800,I,m,m,None,492,292.0,200.0,105,1,1828.800000011921,281474.8000000119,7019,iron,NF,C,276738,276738,275209,276021,275209,277038,276538,276538,277038,20
19,test,1,inc,1,m,Tue Sep 24 2024 15:59:13 GMT-0500 (Central Daylight Time),285303.1999999881,banana,800,I,m,m,None,675,476.0,199.0,77,1,1995.3999999761581,283307.8000000119,7019,copper,NF,C,278554,278554,277042,277854,277042,279037,278355,278355,279037,21
20,test,1,inc,1,z,Tue Sep 24 2024 15:59:13 GMT-0500 (Central Daylight Time),287302.3000000119,gold,800,I,z,z,None,660,460.0,200.0,53,1,1993.4000000357628,285308.89999997616,7019,kiwi,NF,C,280570,280570,279043,279853,279043,281036,280370,280370,281036,22
21,test,1,con,1,z,Tue Sep 24 2024 15:59:13 GMT-0500 (Central Daylight Time),289568.5,plum,1100,I,z,z,None,625,425.0,200.0,60,1,2262.199999988079,287306.3000000119,7019,plum,NF,C,282869,282869,281040,282153,281041,283303,282669,282669,283302,23
22,test,1,con,1,m,Tue Sep 24 2024 15:59:13 GMT-0500 (Central Daylight Time),291617.6999999881,gold,1000,I,m,m,None,515,315.0,200.0,99,1,2045.199999988079,289572.5,7019,gold,NF,C,285035,285035,283307,284319,283307,285352,284835,284835,285352,24
23,test,1,inc,1,m,Tue Sep 24 2024 15:59:13 GMT-0500 (Central Daylight Time),293800.3000000119,orange,1000,I,m,m,None,648,449.0,199.0,71,1,2178.600000023842,291621.6999999881,7019,bronze,NF,C,287085,287085,285356,286368,285356,287534,286885,286885,287534,25
24,test,1,con,1,z,Tue Sep 24 2024 15:59:13 GMT-0500 (Central Daylight Time),295816.1999999881,cherry,900,I,z,z,None,590,391.0,199.0,10,1,2011.8999999761581,293804.3000000119,7019,cherry,NF,C,289151,289151,287538,288451,287539,289550,288952,288952,289550,26
25,test,1,inc,1,m,Tue Sep 24 2024 15:59:13 GMT-0500 (Central Daylight Time),297832.1999999881,cherry,900,I,m,m,None,574,374.0,200.0,94,1,2012.300000011921,295819.89999997616,7019,cobalt,NF,C,291184,291184,289554,290467,289554,291566,290983,290983,291566,27
26,test,1,con,1,z,Tue Sep 24 2024 15:59:13 GMT-0500 (Central Daylight Time),299815.0,pear,900,I,z,z,None,534,335.0,199.0,42,1,1978.8999999761581,297836.10000002384,7019,pear,NF,C,293199,293199,291570,292483,291570,293549,293000,293000,293549,28
27,test,1,inc,1,m,Tue Sep 24 2024 15:59:13 GMT-0500 (Central Daylight Time),301964.39999997616,kiwi,1000,I,m,m,None,612,412.0,200.0,127,1,2145.7999999523163,299818.60000002384,7019,lead,NF,C,295282,295282,293553,294566,293553,295699,295082,295082,295698,29
28,test,1,con,1,m,Tue Sep 24 2024 15:59:13 GMT-0500 (Central Daylight Time),304197.1999999881,copper,1000,I,m,m,None,695,495.0,200.0,75,1,2229.199999988079,301968.0,7019,copper,NF,C,297432,297432,295702,296715,295702,297931,297231,297231,297931,30
29,test,1,inc,1,z,Tue Sep 24 2024 15:59:13 GMT-0500 (Central Daylight Time),306196.10000002384,iron,900,I,z,z,None,554,354.0,200.0,46,1,1995.1000000238419,304201.0,7019,pear,NF,C,299564,299564,297935,298848,297935,299930,299364,299364,299930,31
30,test,1,inc,1,z,Tue Sep 24 2024 15:59:13 GMT-0500 (Central Daylight Time),308012.5,gold,800,I,z,z,None,477,278.0,199.0,45,1,1812.3999999761581,306200.10000002384,7019,pear,NF,C,301464,301464,299934,300747,299935,301747,301264,301264,301746,32
31,test,1,inc,1,m,Tue Sep 24 2024 15:59:13 GMT-0500 (Central Daylight Time),309961.89999997616,orange,1000,I,m,m,None,405,206.0,199.0,95,1,1945.5,308016.39999997616,7019,cobalt,NF,C,303480,303480,301750,302763,301751,303696,303280,303280,303696,33
32,test,1,con,1,z,Tue Sep 24 2024 15:59:13 GMT-0500 (Central Daylight Time),312078.0,cherry,1000,I,z,z,None,577,377.0,200.0,11,1,2112.300000011921,309965.6999999881,7019,cherry,NF,C,305429,305429,303700,304712,303700,305812,305229,305229,305812,34
33,test,1,inc,1,z,Tue Sep 24 2024 15:59:13 GMT-0500 (Central Daylight Time),314210.60000002384,lead,1100,I,z,z,None,488,289.0,199.0,48,1,2128.600000023842,312082.0,7019,pear,NF,C,307645,307645,305816,306928,305816,307945,307446,307446,307944,35
34,test,1,inc,1,m,Tue Sep 24 2024 15:59:13 GMT-0500 (Central Daylight Time),316143.0,lime,800,I,m,m,None,591,392.0,199.0,125,1,1928.6000000238419,314214.39999997616,7019,lead,NF,C,309478,309478,307948,308761,307949,309877,309278,309278,309877,36
35,test,1,inc,1,z,Tue Sep 24 2024 15:59:13 GMT-0500 (Central Daylight Time),318326.0,silver,1000,I,z,z,None,644,444.0,200.0,23,1,2178.899999976158,316147.10000002384,7019,orange,NF,C,311610,311610,309881,310894,309881,312060,311410,311410,312060,37
36,test,1,con,1,z,Tue Sep 24 2024 15:59:13 GMT-0500 (Central Daylight Time),320408.5,plum,1000,I,z,z,None,533,333.0,200.0,59,1,2078.5,318330.0,7019,plum,NF,C,313793,313793,312064,313076,312064,314143,313593,313593,314142,38
37,test,1,inc,1,z,Tue Sep 24 2024 15:59:13 GMT-0500 (Central Daylight Time),322507.60000002384,zinc,1000,I,z,z,None,554,355.0,199.0,55,1,2095.400000035763,320412.1999999881,7019,kiwi,NF,C,315875,315875,314146,315159,314147,316242,315676,315676,316242,39
38,test,1,con,1,m,Tue Sep 24 2024 15:59:13 GMT-0500 (Central Daylight Time),324723.89999997616,copper,1100,I,m,m,None,571,371.0,200.0,76,1,2212.099999964237,322511.8000000119,7019,copper,NF,C,318075,318075,316246,317358,316246,318458,317875,317875,318458,40
39,test,1,inc,1,m,Tue Sep 24 2024 15:59:13 GMT-0500 (Central Daylight Time),326956.5,raisin,1100,I,m,m,None,587,387.0,200.0,72,1,2229.100000023842,324727.39999997616,7019,bronze,NF,C,320291,320291,318461,319574,318462,320691,320091,320091,320691,41
40,test,1,inc,1,z,Tue Sep 24 2024 15:59:13 GMT-0500 (Central Daylight Time),329005.89999997616,iron,900,I,z,z,None,603,402.0,201.0,62,1,2045.699999988079,326960.1999999881,7019,plum,NF,C,322324,322324,320694,321607,320694,322740,322123,322123,322740,42
41,test,1,inc,1,m,Tue Sep 24 2024 15:59:13 GMT-0500 (Central Daylight Time),330905.10000002384,pear,900,I,m,m,None,457,257.0,200.0,126,1,1895.4000000357628,329009.6999999881,7019,lead,NF,C,324373,324373,322744,323657,322744,324639,324173,324173,324639,43
42,test,1,inc,1,z,Tue Sep 24 2024 15:59:13 GMT-0500 (Central Daylight Time),332838.0,bronze,800,I,z,z,None,594,394.0,200.0,13,1,1929.199999988079,330908.8000000119,7019,cherry,NF,C,326172,326172,324643,325456,324643,326572,325972,325972,326572,44
43,test,1,con,1,m,Tue Sep 24 2024 15:59:13 GMT-0500 (Central Daylight Time),334970.5,silver,1000,I,m,m,None,597,397.0,200.0,83,1,2128.600000023842,332841.89999997616,7019,silver,NF,C,328305,328305,326576,327588,326576,328705,328105,328105,328705,45
44,test,1,inc,1,z,Tue Sep 24 2024 15:59:13 GMT-0500 (Central Daylight Time),337136.5,cobalt,1100,I,z,z,None,524,324.0,200.0,16,1,2162.199999988079,334974.3000000119,7019,cherry,NF,C,330538,330538,328708,329821,328709,330871,330338,330338,330871,46
45,test,1,inc,1,m,Tue Sep 24 2024 15:59:13 GMT-0500 (Central Daylight Time),339219.3000000119,orange,1000,I,m,m,None,537,338.0,199.0,79,1,2078.900000035763,337140.39999997616,7019,copper,NF,C,332604,332604,330874,331887,330875,332953,332404,332404,332953,47
46,test,1,con,1,m,Tue Sep 24 2024 15:59:13 GMT-0500 (Central Daylight Time),341218.60000002384,gold,800,I,m,m,None,655,456.0,199.0,97,1,1995.5,339223.10000002384,7019,gold,NF,C,334486,334486,332957,333770,332957,334953,334287,334287,334953,48
47,test,1,inc,1,z,Tue Sep 24 2024 15:59:13 GMT-0500 (Central Daylight Time),343418.0,iron,900,I,z,z,None,755,556.0,199.0,38,1,2195.800000011921,341222.1999999881,7019,lime,NF,C,336586,336586,334956,335869,334956,337152,336386,336386,337152,49
48,test,1,inc,1,z,Tue Sep 24 2024 15:59:13 GMT-0500 (Central Daylight Time),345550.60000002384,lead,1100,I,z,z,None,501,302.0,199.0,40,1,2128.7000000476837,343421.89999997616,7019,lime,NF,C,338968,338968,337156,338268,337156,339285,338769,338769,339285,50
49,test,1,inc,1,z,Tue Sep 24 2024 15:59:13 GMT-0500 (Central Daylight Time),347400.10000002384,bronze,800,I,z,z,None,508,307.0,201.0,5,1,1845.6000000238419,345554.5,7019,banana,NF,C,340819,340819,339289,340101,339289,341134,340618,340618,341134,51
50,test,1,inc,1,z,Tue Sep 24 2024 15:59:13 GMT-0500 (Central Daylight Time),349316.39999997616,copper,900,I,z,z,None,471,271.0,200.0,6,1,1912.699999988079,347403.6999999881,7019,banana,NF,C,342767,342767,341138,342050,341138,343050,342567,342567,343050,52
51,test,1,inc,1,z,Tue Sep 24 2024 15:59:13 GMT-0500 (Central Daylight Time),351365.3000000119,silver,1000,I,z,z,None,511,311.0,200.0,31,1,2045.300000011921,349320.0,7019,raisin,NF,C,344783,344783,343054,344067,343054,345099,344583,344583,345099,53
52,test,1,con,1,z,Tue Sep 24 2024 15:59:13 GMT-0500 (Central Daylight Time),353214.89999997616,lime,800,I,z,z,None,500,301.0,199.0,33,1,1845.699999988079,351369.1999999881,7019,lime,NF,C,346633,346633,345103,345916,345104,346949,346433,346433,346949,54
53,test,1,con,1,m,Tue Sep 24 2024 15:59:13 GMT-0500 (Central Daylight Time),355247.8000000119,lead,900,I,m,m,None,592,392.0,200.0,122,1,2029.300000011921,353218.5,7019,lead,NF,C,348582,348582,346953,347866,346953,348982,348382,348382,348982,55
54,test,1,con,1,z,Tue Sep 24 2024 15:59:13 GMT-0500 (Central Daylight Time),357080.5,banana,800,I,z,z,None,483,283.0,200.0,1,1,1828.699999988079,355251.8000000119,7019,banana,NF,C,350515,350515,348986,349798,348986,350815,350315,350315,350815,56
55,test,1,inc,1,z,Tue Sep 24 2024 15:59:13 GMT-0500 (Central Daylight Time),359129.60000002384,gold,800,I,z,z,None,707,506.0,201.0,37,1,2045.0,357084.60000002384,7019,lime,NF,C,352348,352348,350819,351631,350819,352864,352147,352147,352864,57
56,test,1,con,1,z,Tue Sep 24 2024 15:59:13 GMT-0500 (Central Daylight Time),360912.3000000119,raisin,800,I,z,z,None,448,249.0,199.0,25,1,1778.699999988079,359133.60000002384,7019,raisin,NF,C,354397,354397,352868,353680,352868,354646,354197,354197,354646,58
57,test,1,con,1,z,Tue Sep 24 2024 15:59:13 GMT-0500 (Central Daylight Time),362778.5,plum,900,I,z,z,None,421,222.0,199.0,58,1,1862.5,360916.0,7019,plum,NF,C,356280,356280,354650,355563,354650,356513,356080,356080,356513,59
58,test,1,con,1,m,Tue Sep 24 2024 15:59:13 GMT-0500 (Central Daylight Time),364877.6999999881,silver,1100,I,m,m,None,453,253.0,200.0,84,1,2095.599999964237,362782.10000002384,7019,silver,NF,C,358345,358345,356516,357629,356516,358612,358145,358145,358612,60
59,test,1,con,1,z,Tue Sep 24 2024 15:59:13 GMT-0500 (Central Daylight Time),366760.60000002384,banana,900,I,z,z,None,441,241.0,200.0,2,1,1879.300000011921,364881.3000000119,7019,banana,NF,C,360245,360245,358615,359529,358615,360495,360045,360045,360495,61
60,test,1,con,1,z,Tue Sep 24 2024 15:59:13 GMT-0500 (Central Daylight Time),368776.6999999881,kiwi,1100,I,z,z,None,366,167.0,199.0,52,1,2012.3999999761581,366764.3000000119,7019,kiwi,NF,C,362327,362327,360498,361611,360499,362511,362128,362128,362511,62
61,test,1,inc,1,m,Tue Sep 24 2024 15:59:13 GMT-0500 (Central Daylight Time),370742.5,lime,800,I,m,m,None,625,426.0,199.0,109,1,1961.8999999761581,368780.60000002384,7019,iron,NF,C,364044,364044,362515,363327,362515,364477,363844,363844,364477,63
61,test,1,inc,0,m,Tue Sep 24 2024 15:59:13 GMT-0500 (Central Daylight Time),372825.10000002384,pear,900,I,z,z,None,647,448.0,199.0,118,1,2079.0,370746.10000002384,7019,zinc,NF,C,366110,366110,364480,365393,364480,366559,365910,365910,366559,64
62,test,1,con,1,m,Tue Sep 24 2024 15:59:13 GMT-0500 (Central Daylight Time),374891.39999997616,zinc,800,I,m,m,None,729,529.0,200.0,113,1,2062.899999976158,372828.5,7019,zinc,NF,C,368093,368093,366563,367376,366563,368625,367892,367892,368625,65
63,test,1,con,1,z,Tue Sep 24 2024 15:59:13 GMT-0500 (Central Daylight Time),376740.89999997616,cherry,800,I,z,z,None,510,311.0,199.0,9,1,1845.699999988079,374895.1999999881,7019,cherry,NF,C,370159,370159,368629,369442,368629,370475,369959,369959,370475,66
63,test,1,inc,0,z,Tue Sep 24 2024 15:59:13 GMT-0500 (Central Daylight Time),378756.8000000119,copper,900,I,m,m,None,578,378.0,200.0,22,1,2012.300000011921,376744.5,7019,orange,NF,C,372108,372108,370479,371391,370479,372491,371908,371908,372491,67
64,test,1,inc,1,z,Tue Sep 24 2024 15:59:13 GMT-0500 (Central Daylight Time),381122.39999997616,cobalt,1100,I,z,z,None,730,530.0,200.0,24,1,2361.699999988079,378760.6999999881,7019,orange,NF,C,374324,374324,372495,373607,372495,374857,374124,374124,374856,68
65,test,1,con,1,m,Tue Sep 24 2024 15:59:13 GMT-0500 (Central Daylight Time),383138.8000000119,zinc,900,I,m,m,None,572,372.0,200.0,114,1,2012.6000000238419,381126.1999999881,7019,zinc,NF,C,376490,376490,374860,375773,374860,376873,376290,376290,376873,69
66,test,1,inc,1,m,Tue Sep 24 2024 15:59:13 GMT-0500 (Central Daylight Time),385154.6999999881,banana,800,I,m,m,None,680,480.0,200.0,93,1,2012.300000011921,383142.39999997616,7019,cobalt,NF,C,378406,378406,376876,377689,376877,378889,378206,378206,378889,70
67,test,1,inc,1,m,Tue Sep 24 2024 15:59:13 GMT-0500 (Central Daylight Time),387387.39999997616,plum,1100,I,m,m,None,587,388.0,199.0,112,1,2228.899999976158,385158.5,7019,iron,NF,C,380722,380722,378893,380005,378893,381121,380522,380522,381121,71
68,test,1,inc,1,z,Tue Sep 24 2024 15:59:13 GMT-0500 (Central Daylight Time),389586.6999999881,cobalt,1100,I,z,z,None,556,356.0,200.0,8,1,2195.5,387391.1999999881,7019,banana,NF,C,382954,382954,381125,382238,381125,383321,382754,382754,383321,72
69,test,1,con,1,z,Tue Sep 24 2024 15:59:13 GMT-0500 (Central Daylight Time),391836.0,pear,1000,I,z,z,None,703,503.0,200.0,43,1,2245.5,389590.5,7019,pear,NF,C,385055,385055,383325,384337,383325,385570,384854,384854,385570,73
70,test,1,con,1,m,Tue Sep 24 2024 15:59:13 GMT-0500 (Central Daylight Time),393935.3000000119,zinc,1000,I,m,m,None,551,351.0,200.0,115,1,2095.600000023842,391839.6999999881,7019,zinc,NF,C,387303,387303,385574,386586,385574,387669,387103,387103,387669,74
71,test,1,con,1,m,Tue Sep 24 2024 15:59:13 GMT-0500 (Central Daylight Time),395967.89999997616,lead,1000,I,m,m,None,491,292.0,199.0,123,1,2028.8999999761581,393939.0,7019,lead,NF,C,389402,389402,387673,388686,387673,389702,389203,389203,389702,75
72,test,1,inc,1,z,Tue Sep 24 2024 15:59:13 GMT-0500 (Central Daylight Time),397884.10000002384,bronze,800,I,z,z,None,571,371.0,200.0,29,1,1912.7000000476837,395971.39999997616,7019,raisin,NF,C,391235,391235,389705,390520,389706,391618,391035,391035,391618,76
73,test,1,con,1,m,Tue Sep 24 2024 15:59:13 GMT-0500 (Central Daylight Time),399833.5,bronze,800,I,m,m,None,565,365.0,200.0,65,1,1945.699999988079,397887.8000000119,7019,bronze,NF,C,393201,393201,391622,392499,391622,393568,393001,393001,393568,77
74,test,1,con,1,m,Tue Sep 24 2024 15:59:13 GMT-0500 (Central Daylight Time),402032.8000000119,cobalt,1000,I,m,m,None,656,457.0,199.0,91,1,2195.300000011921,399837.5,7019,cobalt,NF,C,395301,395301,393572,394584,393572,395767,395101,395101,395767,78
75,test,1,con,1,m,Tue Sep 24 2024 15:59:13 GMT-0500 (Central Daylight Time),404215.10000002384,iron,1100,I,m,m,None,542,342.0,200.0,108,1,2178.400000035763,402036.6999999881,7019,iron,NF,C,397600,397600,395771,396883,395771,397949,397400,397400,397949,79
76,test,1,con,1,z,Tue Sep 24 2024 15:59:13 GMT-0500 (Central Daylight Time),406581.1999999881,cherry,1100,I,z,z,None,728,528.0,200.0,12,1,2362.199999988079,404219.0,7019,cherry,NF,C,399782,399782,397953,399066,397953,400315,399582,399582,400315,80
77,test,1,inc,1,m,Tue Sep 24 2024 15:59:13 GMT-0500 (Central Daylight Time),408497.5,cherry,900,I,m,m,None,474,274.0,200.0,86,1,1912.5,406585.0,7019,silver,NF,C,401948,401948,400319,401232,400319,402232,401748,401748,402232,81
78,test,1,con,1,z,Tue Sep 24 2024 15:59:13 GMT-0500 (Central Daylight Time),410863.39999997616,banana,1100,I,z,z,None,717,517.0,200.0,4,1,2362.399999976158,408501.0,7019,banana,NF,C,404065,404065,402235,403348,402235,404597,403864,403864,404597,82
79,test,1,con,1,z,Tue Sep 24 2024 15:59:13 GMT-0500 (Central Daylight Time),413079.5,kiwi,1000,I,z,z,None,668,468.0,200.0,51,1,2212.399999976158,410867.10000002384,7019,kiwi,NF,C,406330,406330,404601,405614,404601,406814,406130,406130,406813,83
80,test,1,inc,1,z,Tue Sep 24 2024 15:59:13 GMT-0500 (Central Daylight Time),415345.10000002384,zinc,1000,I,z,z,None,724,524.0,200.0,63,1,2262.0,413083.10000002384,7019,plum,NF,C,408546,408546,406817,407830,406817,409079,408346,408346,409079,84
81,test,1,inc,1,m,Tue Sep 24 2024 15:59:13 GMT-0500 (Central Daylight Time),417244.3000000119,cherry,900,I,m,m,None,462,262.0,200.0,78,1,1895.0,415349.3000000119,7019,copper,NF,C,410712,410712,409083,409996,409084,410978,410512,410512,410978,85
82,test,1,con,1,m,Tue Sep 24 2024 15:59:13 GMT-0500 (Central Daylight Time),419277.39999997616,bronze,1000,I,m,m,None,486,287.0,199.0,67,1,2028.3999999761581,417249.0,7019,bronze,NF,C,412711,412711,410983,411995,410983,413011,412512,412512,413011,86
83,test,1,con,1,z,Tue Sep 24 2024 15:59:13 GMT-0500 (Central Daylight Time),421510.10000002384,pear,1100,I,z,z,None,586,386.0,200.0,44,1,2229.100000023842,419281.0,7019,pear,NF,C,414844,414844,413015,414128,413015,415244,414644,414644,415244,87
84,test,1,con,1,m,Tue Sep 24 2024 15:59:13 GMT-0500 (Central Daylight Time),423575.8000000119,silver,900,I,m,m,None,584,384.0,200.0,82,1,2062.100000023842,421513.6999999881,7019,silver,NF,C,416910,416910,415248,416206,415248,417310,416710,416710,417310,88
85,test,1,inc,1,m,Tue Sep 24 2024 15:59:13 GMT-0500 (Central Daylight Time),425642.0,plum,1100,I,m,m,None,431,231.0,200.0,120,1,2062.600000023842,423579.39999997616,7019,zinc,NF,C,419143,419143,417313,418427,417314,419376,418943,418943,419376,89
86,test,1,con,1,m,Tue Sep 24 2024 15:59:13 GMT-0500 (Central Daylight Time),427574.6999999881,lead,800,I,m,m,None,593,393.0,200.0,121,1,1929.0999999642372,425645.60000002384,7019,lead,NF,C,420909,420909,419380,420193,419380,421309,420709,420709,421309,90
87,test,1,inc,1,m,Tue Sep 24 2024 15:59:13 GMT-0500 (Central Daylight Time),429440.5,banana,800,I,m,m,None,532,332.0,200.0,85,1,1862.0,427578.5,7019,silver,NF,C,422842,422842,421313,422125,421313,423175,422642,422642,423174,91
87,test,1,con,0,z,Tue Sep 24 2024 15:59:13 GMT-0500 (Central Daylight Time),431123.5,pear,800,I,m,m,None,345,146.0,199.0,41,1,1679.3999999761581,429444.10000002384,7019,pear,NF,C,424708,424708,423178,423992,423178,424858,424508,424508,424857,92
88,test,1,con,1,z,Tue Sep 24 2024 15:59:13 GMT-0500 (Central Daylight Time),433006.3000000119,kiwi,800,I,z,z,None,542,343.0,199.0,49,1,1879.1000000238419,431127.1999999881,7019,kiwi,NF,C,426390,426391,424861,425674,424861,426740,426191,426191,426740,93
89,test,1,inc,1,m,Tue Sep 24 2024 15:59:13 GMT-0500 (Central Daylight Time),435222.1999999881,kiwi,1000,I,m,m,None,669,469.0,200.0,111,1,2212.300000011921,433009.89999997616,7019,iron,NF,C,428473,428473,426744,427757,426744,428956,428273,428273,428956,94
90,test,1,con,1,z,Tue Sep 24 2024 15:59:13 GMT-0500 (Central Daylight Time),437371.60000002384,raisin,1000,I,z,z,None,613,413.0,200.0,27,1,2145.7000000476837,435225.89999997616,7019,raisin,NF,C,430689,430689,428960,429973,428960,431106,430489,430489,431106,95
91,test,1,con,1,m,Tue Sep 24 2024 15:59:13 GMT-0500 (Central Daylight Time),439587.60000002384,cobalt,1100,I,m,m,None,571,371.0,200.0,92,1,2212.0,437375.60000002384,7019,cobalt,NF,C,432939,432939,431110,432222,431110,433322,432739,432739,433322,96
92,test,1,con,1,m,Tue Sep 24 2024 15:59:13 GMT-0500 (Central Daylight Time),442419.89999997616,gold,1100,I,m,m,None,1210,995.0,215.0,100,1,2828.7999999523163,439591.10000002384,7019,gold,NF,C,435154,435155,433325,434438,433325,436154,434939,434939,436154,97
93,test,1,inc,1,z,Tue Sep 24 2024 15:59:13 GMT-0500 (Central Daylight Time),444785.89999997616,lead,1100,I,z,z,None,723,522.0,201.0,64,1,2362.399999976158,442423.5,7019,plum,NF,C,437988,437988,436158,437271,436158,438520,437787,437787,438520,98
94,test,1,con,1,z,Tue Sep 24 2024 15:59:13 GMT-0500 (Central Daylight Time),446702.0,kiwi,900,I,z,z,None,477,277.0,200.0,50,1,1912.5,444789.5,7019,kiwi,NF,C,440153,440153,438524,439437,438524,440436,439953,439953,440436,99
95,test,1,con,1,z,Tue Sep 24 2024 15:59:13 GMT-0500 (Central Daylight Time),448784.6999999881,orange,1000,I,z,z,None,541,341.0,200.0,19,1,2079.0,446705.6999999881,7019,orange,NF,C,442169,442169,440440,441453,440440,442519,441969,441969,442519,100
96,test,1,con,1,m,Tue Sep 24 2024 15:59:13 GMT-0500 (Central Daylight Time),450750.3000000119,cobalt,800,I,m,m,None,626,427.0,199.0,89,1,1962.0,448788.3000000119,7019,cobalt,NF,C,444051,444051,442522,443335,442522,444484,443852,443852,444484,101
97,test,1,inc,1,z,Tue Sep 24 2024 15:59:13 GMT-0500 (Central Daylight Time),452933.1999999881,gold,800,I,z,z,None,835,636.0,199.0,61,1,2179.199999988079,450754.0,7019,plum,NF,C,446017,446018,444488,445301,444488,446667,445818,445818,446667,102
98,test,1,inc,1,m,Tue Sep 24 2024 15:59:13 GMT-0500 (Central Daylight Time),454915.6999999881,cherry,900,I,m,m,None,544,345.0,199.0,70,1,1978.800000011921,452936.89999997616,7019,bronze,NF,C,448300,448300,446671,447584,446671,448650,448101,448101,448650,103
99,test,1,inc,1,m,Tue Sep 24 2024 15:59:13 GMT-0500 (Central Daylight Time),457132.0,kiwi,1000,I,m,m,None,679,479.0,200.0,119,1,2212.600000023842,454919.39999997616,7019,zinc,NF,C,450383,450383,448653,449667,448654,450866,450183,450183,450866,104
100,test,1,inc,1,m,Tue Sep 24 2024 15:59:13 GMT-0500 (Central Daylight Time),459064.60000002384,lime,800,I,m,m,None,598,399.0,199.0,101,1,1928.9000000357628,457135.6999999881,7019,gold,NF,C,452399,452399,450870,451683,450870,452799,452200,452200,452799,105
101,test,1,inc,1,z,Tue Sep 24 2024 15:59:13 GMT-0500 (Central Daylight Time),461181.0,silver,1000,I,z,z,None,569,370.0,199.0,15,1,2112.600000023842,459068.39999997616,7019,cherry,NF,C,454532,454532,452802,453815,452803,454915,454332,454332,454915,106
102,test,1,inc,1,z,Tue Sep 24 2024 15:59:13 GMT-0500 (Central Daylight Time),463296.60000002384,copper,900,I,z,z,None,682,482.0,200.0,30,1,2112.0,461184.60000002384,7019,raisin,NF,C,456548,456548,454919,455832,454919,457031,456348,456348,457031,107
103,test,1,inc,1,m,Tue Sep 24 2024 15:59:13 GMT-0500 (Central Daylight Time),465412.8000000119,kiwi,1000,I,m,m,None,570,370.0,200.0,103,1,2112.400000035763,463300.39999997616,7019,gold,NF,C,458764,458764,457034,458047,457035,459147,458564,458564,459147,108
104,test,1,con,1,m,Tue Sep 24 2024 15:59:13 GMT-0500 (Central Daylight Time),467478.8000000119,bronze,900,I,m,m,None,617,418.0,199.0,66,1,2062.199999988079,465416.60000002384,7019,bronze,NF,C,460780,460780,459151,460063,459151,461213,460580,460580,461213,109
104,test,1,con,0,z,Tue Sep 24 2024 15:59:13 GMT-0500 (Central Daylight Time),469569.39999997616,raisin,1100,I,m,m,None,440,147.0,293.0,28,1,2086.7999999523163,467482.60000002384,7019,raisin,NF,C,463140,463140,461217,462330,461217,463303,462846,462846,463303,110
105,test,1,con,1,m,Tue Sep 24 2024 15:59:13 GMT-0500 (Central Daylight Time),471827.60000002384,zinc,1100,I,m,m,None,622,422.0,200.0,116,1,2254.0,469573.60000002384,7019,zinc,NF,C,465128,465128,463308,464412,463308,465562,464928,464928,465562,111
106,test,1,con,1,z,Tue Sep 24 2024 15:59:13 GMT-0500 (Central Daylight Time),473860.1999999881,lime,900,I,z,z,None,596,396.0,200.0,34,1,2028.8999999761581,471831.3000000119,7019,lime,NF,C,467194,467194,465565,466478,465566,467594,466994,466994,467594,112
107,test,1,con,1,m,Tue Sep 24 2024 15:59:13 GMT-0500 (Central Daylight Time),475992.60000002384,gold,900,I,m,m,None,682,483.0,199.0,98,1,2128.7000000476837,473863.89999997616,7019,gold,NF,C,469227,469227,467598,468511,467598,469727,469028,469028,469727,113
108,test,1,inc,1,m,Tue Sep 24 2024 15:59:13 GMT-0500 (Central Daylight Time),478375.3000000119,plum,1100,I,m,m,None,734,535.0,199.0,104,1,2379.0,475996.3000000119,7019,gold,NF,C,471559,471559,469730,470843,469731,472109,471360,471360,472109,114
109,test,1,inc,1,z,Tue Sep 24 2024 15:59:13 GMT-0500 (Central Daylight Time),480524.6999999881,zinc,1000,I,z,z,None,604,404.0,200.0,39,1,2145.5,478379.1999999881,7019,lime,NF,C,473842,473842,472113,473126,472113,474259,473642,473642,474259,115
110,test,1,inc,1,m,Tue Sep 24 2024 15:59:13 GMT-0500 (Central Daylight Time),482490.6999999881,banana,800,I,m,m,None,622,422.0,200.0,69,1,1962.5,480528.1999999881,7019,bronze,NF,C,475792,475792,474262,475075,474263,476225,475592,475592,476225,116
111,test,1,con,1,m,Tue Sep 24 2024 15:59:13 GMT-0500 (Central Daylight Time),484523.5,silver,800,I,m,m,None,695,496.0,199.0,81,1,2028.8999999761581,482494.60000002384,7019,silver,NF,C,477758,477758,476229,477041,476229,478258,477558,477558,478257,117
112,test,1,inc,1,z,Tue Sep 24 2024 15:59:13 GMT-0500 (Central Daylight Time),486806.10000002384,zinc,1000,I,z,z,None,736,536.0,200.0,47,1,2278.900000035763,484527.1999999881,7019,pear,NF,C,479990,479990,478261,479274,478261,480540,479790,479790,480540,118
113,test,1,con,1,z,Tue Sep 24 2024 15:59:13 GMT-0500 (Central Daylight Time),488738.8000000119,orange,900,I,z,z,None,497,297.0,200.0,18,1,1929.1000000238419,486809.6999999881,7019,orange,NF,C,482173,482173,480544,481456,480544,482473,481973,481973,482473,119
114,test,1,con,1,z,Tue Sep 24 2024 15:59:13 GMT-0500 (Central Daylight Time),490821.3000000119,banana,1000,I,z,z,None,536,336.0,200.0,3,1,2078.900000035763,488742.39999997616,7019,banana,NF,C,484206,484206,482476,483489,482477,484555,484006,484006,484555,120
115,test,1,inc,1,z,Tue Sep 24 2024 15:59:13 GMT-0500 (Central Daylight Time),492587.39999997616,bronze,800,I,z,z,None,421,222.0,199.0,21,1,1762.5999999642372,490824.8000000119,7019,orange,NF,C,486088,486088,484559,485372,484559,486321,485889,485889,486321,121
116,test,1,inc,1,z,Tue Sep 24 2024 15:59:13 GMT-0500 (Central Daylight Time),494736.5,iron,900,I,z,z,None,715,516.0,199.0,54,1,2145.5,492591.0,7019,kiwi,NF,C,487954,487954,486325,487238,486325,488471,487755,487755,488471,122
117,test,1,inc,1,z,Tue Sep 24 2024 15:59:13 GMT-0500 (Central Daylight Time),496786.39999997616,copper,900,I,z,z,None,606,406.0,200.0,14,1,2046.0999999642372,494740.3000000119,7019,cherry,NF,C,490104,490104,488474,489387,488474,490520,489904,489904,490520,123
118,test,1,inc,1,m,Tue Sep 24 2024 15:59:13 GMT-0500 (Central Daylight Time),498985.39999997616,orange,1000,I,m,m,None,665,465.0,200.0,87,1,2195.2999999523163,496790.10000002384,7019,silver,NF,C,492253,492253,490524,491537,490524,492719,492053,492053,492719,124
119,test,1,con,1,z,Tue Sep 24 2024 15:59:13 GMT-0500 (Central Daylight Time),501334.8000000119,lime,1100,I,z,z,None,701,501.0,200.0,36,1,2345.699999988079,498989.10000002384,7019,lime,NF,C,494553,494553,492723,493836,492723,495069,494352,494352,495069,125
120,test,1,inc,1,m,Tue Sep 24 2024 15:59:13 GMT-0500 (Central Daylight Time),503267.39999997616,lime,800,I,m,m,None,596,396.0,200.0,117,1,1929.0,501338.39999997616,7019,zinc,NF,C,496602,496602,495072,495885,495073,497002,496402,496402,497001,126
121,test,1,con,1,z,Tue Sep 24 2024 15:59:13 GMT-0500 (Central Daylight Time),505916.60000002384,lime,1000,I,z,z,None,1110,911.0,199.0,35,1,2645.5,503271.10000002384,7019,lime,NF,C,498735,498735,497005,498018,497005,499651,498535,498535,499651,127
122,test,1,con,1,m,Tue Sep 24 2024 15:59:13 GMT-0500 (Central Daylight Time),508115.89999997616,bronze,1100,I,m,m,None,562,363.0,199.0,68,1,2195.7999999523163,505920.10000002384,7019,bronze,NF,C,501483,501483,499654,500768,499654,501850,501284,501284,501850,128
