acc_sum,block,block_c,condition,correct,correct_response,datetime,endtime,flanker,jitter,project,response,response_test_buffer_response,response_test_target_response,response_time,response_time_test_buffer_response,response_time_test_target_response,row_sel,session_number,start_end,starttime,subject_id,target,task,task_vers,time_test_buffer,time_test_buffer_response,time_test_constants,time_test_flanker,time_test_jitter,time_test_logger,time_test_target,time_test_target_response,time_test_variables,trial
1,prac,1,inc,1,m,Thu Apr 03 2025 18:04:31 GMT-0500 (Central Daylight Time),196898.79999999702,cherry,900,I,m,,,787,,,10,1,2995.10000000149,193903.69999999553,8037,copper,NF,C,,,,,,,,,,1
2,prac,1,con,1,m,Thu Apr 03 2025 18:04:31 GMT-0500 (Central Daylight Time),199931.0,bronze,800,I,m,,,920,,,9,1,3026.8000000044703,196904.19999999553,8037,bronze,NF,C,,,,,,,,,,2
3,prac,1,inc,1,z,Thu Apr 03 2025 18:04:31 GMT-0500 (Central Daylight Time),202813.3999999985,iron,900,I,z,,,669,,,6,1,2877.5,199935.8999999985,8037,pear,NF,C,,,,,,,,,,3
4,prac,1,con,1,z,Thu Apr 03 2025 18:04:31 GMT-0500 (Central Daylight Time),205529.29999999702,banana,800,I,z,,,614,,,1,1,2711.39999999851,202817.8999999985,8037,banana,NF,C,,,,,,,,,,4
5,prac,1,con,1,z,Thu Apr 03 2025 18:04:31 GMT-0500 (Central Daylight Time),208511.79999999702,kiwi,1000,I,z,,,674,,,7,1,2977.60000000149,205534.19999999553,8037,kiwi,NF,C,,,,,,,,,,5
6,prac,1,con,1,m,Thu Apr 03 2025 18:04:31 GMT-0500 (Central Daylight Time),211394.1000000015,zinc,1000,I,m,,,579,,,15,1,2878.0,208516.1000000015,8037,zinc,NF,C,,,,,,,,,,6
7,prac,1,inc,1,z,Thu Apr 03 2025 18:04:31 GMT-0500 (Central Daylight Time),214293.29999999702,copper,900,I,z,,,686,,,2,1,2894.7999999970198,211398.5,8037,cherry,NF,C,,,,,,,,,,7
8,prac,1,con,1,m,Thu Apr 03 2025 18:04:31 GMT-0500 (Central Daylight Time),217342.3999999985,silver,1000,I,m,,,734,,,11,1,3044.7000000029802,214297.69999999553,8037,silver,NF,C,,,,,,,,,,8
9,prac,1,inc,1,z,Thu Apr 03 2025 18:04:31 GMT-0500 (Central Daylight Time),220591.19999999553,lead,1100,I,z,,,834,,,8,1,3244.1999999955297,217347.0,8037,plum,NF,C,,,,,,,,,,9
10,prac,1,inc,1,m,Thu Apr 03 2025 18:04:31 GMT-0500 (Central Daylight Time),223890.1000000015,plum,1100,I,m,,,897,,,16,1,3294.7000000029802,220595.3999999985,8037,lead,NF,C,,,,,,,,,,10
11,prac,1,inc,1,m,Thu Apr 03 2025 18:04:31 GMT-0500 (Central Daylight Time),226906.0,pear,900,I,m,,,812,,,14,1,3011.0,223895.0,8037,iron,NF,C,,,,,,,,,,11
12,prac,1,con,1,z,Thu Apr 03 2025 18:04:31 GMT-0500 (Central Daylight Time),229771.69999999553,lime,800,I,z,,,755,,,5,1,2860.7999999970198,226910.8999999985,8037,lime,NF,C,,,,,,,,,,12
13,prac,1,inc,1,z,Thu Apr 03 2025 18:04:31 GMT-0500 (Central Daylight Time),233037.29999999702,cobalt,1100,I,z,,,851,,,4,1,3261.2999999970198,229776.0,8037,raisin,NF,C,,,,,,,,,,13
14,prac,1,con,1,m,Thu Apr 03 2025 18:04:31 GMT-0500 (Central Daylight Time),236336.29999999702,gold,800,I,m,,,1182,,,13,1,3294.5,233041.79999999702,8037,gold,NF,C,,,,,,,,,,14
15,prac,1,con,1,z,Thu Apr 03 2025 18:04:31 GMT-0500 (Central Daylight Time),239535.3999999985,orange,1000,I,z,,,899,,,3,1,3194.60000000149,236340.79999999702,8037,orange,NF,C,,,,,,,,,,15
16,prac,1,inc,1,m,Thu Apr 03 2025 18:04:31 GMT-0500 (Central Daylight Time),242667.6000000015,raisin,1100,I,m,,,728,,,12,1,3128.0,239539.6000000015,8037,cobalt,NF,C,,,,,,,,,,16
1,test,1,inc,1,z,Thu Apr 03 2025 18:04:31 GMT-0500 (Central Daylight Time),262328.0,zinc,1000,I,z,z,None,760,560.0,200.0,47,1,2295.89999999851,260032.1000000015,8037,pear,NF,C,227151,227151,225421,226435,225422,227717,226951,226951,227717,1
2,test,1,inc,1,z,Thu Apr 03 2025 18:04:31 GMT-0500 (Central Daylight Time),264627.5,copper,900,I,z,z,None,863,553.0,310.0,30,1,2295.2000000029802,262332.299999997,8037,raisin,NF,C,229461,229461,227721,228634,227722,230017,229150,229150,230016,2
3,test,1,inc,1,z,Thu Apr 03 2025 18:04:31 GMT-0500 (Central Daylight Time),267343.19999999553,iron,900,I,z,z,None,1276,1077.0,199.0,38,1,2711.2999999970198,264631.8999999985,8037,lime,NF,C,231650,231650,230021,230933,230021,232732,231450,231450,232732,3
4,test,1,con,1,m,Thu Apr 03 2025 18:04:31 GMT-0500 (Central Daylight Time),269659.19999999553,zinc,1100,I,m,m,None,680,481.0,199.0,116,1,2311.89999999851,267347.299999997,8037,zinc,NF,C,234565,234565,232736,233849,232737,235048,234366,234366,235048,4
5,test,1,inc,1,z,Thu Apr 03 2025 18:04:31 GMT-0500 (Central Daylight Time),272091.8999999985,lead,1100,I,z,z,None,789,589.0,200.0,56,1,2428.39999999851,269663.5,8037,kiwi,NF,C,236881,236881,235053,236165,235053,237481,236681,236681,237481,5
6,test,1,con,1,z,Thu Apr 03 2025 18:04:31 GMT-0500 (Central Daylight Time),274457.799999997,plum,1100,I,z,z,None,732,533.0,199.0,60,1,2362.10000000149,272095.69999999553,8037,plum,NF,C,239314,239314,237485,238597,237485,239847,239114,239114,239847,6
7,test,1,inc,1,m,Thu Apr 03 2025 18:04:31 GMT-0500 (Central Daylight Time),276623.6000000015,lime,800,I,m,m,None,818,618.0,200.0,117,1,2161.8000000044703,274461.799999997,8037,zinc,NF,C,241380,241380,239851,240663,239851,242013,241180,241180,242013,7
8,test,1,con,1,m,Thu Apr 03 2025 18:04:31 GMT-0500 (Central Daylight Time),278739.69999999553,cobalt,900,I,m,m,None,679,480.0,199.0,90,1,2112.0,276627.69999999553,8037,cobalt,NF,C,243646,243646,242017,242929,242017,244129,243446,243446,244129,8
9,test,1,con,1,z,Thu Apr 03 2025 18:04:31 GMT-0500 (Central Daylight Time),280955.799999997,banana,1000,I,z,z,None,671,472.0,199.0,3,1,2212.0,278743.799999997,8037,banana,NF,C,245862,245862,244133,245146,244133,246345,245662,245662,246345,9
10,test,1,con,1,z,Thu Apr 03 2025 18:04:31 GMT-0500 (Central Daylight Time),283304.799999997,cherry,900,I,z,z,None,899,700.0,199.0,10,1,2345.10000000149,280959.69999999553,8037,cherry,NF,C,247978,247978,246349,247261,246349,248694,247778,247778,248694,10
11,test,1,inc,1,m,Thu Apr 03 2025 18:04:31 GMT-0500 (Central Daylight Time),285504.1000000015,banana,800,I,m,m,None,860,660.0,200.0,77,1,2195.0,283309.1000000015,8037,copper,NF,C,250227,250227,248698,249511,248698,250893,250027,250027,250893,11
12,test,1,con,1,z,Thu Apr 03 2025 18:04:31 GMT-0500 (Central Daylight Time),287663.299999997,cherry,800,I,z,z,None,810,610.0,200.0,9,1,2154.7999999970198,285508.5,8037,cherry,NF,C,252426,252426,250898,251710,250898,253052,252226,252226,253052,12
13,test,1,inc,1,m,Thu Apr 03 2025 18:04:31 GMT-0500 (Central Daylight Time),289752.799999997,orange,1000,I,m,m,None,549,350.0,199.0,87,1,2085.39999999851,287667.3999999985,8037,silver,NF,C,254776,254776,253056,254059,253057,255142,254576,254576,255142,13
14,test,1,inc,1,z,Thu Apr 03 2025 18:04:31 GMT-0500 (Central Daylight Time),291718.8999999985,bronze,800,I,z,z,None,619,419.0,200.0,29,1,1961.8999999985099,289757.0,8037,raisin,NF,C,256675,256675,255146,255960,255146,257108,256475,256475,257108,14
15,test,1,inc,1,m,Thu Apr 03 2025 18:04:31 GMT-0500 (Central Daylight Time),294001.69999999553,raisin,1100,I,m,m,None,649,449.0,200.0,80,1,2278.7999999970198,291722.8999999985,8037,copper,NF,C,258941,258941,257112,258224,257112,259391,258741,258741,259391,15
16,test,1,con,1,z,Thu Apr 03 2025 18:04:31 GMT-0500 (Central Daylight Time),296417.6000000015,cherry,1100,I,z,z,None,774,575.0,199.0,12,1,2412.10000000149,294005.5,8037,cherry,NF,C,261224,261224,259395,260507,259395,261807,261024,261024,261807,16
17,test,1,con,1,z,Thu Apr 03 2025 18:04:31 GMT-0500 (Central Daylight Time),298800.0,kiwi,1100,I,z,z,None,733,534.0,199.0,52,1,2378.10000000149,296421.8999999985,8037,kiwi,NF,C,263640,263640,261811,262923,261811,264189,263440,263440,264189,17
18,test,1,con,1,m,Thu Apr 03 2025 18:04:31 GMT-0500 (Central Daylight Time),300832.69999999553,copper,800,I,m,m,None,683,484.0,199.0,73,1,2028.5999999940395,298804.1000000015,8037,copper,NF,C,265722,265722,264193,265006,264194,266222,265523,265523,266222,18
19,test,1,inc,1,m,Thu Apr 03 2025 18:04:31 GMT-0500 (Central Daylight Time),302832.0,banana,800,I,m,m,None,658,459.0,199.0,69,1,1995.3999999985099,300836.6000000015,8037,bronze,NF,C,267755,267755,266226,267039,266226,268221,267555,267555,268221,19
20,test,1,inc,1,z,Thu Apr 03 2025 18:04:31 GMT-0500 (Central Daylight Time),305198.0,lead,1100,I,z,z,None,728,528.0,200.0,48,1,2361.0,302837.0,8037,pear,NF,C,270054,270054,268226,269338,268226,270587,269854,269854,270587,20
21,test,1,con,1,z,Thu Apr 03 2025 18:04:31 GMT-0500 (Central Daylight Time),307663.799999997,lime,1000,I,z,z,None,927,727.0,200.0,35,1,2461.60000000149,305202.19999999553,8037,lime,NF,C,272320,272320,270591,271604,270592,273053,272120,272120,273053,21
22,test,1,con,1,z,Thu Apr 03 2025 18:04:31 GMT-0500 (Central Daylight Time),310379.69999999553,raisin,800,I,z,z,None,1380,1180.0,200.0,25,1,2710.6999999955297,307669.0,8037,raisin,NF,C,274586,274586,273058,273870,273059,275769,274386,274386,275769,22
23,test,1,inc,1,m,Thu Apr 03 2025 18:04:31 GMT-0500 (Central Daylight Time),312645.5,orange,1000,I,m,m,None,720,521.0,199.0,95,1,2261.7000000029802,310383.799999997,8037,cobalt,NF,C,277502,277502,275773,276785,275773,278035,277302,277302,278035,23
24,test,1,inc,1,z,Thu Apr 03 2025 18:04:31 GMT-0500 (Central Daylight Time),315078.299999997,cobalt,1100,I,z,z,None,794,595.0,199.0,32,1,2428.7999999970198,312649.5,8037,raisin,NF,C,279868,279868,278039,279152,278039,280467,279668,279668,280467,24
25,test,1,con,1,m,Thu Apr 03 2025 18:04:31 GMT-0500 (Central Daylight Time),317410.6000000015,bronze,1100,I,m,m,None,699,499.0,200.0,68,1,2328.4000000059605,315082.19999999553,8037,bronze,NF,C,282300,282300,280471,281584,280472,282800,282100,282100,282800,25
26,test,1,inc,1,m,Thu Apr 03 2025 18:04:31 GMT-0500 (Central Daylight Time),319526.69999999553,pear,900,I,m,m,None,677,477.0,200.0,110,1,2112.39999999851,317414.299999997,8037,iron,NF,C,284433,284433,282803,283717,282804,284916,284233,284233,284916,26
27,test,1,con,1,m,Thu Apr 03 2025 18:04:31 GMT-0500 (Central Daylight Time),321659.3999999985,bronze,1000,I,m,m,None,597,397.0,200.0,67,1,2128.5,319530.8999999985,8037,bronze,NF,C,286649,286649,284920,285932,284920,287048,286449,286449,287048,27
28,test,1,inc,1,m,Thu Apr 03 2025 18:04:31 GMT-0500 (Central Daylight Time),323775.5,pear,900,I,m,m,None,675,476.0,199.0,126,1,2111.89999999851,321663.6000000015,8037,lead,NF,C,288682,288682,287053,287965,287053,289165,288482,288482,289164,28
29,test,1,con,1,z,Thu Apr 03 2025 18:04:31 GMT-0500 (Central Daylight Time),326091.299999997,orange,1000,I,z,z,None,779,580.0,199.0,19,1,2312.10000000149,323779.19999999553,8037,orange,NF,C,290898,290898,289168,290182,289168,291480,290698,290698,291480,29
30,test,1,inc,1,m,Thu Apr 03 2025 18:04:31 GMT-0500 (Central Daylight Time),328440.69999999553,raisin,1100,I,m,m,None,707,508.0,199.0,96,1,2345.5,326095.19999999553,8037,cobalt,NF,C,293314,293314,291484,292597,291485,293830,293114,293114,293830,30
31,test,1,con,1,m,Thu Apr 03 2025 18:04:31 GMT-0500 (Central Daylight Time),330923.19999999553,gold,800,I,m,m,None,1139,939.0,200.0,97,1,2478.7999999970198,328444.3999999985,8037,gold,NF,C,295363,295363,293833,294647,293834,296312,295163,295163,296312,31
32,test,1,con,1,z,Thu Apr 03 2025 18:04:31 GMT-0500 (Central Daylight Time),333105.799999997,banana,900,I,z,z,None,757,558.0,199.0,2,1,2178.39999999851,330927.3999999985,8037,banana,NF,C,297929,297929,296316,297229,296317,298495,297730,297730,298495,32
33,test,1,inc,1,m,Thu Apr 03 2025 18:04:31 GMT-0500 (Central Daylight Time),335339.19999999553,pear,900,I,m,m,None,735,532.0,203.0,118,1,2229.5,333109.69999999553,8037,zinc,NF,C,300194,300194,298499,299412,298499,300728,299991,299991,300728,33
34,test,1,con,1,z,Thu Apr 03 2025 18:04:31 GMT-0500 (Central Daylight Time),337654.1000000015,raisin,1100,I,z,z,None,676,477.0,199.0,28,1,2311.4000000059605,335342.69999999553,8037,raisin,NF,C,302560,302561,300732,301844,300732,303043,302361,302361,303043,34
35,test,1,inc,1,m,Thu Apr 03 2025 18:04:31 GMT-0500 (Central Daylight Time),339987.1000000015,raisin,1100,I,m,m,None,697,498.0,199.0,72,1,2328.2000000029802,337658.8999999985,8037,bronze,NF,C,304877,304877,303048,304160,303048,305376,304677,304677,305376,35
36,test,1,inc,1,z,Thu Apr 03 2025 18:04:31 GMT-0500 (Central Daylight Time),342352.8999999985,cobalt,1100,I,z,z,None,717,517.0,200.0,8,1,2362.0,339990.8999999985,8037,banana,NF,C,307209,307209,305380,306493,305380,307742,307009,307009,307742,36
37,test,1,con,1,z,Thu Apr 03 2025 18:04:31 GMT-0500 (Central Daylight Time),344519.1000000015,pear,900,I,z,z,None,719,519.0,200.0,42,1,2162.4000000059605,342356.69999999553,8037,pear,NF,C,309375,309375,307746,308659,307746,309908,309175,309175,309908,37
38,test,1,inc,1,m,Thu Apr 03 2025 18:04:31 GMT-0500 (Central Daylight Time),346501.69999999553,banana,800,I,m,m,None,637,437.0,200.0,85,1,1978.7999999970198,344522.8999999985,8037,silver,NF,C,311441,311441,309912,310725,309912,311891,311241,311241,311891,38
39,test,1,inc,1,z,Thu Apr 03 2025 18:04:31 GMT-0500 (Central Daylight Time),348551.1000000015,gold,800,I,z,z,None,711,511.0,200.0,37,1,2045.6000000014901,346505.5,8037,lime,NF,C,313424,313424,311895,312708,311895,313940,313224,313224,313940,39
40,test,1,inc,1,m,Thu Apr 03 2025 18:04:31 GMT-0500 (Central Daylight Time),350633.69999999553,cherry,900,I,m,m,None,634,434.0,200.0,94,1,2078.2999999970198,348555.3999999985,8037,cobalt,NF,C,315573,315573,313944,314857,313945,316023,315373,315373,316023,40
41,test,1,inc,1,z,Thu Apr 03 2025 18:04:31 GMT-0500 (Central Daylight Time),352649.8999999985,iron,900,I,z,z,None,566,367.0,199.0,62,1,2012.2999999970198,350637.6000000015,8037,plum,NF,C,317656,317656,316027,316940,316027,318039,317456,317456,318039,41
42,test,1,inc,1,m,Thu Apr 03 2025 18:04:31 GMT-0500 (Central Daylight Time),354865.69999999553,kiwi,1000,I,m,m,None,666,466.0,200.0,127,1,2211.89999999851,352653.799999997,8037,lead,NF,C,319772,319772,318043,319055,318043,320255,319572,319572,320255,42
43,test,1,con,1,m,Thu Apr 03 2025 18:04:31 GMT-0500 (Central Daylight Time),357081.6000000015,lead,800,I,m,m,None,874,674.0,200.0,121,1,2211.9000000059605,354869.69999999553,8037,lead,NF,C,321788,321788,320259,321072,320259,322471,321588,321588,322471,43
44,test,1,con,1,z,Thu Apr 03 2025 18:04:31 GMT-0500 (Central Daylight Time),359114.19999999553,pear,800,I,z,z,None,698,498.0,200.0,41,1,2028.8999999985099,357085.299999997,8037,pear,NF,C,324004,324004,322474,323287,322475,324503,323804,323804,324503,44
45,test,1,con,1,m,Thu Apr 03 2025 18:04:31 GMT-0500 (Central Daylight Time),361197.1000000015,iron,900,I,m,m,None,637,438.0,199.0,106,1,2079.3000000044703,359117.799999997,8037,iron,NF,C,326136,326136,324507,325420,324507,326586,325937,325937,326586,45
46,test,1,inc,1,m,Thu Apr 03 2025 18:04:31 GMT-0500 (Central Daylight Time),363229.69999999553,cherry,900,I,m,m,None,596,396.0,200.0,78,1,2028.6999999955297,361201.0,8037,copper,NF,C,328219,328219,326590,327503,326590,328619,328019,328019,328619,46
47,test,1,con,1,m,Thu Apr 03 2025 18:04:31 GMT-0500 (Central Daylight Time),365295.6000000015,copper,1100,I,m,m,None,427,227.0,200.0,76,1,2061.7000000029802,363233.8999999985,8037,copper,NF,C,330452,330452,328623,329736,328623,330685,330252,330252,330685,47
48,test,1,inc,1,z,Thu Apr 03 2025 18:04:31 GMT-0500 (Central Daylight Time),367295.299999997,bronze,800,I,z,z,None,652,452.0,200.0,21,1,1996.0,365299.299999997,8037,orange,NF,C,332218,332218,330688,331502,330689,332684,332018,332018,332684,48
49,test,1,con,1,z,Thu Apr 03 2025 18:04:31 GMT-0500 (Central Daylight Time),369527.799999997,banana,1100,I,z,z,None,585,385.0,200.0,4,1,2228.7999999970198,367299.0,8037,banana,NF,C,334517,334517,332688,333801,332688,334917,334317,334317,334917,49
50,test,1,inc,1,m,Thu Apr 03 2025 18:04:31 GMT-0500 (Central Daylight Time),371493.799999997,banana,800,I,m,m,None,628,428.0,200.0,93,1,1961.8999999985099,369531.8999999985,8037,cobalt,NF,C,336450,336450,334921,335734,334921,336883,336250,336250,336883,50
51,test,1,inc,1,z,Thu Apr 03 2025 18:04:31 GMT-0500 (Central Daylight Time),373626.299999997,copper,900,I,z,z,None,698,498.0,200.0,22,1,2128.5,371497.799999997,8037,orange,NF,C,338516,338516,336887,337800,336887,339015,338316,338316,339015,51
52,test,1,inc,1,z,Thu Apr 03 2025 18:04:31 GMT-0500 (Central Daylight Time),375992.5,cobalt,1100,I,z,z,None,716,517.0,199.0,16,1,2362.5,373630.0,8037,cherry,NF,C,340849,340849,339019,340132,339019,341382,340649,340649,341382,52
53,test,1,inc,1,m,Thu Apr 03 2025 18:04:31 GMT-0500 (Central Daylight Time),378624.8999999985,plum,1100,I,m,m,None,992,793.0,199.0,128,1,2628.60000000149,375996.299999997,8037,lead,NF,C,343214,343214,341385,342498,341386,344014,343015,343015,344014,53
54,test,1,inc,1,z,Thu Apr 03 2025 18:04:31 GMT-0500 (Central Daylight Time),380807.69999999553,silver,1000,I,z,z,None,643,443.0,200.0,31,1,2178.89999999851,378628.799999997,8037,raisin,NF,C,345747,345747,344018,345031,344018,346197,345547,345547,346197,54
55,test,1,con,1,m,Thu Apr 03 2025 18:04:31 GMT-0500 (Central Daylight Time),383040.299999997,bronze,900,I,m,m,None,691,492.0,199.0,66,1,2228.6999999955297,380811.6000000015,8037,bronze,NF,C,347930,347930,346201,347224,346201,348429,347730,347730,348429,55
56,test,1,inc,1,z,Thu Apr 03 2025 18:04:31 GMT-0500 (Central Daylight Time),385272.8999999985,copper,900,I,z,z,None,792,593.0,199.0,14,1,2228.7999999970198,383044.1000000015,8037,cherry,NF,C,350062,350062,348433,349346,348434,350662,349863,349863,350662,56
57,test,1,inc,1,z,Thu Apr 03 2025 18:04:31 GMT-0500 (Central Daylight Time),387322.299999997,bronze,800,I,z,z,None,707,507.0,200.0,13,1,2045.5,385276.799999997,8037,cherry,NF,C,352195,352195,350666,351478,350666,352711,351995,351995,352711,57
58,test,1,con,1,z,Thu Apr 03 2025 18:04:31 GMT-0500 (Central Daylight Time),389371.5,raisin,900,I,z,z,None,613,414.0,199.0,26,1,2045.3000000044703,387326.19999999553,8037,raisin,NF,C,354344,354344,352715,353628,352715,354761,354145,354145,354761,58
59,test,1,con,1,m,Thu Apr 03 2025 18:04:31 GMT-0500 (Central Daylight Time),391521.0,cobalt,1000,I,m,m,None,600,400.0,200.0,91,1,2145.89999999851,389375.1000000015,8037,cobalt,NF,C,356494,356494,354764,355777,354764,356910,356294,356294,356910,59
60,test,1,con,1,z,Thu Apr 03 2025 18:04:31 GMT-0500 (Central Daylight Time),393703.5,kiwi,1000,I,z,z,None,643,443.0,200.0,51,1,2178.5,391525.0,8037,kiwi,NF,C,358643,358643,356914,357927,356914,359093,358443,358443,359092,60
61,test,1,con,1,z,Thu Apr 03 2025 18:04:31 GMT-0500 (Central Daylight Time),395569.799999997,kiwi,800,I,z,z,None,531,332.0,199.0,49,1,1862.2999999970198,393707.5,8037,kiwi,NF,C,360626,360626,359097,359909,359097,360959,360426,360426,360959,61
62,test,1,con,1,m,Thu Apr 03 2025 18:04:31 GMT-0500 (Central Daylight Time),397702.5,copper,900,I,m,m,None,693,494.0,199.0,74,1,2128.7000000029802,395573.799999997,8037,copper,NF,C,362592,362592,360963,361875,360963,363092,362392,362392,363091,62
63,test,1,con,1,m,Thu Apr 03 2025 18:04:31 GMT-0500 (Central Daylight Time),399685.19999999553,zinc,900,I,m,m,None,546,346.0,200.0,114,1,1979.0,397706.19999999553,8037,zinc,NF,C,364724,364724,363095,364008,363096,365074,364524,364524,365074,63
64,test,1,inc,1,m,Thu Apr 03 2025 18:04:31 GMT-0500 (Central Daylight Time),401701.1000000015,cherry,900,I,m,m,None,579,379.0,200.0,70,1,2012.1000000014901,399689.0,8037,bronze,NF,C,366707,366707,365078,365991,365078,367090,366507,366507,367090,64
65,test,1,inc,1,m,Thu Apr 03 2025 18:04:31 GMT-0500 (Central Daylight Time),403883.69999999553,plum,1100,I,m,m,None,539,339.0,200.0,104,1,2178.6999999955297,401705.0,8037,gold,NF,C,368923,368923,367094,368206,367094,369273,368723,368723,369273,65
66,test,1,inc,1,m,Thu Apr 03 2025 18:04:31 GMT-0500 (Central Daylight Time),406149.6000000015,plum,1100,I,m,m,None,627,428.0,199.0,112,1,2262.10000000149,403887.5,8037,iron,NF,C,371106,371106,369277,370391,369277,371539,370906,370906,371539,66
67,test,1,con,1,m,Thu Apr 03 2025 18:04:31 GMT-0500 (Central Daylight Time),408365.6000000015,iron,1100,I,m,m,None,576,361.0,215.0,108,1,2211.9000000059605,406153.69999999553,8037,iron,NF,C,373389,373389,371543,372655,371543,373755,373173,373173,373755,67
68,test,1,inc,1,z,Thu Apr 03 2025 18:04:31 GMT-0500 (Central Daylight Time),410464.8999999985,iron,900,I,z,z,None,657,458.0,199.0,54,1,2095.5,408369.3999999985,8037,kiwi,NF,C,375388,375388,373758,374671,373759,375854,375188,375188,375854,68
69,test,1,inc,1,m,Thu Apr 03 2025 18:04:31 GMT-0500 (Central Daylight Time),412564.3999999985,cherry,900,I,m,m,None,664,464.0,200.0,86,1,2095.7999999970198,410468.6000000015,8037,silver,NF,C,377487,377487,375858,376771,375858,377953,377287,377287,377953,69
70,test,1,inc,1,m,Thu Apr 03 2025 18:04:31 GMT-0500 (Central Daylight Time),414846.8999999985,plum,1100,I,m,m,None,634,435.0,199.0,120,1,2278.7000000029802,412568.19999999553,8037,zinc,NF,C,379787,379787,377957,379070,377958,380236,379587,379587,380236,70
71,test,1,con,1,m,Thu Apr 03 2025 18:04:31 GMT-0500 (Central Daylight Time),416896.6000000015,bronze,800,I,m,m,None,701,501.0,200.0,65,1,2045.9000000059605,414850.69999999553,8037,bronze,NF,C,381769,381769,380240,381053,380240,382286,381569,381569,382286,71
72,test,1,con,1,z,Thu Apr 03 2025 18:04:31 GMT-0500 (Central Daylight Time),419028.8999999985,pear,1000,I,z,z,None,597,397.0,200.0,43,1,2128.5,416900.3999999985,8037,pear,NF,C,384018,384018,382289,383302,382290,384418,383818,383818,384418,72
73,test,1,con,1,m,Thu Apr 03 2025 18:04:31 GMT-0500 (Central Daylight Time),421028.3999999985,zinc,800,I,m,m,None,655,455.0,200.0,113,1,1995.7000000029802,419032.69999999553,8037,zinc,NF,C,385951,385951,384422,385235,384422,386418,385751,385751,386417,73
74,test,1,con,1,m,Thu Apr 03 2025 18:04:31 GMT-0500 (Central Daylight Time),422960.8999999985,cobalt,800,I,m,m,None,590,391.0,199.0,89,1,1928.8999999985099,421032.0,8037,cobalt,NF,C,387950,387951,386421,387234,386421,388350,387751,387751,388350,74
75,test,1,inc,1,z,Thu Apr 03 2025 18:04:31 GMT-0500 (Central Daylight Time),425160.3999999985,zinc,1000,I,z,z,None,651,451.0,200.0,63,1,2195.60000000149,422964.799999997,8037,plum,NF,C,390083,390083,388354,389367,388354,390549,389883,389883,390549,75
76,test,1,inc,1,z,Thu Apr 03 2025 18:04:31 GMT-0500 (Central Daylight Time),427526.5,zinc,1000,I,z,z,None,819,620.0,199.0,39,1,2362.2000000029802,425164.299999997,8037,lime,NF,C,392282,392282,390553,391566,390554,392916,392083,392083,392915,76
77,test,1,con,1,z,Thu Apr 03 2025 18:04:31 GMT-0500 (Central Daylight Time),429675.6000000015,banana,800,I,z,z,None,685,480.0,205.0,1,1,2145.3000000044703,427530.299999997,8037,banana,NF,C,394582,394582,392919,393732,392920,395065,394376,394376,395065,77
78,test,1,con,1,m,Thu Apr 03 2025 18:04:31 GMT-0500 (Central Daylight Time),432041.69999999553,silver,1100,I,m,m,None,715,516.0,199.0,84,1,2362.1999999955297,429679.5,8037,silver,NF,C,396898,396898,395069,396181,395069,397431,396698,396698,397431,78
79,test,1,inc,1,m,Thu Apr 03 2025 18:04:31 GMT-0500 (Central Daylight Time),434141.1000000015,lime,800,I,m,m,None,754,555.0,199.0,109,1,2095.60000000149,432045.5,8037,iron,NF,C,398964,398964,397435,398247,397435,399530,398764,398764,399530,79
80,test,1,con,1,z,Thu Apr 03 2025 18:04:31 GMT-0500 (Central Daylight Time),436140.299999997,kiwi,900,I,z,z,None,563,363.0,200.0,50,1,1995.3999999985099,434144.8999999985,8037,kiwi,NF,C,401163,401163,399534,400447,399534,401529,400963,400963,401529,80
81,test,1,inc,1,z,Thu Apr 03 2025 18:04:31 GMT-0500 (Central Daylight Time),438139.6000000015,bronze,800,I,z,z,None,663,464.0,199.0,5,1,1995.4000000059605,436144.19999999553,8037,banana,NF,C,403062,403062,401533,402346,401533,403529,402863,402863,403529,81
82,test,1,con,1,z,Thu Apr 03 2025 18:04:31 GMT-0500 (Central Daylight Time),440139.19999999553,orange,800,I,z,z,None,663,464.0,199.0,17,1,1995.6999999955297,438143.5,8037,orange,NF,C,405062,405062,403533,404346,403533,405528,404862,404862,405528,82
83,test,1,inc,1,z,Thu Apr 03 2025 18:04:31 GMT-0500 (Central Daylight Time),442355.1000000015,silver,1000,I,z,z,None,674,474.0,200.0,15,1,2212.2000000029802,440142.8999999985,8037,cherry,NF,C,407261,407261,405532,406545,405532,407744,407061,407061,407744,83
84,test,1,con,1,z,Thu Apr 03 2025 18:04:31 GMT-0500 (Central Daylight Time),444554.299999997,plum,1000,I,z,z,None,657,458.0,199.0,59,1,2195.10000000149,442359.19999999553,8037,plum,NF,C,409477,409477,407748,408761,407749,409943,409278,409278,409943,84
85,test,1,con,1,z,Thu Apr 03 2025 18:04:31 GMT-0500 (Central Daylight Time),446653.799999997,plum,900,I,z,z,None,661,462.0,199.0,58,1,2095.1999999955297,444558.6000000015,8037,plum,NF,C,411576,411576,409948,410860,409948,412043,411377,411377,412043,85
86,test,1,con,1,m,Thu Apr 03 2025 18:04:31 GMT-0500 (Central Daylight Time),448802.8999999985,zinc,1000,I,m,m,None,606,406.0,200.0,115,1,2145.2999999970198,446657.6000000015,8037,zinc,NF,C,413776,413776,412047,413059,412047,414192,413576,413576,414192,86
87,test,1,con,1,z,Thu Apr 03 2025 18:04:31 GMT-0500 (Central Daylight Time),451119.0,orange,900,I,z,z,None,869,669.0,200.0,18,1,2312.10000000149,448806.8999999985,8037,orange,NF,C,415825,415825,414196,415109,414196,416508,415625,415625,416508,87
88,test,1,con,1,m,Thu Apr 03 2025 18:04:31 GMT-0500 (Central Daylight Time),453334.799999997,gold,900,I,m,m,None,766,561.0,205.0,98,1,2212.10000000149,451122.69999999553,8037,gold,NF,C,418158,418158,416512,417425,416512,418724,417952,417952,418724,88
89,test,1,con,1,m,Thu Apr 03 2025 18:04:31 GMT-0500 (Central Daylight Time),456000.6000000015,lead,1100,I,m,m,None,1025,825.0,200.0,124,1,2661.9000000059605,453338.69999999553,8037,lead,NF,C,420557,420557,418728,419841,418728,421390,420357,420357,421390,89
90,test,1,con,1,m,Thu Apr 03 2025 18:04:31 GMT-0500 (Central Daylight Time),458099.69999999553,silver,900,I,m,m,None,655,455.0,200.0,82,1,2095.0999999940395,456004.6000000015,8037,silver,NF,C,423023,423023,421394,422306,421394,423489,422823,422823,423489,90
91,test,1,inc,1,z,Thu Apr 03 2025 18:04:31 GMT-0500 (Central Daylight Time),460266.19999999553,silver,1000,I,z,z,None,624,424.0,200.0,7,1,2161.7999999970198,458104.3999999985,8037,banana,NF,C,425222,425222,423493,424506,423494,425655,425022,425022,425655,91
92,test,1,con,1,m,Thu Apr 03 2025 18:04:31 GMT-0500 (Central Daylight Time),462498.5,iron,1000,I,m,m,None,699,499.0,200.0,107,1,2228.10000000149,460270.3999999985,8037,iron,NF,C,427388,427388,425659,426672,425660,427888,427188,427188,427887,92
93,test,1,con,1,m,Thu Apr 03 2025 18:04:31 GMT-0500 (Central Daylight Time),464481.3999999985,iron,800,I,m,m,None,641,441.0,200.0,105,1,1979.2000000029802,462502.19999999553,8037,iron,NF,C,429421,429421,427891,428705,427892,429870,429221,429221,429870,93
94,test,1,con,1,z,Thu Apr 03 2025 18:04:31 GMT-0500 (Central Daylight Time),466897.6000000015,lime,1100,I,z,z,None,766,567.0,199.0,36,1,2412.5,464485.1000000015,8037,lime,NF,C,431703,431703,429874,430987,429874,432287,431504,431504,432287,94
95,test,1,inc,1,m,Thu Apr 03 2025 18:04:31 GMT-0500 (Central Daylight Time),469013.3999999985,pear,900,I,m,m,None,670,470.0,200.0,102,1,2112.0,466901.3999999985,8037,gold,NF,C,433920,433920,432290,433203,432291,434402,433719,433719,434402,95
96,test,1,inc,1,m,Thu Apr 03 2025 18:04:31 GMT-0500 (Central Daylight Time),471095.8999999985,orange,1000,I,m,m,None,535,336.0,199.0,71,1,2078.7000000029802,469017.19999999553,8037,bronze,NF,C,436135,436135,434406,435419,434406,436485,435936,435936,436485,96
97,test,1,con,1,m,Thu Apr 03 2025 18:04:31 GMT-0500 (Central Daylight Time),473211.8999999985,copper,1000,I,m,m,None,580,380.0,200.0,75,1,2112.0,471099.8999999985,8037,copper,NF,C,438218,438218,436489,437502,436489,438601,438018,438018,438601,97
98,test,1,con,1,z,Thu Apr 03 2025 18:04:31 GMT-0500 (Central Daylight Time),475261.19999999553,plum,800,I,z,z,None,704,504.0,200.0,57,1,2045.3999999985099,473215.799999997,8037,plum,NF,C,440134,440134,438605,439418,438605,440650,439934,439934,440650,98
99,test,1,inc,1,z,Thu Apr 03 2025 18:04:31 GMT-0500 (Central Daylight Time),477344.1000000015,gold,800,I,z,z,None,725,526.0,199.0,45,1,2079.2000000029802,475264.8999999985,8037,pear,NF,C,442200,442200,440654,441495,440654,442733,442001,442001,442733,99
100,test,1,con,1,m,Thu Apr 03 2025 18:04:31 GMT-0500 (Central Daylight Time),479493.299999997,lead,1000,I,m,m,None,604,404.0,200.0,123,1,2145.39999999851,477347.8999999985,8037,lead,NF,C,444466,444466,442737,443750,442737,444882,444266,444266,444882,100
101,test,1,inc,1,m,Thu Apr 03 2025 18:04:31 GMT-0500 (Central Daylight Time),481892.5,raisin,1100,I,m,m,None,762,563.0,199.0,88,1,2395.5,479497.0,8037,silver,NF,C,446716,446716,444886,445999,444886,447282,446516,446516,447281,101
102,test,1,inc,1,z,Thu Apr 03 2025 18:04:31 GMT-0500 (Central Daylight Time),484425.1000000015,lead,1100,I,z,z,None,882,683.0,199.0,64,1,2529.0,481896.1000000015,8037,plum,NF,C,449114,449115,447285,448398,447286,449814,448915,448915,449814,102
103,test,1,inc,1,m,Thu Apr 03 2025 18:04:31 GMT-0500 (Central Daylight Time),486874.3999999985,lime,800,I,m,m,None,1114,915.0,199.0,101,1,2445.7000000029802,484428.69999999553,8037,gold,NF,C,451347,451347,449818,450631,449818,452264,451148,451148,452263,103
104,test,1,inc,1,z,Thu Apr 03 2025 18:04:31 GMT-0500 (Central Daylight Time),489040.299999997,silver,1000,I,z,z,None,617,418.0,199.0,23,1,2162.1999999955297,486878.1000000015,8037,orange,NF,C,453996,453996,452267,453280,452267,454429,453797,453797,454429,104
105,test,1,con,1,z,Thu Apr 03 2025 18:04:31 GMT-0500 (Central Daylight Time),491139.799999997,lime,800,I,z,z,None,764,565.0,199.0,33,1,2095.5,489044.299999997,8037,lime,NF,C,455962,455962,454433,455246,454434,456529,455763,455763,456529,105
106,test,1,con,1,z,Thu Apr 03 2025 18:04:31 GMT-0500 (Central Daylight Time),493322.6000000015,lime,900,I,z,z,None,740,541.0,199.0,34,1,2179.0,491143.6000000015,8037,lime,NF,C,458162,458162,456533,457445,456533,458712,457962,457962,458712,106
107,test,1,con,1,z,Thu Apr 03 2025 18:04:31 GMT-0500 (Central Daylight Time),495555.0,cherry,1000,I,z,z,None,690,491.0,199.0,11,1,2228.5,493326.5,8037,cherry,NF,C,460444,460444,458716,459728,458716,460944,460245,460245,460944,107
108,test,1,inc,1,z,Thu Apr 03 2025 18:04:31 GMT-0500 (Central Daylight Time),497687.6000000015,cobalt,1100,I,z,z,None,484,285.0,199.0,24,1,2128.8000000044703,495558.799999997,8037,orange,NF,C,462777,462777,460948,462061,460948,463077,462578,462578,463077,108
109,test,1,inc,1,m,Thu Apr 03 2025 18:04:31 GMT-0500 (Central Daylight Time),499886.8999999985,kiwi,1000,I,m,m,None,652,355.0,297.0,103,1,2195.2999999970198,497691.6000000015,8037,gold,NF,C,464907,464907,463081,464093,463081,465276,464610,464610,465276,109
110,test,1,inc,1,m,Thu Apr 03 2025 18:04:31 GMT-0500 (Central Daylight Time),501919.799999997,kiwi,1000,I,m,m,None,493,293.0,200.0,119,1,2028.5,499891.299999997,8037,zinc,NF,C,467009,467009,465280,466293,465281,467309,466809,466809,467309,110
111,test,1,inc,1,m,Thu Apr 03 2025 18:04:31 GMT-0500 (Central Daylight Time),504235.5,orange,1000,I,m,m,None,772,573.0,199.0,79,1,2311.39999999851,501924.1000000015,8037,copper,NF,C,469042,469042,467313,468326,467314,469625,468842,468842,469625,111
112,test,1,con,1,z,Thu Apr 03 2025 18:04:31 GMT-0500 (Central Daylight Time),506601.5,orange,1100,I,z,z,None,716,517.0,199.0,20,1,2362.3000000044703,504239.19999999553,8037,orange,NF,C,471458,471458,469628,470741,469629,471991,471258,471258,471991,112
113,test,1,con,1,m,Thu Apr 03 2025 18:04:31 GMT-0500 (Central Daylight Time),509084.19999999553,gold,1100,I,m,m,None,845,646.0,199.0,100,1,2479.1999999955297,506605.0,8037,gold,NF,C,473824,473824,471994,473107,471994,474473,473624,473624,474473,113
114,test,1,inc,1,z,Thu Apr 03 2025 18:04:31 GMT-0500 (Central Daylight Time),511233.5,gold,800,I,z,z,None,815,616.0,199.0,53,1,2145.7000000029802,509087.799999997,8037,kiwi,NF,C,476006,476006,474477,475290,474477,476623,475807,475807,476623,114
115,test,1,inc,1,z,Thu Apr 03 2025 18:04:31 GMT-0500 (Central Daylight Time),513516.19999999553,zinc,1000,I,z,z,None,746,547.0,199.0,55,1,2279.0,511237.19999999553,8037,kiwi,NF,C,478355,478355,476626,477639,476627,478905,478156,478156,478905,115
116,test,1,inc,1,m,Thu Apr 03 2025 18:04:31 GMT-0500 (Central Daylight Time),515715.3999999985,kiwi,1000,I,m,m,None,656,456.0,200.0,111,1,2195.39999999851,513520.0,8037,iron,NF,C,480638,480638,478909,479922,478909,481104,480438,480438,481104,116
117,test,1,inc,1,z,Thu Apr 03 2025 18:04:31 GMT-0500 (Central Daylight Time),517666.19999999553,gold,800,I,z,z,None,599,400.0,199.0,61,1,1947.2999999970198,515718.8999999985,8037,plum,NF,C,482638,482638,481108,481921,481108,483055,482438,482438,483055,117
118,test,1,con,1,z,Thu Apr 03 2025 18:04:31 GMT-0500 (Central Daylight Time),519930.3999999985,pear,1100,I,z,z,None,632,432.0,200.0,44,1,2260.2999999970198,517670.1000000015,8037,pear,NF,C,484887,484887,483059,484170,483059,485320,484687,484687,485319,118
119,test,1,inc,1,m,Thu Apr 03 2025 18:04:31 GMT-0500 (Central Daylight Time),521896.799999997,lime,800,I,m,m,None,617,417.0,200.0,125,1,1962.7999999970198,519934.0,8037,lead,NF,C,486853,486853,485323,486136,485323,487286,486653,486653,487286,119
120,test,1,inc,1,z,Thu Apr 03 2025 18:04:31 GMT-0500 (Central Daylight Time),523896.19999999553,iron,900,I,z,z,None,564,351.0,213.0,46,1,1995.3999999985099,521900.799999997,8037,pear,NF,C,488919,488919,487290,488203,487290,489285,488706,488706,489285,120
121,test,1,con,1,m,Thu Apr 03 2025 18:04:31 GMT-0500 (Central Daylight Time),526178.6999999955,cobalt,1100,I,m,m,None,641,441.0,200.0,92,1,2278.6999999955297,523900.0,8037,cobalt,NF,C,491118,491118,489289,490402,489289,491568,490918,490918,491568,121
121,test,1,con,0,m,Thu Apr 03 2025 18:04:31 GMT-0500 (Central Daylight Time),528361.6000000015,lead,900,I,z,z,None,742,542.0,200.0,122,1,2179.2000000029802,526182.3999999985,8037,lead,NF,C,493201,493201,491571,492485,491572,493751,493001,493001,493751,122
122,test,1,inc,1,z,Thu Apr 03 2025 18:04:31 GMT-0500 (Central Daylight Time),530943.6999999955,lead,1100,I,z,z,None,941,742.0,199.0,40,1,2578.5,528365.1999999955,8037,lime,NF,C,495584,495584,493754,494867,493755,496333,495384,495384,496333,123
123,test,1,con,1,m,Thu Apr 03 2025 18:04:31 GMT-0500 (Central Daylight Time),533126.3999999985,silver,800,I,m,m,None,845,645.0,200.0,81,1,2179.2000000029802,530947.1999999955,8037,silver,NF,C,497866,497866,496336,497150,496337,498515,497666,497666,498515,124
124,test,1,inc,1,z,Thu Apr 03 2025 18:04:31 GMT-0500 (Central Daylight Time),535259.299999997,copper,900,I,z,z,None,689,490.0,199.0,6,1,2129.10000000149,533130.1999999955,8037,banana,NF,C,500149,500149,498519,499432,498520,500648,499949,499949,500648,125
125,test,1,con,1,m,Thu Apr 03 2025 18:04:31 GMT-0500 (Central Daylight Time),537392.1999999955,silver,1000,I,m,m,None,585,386.0,199.0,83,1,2128.7999999970198,535263.3999999985,8037,silver,NF,C,502381,502381,500652,501665,500653,502781,502182,502182,502781,126
126,test,1,con,1,m,Thu Apr 03 2025 18:04:31 GMT-0500 (Central Daylight Time),539507.6999999955,gold,1000,I,m,m,None,580,380.0,200.0,99,1,2111.89999999851,537395.799999997,8037,gold,NF,C,504514,504514,502785,503798,502785,504897,504314,504314,504897,127
127,test,1,con,1,z,Thu Apr 03 2025 18:04:31 GMT-0500 (Central Daylight Time),541690.6000000015,raisin,1000,I,z,z,None,640,440.0,200.0,27,1,2179.10000000149,539511.5,8037,raisin,NF,C,506630,506630,504901,505914,504901,507080,506430,506430,507080,128
