acc_sum,block,block_c,condition,correct,correct_response,datetime,endtime,flanker,jitter,project,response,response_test_buffer_response,response_test_target_response,response_time,response_time_test_buffer_response,response_time_test_target_response,row_sel,session_number,start_end,starttime,subject_id,target,task,task_vers,time_test_buffer,time_test_buffer_response,time_test_constants,time_test_flanker,time_test_jitter,time_test_logger,time_test_target,time_test_target_response,time_test_variables,trial
1,prac,1,con,1,z,Tue Apr 08 2025 14:08:08 GMT-0500 (Central Daylight Time),128131.39999997616,kiwi,1000,I,z,,,227,,,7,2,2494.399999976158,125637.0,8017,kiwi,NF,C,,,,,,,,,,1
2,prac,1,inc,1,z,Tue Apr 08 2025 14:08:08 GMT-0500 (Central Daylight Time),130810.59999996424,iron,900,I,z,,,469,,,6,2,2672.399999976158,128138.19999998808,8017,pear,NF,C,,,,,,,,,,2
3,prac,1,inc,1,m,Tue Apr 08 2025 14:08:08 GMT-0500 (Central Daylight Time),133462.80000001192,pear,900,I,m,,,435,,,14,2,2647.5,130815.30000001192,8017,iron,NF,C,,,,,,,,,,3
4,prac,1,inc,1,m,Tue Apr 08 2025 14:08:08 GMT-0500 (Central Daylight Time),136312.69999998808,raisin,1100,I,m,,,458,,,12,2,2845.800000011921,133466.89999997616,8017,cobalt,NF,C,,,,,,,,,,4
5,prac,1,inc,1,m,Tue Apr 08 2025 14:08:08 GMT-0500 (Central Daylight Time),139127.19999998808,plum,1100,I,m,,,399,,,16,2,2807.899999976158,136319.30000001192,8017,lead,NF,C,,,,,,,,,,5
6,prac,1,inc,1,z,Tue Apr 08 2025 14:08:08 GMT-0500 (Central Daylight Time),142009.59999996424,cobalt,1100,I,z,,,473,,,4,2,2877.699999988079,139131.89999997616,8017,raisin,NF,C,,,,,,,,,,6
7,prac,1,con,1,z,Tue Apr 08 2025 14:08:08 GMT-0500 (Central Daylight Time),144793.39999997616,banana,800,I,z,,,690,,,1,2,2777.300000011921,142016.09999996424,8017,banana,NF,C,,,,,,,,,,7
8,prac,1,con,1,m,Tue Apr 08 2025 14:08:08 GMT-0500 (Central Daylight Time),147326.09999996424,gold,800,I,m,,,417,,,13,2,2526.099999964237,144800.0,8017,gold,NF,C,,,,,,,,,,8
9,prac,1,inc,1,z,Tue Apr 08 2025 14:08:08 GMT-0500 (Central Daylight Time),150207.30000001192,lead,1100,I,z,,,482,,,8,2,2873.5,147333.80000001192,8017,plum,NF,C,,,,,,,,,,9
10,prac,1,con,1,m,Tue Apr 08 2025 14:08:08 GMT-0500 (Central Daylight Time),153057.0,zinc,1000,I,m,,,532,,,15,2,2842.400000035763,150214.59999996424,8017,zinc,NF,C,,,,,,,,,,10
11,prac,1,inc,1,m,Tue Apr 08 2025 14:08:08 GMT-0500 (Central Daylight Time),155855.5,cherry,900,I,m,,,591,,,10,2,2789.900000035763,153065.59999996424,8017,copper,NF,C,,,,,,,,,,11
12,prac,1,inc,1,z,Tue Apr 08 2025 14:08:08 GMT-0500 (Central Daylight Time),158540.19999998808,copper,900,I,z,,,473,,,2,2,2679.100000023842,155861.09999996424,8017,cherry,NF,C,,,,,,,,,,12
13,prac,1,con,1,z,Tue Apr 08 2025 14:08:08 GMT-0500 (Central Daylight Time),161237.69999998808,orange,1000,I,z,,,410,,,3,2,2691.600000023842,158546.09999996424,8017,orange,NF,C,,,,,,,,,,13
14,prac,1,con,1,m,Tue Apr 08 2025 14:08:08 GMT-0500 (Central Daylight Time),163770.89999997616,bronze,800,I,m,,,422,,,9,2,2526.699999988079,161244.19999998808,8017,bronze,NF,C,,,,,,,,,,14
15,prac,1,con,1,m,Tue Apr 08 2025 14:08:08 GMT-0500 (Central Daylight Time),166502.80000001192,silver,1000,I,m,,,432,,,11,2,2725.300000011921,163777.5,8017,silver,NF,C,,,,,,,,,,15
16,prac,1,con,1,z,Tue Apr 08 2025 14:08:08 GMT-0500 (Central Daylight Time),169217.09999996424,lime,800,I,z,,,617,,,5,2,2708.699999988079,166508.39999997616,8017,lime,NF,C,,,,,,,,,,16
1,test,1,inc,1,m,Tue Apr 08 2025 14:08:08 GMT-0500 (Central Daylight Time),189926.19999998808,kiwi,1000,I,m,m,None,399,199.0,200.0,119,2,1942.199999988079,187984.0,8017,zinc,NF,C,186472,186472,184742,185753,184742,186684,186271,186271,186684,1
2,test,1,inc,1,z,Tue Apr 08 2025 14:08:08 GMT-0500 (Central Daylight Time),191962.0,zinc,1000,I,z,z,None,499,300.0,199.0,39,2,2030.300000011921,189931.69999998808,8017,lime,NF,C,188419,188419,186690,187703,186690,188720,188219,188219,188720,2
3,test,1,con,1,m,Tue Apr 08 2025 14:08:08 GMT-0500 (Central Daylight Time),193826.89999997616,silver,800,I,m,m,None,516,316.0,200.0,81,2,1860.300000011921,191966.59999996424,8017,silver,NF,C,190252,190252,188725,189536,188725,190585,190051,190051,190585,3
4,test,1,inc,1,z,Tue Apr 08 2025 14:08:08 GMT-0500 (Central Daylight Time),195793.39999997616,iron,900,I,z,z,None,532,332.0,200.0,62,2,1961.0999999642372,193832.30000001192,8017,plum,NF,C,192219,192219,190590,191504,190591,192551,192018,192018,192551,4
5,test,1,con,1,m,Tue Apr 08 2025 14:08:08 GMT-0500 (Central Daylight Time),197642.5,cobalt,900,I,m,m,None,408,209.0,199.0,90,2,1844.300000011921,195798.19999998808,8017,cobalt,NF,C,194183,194183,192556,193467,192557,194401,193984,193984,194401,5
6,test,1,con,1,z,Tue Apr 08 2025 14:08:08 GMT-0500 (Central Daylight Time),199573.80000001192,cherry,1000,I,z,z,None,394,179.0,215.0,11,2,1926.6000000238419,197647.19999998808,8017,cherry,NF,C,196149,196149,194405,195417,194406,196332,195933,195933,196332,6
7,test,1,inc,1,m,Tue Apr 08 2025 14:08:08 GMT-0500 (Central Daylight Time),201574.09999996424,kiwi,1000,I,m,m,None,452,253.0,199.0,103,2,1995.8999999761581,199578.19999998808,8017,gold,NF,C,198066,198066,196336,197350,196337,198332,197866,197866,198332,7
8,test,1,inc,1,m,Tue Apr 08 2025 14:08:08 GMT-0500 (Central Daylight Time),203507.39999997616,pear,900,I,m,m,None,490,274.0,216.0,118,2,1927.699999988079,201579.69999998808,8017,zinc,NF,C,199982,199982,198338,199249,198338,200265,199766,199766,200265,8
9,test,1,con,1,z,Tue Apr 08 2025 14:08:08 GMT-0500 (Central Daylight Time),205438.89999997616,orange,900,I,z,z,None,493,294.0,199.0,18,2,1926.5,203512.39999997616,8017,orange,NF,C,201897,201897,200270,201183,200271,202197,201698,201698,202197,9
10,test,1,con,1,m,Tue Apr 08 2025 14:08:08 GMT-0500 (Central Daylight Time),207272.19999998808,zinc,800,I,m,m,None,492,277.0,215.0,113,2,1829.5,205442.69999998808,8017,zinc,NF,C,203746,203746,202201,203015,202201,204030,203530,203531,204030,10
10,test,1,inc,0,m,Tue Apr 08 2025 14:08:08 GMT-0500 (Central Daylight Time),209305.19999998808,orange,1000,I,z,z,None,492,291.0,201.0,87,2,2028.6000000238419,207276.59999996424,8017,silver,NF,C,205764,205764,204035,205049,204035,206063,205563,205563,206063,11
11,test,1,inc,1,m,Tue Apr 08 2025 14:08:08 GMT-0500 (Central Daylight Time),211305.69999998808,cherry,900,I,m,m,None,581,382.0,199.0,86,2,1996.199999988079,209309.5,8017,silver,NF,C,207681,207681,206068,206979,206068,208064,207481,207481,208064,12
12,test,1,inc,1,z,Tue Apr 08 2025 14:08:08 GMT-0500 (Central Daylight Time),213355.09999996424,iron,900,I,z,z,None,608,408.0,200.0,54,2,2044.699999988079,211310.39999997616,8017,kiwi,NF,C,209696,209696,208068,208979,208069,210113,209496,209496,210113,13
13,test,1,inc,1,z,Tue Apr 08 2025 14:08:08 GMT-0500 (Central Daylight Time),215468.69999998808,silver,1000,I,z,z,None,582,382.0,200.0,23,2,2109.300000011921,213359.39999997616,8017,orange,NF,C,211845,211845,210117,211128,210118,212227,211644,211644,212227,14
14,test,1,inc,1,m,Tue Apr 08 2025 14:08:08 GMT-0500 (Central Daylight Time),217603.89999997616,raisin,1100,I,m,m,None,501,301.0,200.0,72,2,2130.800000011921,215473.09999996424,8017,bronze,NF,C,214061,214061,212231,213346,212231,214362,213861,213861,214362,15
15,test,1,inc,1,m,Tue Apr 08 2025 14:08:08 GMT-0500 (Central Daylight Time),219552.89999997616,cherry,900,I,m,m,None,503,304.0,199.0,78,2,1944.199999988079,217608.69999998808,8017,copper,NF,C,215994,215994,214367,215278,214367,216311,215795,215795,216311,16
16,test,1,inc,1,z,Tue Apr 08 2025 14:08:08 GMT-0500 (Central Daylight Time),221435.59999996424,bronze,800,I,z,z,None,549,350.0,199.0,29,2,1878.0999999642372,219557.5,8017,raisin,NF,C,217843,217843,216316,217126,216316,218194,217643,217643,218194,17
17,test,1,con,1,m,Tue Apr 08 2025 14:08:08 GMT-0500 (Central Daylight Time),223684.69999998808,zinc,1000,I,m,m,None,716,516.0,200.0,115,2,2243.0,221441.69999998808,8017,zinc,NF,C,219926,219926,218200,219210,218200,220443,219725,219725,220443,18
18,test,1,inc,1,z,Tue Apr 08 2025 14:08:08 GMT-0500 (Central Daylight Time),225851.09999996424,copper,900,I,z,z,None,725,526.0,199.0,30,2,2162.099999964237,223689.0,8017,raisin,NF,C,222074,222074,220447,221359,220447,222609,221875,221875,222609,19
19,test,1,con,1,z,Tue Apr 08 2025 14:08:08 GMT-0500 (Central Daylight Time),227765.30000001192,cherry,800,I,z,z,None,570,355.0,215.0,9,2,1909.300000011921,225856.0,8017,cherry,NF,C,224157,224157,222614,223425,222614,224523,223942,223942,224523,20
20,test,1,con,1,m,Tue Apr 08 2025 14:08:08 GMT-0500 (Central Daylight Time),229816.30000001192,zinc,900,I,m,m,None,609,394.0,215.0,114,2,2047.1000000238419,227769.19999998808,8017,zinc,NF,C,226174,226174,224527,225441,224528,226574,225958,225958,226574,21
21,test,1,inc,1,m,Tue Apr 08 2025 14:08:08 GMT-0500 (Central Daylight Time),231898.69999998808,banana,800,I,m,m,None,731,515.0,216.0,85,2,2077.600000023842,229821.09999996424,8017,silver,NF,C,228124,228124,226579,227391,226580,228657,227907,227907,228657,22
22,test,1,con,1,z,Tue Apr 08 2025 14:08:08 GMT-0500 (Central Daylight Time),234131.80000001192,lime,1100,I,z,z,None,582,382.0,200.0,36,2,2227.0,231904.80000001192,8017,lime,NF,C,230489,230489,228663,229773,228663,230890,230289,230289,230890,23
23,test,1,con,1,m,Tue Apr 08 2025 14:08:08 GMT-0500 (Central Daylight Time),236212.5,iron,1000,I,m,m,None,546,347.0,199.0,107,2,2075.900000035763,234136.59999996424,8017,iron,NF,C,232620,232620,230895,231904,230895,232971,232421,232421,232971,24
24,test,1,con,1,m,Tue Apr 08 2025 14:08:08 GMT-0500 (Central Daylight Time),238428.69999998808,zinc,1100,I,m,m,None,570,370.0,200.0,116,2,2213.0,236215.69999998808,8017,zinc,NF,C,234805,234805,232974,234088,232974,235187,234604,234604,235187,25
25,test,1,inc,1,m,Tue Apr 08 2025 14:08:08 GMT-0500 (Central Daylight Time),240644.59999996424,orange,1000,I,m,m,None,670,470.0,200.0,79,2,2211.399999976158,238433.19999998808,8017,copper,NF,C,236921,236921,235191,236204,235191,237403,236721,236721,237403,26
26,test,1,inc,1,z,Tue Apr 08 2025 14:08:08 GMT-0500 (Central Daylight Time),242545.39999997616,bronze,800,I,z,z,None,566,367.0,199.0,21,2,1896.300000011921,240649.09999996424,8017,orange,NF,C,238920,238920,237407,238219,237407,239304,238721,238721,239303,27
27,test,1,inc,1,z,Tue Apr 08 2025 14:08:08 GMT-0500 (Central Daylight Time),244628.69999998808,iron,900,I,z,z,None,651,450.0,201.0,46,2,2078.0,242550.69999998808,8017,pear,NF,C,240936,240936,239309,240219,239309,241387,240735,240735,241387,28
27,test,1,inc,0,z,Tue Apr 08 2025 14:08:08 GMT-0500 (Central Daylight Time),246726.09999996424,lead,1100,I,m,m,None,453,237.0,216.0,56,2,2092.0,244634.09999996424,8017,kiwi,NF,C,243235,243235,241392,242502,241393,243484,243019,243019,243484,29
28,test,1,con,1,m,Tue Apr 08 2025 14:08:08 GMT-0500 (Central Daylight Time),248759.09999996424,bronze,1000,I,m,m,None,486,286.0,200.0,67,2,2027.7999999523163,246731.30000001192,8017,bronze,NF,C,245218,245218,243489,244502,243490,245517,245017,245017,245517,30
29,test,1,inc,1,m,Tue Apr 08 2025 14:08:08 GMT-0500 (Central Daylight Time),250840.09999996424,orange,1000,I,m,m,None,541,341.0,200.0,95,2,2077.099999964237,248763.0,8017,cobalt,NF,C,247250,247250,245521,246534,245521,247598,247050,247050,247598,31
30,test,1,con,1,m,Tue Apr 08 2025 14:08:08 GMT-0500 (Central Daylight Time),253091.89999997616,gold,1100,I,m,m,None,617,418.0,199.0,100,2,2249.099999964237,250842.80000001192,8017,gold,NF,C,249432,249432,247601,248716,247601,249850,249233,249233,249850,32
31,test,1,inc,1,z,Tue Apr 08 2025 14:08:08 GMT-0500 (Central Daylight Time),255339.69999998808,cobalt,1100,I,z,z,None,614,399.0,215.0,24,2,2241.600000023842,253098.09999996424,8017,orange,NF,C,251698,251698,249856,250967,249856,252098,251483,251483,252098,33
32,test,1,inc,1,m,Tue Apr 08 2025 14:08:08 GMT-0500 (Central Daylight Time),257438.30000001192,cherry,900,I,m,m,None,651,451.0,200.0,70,2,2095.100000023842,255343.19999998808,8017,bronze,NF,C,253732,253732,252101,253018,252102,254196,253531,253531,254196,34
33,test,1,con,1,z,Tue Apr 08 2025 14:08:08 GMT-0500 (Central Daylight Time),259772.19999998808,plum,1100,I,z,z,None,688,488.0,200.0,60,2,2327.5,257444.69999998808,8017,plum,NF,C,256032,256032,254203,255316,254203,256530,255831,255831,256530,35
34,test,1,con,1,m,Tue Apr 08 2025 14:08:08 GMT-0500 (Central Daylight Time),261888.19999998808,cobalt,1100,I,m,m,None,477,277.0,200.0,92,2,2110.399999976158,259777.80000001192,8017,cobalt,NF,C,258363,258363,256536,257648,256536,258646,258163,258163,258646,36
35,test,1,inc,1,z,Tue Apr 08 2025 14:08:08 GMT-0500 (Central Daylight Time),264036.8000000119,zinc,1000,I,z,z,None,603,403.0,200.0,47,2,2144.600000023842,261892.19999998808,8017,pear,NF,C,260380,260380,258650,259664,258651,260795,260180,260180,260795,37
36,test,1,con,1,m,Tue Apr 08 2025 14:08:08 GMT-0500 (Central Daylight Time),265920.89999997616,bronze,800,I,m,m,None,533,334.0,199.0,65,2,1877.8999999761581,264043.0,8017,bronze,NF,C,262329,262329,260801,261612,260801,262679,262130,262130,262679,38
37,test,1,inc,1,m,Tue Apr 08 2025 14:08:08 GMT-0500 (Central Daylight Time),267736.6999999881,lime,800,I,m,m,None,476,275.0,201.0,101,2,1812.1000000238419,265924.59999996424,8017,gold,NF,C,264213,264213,262683,263495,262683,264495,264011,264011,264495,39
38,test,1,con,1,z,Tue Apr 08 2025 14:08:08 GMT-0500 (Central Daylight Time),269819.89999997616,raisin,1100,I,z,z,None,439,239.0,200.0,28,2,2077.399999976158,267742.5,8017,raisin,NF,C,266328,266328,264501,265612,264501,266578,266128,266128,266578,40
39,test,1,con,1,z,Tue Apr 08 2025 14:08:08 GMT-0500 (Central Daylight Time),271684.0,kiwi,900,I,z,z,None,445,245.0,200.0,50,2,1857.9000000357628,269826.09999996424,8017,kiwi,NF,C,268194,268194,266584,267493,266585,268442,267994,267994,268442,41
40,test,1,inc,1,z,Tue Apr 08 2025 14:08:08 GMT-0500 (Central Daylight Time),273651.39999997616,silver,1000,I,z,z,None,421,222.0,199.0,15,2,1963.300000011921,271688.09999996424,8017,cherry,NF,C,270177,270177,268446,269461,268447,270409,269977,269977,270409,42
41,test,1,inc,1,m,Tue Apr 08 2025 14:08:08 GMT-0500 (Central Daylight Time),275734.1999999881,orange,1000,I,m,m,None,544,329.0,215.0,71,2,2079.0,273655.1999999881,8017,bronze,NF,C,272159,272159,270413,271425,270413,272492,271943,271943,272492,43
42,test,1,inc,1,m,Tue Apr 08 2025 14:08:08 GMT-0500 (Central Daylight Time),277849.8000000119,banana,800,I,m,m,None,783,583.0,200.0,93,2,2111.800000011921,275738.0,8017,cobalt,NF,C,274009,274009,272496,273308,272496,274608,273809,273809,274608,44
43,test,1,con,1,z,Tue Apr 08 2025 14:08:08 GMT-0500 (Central Daylight Time),279831.09999996424,plum,900,I,z,z,None,551,351.0,200.0,58,2,1977.2999999523163,277853.8000000119,8017,plum,NF,C,276225,276225,274612,275524,274612,276589,276025,276025,276589,45
44,test,1,inc,1,z,Tue Apr 08 2025 14:08:08 GMT-0500 (Central Daylight Time),281898.8000000119,silver,1000,I,z,z,None,522,308.0,214.0,31,2,2064.5,279834.3000000119,8017,raisin,NF,C,278340,278340,276592,277608,276593,278657,278125,278125,278657,46
45,test,1,inc,1,m,Tue Apr 08 2025 14:08:08 GMT-0500 (Central Daylight Time),284046.5,plum,1100,I,m,m,None,508,309.0,199.0,128,2,2142.199999988079,281904.3000000119,8017,lead,NF,C,280490,280490,278662,279774,278663,280805,280291,280291,280805,47
46,test,1,con,1,m,Tue Apr 08 2025 14:08:08 GMT-0500 (Central Daylight Time),286063.1999999881,gold,800,I,m,m,None,682,467.0,215.0,97,2,2012.800000011921,284050.39999997616,8017,gold,NF,C,282340,282340,280808,281622,280809,282821,282124,282124,282821,48
47,test,1,con,1,m,Tue Apr 08 2025 14:08:08 GMT-0500 (Central Daylight Time),287896.0,gold,900,I,m,m,None,392,191.0,201.0,98,2,1828.800000011921,286067.1999999881,8017,gold,NF,C,284457,284457,282825,283738,282826,284654,284255,284255,284654,49
48,test,1,inc,1,z,Tue Apr 08 2025 14:08:08 GMT-0500 (Central Daylight Time),289811.39999997616,gold,800,I,z,z,None,569,354.0,215.0,53,2,1909.699999988079,287901.6999999881,8017,kiwi,NF,C,286205,286205,284660,285472,284660,286569,285990,285990,286569,50
49,test,1,inc,1,z,Tue Apr 08 2025 14:08:08 GMT-0500 (Central Daylight Time),291563.39999997616,gold,800,I,z,z,None,416,213.0,203.0,37,2,1746.199999988079,289817.1999999881,8017,lime,NF,C,288108,288108,286575,287389,286576,288321,287904,287904,288321,51
50,test,1,con,1,z,Tue Apr 08 2025 14:08:08 GMT-0500 (Central Daylight Time),293862.0,pear,1100,I,z,z,None,649,450.0,199.0,44,2,2293.300000011921,291568.6999999881,8017,pear,NF,C,290154,290154,288327,289438,288327,290620,289954,289954,290620,52
51,test,1,con,1,z,Tue Apr 08 2025 14:08:08 GMT-0500 (Central Daylight Time),295677.3000000119,banana,800,I,z,z,None,479,278.0,201.0,1,2,1808.7000000476837,293868.59999996424,8017,banana,NF,C,292153,292154,290627,291438,290627,292435,291952,291952,292435,53
52,test,1,con,1,z,Tue Apr 08 2025 14:08:08 GMT-0500 (Central Daylight Time),297560.6999999881,banana,900,I,z,z,None,432,233.0,199.0,2,2,1879.0,295681.6999999881,8017,banana,NF,C,294070,294070,292440,293353,292440,294319,293870,293870,294319,54
53,test,1,con,1,z,Tue Apr 08 2025 14:08:08 GMT-0500 (Central Daylight Time),299527.39999997616,plum,1000,I,z,z,None,427,228.0,199.0,59,2,1961.5,297565.89999997616,8017,plum,NF,C,296052,296052,294324,295334,294324,296286,295852,295852,296285,55
54,test,1,con,1,z,Tue Apr 08 2025 14:08:08 GMT-0500 (Central Daylight Time),301491.5,pear,1000,I,z,z,None,419,205.0,214.0,43,2,1959.4000000357628,299532.09999996424,8017,pear,NF,C,298034,298034,296290,297300,296290,298250,297819,297819,298249,56
54,test,1,con,0,m,Tue Apr 08 2025 14:08:08 GMT-0500 (Central Daylight Time),303441.6999999881,cobalt,1000,I,z,z,None,408,207.0,201.0,91,2,1945.1000000238419,301496.59999996424,8017,cobalt,NF,C,299985,299985,298255,299269,298255,300200,299784,299784,300200,57
55,test,1,con,1,m,Tue Apr 08 2025 14:08:08 GMT-0500 (Central Daylight Time),305358.5,copper,1000,I,m,m,None,377,163.0,214.0,75,2,1912.1000000238419,303446.39999997616,8017,copper,NF,C,301949,301949,300204,301218,300205,302117,301734,301734,302117,58
56,test,1,inc,1,z,Tue Apr 08 2025 14:08:08 GMT-0500 (Central Daylight Time),307508.0,copper,900,I,z,z,None,715,516.0,199.0,6,2,2145.900000035763,305362.09999996424,8017,banana,NF,C,303749,303749,302120,303035,302120,304266,303550,303550,304266,59
57,test,1,inc,1,m,Tue Apr 08 2025 14:08:08 GMT-0500 (Central Daylight Time),309456.5,banana,800,I,m,m,None,624,409.0,215.0,77,2,1943.5,307513.0,8017,copper,NF,C,305799,305799,304271,305082,304271,306215,305583,305583,306214,60
58,test,1,con,1,z,Tue Apr 08 2025 14:08:08 GMT-0500 (Central Daylight Time),311672.09999996424,lime,1000,I,z,z,None,683,468.0,215.0,35,2,2211.199999988079,309460.89999997616,8017,lime,NF,C,307947,307947,306219,307231,306219,308430,307732,307732,308430,61
59,test,1,con,1,m,Tue Apr 08 2025 14:08:08 GMT-0500 (Central Daylight Time),313639.1999999881,copper,800,I,m,m,None,628,413.0,215.0,73,2,1961.800000011921,311677.39999997616,8017,copper,NF,C,309979,309979,308435,309247,308436,310397,309764,309764,310397,62
60,test,1,con,1,m,Tue Apr 08 2025 14:08:08 GMT-0500 (Central Daylight Time),315703.59999996424,iron,1100,I,m,m,None,426,209.0,217.0,108,2,2060.199999988079,313643.39999997616,8017,iron,NF,C,312247,312247,310401,311514,310402,312462,312030,312030,312462,63
61,test,1,inc,1,m,Tue Apr 08 2025 14:08:08 GMT-0500 (Central Daylight Time),317769.6999999881,kiwi,1000,I,m,m,None,525,325.0,200.0,111,2,2061.899999976158,315707.8000000119,8017,iron,NF,C,314195,314195,312466,313480,312466,314528,313995,313995,314528,64
62,test,1,inc,1,m,Tue Apr 08 2025 14:08:08 GMT-0500 (Central Daylight Time),319785.3000000119,pear,900,I,m,m,None,573,373.0,200.0,126,2,2010.1000000238419,317775.1999999881,8017,lead,NF,C,316162,316162,314533,315447,314534,316543,315961,315961,316543,65
63,test,1,inc,1,m,Tue Apr 08 2025 14:08:08 GMT-0500 (Central Daylight Time),322069.3000000119,raisin,1100,I,m,m,None,636,437.0,199.0,88,2,2279.7000000476837,319789.59999996424,8017,silver,NF,C,318378,318378,316548,317662,316548,318827,318179,318179,318827,66
64,test,1,inc,1,m,Tue Apr 08 2025 14:08:08 GMT-0500 (Central Daylight Time),324501.1999999881,plum,1100,I,m,m,None,787,586.0,201.0,120,2,2427.899999976158,322073.3000000119,8017,zinc,NF,C,320661,320661,318831,319944,318832,321259,320460,320460,321259,67
65,test,1,con,1,m,Tue Apr 08 2025 14:08:08 GMT-0500 (Central Daylight Time),326603.09999996424,bronze,1100,I,m,m,None,457,257.0,200.0,68,2,2096.899999976158,324506.1999999881,8017,bronze,NF,C,323093,323093,321264,322378,321265,323361,322892,322892,323361,68
66,test,1,con,1,m,Tue Apr 08 2025 14:08:08 GMT-0500 (Central Daylight Time),328532.89999997616,lead,900,I,m,m,None,511,312.0,199.0,122,2,1927.0,326605.89999997616,8017,lead,NF,C,324976,324976,323364,324275,323364,325291,324777,324777,325291,69
67,test,1,inc,1,z,Tue Apr 08 2025 14:08:08 GMT-0500 (Central Daylight Time),330965.6999999881,zinc,1000,I,z,z,None,894,695.0,199.0,63,2,2428.899999976158,328536.8000000119,8017,plum,NF,C,327025,327025,325295,326310,325295,327724,326825,326826,327724,70
68,test,1,con,1,m,Tue Apr 08 2025 14:08:08 GMT-0500 (Central Daylight Time),332866.09999996424,iron,800,I,m,m,None,559,358.0,201.0,105,2,1896.5999999642372,330969.5,8017,iron,NF,C,329258,329258,327728,328542,327728,329624,329057,329057,329624,71
69,test,1,con,1,m,Tue Apr 08 2025 14:08:08 GMT-0500 (Central Daylight Time),334915.5,silver,1000,I,m,m,None,506,306.0,200.0,83,2,2044.199999988079,332871.3000000119,8017,silver,NF,C,331357,331357,329629,330642,329630,331674,331157,331157,331673,72
70,test,1,con,1,z,Tue Apr 08 2025 14:08:08 GMT-0500 (Central Daylight Time),336865.59999996424,kiwi,1000,I,z,z,None,416,217.0,199.0,51,2,1946.0999999642372,334919.5,8017,kiwi,NF,C,333390,333390,331678,332690,331678,333624,333191,333191,333624,73
71,test,1,inc,1,z,Tue Apr 08 2025 14:08:08 GMT-0500 (Central Daylight Time),338713.3000000119,gold,800,I,z,z,None,502,302.0,200.0,61,2,1842.800000011921,336870.5,8017,plum,NF,C,335155,335155,333629,334441,333629,335471,334955,334955,335471,74
72,test,1,con,1,z,Tue Apr 08 2025 14:08:08 GMT-0500 (Central Daylight Time),340629.39999997616,pear,900,I,z,z,None,470,270.0,200.0,42,2,1912.0999999642372,338717.3000000119,8017,pear,NF,C,337105,337105,335475,336389,335476,337388,336905,336905,337387,75
73,test,1,con,1,m,Tue Apr 08 2025 14:08:08 GMT-0500 (Central Daylight Time),342579.39999997616,iron,900,I,m,m,None,506,307.0,199.0,106,2,1943.8999999761581,340635.5,8017,iron,NF,C,339020,339020,337394,338305,337394,339337,338821,338821,339337,76
74,test,1,inc,1,z,Tue Apr 08 2025 14:08:08 GMT-0500 (Central Daylight Time),344778.59999996424,cobalt,1100,I,z,z,None,565,365.0,200.0,8,2,2195.599999964237,342583.0,8017,banana,NF,C,341171,341171,339341,340454,339341,341537,340971,340971,341537,77
75,test,1,inc,1,m,Tue Apr 08 2025 14:08:08 GMT-0500 (Central Daylight Time),346760.59999996424,cherry,900,I,m,m,None,549,349.0,200.0,94,2,1978.3999999761581,344782.1999999881,8017,cobalt,NF,C,343154,343154,341540,342453,341541,343519,342954,342954,343519,78
76,test,1,inc,1,m,Tue Apr 08 2025 14:08:08 GMT-0500 (Central Daylight Time),349228.3000000119,raisin,1100,I,m,m,None,832,632.0,200.0,96,2,2463.800000011921,346764.5,8017,cobalt,NF,C,345354,345354,343523,344637,343523,345986,345153,345153,345986,79
77,test,1,inc,1,m,Tue Apr 08 2025 14:08:08 GMT-0500 (Central Daylight Time),351310.5,pear,900,I,m,m,None,635,420.0,215.0,110,2,2077.199999988079,349233.3000000119,8017,iron,NF,C,347635,347635,345991,346905,345992,348069,347419,347419,348069,80
78,test,1,inc,1,z,Tue Apr 08 2025 14:08:08 GMT-0500 (Central Daylight Time),353293.09999996424,copper,900,I,z,z,None,550,349.0,201.0,22,2,1977.0999999642372,351316.0,8017,orange,NF,C,349702,349702,348074,348986,348074,350051,349500,349500,350051,81
79,test,1,con,1,z,Tue Apr 08 2025 14:08:08 GMT-0500 (Central Daylight Time),355425.39999997616,banana,1000,I,z,z,None,598,399.0,199.0,3,2,2127.199999988079,353298.1999999881,8017,banana,NF,C,351784,351784,350056,351068,350057,352183,351585,351585,352183,82
80,test,1,con,1,z,Tue Apr 08 2025 14:08:08 GMT-0500 (Central Daylight Time),357475.39999997616,raisin,1000,I,z,z,None,516,316.0,200.0,27,2,2046.5999999642372,355428.8000000119,8017,raisin,NF,C,353917,353917,352187,353201,352187,354233,353717,353717,354233,83
81,test,1,con,1,z,Tue Apr 08 2025 14:08:08 GMT-0500 (Central Daylight Time),359206.59999996424,lime,800,I,z,z,None,393,194.0,199.0,33,2,1726.0,357480.59999996424,8017,lime,NF,C,355766,355766,354239,355051,354239,355965,355567,355567,355965,84
82,test,1,con,1,z,Tue Apr 08 2025 14:08:08 GMT-0500 (Central Daylight Time),361274.0,orange,1100,I,z,z,None,424,225.0,199.0,20,2,2062.300000011921,359211.6999999881,8017,orange,NF,C,357799,357799,355970,357082,355970,358032,357599,357599,358032,85
83,test,1,inc,1,m,Tue Apr 08 2025 14:08:08 GMT-0500 (Central Daylight Time),363356.59999996424,kiwi,1000,I,m,m,None,554,339.0,215.0,127,2,2078.699999988079,361277.89999997616,8017,lead,NF,C,359765,359765,358036,359048,358036,360115,359550,359550,360115,86
84,test,1,inc,1,m,Tue Apr 08 2025 14:08:08 GMT-0500 (Central Daylight Time),365371.8000000119,banana,800,I,m,m,None,688,474.0,214.0,69,2,2010.7000000476837,363361.09999996424,8017,bronze,NF,C,361646,361646,360119,360930,360120,362130,361432,361432,362130,87
85,test,1,inc,1,m,Tue Apr 08 2025 14:08:08 GMT-0500 (Central Daylight Time),367555.89999997616,pear,900,I,m,m,None,749,534.0,215.0,102,2,2178.0,365377.89999997616,8017,gold,NF,C,363780,363780,362136,363049,362136,364314,363563,363564,364314,88
86,test,1,con,1,z,Tue Apr 08 2025 14:08:08 GMT-0500 (Central Daylight Time),369703.59999996424,kiwi,1100,I,z,z,None,500,300.0,200.0,52,2,2142.099999964237,367561.5,8017,kiwi,NF,C,366147,366147,364320,365430,364320,366462,365947,365947,366462,89
87,test,1,inc,1,z,Tue Apr 08 2025 14:08:08 GMT-0500 (Central Daylight Time),371751.59999996424,copper,900,I,z,z,None,624,425.0,199.0,14,2,2042.7999999523163,369708.8000000119,8017,cherry,NF,C,368079,368079,366467,367379,366467,368510,367880,367880,368510,90
88,test,1,con,1,m,Tue Apr 08 2025 14:08:08 GMT-0500 (Central Daylight Time),373934.59999996424,copper,1100,I,m,m,None,550,350.0,200.0,76,2,2179.599999964237,371755.0,8017,copper,NF,C,370329,370329,368513,369627,368513,370693,370129,370129,370693,91
89,test,1,con,1,z,Tue Apr 08 2025 14:08:08 GMT-0500 (Central Daylight Time),376467.89999997616,banana,1100,I,z,z,None,898,698.0,200.0,4,2,2529.199999988079,373938.6999999881,8017,banana,NF,C,372527,372528,370697,371810,370697,373226,372327,372327,373226,92
90,test,1,inc,1,m,Tue Apr 08 2025 14:08:08 GMT-0500 (Central Daylight Time),378668.09999996424,raisin,1100,I,m,m,None,557,356.0,201.0,80,2,2193.899999976158,376474.1999999881,8017,copper,NF,C,375060,375060,373232,374345,373233,375426,374859,374859,375426,93
91,test,1,inc,1,z,Tue Apr 08 2025 14:08:08 GMT-0500 (Central Daylight Time),380967.39999997616,lead,1100,I,z,z,None,650,434.0,216.0,64,2,2295.099999964237,378672.3000000119,8017,plum,NF,C,377277,377277,375430,376543,375431,377725,377060,377060,377725,94
92,test,1,con,1,m,Tue Apr 08 2025 14:08:08 GMT-0500 (Central Daylight Time),383000.39999997616,bronze,900,I,m,m,None,584,384.0,200.0,66,2,2026.800000011921,380973.59999996424,8017,bronze,NF,C,379359,379359,377732,378642,377732,379759,379158,379158,379758,95
93,test,1,con,1,z,Tue Apr 08 2025 14:08:08 GMT-0500 (Central Daylight Time),385083.1999999881,cherry,900,I,z,z,None,647,432.0,215.0,10,2,2073.399999976158,383009.8000000119,8017,cherry,NF,C,381408,381408,379768,380674,379768,381841,381193,381193,381841,96
94,test,1,con,1,z,Tue Apr 08 2025 14:08:08 GMT-0500 (Central Daylight Time),387230.1999999881,cherry,1100,I,z,z,None,501,301.0,200.0,12,2,2141.399999976158,385088.8000000119,8017,cherry,NF,C,383674,383674,381847,382959,381847,383988,383473,383473,383988,97
95,test,1,inc,1,z,Tue Apr 08 2025 14:08:08 GMT-0500 (Central Daylight Time),389414.5,cobalt,1100,I,z,z,None,560,360.0,200.0,32,2,2178.100000023842,387236.39999997616,8017,raisin,NF,C,385808,385808,383994,385106,383995,386173,385607,385607,386172,98
96,test,1,inc,1,z,Tue Apr 08 2025 14:08:08 GMT-0500 (Central Daylight Time),391647.5,lead,1100,I,z,z,None,585,385.0,200.0,48,2,2221.900000035763,389425.59999996424,8017,pear,NF,C,388007,388007,386184,387291,386184,388406,387806,387806,388405,99
97,test,1,con,1,z,Tue Apr 08 2025 14:08:08 GMT-0500 (Central Daylight Time),393496.09999996424,raisin,900,I,z,z,None,414,200.0,214.0,26,2,1839.0999999642372,391657.0,8017,raisin,NF,C,390039,390039,388415,389322,388416,390254,389824,389824,390254,100
98,test,1,con,1,z,Tue Apr 08 2025 14:08:08 GMT-0500 (Central Daylight Time),395245.6999999881,pear,800,I,z,z,None,403,203.0,200.0,41,2,1739.1000000238419,393506.59999996424,8017,pear,NF,C,391789,391789,390265,391071,390265,392004,391588,391588,392004,101
99,test,1,con,1,z,Tue Apr 08 2025 14:08:08 GMT-0500 (Central Daylight Time),397012.1999999881,kiwi,800,I,z,z,None,420,205.0,215.0,49,2,1761.699999988079,395250.5,8017,kiwi,NF,C,393555,393555,392009,392821,392009,393770,393339,393339,393770,102
100,test,1,con,1,z,Tue Apr 08 2025 14:08:08 GMT-0500 (Central Daylight Time),398729.1999999881,plum,800,I,z,z,None,376,174.0,202.0,57,2,1712.1000000238419,397017.09999996424,8017,plum,NF,C,395306,395306,393775,394587,393776,395487,395103,395103,395487,103
101,test,1,inc,1,z,Tue Apr 08 2025 14:08:08 GMT-0500 (Central Daylight Time),400794.3000000119,iron,900,I,z,z,None,632,433.0,199.0,38,2,2056.800000011921,398737.5,8017,lime,NF,C,397119,397119,395496,396404,395496,397552,396920,396920,397552,104
102,test,1,con,1,m,Tue Apr 08 2025 14:08:08 GMT-0500 (Central Daylight Time),402744.3000000119,lead,800,I,m,m,None,608,409.0,199.0,121,2,1942.5,400801.8000000119,8017,lead,NF,C,399087,399087,397560,398370,397560,399502,398887,398887,399502,105
103,test,1,inc,1,z,Tue Apr 08 2025 14:08:08 GMT-0500 (Central Daylight Time),404843.59999996424,silver,1000,I,z,z,None,565,366.0,199.0,7,2,2093.2999999523163,402750.3000000119,8017,banana,NF,C,401235,401235,399508,400519,399509,401602,401035,401035,401602,106
104,test,1,con,1,z,Tue Apr 08 2025 14:08:08 GMT-0500 (Central Daylight Time),406792.1999999881,orange,1000,I,z,z,None,423,209.0,214.0,19,2,1943.199999988079,404849.0,8017,orange,NF,C,403335,403335,401607,402618,401607,403550,403120,403120,403550,107
105,test,1,inc,1,z,Tue Apr 08 2025 14:08:08 GMT-0500 (Central Daylight Time),408707.1999999881,gold,800,I,z,z,None,570,371.0,199.0,45,2,1906.3999999761581,406800.8000000119,8017,pear,NF,C,405084,405084,403559,404368,403559,405465,404884,404884,405465,108
106,test,1,con,1,m,Tue Apr 08 2025 14:08:08 GMT-0500 (Central Daylight Time),411024.39999997616,silver,1100,I,m,m,None,676,477.0,199.0,84,2,2312.399999976158,408712.0,8017,silver,NF,C,407299,407299,405470,406583,405470,407782,407100,407100,407782,109
107,test,1,con,1,z,Tue Apr 08 2025 14:08:08 GMT-0500 (Central Daylight Time),413006.59999996424,orange,800,I,z,z,None,645,445.0,200.0,17,2,1977.5999999642372,411029.0,8017,orange,NF,C,409315,409315,407787,408598,407787,409765,409115,409115,409765,110
108,test,1,con,1,m,Tue Apr 08 2025 14:08:08 GMT-0500 (Central Daylight Time),415272.3000000119,lead,1100,I,m,m,None,615,401.0,214.0,124,2,2258.800000011921,413013.5,8017,lead,NF,C,411615,411615,409772,410883,409772,412030,411400,411400,412030,111
109,test,1,inc,1,z,Tue Apr 08 2025 14:08:08 GMT-0500 (Central Daylight Time),417472.89999997616,lead,1100,I,z,z,None,558,359.0,199.0,40,2,2195.0,415277.89999997616,8017,lime,NF,C,413865,413865,412036,413148,412036,414231,413665,413665,414231,112
110,test,1,con,1,m,Tue Apr 08 2025 14:08:08 GMT-0500 (Central Daylight Time),419421.3000000119,silver,900,I,m,m,None,513,313.0,200.0,82,2,1942.0,417479.3000000119,8017,silver,NF,C,415863,415863,414237,415147,414238,416179,415663,415663,416179,113
111,test,1,inc,1,z,Tue Apr 08 2025 14:08:08 GMT-0500 (Central Daylight Time),421520.59999996424,zinc,1000,I,z,z,None,556,342.0,214.0,55,2,2094.199999988079,419426.39999997616,8017,kiwi,NF,C,417930,417930,416184,417199,416185,418279,417716,417716,418279,114
112,test,1,inc,1,z,Tue Apr 08 2025 14:08:08 GMT-0500 (Central Daylight Time),423820.09999996424,cobalt,1100,I,z,z,None,656,455.0,201.0,16,2,2293.699999988079,421526.39999997616,8017,cherry,NF,C,420113,420113,418284,419396,418285,420578,419912,419912,420578,115
113,test,1,inc,1,m,Tue Apr 08 2025 14:08:08 GMT-0500 (Central Daylight Time),425969.0,plum,1100,I,m,m,None,508,308.0,200.0,112,2,2144.300000011921,423824.6999999881,8017,iron,NF,C,422412,422412,420583,421694,420583,422727,422211,422211,422727,116
114,test,1,con,1,m,Tue Apr 08 2025 14:08:08 GMT-0500 (Central Daylight Time),427987.1999999881,gold,1000,I,m,m,None,483,284.0,199.0,99,2,2014.0,425973.1999999881,8017,gold,NF,C,424461,424461,422731,423744,422732,424745,424262,424262,424745,117
115,test,1,inc,1,z,Tue Apr 08 2025 14:08:08 GMT-0500 (Central Daylight Time),429967.8000000119,bronze,800,I,z,z,None,633,433.0,200.0,5,2,1976.0,427991.8000000119,8017,banana,NF,C,426278,426278,424750,425561,424750,426726,426077,426077,426726,118
116,test,1,con,1,m,Tue Apr 08 2025 14:08:08 GMT-0500 (Central Daylight Time),431933.0,copper,900,I,m,m,None,526,312.0,214.0,74,2,1960.5,429972.5,8017,copper,NF,C,428376,428376,426731,427643,426731,428691,428162,428162,428691,119
117,test,1,inc,1,z,Tue Apr 08 2025 14:08:08 GMT-0500 (Central Daylight Time),433815.59999996424,bronze,800,I,z,z,None,543,343.0,200.0,13,2,1878.2999999523163,431937.3000000119,8017,cherry,NF,C,430225,430225,428695,429510,428696,430574,430025,430025,430574,120
118,test,1,inc,1,m,Tue Apr 08 2025 14:08:08 GMT-0500 (Central Daylight Time),435983.09999996424,plum,1100,I,m,m,None,527,326.0,201.0,104,2,2162.099999964237,433821.0,8017,gold,NF,C,432410,432410,430579,431692,430579,432741,432208,432208,432741,121
119,test,1,inc,1,m,Tue Apr 08 2025 14:08:08 GMT-0500 (Central Daylight Time),437866.09999996424,lime,800,I,m,m,None,541,341.0,200.0,117,2,1878.5999999642372,435987.5,8017,zinc,NF,C,434275,434275,432746,433558,432746,434624,434075,434075,434624,122
120,test,1,inc,1,m,Tue Apr 08 2025 14:08:08 GMT-0500 (Central Daylight Time),439763.6999999881,lime,800,I,m,m,None,560,346.0,214.0,125,2,1893.199999988079,437870.5,8017,lead,NF,C,436174,436174,434629,435440,434629,436522,435959,435959,436522,123
121,test,1,con,1,z,Tue Apr 08 2025 14:08:08 GMT-0500 (Central Daylight Time),441714.09999996424,raisin,800,I,z,z,None,614,415.0,199.0,25,2,1944.8999999761581,439769.1999999881,8017,raisin,NF,C,438056,438057,436527,437341,436528,438472,437857,437857,438472,124
122,test,1,inc,1,m,Tue Apr 08 2025 14:08:08 GMT-0500 (Central Daylight Time),443680.3000000119,lime,800,I,m,m,None,626,411.0,215.0,109,2,1961.0,441719.3000000119,8017,iron,NF,C,440022,440022,438477,439289,438478,440438,439807,439807,440438,125
123,test,1,con,1,m,Tue Apr 08 2025 14:08:08 GMT-0500 (Central Daylight Time),445646.59999996424,cobalt,800,I,m,m,None,627,428.0,199.0,89,2,1962.0,443684.59999996424,8017,cobalt,NF,C,441972,441972,440443,441256,440443,442405,441772,441772,442405,126
124,test,1,con,1,z,Tue Apr 08 2025 14:08:08 GMT-0500 (Central Daylight Time),447644.5,lime,900,I,z,z,None,562,347.0,215.0,34,2,1993.4000000357628,445651.09999996424,8017,lime,NF,C,444053,444053,442409,443322,442409,444403,443838,443838,444403,127
125,test,1,con,1,m,Tue Apr 08 2025 14:08:08 GMT-0500 (Central Daylight Time),449695.1999999881,lead,1000,I,m,m,None,510,309.0,201.0,123,2,2046.1000000238419,447649.09999996424,8017,lead,NF,C,446139,446139,444407,445421,444407,446453,445937,445937,446453,128
