acc_sum,block,block_c,change,condition,correct,correct_response,datetime,endtime,face,project,response,response_time,row_sel,session_number,start_end,starttime,subject_id,task,task_vers,trial
0,prac,1,,1-Back,,,Mon Jan 27 2025 17:23:50 GMT-0600 (Central Standard Time),,097_m_f_n_a.png,O,space,9414,1,1,,,7041,NNB,B,0
1,prac,1,0.0,1-Back,1,m,Mon Jan 27 2025 17:23:50 GMT-0600 (Central Standard Time),183282.59999999963,152_y_f_n_a.png,O,m,1831,2,1,2690.89999999851,180591.70000000112,7041,NNB,B,1
2,prac,1,1.0,1-Back,1,z,Mon Jan 27 2025 17:23:50 GMT-0600 (Central Standard Time),185082.30000000075,152_y_f_n_a.png,O,z,1024,3,1,1793.9000000003725,183288.40000000037,7041,NNB,B,2
3,prac,1,0.0,1-Back,1,m,Mon Jan 27 2025 17:23:50 GMT-0600 (Central Standard Time),186914.90000000037,176_o_m_n_a.png,O,m,949,4,1,1827.199999999255,185087.70000000112,7041,NNB,B,3
4,prac,1,0.0,1-Back,1,m,Mon Jan 27 2025 17:23:50 GMT-0600 (Central Standard Time),188681.0,126_m_m_n_a.png,O,m,901,5,1,1760.0,186921.0,7041,NNB,B,4
5,prac,1,1.0,1-Back,1,z,Mon Jan 27 2025 17:23:50 GMT-0600 (Central Standard Time),190347.0,126_m_m_n_a.png,O,z,890,6,1,1660.5,188686.5,7041,NNB,B,5
6,prac,1,0.0,1-Back,1,m,Mon Jan 27 2025 17:23:50 GMT-0600 (Central Standard Time),192079.90000000037,086_o_f_n_a.png,O,m,942,7,1,1726.800000000745,190353.09999999963,7041,NNB,B,6
7,prac,1,0.0,1-Back,1,m,Mon Jan 27 2025 17:23:50 GMT-0600 (Central Standard Time),193962.59999999963,178_m_m_n_a.png,O,m,1013,8,1,1876.199999999255,192086.40000000037,7041,NNB,B,7
8,prac,1,0.0,1-Back,1,m,Mon Jan 27 2025 17:23:50 GMT-0600 (Central Standard Time),195728.59999999963,097_m_f_n_a.png,O,m,984,9,1,1760.199999999255,193968.40000000037,7041,NNB,B,8
9,prac,1,1.0,1-Back,1,z,Mon Jan 27 2025 17:23:50 GMT-0600 (Central Standard Time),197129.5,097_m_f_n_a.png,O,z,626,10,1,1394.7999999988824,195734.70000000112,7041,NNB,B,9
10,prac,1,0.0,1-Back,1,m,Mon Jan 27 2025 17:23:50 GMT-0600 (Central Standard Time),198644.5,176_o_m_n_a.png,O,m,729,11,1,1509.0999999996275,197135.40000000037,7041,NNB,B,10
11,prac,1,0.0,1-Back,1,m,Mon Jan 27 2025 17:23:50 GMT-0600 (Central Standard Time),200810.30000000075,173_y_f_n_a.png,O,m,1302,12,1,2160.2000000011176,198650.09999999963,7041,NNB,B,11
0,test,1,0.0,1-Back,,,Mon Jan 27 2025 17:23:50 GMT-0600 (Central Standard Time),200810.30000000075,152_y_f_n_a.png,O,space,9056,1,1,2160.2000000011176,198650.09999999963,7041,NNB,B,0
1,test,1,0.0,1-Back,1,m,Mon Jan 27 2025 17:23:50 GMT-0600 (Central Standard Time),220770.59999999963,029_m_f_n_a.png,O,m,813,2,1,1827.8999999985099,218942.70000000112,7041,NNB,B,1
2,test,1,0.0,1-Back,1,m,Mon Jan 27 2025 17:23:50 GMT-0600 (Central Standard Time),222653.59999999963,173_y_f_n_a.png,O,m,836,3,1,1878.8999999985099,220774.70000000112,7041,NNB,B,2
3,test,1,1.0,1-Back,1,z,Mon Jan 27 2025 17:23:50 GMT-0600 (Central Standard Time),224353.09999999963,173_y_f_n_a.png,O,z,674,4,1,1696.0,222657.09999999963,7041,NNB,B,3
4,test,1,0.0,1-Back,1,m,Mon Jan 27 2025 17:23:50 GMT-0600 (Central Standard Time),226102.59999999963,029_m_f_n_a.png,O,m,719,5,1,1746.2999999988824,224356.30000000075,7041,NNB,B,4
5,test,1,0.0,1-Back,1,m,Mon Jan 27 2025 17:23:50 GMT-0600 (Central Standard Time),228135.20000000112,176_o_m_n_a.png,O,m,956,6,1,2029.0,226106.20000000112,7041,NNB,B,5
6,test,1,1.0,1-Back,1,z,Mon Jan 27 2025 17:23:50 GMT-0600 (Central Standard Time),229867.90000000037,176_o_m_n_a.png,O,z,704,7,1,1729.300000000745,228138.59999999963,7041,NNB,B,6
7,test,1,0.0,1-Back,1,m,Mon Jan 27 2025 17:23:50 GMT-0600 (Central Standard Time),231617.40000000037,126_m_m_n_a.png,O,m,716,8,1,1745.300000000745,229872.09999999963,7041,NNB,B,7
8,test,1,0.0,1-Back,1,m,Mon Jan 27 2025 17:23:50 GMT-0600 (Central Standard Time),233533.5,086_o_f_n_a.png,O,m,886,9,1,1912.2999999988824,231621.20000000112,7041,NNB,B,8
9,test,1,0.0,1-Back,1,m,Mon Jan 27 2025 17:23:50 GMT-0600 (Central Standard Time),235499.59999999963,126_m_m_n_a.png,O,m,946,10,1,1962.5,233537.09999999963,7041,NNB,B,9
10,test,1,0.0,1-Back,1,m,Mon Jan 27 2025 17:23:50 GMT-0600 (Central Standard Time),237282.30000000075,153_y_m_n_a.png,O,m,764,11,1,1778.5,235503.80000000075,7041,NNB,B,10
11,test,1,1.0,1-Back,1,z,Mon Jan 27 2025 17:23:50 GMT-0600 (Central Standard Time),238898.59999999963,153_y_m_n_a.png,O,z,582,12,1,1612.2999999988824,237286.30000000075,7041,NNB,B,11
12,test,1,0.0,1-Back,1,m,Mon Jan 27 2025 17:23:50 GMT-0600 (Central Standard Time),240647.90000000037,110_o_f_n_a.png,O,m,717,13,1,1746.0,238901.90000000037,7041,NNB,B,12
12,test,1,1.0,1-Back,0,z,Mon Jan 27 2025 17:23:50 GMT-0600 (Central Standard Time),242147.40000000037,110_o_f_n_a.png,O,m,472,14,1,1495.5,240651.90000000037,7041,NNB,B,13
13,test,1,0.0,1-Back,1,m,Mon Jan 27 2025 17:23:50 GMT-0600 (Central Standard Time),244530.30000000075,013_y_m_n_a.png,O,m,1349,15,1,2378.7000000011176,242151.59999999963,7041,NNB,B,14
14,test,1,0.0,1-Back,1,m,Mon Jan 27 2025 17:23:50 GMT-0600 (Central Standard Time),246546.90000000037,097_m_f_n_a.png,O,m,982,16,1,2012.699999999255,244534.20000000112,7041,NNB,B,15
15,test,1,0.0,1-Back,1,m,Mon Jan 27 2025 17:23:50 GMT-0600 (Central Standard Time),248312.09999999963,065_o_m_n_a.png,O,m,725,17,1,1761.7999999988824,246550.30000000075,7041,NNB,B,16
15,test,1,0.0,1-Back,0,m,Mon Jan 27 2025 17:23:50 GMT-0600 (Central Standard Time),250328.20000000112,097_m_f_n_a.png,O,z,975,18,1,2012.1000000014901,248316.09999999963,7041,NNB,B,17
0,test,2,0.0,1-Back,,,Mon Jan 27 2025 17:23:50 GMT-0600 (Central Standard Time),250328.20000000112,126_m_m_n_a.png,O,space,3017,1,1,2012.1000000014901,248316.09999999963,7041,NNB,B,0
1,test,2,0.0,1-Back,1,m,Mon Jan 27 2025 17:23:50 GMT-0600 (Central Standard Time),257492.70000000112,029_m_f_n_a.png,O,m,1095,2,1,2112.2000000011176,255380.5,7041,NNB,B,1
2,test,2,1.0,1-Back,1,z,Mon Jan 27 2025 17:23:50 GMT-0600 (Central Standard Time),259608.59999999963,029_m_f_n_a.png,O,z,1083,3,1,2112.39999999851,257496.20000000112,7041,NNB,B,2
3,test,2,0.0,1-Back,1,m,Mon Jan 27 2025 17:23:50 GMT-0600 (Central Standard Time),261208.09999999963,126_m_m_n_a.png,O,m,575,4,1,1595.0999999996275,259613.0,7041,NNB,B,3
4,test,2,0.0,1-Back,1,m,Mon Jan 27 2025 17:23:50 GMT-0600 (Central Standard Time),263257.5999999996,153_y_m_n_a.png,O,m,1015,5,1,2045.5999999996275,261212.0,7041,NNB,B,4
5,test,2,0.0,1-Back,1,m,Mon Jan 27 2025 17:23:50 GMT-0600 (Central Standard Time),264990.2000000011,152_y_f_n_a.png,O,m,702,6,1,1729.0,263261.2000000011,7041,NNB,B,5
6,test,2,1.0,1-Back,1,z,Mon Jan 27 2025 17:23:50 GMT-0600 (Central Standard Time),266789.80000000075,152_y_f_n_a.png,O,z,769,7,1,1796.0,264993.80000000075,7041,NNB,B,6
7,test,2,0.0,1-Back,1,m,Mon Jan 27 2025 17:23:50 GMT-0600 (Central Standard Time),268655.9000000004,153_y_m_n_a.png,O,m,834,8,1,1862.0999999996275,266793.80000000075,7041,NNB,B,7
8,test,2,0.0,1-Back,1,m,Mon Jan 27 2025 17:23:50 GMT-0600 (Central Standard Time),270472.0,110_o_f_n_a.png,O,m,792,9,1,1812.5999999996275,268659.4000000004,7041,NNB,B,8
9,test,2,0.0,1-Back,1,m,Mon Jan 27 2025 17:23:50 GMT-0600 (Central Standard Time),272221.30000000075,178_m_m_n_a.png,O,m,728,10,1,1745.0999999996275,270476.2000000011,7041,NNB,B,9
10,test,2,1.0,1-Back,1,z,Mon Jan 27 2025 17:23:50 GMT-0600 (Central Standard Time),273787.5999999996,178_m_m_n_a.png,O,z,538,11,1,1562.0999999996275,272225.5,7041,NNB,B,10
11,test,2,0.0,1-Back,1,m,Mon Jan 27 2025 17:23:50 GMT-0600 (Central Standard Time),275570.2000000011,110_o_f_n_a.png,O,m,748,12,1,1778.6000000014901,273791.5999999996,7041,NNB,B,11
12,test,2,0.0,1-Back,1,m,Mon Jan 27 2025 17:23:50 GMT-0600 (Central Standard Time),277436.2000000011,086_o_f_n_a.png,O,m,846,13,1,1862.0,275574.2000000011,7041,NNB,B,12
13,test,2,0.0,1-Back,1,m,Mon Jan 27 2025 17:23:50 GMT-0600 (Central Standard Time),279269.0999999996,176_o_m_n_a.png,O,m,811,14,1,1829.5,277439.5999999996,7041,NNB,B,13
14,test,2,0.0,1-Back,1,m,Mon Jan 27 2025 17:23:50 GMT-0600 (Central Standard Time),280968.7000000011,065_o_m_n_a.png,O,m,675,15,1,1695.9000000003725,279272.80000000075,7041,NNB,B,14
15,test,2,1.0,1-Back,1,z,Mon Jan 27 2025 17:23:50 GMT-0600 (Central Standard Time),282701.5999999996,065_o_m_n_a.png,O,z,703,16,1,1729.199999999255,280972.4000000004,7041,NNB,B,15
16,test,2,0.0,1-Back,1,m,Mon Jan 27 2025 17:23:50 GMT-0600 (Central Standard Time),284652.0,013_y_m_n_a.png,O,m,929,17,1,1946.5999999996275,282705.4000000004,7041,NNB,B,16
17,test,2,1.0,1-Back,1,z,Mon Jan 27 2025 17:23:50 GMT-0600 (Central Standard Time),286683.5,013_y_m_n_a.png,O,z,996,18,1,2028.0,284655.5,7041,NNB,B,17
0,test,3,1.0,1-Back,,,Mon Jan 27 2025 17:23:50 GMT-0600 (Central Standard Time),286683.5,173_y_f_n_a.png,O,space,2357,1,1,2028.0,284655.5,7041,NNB,B,0
1,test,3,0.0,1-Back,1,m,Mon Jan 27 2025 17:23:50 GMT-0600 (Central Standard Time),292981.5999999996,065_o_m_n_a.png,O,m,794,1,1,1828.199999999255,291153.4000000004,7041,NNB,B,1
2,test,3,1.0,1-Back,1,z,Mon Jan 27 2025 17:23:50 GMT-0600 (Central Standard Time),294730.9000000004,065_o_m_n_a.png,O,z,730,1,1,1745.199999999255,292985.7000000011,7041,NNB,B,2
3,test,3,0.0,1-Back,1,m,Mon Jan 27 2025 17:23:50 GMT-0600 (Central Standard Time),296430.4000000004,097_m_f_n_a.png,O,m,677,1,1,1696.0,294734.4000000004,7041,NNB,B,3
4,test,3,1.0,1-Back,1,z,Mon Jan 27 2025 17:23:50 GMT-0600 (Central Standard Time),298146.30000000075,097_m_f_n_a.png,O,z,689,1,1,1711.5,296434.80000000075,7041,NNB,B,4
5,test,3,0.0,1-Back,1,m,Mon Jan 27 2025 17:23:50 GMT-0600 (Central Standard Time),299980.5,110_o_f_n_a.png,O,m,813,1,1,1830.699999999255,298149.80000000075,7041,NNB,B,5
6,test,3,0.0,1-Back,1,m,Mon Jan 27 2025 17:23:50 GMT-0600 (Central Standard Time),301795.5999999996,153_y_m_n_a.png,O,m,788,1,1,1810.8999999985099,299984.7000000011,7041,NNB,B,6
7,test,3,0.0,1-Back,1,m,Mon Jan 27 2025 17:23:50 GMT-0600 (Central Standard Time),303478.30000000075,110_o_f_n_a.png,O,m,660,1,1,1679.5,301798.80000000075,7041,NNB,B,7
8,test,3,0.0,1-Back,1,m,Mon Jan 27 2025 17:23:50 GMT-0600 (Central Standard Time),305094.5999999996,013_y_m_n_a.png,O,m,593,1,1,1612.699999999255,303481.9000000004,7041,NNB,B,8
9,test,3,1.0,1-Back,1,z,Mon Jan 27 2025 17:23:50 GMT-0600 (Central Standard Time),306560.7000000011,013_y_m_n_a.png,O,z,433,1,1,1462.2000000011176,305098.5,7041,NNB,B,9
10,test,3,0.0,1-Back,1,m,Mon Jan 27 2025 17:23:50 GMT-0600 (Central Standard Time),308126.80000000075,029_m_f_n_a.png,O,m,543,1,1,1562.4000000003725,306564.4000000004,7041,NNB,B,10
11,test,3,0.0,1-Back,1,m,Mon Jan 27 2025 17:23:50 GMT-0600 (Central Standard Time),309976.0999999996,152_y_f_n_a.png,O,m,817,1,1,1845.0999999996275,308131.0,7041,NNB,B,11
12,test,3,1.0,1-Back,1,z,Mon Jan 27 2025 17:23:50 GMT-0600 (Central Standard Time),311709.0,152_y_f_n_a.png,O,z,711,1,1,1728.9000000003725,309980.0999999996,7041,NNB,B,12
13,test,3,0.0,1-Back,1,m,Mon Jan 27 2025 17:23:50 GMT-0600 (Central Standard Time),313325.0999999996,029_m_f_n_a.png,O,m,587,1,1,1612.7999999988824,311712.30000000075,7041,NNB,B,13
14,test,3,0.0,1-Back,1,m,Mon Jan 27 2025 17:23:50 GMT-0600 (Central Standard Time),315042.0,126_m_m_n_a.png,O,m,698,1,1,1712.9000000003725,313329.0999999996,7041,NNB,B,14
14,test,3,1.0,1-Back,0,z,Mon Jan 27 2025 17:23:50 GMT-0600 (Central Standard Time),317257.30000000075,126_m_m_n_a.png,O,m,1182,1,1,2211.4000000003725,315045.9000000004,7041,NNB,B,15
15,test,3,0.0,1-Back,1,m,Mon Jan 27 2025 17:23:50 GMT-0600 (Central Standard Time),319040.0999999996,086_o_f_n_a.png,O,m,749,1,1,1778.8999999985099,317261.2000000011,7041,NNB,B,16
16,test,3,1.0,1-Back,1,z,Mon Jan 27 2025 17:23:50 GMT-0600 (Central Standard Time),320706.30000000075,086_o_f_n_a.png,O,z,616,1,1,1663.0999999996275,319043.2000000011,7041,NNB,B,17
0,test,4,1.0,1-Back,,,Mon Jan 27 2025 17:23:50 GMT-0600 (Central Standard Time),320706.30000000075,097_m_f_n_a.png,O,space,1678,1,1,1663.0999999996275,319043.2000000011,7041,NNB,B,0
1,test,4,0.0,1-Back,1,m,Mon Jan 27 2025 17:23:50 GMT-0600 (Central Standard Time),326421.0999999996,065_o_m_n_a.png,O,m,886,2,1,1928.5,324492.5999999996,7041,NNB,B,1
2,test,4,0.0,1-Back,1,m,Mon Jan 27 2025 17:23:50 GMT-0600 (Central Standard Time),328537.2000000011,097_m_f_n_a.png,O,m,1081,3,1,2112.60000000149,326424.5999999996,7041,NNB,B,2
3,test,4,0.0,1-Back,1,m,Mon Jan 27 2025 17:23:50 GMT-0600 (Central Standard Time),330236.7000000011,110_o_f_n_a.png,O,m,662,4,1,1695.300000000745,328541.4000000004,7041,NNB,B,3
3,test,4,1.0,1-Back,0,z,Mon Jan 27 2025 17:23:50 GMT-0600 (Central Standard Time),331969.4000000004,110_o_f_n_a.png,O,m,690,5,1,1728.6000000014901,330240.7999999989,7041,NNB,B,4
4,test,4,0.0,1-Back,1,m,Mon Jan 27 2025 17:23:50 GMT-0600 (Central Standard Time),333652.2000000011,152_y_f_n_a.png,O,m,662,6,1,1679.0,331973.2000000011,7041,NNB,B,5
5,test,4,0.0,1-Back,1,m,Mon Jan 27 2025 17:23:50 GMT-0600 (Central Standard Time),335218.2999999989,153_y_m_n_a.png,O,m,548,7,1,1562.0,333656.2999999989,7041,NNB,B,6
6,test,4,1.0,1-Back,1,z,Mon Jan 27 2025 17:23:50 GMT-0600 (Central Standard Time),336984.50000000186,153_y_m_n_a.png,O,z,741,8,1,1761.0,335223.50000000186,7041,NNB,B,7
7,test,4,0.0,1-Back,1,m,Mon Jan 27 2025 17:23:50 GMT-0600 (Central Standard Time),338683.9000000004,152_y_f_n_a.png,O,m,671,9,1,1696.0,336987.9000000004,7041,NNB,B,8
8,test,4,0.0,1-Back,1,m,Mon Jan 27 2025 17:23:50 GMT-0600 (Central Standard Time),340533.2999999989,178_m_m_n_a.png,O,m,828,10,1,1845.8999999985099,338687.4000000004,7041,NNB,B,9
9,test,4,1.0,1-Back,1,z,Mon Jan 27 2025 17:23:50 GMT-0600 (Central Standard Time),342516.00000000186,178_m_m_n_a.png,O,z,962,11,1,1979.1000000014901,340536.9000000004,7041,NNB,B,10
10,test,4,0.0,1-Back,1,m,Mon Jan 27 2025 17:23:50 GMT-0600 (Central Standard Time),344132.2000000011,086_o_f_n_a.png,O,m,594,12,1,1612.1000000014901,342520.0999999996,7041,NNB,B,11
11,test,4,0.0,1-Back,1,m,Mon Jan 27 2025 17:23:50 GMT-0600 (Central Standard Time),345682.0999999996,176_o_m_n_a.png,O,m,514,13,1,1546.199999999255,344135.9000000004,7041,NNB,B,12
12,test,4,0.0,1-Back,1,m,Mon Jan 27 2025 17:23:50 GMT-0600 (Central Standard Time),347398.00000000186,086_o_f_n_a.png,O,m,686,14,1,1711.5,345686.50000000186,7041,NNB,B,13
13,test,4,0.0,1-Back,1,m,Mon Jan 27 2025 17:23:50 GMT-0600 (Central Standard Time),349030.7000000011,173_y_f_n_a.png,O,m,610,15,1,1628.6000000014901,347402.0999999996,7041,NNB,B,14
14,test,4,1.0,1-Back,1,z,Mon Jan 27 2025 17:23:50 GMT-0600 (Central Standard Time),350480.2999999989,173_y_f_n_a.png,O,z,425,16,1,1446.0999999977648,349034.2000000011,7041,NNB,B,15
15,test,4,0.0,1-Back,1,m,Mon Jan 27 2025 17:23:50 GMT-0600 (Central Standard Time),352113.2000000011,029_m_f_n_a.png,O,m,608,17,1,1629.699999999255,350483.50000000186,7041,NNB,B,16
16,test,4,1.0,1-Back,1,z,Mon Jan 27 2025 17:23:50 GMT-0600 (Central Standard Time),353895.9000000004,029_m_f_n_a.png,O,z,750,18,1,1779.199999999255,352116.7000000011,7041,NNB,B,17
0,test,5,1.0,1-Back,,,Mon Jan 27 2025 17:23:50 GMT-0600 (Central Standard Time),353895.9000000004,176_o_m_n_a.png,O,space,1961,1,1,1779.199999999255,352116.7000000011,7041,NNB,B,0
1,test,5,1.0,1-Back,1,z,Mon Jan 27 2025 17:23:50 GMT-0600 (Central Standard Time),359677.4000000004,176_o_m_n_a.png,O,z,770,2,1,1795.0,357882.4000000004,7041,NNB,B,1
2,test,5,0.0,1-Back,1,m,Mon Jan 27 2025 17:23:50 GMT-0600 (Central Standard Time),361810.2000000011,152_y_f_n_a.png,O,m,1114,3,1,2129.5,359680.7000000011,7041,NNB,B,2
3,test,5,0.0,1-Back,1,m,Mon Jan 27 2025 17:23:50 GMT-0600 (Central Standard Time),363526.4000000004,153_y_m_n_a.png,O,m,693,4,1,1713.0,361813.4000000004,7041,NNB,B,3
4,test,5,0.0,1-Back,1,m,Mon Jan 27 2025 17:23:50 GMT-0600 (Central Standard Time),365208.9000000004,152_y_f_n_a.png,O,m,650,5,1,1679.6000000014901,363529.2999999989,7041,NNB,B,4
5,test,5,0.0,1-Back,1,m,Mon Jan 27 2025 17:23:50 GMT-0600 (Central Standard Time),366808.5999999996,126_m_m_n_a.png,O,m,575,6,1,1595.800000000745,365212.7999999989,7041,NNB,B,5
6,test,5,1.0,1-Back,1,z,Mon Jan 27 2025 17:23:50 GMT-0600 (Central Standard Time),368633.7999999989,126_m_m_n_a.png,O,z,660,7,1,1821.199999999255,366812.5999999996,7041,NNB,B,6
7,test,5,0.0,1-Back,1,m,Mon Jan 27 2025 17:23:50 GMT-0600 (Central Standard Time),370224.2000000011,173_y_f_n_a.png,O,m,567,8,1,1586.199999999255,368638.00000000186,7041,NNB,B,7
8,test,5,0.0,1-Back,1,m,Mon Jan 27 2025 17:23:50 GMT-0600 (Central Standard Time),372490.2999999989,013_y_m_n_a.png,O,m,1247,9,1,2262.0,370228.2999999989,7041,NNB,B,8
9,test,5,0.0,1-Back,1,m,Mon Jan 27 2025 17:23:50 GMT-0600 (Central Standard Time),374406.0999999996,173_y_f_n_a.png,O,m,894,10,1,1912.5,372493.5999999996,7041,NNB,B,9
10,test,5,0.0,1-Back,1,m,Mon Jan 27 2025 17:23:50 GMT-0600 (Central Standard Time),376155.5999999996,086_o_f_n_a.png,O,m,721,11,1,1746.199999999255,374409.4000000004,7041,NNB,B,10
11,test,5,1.0,1-Back,1,z,Mon Jan 27 2025 17:23:50 GMT-0600 (Central Standard Time),377754.7999999989,086_o_f_n_a.png,O,z,580,12,1,1595.7999999970198,376159.00000000186,7041,NNB,B,11
12,test,5,0.0,1-Back,1,m,Mon Jan 27 2025 17:23:50 GMT-0600 (Central Standard Time),379254.7000000011,065_o_m_n_a.png,O,m,477,13,1,1496.5,377758.2000000011,7041,NNB,B,12
12,test,5,0.0,1-Back,0,m,Mon Jan 27 2025 17:23:50 GMT-0600 (Central Standard Time),380903.9000000004,097_m_f_n_a.png,O,z,625,14,1,1645.199999999255,379258.7000000011,7041,NNB,B,13
12,test,5,1.0,1-Back,0,z,Mon Jan 27 2025 17:23:50 GMT-0600 (Central Standard Time),383869.7999999989,097_m_f_n_a.png,O,m,1944,15,1,2961.39999999851,380908.4000000004,7041,NNB,B,14
13,test,5,0.0,1-Back,1,m,Mon Jan 27 2025 17:23:50 GMT-0600 (Central Standard Time),386019.00000000186,065_o_m_n_a.png,O,m,1130,16,1,2145.800000000745,383873.2000000011,7041,NNB,B,15
14,test,5,0.0,1-Back,1,m,Mon Jan 27 2025 17:23:50 GMT-0600 (Central Standard Time),387735.00000000186,029_m_f_n_a.png,O,m,693,17,1,1712.6000000014901,386022.4000000004,7041,NNB,B,16
15,test,5,0.0,1-Back,1,m,Mon Jan 27 2025 17:23:50 GMT-0600 (Central Standard Time),389684.5999999996,178_m_m_n_a.png,O,m,921,18,1,1945.699999999255,387738.9000000004,7041,NNB,B,17
0,prac,1,0.0,2-Back,,,Mon Jan 27 2025 17:23:50 GMT-0600 (Central Standard Time),389684.5999999996,013_y_m_n_a.png,O,space,6400,1,1,1945.699999999255,387738.9000000004,7041,NNB,B,0
0,prac,1,0.0,2-Back,,,Mon Jan 27 2025 17:23:50 GMT-0600 (Central Standard Time),389684.5999999996,029_m_f_n_a.png,O,space,6400,2,1,1945.699999999255,387738.9000000004,7041,NNB,B,0
1,prac,1,1.0,2-Back,1,m,Mon Jan 27 2025 17:23:50 GMT-0600 (Central Standard Time),480789.9000000004,065_o_m_n_a.png,O,m,1150,3,1,2027.0,478762.9000000004,7041,NNB,B,1
1,prac,1,0.0,2-Back,0,m,Mon Jan 27 2025 17:23:50 GMT-0600 (Central Standard Time),483688.5999999996,086_o_f_n_a.png,O,None,2011,4,1,2892.89999999851,480795.7000000011,7041,NNB,B,2
1,prac,1,0.0,2-Back,0,z,Mon Jan 27 2025 17:23:50 GMT-0600 (Central Standard Time),486204.50000000186,065_o_m_n_a.png,O,m,1682,5,1,2510.5,483694.00000000186,7041,NNB,B,3
1,prac,1,1.0,2-Back,0,z,Mon Jan 27 2025 17:23:50 GMT-0600 (Central Standard Time),488986.7999999989,086_o_f_n_a.png,O,None,2009,6,1,2776.7999999970198,486210.00000000186,7041,NNB,B,4
1,prac,1,0.0,2-Back,0,m,Mon Jan 27 2025 17:23:50 GMT-0600 (Central Standard Time),491869.2999999989,178_m_m_n_a.png,O,None,2017,7,1,2877.0,488992.2999999989,7041,NNB,B,5
1,prac,1,0.0,2-Back,0,m,Mon Jan 27 2025 17:23:50 GMT-0600 (Central Standard Time),494751.9000000004,176_o_m_n_a.png,O,None,2014,8,1,2877.5,491874.4000000004,7041,NNB,B,6
1,prac,1,0.0,2-Back,0,m,Mon Jan 27 2025 17:23:50 GMT-0600 (Central Standard Time),497634.5999999996,173_y_f_n_a.png,O,None,2009,9,1,2877.39999999851,494757.2000000011,7041,NNB,B,7
1,prac,1,1.0,2-Back,0,z,Mon Jan 27 2025 17:23:50 GMT-0600 (Central Standard Time),499567.0999999996,176_o_m_n_a.png,O,m,1153,10,1,1927.5999999977648,497639.50000000186,7041,NNB,B,8
2,prac,1,0.0,2-Back,1,m,Mon Jan 27 2025 17:23:50 GMT-0600 (Central Standard Time),501333.0999999996,152_y_f_n_a.png,O,m,900,11,1,1760.5999999977648,499572.50000000186,7041,NNB,B,9
2,prac,1,0.0,2-Back,0,m,Mon Jan 27 2025 17:23:50 GMT-0600 (Central Standard Time),503215.9000000004,178_m_m_n_a.png,O,z,1094,12,1,1877.800000000745,501338.0999999996,7041,NNB,B,10
0,prac,2,0.0,2-Back,,,Mon Jan 27 2025 17:23:50 GMT-0600 (Central Standard Time),503215.9000000004,013_y_m_n_a.png,O,a,11796,1,1,1877.800000000745,501338.0999999996,7041,NNB,B,0
0,prac,2,0.0,2-Back,,,Mon Jan 27 2025 17:23:50 GMT-0600 (Central Standard Time),503215.9000000004,029_m_f_n_a.png,O,a,11796,2,1,1877.800000000745,501338.0999999996,7041,NNB,B,0
1,prac,2,1.0,2-Back,1,m,Mon Jan 27 2025 17:23:50 GMT-0600 (Central Standard Time),522859.5999999996,065_o_m_n_a.png,O,m,1727,3,1,2593.300000000745,520266.2999999989,7041,NNB,B,1
1,prac,2,0.0,2-Back,0,m,Mon Jan 27 2025 17:23:50 GMT-0600 (Central Standard Time),525758.9000000004,086_o_f_n_a.png,O,None,2014,4,1,2894.10000000149,522864.7999999989,7041,NNB,B,2
1,prac,2,0.0,2-Back,0,z,Mon Jan 27 2025 17:23:50 GMT-0600 (Central Standard Time),528541.4000000004,065_o_m_n_a.png,O,None,2009,5,1,2777.10000000149,525764.2999999989,7041,NNB,B,3
2,prac,2,1.0,2-Back,1,z,Mon Jan 27 2025 17:23:50 GMT-0600 (Central Standard Time),530224.0999999996,086_o_f_n_a.png,O,z,902,6,1,1677.800000000745,528546.2999999989,7041,NNB,B,4
3,prac,2,0.0,2-Back,1,m,Mon Jan 27 2025 17:23:50 GMT-0600 (Central Standard Time),532040.5000000019,178_m_m_n_a.png,O,m,1035,7,1,1811.300000000745,530229.2000000011,7041,NNB,B,5
4,prac,2,0.0,2-Back,1,m,Mon Jan 27 2025 17:23:50 GMT-0600 (Central Standard Time),534190.7000000011,176_o_m_n_a.png,O,m,1292,8,1,2145.10000000149,532045.5999999996,7041,NNB,B,6
5,prac,2,0.0,2-Back,1,m,Mon Jan 27 2025 17:23:50 GMT-0600 (Central Standard Time),536488.9000000004,173_y_f_n_a.png,O,m,1436,9,1,2292.60000000149,534196.2999999989,7041,NNB,B,7
5,prac,2,1.0,2-Back,0,z,Mon Jan 27 2025 17:23:50 GMT-0600 (Central Standard Time),539022.7000000011,176_o_m_n_a.png,O,m,1755,10,1,2529.199999999255,536493.5000000019,7041,NNB,B,8
6,prac,2,0.0,2-Back,1,m,Mon Jan 27 2025 17:23:50 GMT-0600 (Central Standard Time),541787.0999999996,152_y_f_n_a.png,O,m,1901,11,1,2759.099999997765,539028.0000000019,7041,NNB,B,9
7,prac,2,0.0,2-Back,1,m,Mon Jan 27 2025 17:23:50 GMT-0600 (Central Standard Time),543719.9000000004,178_m_m_n_a.png,O,m,1152,12,1,1927.3999999985099,541792.5000000019,7041,NNB,B,10
0,test,1,0.0,2-Back,,,Mon Jan 27 2025 17:23:50 GMT-0600 (Central Standard Time),543719.9000000004,153_y_m_n_a.png,O,space,12485,1,1,1927.3999999985099,541792.5000000019,7041,NNB,B,0
0,test,1,0.0,2-Back,,,Mon Jan 27 2025 17:23:50 GMT-0600 (Central Standard Time),543719.9000000004,153_y_m_n_a.png,O,space,12485,2,1,1927.3999999985099,541792.5000000019,7041,NNB,B,0
1,test,1,0.0,2-Back,1,m,Mon Jan 27 2025 17:23:50 GMT-0600 (Central Standard Time),569996.2000000011,086_o_f_n_a.png,O,m,747,3,1,1763.6000000014901,568232.5999999996,7041,NNB,B,1
2,test,1,0.0,2-Back,1,m,Mon Jan 27 2025 17:23:50 GMT-0600 (Central Standard Time),571994.5000000019,126_m_m_n_a.png,O,m,981,4,1,1995.0,569999.5000000019,7041,NNB,B,2
3,test,1,1.0,2-Back,1,z,Mon Jan 27 2025 17:23:50 GMT-0600 (Central Standard Time),573677.2000000011,086_o_f_n_a.png,O,z,653,5,1,1679.699999999255,571997.5000000019,7041,NNB,B,3
4,test,1,0.0,2-Back,1,m,Mon Jan 27 2025 17:23:50 GMT-0600 (Central Standard Time),575426.5000000019,152_y_f_n_a.png,O,m,716,6,1,1745.2000000029802,573681.2999999989,7041,NNB,B,4
4,test,1,0.0,2-Back,0,m,Mon Jan 27 2025 17:23:50 GMT-0600 (Central Standard Time),577142.7999999989,126_m_m_n_a.png,O,z,693,7,1,1713.199999999255,575429.5999999996,7041,NNB,B,5
4,test,1,1.0,2-Back,0,z,Mon Jan 27 2025 17:23:50 GMT-0600 (Central Standard Time),578842.4000000004,152_y_f_n_a.png,O,m,664,8,1,1696.1000000014901,577146.2999999989,7041,NNB,B,6
5,test,1,0.0,2-Back,1,m,Mon Jan 27 2025 17:23:50 GMT-0600 (Central Standard Time),580991.5000000019,013_y_m_n_a.png,O,m,1118,9,1,2145.800000000745,578845.7000000011,7041,NNB,B,7
6,test,1,0.0,2-Back,1,m,Mon Jan 27 2025 17:23:50 GMT-0600 (Central Standard Time),583007.4000000004,110_o_f_n_a.png,O,m,984,10,1,2012.800000000745,580994.5999999996,7041,NNB,B,8
7,test,1,1.0,2-Back,1,z,Mon Jan 27 2025 17:23:50 GMT-0600 (Central Standard Time),584623.7999999989,013_y_m_n_a.png,O,z,584,11,1,1613.199999999255,583010.5999999996,7041,NNB,B,9
8,test,1,0.0,2-Back,1,m,Mon Jan 27 2025 17:23:50 GMT-0600 (Central Standard Time),586324.2999999989,029_m_f_n_a.png,O,m,680,12,1,1697.2999999970198,584627.0000000019,7041,NNB,B,10
9,test,1,0.0,2-Back,1,m,Mon Jan 27 2025 17:23:50 GMT-0600 (Central Standard Time),588206.0999999996,029_m_f_n_a.png,O,m,853,13,1,1878.3999999985099,586327.7000000011,7041,NNB,B,11
10,test,1,0.0,2-Back,1,m,Mon Jan 27 2025 17:23:50 GMT-0600 (Central Standard Time),590757.2000000011,065_o_m_n_a.png,O,m,1531,14,1,2547.10000000149,588210.0999999996,7041,NNB,B,12
11,test,1,0.0,2-Back,1,m,Mon Jan 27 2025 17:23:50 GMT-0600 (Central Standard Time),592738.0999999996,110_o_f_n_a.png,O,m,957,15,1,1976.699999999255,590761.4000000004,7041,NNB,B,13
12,test,1,1.0,2-Back,1,z,Mon Jan 27 2025 17:23:50 GMT-0600 (Central Standard Time),594703.7999999989,065_o_m_n_a.png,O,z,942,16,1,1961.8999999985099,592741.9000000004,7041,NNB,B,14
13,test,1,0.0,2-Back,1,m,Mon Jan 27 2025 17:23:50 GMT-0600 (Central Standard Time),596453.2000000011,097_m_f_n_a.png,O,m,728,17,1,1745.6000000014901,594707.5999999996,7041,NNB,B,15
13,test,1,0.0,2-Back,0,m,Mon Jan 27 2025 17:23:50 GMT-0600 (Central Standard Time),598302.9000000004,178_m_m_n_a.png,O,z,819,18,1,1846.6000000014901,596456.2999999989,7041,NNB,B,16
0,test,2,0.0,2-Back,,,Mon Jan 27 2025 17:23:50 GMT-0600 (Central Standard Time),598302.9000000004,178_m_m_n_a.png,O,space,1554,1,1,1846.6000000014901,596456.2999999989,7041,NNB,B,0
0,test,2,0.0,2-Back,,,Mon Jan 27 2025 17:23:50 GMT-0600 (Central Standard Time),598302.9000000004,173_y_f_n_a.png,O,space,1554,2,1,1846.6000000014901,596456.2999999989,7041,NNB,B,0
1,test,2,1.0,2-Back,1,z,Mon Jan 27 2025 17:23:50 GMT-0600 (Central Standard Time),607100.0999999996,178_m_m_n_a.png,O,z,1079,3,1,2096.099999997765,605004.0000000019,7041,NNB,B,1
2,test,2,0.0,2-Back,1,m,Mon Jan 27 2025 17:23:50 GMT-0600 (Central Standard Time),608899.5000000019,097_m_f_n_a.png,O,m,780,4,1,1796.2000000029802,607103.2999999989,7041,NNB,B,2
3,test,2,0.0,2-Back,1,m,Mon Jan 27 2025 17:23:50 GMT-0600 (Central Standard Time),611115.5000000019,173_y_f_n_a.png,O,m,1197,5,1,2212.5,608903.0000000019,7041,NNB,B,3
3,test,2,0.0,2-Back,0,m,Mon Jan 27 2025 17:23:50 GMT-0600 (Central Standard Time),612815.2000000011,065_o_m_n_a.png,O,z,668,6,1,1696.6000000014901,611118.5999999996,7041,NNB,B,4
4,test,2,0.0,2-Back,1,m,Mon Jan 27 2025 17:23:50 GMT-0600 (Central Standard Time),614914.5000000019,152_y_f_n_a.png,O,m,1080,7,1,2096.2000000029802,612818.2999999989,7041,NNB,B,5
5,test,2,1.0,2-Back,1,z,Mon Jan 27 2025 17:23:50 GMT-0600 (Central Standard Time),616830.2999999989,065_o_m_n_a.png,O,z,885,8,1,1912.8999999985099,614917.4000000004,7041,NNB,B,6
6,test,2,0.0,2-Back,1,m,Mon Jan 27 2025 17:23:50 GMT-0600 (Central Standard Time),618979.5999999996,013_y_m_n_a.png,O,m,1128,9,1,2145.300000000745,616834.2999999989,7041,NNB,B,7
7,test,2,0.0,2-Back,1,m,Mon Jan 27 2025 17:23:50 GMT-0600 (Central Standard Time),621579.0000000019,013_y_m_n_a.png,O,m,1572,10,1,2595.2000000029802,618983.7999999989,7041,NNB,B,8
8,test,2,0.0,2-Back,1,m,Mon Jan 27 2025 17:23:50 GMT-0600 (Central Standard Time),624111.2999999989,029_m_f_n_a.png,O,m,1501,11,1,2529.199999999255,621582.0999999996,7041,NNB,B,9
8,test,2,0.0,2-Back,0,m,Mon Jan 27 2025 17:23:50 GMT-0600 (Central Standard Time),625811.0000000019,173_y_f_n_a.png,O,z,672,12,1,1696.5,624114.5000000019,7041,NNB,B,10
8,test,2,1.0,2-Back,0,z,Mon Jan 27 2025 17:23:50 GMT-0600 (Central Standard Time),628010.5000000019,029_m_f_n_a.png,O,m,1181,13,1,2195.7000000029802,625814.7999999989,7041,NNB,B,11
9,test,2,0.0,2-Back,1,m,Mon Jan 27 2025 17:23:50 GMT-0600 (Central Standard Time),630109.5000000019,176_o_m_n_a.png,O,m,1077,14,1,2095.7000000029802,628013.7999999989,7041,NNB,B,12
10,test,2,0.0,2-Back,1,m,Mon Jan 27 2025 17:23:50 GMT-0600 (Central Standard Time),632475.5000000019,176_o_m_n_a.png,O,m,1338,15,1,2362.10000000149,630113.4000000004,7041,NNB,B,13
11,test,2,0.0,2-Back,1,m,Mon Jan 27 2025 17:23:50 GMT-0600 (Central Standard Time),634791.5000000019,110_o_f_n_a.png,O,m,1292,16,1,2312.7000000029802,632478.7999999989,7041,NNB,B,14
12,test,2,0.0,2-Back,1,m,Mon Jan 27 2025 17:23:50 GMT-0600 (Central Standard Time),637157.2000000011,126_m_m_n_a.png,O,m,1345,17,1,2361.699999999255,634795.5000000019,7041,NNB,B,15
13,test,2,1.0,2-Back,1,z,Mon Jan 27 2025 17:23:50 GMT-0600 (Central Standard Time),639090.2999999989,110_o_f_n_a.png,O,z,898,18,1,1929.8999999985099,637160.4000000004,7041,NNB,B,16
0,test,3,1.0,2-Back,,,Mon Jan 27 2025 17:23:50 GMT-0600 (Central Standard Time),639090.2999999989,153_y_m_n_a.png,O,space,1551,1,1,1929.8999999985099,637160.4000000004,7041,NNB,B,0
0,test,3,1.0,2-Back,,,Mon Jan 27 2025 17:23:50 GMT-0600 (Central Standard Time),639090.2999999989,153_y_m_n_a.png,O,space,1551,2,1,1929.8999999985099,637160.4000000004,7041,NNB,B,0
1,test,3,0.0,2-Back,1,m,Mon Jan 27 2025 17:23:50 GMT-0600 (Central Standard Time),647720.9000000004,110_o_f_n_a.png,O,m,908,3,1,1929.5,645791.4000000004,7041,NNB,B,1
2,test,3,0.0,2-Back,1,m,Mon Jan 27 2025 17:23:50 GMT-0600 (Central Standard Time),649570.0999999996,178_m_m_n_a.png,O,m,823,4,1,1845.3999999985099,647724.7000000011,7041,NNB,B,2
3,test,3,1.0,2-Back,1,z,Mon Jan 27 2025 17:23:50 GMT-0600 (Central Standard Time),651255.9000000004,110_o_f_n_a.png,O,z,654,5,1,1682.3999999985099,649573.5000000019,7041,NNB,B,3
4,test,3,0.0,2-Back,1,m,Mon Jan 27 2025 17:23:50 GMT-0600 (Central Standard Time),653202.4000000004,013_y_m_n_a.png,O,m,915,6,1,1942.5,651259.9000000004,7041,NNB,B,4
5,test,3,0.0,2-Back,1,m,Mon Jan 27 2025 17:23:50 GMT-0600 (Central Standard Time),655518.2000000011,178_m_m_n_a.png,O,m,1294,7,1,2312.5,653205.7000000011,7041,NNB,B,5
6,test,3,1.0,2-Back,1,z,Mon Jan 27 2025 17:23:50 GMT-0600 (Central Standard Time),657184.5999999996,013_y_m_n_a.png,O,z,641,8,1,1662.300000000745,655522.2999999989,7041,NNB,B,6
7,test,3,0.0,2-Back,1,m,Mon Jan 27 2025 17:23:50 GMT-0600 (Central Standard Time),659483.7000000011,173_y_f_n_a.png,O,m,1270,9,1,2295.800000000745,657187.9000000004,7041,NNB,B,7
8,test,3,0.0,2-Back,1,m,Mon Jan 27 2025 17:23:50 GMT-0600 (Central Standard Time),661433.2000000011,126_m_m_n_a.png,O,m,916,10,1,1945.6000000014901,659487.5999999996,7041,NNB,B,8
9,test,3,1.0,2-Back,1,z,Mon Jan 27 2025 17:23:50 GMT-0600 (Central Standard Time),663316.0000000019,173_y_f_n_a.png,O,z,863,11,1,1879.6000000014901,661436.4000000004,7041,NNB,B,9
9,test,3,1.0,2-Back,0,z,Mon Jan 27 2025 17:23:50 GMT-0600 (Central Standard Time),665598.5999999996,126_m_m_n_a.png,O,m,1260,12,1,2279.099999997765,663319.5000000019,7041,NNB,B,10
10,test,3,0.0,2-Back,1,m,Mon Jan 27 2025 17:23:50 GMT-0600 (Central Standard Time),667431.5000000019,110_o_f_n_a.png,O,m,801,13,1,1828.9000000022352,665602.5999999996,7041,NNB,B,11
11,test,3,0.0,2-Back,1,m,Mon Jan 27 2025 17:23:50 GMT-0600 (Central Standard Time),669213.9000000004,097_m_f_n_a.png,O,m,753,14,1,1779.1000000014901,667434.7999999989,7041,NNB,B,12
12,test,3,0.0,2-Back,1,m,Mon Jan 27 2025 17:23:50 GMT-0600 (Central Standard Time),671013.2999999989,065_o_m_n_a.png,O,m,770,15,1,1795.2999999970198,669218.0000000019,7041,NNB,B,13
13,test,3,1.0,2-Back,1,z,Mon Jan 27 2025 17:23:50 GMT-0600 (Central Standard Time),672946.4000000004,097_m_f_n_a.png,O,z,914,16,1,1929.1000000014901,671017.2999999989,7041,NNB,B,14
14,test,3,0.0,2-Back,1,m,Mon Jan 27 2025 17:23:50 GMT-0600 (Central Standard Time),674778.7000000011,086_o_f_n_a.png,O,m,806,17,1,1829.4000000022352,672949.2999999989,7041,NNB,B,15
15,test,3,0.0,2-Back,1,m,Mon Jan 27 2025 17:23:50 GMT-0600 (Central Standard Time),676945.0000000019,086_o_f_n_a.png,O,m,1141,18,1,2163.2000000029802,674781.7999999989,7041,NNB,B,16
0,test,4,0.0,2-Back,,,Mon Jan 27 2025 17:23:50 GMT-0600 (Central Standard Time),676945.0000000019,176_o_m_n_a.png,O,space,1304,1,1,2163.2000000029802,674781.7999999989,7041,NNB,B,0
0,test,4,0.0,2-Back,,,Mon Jan 27 2025 17:23:50 GMT-0600 (Central Standard Time),676945.0000000019,152_y_f_n_a.png,O,space,1304,2,1,2163.2000000029802,674781.7999999989,7041,NNB,B,0
1,test,4,1.0,2-Back,1,z,Mon Jan 27 2025 17:23:50 GMT-0600 (Central Standard Time),685375.5000000019,176_o_m_n_a.png,O,z,875,3,1,1895.5,683480.0000000019,7041,NNB,B,1
2,test,4,1.0,2-Back,1,z,Mon Jan 27 2025 17:23:50 GMT-0600 (Central Standard Time),687408.2999999989,152_y_f_n_a.png,O,z,1000,4,1,2029.2999999970198,685379.0000000019,7041,NNB,B,2
3,test,4,0.0,2-Back,1,m,Mon Jan 27 2025 17:23:50 GMT-0600 (Central Standard Time),689607.5000000019,110_o_f_n_a.png,O,m,1167,5,1,2195.2000000029802,687412.2999999989,7041,NNB,B,3
3,test,4,0.0,2-Back,0,m,Mon Jan 27 2025 17:23:50 GMT-0600 (Central Standard Time),691607.0999999996,110_o_f_n_a.png,O,z,968,6,1,1996.5,689610.5999999996,7041,NNB,B,4
4,test,4,0.0,2-Back,1,m,Mon Jan 27 2025 17:23:50 GMT-0600 (Central Standard Time),694056.2999999989,029_m_f_n_a.png,O,m,1424,7,1,2445.0,691611.2999999989,7041,NNB,B,5
5,test,4,0.0,2-Back,1,m,Mon Jan 27 2025 17:23:50 GMT-0600 (Central Standard Time),696005.5000000019,013_y_m_n_a.png,O,m,920,8,1,1945.2000000029802,694060.2999999989,7041,NNB,B,6
6,test,4,1.0,2-Back,1,z,Mon Jan 27 2025 17:23:50 GMT-0600 (Central Standard Time),697805.2000000011,029_m_f_n_a.png,O,z,778,9,1,1796.5,696008.7000000011,7041,NNB,B,7
7,test,4,0.0,2-Back,1,m,Mon Jan 27 2025 17:23:50 GMT-0600 (Central Standard Time),699787.7000000011,126_m_m_n_a.png,O,m,963,10,1,1979.300000000745,697808.4000000004,7041,NNB,B,8
8,test,4,0.0,2-Back,1,m,Mon Jan 27 2025 17:23:50 GMT-0600 (Central Standard Time),702203.5999999996,013_y_m_n_a.png,O,m,1388,11,1,2412.0,699791.5999999996,7041,NNB,B,9
9,test,4,0.0,2-Back,1,m,Mon Jan 27 2025 17:23:50 GMT-0600 (Central Standard Time),704386.5000000019,086_o_f_n_a.png,O,m,1149,12,1,2178.7000000029802,702207.7999999989,7041,NNB,B,10
10,test,4,0.0,2-Back,1,m,Mon Jan 27 2025 17:23:50 GMT-0600 (Central Standard Time),706602.4000000004,153_y_m_n_a.png,O,m,1197,13,1,2212.5,704389.9000000004,7041,NNB,B,11
11,test,4,1.0,2-Back,1,z,Mon Jan 27 2025 17:23:50 GMT-0600 (Central Standard Time),708351.7000000011,086_o_f_n_a.png,O,z,726,14,1,1745.800000000745,706605.9000000004,7041,NNB,B,12
11,test,4,1.0,2-Back,0,z,Mon Jan 27 2025 17:23:50 GMT-0600 (Central Standard Time),710384.2999999989,153_y_m_n_a.png,O,m,1000,15,1,2029.0999999977648,708355.2000000011,7041,NNB,B,13
12,test,4,0.0,2-Back,1,m,Mon Jan 27 2025 17:23:50 GMT-0600 (Central Standard Time),712517.2999999989,178_m_m_n_a.png,O,m,1103,16,1,2129.89999999851,710387.4000000004,7041,NNB,B,14
13,test,4,0.0,2-Back,1,m,Mon Jan 27 2025 17:23:50 GMT-0600 (Central Standard Time),714316.4000000004,097_m_f_n_a.png,O,m,779,17,1,1796.1000000014901,712520.2999999989,7041,NNB,B,15
13,test,4,1.0,2-Back,0,z,Mon Jan 27 2025 17:23:50 GMT-0600 (Central Standard Time),716565.7999999989,178_m_m_n_a.png,O,m,1227,18,1,2246.0,714319.7999999989,7041,NNB,B,16
0,test,5,1.0,2-Back,,,Mon Jan 27 2025 17:23:50 GMT-0600 (Central Standard Time),716565.7999999989,153_y_m_n_a.png,O,space,1363,1,1,2246.0,714319.7999999989,7041,NNB,B,0
0,test,5,1.0,2-Back,,,Mon Jan 27 2025 17:23:50 GMT-0600 (Central Standard Time),716565.7999999989,097_m_f_n_a.png,O,space,1363,2,1,2246.0,714319.7999999989,7041,NNB,B,0
1,test,5,1.0,2-Back,1,z,Mon Jan 27 2025 17:23:50 GMT-0600 (Central Standard Time),725096.5999999996,153_y_m_n_a.png,O,z,1083,3,1,2112.39999999851,722984.2000000011,7041,NNB,B,1
1,test,5,1.0,2-Back,0,z,Mon Jan 27 2025 17:23:50 GMT-0600 (Central Standard Time),726812.7999999989,097_m_f_n_a.png,O,m,687,4,1,1711.8999999985099,725100.9000000004,7041,NNB,B,2
2,test,5,0.0,2-Back,1,m,Mon Jan 27 2025 17:23:50 GMT-0600 (Central Standard Time),729011.9000000004,086_o_f_n_a.png,O,m,1171,5,1,2195.199999999255,726816.7000000011,7041,NNB,B,3
3,test,5,0.0,2-Back,1,m,Mon Jan 27 2025 17:23:50 GMT-0600 (Central Standard Time),731194.4000000004,153_y_m_n_a.png,O,m,1149,6,1,2179.199999999255,729015.2000000011,7041,NNB,B,4
4,test,5,0.0,2-Back,1,m,Mon Jan 27 2025 17:23:50 GMT-0600 (Central Standard Time),733160.5999999996,173_y_f_n_a.png,O,m,933,7,1,1962.5999999977648,731198.0000000019,7041,NNB,B,5
5,test,5,0.0,2-Back,1,m,Mon Jan 27 2025 17:23:50 GMT-0600 (Central Standard Time),735160.0000000019,086_o_f_n_a.png,O,m,967,8,1,1996.1000000014901,733163.9000000004,7041,NNB,B,6
6,test,5,1.0,2-Back,1,z,Mon Jan 27 2025 17:23:50 GMT-0600 (Central Standard Time),736909.5999999996,173_y_f_n_a.png,O,z,728,9,1,1746.300000000745,735163.2999999989,7041,NNB,B,7
7,test,5,0.0,2-Back,1,m,Mon Jan 27 2025 17:23:50 GMT-0600 (Central Standard Time),738692.2000000011,065_o_m_n_a.png,O,m,762,10,1,1779.4000000022352,736912.7999999989,7041,NNB,B,8
8,test,5,0.0,2-Back,1,m,Mon Jan 27 2025 17:23:50 GMT-0600 (Central Standard Time),740358.5000000019,029_m_f_n_a.png,O,m,644,11,1,1662.6000000014901,738695.9000000004,7041,NNB,B,9
9,test,5,0.0,2-Back,1,m,Mon Jan 27 2025 17:23:50 GMT-0600 (Central Standard Time),742257.7999999989,126_m_m_n_a.png,O,m,873,12,1,1895.199999999255,740362.5999999996,7041,NNB,B,10
10,test,5,0.0,2-Back,1,m,Mon Jan 27 2025 17:23:50 GMT-0600 (Central Standard Time),744373.9000000004,065_o_m_n_a.png,O,m,1086,13,1,2112.60000000149,742261.2999999989,7041,NNB,B,11
11,test,5,1.0,2-Back,1,z,Mon Jan 27 2025 17:23:50 GMT-0600 (Central Standard Time),746090.0999999996,126_m_m_n_a.png,O,z,682,14,1,1712.300000000745,744377.7999999989,7041,NNB,B,12
12,test,5,0.0,2-Back,1,m,Mon Jan 27 2025 17:23:50 GMT-0600 (Central Standard Time),748106.0000000019,152_y_f_n_a.png,O,m,982,15,1,2012.6000000014901,746093.4000000004,7041,NNB,B,13
13,test,5,0.0,2-Back,1,m,Mon Jan 27 2025 17:23:50 GMT-0600 (Central Standard Time),749905.2999999989,176_o_m_n_a.png,O,m,774,16,1,1795.2999999970198,748110.0000000019,7041,NNB,B,14
14,test,5,0.0,2-Back,1,m,Mon Jan 27 2025 17:23:50 GMT-0600 (Central Standard Time),751621.9000000004,029_m_f_n_a.png,O,m,698,17,1,1712.800000000745,749909.0999999996,7041,NNB,B,15
15,test,5,1.0,2-Back,1,z,Mon Jan 27 2025 17:23:50 GMT-0600 (Central Standard Time),753471.0999999996,176_o_m_n_a.png,O,z,818,18,1,1846.300000000745,751624.7999999989,7041,NNB,B,16
