Q,Q1,Q2,Q3,Q4,acc_sum,block,block_c,correct,correct_response,datetime,endtime,project,response,response_time,row_sel,session_number,squiggle1,squiggle1x,squiggle1y,squiggle2,squiggle2x,squiggle2y,squiggle3,squiggle3x,squiggle3y,squiggle4,squiggle4x,squiggle4y,start_end,starttime,subject_id,target_congruent,task,task_vers,testsquiggle,testsquigglex,testsquiggley,time_practice_delay,time_practice_fixation,time_practice_stimuli,time_practice_study,time_test_delay,time_test_fixation,time_test_stimuli,time_test_study,trial
1,1,0,0,0,0,prac,1,0,z,Fri Apr 25 2025 16:00:26 GMT-0500 (Central Daylight Time),127400.80000000075,I,m,1765,1,1,16.bmp,-120,-120,17.bmp,120,-120,18.bmp,-120,120,19.bmp,120,120,10577.400000000373,116823.40000000037,8038,yes,SM,B,16.bmp,-120,-120,119399,113370,121414,115383,,,,,1
3,0,0,1,0,1,prac,1,1,m,Fri Apr 25 2025 16:00:26 GMT-0500 (Central Daylight Time),137264.1000000015,I,m,1049,2,1,20.bmp,-120,-120,21.bmp,120,-120,22.bmp,-120,120,23.bmp,120,120,9859.5,127404.60000000149,8038,no,SM,B,23.bmp,-120,120,129978,123951,131994,125963,,,,,2
4,0,0,0,1,2,prac,1,1,m,Fri Apr 25 2025 16:00:26 GMT-0500 (Central Daylight Time),147194.30000000075,I,m,1105,3,1,24.bmp,-120,-120,25.bmp,120,-120,26.bmp,-120,120,27.bmp,120,120,9926.699999999255,137267.6000000015,8038,no,SM,B,24.bmp,120,120,139842,133814,141858,135827,,,,,3
2,0,1,0,0,3,prac,1,1,z,Fri Apr 25 2025 16:00:26 GMT-0500 (Central Daylight Time),157458.1000000015,I,z,1438,4,1,28.bmp,-120,-120,29.bmp,120,-120,30.bmp,-120,120,31.bmp,120,120,10260.10000000149,147198.0,8038,yes,SM,B,29.bmp,120,-120,149772,143744,151789,145757,,,,,4
3,0,0,1,0,3,prac,1,0,z,Fri Apr 25 2025 16:00:26 GMT-0500 (Central Daylight Time),168287.6000000015,I,None,2016,5,1,32.bmp,-120,-120,33.bmp,120,-120,34.bmp,-120,120,35.bmp,120,120,10826.10000000149,157461.5,8038,yes,SM,B,34.bmp,-120,120,160035,154008,162051,156020,,,,,5
1,1,0,0,0,3,prac,1,0,m,Fri Apr 25 2025 16:00:26 GMT-0500 (Central Daylight Time),178351.1000000015,I,z,1233,6,1,36.bmp,-120,-120,37.bmp,120,-120,38.bmp,-120,120,39.bmp,120,120,10060.200000001118,168290.90000000037,8038,no,SM,B,39.bmp,-120,-120,170865,164837,172882,166850,,,,,6
2,0,1,0,0,4,prac,1,1,m,Fri Apr 25 2025 16:00:26 GMT-0500 (Central Daylight Time),188281.6000000015,I,m,1106,7,1,40.bmp,-120,-120,41.bmp,120,-120,42.bmp,-120,120,43.bmp,120,120,9926.700000001118,178354.90000000037,8038,no,SM,B,40.bmp,120,-120,180929,174901,182945,176914,,,,,7
4,0,0,0,1,5,prac,1,1,z,Fri Apr 25 2025 16:00:26 GMT-0500 (Central Daylight Time),198611.6000000015,I,z,1512,8,1,44.bmp,-120,-120,45.bmp,120,-120,46.bmp,-120,120,47.bmp,120,120,10326.700000001118,188284.90000000037,8038,yes,SM,B,47.bmp,120,120,190859,184831,192875,186844,,,,,8
4,0,0,0,1,0,test,1,0,m,Fri Apr 25 2025 16:00:26 GMT-0500 (Central Daylight Time),219921.6000000015,I,z,1549,1,1,48.bmp,-120,-120,49.bmp,120,-120,50.bmp,-120,120,43.bmp,120,120,9594.900000000373,210326.70000000112,8038,yes,SM,B,50.bmp,120,120,190859,184831,192875,186844,212902.0,206873.0,214918.0,208887.0,1
2,0,1,0,0,1,test,1,1,m,Fri Apr 25 2025 16:00:26 GMT-0500 (Central Daylight Time),229101.70000000112,I,m,1119,2,1,1.bmp,-120,-120,2.bmp,120,-120,3.bmp,-120,120,4.bmp,120,120,9176.900000000373,219924.80000000075,8038,yes,SM,B,3.bmp,120,-120,190859,184831,192875,186844,222499.0,216471.0,224515.0,218484.0,2
1,1,0,0,0,2,test,1,1,z,Fri Apr 25 2025 16:00:26 GMT-0500 (Central Daylight Time),237932.40000000037,I,z,779,3,1,5.bmp,-120,-120,6.bmp,120,-120,7.bmp,-120,120,8.bmp,120,120,8827.0,229105.40000000037,8038,yes,SM,B,5.bmp,-120,-120,190859,184831,192875,186844,231680.0,225652.0,233696.0,227664.0,3
3,0,0,1,0,2,test,1,0,m,Fri Apr 25 2025 16:00:26 GMT-0500 (Central Daylight Time),247229.6000000015,I,z,1244,4,1,9.bmp,-120,-120,10.bmp,120,-120,11.bmp,-120,120,12.bmp,120,120,9293.400000000373,237936.20000000112,8038,yes,SM,B,9.bmp,-120,120,190859,184831,192875,186844,240510.0,234482.0,242527.0,236495.0,4
2,0,1,0,0,3,test,1,1,z,Fri Apr 25 2025 16:00:26 GMT-0500 (Central Daylight Time),257160.0,I,z,1883,5,1,13.bmp,-120,-120,14.bmp,120,-120,15.bmp,-120,120,16.bmp,120,120,9924.799999998882,247235.20000000112,8038,yes,SM,B,14.bmp,120,-120,190859,184831,192875,186844,249807.0,243781.0,251808.0,245792.0,5
3,0,0,1,0,4,test,1,1,z,Fri Apr 25 2025 16:00:26 GMT-0500 (Central Daylight Time),266407.1000000015,I,z,1185,6,1,17.bmp,-120,-120,18.bmp,120,-120,19.bmp,-120,120,20.bmp,120,120,9243.800000000745,257163.30000000075,8038,yes,SM,B,19.bmp,-120,120,190859,184831,192875,186844,259737.0,253709.0,261754.0,255722.0,6
4,0,0,0,1,4,test,1,0,z,Fri Apr 25 2025 16:00:26 GMT-0500 (Central Daylight Time),276470.6000000015,I,None,2016,7,1,21.bmp,-120,-120,22.bmp,120,-120,23.bmp,-120,120,24.bmp,120,120,10060.400000000373,266410.2000000011,8038,yes,SM,B,24.bmp,120,120,190859,184831,192875,186844,268984.0,262956.0,271001.0,264969.0,7
2,0,1,0,0,4,test,1,0,m,Fri Apr 25 2025 16:00:26 GMT-0500 (Central Daylight Time),286467.5,I,z,1939,8,1,25.bmp,-120,-120,26.bmp,120,-120,27.bmp,-120,120,28.bmp,120,120,9993.799999998882,276473.7000000011,8038,yes,SM,B,25.bmp,120,-120,190859,184831,192875,186844,279048.0,273020.0,281064.0,275033.0,8
3,0,0,1,0,4,test,1,0,m,Fri Apr 25 2025 16:00:26 GMT-0500 (Central Daylight Time),296530.9000000004,I,None,2016,9,1,29.bmp,-120,-120,30.bmp,120,-120,31.bmp,-120,120,32.bmp,120,120,10060.299999998882,286470.6000000015,8038,yes,SM,B,30.bmp,-120,120,190859,184831,192875,186844,289045.0,283017.0,291061.0,285030.0,9
4,0,0,0,1,5,test,1,1,z,Fri Apr 25 2025 16:00:26 GMT-0500 (Central Daylight Time),305844.6000000015,I,z,1254,10,1,37.bmp,-120,-120,38.bmp,120,-120,39.bmp,-120,120,40.bmp,120,120,9310.10000000149,296534.5,8038,yes,SM,B,40.bmp,120,120,190859,184831,192875,186844,299108.0,293081.0,301125.0,295093.0,10
3,0,0,1,0,6,test,1,1,z,Fri Apr 25 2025 16:00:26 GMT-0500 (Central Daylight Time),315858.0,I,z,1956,11,1,33.bmp,-120,-120,34.bmp,120,-120,35.bmp,-120,120,36.bmp,120,120,10010.0,305848.0,8038,yes,SM,B,35.bmp,-120,120,190859,184831,192875,186844,308422.0,302394.0,310439.0,304407.0,11
2,0,1,0,0,7,test,1,1,m,Fri Apr 25 2025 16:00:26 GMT-0500 (Central Daylight Time),325105.4000000004,I,m,1199,12,1,41.bmp,-120,-120,42.bmp,120,-120,43.bmp,-120,120,44.bmp,120,120,9244.199999999255,315861.2000000011,8038,yes,SM,B,41.bmp,120,-120,190859,184831,192875,186844,318436.0,312407.0,320452.0,314421.0,12
3,0,0,1,0,8,test,1,1,m,Fri Apr 25 2025 16:00:26 GMT-0500 (Central Daylight Time),334069.1000000015,I,m,912,13,1,45.bmp,-120,-120,46.bmp,120,-120,47.bmp,-120,120,48.bmp,120,120,8960.400000000373,325108.7000000011,8038,yes,SM,B,46.bmp,-120,120,190859,184831,192875,186844,327683.0,321655.0,329699.0,323668.0,13
1,1,0,0,0,9,test,1,1,z,Fri Apr 25 2025 16:00:26 GMT-0500 (Central Daylight Time),343033.1000000015,I,z,900,14,1,49.bmp,-120,-120,50.bmp,120,-120,4.bmp,-120,120,1.bmp,120,120,8960.10000000149,334073.0,8038,yes,SM,B,49.bmp,-120,-120,190859,184831,192875,186844,336647.0,330619.0,338663.0,332632.0,14
4,0,0,0,1,9,test,1,0,m,Fri Apr 25 2025 16:00:26 GMT-0500 (Central Daylight Time),352813.1000000015,I,z,1728,15,1,10.bmp,-120,-120,11.bmp,120,-120,12.bmp,-120,120,13.bmp,120,120,9776.700000001118,343036.4000000004,8038,yes,SM,B,11.bmp,120,120,190859,184831,192875,186844,345610.0,339583.0,347627.0,341595.0,15
1,1,0,0,0,10,test,1,1,m,Fri Apr 25 2025 16:00:26 GMT-0500 (Central Daylight Time),362310.2000000011,I,m,1436,16,1,2.bmp,-120,-120,3.bmp,120,-120,4.bmp,-120,120,5.bmp,120,120,9493.800000000745,352816.4000000004,8038,yes,SM,B,5.bmp,-120,-120,190859,184831,192875,186844,355391.0,349363.0,357407.0,351376.0,16
3,0,0,1,0,10,test,1,0,m,Fri Apr 25 2025 16:00:26 GMT-0500 (Central Daylight Time),371840.4000000004,I,z,1474,17,1,22.bmp,-120,-120,23.bmp,120,-120,24.bmp,-120,120,25.bmp,120,120,9525.199999999255,362315.2000000011,8038,yes,SM,B,22.bmp,-120,120,190859,184831,192875,186844,364888.0,358861.0,366905.0,360873.0,17
1,1,0,0,0,11,test,1,1,z,Fri Apr 25 2025 16:00:26 GMT-0500 (Central Daylight Time),381154.1000000015,I,z,1265,18,1,6.bmp,-120,-120,7.bmp,120,-120,8.bmp,-120,120,9.bmp,120,120,9310.400000000373,371843.7000000011,8038,yes,SM,B,6.bmp,-120,-120,190859,184831,192875,186844,374418.0,368390.0,376434.0,370403.0,18
2,0,1,0,0,12,test,1,1,z,Fri Apr 25 2025 16:00:26 GMT-0500 (Central Daylight Time),390151.6000000015,I,z,933,19,1,26.bmp,-120,-120,27.bmp,120,-120,28.bmp,-120,120,29.bmp,120,120,8994.300000000745,381157.30000000075,8038,yes,SM,B,27.bmp,120,-120,190859,184831,192875,186844,383732.0,377703.0,385750.0,379717.0,19
3,0,0,1,0,13,test,1,1,z,Fri Apr 25 2025 16:00:26 GMT-0500 (Central Daylight Time),399331.9000000004,I,z,1121,20,1,30.bmp,-120,-120,31.bmp,120,-120,32.bmp,-120,120,33.bmp,120,120,9177.199999999255,390154.7000000011,8038,yes,SM,B,32.bmp,-120,120,190859,184831,192875,186844,392729.0,386701.0,394746.0,388714.0,20
1,1,0,0,0,13,test,1,0,m,Fri Apr 25 2025 16:00:26 GMT-0500 (Central Daylight Time),409395.30000000075,I,None,2015,21,1,14.bmp,-120,-120,15.bmp,120,-120,16.bmp,-120,120,17.bmp,120,120,10060.300000000745,399335.0,8038,yes,SM,B,16.bmp,-120,-120,190859,184831,192875,186844,401910.0,395881.0,403926.0,397894.0,21
4,0,0,0,1,14,test,1,1,z,Fri Apr 25 2025 16:00:26 GMT-0500 (Central Daylight Time),418459.30000000075,I,z,1005,22,1,18.bmp,-120,-120,19.bmp,120,-120,20.bmp,-120,120,21.bmp,120,120,9060.800000000745,409398.5,8038,yes,SM,B,21.bmp,120,120,190859,184831,192875,186844,411973.0,405945.0,413990.0,407958.0,22
1,1,0,0,0,15,test,1,1,m,Fri Apr 25 2025 16:00:26 GMT-0500 (Central Daylight Time),428089.80000000075,I,m,1566,23,1,34.bmp,-120,-120,35.bmp,120,-120,36.bmp,-120,120,37.bmp,120,120,9627.5,418462.30000000075,8038,yes,SM,B,37.bmp,-120,-120,190859,184831,192875,186844,421037.0,415009.0,423053.0,417022.0,23
2,0,1,0,0,16,test,1,1,z,Fri Apr 25 2025 16:00:26 GMT-0500 (Central Daylight Time),437869.80000000075,I,z,1719,24,1,42.bmp,-120,-120,43.bmp,120,-120,44.bmp,-120,120,45.bmp,120,120,9776.900000000373,428092.9000000004,8038,yes,SM,B,43.bmp,120,-120,190859,184831,192875,186844,430667.0,424639.0,432684.0,426652.0,24
4,0,0,0,1,17,test,1,1,m,Fri Apr 25 2025 16:00:26 GMT-0500 (Central Daylight Time),447850.1000000015,I,m,1923,25,1,46.bmp,-120,-120,47.bmp,120,-120,48.bmp,-120,120,49.bmp,120,120,9977.10000000149,437873.0,8038,yes,SM,B,48.bmp,120,120,190859,184831,192875,186844,440448.0,434419.0,442464.0,436433.0,25
1,1,0,0,0,18,test,1,1,z,Fri Apr 25 2025 16:00:26 GMT-0500 (Central Daylight Time),456647.4000000004,I,z,758,26,1,38.bmp,-120,-120,39.bmp,120,-120,40.bmp,-120,120,41.bmp,120,120,8793.900000000373,447853.5,8038,yes,SM,B,38.bmp,-120,-120,190859,184831,192875,186844,450427.0,444400.0,452429.0,446413.0,26
4,0,0,0,1,19,test,1,1,z,Fri Apr 25 2025 16:00:26 GMT-0500 (Central Daylight Time),465827.4000000004,I,z,1131,27,1,50.bmp,-120,-120,11.bmp,120,-120,1.bmp,-120,120,2.bmp,120,120,9176.400000000373,456651.0,8038,yes,SM,B,2.bmp,120,120,190859,184831,192875,186844,459225.0,453197.0,461241.0,455210.0,27
3,0,0,1,0,20,test,1,1,m,Fri Apr 25 2025 16:00:26 GMT-0500 (Central Daylight Time),475208.2000000011,I,m,1317,28,1,3.bmp,-120,-120,4.bmp,120,-120,5.bmp,-120,120,6.bmp,120,120,9377.700000001118,465830.5,8038,yes,SM,B,3.bmp,-120,120,190859,184831,192875,186844,468405.0,462377.0,470422.0,464390.0,28
2,0,1,0,0,21,test,1,1,z,Fri Apr 25 2025 16:00:26 GMT-0500 (Central Daylight Time),483755.4000000004,I,z,497,29,1,7.bmp,-120,-120,8.bmp,120,-120,9.bmp,-120,120,10.bmp,120,120,8544.199999999255,475211.2000000011,8038,yes,SM,B,8.bmp,120,-120,190859,184831,192875,186844,477786.0,471757.0,479802.0,473771.0,29
3,0,0,1,0,22,test,1,1,z,Fri Apr 25 2025 16:00:26 GMT-0500 (Central Daylight Time),493319.1000000015,I,z,1509,30,1,11.bmp,-120,-120,12.bmp,120,-120,13.bmp,-120,120,14.bmp,120,120,9560.300000000745,483758.80000000075,8038,yes,SM,B,13.bmp,-120,120,190859,184831,192875,186844,486333.0,480305.0,488350.0,482318.0,30
1,1,0,0,0,23,test,1,1,z,Fri Apr 25 2025 16:00:26 GMT-0500 (Central Daylight Time),503265.80000000075,I,z,1898,31,1,15.bmp,-120,-120,16.bmp,120,-120,17.bmp,-120,120,18.bmp,120,120,9943.5,493322.30000000075,8038,yes,SM,B,15.bmp,-120,-120,190859,184831,192875,186844,495897.0,489869.0,497913.0,491882.0,31
2,0,1,0,0,24,test,1,1,m,Fri Apr 25 2025 16:00:26 GMT-0500 (Central Daylight Time),513146.1000000015,I,m,1831,32,1,19.bmp,-120,-120,20.bmp,120,-120,21.bmp,-120,120,22.bmp,120,120,9877.5,503268.6000000015,8038,yes,SM,B,19.bmp,120,-120,190859,184831,192875,186844,505844.0,499815.0,507860.0,501829.0,32
4,0,0,0,1,25,test,1,1,z,Fri Apr 25 2025 16:00:26 GMT-0500 (Central Daylight Time),522410.0,I,z,1207,33,1,31.bmp,-120,-120,32.bmp,120,-120,33.bmp,-120,120,34.bmp,120,120,9260.699999999255,513149.30000000075,8038,yes,SM,B,34.bmp,120,120,190859,184831,192875,186844,515724.0,509696.0,517740.0,511709.0,33
2,0,1,0,0,26,test,1,1,z,Fri Apr 25 2025 16:00:26 GMT-0500 (Central Daylight Time),532390.3000000007,I,z,1927,34,1,23.bmp,-120,-120,24.bmp,120,-120,25.bmp,-120,120,26.bmp,120,120,9977.400000000373,522412.9000000004,8038,yes,SM,B,24.bmp,120,-120,190859,184831,192875,186844,524988.0,518959.0,527004.0,520973.0,34
4,0,0,0,1,27,test,1,1,m,Fri Apr 25 2025 16:00:26 GMT-0500 (Central Daylight Time),541870.6000000015,I,m,1419,35,1,27.bmp,-120,-120,28.bmp,120,-120,29.bmp,-120,120,30.bmp,120,120,9477.0,532393.6000000015,8038,yes,SM,B,29.bmp,120,120,190859,184831,192875,186844,534968.0,528940.0,536984.0,530953.0,35
3,0,0,1,0,28,test,1,1,m,Fri Apr 25 2025 16:00:26 GMT-0500 (Central Daylight Time),551201.1000000015,I,m,1274,36,1,35.bmp,-120,-120,36.bmp,120,-120,37.bmp,-120,120,38.bmp,120,120,9327.5,541873.6000000015,8038,yes,SM,B,35.bmp,-120,120,190859,184831,192875,186844,544448.0,538420.0,546465.0,540433.0,36
1,1,0,0,0,29,test,1,1,m,Fri Apr 25 2025 16:00:26 GMT-0500 (Central Daylight Time),560864.8000000007,I,m,1600,37,1,39.bmp,-120,-120,40.bmp,120,-120,41.bmp,-120,120,42.bmp,120,120,9660.300000000745,551204.5,8038,yes,SM,B,40.bmp,-120,-120,190859,184831,192875,186844,553779.0,547751.0,555795.0,549763.0,37
2,0,1,0,0,30,test,1,1,m,Fri Apr 25 2025 16:00:26 GMT-0500 (Central Daylight Time),570345.3000000007,I,m,1432,38,1,43.bmp,-120,-120,44.bmp,120,-120,45.bmp,-120,120,46.bmp,120,120,9477.699999999255,560867.6000000015,8038,yes,SM,B,45.bmp,120,-120,190859,184831,192875,186844,563442.0,557414.0,565459.0,559427.0,38
4,0,0,0,1,30,test,1,0,z,Fri Apr 25 2025 16:00:26 GMT-0500 (Central Daylight Time),580408.8000000007,I,None,2016,39,1,47.bmp,-120,-120,48.bmp,120,-120,49.bmp,-120,120,50.bmp,120,120,10060.400000000373,570348.4000000004,8038,yes,SM,B,50.bmp,120,120,190859,184831,192875,186844,572923.0,566895.0,574939.0,568908.0,39
3,0,0,1,0,31,test,1,1,m,Fri Apr 25 2025 16:00:26 GMT-0500 (Central Daylight Time),589072.1000000015,I,m,601,40,1,4.bmp,-120,-120,5.bmp,120,-120,6.bmp,-120,120,7.bmp,120,120,8659.800000000745,580412.3000000007,8038,yes,SM,B,5.bmp,-120,120,190859,184831,192875,186844,582986.0,576959.0,585002.0,578971.0,40
1,1,0,0,0,32,test,1,1,z,Fri Apr 25 2025 16:00:26 GMT-0500 (Central Daylight Time),598786.0,I,z,1656,41,1,8.bmp,-120,-120,9.bmp,120,-120,10.bmp,-120,120,11.bmp,120,120,9711.5,589074.5,8038,yes,SM,B,8.bmp,-120,-120,190859,184831,192875,186844,591650.0,585621.0,593667.0,587635.0,41
4,0,0,0,1,33,test,1,1,z,Fri Apr 25 2025 16:00:26 GMT-0500 (Central Daylight Time),608251.1000000015,I,z,1415,42,1,12.bmp,-120,-120,13.bmp,120,-120,14.bmp,-120,120,15.bmp,120,120,9459.900000000373,598791.2000000011,8038,yes,SM,B,15.bmp,120,120,190859,184831,192875,186844,601364.0,595337.0,603380.0,597349.0,42
1,1,0,0,0,34,test,1,1,z,Fri Apr 25 2025 16:00:26 GMT-0500 (Central Daylight Time),617230.3000000007,I,z,927,43,1,16.bmp,-120,-120,17.bmp,120,-120,18.bmp,-120,120,19.bmp,120,120,8976.300000000745,608254.0,8038,yes,SM,B,16.bmp,-120,-120,190859,184831,192875,186844,610827.0,604800.0,612844.0,606812.0,43
4,0,0,0,1,35,test,1,1,m,Fri Apr 25 2025 16:00:26 GMT-0500 (Central Daylight Time),626660.8000000007,I,m,1371,44,1,4.bmp,-120,-120,1.bmp,120,-120,2.bmp,-120,120,3.bmp,120,120,9427.5,617233.3000000007,8038,yes,SM,B,4.bmp,120,120,190859,184831,192875,186844,619808.0,613780.0,621824.0,615793.0,44
1,1,0,0,0,35,test,1,0,m,Fri Apr 25 2025 16:00:26 GMT-0500 (Central Daylight Time),636307.7000000011,I,z,1588,45,1,28.bmp,-120,-120,29.bmp,120,-120,30.bmp,-120,120,31.bmp,120,120,9644.0,626663.7000000011,8038,yes,SM,B,31.bmp,-120,-120,190859,184831,192875,186844,629238.0,623210.0,631255.0,625223.0,45
1,1,0,0,0,36,test,1,1,m,Fri Apr 25 2025 16:00:26 GMT-0500 (Central Daylight Time),645471.6000000015,I,m,1110,46,1,20.bmp,-120,-120,21.bmp,120,-120,22.bmp,-120,120,23.bmp,120,120,9160.400000000373,636311.2000000011,8038,yes,SM,B,21.bmp,-120,-120,190859,184831,192875,186844,638885.0,632857.0,640901.0,634870.0,46
3,0,0,1,0,36,test,1,0,z,Fri Apr 25 2025 16:00:26 GMT-0500 (Central Daylight Time),655535.0,I,None,2015,47,1,24.bmp,-120,-120,25.bmp,120,-120,26.bmp,-120,120,27.bmp,120,120,10060.699999999255,645474.3000000007,8038,yes,SM,B,26.bmp,-120,120,190859,184831,192875,186844,648049.0,642021.0,650066.0,644034.0,47
3,0,0,1,0,37,test,1,1,z,Fri Apr 25 2025 16:00:26 GMT-0500 (Central Daylight Time),664648.8000000007,I,z,1058,48,1,40.bmp,-120,-120,41.bmp,120,-120,42.bmp,-120,120,43.bmp,120,120,9110.599999999627,655538.2000000011,8038,yes,SM,B,42.bmp,-120,120,190859,184831,192875,186844,658113.0,652084.0,660129.0,654098.0,48
2,0,1,0,0,38,test,1,1,z,Fri Apr 25 2025 16:00:26 GMT-0500 (Central Daylight Time),674079.3000000007,I,z,1368,49,1,36.bmp,-120,-120,37.bmp,120,-120,38.bmp,-120,120,39.bmp,120,120,9427.199999999255,664652.1000000015,8038,yes,SM,B,37.bmp,120,-120,190859,184831,192875,186844,667226.0,661198.0,669243.0,663211.0,49
3,0,0,1,0,39,test,1,1,m,Fri Apr 25 2025 16:00:26 GMT-0500 (Central Daylight Time),683243.0,I,m,1106,50,1,32.bmp,-120,-120,33.bmp,120,-120,34.bmp,-120,120,35.bmp,120,120,9160.799999998882,674082.2000000011,8038,yes,SM,B,32.bmp,-120,120,190859,184831,192875,186844,676657.0,670628.0,678673.0,672642.0,50
2,0,1,0,0,40,test,1,1,z,Fri Apr 25 2025 16:00:26 GMT-0500 (Central Daylight Time),692756.7000000011,I,z,1462,51,1,44.bmp,-120,-120,45.bmp,120,-120,46.bmp,-120,120,47.bmp,120,120,9510.800000000745,683245.9000000004,8038,yes,SM,B,45.bmp,120,-120,190859,184831,192875,186844,685821.0,679792.0,687837.0,681806.0,51
4,0,0,0,1,41,test,1,1,m,Fri Apr 25 2025 16:00:26 GMT-0500 (Central Daylight Time),702303.7000000011,I,m,1484,52,1,48.bmp,-120,-120,49.bmp,120,-120,50.bmp,-120,120,31.bmp,120,120,9543.800000000745,692759.9000000004,8038,yes,SM,B,48.bmp,120,120,190859,184831,192875,186844,695334.0,689306.0,697351.0,691319.0,52
3,0,0,1,0,42,test,1,1,z,Fri Apr 25 2025 16:00:26 GMT-0500 (Central Daylight Time),711917.5,I,z,1553,53,1,1.bmp,-120,-120,2.bmp,120,-120,3.bmp,-120,120,4.bmp,120,120,9610.699999999255,702306.8000000007,8038,yes,SM,B,3.bmp,-120,120,190859,184831,192875,186844,704881.0,698853.0,706898.0,700866.0,53
1,1,0,0,0,42,test,1,0,m,Fri Apr 25 2025 16:00:26 GMT-0500 (Central Daylight Time),721981.2000000011,I,None,2016,54,1,5.bmp,-120,-120,6.bmp,120,-120,7.bmp,-120,120,8.bmp,120,120,10060.200000001118,711921.0,8038,yes,SM,B,7.bmp,-120,-120,190859,184831,192875,186844,714495.0,708467.0,716511.0,710480.0,54
4,0,0,0,1,43,test,1,1,z,Fri Apr 25 2025 16:00:26 GMT-0500 (Central Daylight Time),731177.7000000011,I,z,1140,55,1,9.bmp,-120,-120,10.bmp,120,-120,11.bmp,-120,120,12.bmp,120,120,9193.599999999627,721984.1000000015,8038,yes,SM,B,12.bmp,120,120,190859,184831,192875,186844,724558.0,718530.0,726575.0,720543.0,55
2,0,1,0,0,44,test,1,1,m,Fri Apr 25 2025 16:00:26 GMT-0500 (Central Daylight Time),740408.3000000007,I,m,1167,56,1,13.bmp,-120,-120,14.bmp,120,-120,15.bmp,-120,120,16.bmp,120,120,9227.900000000373,731180.4000000004,8038,yes,SM,B,13.bmp,120,-120,190859,184831,192875,186844,733756.0,727727.0,735772.0,729741.0,56
4,0,0,0,1,44,test,1,0,m,Fri Apr 25 2025 16:00:26 GMT-0500 (Central Daylight Time),750072.1000000015,I,z,1611,57,1,17.bmp,-120,-120,18.bmp,120,-120,19.bmp,-120,120,20.bmp,120,120,9660.800000000745,740411.3000000007,8038,yes,SM,B,18.bmp,120,120,190859,184831,192875,186844,742986.0,736958.0,745000.0,738971.0,57
3,0,0,1,0,44,test,1,0,z,Fri Apr 25 2025 16:00:26 GMT-0500 (Central Daylight Time),760135.7000000011,I,None,2016,58,1,21.bmp,-120,-120,22.bmp,120,-120,23.bmp,-120,120,24.bmp,120,120,10060.800000000745,750074.9000000004,8038,yes,SM,B,23.bmp,-120,120,190859,184831,192875,186844,752649.0,746621.0,754666.0,748635.0,58
2,0,1,0,0,45,test,1,1,m,Fri Apr 25 2025 16:00:26 GMT-0500 (Central Daylight Time),769298.9000000004,I,m,1105,59,1,25.bmp,-120,-120,26.bmp,120,-120,27.bmp,-120,120,28.bmp,120,120,9159.799999998882,760139.1000000015,8038,yes,SM,B,28.bmp,120,-120,190859,184831,192875,186844,762713.0,756685.0,764730.0,758698.0,59
1,1,0,0,0,46,test,1,1,z,Fri Apr 25 2025 16:00:26 GMT-0500 (Central Daylight Time),778313.2000000011,I,z,950,60,1,29.bmp,-120,-120,30.bmp,120,-120,31.bmp,-120,120,32.bmp,120,120,9011.5,769301.7000000011,8038,yes,SM,B,29.bmp,-120,-120,190859,184831,192875,186844,771877.0,765848.0,773893.0,767862.0,60
2,0,1,0,0,46,test,1,0,z,Fri Apr 25 2025 16:00:26 GMT-0500 (Central Daylight Time),788376.8000000007,I,None,2016,61,1,33.bmp,-120,-120,34.bmp,120,-120,35.bmp,-120,120,36.bmp,120,120,10060.400000000373,778316.4000000004,8038,yes,SM,B,34.bmp,120,-120,190859,184831,192875,186844,780891.0,774863.0,782907.0,776876.0,61
4,0,0,0,1,47,test,1,1,z,Fri Apr 25 2025 16:00:26 GMT-0500 (Central Daylight Time),797523.9000000004,I,z,1096,62,1,41.bmp,-120,-120,42.bmp,120,-120,43.bmp,-120,120,44.bmp,120,120,9144.099999999627,788379.8000000007,8038,yes,SM,B,44.bmp,120,120,190859,184831,192875,186844,790954.0,784926.0,792971.0,786939.0,62
1,1,0,0,0,48,test,1,1,m,Fri Apr 25 2025 16:00:26 GMT-0500 (Central Daylight Time),806837.6000000015,I,m,1253,63,1,45.bmp,-120,-120,46.bmp,120,-120,47.bmp,-120,120,48.bmp,120,120,9310.900000000373,797526.7000000011,8038,yes,SM,B,45.bmp,-120,120,190859,184831,192875,186844,800102.0,794073.0,802118.0,796086.0,63
2,0,1,0,0,49,test,1,1,z,Fri Apr 25 2025 16:00:26 GMT-0500 (Central Daylight Time),815784.8000000007,I,z,891,64,1,49.bmp,-120,-120,50.bmp,120,-120,12.bmp,-120,120,1.bmp,120,120,8944.0,806840.8000000007,8038,yes,SM,B,50.bmp,120,-120,190859,184831,192875,186844,809415.0,803387.0,811432.0,805400.0,64
4,0,0,0,1,50,test,1,1,m,Fri Apr 25 2025 16:00:26 GMT-0500 (Central Daylight Time),824848.5,I,m,1008,65,1,2.bmp,-120,-120,3.bmp,120,-120,4.bmp,-120,120,5.bmp,120,120,9060.699999999255,815787.8000000007,8038,yes,SM,B,4.bmp,120,120,190859,184831,192875,186844,818362.0,812334.0,820379.0,814347.0,65
3,0,0,1,0,51,test,1,1,m,Fri Apr 25 2025 16:00:26 GMT-0500 (Central Daylight Time),833912.3000000007,I,m,1001,66,1,6.bmp,-120,-120,7.bmp,120,-120,8.bmp,-120,120,9.bmp,120,120,9060.699999999255,824851.6000000015,8038,yes,SM,B,9.bmp,-120,120,190859,184831,192875,186844,827426.0,821398.0,829442.0,823411.0,66
2,0,1,0,0,52,test,1,1,m,Fri Apr 25 2025 16:00:26 GMT-0500 (Central Daylight Time),842992.7000000011,I,m,1016,67,1,37.bmp,-120,-120,38.bmp,120,-120,39.bmp,-120,120,40.bmp,120,120,9077.700000001118,833915.0,8038,yes,SM,B,39.bmp,120,-120,190859,184831,192875,186844,836490.0,830461.0,838506.0,832475.0,67
3,0,0,1,0,53,test,1,1,z,Fri Apr 25 2025 16:00:26 GMT-0500 (Central Daylight Time),852256.7000000011,I,z,1208,68,1,10.bmp,-120,-120,11.bmp,120,-120,12.bmp,-120,120,13.bmp,120,120,9261.400000000373,842995.3000000007,8038,yes,SM,B,12.bmp,-120,120,190859,184831,192875,186844,845571.0,839542.0,847587.0,841555.0,68
1,1,0,0,0,54,test,1,1,m,Fri Apr 25 2025 16:00:26 GMT-0500 (Central Daylight Time),861287.2000000011,I,m,976,69,1,14.bmp,-120,-120,15.bmp,120,-120,16.bmp,-120,120,17.bmp,120,120,9027.599999999627,852259.6000000015,8038,yes,SM,B,15.bmp,-120,-120,190859,184831,192875,186844,854834.0,848806.0,856851.0,850819.0,69
2,0,1,0,0,55,test,1,1,m,Fri Apr 25 2025 16:00:26 GMT-0500 (Central Daylight Time),870734.2000000011,I,m,1394,70,1,18.bmp,-120,-120,19.bmp,120,-120,20.bmp,-120,120,21.bmp,120,120,9444.300000000745,861289.9000000004,8038,yes,SM,B,20.bmp,120,-120,190859,184831,192875,186844,863864.0,857836.0,865881.0,859850.0,70
4,0,0,0,1,56,test,1,1,z,Fri Apr 25 2025 16:00:26 GMT-0500 (Central Daylight Time),879898.2000000011,I,z,1107,71,1,22.bmp,-120,-120,23.bmp,120,-120,24.bmp,-120,120,25.bmp,120,120,9160.900000000373,870737.3000000007,8038,yes,SM,B,25.bmp,120,120,190859,184831,192875,186844,873312.0,867284.0,875328.0,869297.0,71
1,1,0,0,0,57,test,1,1,z,Fri Apr 25 2025 16:00:26 GMT-0500 (Central Daylight Time),889144.8000000007,I,z,1183,72,1,26.bmp,-120,-120,27.bmp,120,-120,28.bmp,-120,120,29.bmp,120,120,9243.5,879901.3000000007,8038,yes,SM,B,26.bmp,-120,-120,190859,184831,192875,186844,882476.0,876447.0,884492.0,878460.0,72
2,0,1,0,0,58,test,1,1,z,Fri Apr 25 2025 16:00:26 GMT-0500 (Central Daylight Time),898925.3000000007,I,z,1720,73,1,30.bmp,-120,-120,31.bmp,120,-120,32.bmp,-120,120,33.bmp,120,120,9777.300000000745,889148.0,8038,yes,SM,B,31.bmp,120,-120,190859,184831,192875,186844,891723.0,885694.0,893739.0,887708.0,73
4,0,0,0,1,59,test,1,1,m,Fri Apr 25 2025 16:00:26 GMT-0500 (Central Daylight Time),907905.9000000004,I,m,923,74,1,34.bmp,-120,-120,35.bmp,120,-120,36.bmp,-120,120,37.bmp,120,120,8977.599999999627,898928.3000000007,8038,yes,SM,B,36.bmp,120,120,190859,184831,192875,186844,901503.0,895474.0,903520.0,897488.0,74
2,0,1,0,0,59,test,1,0,m,Fri Apr 25 2025 16:00:26 GMT-0500 (Central Daylight Time),917153.0,I,z,1183,75,1,38.bmp,-120,-120,39.bmp,120,-120,40.bmp,-120,120,41.bmp,120,120,9243.799999998882,907909.2000000011,8038,yes,SM,B,41.bmp,120,-120,190859,184831,192875,186844,910484.0,904455.0,912500.0,906468.0,75
1,1,0,0,0,60,test,1,1,z,Fri Apr 25 2025 16:00:26 GMT-0500 (Central Daylight Time),926516.8000000007,I,z,1304,76,1,42.bmp,-120,-120,43.bmp,120,-120,44.bmp,-120,120,45.bmp,120,120,9360.599999999627,917156.2000000011,8038,yes,SM,B,42.bmp,-120,-120,190859,184831,192875,186844,919731.0,913702.0,921747.0,915716.0,76
3,0,0,1,0,61,test,1,1,z,Fri Apr 25 2025 16:00:26 GMT-0500 (Central Daylight Time),935880.5,I,z,1308,77,1,50.bmp,-120,-120,11.bmp,120,-120,1.bmp,-120,120,2.bmp,120,120,9360.599999999627,926519.9000000004,8038,yes,SM,B,1.bmp,-120,120,190859,184831,192875,186844,929094.0,923066.0,931111.0,925079.0,77
1,1,0,0,0,62,test,1,1,m,Fri Apr 25 2025 16:00:26 GMT-0500 (Central Daylight Time),945610.8000000007,I,m,1681,78,1,46.bmp,-120,-120,47.bmp,120,-120,48.bmp,-120,120,49.bmp,120,120,9727.0,935883.8000000007,8038,yes,SM,B,47.bmp,-120,-120,190859,184831,192875,186844,938458.0,932430.0,940474.0,934443.0,78
4,0,0,0,1,63,test,1,1,m,Fri Apr 25 2025 16:00:26 GMT-0500 (Central Daylight Time),955257.8000000007,I,m,1590,79,1,7.bmp,-120,-120,8.bmp,120,-120,9.bmp,-120,120,10.bmp,120,120,9638.699999999255,945619.1000000015,8038,yes,SM,B,7.bmp,120,120,190859,184831,192875,186844,948189.0,942165.0,950205.0,944173.0,79
3,0,0,1,0,64,test,1,1,m,Fri Apr 25 2025 16:00:26 GMT-0500 (Central Daylight Time),964871.4000000004,I,m,1559,80,1,3.bmp,-120,-120,4.bmp,120,-120,5.bmp,-120,120,6.bmp,120,120,9610.400000000373,955261.0,8038,yes,SM,B,6.bmp,-120,120,190859,184831,192875,186844,957835.0,951807.0,959852.0,953820.0,80
