block_c,block_dur,condition,countdown,datetime,endtime,list,multichar_response,project,response,response_time,session_number,start_end,starttime,subject_id,task,task_vers,trial
,,,,Thu Mar 27 2025 14:41:32 GMT-0500 (Central Daylight Time),,,,O,space,745,1,,,7092,WL,A,
prac,,0,,Thu Mar 27 2025 14:41:32 GMT-0500 (Central Daylight Time),,NA,b,O,b,4051,1,,,7092,WL,A,1.0
prac,,0,,Thu Mar 27 2025 14:41:32 GMT-0500 (Central Daylight Time),,NA,bo,O,o,220,1,,,7092,WL,A,1.0
prac,,0,,Thu Mar 27 2025 14:41:32 GMT-0500 (Central Daylight Time),,NA,boo,O,o,103,1,,,7092,WL,A,1.0
prac,,0,,Thu Mar 27 2025 14:41:32 GMT-0500 (Central Daylight Time),,NA,boos,O,s,121,1,,,7092,WL,A,1.0
prac,,0,,Thu Mar 27 2025 14:41:32 GMT-0500 (Central Daylight Time),,NA,boost,O,t,52,1,,,7092,WL,A,1.0
prac,,0,,Thu Mar 27 2025 14:41:32 GMT-0500 (Central Daylight Time),,NA,boostenter,O,enter,1695,1,,,7092,WL,A,1.0
1,3.182999849319458,learn,56817.00015068054,Thu Mar 27 2025 14:41:32 GMT-0500 (Central Daylight Time),133024.30000001192,A,g,O,g,3152,1,3181.5,129842.80000001192,7092,WL,A,1.0
1,3.3480000495910645,learn,56651.999950408936,Thu Mar 27 2025 14:41:32 GMT-0500 (Central Daylight Time),133189.89999997616,A,go,O,o,139,1,3347.099999964237,129842.80000001192,7092,WL,A,1.0
1,3.5820000171661377,learn,56417.99998283386,Thu Mar 27 2025 14:41:32 GMT-0500 (Central Daylight Time),133423.89999997616,A,gol,O,l,191,1,3581.099999964237,129842.80000001192,7092,WL,A,1.0
1,3.681999921798706,learn,56318.000078201294,Thu Mar 27 2025 14:41:32 GMT-0500 (Central Daylight Time),133523.69999998808,A,gold,O,d,52,1,3680.899999976158,129842.80000001192,7092,WL,A,1.0
1,4.063999891281128,learn,55936.00010871887,Thu Mar 27 2025 14:41:32 GMT-0500 (Central Daylight Time),133906.0,A,goldenter,O,enter,338,1,4063.199999988079,129842.80000001192,7092,WL,A,1.0
1,4.365000009536743,learn,55634.99999046326,Thu Mar 27 2025 14:41:32 GMT-0500 (Central Daylight Time),134206.89999997616,A,r,O,r,283,1,300.5,133906.39999997616,7092,WL,A,2.0
1,4.514999866485596,learn,55485.000133514404,Thu Mar 27 2025 14:41:32 GMT-0500 (Central Daylight Time),134356.60000002384,A,ra,O,a,112,1,450.2000000476837,133906.39999997616,7092,WL,A,2.0
1,4.799000024795532,learn,55200.99997520447,Thu Mar 27 2025 14:41:32 GMT-0500 (Central Daylight Time),134640.30000001192,A,rat,O,t,243,1,733.9000000357628,133906.39999997616,7092,WL,A,2.0
1,4.9649999141693115,learn,55035.00008583069,Thu Mar 27 2025 14:41:32 GMT-0500 (Central Daylight Time),134806.5,A,ratt,O,t,132,1,900.1000000238419,133906.39999997616,7092,WL,A,2.0
1,5.080999851226807,learn,54919.00014877319,Thu Mar 27 2025 14:41:32 GMT-0500 (Central Daylight Time),134922.69999998808,A,rattl,O,l,78,1,1016.3000000119209,133906.39999997616,7092,WL,A,2.0
1,5.146999835968018,learn,54853.00016403198,Thu Mar 27 2025 14:41:32 GMT-0500 (Central Daylight Time),134988.89999997616,A,rattle,O,e,47,1,1082.5,133906.39999997616,7092,WL,A,2.0
1,5.480999946594238,learn,54519.00005340576,Thu Mar 27 2025 14:41:32 GMT-0500 (Central Daylight Time),135322.19999998808,A,rattleenter,O,enter,300,1,1415.800000011921,133906.39999997616,7092,WL,A,2.0
1,6.115000009536743,learn,53884.99999046326,Thu Mar 27 2025 14:41:32 GMT-0500 (Central Daylight Time),135956.80000001192,A,f,O,f,611,1,634.1999999880791,135322.60000002384,7092,WL,A,3.0
1,6.21399998664856,learn,53786.00001335144,Thu Mar 27 2025 14:41:32 GMT-0500 (Central Daylight Time),136055.60000002384,A,fl,O,l,61,1,733.0,135322.60000002384,7092,WL,A,3.0
1,6.398000001907349,learn,53601.99999809265,Thu Mar 27 2025 14:41:32 GMT-0500 (Central Daylight Time),136239.5,A,flo,O,o,162,1,916.8999999761581,135322.60000002384,7092,WL,A,3.0
1,6.46399998664856,learn,53536.00001335144,Thu Mar 27 2025 14:41:32 GMT-0500 (Central Daylight Time),136305.5,A,flow,O,w,32,1,982.8999999761581,135322.60000002384,7092,WL,A,3.0
1,6.513999938964844,learn,53486.000061035156,Thu Mar 27 2025 14:41:32 GMT-0500 (Central Daylight Time),136355.30000001192,A,flowe,O,e,30,1,1032.699999988079,135322.60000002384,7092,WL,A,3.0
1,6.63100004196167,learn,53368.99995803833,Thu Mar 27 2025 14:41:32 GMT-0500 (Central Daylight Time),136472.5,A,flower,O,r,95,1,1149.8999999761581,135322.60000002384,7092,WL,A,3.0
1,7.062999963760376,learn,52937.000036239624,Thu Mar 27 2025 14:41:32 GMT-0500 (Central Daylight Time),136905.10000002384,A,flowerenter,O,enter,396,1,1582.5,135322.60000002384,7092,WL,A,3.0
1,7.247999906539917,learn,52752.00009346008,Thu Mar 27 2025 14:41:32 GMT-0500 (Central Daylight Time),137089.39999997616,A,f,O,f,172,1,184.0,136905.39999997616,7092,WL,A,4.0
1,7.363999843597412,learn,52636.00015640259,Thu Mar 27 2025 14:41:32 GMT-0500 (Central Daylight Time),137205.89999997616,A,fi,O,i,77,1,300.5,136905.39999997616,7092,WL,A,4.0
1,7.480000019073486,learn,52519.999980926514,Thu Mar 27 2025 14:41:32 GMT-0500 (Central Daylight Time),137321.89999997616,A,fin,O,n,71,1,416.5,136905.39999997616,7092,WL,A,4.0
1,7.546999931335449,learn,52453.00006866455,Thu Mar 27 2025 14:41:32 GMT-0500 (Central Daylight Time),137388.10000002384,A,fing,O,g,41,1,482.7000000476837,136905.39999997616,7092,WL,A,4.0
1,7.7809998989105225,learn,52219.00010108948,Thu Mar 27 2025 14:41:32 GMT-0500 (Central Daylight Time),137622.39999997616,A,finge,O,e,211,1,717.0,136905.39999997616,7092,WL,A,4.0
1,7.86299991607666,learn,52137.00008392334,Thu Mar 27 2025 14:41:32 GMT-0500 (Central Daylight Time),137704.80000001192,A,finger,O,r,39,1,799.4000000357628,136905.39999997616,7092,WL,A,4.0
1,8.379999876022339,learn,51620.00012397766,Thu Mar 27 2025 14:41:32 GMT-0500 (Central Daylight Time),138221.19999998808,A,fingerenter,O,enter,494,1,1315.800000011921,136905.39999997616,7092,WL,A,4.0
1,8.664000034332275,learn,51335.999965667725,Thu Mar 27 2025 14:41:32 GMT-0500 (Central Daylight Time),138505.30000001192,A,r,O,r,272,1,283.60000002384186,138221.69999998808,7092,WL,A,5.0
1,8.829999923706055,learn,51170.000076293945,Thu Mar 27 2025 14:41:32 GMT-0500 (Central Daylight Time),138672.10000002384,A,ru,O,u,135,1,450.4000000357628,138221.69999998808,7092,WL,A,5.0
1,8.980000019073486,learn,51019.999980926514,Thu Mar 27 2025 14:41:32 GMT-0500 (Central Daylight Time),138821.80000001192,A,rug,O,g,121,1,600.1000000238419,138221.69999998808,7092,WL,A,5.0
1,9.496000051498413,learn,50503.99994850159,Thu Mar 27 2025 14:41:32 GMT-0500 (Central Daylight Time),139337.60000002384,A,rugenter,O,enter,482,1,1115.9000000357628,138221.69999998808,7092,WL,A,5.0
1,9.996000051498413,learn,50003.99994850159,Thu Mar 27 2025 14:41:32 GMT-0500 (Central Daylight Time),139838.10000002384,A,b,O,b,492,1,500.2000000476837,139337.89999997616,7092,WL,A,6.0
1,10.11299991607666,learn,49887.00008392334,Thu Mar 27 2025 14:41:32 GMT-0500 (Central Daylight Time),139954.89999997616,A,bo,O,o,81,1,617.0,139337.89999997616,7092,WL,A,6.0
1,10.263000011444092,learn,49736.99998855591,Thu Mar 27 2025 14:41:32 GMT-0500 (Central Daylight Time),140105.10000002384,A,boo,O,o,115,1,767.2000000476837,139337.89999997616,7092,WL,A,6.0
1,10.379999876022339,learn,49620.00012397766,Thu Mar 27 2025 14:41:32 GMT-0500 (Central Daylight Time),140221.60000002384,A,book,O,k,79,1,883.7000000476837,139337.89999997616,7092,WL,A,6.0
1,10.746999979019165,learn,49253.000020980835,Thu Mar 27 2025 14:41:32 GMT-0500 (Central Daylight Time),140588.39999997616,A,bookenter,O,enter,329,1,1250.5,139337.89999997616,7092,WL,A,6.0
1,15.67799997329712,learn,44322.00002670288,Thu Mar 27 2025 14:41:32 GMT-0500 (Central Daylight Time),145519.39999997616,A,f,O,f,4921,1,4930.799999952316,140588.60000002384,7092,WL,A,7.0
1,15.776999950408936,learn,44223.000049591064,Thu Mar 27 2025 14:41:32 GMT-0500 (Central Daylight Time),145619.10000002384,A,fl,O,l,53,1,5030.5,140588.60000002384,7092,WL,A,7.0
1,15.977999925613403,learn,44022.0000743866,Thu Mar 27 2025 14:41:32 GMT-0500 (Central Daylight Time),145819.80000001192,A,flo,O,o,173,1,5231.199999988079,140588.60000002384,7092,WL,A,7.0
1,16.01099991798401,learn,43989.00008201599,Thu Mar 27 2025 14:41:32 GMT-0500 (Central Daylight Time),145852.60000002384,A,flow,O,w,3,1,5264.0,140588.60000002384,7092,WL,A,7.0
1,16.0939998626709,learn,43906.0001373291,Thu Mar 27 2025 14:41:32 GMT-0500 (Central Daylight Time),145935.30000001192,A,flowe,O,e,48,1,5346.699999988079,140588.60000002384,7092,WL,A,7.0
1,16.194999933242798,learn,43805.0000667572,Thu Mar 27 2025 14:41:32 GMT-0500 (Central Daylight Time),146036.30000001192,A,flower,O,r,88,1,5447.699999988079,140588.60000002384,7092,WL,A,7.0
1,16.55999994277954,learn,43440.00005722046,Thu Mar 27 2025 14:41:32 GMT-0500 (Central Daylight Time),146401.89999997616,A,flowerenter,O,enter,334,1,5813.299999952316,140588.60000002384,7092,WL,A,7.0
1,22.575000047683716,learn,37424.999952316284,Thu Mar 27 2025 14:41:32 GMT-0500 (Central Daylight Time),152416.80000001192,A,t,O,t,5995,1,6014.600000023842,146402.19999998808,7092,WL,A,8.0
1,22.825000047683716,learn,37174.999952316284,Thu Mar 27 2025 14:41:32 GMT-0500 (Central Daylight Time),152666.5,A,tr,O,r,231,1,6264.300000011921,146402.19999998808,7092,WL,A,8.0
1,22.95899987220764,learn,37041.00012779236,Thu Mar 27 2025 14:41:32 GMT-0500 (Central Daylight Time),152800.5,A,tra,O,a,122,1,6398.300000011921,146402.19999998808,7092,WL,A,8.0
1,23.108999967575073,learn,36891.00003242493,Thu Mar 27 2025 14:41:32 GMT-0500 (Central Daylight Time),152950.69999998808,A,trai,O,i,122,1,6548.5,146402.19999998808,7092,WL,A,8.0
1,23.22499990463257,learn,36775.00009536743,Thu Mar 27 2025 14:41:32 GMT-0500 (Central Daylight Time),153066.60000002384,A,train,O,n,75,1,6664.400000035763,146402.19999998808,7092,WL,A,8.0
1,23.575000047683716,learn,36424.999952316284,Thu Mar 27 2025 14:41:32 GMT-0500 (Central Daylight Time),153416.19999998808,A,trainenter,O,enter,332,1,7014.0,146402.19999998808,7092,WL,A,8.0
1,23.875999927520752,learn,36124.00007247925,Thu Mar 27 2025 14:41:32 GMT-0500 (Central Daylight Time),153717.39999997616,A,c,O,c,293,1,300.7999999523163,153416.60000002384,7092,WL,A,9.0
1,24.009000062942505,learn,35990.999937057495,Thu Mar 27 2025 14:41:32 GMT-0500 (Central Daylight Time),153850.5,A,ch,O,h,102,1,433.89999997615814,153416.60000002384,7092,WL,A,9.0
1,24.090999841690063,learn,35909.00015830994,Thu Mar 27 2025 14:41:32 GMT-0500 (Central Daylight Time),153932.89999997616,A,chi,O,i,54,1,516.2999999523163,153416.60000002384,7092,WL,A,9.0
1,24.325000047683716,learn,35674.999952316284,Thu Mar 27 2025 14:41:32 GMT-0500 (Central Daylight Time),154167.0,A,chim,O,m,209,1,750.3999999761581,153416.60000002384,7092,WL,A,9.0
1,24.658999919891357,learn,35341.00008010864,Thu Mar 27 2025 14:41:32 GMT-0500 (Central Daylight Time),154500.30000001192,A,chimn,O,n,300,1,1083.699999988079,153416.60000002384,7092,WL,A,9.0
1,24.774999856948853,learn,35225.00014305115,Thu Mar 27 2025 14:41:32 GMT-0500 (Central Daylight Time),154616.80000001192,A,chimne,O,e,87,1,1200.199999988079,153416.60000002384,7092,WL,A,9.0
1,24.891000032424927,learn,35108.99996757507,Thu Mar 27 2025 14:41:32 GMT-0500 (Central Daylight Time),154733.10000002384,A,chimney,O,y,80,1,1316.5,153416.60000002384,7092,WL,A,9.0
1,25.240999937057495,learn,34759.000062942505,Thu Mar 27 2025 14:41:32 GMT-0500 (Central Daylight Time),155082.39999997616,A,chimneyenter,O,enter,318,1,1665.7999999523163,153416.60000002384,7092,WL,A,9.0
1,32.055999994277954,learn,27944.000005722046,Thu Mar 27 2025 14:41:32 GMT-0500 (Central Daylight Time),161897.60000002384,A,k,O,k,6795,1,6814.900000035763,155082.69999998808,7092,WL,A,10.0
1,32.17199993133545,learn,27828.00006866455,Thu Mar 27 2025 14:41:32 GMT-0500 (Central Daylight Time),162013.69999998808,A,ke,O,e,75,1,6931.0,155082.69999998808,7092,WL,A,10.0
1,32.27199983596802,learn,27728.000164031982,Thu Mar 27 2025 14:41:32 GMT-0500 (Central Daylight Time),162113.69999998808,A,key,O,y,73,1,7031.0,155082.69999998808,7092,WL,A,10.0
1,32.58800005912781,learn,27411.999940872192,Thu Mar 27 2025 14:41:32 GMT-0500 (Central Daylight Time),162430.0,A,keyenter,O,enter,293,1,7347.300000011921,155082.69999998808,7092,WL,A,10.0
1,60.013999938964844,learn,-13.99993896484375,Thu Mar 27 2025 14:41:32 GMT-0500 (Central Daylight Time),189855.60000002384,A,None,O,None,27419,1,27425.400000035763,162430.19999998808,7092,WL,A,11.0
2,0.8659999370574951,learn,59134.000062942505,Thu Mar 27 2025 14:41:32 GMT-0500 (Central Daylight Time),273078.0,A,c,O,c,843,1,865.6999999880791,272212.3000000119,7092,WL,A,1.0
2,1.0329999923706055,learn,58967.000007629395,Thu Mar 27 2025 14:41:32 GMT-0500 (Central Daylight Time),273244.5,A,ch,O,h,135,1,1032.199999988079,272212.3000000119,7092,WL,A,1.0
2,1.1329998970031738,learn,58867.000102996826,Thu Mar 27 2025 14:41:32 GMT-0500 (Central Daylight Time),273344.3000000119,A,chi,O,i,61,1,1132.0,272212.3000000119,7092,WL,A,1.0
2,1.315999984741211,learn,58684.00001525879,Thu Mar 27 2025 14:41:32 GMT-0500 (Central Daylight Time),273527.60000002384,A,chim,O,m,156,1,1315.300000011921,272212.3000000119,7092,WL,A,1.0
2,1.6489999294281006,learn,58351.0000705719,Thu Mar 27 2025 14:41:32 GMT-0500 (Central Daylight Time),273860.1999999881,A,chimn,O,n,308,1,1647.8999999761581,272212.3000000119,7092,WL,A,1.0
2,1.748999834060669,learn,58251.00016593933,Thu Mar 27 2025 14:41:32 GMT-0500 (Central Daylight Time),273960.8000000119,A,chimne,O,e,73,1,1748.5,272212.3000000119,7092,WL,A,1.0
2,1.8819999694824219,learn,58118.00003051758,Thu Mar 27 2025 14:41:32 GMT-0500 (Central Daylight Time),274094.10000002384,A,chimney,O,y,110,1,1881.800000011921,272212.3000000119,7092,WL,A,1.0
2,2.5319998264312744,learn,57468.000173568726,Thu Mar 27 2025 14:41:32 GMT-0500 (Central Daylight Time),274743.10000002384,A,chimneyenter,O,enter,612,1,2530.800000011921,272212.3000000119,7092,WL,A,1.0
2,3.6489999294281006,learn,56351.0000705719,Thu Mar 27 2025 14:41:32 GMT-0500 (Central Daylight Time),275860.89999997616,A,b,O,b,1110,1,1117.5,274743.39999997616,7092,WL,A,2.0
2,3.8489999771118164,learn,56151.00002288818,Thu Mar 27 2025 14:41:32 GMT-0500 (Central Daylight Time),276060.60000002384,A,bo,O,o,165,1,1317.2000000476837,274743.39999997616,7092,WL,A,2.0
2,3.998999834060669,learn,56001.00016593933,Thu Mar 27 2025 14:41:32 GMT-0500 (Central Daylight Time),276210.5,A,boo,O,o,109,1,1467.1000000238419,274743.39999997616,7092,WL,A,2.0
2,4.098999977111816,learn,55901.00002288818,Thu Mar 27 2025 14:41:32 GMT-0500 (Central Daylight Time),276310.1999999881,A,book,O,k,69,1,1566.800000011921,274743.39999997616,7092,WL,A,2.0
2,4.480999946594238,learn,55519.00005340576,Thu Mar 27 2025 14:41:32 GMT-0500 (Central Daylight Time),276692.5,A,bookenter,O,enter,347,1,1949.1000000238419,274743.39999997616,7092,WL,A,2.0
2,4.73199987411499,learn,55268.00012588501,Thu Mar 27 2025 14:41:32 GMT-0500 (Central Daylight Time),276943.3000000119,A,f,O,f,241,1,250.5,276692.8000000119,7092,WL,A,3.0
2,4.830999851226807,learn,55169.00014877319,Thu Mar 27 2025 14:41:32 GMT-0500 (Central Daylight Time),277042.6999999881,A,fl,O,l,59,1,349.89999997615814,276692.8000000119,7092,WL,A,3.0
2,5.031999826431274,learn,54968.000173568726,Thu Mar 27 2025 14:41:32 GMT-0500 (Central Daylight Time),277243.10000002384,A,flo,O,o,167,1,550.3000000119209,276692.8000000119,7092,WL,A,3.0
2,5.096999883651733,learn,54903.00011634827,Thu Mar 27 2025 14:41:32 GMT-0500 (Central Daylight Time),277309.0,A,flow,O,w,24,1,616.1999999880791,276692.8000000119,7092,WL,A,3.0
2,5.129999876022339,learn,54870.00012397766,Thu Mar 27 2025 14:41:32 GMT-0500 (Central Daylight Time),277342.0,A,flowe,O,e,17,1,649.1999999880791,276692.8000000119,7092,WL,A,3.0
2,5.247999906539917,learn,54752.00009346008,Thu Mar 27 2025 14:41:32 GMT-0500 (Central Daylight Time),277459.1999999881,A,flower,O,r,103,1,766.3999999761581,276692.8000000119,7092,WL,A,3.0
2,5.546999931335449,learn,54453.00006866455,Thu Mar 27 2025 14:41:32 GMT-0500 (Central Daylight Time),277758.6999999881,A,flowerenter,O,enter,277,1,1065.8999999761581,276692.8000000119,7092,WL,A,3.0
2,5.865000009536743,learn,54134.99999046326,Thu Mar 27 2025 14:41:32 GMT-0500 (Central Daylight Time),278076.3000000119,A,m,O,m,303,1,317.30000001192093,277759.0,7092,WL,A,4.0
2,5.913999795913696,learn,54086.000204086304,Thu Mar 27 2025 14:41:32 GMT-0500 (Central Daylight Time),278125.60000002384,A,me,O,e,11,1,366.60000002384186,277759.0,7092,WL,A,4.0
2,6.013999938964844,learn,53986.000061035156,Thu Mar 27 2025 14:41:32 GMT-0500 (Central Daylight Time),278226.0,A,mea,O,a,74,1,467.0,277759.0,7092,WL,A,4.0
2,6.313999891281128,learn,53686.00010871887,Thu Mar 27 2025 14:41:32 GMT-0500 (Central Daylight Time),278525.89999997616,A,mead,O,d,274,1,766.8999999761581,277759.0,7092,WL,A,4.0
2,6.447999954223633,learn,53552.00004577637,Thu Mar 27 2025 14:41:32 GMT-0500 (Central Daylight Time),278659.10000002384,A,meado,O,o,100,1,900.1000000238419,277759.0,7092,WL,A,4.0
2,6.597999811172485,learn,53402.000188827515,Thu Mar 27 2025 14:41:32 GMT-0500 (Central Daylight Time),278809.1999999881,A,meadow,O,w,124,1,1050.199999988079,277759.0,7092,WL,A,4.0
2,6.829999923706055,learn,53170.000076293945,Thu Mar 27 2025 14:41:32 GMT-0500 (Central Daylight Time),279041.6999999881,A,meadowenter,O,enter,196,1,1282.699999988079,277759.0,7092,WL,A,4.0
2,7.763999938964844,learn,52236.000061035156,Thu Mar 27 2025 14:41:32 GMT-0500 (Central Daylight Time),279975.60000002384,A,k,O,k,924,1,933.6000000238419,279042.0,7092,WL,A,5.0
2,7.829999923706055,learn,52170.000076293945,Thu Mar 27 2025 14:41:32 GMT-0500 (Central Daylight Time),280041.3000000119,A,ke,O,e,28,1,999.3000000119209,279042.0,7092,WL,A,5.0
2,7.96399998664856,learn,52036.00001335144,Thu Mar 27 2025 14:41:32 GMT-0500 (Central Daylight Time),280175.5,A,key,O,y,124,1,1133.5,279042.0,7092,WL,A,5.0
2,8.212999820709229,learn,51787.00017929077,Thu Mar 27 2025 14:41:32 GMT-0500 (Central Daylight Time),280424.5,A,keyenter,O,enter,218,1,1382.5,279042.0,7092,WL,A,5.0
2,9.52999997138977,learn,50470.00002861023,Thu Mar 27 2025 14:41:32 GMT-0500 (Central Daylight Time),281741.8000000119,A,g,O,g,1301,1,1317.0,280424.8000000119,7092,WL,A,6.0
2,9.629999876022339,learn,50370.00012397766,Thu Mar 27 2025 14:41:32 GMT-0500 (Central Daylight Time),281841.6999999881,A,go,O,o,60,1,1416.8999999761581,280424.8000000119,7092,WL,A,6.0
2,9.77999997138977,learn,50220.00002861023,Thu Mar 27 2025 14:41:32 GMT-0500 (Central Daylight Time),281991.60000002384,A,gol,O,l,110,1,1566.800000011921,280424.8000000119,7092,WL,A,6.0
2,9.861999988555908,learn,50138.00001144409,Thu Mar 27 2025 14:41:32 GMT-0500 (Central Daylight Time),282073.8000000119,A,gold,O,d,39,1,1649.0,280424.8000000119,7092,WL,A,6.0
2,9.961999893188477,learn,50038.00010681152,Thu Mar 27 2025 14:41:32 GMT-0500 (Central Daylight Time),282174.0,A,goldenter,O,enter,88,1,1749.199999988079,280424.8000000119,7092,WL,A,6.0
2,11.346999883651733,learn,48653.00011634827,Thu Mar 27 2025 14:41:32 GMT-0500 (Central Daylight Time),283558.6999999881,A,b,O,b,1368,1,1384.5,282174.1999999881,7092,WL,A,7.0
2,11.428999900817871,learn,48571.00009918213,Thu Mar 27 2025 14:41:32 GMT-0500 (Central Daylight Time),283640.3000000119,A,bu,O,u,49,1,1466.1000000238419,282174.1999999881,7092,WL,A,7.0
2,11.662999868392944,learn,48337.000131607056,Thu Mar 27 2025 14:41:32 GMT-0500 (Central Daylight Time),283874.39999997616,A,but,O,t,209,1,1700.199999988079,282174.1999999881,7092,WL,A,7.0
2,11.811999797821045,learn,48188.000202178955,Thu Mar 27 2025 14:41:32 GMT-0500 (Central Daylight Time),284024.10000002384,A,butt,O,t,122,1,1849.9000000357628,282174.1999999881,7092,WL,A,7.0
2,11.912999868392944,learn,48087.000131607056,Thu Mar 27 2025 14:41:32 GMT-0500 (Central Daylight Time),284124.3000000119,A,butto,O,o,69,1,1950.1000000238419,282174.1999999881,7092,WL,A,7.0
2,11.964999914169312,learn,48035.00008583069,Thu Mar 27 2025 14:41:32 GMT-0500 (Central Daylight Time),284176.3000000119,A,button,O,n,20,1,2002.1000000238419,282174.1999999881,7092,WL,A,7.0
2,12.277999877929688,learn,47722.00012207031,Thu Mar 27 2025 14:41:32 GMT-0500 (Central Daylight Time),284489.89999997616,A,buttonenter,O,enter,286,1,2315.699999988079,282174.1999999881,7092,WL,A,7.0
2,13.527999877929688,learn,46472.00012207031,Thu Mar 27 2025 14:41:32 GMT-0500 (Central Daylight Time),285739.1999999881,A,r,O,r,1243,1,1249.0,284490.1999999881,7092,WL,A,8.0
2,13.66100001335144,learn,46338.99998664856,Thu Mar 27 2025 14:41:32 GMT-0500 (Central Daylight Time),285872.60000002384,A,ru,O,u,118,1,1382.4000000357628,284490.1999999881,7092,WL,A,8.0
2,13.760999917984009,learn,46239.00008201599,Thu Mar 27 2025 14:41:32 GMT-0500 (Central Daylight Time),285972.60000002384,A,rug,O,g,91,1,1482.4000000357628,284490.1999999881,7092,WL,A,8.0
2,13.893999814987183,learn,46106.00018501282,Thu Mar 27 2025 14:41:32 GMT-0500 (Central Daylight Time),286105.89999997616,A,rugenter,O,enter,109,1,1615.699999988079,284490.1999999881,7092,WL,A,8.0
2,14.893999814987183,learn,45106.00018501282,Thu Mar 27 2025 14:41:32 GMT-0500 (Central Daylight Time),287105.60000002384,A,l,O,l,985,1,999.3000000119209,286106.3000000119,7092,WL,A,9.0
2,15.07699990272522,learn,44923.00009727478,Thu Mar 27 2025 14:41:32 GMT-0500 (Central Daylight Time),287288.6999999881,A,lo,O,o,162,1,1182.3999999761581,286106.3000000119,7092,WL,A,9.0
2,15.109999895095825,learn,44890.000104904175,Thu Mar 27 2025 14:41:32 GMT-0500 (Central Daylight Time),287322.0,A,log,O,g,18,1,1215.699999988079,286106.3000000119,7092,WL,A,9.0
2,15.259999990463257,learn,44740.00000953674,Thu Mar 27 2025 14:41:32 GMT-0500 (Central Daylight Time),287471.89999997616,A,logenter,O,enter,138,1,1365.5999999642372,286106.3000000119,7092,WL,A,9.0
2,15.810999870300293,learn,44189.00012969971,Thu Mar 27 2025 14:41:32 GMT-0500 (Central Daylight Time),288022.89999997616,A,b,O,b,541,1,550.5999999642372,287472.3000000119,7092,WL,A,10.0
2,15.977999925613403,learn,44022.0000743866,Thu Mar 27 2025 14:41:32 GMT-0500 (Central Daylight Time),288189.39999997616,A,bu,O,u,140,1,717.0999999642372,287472.3000000119,7092,WL,A,10.0
2,16.0939998626709,learn,43906.0001373291,Thu Mar 27 2025 14:41:32 GMT-0500 (Central Daylight Time),288306.0,A,but,O,t,86,1,833.6999999880791,287472.3000000119,7092,WL,A,10.0
2,16.259999990463257,learn,43740.00000953674,Thu Mar 27 2025 14:41:32 GMT-0500 (Central Daylight Time),288472.0,A,butt,O,t,148,1,999.6999999880791,287472.3000000119,7092,WL,A,10.0
2,16.378000020980835,learn,43621.999979019165,Thu Mar 27 2025 14:41:32 GMT-0500 (Central Daylight Time),288589.60000002384,A,butto,O,o,109,1,1117.300000011921,287472.3000000119,7092,WL,A,10.0
2,16.460999965667725,learn,43539.000034332275,Thu Mar 27 2025 14:41:32 GMT-0500 (Central Daylight Time),288672.10000002384,A,button,O,n,56,1,1199.800000011921,287472.3000000119,7092,WL,A,10.0
2,16.694000005722046,learn,43305.999994277954,Thu Mar 27 2025 14:41:32 GMT-0500 (Central Daylight Time),288905.0,A,buttonenter,O,enter,214,1,1432.699999988079,287472.3000000119,7092,WL,A,10.0
2,17.26099991798401,learn,42739.00008201599,Thu Mar 27 2025 14:41:32 GMT-0500 (Central Daylight Time),289472.60000002384,A,r,O,r,549,1,567.3000000119209,288905.3000000119,7092,WL,A,11.0
2,17.66100001335144,learn,42338.99998664856,Thu Mar 27 2025 14:41:32 GMT-0500 (Central Daylight Time),289872.39999997616,A,,O,backspace,362,1,967.0999999642372,288905.3000000119,7092,WL,A,11.0
2,17.709999799728394,learn,42290.00020027161,Thu Mar 27 2025 14:41:32 GMT-0500 (Central Daylight Time),289921.6999999881,A,t,O,t,11,1,1016.3999999761581,288905.3000000119,7092,WL,A,11.0
2,17.893999814987183,learn,42106.00018501282,Thu Mar 27 2025 14:41:32 GMT-0500 (Central Daylight Time),290105.6999999881,A,tr,O,r,162,1,1200.3999999761581,288905.3000000119,7092,WL,A,11.0
2,18.026999950408936,learn,41973.000049591064,Thu Mar 27 2025 14:41:32 GMT-0500 (Central Daylight Time),290238.8000000119,A,tra,O,a,105,1,1333.5,288905.3000000119,7092,WL,A,11.0
2,18.092999935150146,learn,41907.00006484985,Thu Mar 27 2025 14:41:32 GMT-0500 (Central Daylight Time),290304.89999997616,A,trai,O,i,39,1,1399.5999999642372,288905.3000000119,7092,WL,A,11.0
2,18.176999807357788,learn,41823.00019264221,Thu Mar 27 2025 14:41:32 GMT-0500 (Central Daylight Time),290388.89999997616,A,train,O,n,64,1,1483.5999999642372,288905.3000000119,7092,WL,A,11.0
2,18.575999975204468,learn,41424.00002479553,Thu Mar 27 2025 14:41:32 GMT-0500 (Central Daylight Time),290787.60000002384,A,trainenter,O,enter,375,1,1882.300000011921,288905.3000000119,7092,WL,A,11.0
2,24.95799994468689,learn,35042.00005531311,Thu Mar 27 2025 14:41:32 GMT-0500 (Central Daylight Time),297169.0,A,b,O,b,6360,1,6381.0,290788.0,7092,WL,A,12.0
2,25.14199995994568,learn,34858.00004005432,Thu Mar 27 2025 14:41:32 GMT-0500 (Central Daylight Time),297353.10000002384,A,bu,O,u,171,1,6565.100000023842,290788.0,7092,WL,A,12.0
2,25.375,learn,34625.0,Thu Mar 27 2025 14:41:32 GMT-0500 (Central Daylight Time),297586.39999997616,A,but,O,t,202,1,6798.399999976158,290788.0,7092,WL,A,12.0
2,25.574999809265137,learn,34425.00019073486,Thu Mar 27 2025 14:41:32 GMT-0500 (Central Daylight Time),297786.5,A,butt,O,t,163,1,6998.5,290788.0,7092,WL,A,12.0
2,25.640999794006348,learn,34359.00020599365,Thu Mar 27 2025 14:41:32 GMT-0500 (Central Daylight Time),297852.0,A,butto,O,o,32,1,7064.0,290788.0,7092,WL,A,12.0
2,25.740999937057495,learn,34259.000062942505,Thu Mar 27 2025 14:41:32 GMT-0500 (Central Daylight Time),297952.39999997616,A,button,O,n,80,1,7164.399999976158,290788.0,7092,WL,A,12.0
2,25.990999937057495,learn,34009.000062942505,Thu Mar 27 2025 14:41:32 GMT-0500 (Central Daylight Time),298202.0,A,buttonenter,O,enter,227,1,7414.0,290788.0,7092,WL,A,12.0
2,35.23899984359741,learn,24761.000156402588,Thu Mar 27 2025 14:41:32 GMT-0500 (Central Daylight Time),307450.0,A,a,O,a,9227,1,9247.699999988079,298202.3000000119,7092,WL,A,13.0
2,35.32099986076355,learn,24679.00013923645,Thu Mar 27 2025 14:41:32 GMT-0500 (Central Daylight Time),307532.39999997616,A,ap,O,p,55,1,9330.099999964237,298202.3000000119,7092,WL,A,13.0
2,35.48899984359741,learn,24511.000156402588,Thu Mar 27 2025 14:41:32 GMT-0500 (Central Daylight Time),307700.1999999881,A,app,O,p,142,1,9497.899999976158,298202.3000000119,7092,WL,A,13.0
2,35.73899984359741,learn,24261.000156402588,Thu Mar 27 2025 14:41:32 GMT-0500 (Central Daylight Time),307949.89999997616,A,appl,O,l,215,1,9747.599999964237,298202.3000000119,7092,WL,A,13.0
2,35.83799982070923,learn,24162.00017929077,Thu Mar 27 2025 14:41:32 GMT-0500 (Central Daylight Time),308049.0,A,apple,O,e,59,1,9846.699999988079,298202.3000000119,7092,WL,A,13.0
2,36.437999963760376,learn,23562.000036239624,Thu Mar 27 2025 14:41:32 GMT-0500 (Central Daylight Time),308648.60000002384,A,appleenter,O,enter,572,1,10446.300000011921,298202.3000000119,7092,WL,A,13.0
2,38.00399994850159,learn,21996.000051498413,Thu Mar 27 2025 14:41:32 GMT-0500 (Central Daylight Time),310215.10000002384,A,k,O,k,1548,1,1566.2000000476837,308648.89999997616,7092,WL,A,14.0
2,38.120999813079834,learn,21879.000186920166,Thu Mar 27 2025 14:41:32 GMT-0500 (Central Daylight Time),310332.39999997616,A,ke,O,e,102,1,1683.5,308648.89999997616,7092,WL,A,14.0
2,38.25499987602234,learn,21745.00012397766,Thu Mar 27 2025 14:41:32 GMT-0500 (Central Daylight Time),310465.60000002384,A,key,O,y,99,1,1816.7000000476837,308648.89999997616,7092,WL,A,14.0
2,39.835999965667725,learn,20164.000034332275,Thu Mar 27 2025 14:41:32 GMT-0500 (Central Daylight Time),312047.3000000119,A,keyenter,O,enter,1552,1,3398.400000035763,308648.89999997616,7092,WL,A,14.0
2,47.400999784469604,learn,12599.000215530396,Thu Mar 27 2025 14:41:32 GMT-0500 (Central Daylight Time),319611.60000002384,A,enter,O,enter,7541,1,7564.100000023842,312047.5,7092,WL,A,15.0
3,0.7829999923706055,learn,59217.000007629395,Thu Mar 27 2025 14:41:32 GMT-0500 (Central Daylight Time),391705.39999997616,A,r,O,r,755,1,782.5999999642372,390922.8000000119,7092,WL,A,1.0
3,1.0160000324249268,learn,58983.99996757507,Thu Mar 27 2025 14:41:32 GMT-0500 (Central Daylight Time),391938.89999997616,A,ra,O,a,190,1,1016.0999999642372,390922.8000000119,7092,WL,A,1.0
3,1.2160000801086426,learn,58783.99991989136,Thu Mar 27 2025 14:41:32 GMT-0500 (Central Daylight Time),392138.89999997616,A,rat,O,t,164,1,1216.0999999642372,390922.8000000119,7092,WL,A,1.0
3,1.4000000953674316,learn,58599.99990463257,Thu Mar 27 2025 14:41:32 GMT-0500 (Central Daylight Time),392322.3000000119,A,ratt,O,t,144,1,1399.5,390922.8000000119,7092,WL,A,1.0
3,1.5329999923706055,learn,58467.000007629395,Thu Mar 27 2025 14:41:32 GMT-0500 (Central Daylight Time),392455.3000000119,A,rattl,O,l,104,1,1532.5,390922.8000000119,7092,WL,A,1.0
3,1.5970001220703125,learn,58402.99987792969,Thu Mar 27 2025 14:41:32 GMT-0500 (Central Daylight Time),392519.3000000119,A,rattle,O,e,35,1,1596.5,390922.8000000119,7092,WL,A,1.0
3,1.9160001277923584,learn,58083.99987220764,Thu Mar 27 2025 14:41:32 GMT-0500 (Central Daylight Time),392838.3000000119,A,rattlec,O,c,297,1,1915.5,390922.8000000119,7092,WL,A,1.0
3,2.5490000247955322,learn,57450.99997520447,Thu Mar 27 2025 14:41:32 GMT-0500 (Central Daylight Time),393471.8000000119,A,rattle,O,backspace,607,1,2549.0,390922.8000000119,7092,WL,A,1.0
3,2.997999906539917,learn,57002.00009346008,Thu Mar 27 2025 14:41:32 GMT-0500 (Central Daylight Time),393920.60000002384,A,rattleenter,O,enter,422,1,2997.800000011921,390922.8000000119,7092,WL,A,1.0
3,4.232000112533569,learn,55767.99988746643,Thu Mar 27 2025 14:41:32 GMT-0500 (Central Daylight Time),395154.5,A,c,O,c,1221,1,1233.6000000238419,393920.89999997616,7092,WL,A,2.0
3,4.365000009536743,learn,55634.99999046326,Thu Mar 27 2025 14:41:32 GMT-0500 (Central Daylight Time),395287.3000000119,A,ch,O,h,102,1,1366.4000000357628,393920.89999997616,7092,WL,A,2.0
3,4.480999946594238,learn,55519.00005340576,Thu Mar 27 2025 14:41:32 GMT-0500 (Central Daylight Time),395403.89999997616,A,chi,O,i,78,1,1483.0,393920.89999997616,7092,WL,A,2.0
3,4.697999954223633,learn,55302.00004577637,Thu Mar 27 2025 14:41:32 GMT-0500 (Central Daylight Time),395620.89999997616,A,chim,O,m,184,1,1700.0,393920.89999997616,7092,WL,A,2.0
3,5.082000017166138,learn,54917.99998283386,Thu Mar 27 2025 14:41:32 GMT-0500 (Central Daylight Time),396004.1999999881,A,chimn,O,n,341,1,2083.300000011921,393920.89999997616,7092,WL,A,2.0
3,5.180999994277954,learn,54819.000005722046,Thu Mar 27 2025 14:41:32 GMT-0500 (Central Daylight Time),396103.10000002384,A,chimne,O,e,62,1,2182.2000000476837,393920.89999997616,7092,WL,A,2.0
3,5.315000057220459,learn,54684.99994277954,Thu Mar 27 2025 14:41:32 GMT-0500 (Central Daylight Time),396237.60000002384,A,chimney,O,y,118,1,2316.7000000476837,393920.89999997616,7092,WL,A,2.0
3,5.63100004196167,learn,54368.99995803833,Thu Mar 27 2025 14:41:32 GMT-0500 (Central Daylight Time),396553.3000000119,A,chimneyenter,O,enter,276,1,2632.400000035763,393920.89999997616,7092,WL,A,2.0
3,6.813999891281128,learn,53186.00010871887,Thu Mar 27 2025 14:41:32 GMT-0500 (Central Daylight Time),397736.89999997616,A,b,O,b,1172,1,1183.2999999523163,396553.60000002384,7092,WL,A,3.0
3,6.947999954223633,learn,53052.00004577637,Thu Mar 27 2025 14:41:32 GMT-0500 (Central Daylight Time),397870.1999999881,A,bo,O,o,98,1,1316.5999999642372,396553.60000002384,7092,WL,A,3.0
3,7.0980000495910645,learn,52901.999950408936,Thu Mar 27 2025 14:41:32 GMT-0500 (Central Daylight Time),398020.0,A,boo,O,o,110,1,1466.3999999761581,396553.60000002384,7092,WL,A,3.0
3,7.230999946594238,learn,52769.00005340576,Thu Mar 27 2025 14:41:32 GMT-0500 (Central Daylight Time),398153.89999997616,A,book,O,k,95,1,1600.2999999523163,396553.60000002384,7092,WL,A,3.0
3,7.5299999713897705,learn,52470.00002861023,Thu Mar 27 2025 14:41:32 GMT-0500 (Central Daylight Time),398452.3000000119,A,bookenter,O,enter,269,1,1898.699999988079,396553.60000002384,7092,WL,A,3.0
3,7.7809998989105225,learn,52219.00010108948,Thu Mar 27 2025 14:41:32 GMT-0500 (Central Daylight Time),398703.3000000119,A,f,O,f,241,1,250.69999998807907,398452.60000002384,7092,WL,A,4.0
3,7.914000034332275,learn,52085.999965667725,Thu Mar 27 2025 14:41:32 GMT-0500 (Central Daylight Time),398836.5,A,fl,O,l,99,1,383.89999997615814,398452.60000002384,7092,WL,A,4.0
3,8.097000122070312,learn,51902.99987792969,Thu Mar 27 2025 14:41:32 GMT-0500 (Central Daylight Time),399020.0,A,flo,O,o,151,1,567.3999999761581,398452.60000002384,7092,WL,A,4.0
3,8.163000106811523,learn,51836.99989318848,Thu Mar 27 2025 14:41:32 GMT-0500 (Central Daylight Time),399085.8000000119,A,flow,O,w,30,1,633.1999999880791,398452.60000002384,7092,WL,A,4.0
3,8.213000059127808,learn,51786.99994087219,Thu Mar 27 2025 14:41:32 GMT-0500 (Central Daylight Time),399135.3000000119,A,flowe,O,e,25,1,682.6999999880791,398452.60000002384,7092,WL,A,4.0
3,8.29699993133545,learn,51703.00006866455,Thu Mar 27 2025 14:41:32 GMT-0500 (Central Daylight Time),399219.6999999881,A,flower,O,r,59,1,767.0999999642372,398452.60000002384,7092,WL,A,4.0
3,8.913000106811523,learn,51086.99989318848,Thu Mar 27 2025 14:41:32 GMT-0500 (Central Daylight Time),399835.1999999881,A,flowerenter,O,enter,572,1,1382.5999999642372,398452.60000002384,7092,WL,A,4.0
3,9.513000011444092,learn,50486.99998855591,Thu Mar 27 2025 14:41:32 GMT-0500 (Central Daylight Time),400436.0,A,m,O,m,587,1,600.5,399835.5,7092,WL,A,5.0
3,9.61299991607666,learn,50387.00008392334,Thu Mar 27 2025 14:41:32 GMT-0500 (Central Daylight Time),400535.10000002384,A,me,O,e,62,1,699.6000000238419,399835.5,7092,WL,A,5.0
3,9.713000059127808,learn,50286.99994087219,Thu Mar 27 2025 14:41:32 GMT-0500 (Central Daylight Time),400635.39999997616,A,mea,O,a,81,1,799.8999999761581,399835.5,7092,WL,A,5.0
3,10.04699993133545,learn,49953.00006866455,Thu Mar 27 2025 14:41:32 GMT-0500 (Central Daylight Time),400969.1999999881,A,mead,O,d,306,1,1133.699999988079,399835.5,7092,WL,A,5.0
3,10.213000059127808,learn,49786.99994087219,Thu Mar 27 2025 14:41:32 GMT-0500 (Central Daylight Time),401135.60000002384,A,meado,O,o,138,1,1300.1000000238419,399835.5,7092,WL,A,5.0
3,10.313999891281128,learn,49686.00010871887,Thu Mar 27 2025 14:41:32 GMT-0500 (Central Daylight Time),401236.3000000119,A,meadow,O,w,75,1,1400.800000011921,399835.5,7092,WL,A,5.0
3,10.496000051498413,learn,49503.99994850159,Thu Mar 27 2025 14:41:32 GMT-0500 (Central Daylight Time),401418.0,A,meadowenter,O,enter,149,1,1582.5,399835.5,7092,WL,A,5.0
3,11.263000011444092,learn,48736.99998855591,Thu Mar 27 2025 14:41:32 GMT-0500 (Central Daylight Time),402185.39999997616,A,h,O,h,756,1,767.0999999642372,401418.3000000119,7092,WL,A,6.0
3,11.378999948501587,learn,48621.00005149841,Thu Mar 27 2025 14:41:32 GMT-0500 (Central Daylight Time),402301.39999997616,A,ha,O,a,78,1,883.0999999642372,401418.3000000119,7092,WL,A,6.0
3,11.678999900817871,learn,48321.00009918213,Thu Mar 27 2025 14:41:32 GMT-0500 (Central Daylight Time),402601.89999997616,A,har,O,r,266,1,1183.5999999642372,401418.3000000119,7092,WL,A,6.0
3,11.796000003814697,learn,48203.9999961853,Thu Mar 27 2025 14:41:32 GMT-0500 (Central Daylight Time),402718.3000000119,A,harm,O,m,89,1,1300.0,401418.3000000119,7092,WL,A,6.0
3,12.196000099182129,learn,47803.99990081787,Thu Mar 27 2025 14:41:32 GMT-0500 (Central Daylight Time),403118.3000000119,A,har,O,backspace,372,1,1700.0,401418.3000000119,7092,WL,A,6.0
3,12.663000106811523,learn,47336.99989318848,Thu Mar 27 2025 14:41:32 GMT-0500 (Central Daylight Time),403585.1999999881,A,harp,O,p,429,1,2166.899999976158,401418.3000000119,7092,WL,A,6.0
3,12.960999965667725,learn,47039.000034332275,Thu Mar 27 2025 14:41:32 GMT-0500 (Central Daylight Time),403883.8000000119,A,harpenter,O,enter,271,1,2465.5,401418.3000000119,7092,WL,A,6.0
3,13.361999988555908,learn,46638.00001144409,Thu Mar 27 2025 14:41:32 GMT-0500 (Central Daylight Time),404285.0,A,s,O,s,394,1,401.0,403884.0,7092,WL,A,7.0
3,13.545000076293945,learn,46454.999923706055,Thu Mar 27 2025 14:41:32 GMT-0500 (Central Daylight Time),404467.89999997616,A,sa,O,a,142,1,583.8999999761581,403884.0,7092,WL,A,7.0
3,13.644999980926514,learn,46355.000019073486,Thu Mar 27 2025 14:41:32 GMT-0500 (Central Daylight Time),404568.0,A,sal,O,l,71,1,684.0,403884.0,7092,WL,A,7.0
3,13.812000036239624,learn,46187.999963760376,Thu Mar 27 2025 14:41:32 GMT-0500 (Central Daylight Time),404734.60000002384,A,salt,O,t,131,1,850.6000000238419,403884.0,7092,WL,A,7.0
3,14.07800006866455,learn,45921.99993133545,Thu Mar 27 2025 14:41:32 GMT-0500 (Central Daylight Time),405000.3000000119,A,saltenter,O,enter,227,1,1116.300000011921,403884.0,7092,WL,A,7.0
3,14.594000101089478,learn,45405.99989891052,Thu Mar 27 2025 14:41:32 GMT-0500 (Central Daylight Time),405516.6999999881,A,b,O,b,501,1,516.0999999642372,405000.60000002384,7092,WL,A,8.0
3,14.694000005722046,learn,45305.999994277954,Thu Mar 27 2025 14:41:32 GMT-0500 (Central Daylight Time),405616.5,A,bu,O,u,79,1,615.8999999761581,405000.60000002384,7092,WL,A,8.0
3,14.861000061035156,learn,45138.999938964844,Thu Mar 27 2025 14:41:32 GMT-0500 (Central Daylight Time),405783.10000002384,A,but,O,t,155,1,782.5,405000.60000002384,7092,WL,A,8.0
3,15.010999917984009,learn,44989.00008201599,Thu Mar 27 2025 14:41:32 GMT-0500 (Central Daylight Time),405933.8000000119,A,butt,O,t,133,1,933.1999999880791,405000.60000002384,7092,WL,A,8.0
3,15.144999980926514,learn,44855.000019073486,Thu Mar 27 2025 14:41:32 GMT-0500 (Central Daylight Time),406067.6999999881,A,butto,O,o,108,1,1067.0999999642372,405000.60000002384,7092,WL,A,8.0
3,15.210999965667725,learn,44789.000034332275,Thu Mar 27 2025 14:41:32 GMT-0500 (Central Daylight Time),406133.1999999881,A,button,O,n,30,1,1132.5999999642372,405000.60000002384,7092,WL,A,8.0
3,15.476999998092651,learn,44523.00000190735,Thu Mar 27 2025 14:41:32 GMT-0500 (Central Daylight Time),406399.8000000119,A,buttonenter,O,enter,242,1,1399.199999988079,405000.60000002384,7092,WL,A,8.0
3,16.061000108718872,learn,43938.99989128113,Thu Mar 27 2025 14:41:32 GMT-0500 (Central Daylight Time),406983.89999997616,A,g,O,g,566,1,583.7999999523163,406400.10000002384,7092,WL,A,9.0
3,16.127000093460083,learn,43872.99990653992,Thu Mar 27 2025 14:41:32 GMT-0500 (Central Daylight Time),407049.5,A,go,O,o,34,1,649.3999999761581,406400.10000002384,7092,WL,A,9.0
3,16.295000076293945,learn,43704.999923706055,Thu Mar 27 2025 14:41:32 GMT-0500 (Central Daylight Time),407217.10000002384,A,gol,O,l,152,1,817.0,406400.10000002384,7092,WL,A,9.0
3,16.361000061035156,learn,43638.999938964844,Thu Mar 27 2025 14:41:32 GMT-0500 (Central Daylight Time),407283.1999999881,A,gold,O,d,33,1,883.0999999642372,406400.10000002384,7092,WL,A,9.0
3,16.509999990463257,learn,43490.00000953674,Thu Mar 27 2025 14:41:32 GMT-0500 (Central Daylight Time),407432.6999999881,A,goldenter,O,enter,129,1,1032.5999999642372,406400.10000002384,7092,WL,A,9.0
3,20.292999982833862,learn,39707.00001716614,Thu Mar 27 2025 14:41:32 GMT-0500 (Central Daylight Time),411215.89999997616,A,f,O,f,3773,1,3782.899999976158,407433.0,7092,WL,A,10.0
3,20.408999919891357,learn,39591.00008010864,Thu Mar 27 2025 14:41:32 GMT-0500 (Central Daylight Time),411331.89999997616,A,fi,O,i,91,1,3898.899999976158,407433.0,7092,WL,A,10.0
3,20.492000102996826,learn,39507.999897003174,Thu Mar 27 2025 14:41:32 GMT-0500 (Central Daylight Time),411414.8000000119,A,fin,O,n,65,1,3981.800000011921,407433.0,7092,WL,A,10.0
3,20.55900001525879,learn,39440.99998474121,Thu Mar 27 2025 14:41:32 GMT-0500 (Central Daylight Time),411481.6999999881,A,fing,O,g,54,1,4048.699999988079,407433.0,7092,WL,A,10.0
3,20.80999994277954,learn,39190.00005722046,Thu Mar 27 2025 14:41:32 GMT-0500 (Central Daylight Time),411732.60000002384,A,finge,O,e,233,1,4299.600000023842,407433.0,7092,WL,A,10.0
3,20.926000118255615,learn,39073.999881744385,Thu Mar 27 2025 14:41:32 GMT-0500 (Central Daylight Time),411848.89999997616,A,finger,O,r,79,1,4415.899999976158,407433.0,7092,WL,A,10.0
3,21.575000047683716,learn,38424.999952316284,Thu Mar 27 2025 14:41:32 GMT-0500 (Central Daylight Time),412497.60000002384,A,fingerenter,O,enter,617,1,5064.600000023842,407433.0,7092,WL,A,10.0
3,21.842000007629395,learn,38157.999992370605,Thu Mar 27 2025 14:41:32 GMT-0500 (Central Daylight Time),412764.1999999881,A,t,O,t,258,1,266.19999998807907,412498.0,7092,WL,A,11.0
3,22.311000108718872,learn,37688.99989128113,Thu Mar 27 2025 14:41:32 GMT-0500 (Central Daylight Time),413233.60000002384,A,tr,O,r,456,1,735.6000000238419,412498.0,7092,WL,A,11.0
3,22.44099998474121,learn,37559.00001525879,Thu Mar 27 2025 14:41:32 GMT-0500 (Central Daylight Time),413363.89999997616,A,tra,O,a,120,1,865.8999999761581,412498.0,7092,WL,A,11.0
3,22.55900001525879,learn,37440.99998474121,Thu Mar 27 2025 14:41:32 GMT-0500 (Central Daylight Time),413481.8000000119,A,trai,O,i,105,1,983.8000000119209,412498.0,7092,WL,A,11.0
3,22.641000032424927,learn,37358.99996757507,Thu Mar 27 2025 14:41:32 GMT-0500 (Central Daylight Time),413564.0,A,train,O,n,66,1,1066.0,412498.0,7092,WL,A,11.0
3,24.342000007629395,learn,35657.999992370605,Thu Mar 27 2025 14:41:32 GMT-0500 (Central Daylight Time),415263.6999999881,A,trainenter,O,enter,1680,1,2765.699999988079,412498.0,7092,WL,A,11.0
3,27.558000087738037,learn,32441.999912261963,Thu Mar 27 2025 14:41:32 GMT-0500 (Central Daylight Time),418480.10000002384,A,g,O,g,3198,1,3216.100000023842,415264.0,7092,WL,A,12.0
3,27.631999969482422,learn,32368.000030517578,Thu Mar 27 2025 14:41:32 GMT-0500 (Central Daylight Time),418553.8000000119,A,go,O,o,34,1,3289.800000011921,415264.0,7092,WL,A,12.0
3,27.825000047683716,learn,32174.999952316284,Thu Mar 27 2025 14:41:32 GMT-0500 (Central Daylight Time),418746.60000002384,A,gol,O,l,171,1,3482.600000023842,415264.0,7092,WL,A,12.0
3,27.891000032424927,learn,32108.999967575073,Thu Mar 27 2025 14:41:32 GMT-0500 (Central Daylight Time),418812.60000002384,A,gold,O,d,31,1,3548.600000023842,415264.0,7092,WL,A,12.0
3,28.424999952316284,learn,31575.000047683716,Thu Mar 27 2025 14:41:32 GMT-0500 (Central Daylight Time),419346.60000002384,A,goldenter,O,enter,507,1,4082.600000023842,415264.0,7092,WL,A,12.0
3,28.740999937057495,learn,31259.000062942505,Thu Mar 27 2025 14:41:32 GMT-0500 (Central Daylight Time),419662.89999997616,A,r,O,r,308,1,316.0999999642372,419346.8000000119,7092,WL,A,13.0
3,28.907999992370605,learn,31092.000007629395,Thu Mar 27 2025 14:41:32 GMT-0500 (Central Daylight Time),419829.60000002384,A,ra,O,a,133,1,482.80000001192093,419346.8000000119,7092,WL,A,13.0
3,29.074000120162964,learn,30925.999879837036,Thu Mar 27 2025 14:41:32 GMT-0500 (Central Daylight Time),419996.10000002384,A,rat,O,t,134,1,649.3000000119209,419346.8000000119,7092,WL,A,13.0
3,29.240999937057495,learn,30759.000062942505,Thu Mar 27 2025 14:41:32 GMT-0500 (Central Daylight Time),420162.60000002384,A,ratt,O,t,127,1,815.8000000119209,419346.8000000119,7092,WL,A,13.0
3,29.33999991416931,learn,30660.00008583069,Thu Mar 27 2025 14:41:32 GMT-0500 (Central Daylight Time),420262.0,A,rattl,O,l,63,1,915.1999999880791,419346.8000000119,7092,WL,A,13.0
3,29.44099998474121,learn,30559.00001525879,Thu Mar 27 2025 14:41:32 GMT-0500 (Central Daylight Time),420362.6999999881,A,rattle,O,e,80,1,1015.8999999761581,419346.8000000119,7092,WL,A,13.0
3,29.622999906539917,learn,30377.000093460083,Thu Mar 27 2025 14:41:32 GMT-0500 (Central Daylight Time),420545.1999999881,A,rattleenter,O,enter,152,1,1198.3999999761581,419346.8000000119,7092,WL,A,13.0
3,37.22200012207031,learn,22777.999877929688,Thu Mar 27 2025 14:41:32 GMT-0500 (Central Daylight Time),428143.60000002384,A,f,O,f,7589,1,7598.200000047684,420545.39999997616,7092,WL,A,14.0
3,37.437999963760376,learn,22562.000036239624,Thu Mar 27 2025 14:41:32 GMT-0500 (Central Daylight Time),428360.10000002384,A,fi,O,i,188,1,7814.700000047684,420545.39999997616,7092,WL,A,14.0
3,37.520999908447266,learn,22479.000091552734,Thu Mar 27 2025 14:41:32 GMT-0500 (Central Daylight Time),428442.6999999881,A,fig,O,g,62,1,7897.300000011921,420545.39999997616,7092,WL,A,14.0
3,37.6710000038147,learn,22328.999996185303,Thu Mar 27 2025 14:41:32 GMT-0500 (Central Daylight Time),428593.39999997616,A,figu,O,u,138,1,8048.0,420545.39999997616,7092,WL,A,14.0
3,38.08800005912781,learn,21911.999940872192,Thu Mar 27 2025 14:41:32 GMT-0500 (Central Daylight Time),429009.89999997616,A,fig,O,backspace,377,1,8464.5,420545.39999997616,7092,WL,A,14.0
3,39.12100005149841,learn,20878.999948501587,Thu Mar 27 2025 14:41:32 GMT-0500 (Central Daylight Time),430042.60000002384,A,fi,O,backspace,999,1,9497.200000047684,420545.39999997616,7092,WL,A,14.0
3,39.37100005149841,learn,20628.999948501587,Thu Mar 27 2025 14:41:32 GMT-0500 (Central Daylight Time),430293.10000002384,A,fin,O,n,229,1,9747.700000047684,420545.39999997616,7092,WL,A,14.0
3,39.47000002861023,learn,20529.99997138977,Thu Mar 27 2025 14:41:32 GMT-0500 (Central Daylight Time),430392.1999999881,A,fing,O,g,61,1,9846.800000011921,420545.39999997616,7092,WL,A,14.0
3,39.75500011444092,learn,20244.999885559082,Thu Mar 27 2025 14:41:32 GMT-0500 (Central Daylight Time),430676.8000000119,A,finge,O,e,269,1,10131.400000035763,420545.39999997616,7092,WL,A,14.0
3,39.8199999332428,learn,20180.000066757202,Thu Mar 27 2025 14:41:32 GMT-0500 (Central Daylight Time),430741.89999997616,A,finger,O,r,37,1,10196.5,420545.39999997616,7092,WL,A,14.0
3,40.22000002861023,learn,19779.99997138977,Thu Mar 27 2025 14:41:32 GMT-0500 (Central Daylight Time),431141.60000002384,A,fingerenter,O,enter,387,1,10596.200000047684,420545.39999997616,7092,WL,A,14.0
3,48.301000118255615,learn,11698.999881744385,Thu Mar 27 2025 14:41:32 GMT-0500 (Central Daylight Time),439223.1999999881,A,a,O,a,8072,1,8081.300000011921,431141.89999997616,7092,WL,A,15.0
3,48.551000118255615,learn,11448.999881744385,Thu Mar 27 2025 14:41:32 GMT-0500 (Central Daylight Time),439473.1999999881,A,ap,O,p,219,1,8331.300000011921,431141.89999997616,7092,WL,A,15.0
3,48.801000118255615,learn,11198.999881744385,Thu Mar 27 2025 14:41:32 GMT-0500 (Central Daylight Time),439723.10000002384,A,app,O,p,210,1,8581.200000047684,431141.89999997616,7092,WL,A,15.0
3,49.16799998283386,learn,10832.000017166138,Thu Mar 27 2025 14:41:32 GMT-0500 (Central Daylight Time),440089.60000002384,A,appl,O,l,337,1,8947.700000047684,431141.89999997616,7092,WL,A,15.0
3,49.28399991989136,learn,10716.000080108643,Thu Mar 27 2025 14:41:32 GMT-0500 (Central Daylight Time),440206.10000002384,A,apple,O,e,95,1,9064.200000047684,431141.89999997616,7092,WL,A,15.0
3,49.5,learn,10500.0,Thu Mar 27 2025 14:41:32 GMT-0500 (Central Daylight Time),440421.89999997616,A,appleenter,O,enter,182,1,9280.0,431141.89999997616,7092,WL,A,15.0
4,1.3310000896453857,learn,58668.999910354614,Thu Mar 27 2025 14:41:32 GMT-0500 (Central Daylight Time),516897.60000002384,A,b,O,b,1296,1,1330.5,515567.10000002384,7092,WL,A,1.0
4,1.4809999465942383,learn,58519.00005340576,Thu Mar 27 2025 14:41:32 GMT-0500 (Central Daylight Time),517047.5,A,bo,O,o,121,1,1480.3999999761581,515567.10000002384,7092,WL,A,1.0
4,1.63100004196167,learn,58368.99995803833,Thu Mar 27 2025 14:41:32 GMT-0500 (Central Daylight Time),517197.5,A,boo,O,o,123,1,1630.3999999761581,515567.10000002384,7092,WL,A,1.0
4,1.815000057220459,learn,58184.99994277954,Thu Mar 27 2025 14:41:32 GMT-0500 (Central Daylight Time),517381.1999999881,A,book,O,k,158,1,1814.0999999642372,515567.10000002384,7092,WL,A,1.0
4,2.36299991607666,learn,57637.00008392334,Thu Mar 27 2025 14:41:32 GMT-0500 (Central Daylight Time),517929.6999999881,A,bookenter,O,enter,509,1,2362.599999964237,515567.10000002384,7092,WL,A,1.0
4,4.796999931335449,learn,55203.00006866455,Thu Mar 27 2025 14:41:32 GMT-0500 (Central Daylight Time),520363.3000000119,A,m,O,m,2420,1,2433.400000035763,517929.89999997616,7092,WL,A,2.0
4,4.878999948501587,learn,55121.00005149841,Thu Mar 27 2025 14:41:32 GMT-0500 (Central Daylight Time),520446.10000002384,A,me,O,e,55,1,2516.2000000476837,517929.89999997616,7092,WL,A,2.0
4,5.163000106811523,learn,54836.99989318848,Thu Mar 27 2025 14:41:32 GMT-0500 (Central Daylight Time),520729.6999999881,A,mea,O,a,265,1,2799.800000011921,517929.89999997616,7092,WL,A,2.0
4,5.446000099182129,learn,54553.99990081787,Thu Mar 27 2025 14:41:32 GMT-0500 (Central Daylight Time),521013.0,A,mead,O,d,253,1,3083.100000023842,517929.89999997616,7092,WL,A,2.0
4,5.562999963760376,learn,54437.000036239624,Thu Mar 27 2025 14:41:32 GMT-0500 (Central Daylight Time),521129.6999999881,A,meado,O,o,85,1,3199.800000011921,517929.89999997616,7092,WL,A,2.0
4,5.713000059127808,learn,54286.99994087219,Thu Mar 27 2025 14:41:32 GMT-0500 (Central Daylight Time),521279.5,A,meadow,O,w,113,1,3349.600000023842,517929.89999997616,7092,WL,A,2.0
4,6.17900013923645,learn,53820.99986076355,Thu Mar 27 2025 14:41:32 GMT-0500 (Central Daylight Time),521745.1999999881,A,meadowenter,O,enter,425,1,3815.300000011921,517929.89999997616,7092,WL,A,2.0
4,6.746000051498413,learn,53253.99994850159,Thu Mar 27 2025 14:41:32 GMT-0500 (Central Daylight Time),522312.60000002384,A,f,O,f,548,1,567.2000000476837,521745.39999997616,7092,WL,A,3.0
4,6.828999996185303,learn,53171.0000038147,Thu Mar 27 2025 14:41:32 GMT-0500 (Central Daylight Time),522395.10000002384,A,fi,O,i,50,1,649.7000000476837,521745.39999997616,7092,WL,A,3.0
4,6.92900013923645,learn,53070.99986076355,Thu Mar 27 2025 14:41:32 GMT-0500 (Central Daylight Time),522495.60000002384,A,fin,O,n,88,1,750.2000000476837,521745.39999997616,7092,WL,A,3.0
4,7.046000003814697,learn,52953.9999961853,Thu Mar 27 2025 14:41:32 GMT-0500 (Central Daylight Time),522613.0,A,fing,O,g,96,1,867.6000000238419,521745.39999997616,7092,WL,A,3.0
4,7.230000019073486,learn,52769.999980926514,Thu Mar 27 2025 14:41:32 GMT-0500 (Central Daylight Time),522796.5,A,finge,O,e,158,1,1051.1000000238419,521745.39999997616,7092,WL,A,3.0
4,7.312000036239624,learn,52687.999963760376,Thu Mar 27 2025 14:41:32 GMT-0500 (Central Daylight Time),522878.5,A,finger,O,r,56,1,1133.1000000238419,521745.39999997616,7092,WL,A,3.0
4,7.795000076293945,learn,52204.999923706055,Thu Mar 27 2025 14:41:32 GMT-0500 (Central Daylight Time),523361.5,A,fingerenter,O,enter,452,1,1616.1000000238419,521745.39999997616,7092,WL,A,3.0
4,8.578999996185303,learn,51421.0000038147,Thu Mar 27 2025 14:41:32 GMT-0500 (Central Daylight Time),524145.60000002384,A,r,O,r,764,1,783.8000000119209,523361.8000000119,7092,WL,A,4.0
4,8.694999933242798,learn,51305.0000667572,Thu Mar 27 2025 14:41:32 GMT-0500 (Central Daylight Time),524261.60000002384,A,ru,O,u,91,1,899.8000000119209,523361.8000000119,7092,WL,A,4.0
4,8.861999988555908,learn,51138.00001144409,Thu Mar 27 2025 14:41:32 GMT-0500 (Central Daylight Time),524428.6999999881,A,rug,O,g,133,1,1066.8999999761581,523361.8000000119,7092,WL,A,4.0
4,9.111000061035156,learn,50888.999938964844,Thu Mar 27 2025 14:41:32 GMT-0500 (Central Daylight Time),524677.5,A,rugenter,O,enter,220,1,1315.699999988079,523361.8000000119,7092,WL,A,4.0
4,9.528000116348267,learn,50471.99988365173,Thu Mar 27 2025 14:41:32 GMT-0500 (Central Daylight Time),525095.0,A,r,O,r,400,1,417.19999998807907,524677.8000000119,7092,WL,A,5.0
4,9.67900013923645,learn,50320.99986076355,Thu Mar 27 2025 14:41:32 GMT-0500 (Central Daylight Time),525245.1000000238,A,ra,O,a,108,1,567.3000000119209,524677.8000000119,7092,WL,A,5.0
4,9.778000116348267,learn,50221.99988365173,Thu Mar 27 2025 14:41:32 GMT-0500 (Central Daylight Time),525344.3000000119,A,rat,O,t,60,1,666.5,524677.8000000119,7092,WL,A,5.0
4,9.944999933242798,learn,50055.0000667572,Thu Mar 27 2025 14:41:32 GMT-0500 (Central Daylight Time),525511.3999999762,A,ratt,O,t,145,1,833.5999999642372,524677.8000000119,7092,WL,A,5.0
4,10.07800006866455,learn,49921.99993133545,Thu Mar 27 2025 14:41:32 GMT-0500 (Central Daylight Time),525644.3000000119,A,rattl,O,l,108,1,966.5,524677.8000000119,7092,WL,A,5.0
4,10.194000005722046,learn,49805.999994277954,Thu Mar 27 2025 14:41:32 GMT-0500 (Central Daylight Time),525760.6000000238,A,rattle,O,e,94,1,1082.800000011921,524677.8000000119,7092,WL,A,5.0
4,10.344000101089478,learn,49655.99989891052,Thu Mar 27 2025 14:41:32 GMT-0500 (Central Daylight Time),525910.3000000119,A,rattleenter,O,enter,131,1,1232.5,524677.8000000119,7092,WL,A,5.0
4,10.49399995803833,learn,49506.00004196167,Thu Mar 27 2025 14:41:32 GMT-0500 (Central Daylight Time),526061.0,A,c,O,c,135,1,150.39999997615814,525910.6000000238,7092,WL,A,6.0
4,10.628000020980835,learn,49371.999979019165,Thu Mar 27 2025 14:41:32 GMT-0500 (Central Daylight Time),526194.6999999881,A,ch,O,h,96,1,284.0999999642372,525910.6000000238,7092,WL,A,6.0
4,10.976999998092651,learn,49023.00000190735,Thu Mar 27 2025 14:41:32 GMT-0500 (Central Daylight Time),526543.6999999881,A,chi,O,i,317,1,633.0999999642372,525910.6000000238,7092,WL,A,6.0
4,11.259999990463257,learn,48740.00000953674,Thu Mar 27 2025 14:41:32 GMT-0500 (Central Daylight Time),526826.8000000119,A,chim,O,m,259,1,916.1999999880791,525910.6000000238,7092,WL,A,6.0
4,11.594000101089478,learn,48405.99989891052,Thu Mar 27 2025 14:41:32 GMT-0500 (Central Daylight Time),527160.0,A,chimn,O,n,314,1,1249.3999999761581,525910.6000000238,7092,WL,A,6.0
4,11.693000078201294,learn,48306.999921798706,Thu Mar 27 2025 14:41:32 GMT-0500 (Central Daylight Time),527259.8999999762,A,chimne,O,e,88,1,1349.2999999523163,525910.6000000238,7092,WL,A,6.0
4,11.809999942779541,learn,48190.00005722046,Thu Mar 27 2025 14:41:32 GMT-0500 (Central Daylight Time),527376.6999999881,A,chimney,O,y,104,1,1466.0999999642372,525910.6000000238,7092,WL,A,6.0
4,12.144999980926514,learn,47855.000019073486,Thu Mar 27 2025 14:41:32 GMT-0500 (Central Daylight Time),527711.0,A,chimneyenter,O,enter,321,1,1800.3999999761581,525910.6000000238,7092,WL,A,6.0
4,12.993000030517578,learn,47006.99996948242,Thu Mar 27 2025 14:41:32 GMT-0500 (Central Daylight Time),528559.8000000119,A,l,O,l,830,1,848.5,527711.3000000119,7092,WL,A,7.0
4,13.16100001335144,learn,46838.99998664856,Thu Mar 27 2025 14:41:32 GMT-0500 (Central Daylight Time),528727.3000000119,A,lo,O,o,150,1,1016.0,527711.3000000119,7092,WL,A,7.0
4,13.193000078201294,learn,46806.999921798706,Thu Mar 27 2025 14:41:32 GMT-0500 (Central Daylight Time),528759.8999999762,A,log,O,g,5,1,1048.5999999642372,527711.3000000119,7092,WL,A,7.0
4,13.509999990463257,learn,46490.00000953674,Thu Mar 27 2025 14:41:32 GMT-0500 (Central Daylight Time),529076.0,A,logenter,O,enter,290,1,1364.699999988079,527711.3000000119,7092,WL,A,7.0
4,13.894000053405762,learn,46105.99994659424,Thu Mar 27 2025 14:41:32 GMT-0500 (Central Daylight Time),529460.3000000119,A,g,O,g,369,1,384.0,529076.3000000119,7092,WL,A,8.0
4,13.95900011062622,learn,46040.99988937378,Thu Mar 27 2025 14:41:32 GMT-0500 (Central Daylight Time),529526.0,A,go,O,o,42,1,449.69999998807907,529076.3000000119,7092,WL,A,8.0
4,14.125999927520752,learn,45874.00007247925,Thu Mar 27 2025 14:41:32 GMT-0500 (Central Daylight Time),529692.5,A,gol,O,l,158,1,616.1999999880791,529076.3000000119,7092,WL,A,8.0
4,14.20900011062622,learn,45790.99988937378,Thu Mar 27 2025 14:41:32 GMT-0500 (Central Daylight Time),529775.8000000119,A,gold,O,d,61,1,699.5,529076.3000000119,7092,WL,A,8.0
4,14.559000015258789,learn,45440.99998474121,Thu Mar 27 2025 14:41:32 GMT-0500 (Central Daylight Time),530125.8000000119,A,goldenter,O,enter,333,1,1049.5,529076.3000000119,7092,WL,A,8.0
4,16.52500009536743,learn,43474.99990463257,Thu Mar 27 2025 14:41:32 GMT-0500 (Central Daylight Time),532091.6000000238,A,t,O,t,1959,1,1965.5,530126.1000000238,7092,WL,A,9.0
4,16.742000102996826,learn,43257.999897003174,Thu Mar 27 2025 14:41:32 GMT-0500 (Central Daylight Time),532308.3999999762,A,tr,O,r,209,1,2182.2999999523163,530126.1000000238,7092,WL,A,9.0
4,16.943000078201294,learn,43056.999921798706,Thu Mar 27 2025 14:41:32 GMT-0500 (Central Daylight Time),532509.3000000119,A,tra,O,a,185,1,2383.199999988079,530126.1000000238,7092,WL,A,9.0
4,16.972000122070312,learn,43027.99987792969,Thu Mar 27 2025 14:41:32 GMT-0500 (Central Daylight Time),532538.5,A,trai,O,i,2,1,2412.399999976158,530126.1000000238,7092,WL,A,9.0
4,17.10800004005432,learn,42891.99995994568,Thu Mar 27 2025 14:41:32 GMT-0500 (Central Daylight Time),532674.8999999762,A,train,O,n,103,1,2548.7999999523163,530126.1000000238,7092,WL,A,9.0
4,17.39199995994568,learn,42608.00004005432,Thu Mar 27 2025 14:41:32 GMT-0500 (Central Daylight Time),532958.1999999881,A,trainenter,O,enter,264,1,2832.099999964237,530126.1000000238,7092,WL,A,9.0
4,17.907999992370605,learn,42092.000007629395,Thu Mar 27 2025 14:41:32 GMT-0500 (Central Daylight Time),533474.5,A,h,O,h,494,1,516.0,532958.5,7092,WL,A,10.0
4,17.95799994468689,learn,42042.00005531311,Thu Mar 27 2025 14:41:32 GMT-0500 (Central Daylight Time),533524.6999999881,A,ha,O,a,33,1,566.1999999880791,532958.5,7092,WL,A,10.0
4,18.325000047683716,learn,41674.999952316284,Thu Mar 27 2025 14:41:32 GMT-0500 (Central Daylight Time),533891.3000000119,A,har,O,r,337,1,932.8000000119209,532958.5,7092,WL,A,10.0
4,18.658999919891357,learn,41341.00008010864,Thu Mar 27 2025 14:41:32 GMT-0500 (Central Daylight Time),534225.3000000119,A,harp,O,p,322,1,1266.800000011921,532958.5,7092,WL,A,10.0
4,19.475000143051147,learn,40524.99985694885,Thu Mar 27 2025 14:41:32 GMT-0500 (Central Daylight Time),535040.8000000119,A,harpenter,O,enter,778,1,2082.300000011921,532958.5,7092,WL,A,10.0
4,23.140000104904175,learn,36859.999895095825,Thu Mar 27 2025 14:41:32 GMT-0500 (Central Daylight Time),538706.1000000238,A,b,O,b,3643,1,3665.0,535041.1000000238,7092,WL,A,11.0
4,23.29100012779236,learn,36708.99987220764,Thu Mar 27 2025 14:41:32 GMT-0500 (Central Daylight Time),538857.1999999881,A,bu,O,u,131,1,3816.099999964237,535041.1000000238,7092,WL,A,11.0
4,23.44099998474121,learn,36559.00001525879,Thu Mar 27 2025 14:41:32 GMT-0500 (Central Daylight Time),539007.1999999881,A,but,O,t,115,1,3966.099999964237,535041.1000000238,7092,WL,A,11.0
4,23.592999935150146,learn,36407.00006484985,Thu Mar 27 2025 14:41:32 GMT-0500 (Central Daylight Time),539158.6999999881,A,butt,O,t,110,1,4117.599999964237,535041.1000000238,7092,WL,A,11.0
4,23.740000009536743,learn,36259.99999046326,Thu Mar 27 2025 14:41:32 GMT-0500 (Central Daylight Time),539306.1000000238,A,butto,O,o,125,1,4265.0,535041.1000000238,7092,WL,A,11.0
4,23.822999954223633,learn,36177.00004577637,Thu Mar 27 2025 14:41:32 GMT-0500 (Central Daylight Time),539389.3000000119,A,button,O,n,73,1,4348.199999988079,535041.1000000238,7092,WL,A,11.0
4,24.056999921798706,learn,35943.000078201294,Thu Mar 27 2025 14:41:32 GMT-0500 (Central Daylight Time),539622.6999999881,A,buttonenter,O,enter,223,1,4581.599999964237,535041.1000000238,7092,WL,A,11.0
4,26.289999961853027,learn,33710.00003814697,Thu Mar 27 2025 14:41:32 GMT-0500 (Central Daylight Time),541856.0,A,s,O,s,2223,1,2233.199999988079,539622.8000000119,7092,WL,A,12.0
4,26.42300009727478,learn,33576.99990272522,Thu Mar 27 2025 14:41:32 GMT-0500 (Central Daylight Time),541989.1000000238,A,sa,O,a,106,1,2366.300000011921,539622.8000000119,7092,WL,A,12.0
4,26.555999994277954,learn,33444.000005722046,Thu Mar 27 2025 14:41:32 GMT-0500 (Central Daylight Time),542122.3999999762,A,sal,O,l,102,1,2499.599999964237,539622.8000000119,7092,WL,A,12.0
4,26.638999938964844,learn,33361.000061035156,Thu Mar 27 2025 14:41:32 GMT-0500 (Central Daylight Time),542205.1000000238,A,salt,O,t,55,1,2582.300000011921,539622.8000000119,7092,WL,A,12.0
4,26.772000074386597,learn,33227.9999256134,Thu Mar 27 2025 14:41:32 GMT-0500 (Central Daylight Time),542338.3999999762,A,saltenter,O,enter,119,1,2715.599999964237,539622.8000000119,7092,WL,A,12.0
4,27.388999938964844,learn,32611.000061035156,Thu Mar 27 2025 14:41:32 GMT-0500 (Central Daylight Time),542955.0,A,a,O,a,610,1,616.3999999761581,542338.6000000238,7092,WL,A,13.0
4,27.50600004196167,learn,32493.99995803833,Thu Mar 27 2025 14:41:32 GMT-0500 (Central Daylight Time),543072.6000000238,A,ap,O,p,106,1,734.0,542338.6000000238,7092,WL,A,13.0
4,27.67300009727478,learn,32326.99990272522,Thu Mar 27 2025 14:41:32 GMT-0500 (Central Daylight Time),543239.3000000119,A,app,O,p,131,1,900.6999999880791,542338.6000000238,7092,WL,A,13.0
4,27.855000019073486,learn,32144.999980926514,Thu Mar 27 2025 14:41:32 GMT-0500 (Central Daylight Time),543421.1999999881,A,appl,O,l,155,1,1082.5999999642372,542338.6000000238,7092,WL,A,13.0
4,27.98900008201599,learn,32010.99991798401,Thu Mar 27 2025 14:41:32 GMT-0500 (Central Daylight Time),543555.1000000238,A,apple,O,e,110,1,1216.5,542338.6000000238,7092,WL,A,13.0
4,28.08899998664856,learn,31911.00001335144,Thu Mar 27 2025 14:41:32 GMT-0500 (Central Daylight Time),543654.6000000238,A,appleenter,O,enter,89,1,1316.0,542338.6000000238,7092,WL,A,13.0
4,29.35599994659424,learn,30644.00005340576,Thu Mar 27 2025 14:41:32 GMT-0500 (Central Daylight Time),544921.8999999762,A,g,O,g,1247,1,1266.8999999761581,543655.0,7092,WL,A,14.0
4,29.871000051498413,learn,30128.999948501587,Thu Mar 27 2025 14:41:32 GMT-0500 (Central Daylight Time),545437.1999999881,A,go,O,o,487,1,1782.199999988079,543655.0,7092,WL,A,14.0
4,30.07100009918213,learn,29928.99990081787,Thu Mar 27 2025 14:41:32 GMT-0500 (Central Daylight Time),545637.3000000119,A,gol,O,l,183,1,1982.300000011921,543655.0,7092,WL,A,14.0
4,30.203999996185303,learn,29796.000003814697,Thu Mar 27 2025 14:41:32 GMT-0500 (Central Daylight Time),545770.3999999762,A,gold,O,d,118,1,2115.399999976158,543655.0,7092,WL,A,14.0
4,30.47099995613098,learn,29529.00004386902,Thu Mar 27 2025 14:41:32 GMT-0500 (Central Daylight Time),546037.1000000238,A,goldenter,O,enter,250,1,2382.100000023842,543655.0,7092,WL,A,14.0
4,38.60199999809265,learn,21398.00000190735,Thu Mar 27 2025 14:41:32 GMT-0500 (Central Daylight Time),554167.8999999762,A,enter,O,enter,8118,1,8130.5,546037.3999999762,7092,WL,A,15.0
5,0.28299999237060547,learn,60000.0,Thu Mar 27 2025 14:41:32 GMT-0500 (Central Daylight Time),627261.8000000119,A,b,O,b,250,1,282.80000001192093,626979.0,7092,WL,A,1.0
5,0.432999849319458,learn,60000.0,Thu Mar 27 2025 14:41:32 GMT-0500 (Central Daylight Time),627411.6999999881,A,bo,O,o,116,1,432.69999998807907,626979.0,7092,WL,A,1.0
5,0.5829999446868896,learn,60000.0,Thu Mar 27 2025 14:41:32 GMT-0500 (Central Daylight Time),627561.3000000119,A,boo,O,o,125,1,582.3000000119209,626979.0,7092,WL,A,1.0
5,0.8489999771118164,learn,60000.0,Thu Mar 27 2025 14:41:32 GMT-0500 (Central Daylight Time),627827.8000000119,A,book,O,k,240,1,848.8000000119209,626979.0,7092,WL,A,1.0
5,1.5649998188018799,learn,60000.0,Thu Mar 27 2025 14:41:32 GMT-0500 (Central Daylight Time),628543.3999999762,A,bookenter,O,enter,689,1,1564.3999999761581,626979.0,7092,WL,A,1.0
5,2.1489999294281006,learn,60000.0,Thu Mar 27 2025 14:41:32 GMT-0500 (Central Daylight Time),629127.5,A,m,O,m,566,1,583.8000000119209,628543.6999999881,7092,WL,A,2.0
5,2.2179999351501465,learn,60000.0,Thu Mar 27 2025 14:41:32 GMT-0500 (Central Daylight Time),629196.3999999762,A,me,O,e,36,1,652.6999999880791,628543.6999999881,7092,WL,A,2.0
5,2.31499981880188,learn,60000.0,Thu Mar 27 2025 14:41:32 GMT-0500 (Central Daylight Time),629293.3000000119,A,mea,O,a,74,1,749.6000000238419,628543.6999999881,7092,WL,A,2.0
5,2.6659998893737793,learn,60000.0,Thu Mar 27 2025 14:41:32 GMT-0500 (Central Daylight Time),629644.3000000119,A,mead,O,d,335,1,1100.6000000238419,628543.6999999881,7092,WL,A,2.0
5,2.7819998264312744,learn,60000.0,Thu Mar 27 2025 14:41:32 GMT-0500 (Central Daylight Time),629760.3999999762,A,meado,O,o,87,1,1216.699999988079,628543.6999999881,7092,WL,A,2.0
5,2.9149999618530273,learn,60000.0,Thu Mar 27 2025 14:41:32 GMT-0500 (Central Daylight Time),629893.8999999762,A,meadow,O,w,102,1,1350.199999988079,628543.6999999881,7092,WL,A,2.0
5,3.297999858856201,learn,60000.0,Thu Mar 27 2025 14:41:32 GMT-0500 (Central Daylight Time),630276.1000000238,A,meadowenter,O,enter,348,1,1732.4000000357628,628543.6999999881,7092,WL,A,2.0
5,4.197999954223633,learn,60000.0,Thu Mar 27 2025 14:41:32 GMT-0500 (Central Daylight Time),631177.0,A,l,O,l,882,1,900.5,630276.5,7092,WL,A,3.0
5,4.381999969482422,learn,60000.0,Thu Mar 27 2025 14:41:32 GMT-0500 (Central Daylight Time),631360.1999999881,A,lo,O,o,145,1,1083.699999988079,630276.5,7092,WL,A,3.0
5,4.46399998664856,learn,60000.0,Thu Mar 27 2025 14:41:32 GMT-0500 (Central Daylight Time),631442.8000000119,A,log,O,g,40,1,1166.300000011921,630276.5,7092,WL,A,3.0
5,4.764999866485596,learn,60000.0,Thu Mar 27 2025 14:41:32 GMT-0500 (Central Daylight Time),631743.3999999762,A,logenter,O,enter,286,1,1466.8999999761581,630276.5,7092,WL,A,3.0
5,5.763999938964844,learn,60000.0,Thu Mar 27 2025 14:41:32 GMT-0500 (Central Daylight Time),632743.0,A,f,O,f,982,1,999.1999999880791,631743.8000000119,7092,WL,A,4.0
5,5.914999961853027,learn,60000.0,Thu Mar 27 2025 14:41:32 GMT-0500 (Central Daylight Time),632893.1999999881,A,fi,O,i,125,1,1149.3999999761581,631743.8000000119,7092,WL,A,4.0
5,5.996999979019165,learn,60000.0,Thu Mar 27 2025 14:41:32 GMT-0500 (Central Daylight Time),632975.3999999762,A,fin,O,n,54,1,1231.5999999642372,631743.8000000119,7092,WL,A,4.0
5,6.096999883651733,learn,60000.0,Thu Mar 27 2025 14:41:32 GMT-0500 (Central Daylight Time),633075.8999999762,A,fing,O,g,84,1,1332.0999999642372,631743.8000000119,7092,WL,A,4.0
5,6.430999994277954,learn,60000.0,Thu Mar 27 2025 14:41:32 GMT-0500 (Central Daylight Time),633409.5,A,finge,O,e,296,1,1665.699999988079,631743.8000000119,7092,WL,A,4.0
5,6.513000011444092,learn,60000.0,Thu Mar 27 2025 14:41:32 GMT-0500 (Central Daylight Time),633491.8999999762,A,finger,O,r,50,1,1748.0999999642372,631743.8000000119,7092,WL,A,4.0
5,7.162999868392944,learn,60000.0,Thu Mar 27 2025 14:41:32 GMT-0500 (Central Daylight Time),634141.5,A,fingerenter,O,enter,631,1,2397.699999988079,631743.8000000119,7092,WL,A,4.0
5,7.629999876022339,learn,60000.0,Thu Mar 27 2025 14:41:32 GMT-0500 (Central Daylight Time),634608.8999999762,A,h,O,h,448,1,467.0999999642372,634141.8000000119,7092,WL,A,5.0
5,7.730000019073486,learn,60000.0,Thu Mar 27 2025 14:41:32 GMT-0500 (Central Daylight Time),634708.3999999762,A,ha,O,a,68,1,566.5999999642372,634141.8000000119,7092,WL,A,5.0
5,7.829999923706055,learn,60000.0,Thu Mar 27 2025 14:41:32 GMT-0500 (Central Daylight Time),634809.0,A,hap,O,p,82,1,667.1999999880791,634141.8000000119,7092,WL,A,5.0
5,8.52999997138977,learn,60000.0,Thu Mar 27 2025 14:41:32 GMT-0500 (Central Daylight Time),635508.6999999881,A,ha,O,backspace,665,1,1366.8999999761581,634141.8000000119,7092,WL,A,5.0
5,8.646999835968018,learn,60000.0,Thu Mar 27 2025 14:41:32 GMT-0500 (Central Daylight Time),635625.3999999762,A,har,O,r,83,1,1483.5999999642372,634141.8000000119,7092,WL,A,5.0
5,8.879999876022339,learn,60000.0,Thu Mar 27 2025 14:41:32 GMT-0500 (Central Daylight Time),635858.6000000238,A,harp,O,p,202,1,1716.800000011921,634141.8000000119,7092,WL,A,5.0
5,9.211999893188477,learn,60000.0,Thu Mar 27 2025 14:41:32 GMT-0500 (Central Daylight Time),636190.8999999762,A,harpenter,O,enter,294,1,2049.099999964237,634141.8000000119,7092,WL,A,5.0
5,9.596999883651733,learn,60000.0,Thu Mar 27 2025 14:41:32 GMT-0500 (Central Daylight Time),636575.0,A,s,O,s,367,1,383.80000001192093,636191.1999999881,7092,WL,A,6.0
5,9.763000011444092,learn,60000.0,Thu Mar 27 2025 14:41:32 GMT-0500 (Central Daylight Time),636741.8000000119,A,sa,O,a,132,1,550.6000000238419,636191.1999999881,7092,WL,A,6.0
5,9.929999828338623,learn,60000.0,Thu Mar 27 2025 14:41:32 GMT-0500 (Central Daylight Time),636908.3999999762,A,sal,O,l,138,1,717.1999999880791,636191.1999999881,7092,WL,A,6.0
5,10.145999908447266,learn,60000.0,Thu Mar 27 2025 14:41:32 GMT-0500 (Central Daylight Time),637125.1000000238,A,salt,O,t,175,1,933.9000000357628,636191.1999999881,7092,WL,A,6.0
5,10.578999996185303,learn,60000.0,Thu Mar 27 2025 14:41:32 GMT-0500 (Central Daylight Time),637557.1999999881,A,saltenter,O,enter,399,1,1366.0,636191.1999999881,7092,WL,A,6.0
5,13.51199984550476,learn,60000.0,Thu Mar 27 2025 14:41:32 GMT-0500 (Central Daylight Time),640490.6000000238,A,a,O,a,2912,1,2933.100000023842,637557.5,7092,WL,A,7.0
5,13.586999893188477,learn,60000.0,Thu Mar 27 2025 14:41:32 GMT-0500 (Central Daylight Time),640565.8999999762,A,ap,O,p,47,1,3008.399999976158,637557.5,7092,WL,A,7.0
5,13.74399995803833,learn,60000.0,Thu Mar 27 2025 14:41:32 GMT-0500 (Central Daylight Time),640722.8999999762,A,app,O,p,147,1,3165.399999976158,637557.5,7092,WL,A,7.0
5,13.92799997329712,learn,60000.0,Thu Mar 27 2025 14:41:32 GMT-0500 (Central Daylight Time),640907.0,A,appl,O,l,163,1,3349.5,637557.5,7092,WL,A,7.0
5,14.026999950408936,learn,60000.0,Thu Mar 27 2025 14:41:32 GMT-0500 (Central Daylight Time),641005.8000000119,A,apple,O,e,65,1,3448.300000011921,637557.5,7092,WL,A,7.0
5,14.176999807357788,learn,60000.0,Thu Mar 27 2025 14:41:32 GMT-0500 (Central Daylight Time),641155.8999999762,A,appleenter,O,enter,143,1,3598.399999976158,637557.5,7092,WL,A,7.0
5,14.41100001335144,learn,60000.0,Thu Mar 27 2025 14:41:32 GMT-0500 (Central Daylight Time),641389.8000000119,A,c,O,c,226,1,233.69999998807907,641156.1000000238,7092,WL,A,8.0
5,14.51199984550476,learn,60000.0,Thu Mar 27 2025 14:41:32 GMT-0500 (Central Daylight Time),641490.0,A,ch,O,h,74,1,333.89999997615814,641156.1000000238,7092,WL,A,8.0
5,14.593999862670898,learn,60000.0,Thu Mar 27 2025 14:41:32 GMT-0500 (Central Daylight Time),641572.6000000238,A,chi,O,i,56,1,416.5,641156.1000000238,7092,WL,A,8.0
5,14.827999830245972,learn,60000.0,Thu Mar 27 2025 14:41:32 GMT-0500 (Central Daylight Time),641806.5,A,chim,O,m,217,1,650.3999999761581,641156.1000000238,7092,WL,A,8.0
5,15.74399995803833,learn,60000.0,Thu Mar 27 2025 14:41:32 GMT-0500 (Central Daylight Time),642722.8999999762,A,chimn,O,n,888,1,1566.7999999523163,641156.1000000238,7092,WL,A,8.0
5,15.876999855041504,learn,60000.0,Thu Mar 27 2025 14:41:32 GMT-0500 (Central Daylight Time),642855.3000000119,A,chimne,O,e,112,1,1699.199999988079,641156.1000000238,7092,WL,A,8.0
5,16.043999910354614,learn,60000.0,Thu Mar 27 2025 14:41:32 GMT-0500 (Central Daylight Time),643023.0,A,chimney,O,y,151,1,1866.8999999761581,641156.1000000238,7092,WL,A,8.0
5,17.026999950408936,learn,60000.0,Thu Mar 27 2025 14:41:32 GMT-0500 (Central Daylight Time),644005.0,A,chimneyenter,O,enter,955,1,2848.899999976158,641156.1000000238,7092,WL,A,8.0
5,18.026999950408936,learn,60000.0,Thu Mar 27 2025 14:41:32 GMT-0500 (Central Daylight Time),645005.6000000238,A,r,O,r,985,1,1000.3000000119209,644005.3000000119,7092,WL,A,9.0
5,18.194000005722046,learn,60000.0,Thu Mar 27 2025 14:41:32 GMT-0500 (Central Daylight Time),645172.6000000238,A,ra,O,a,142,1,1167.300000011921,644005.3000000119,7092,WL,A,9.0
5,18.292999982833862,learn,60000.0,Thu Mar 27 2025 14:41:32 GMT-0500 (Central Daylight Time),645271.6999999881,A,rat,O,t,67,1,1266.3999999761581,644005.3000000119,7092,WL,A,9.0
5,18.49399995803833,learn,60000.0,Thu Mar 27 2025 14:41:32 GMT-0500 (Central Daylight Time),645472.1000000238,A,ratt,O,t,174,1,1466.800000011921,644005.3000000119,7092,WL,A,9.0
5,18.57699990272522,learn,60000.0,Thu Mar 27 2025 14:41:32 GMT-0500 (Central Daylight Time),645555.1999999881,A,rattl,O,l,42,1,1549.8999999761581,644005.3000000119,7092,WL,A,9.0
5,18.608999967575073,learn,60000.0,Thu Mar 27 2025 14:41:32 GMT-0500 (Central Daylight Time),645587.8000000119,A,rattle,O,e,11,1,1582.5,644005.3000000119,7092,WL,A,9.0
5,18.80900001525879,learn,60000.0,Thu Mar 27 2025 14:41:32 GMT-0500 (Central Daylight Time),645787.6000000238,A,rattleenter,O,enter,193,1,1782.300000011921,644005.3000000119,7092,WL,A,9.0
5,19.176999807357788,learn,60000.0,Thu Mar 27 2025 14:41:32 GMT-0500 (Central Daylight Time),646155.1999999881,A,g,O,g,355,1,367.39999997615814,645787.8000000119,7092,WL,A,10.0
5,19.292999982833862,learn,60000.0,Thu Mar 27 2025 14:41:32 GMT-0500 (Central Daylight Time),646272.0,A,go,O,o,83,1,484.19999998807907,645787.8000000119,7092,WL,A,10.0
5,19.442999839782715,learn,60000.0,Thu Mar 27 2025 14:41:32 GMT-0500 (Central Daylight Time),646421.6000000238,A,gol,O,l,116,1,633.8000000119209,645787.8000000119,7092,WL,A,10.0
5,19.493000030517578,learn,60000.0,Thu Mar 27 2025 14:41:32 GMT-0500 (Central Daylight Time),646471.3999999762,A,gold,O,d,13,1,683.5999999642372,645787.8000000119,7092,WL,A,10.0
5,20.20899987220764,learn,60000.0,Thu Mar 27 2025 14:41:32 GMT-0500 (Central Daylight Time),647187.3000000119,A,goldenter,O,enter,705,1,1399.5,645787.8000000119,7092,WL,A,10.0
5,20.759999990463257,learn,60000.0,Thu Mar 27 2025 14:41:32 GMT-0500 (Central Daylight Time),647738.1999999881,A,k,O,k,531,1,550.6999999880791,647187.5,7092,WL,A,11.0
5,20.924999952316284,learn,60000.0,Thu Mar 27 2025 14:41:32 GMT-0500 (Central Daylight Time),647903.6000000238,A,ki,O,i,128,1,716.1000000238419,647187.5,7092,WL,A,11.0
5,21.508999824523926,learn,60000.0,Thu Mar 27 2025 14:41:32 GMT-0500 (Central Daylight Time),648488.0,A,k,O,backspace,565,1,1300.5,647187.5,7092,WL,A,11.0
5,21.592000007629395,learn,60000.0,Thu Mar 27 2025 14:41:32 GMT-0500 (Central Daylight Time),648570.5,A,ke,O,e,52,1,1383.0,647187.5,7092,WL,A,11.0
5,21.743000030517578,learn,60000.0,Thu Mar 27 2025 14:41:32 GMT-0500 (Central Daylight Time),648721.1000000238,A,key,O,y,123,1,1533.6000000238419,647187.5,7092,WL,A,11.0
5,22.007999897003174,learn,60000.0,Thu Mar 27 2025 14:41:32 GMT-0500 (Central Daylight Time),648986.6000000238,A,keyenter,O,enter,232,1,1799.1000000238419,647187.5,7092,WL,A,11.0
5,22.908999919891357,learn,60000.0,Thu Mar 27 2025 14:41:32 GMT-0500 (Central Daylight Time),649887.3999999762,A,f,O,f,882,1,900.5999999642372,648986.8000000119,7092,WL,A,12.0
5,23.026000022888184,learn,60000.0,Thu Mar 27 2025 14:41:32 GMT-0500 (Central Daylight Time),650004.1999999881,A,fi,O,i,75,1,1017.3999999761581,648986.8000000119,7092,WL,A,12.0
5,23.10800004005432,learn,60000.0,Thu Mar 27 2025 14:41:32 GMT-0500 (Central Daylight Time),650087.0,A,fin,O,n,46,1,1100.199999988079,648986.8000000119,7092,WL,A,12.0
5,24.22499990463257,learn,60000.0,Thu Mar 27 2025 14:41:32 GMT-0500 (Central Daylight Time),651203.5,A,fine,O,e,1084,1,2216.699999988079,648986.8000000119,7092,WL,A,12.0
5,24.280999898910522,learn,60000.0,Thu Mar 27 2025 14:41:32 GMT-0500 (Central Daylight Time),651259.8999999762,A,finer,O,r,16,1,2273.099999964237,648986.8000000119,7092,WL,A,12.0
5,25.407999992370605,learn,60000.0,Thu Mar 27 2025 14:41:32 GMT-0500 (Central Daylight Time),652386.6000000238,A,fine,O,backspace,1103,1,3399.800000011921,648986.8000000119,7092,WL,A,12.0
5,25.574999809265137,learn,60000.0,Thu Mar 27 2025 14:41:32 GMT-0500 (Central Daylight Time),652554.0,A,fin,O,backspace,129,1,3567.199999988079,648986.8000000119,7092,WL,A,12.0
5,25.70799994468689,learn,60000.0,Thu Mar 27 2025 14:41:32 GMT-0500 (Central Daylight Time),652686.3999999762,A,fing,O,g,97,1,3699.599999964237,648986.8000000119,7092,WL,A,12.0
5,25.94099998474121,learn,60000.0,Thu Mar 27 2025 14:41:32 GMT-0500 (Central Daylight Time),652919.1000000238,A,finge,O,e,204,1,3932.300000011921,648986.8000000119,7092,WL,A,12.0
5,26.057999849319458,learn,60000.0,Thu Mar 27 2025 14:41:32 GMT-0500 (Central Daylight Time),653036.1000000238,A,finger,O,r,87,1,4049.300000011921,648986.8000000119,7092,WL,A,12.0
5,26.490999937057495,learn,60000.0,Thu Mar 27 2025 14:41:32 GMT-0500 (Central Daylight Time),653469.6000000238,A,fingerenter,O,enter,405,1,4482.800000011921,648986.8000000119,7092,WL,A,12.0
5,28.7739999294281,learn,60000.0,Thu Mar 27 2025 14:41:32 GMT-0500 (Central Daylight Time),655751.5,A,t,O,t,2272,1,2281.699999988079,653469.8000000119,7092,WL,A,13.0
5,29.006999969482422,learn,60000.0,Thu Mar 27 2025 14:41:32 GMT-0500 (Central Daylight Time),655985.3000000119,A,tr,O,r,214,1,2515.5,653469.8000000119,7092,WL,A,13.0
5,29.141000032424927,learn,60000.0,Thu Mar 27 2025 14:41:32 GMT-0500 (Central Daylight Time),656118.8999999762,A,tra,O,a,97,1,2649.099999964237,653469.8000000119,7092,WL,A,13.0
5,29.240000009536743,learn,60000.0,Thu Mar 27 2025 14:41:32 GMT-0500 (Central Daylight Time),656218.3000000119,A,trai,O,i,62,1,2748.5,653469.8000000119,7092,WL,A,13.0
5,29.322999954223633,learn,60000.0,Thu Mar 27 2025 14:41:32 GMT-0500 (Central Daylight Time),656301.0,A,train,O,n,53,1,2831.199999988079,653469.8000000119,7092,WL,A,13.0
5,29.75599980354309,learn,60000.0,Thu Mar 27 2025 14:41:32 GMT-0500 (Central Daylight Time),656734.1000000238,A,trainenter,O,enter,413,1,3264.300000011921,653469.8000000119,7092,WL,A,13.0
5,33.32299995422363,learn,60000.0,Thu Mar 27 2025 14:41:32 GMT-0500 (Central Daylight Time),660301.3999999762,A,b,O,b,3560,1,3567.0,656734.3999999762,7092,WL,A,14.0
5,33.75599980354309,learn,60000.0,Thu Mar 27 2025 14:41:32 GMT-0500 (Central Daylight Time),660733.6999999881,A,bu,O,u,406,1,3999.300000011921,656734.3999999762,7092,WL,A,14.0
5,33.888999938964844,learn,60000.0,Thu Mar 27 2025 14:41:32 GMT-0500 (Central Daylight Time),660867.0,A,but,O,t,103,1,4132.600000023842,656734.3999999762,7092,WL,A,14.0
5,34.055999994277954,learn,60000.0,Thu Mar 27 2025 14:41:32 GMT-0500 (Central Daylight Time),661033.6000000238,A,butt,O,t,136,1,4299.200000047684,656734.3999999762,7092,WL,A,14.0
5,34.13800001144409,learn,60000.0,Thu Mar 27 2025 14:41:32 GMT-0500 (Central Daylight Time),661116.0,A,butto,O,o,58,1,4381.600000023842,656734.3999999762,7092,WL,A,14.0
5,34.23899984359741,learn,60000.0,Thu Mar 27 2025 14:41:32 GMT-0500 (Central Daylight Time),661217.0,A,button,O,n,80,1,4482.600000023842,656734.3999999762,7092,WL,A,14.0
5,34.48799991607666,learn,60000.0,Thu Mar 27 2025 14:41:32 GMT-0500 (Central Daylight Time),661465.8999999762,A,buttonenter,O,enter,220,1,4731.5,656734.3999999762,7092,WL,A,14.0
5,39.085999965667725,learn,60000.0,Thu Mar 27 2025 14:41:32 GMT-0500 (Central Daylight Time),666064.3999999762,A,enter,O,enter,4586,1,4598.199999988079,661466.1999999881,7092,WL,A,15.0
6,0.75,distr,59250.0,Thu Mar 27 2025 14:41:32 GMT-0500 (Central Daylight Time),756802.6000000238,B,p,O,p,724,1,749.5,756053.1000000238,7092,WL,A,1.0
6,0.7990000247955322,distr,59200.99997520447,Thu Mar 27 2025 14:41:32 GMT-0500 (Central Daylight Time),756851.3000000119,B,pe,O,e,27,1,798.1999999880791,756053.1000000238,7092,WL,A,1.0
6,0.9160001277923584,distr,59083.99987220764,Thu Mar 27 2025 14:41:32 GMT-0500 (Central Daylight Time),756968.3999999762,B,pea,O,a,98,1,915.2999999523163,756053.1000000238,7092,WL,A,1.0
6,1.06600022315979,distr,58933.99977684021,Thu Mar 27 2025 14:41:32 GMT-0500 (Central Daylight Time),757118.3000000119,B,peac,O,c,122,1,1065.199999988079,756053.1000000238,7092,WL,A,1.0
6,1.249000072479248,distr,58750.99992752075,Thu Mar 27 2025 14:41:32 GMT-0500 (Central Daylight Time),757302.0,B,peach,O,h,148,1,1248.8999999761581,756053.1000000238,7092,WL,A,1.0
6,1.5320000648498535,distr,58467.99993515015,Thu Mar 27 2025 14:41:32 GMT-0500 (Central Daylight Time),757584.3999999762,B,peachenter,O,enter,245,1,1531.2999999523163,756053.1000000238,7092,WL,A,1.0
6,2.2330000400543213,distr,57766.99995994568,Thu Mar 27 2025 14:41:32 GMT-0500 (Central Daylight Time),758285.1000000238,B,c,O,c,693,1,700.5,757584.6000000238,7092,WL,A,2.0
6,2.382000207901001,distr,57617.999792099,Thu Mar 27 2025 14:41:32 GMT-0500 (Central Daylight Time),758435.0,B,ch,O,h,118,1,850.3999999761581,757584.6000000238,7092,WL,A,2.0
6,2.4820001125335693,distr,57517.99988746643,Thu Mar 27 2025 14:41:32 GMT-0500 (Central Daylight Time),758534.1999999881,B,cha,O,a,63,1,949.5999999642372,757584.6000000238,7092,WL,A,2.0
6,2.5990002155303955,distr,57400.999784469604,Thu Mar 27 2025 14:41:32 GMT-0500 (Central Daylight Time),758651.1999999881,B,chai,O,i,96,1,1066.5999999642372,757584.6000000238,7092,WL,A,2.0
6,2.6650002002716064,distr,57334.99979972839,Thu Mar 27 2025 14:41:32 GMT-0500 (Central Daylight Time),758717.3000000119,B,chair,O,r,32,1,1132.699999988079,757584.6000000238,7092,WL,A,2.0
6,2.8480000495910645,distr,57151.999950408936,Thu Mar 27 2025 14:41:32 GMT-0500 (Central Daylight Time),758900.5,B,chairenter,O,enter,166,1,1315.8999999761581,757584.6000000238,7092,WL,A,2.0
6,3.449000120162964,distr,56550.999879837036,Thu Mar 27 2025 14:41:32 GMT-0500 (Central Daylight Time),759501.1999999881,B,j,O,j,594,1,600.5,758900.6999999881,7092,WL,A,3.0
6,3.632000207901001,distr,56367.999792099,Thu Mar 27 2025 14:41:32 GMT-0500 (Central Daylight Time),759684.6999999881,B,ju,O,u,139,1,784.0,758900.6999999881,7092,WL,A,3.0
6,3.7140002250671387,distr,56285.99977493286,Thu Mar 27 2025 14:41:32 GMT-0500 (Central Daylight Time),759767.0,B,jud,O,d,52,1,866.3000000119209,758900.6999999881,7092,WL,A,3.0
6,3.8990001678466797,distr,56100.99983215332,Thu Mar 27 2025 14:41:32 GMT-0500 (Central Daylight Time),759951.1000000238,B,jude,O,e,171,1,1050.4000000357628,758900.6999999881,7092,WL,A,3.0
6,4.582000017166138,distr,55417.99998283386,Thu Mar 27 2025 14:41:32 GMT-0500 (Central Daylight Time),760634.6000000238,B,jud,O,backspace,650,1,1733.9000000357628,758900.6999999881,7092,WL,A,3.0
6,4.698000192642212,distr,55301.99980735779,Thu Mar 27 2025 14:41:32 GMT-0500 (Central Daylight Time),760750.1999999881,B,judg,O,g,89,1,1849.5,758900.6999999881,7092,WL,A,3.0
6,4.815000057220459,distr,55184.99994277954,Thu Mar 27 2025 14:41:32 GMT-0500 (Central Daylight Time),760867.6999999881,B,judge,O,e,88,1,1967.0,758900.6999999881,7092,WL,A,3.0
6,5.247000217437744,distr,54752.999782562256,Thu Mar 27 2025 14:41:32 GMT-0500 (Central Daylight Time),761299.8000000119,B,judgeenter,O,enter,398,1,2399.100000023842,758900.6999999881,7092,WL,A,3.0
6,5.865000009536743,distr,54134.99999046326,Thu Mar 27 2025 14:41:32 GMT-0500 (Central Daylight Time),761917.1999999881,B,g,O,g,602,1,617.1999999880791,761300.0,7092,WL,A,4.0
6,6.065000057220459,distr,53934.99994277954,Thu Mar 27 2025 14:41:32 GMT-0500 (Central Daylight Time),762117.3999999762,B,gr,O,r,174,1,817.3999999761581,761300.0,7092,WL,A,4.0
6,6.198000192642212,distr,53801.99980735779,Thu Mar 27 2025 14:41:32 GMT-0500 (Central Daylight Time),762250.3000000119,B,gra,O,a,102,1,950.3000000119209,761300.0,7092,WL,A,4.0
6,6.331000089645386,distr,53668.999910354614,Thu Mar 27 2025 14:41:32 GMT-0500 (Central Daylight Time),762383.6000000238,B,gran,O,n,99,1,1083.6000000238419,761300.0,7092,WL,A,4.0
6,6.430000066757202,distr,53569.9999332428,Thu Mar 27 2025 14:41:32 GMT-0500 (Central Daylight Time),762482.6999999881,B,grand,O,d,58,1,1182.699999988079,761300.0,7092,WL,A,4.0
6,7.3480000495910645,distr,52651.999950408936,Thu Mar 27 2025 14:41:32 GMT-0500 (Central Daylight Time),763400.0,B,gran,O,backspace,902,1,2100.0,761300.0,7092,WL,A,4.0
6,7.413000106811523,distr,52586.99989318848,Thu Mar 27 2025 14:41:32 GMT-0500 (Central Daylight Time),763465.6000000238,B,grant,O,t,29,1,2165.600000023842,761300.0,7092,WL,A,4.0
6,7.913000106811523,distr,52086.99989318848,Thu Mar 27 2025 14:41:32 GMT-0500 (Central Daylight Time),763965.6000000238,B,grantenter,O,enter,490,1,2665.600000023842,761300.0,7092,WL,A,4.0
6,22.743000030517578,distr,37256.99996948242,Thu Mar 27 2025 14:41:32 GMT-0500 (Central Daylight Time),778795.1000000238,B,p,O,p,14809,1,14829.300000011921,763965.8000000119,7092,WL,A,5.0
6,22.960000038146973,distr,37039.99996185303,Thu Mar 27 2025 14:41:32 GMT-0500 (Central Daylight Time),779011.6000000238,B,pl,O,l,175,1,15045.800000011921,763965.8000000119,7092,WL,A,5.0
6,23.109000205993652,distr,36890.99979400635,Thu Mar 27 2025 14:41:32 GMT-0500 (Central Daylight Time),779160.8999999762,B,pla,O,a,116,1,15195.099999964237,763965.8000000119,7092,WL,A,5.0
6,23.243000030517578,distr,36756.99996948242,Thu Mar 27 2025 14:41:32 GMT-0500 (Central Daylight Time),779295.0,B,plan,O,n,103,1,15329.199999988079,763965.8000000119,7092,WL,A,5.0
6,23.426000118255615,distr,36573.999881744385,Thu Mar 27 2025 14:41:32 GMT-0500 (Central Daylight Time),779478.0,B,plane,O,e,149,1,15512.199999988079,763965.8000000119,7092,WL,A,5.0
6,24.008000135421753,distr,35991.99986457825,Thu Mar 27 2025 14:41:32 GMT-0500 (Central Daylight Time),780060.3000000119,B,planeenter,O,enter,551,1,16094.5,763965.8000000119,7092,WL,A,5.0
6,30.19000005722046,distr,29809.99994277954,Thu Mar 27 2025 14:41:32 GMT-0500 (Central Daylight Time),786241.5,B,c,O,c,6169,1,6181.0,780060.5,7092,WL,A,6.0
6,30.289000034332275,distr,29710.999965667725,Thu Mar 27 2025 14:41:32 GMT-0500 (Central Daylight Time),786341.3999999762,B,co,O,o,91,1,6280.899999976158,780060.5,7092,WL,A,6.0
6,30.42300009727478,distr,29576.99990272522,Thu Mar 27 2025 14:41:32 GMT-0500 (Central Daylight Time),786474.8000000119,B,cou,O,u,110,1,6414.300000011921,780060.5,7092,WL,A,6.0
6,30.69000005722046,distr,29309.99994277954,Thu Mar 27 2025 14:41:32 GMT-0500 (Central Daylight Time),786742.3000000119,B,coun,O,n,250,1,6681.800000011921,780060.5,7092,WL,A,6.0
6,30.907000064849854,distr,29092.999935150146,Thu Mar 27 2025 14:41:32 GMT-0500 (Central Daylight Time),786958.8999999762,B,count,O,t,189,1,6898.399999976158,780060.5,7092,WL,A,6.0
6,31.124000072479248,distr,28875.999927520752,Thu Mar 27 2025 14:41:32 GMT-0500 (Central Daylight Time),787175.5,B,county,O,y,181,1,7115.0,780060.5,7092,WL,A,6.0
6,31.82200002670288,distr,28177.99997329712,Thu Mar 27 2025 14:41:32 GMT-0500 (Central Daylight Time),787874.3999999762,B,countyenter,O,enter,666,1,7813.899999976158,780060.5,7092,WL,A,6.0
6,44.05200004577637,distr,15947.999954223633,Thu Mar 27 2025 14:41:32 GMT-0500 (Central Daylight Time),800103.6999999881,B,enter,O,enter,12218,1,12229.099999964237,787874.6000000238,7092,WL,A,7.0
6,44.901000022888184,distr,15098.999977111816,Thu Mar 27 2025 14:41:32 GMT-0500 (Central Daylight Time),800953.5,B,enter,O,enter,837,1,849.5,800104.0,7092,WL,A,8.0
6,45.401000022888184,distr,14598.999977111816,Thu Mar 27 2025 14:41:32 GMT-0500 (Central Daylight Time),801453.1999999881,B,enter,O,enter,492,1,499.5,800953.6999999881,7092,WL,A,9.0
6,45.78400015830994,distr,14215.999841690063,Thu Mar 27 2025 14:41:32 GMT-0500 (Central Daylight Time),801836.3999999762,B,enter,O,enter,368,1,382.89999997615814,801453.5,7092,WL,A,10.0
6,46.151000022888184,distr,13848.999977111816,Thu Mar 27 2025 14:41:32 GMT-0500 (Central Daylight Time),802203.1000000238,B,enter,O,enter,361,1,366.30000001192093,801836.8000000119,7092,WL,A,11.0
6,46.4520001411438,distr,13547.999858856201,Thu Mar 27 2025 14:41:32 GMT-0500 (Central Daylight Time),802504.1000000238,B,enter,O,enter,290,1,300.7000000476837,802203.3999999762,7092,WL,A,12.0
6,46.634000062942505,distr,13365.999937057495,Thu Mar 27 2025 14:41:32 GMT-0500 (Central Daylight Time),802686.1999999881,B,enter,O,enter,165,1,181.80000001192093,802504.3999999762,7092,WL,A,13.0
6,47.00100016593933,distr,12998.999834060669,Thu Mar 27 2025 14:41:32 GMT-0500 (Central Daylight Time),803052.6000000238,B,enter,O,enter,359,1,366.2000000476837,802686.3999999762,7092,WL,A,14.0
6,47.401000022888184,distr,12598.999977111816,Thu Mar 27 2025 14:41:32 GMT-0500 (Central Daylight Time),803452.6000000238,B,enter,O,enter,384,1,399.7000000476837,803052.8999999762,7092,WL,A,15.0
7,1.566999912261963,immed,58433.00008773804,Thu Mar 27 2025 14:41:32 GMT-0500 (Central Daylight Time),823113.8000000119,A,f,O,f,1548,1,1567.1000000238419,821546.6999999881,7092,WL,A,1.0
7,1.7160000801086426,immed,58283.99991989136,Thu Mar 27 2025 14:41:32 GMT-0500 (Central Daylight Time),823263.1000000238,A,fl,O,l,120,1,1716.4000000357628,821546.6999999881,7092,WL,A,1.0
7,1.9170000553131104,immed,58082.99994468689,Thu Mar 27 2025 14:41:32 GMT-0500 (Central Daylight Time),823463.6999999881,A,flo,O,o,174,1,1917.0,821546.6999999881,7092,WL,A,1.0
7,1.999000072479248,immed,58000.99992752075,Thu Mar 27 2025 14:41:32 GMT-0500 (Central Daylight Time),823546.1000000238,A,flow,O,w,42,1,1999.4000000357628,821546.6999999881,7092,WL,A,1.0
7,2.0490000247955322,immed,57950.99997520447,Thu Mar 27 2025 14:41:32 GMT-0500 (Central Daylight Time),823596.1000000238,A,flowe,O,e,38,1,2049.400000035763,821546.6999999881,7092,WL,A,1.0
7,2.131999969482422,immed,57868.00003051758,Thu Mar 27 2025 14:41:32 GMT-0500 (Central Daylight Time),823679.3999999762,A,flower,O,r,68,1,2132.699999988079,821546.6999999881,7092,WL,A,1.0
7,3.049999952316284,immed,56950.000047683716,Thu Mar 27 2025 14:41:32 GMT-0500 (Central Daylight Time),824596.6000000238,A,flowerenter,O,enter,905,1,3049.900000035763,821546.6999999881,7092,WL,A,1.0
7,3.5829999446868896,immed,56417.00005531311,Thu Mar 27 2025 14:41:32 GMT-0500 (Central Daylight Time),825129.8000000119,A,m,O,m,521,1,532.9000000357628,824596.8999999762,7092,WL,A,2.0
7,3.631999969482422,immed,56368.00003051758,Thu Mar 27 2025 14:41:32 GMT-0500 (Central Daylight Time),825179.3999999762,A,me,O,e,25,1,582.5,824596.8999999762,7092,WL,A,2.0
7,3.749000072479248,immed,56250.99992752075,Thu Mar 27 2025 14:41:32 GMT-0500 (Central Daylight Time),825296.0,A,mea,O,a,95,1,699.1000000238419,824596.8999999762,7092,WL,A,2.0
7,4.0980000495910645,immed,55901.999950408936,Thu Mar 27 2025 14:41:32 GMT-0500 (Central Daylight Time),825645.1999999881,A,mead,O,d,330,1,1048.300000011921,824596.8999999762,7092,WL,A,2.0
7,4.198999881744385,immed,55801.000118255615,Thu Mar 27 2025 14:41:32 GMT-0500 (Central Daylight Time),825746.0,A,meado,O,o,90,1,1149.1000000238419,824596.8999999762,7092,WL,A,2.0
7,4.315000057220459,immed,55684.99994277954,Thu Mar 27 2025 14:41:32 GMT-0500 (Central Daylight Time),825862.5,A,meadow,O,w,87,1,1265.6000000238419,824596.8999999762,7092,WL,A,2.0
7,4.565000057220459,immed,55434.99994277954,Thu Mar 27 2025 14:41:32 GMT-0500 (Central Daylight Time),826111.8000000119,A,meadowenter,O,enter,224,1,1514.9000000357628,824596.8999999762,7092,WL,A,2.0
7,5.0320000648498535,immed,54967.99993515015,Thu Mar 27 2025 14:41:32 GMT-0500 (Central Daylight Time),826579.3000000119,A,b,O,b,454,1,467.19999998807907,826112.1000000238,7092,WL,A,3.0
7,5.299000024795532,immed,54700.99997520447,Thu Mar 27 2025 14:41:32 GMT-0500 (Central Daylight Time),826845.8000000119,A,bo,O,o,235,1,733.6999999880791,826112.1000000238,7092,WL,A,3.0
7,5.431999921798706,immed,54568.000078201294,Thu Mar 27 2025 14:41:32 GMT-0500 (Central Daylight Time),826979.1000000238,A,boo,O,o,102,1,867.0,826112.1000000238,7092,WL,A,3.0
7,5.5320000648498535,immed,54467.99993515015,Thu Mar 27 2025 14:41:32 GMT-0500 (Central Daylight Time),827078.5,A,book,O,k,62,1,966.3999999761581,826112.1000000238,7092,WL,A,3.0
7,5.79800009727478,immed,54201.99990272522,Thu Mar 27 2025 14:41:32 GMT-0500 (Central Daylight Time),827344.8000000119,A,bookenter,O,enter,238,1,1232.699999988079,826112.1000000238,7092,WL,A,3.0
7,5.98199987411499,immed,54018.00012588501,Thu Mar 27 2025 14:41:32 GMT-0500 (Central Daylight Time),827528.8000000119,A,c,O,c,173,1,183.80000001192093,827345.0,7092,WL,A,4.0
7,6.098999977111816,immed,53901.00002288818,Thu Mar 27 2025 14:41:32 GMT-0500 (Central Daylight Time),827645.6999999881,A,ch,O,h,82,1,300.69999998807907,827345.0,7092,WL,A,4.0
7,6.197999954223633,immed,53802.00004577637,Thu Mar 27 2025 14:41:32 GMT-0500 (Central Daylight Time),827744.6999999881,A,chi,O,i,68,1,399.69999998807907,827345.0,7092,WL,A,4.0
7,6.54800009727478,immed,53451.99990272522,Thu Mar 27 2025 14:41:32 GMT-0500 (Central Daylight Time),828095.5,A,chim,O,m,329,1,750.5,827345.0,7092,WL,A,4.0
7,6.898000001907349,immed,53101.99999809265,Thu Mar 27 2025 14:41:32 GMT-0500 (Central Daylight Time),828445.1999999881,A,chimn,O,n,316,1,1100.199999988079,827345.0,7092,WL,A,4.0
7,6.980999946594238,immed,53019.00005340576,Thu Mar 27 2025 14:41:32 GMT-0500 (Central Daylight Time),828527.6999999881,A,chimne,O,e,45,1,1182.699999988079,827345.0,7092,WL,A,4.0
7,7.082000017166138,immed,52917.99998283386,Thu Mar 27 2025 14:41:32 GMT-0500 (Central Daylight Time),828629.1999999881,A,chimney,O,y,89,1,1284.199999988079,827345.0,7092,WL,A,4.0
7,7.346999883651733,immed,52653.00011634827,Thu Mar 27 2025 14:41:32 GMT-0500 (Central Daylight Time),828894.1000000238,A,chimneyenter,O,enter,234,1,1549.1000000238419,827345.0,7092,WL,A,4.0
7,7.664999961853027,immed,52335.00003814697,Thu Mar 27 2025 14:41:32 GMT-0500 (Central Daylight Time),829211.8999999762,A,t,O,t,296,1,317.5999999642372,828894.3000000119,7092,WL,A,5.0
7,7.898000001907349,immed,52101.99999809265,Thu Mar 27 2025 14:41:32 GMT-0500 (Central Daylight Time),829445.0,A,tr,O,r,199,1,550.6999999880791,828894.3000000119,7092,WL,A,5.0
7,7.997999906539917,immed,52002.00009346008,Thu Mar 27 2025 14:41:32 GMT-0500 (Central Daylight Time),829544.8000000119,A,tra,O,a,69,1,650.5,828894.3000000119,7092,WL,A,5.0
7,8.082000017166138,immed,51917.99998283386,Thu Mar 27 2025 14:41:32 GMT-0500 (Central Daylight Time),829629.0,A,trai,O,i,59,1,734.6999999880791,828894.3000000119,7092,WL,A,5.0
7,8.164000034332275,immed,51835.999965667725,Thu Mar 27 2025 14:41:32 GMT-0500 (Central Daylight Time),829710.5,A,train,O,n,43,1,816.1999999880791,828894.3000000119,7092,WL,A,5.0
7,8.36299991607666,immed,51637.00008392334,Thu Mar 27 2025 14:41:32 GMT-0500 (Central Daylight Time),829910.3999999762,A,trainenter,O,enter,189,1,1016.0999999642372,828894.3000000119,7092,WL,A,5.0
7,8.747999906539917,immed,51252.00009346008,Thu Mar 27 2025 14:41:32 GMT-0500 (Central Daylight Time),830294.6000000238,A,k,O,k,374,1,383.80000001192093,829910.8000000119,7092,WL,A,6.0
7,8.88100004196167,immed,51118.99995803833,Thu Mar 27 2025 14:41:32 GMT-0500 (Central Daylight Time),830427.6999999881,A,ke,O,e,94,1,516.8999999761581,829910.8000000119,7092,WL,A,6.0
7,8.980000019073486,immed,51019.999980926514,Thu Mar 27 2025 14:41:32 GMT-0500 (Central Daylight Time),830527.0,A,key,O,y,63,1,616.1999999880791,829910.8000000119,7092,WL,A,6.0
7,9.197999954223633,immed,50802.00004577637,Thu Mar 27 2025 14:41:32 GMT-0500 (Central Daylight Time),830744.6000000238,A,keyenter,O,enter,195,1,833.8000000119209,829910.8000000119,7092,WL,A,6.0
7,9.697999954223633,immed,50302.00004577637,Thu Mar 27 2025 14:41:32 GMT-0500 (Central Daylight Time),831244.8000000119,A,l,O,l,492,1,500.0,830744.8000000119,7092,WL,A,7.0
7,9.895999908447266,immed,50104.000091552734,Thu Mar 27 2025 14:41:32 GMT-0500 (Central Daylight Time),831443.3999999762,A,lo,O,o,165,1,698.5999999642372,830744.8000000119,7092,WL,A,7.0
7,9.980000019073486,immed,50019.999980926514,Thu Mar 27 2025 14:41:32 GMT-0500 (Central Daylight Time),831526.5,A,log,O,g,72,1,781.6999999880791,830744.8000000119,7092,WL,A,7.0
7,10.246000051498413,immed,49753.99994850159,Thu Mar 27 2025 14:41:32 GMT-0500 (Central Daylight Time),831793.5,A,logenter,O,enter,246,1,1048.699999988079,830744.8000000119,7092,WL,A,7.0
7,13.11299991607666,immed,46887.00008392334,Thu Mar 27 2025 14:41:32 GMT-0500 (Central Daylight Time),834659.6000000238,A,r,O,r,2853,1,2865.900000035763,831793.6999999881,7092,WL,A,8.0
7,13.196000099182129,immed,46803.99990081787,Thu Mar 27 2025 14:41:32 GMT-0500 (Central Daylight Time),834742.5,A,ru,O,u,55,1,2948.800000011921,831793.6999999881,7092,WL,A,8.0
7,13.52999997138977,immed,46470.00002861023,Thu Mar 27 2025 14:41:32 GMT-0500 (Central Daylight Time),835076.5,A,rug,O,g,315,1,3282.800000011921,831793.6999999881,7092,WL,A,8.0
7,13.645999908447266,immed,46354.000091552734,Thu Mar 27 2025 14:41:32 GMT-0500 (Central Daylight Time),835192.1000000238,A,rugenter,O,enter,78,1,3398.400000035763,831793.6999999881,7092,WL,A,8.0
7,17.644999980926514,immed,42355.000019073486,Thu Mar 27 2025 14:41:32 GMT-0500 (Central Daylight Time),839191.8000000119,A,t,O,t,3982,1,3999.400000035763,835192.3999999762,7092,WL,A,9.0
7,17.878999948501587,immed,42121.00005149841,Thu Mar 27 2025 14:41:32 GMT-0500 (Central Daylight Time),839425.1000000238,A,tr,O,r,196,1,4232.700000047684,835192.3999999762,7092,WL,A,9.0
7,17.99399995803833,immed,42006.00004196167,Thu Mar 27 2025 14:41:32 GMT-0500 (Central Daylight Time),839540.8999999762,A,tra,O,a,80,1,4348.5,835192.3999999762,7092,WL,A,9.0
7,18.111999988555908,immed,41888.00001144409,Thu Mar 27 2025 14:41:32 GMT-0500 (Central Daylight Time),839658.3000000119,A,trai,O,i,89,1,4465.900000035763,835192.3999999762,7092,WL,A,9.0
7,18.17799997329712,immed,41822.00002670288,Thu Mar 27 2025 14:41:32 GMT-0500 (Central Daylight Time),839724.1000000238,A,train,O,n,39,1,4531.700000047684,835192.3999999762,7092,WL,A,9.0
7,18.72699999809265,immed,41273.00000190735,Thu Mar 27 2025 14:41:32 GMT-0500 (Central Daylight Time),840273.8999999762,A,trainenter,O,enter,523,1,5081.5,835192.3999999762,7092,WL,A,9.0
7,18.97699999809265,immed,41023.00000190735,Thu Mar 27 2025 14:41:32 GMT-0500 (Central Daylight Time),840523.6999999881,A,h,O,h,234,1,249.5999999642372,840274.1000000238,7092,WL,A,10.0
7,19.07699990272522,immed,40923.00009727478,Thu Mar 27 2025 14:41:32 GMT-0500 (Central Daylight Time),840623.6999999881,A,ha,O,a,81,1,349.5999999642372,840274.1000000238,7092,WL,A,10.0
7,19.594000101089478,immed,40405.99989891052,Thu Mar 27 2025 14:41:32 GMT-0500 (Central Daylight Time),841140.3000000119,A,har,O,r,509,1,866.1999999880791,840274.1000000238,7092,WL,A,10.0
7,20.05999994277954,immed,39940.00005722046,Thu Mar 27 2025 14:41:32 GMT-0500 (Central Daylight Time),841606.8000000119,A,harp,O,p,448,1,1332.699999988079,840274.1000000238,7092,WL,A,10.0
7,20.859999895095825,immed,39140.000104904175,Thu Mar 27 2025 14:41:32 GMT-0500 (Central Daylight Time),842406.5,A,harpenter,O,enter,781,1,2132.399999976158,840274.1000000238,7092,WL,A,10.0
7,39.13700008392334,immed,20862.99991607666,Thu Mar 27 2025 14:41:32 GMT-0500 (Central Daylight Time),860683.8999999762,A,enter,O,enter,18262,1,18277.0,842406.8999999762,7092,WL,A,11.0
7,39.55399990081787,immed,20446.00009918213,Thu Mar 27 2025 14:41:32 GMT-0500 (Central Daylight Time),861100.3000000119,A,enter,O,enter,409,1,416.10000002384186,860684.1999999881,7092,WL,A,12.0
7,39.88700008392334,immed,20112.99991607666,Thu Mar 27 2025 14:41:32 GMT-0500 (Central Daylight Time),861433.6000000238,A,enter,O,enter,313,1,333.0,861100.6000000238,7092,WL,A,13.0
7,40.23699998855591,immed,19763.00001144409,Thu Mar 27 2025 14:41:32 GMT-0500 (Central Daylight Time),861783.3999999762,A,enter,O,enter,332,1,349.5,861433.8999999762,7092,WL,A,14.0
7,40.70300006866455,immed,19296.99993133545,Thu Mar 27 2025 14:41:32 GMT-0500 (Central Daylight Time),862249.8999999762,A,enter,O,enter,454,1,466.0999999642372,861783.8000000119,7092,WL,A,15.0
