block_c,block_dur,condition,countdown,datetime,endtime,list,multichar_response,project,response,response_time,session_number,start_end,starttime,subject_id,task,task_vers,trial
,,,,Mon Mar 10 2025 15:31:09 GMT-0500 (Central Daylight Time),,,,O,space,597,1,,,7076,WL,C,
prac,,0,,Mon Mar 10 2025 15:31:09 GMT-0500 (Central Daylight Time),,NA,b,O,b,4218,1,,,7076,WL,C,1.0
prac,,0,,Mon Mar 10 2025 15:31:09 GMT-0500 (Central Daylight Time),,NA,bo,O,o,382,1,,,7076,WL,C,1.0
prac,,0,,Mon Mar 10 2025 15:31:09 GMT-0500 (Central Daylight Time),,NA,boo,O,o,142,1,,,7076,WL,C,1.0
prac,,0,,Mon Mar 10 2025 15:31:09 GMT-0500 (Central Daylight Time),,NA,boos,O,s,1070,1,,,7076,WL,C,1.0
prac,,0,,Mon Mar 10 2025 15:31:09 GMT-0500 (Central Daylight Time),,NA,boost,O,t,288,1,,,7076,WL,C,1.0
prac,,0,,Mon Mar 10 2025 15:31:09 GMT-0500 (Central Daylight Time),,NA,boostenter,O,enter,1140,1,,,7076,WL,C,1.0
1,2.115999937057495,learn,57884.000062942505,Mon Mar 10 2025 15:31:09 GMT-0500 (Central Daylight Time),154058.09999996424,A,w,O,w,2103,1,2115.0,151943.09999996424,7076,WL,C,1.0
1,2.366999864578247,learn,57633.00013542175,Mon Mar 10 2025 15:31:09 GMT-0500 (Central Daylight Time),154309.0,A,wh,O,h,227,1,2365.900000035763,151943.09999996424,7076,WL,C,1.0
1,2.6659998893737793,learn,57334.00011062622,Mon Mar 10 2025 15:31:09 GMT-0500 (Central Daylight Time),154608.09999996424,A,whe,O,e,278,1,2665.0,151943.09999996424,7076,WL,C,1.0
1,2.747999906539917,learn,57252.00009346008,Mon Mar 10 2025 15:31:09 GMT-0500 (Central Daylight Time),154690.39999997616,A,whea,O,a,65,1,2747.300000011921,151943.09999996424,7076,WL,C,1.0
1,2.9830000400543213,learn,57016.99995994568,Mon Mar 10 2025 15:31:09 GMT-0500 (Central Daylight Time),154924.89999997616,A,wheat,O,t,211,1,2981.800000011921,151943.09999996424,7076,WL,C,1.0
1,6.080999851226807,learn,53919.00014877319,Mon Mar 10 2025 15:31:09 GMT-0500 (Central Daylight Time),158023.5,A,wheatenter,O,enter,3073,1,6080.400000035763,151943.09999996424,7076,WL,C,1.0
1,7.365000009536743,learn,52634.99999046326,Mon Mar 10 2025 15:31:09 GMT-0500 (Central Daylight Time),159307.19999998808,A,t,O,t,1271,1,1283.300000011921,158023.89999997616,7076,WL,C,2.0
1,7.5980000495910645,learn,52401.999950408936,Mon Mar 10 2025 15:31:09 GMT-0500 (Central Daylight Time),159540.09999996424,A,to,O,o,212,1,1516.199999988079,158023.89999997616,7076,WL,C,2.0
1,8.247999906539917,learn,51752.00009346008,Mon Mar 10 2025 15:31:09 GMT-0500 (Central Daylight Time),160189.89999997616,A,tow,O,w,625,1,2166.0,158023.89999997616,7076,WL,C,2.0
1,8.312999963760376,learn,51687.000036239624,Mon Mar 10 2025 15:31:09 GMT-0500 (Central Daylight Time),160255.29999995232,A,towe,O,e,44,1,2231.399999976158,158023.89999997616,7076,WL,C,2.0
1,8.613999843597412,learn,51386.00015640259,Mon Mar 10 2025 15:31:09 GMT-0500 (Central Daylight Time),160556.39999997616,A,tower,O,r,285,1,2532.5,158023.89999997616,7076,WL,C,2.0
1,9.463000059127808,learn,50536.99994087219,Mon Mar 10 2025 15:31:09 GMT-0500 (Central Daylight Time),161405.0,A,towerenter,O,enter,832,1,3381.100000023842,158023.89999997616,7076,WL,C,2.0
1,11.17799997329712,learn,48822.00002670288,Mon Mar 10 2025 15:31:09 GMT-0500 (Central Daylight Time),163120.69999998808,A,h,O,h,1707,1,1715.300000011921,161405.39999997616,7076,WL,C,3.0
1,12.17799997329712,learn,47822.00002670288,Mon Mar 10 2025 15:31:09 GMT-0500 (Central Daylight Time),164120.09999996424,A,ho,O,o,991,1,2714.699999988079,161405.39999997616,7076,WL,C,3.0
1,12.26199984550476,learn,47738.00015449524,Mon Mar 10 2025 15:31:09 GMT-0500 (Central Daylight Time),164203.69999998808,A,hom,O,m,61,1,2798.300000011921,161405.39999997616,7076,WL,C,3.0
1,12.496999979019165,learn,47503.000020980835,Mon Mar 10 2025 15:31:09 GMT-0500 (Central Daylight Time),164439.5,A,home,O,e,228,1,3034.100000023842,161405.39999997616,7076,WL,C,3.0
1,13.062999963760376,learn,46937.000036239624,Mon Mar 10 2025 15:31:09 GMT-0500 (Central Daylight Time),165004.79999995232,A,homeenter,O,enter,542,1,3599.399999976158,161405.39999997616,7076,WL,C,3.0
1,14.428999900817871,learn,45571.00009918213,Mon Mar 10 2025 15:31:09 GMT-0500 (Central Daylight Time),166370.89999997616,A,b,O,b,1345,1,1365.699999988079,165005.19999998808,7076,WL,C,4.0
1,14.628000020980835,learn,45371.999979019165,Mon Mar 10 2025 15:31:09 GMT-0500 (Central Daylight Time),166570.39999997616,A,bo,O,o,188,1,1565.199999988079,165005.19999998808,7076,WL,C,4.0
1,15.144999980926514,learn,44855.000019073486,Mon Mar 10 2025 15:31:09 GMT-0500 (Central Daylight Time),167087.5,A,boy,O,y,510,1,2082.300000011921,165005.19999998808,7076,WL,C,4.0
1,16.026999950408936,learn,43973.000049591064,Mon Mar 10 2025 15:31:09 GMT-0500 (Central Daylight Time),167969.59999996424,A,boyenter,O,enter,871,1,2964.399999976158,165005.19999998808,7076,WL,C,4.0
1,17.128999948501587,learn,42871.00005149841,Mon Mar 10 2025 15:31:09 GMT-0500 (Central Daylight Time),169071.09999996424,A,f,O,f,1095,1,1101.0999999642372,167970.0,7076,WL,C,5.0
1,17.22699999809265,learn,42773.00000190735,Mon Mar 10 2025 15:31:09 GMT-0500 (Central Daylight Time),169169.0,A,fa,O,a,87,1,1199.0,167970.0,7076,WL,C,5.0
1,18.17799997329712,learn,41822.00002670288,Mon Mar 10 2025 15:31:09 GMT-0500 (Central Daylight Time),170120.09999996424,A,far,O,r,929,1,2150.099999964237,167970.0,7076,WL,C,5.0
1,18.361999988555908,learn,41638.00001144409,Mon Mar 10 2025 15:31:09 GMT-0500 (Central Daylight Time),170304.59999996424,A,farm,O,m,173,1,2334.599999964237,167970.0,7076,WL,C,5.0
1,18.927000045776367,learn,41072.99995422363,Mon Mar 10 2025 15:31:09 GMT-0500 (Central Daylight Time),170869.29999995232,A,farmenter,O,enter,549,1,2899.2999999523163,167970.0,7076,WL,C,5.0
1,20.144999980926514,learn,39855.000019073486,Mon Mar 10 2025 15:31:09 GMT-0500 (Central Daylight Time),172086.89999997616,A,q,O,q,1210,1,1217.199999988079,170869.69999998808,7076,WL,C,6.0
1,20.658999919891357,learn,39341.00008010864,Mon Mar 10 2025 15:31:09 GMT-0500 (Central Daylight Time),172601.09999996424,A,qu,O,u,502,1,1731.3999999761581,170869.69999998808,7076,WL,C,6.0
1,21.042999982833862,learn,38957.00001716614,Mon Mar 10 2025 15:31:09 GMT-0500 (Central Daylight Time),172985.09999996424,A,que,O,e,367,1,2115.399999976158,170869.69999998808,7076,WL,C,6.0
1,21.20899987220764,learn,38791.00012779236,Mon Mar 10 2025 15:31:09 GMT-0500 (Central Daylight Time),173151.19999998808,A,quee,O,e,141,1,2281.5,170869.69999998808,7076,WL,C,6.0
1,21.358999967575073,learn,38641.00003242493,Mon Mar 10 2025 15:31:09 GMT-0500 (Central Daylight Time),173301.59999996424,A,queen,O,n,132,1,2431.899999976158,170869.69999998808,7076,WL,C,6.0
1,22.026000022888184,learn,37973.99997711182,Mon Mar 10 2025 15:31:09 GMT-0500 (Central Daylight Time),173968.5,A,queenenter,O,enter,648,1,3098.800000011921,170869.69999998808,7076,WL,C,6.0
1,23.592999935150146,learn,36407.00006484985,Mon Mar 10 2025 15:31:09 GMT-0500 (Central Daylight Time),175535.59999996424,A,f,O,f,1561,1,1566.800000011921,173968.79999995232,7076,WL,C,7.0
1,23.825999975204468,learn,36174.00002479553,Mon Mar 10 2025 15:31:09 GMT-0500 (Central Daylight Time),175767.79999995232,A,fl,O,l,224,1,1799.0,173968.79999995232,7076,WL,C,7.0
1,23.960000038146973,learn,36039.99996185303,Mon Mar 10 2025 15:31:09 GMT-0500 (Central Daylight Time),175901.79999995232,A,fla,O,a,125,1,1933.0,173968.79999995232,7076,WL,C,7.0
1,24.10800004005432,learn,35891.99995994568,Mon Mar 10 2025 15:31:09 GMT-0500 (Central Daylight Time),176050.09999996424,A,flag,O,g,136,1,2081.300000011921,173968.79999995232,7076,WL,C,7.0
1,24.307999849319458,learn,35692.00015068054,Mon Mar 10 2025 15:31:09 GMT-0500 (Central Daylight Time),176250.5,A,flagenter,O,enter,180,1,2281.7000000476837,173968.79999995232,7076,WL,C,7.0
1,41.41799998283386,learn,18582.000017166138,Mon Mar 10 2025 15:31:09 GMT-0500 (Central Daylight Time),193360.79999995232,A,f,O,f,17101,1,17109.899999976158,176250.89999997616,7076,WL,C,8.0
1,42.30299997329712,learn,17697.00002670288,Mon Mar 10 2025 15:31:09 GMT-0500 (Central Daylight Time),194245.79999995232,A,fa,O,a,880,1,17994.899999976158,176250.89999997616,7076,WL,C,8.0
1,42.4689998626709,learn,17531.0001373291,Mon Mar 10 2025 15:31:09 GMT-0500 (Central Daylight Time),194411.09999996424,A,far,O,r,143,1,18160.19999998808,176250.89999997616,7076,WL,C,8.0
1,42.65299987792969,learn,17347.000122070312,Mon Mar 10 2025 15:31:09 GMT-0500 (Central Daylight Time),194595.09999996424,A,farm,O,m,159,1,18344.19999998808,176250.89999997616,7076,WL,C,8.0
1,43.05200004577637,learn,16947.999954223633,Mon Mar 10 2025 15:31:09 GMT-0500 (Central Daylight Time),194994.39999997616,A,farmenter,O,enter,388,1,18743.5,176250.89999997616,7076,WL,C,8.0
1,56.64800000190735,learn,3351.9999980926514,Mon Mar 10 2025 15:31:09 GMT-0500 (Central Daylight Time),208590.59999996424,A,enter,O,enter,13590,1,13596.0,194994.59999996424,7076,WL,C,9.0
1,57.09699988365173,learn,2903.0001163482666,Mon Mar 10 2025 15:31:09 GMT-0500 (Central Daylight Time),209039.5,A,enter,O,enter,432,1,448.5,208591.0,7076,WL,C,10.0
1,57.34699988365173,learn,2653.0001163482666,Mon Mar 10 2025 15:31:09 GMT-0500 (Central Daylight Time),209289.5,A,enter,O,enter,233,1,249.60000002384186,209039.89999997616,7076,WL,C,11.0
1,57.69799995422363,learn,2302.000045776367,Mon Mar 10 2025 15:31:09 GMT-0500 (Central Daylight Time),209640.0,A,enter,O,enter,343,1,350.2000000476837,209289.79999995232,7076,WL,C,12.0
1,58.013999938964844,learn,1986.0000610351562,Mon Mar 10 2025 15:31:09 GMT-0500 (Central Daylight Time),209956.5,A,enter,O,enter,303,1,316.10000002384186,209640.39999997616,7076,WL,C,13.0
1,58.34699988365173,learn,1653.0001163482666,Mon Mar 10 2025 15:31:09 GMT-0500 (Central Daylight Time),210289.59999996424,A,enter,O,enter,315,1,332.69999998807907,209956.89999997616,7076,WL,C,14.0
1,58.73099994659424,learn,1269.0000534057617,Mon Mar 10 2025 15:31:09 GMT-0500 (Central Daylight Time),210673.69999998808,A,enter,O,enter,374,1,383.69999998807907,210290.0,7076,WL,C,15.0
2,0.5510001182556152,learn,59448.999881744385,Mon Mar 10 2025 15:31:09 GMT-0500 (Central Daylight Time),279584.39999997616,A,c,O,c,531,1,550.0,279034.39999997616,7076,WL,C,1.0
2,0.8350000381469727,learn,59164.99996185303,Mon Mar 10 2025 15:31:09 GMT-0500 (Central Daylight Time),279869.0,A,co,O,o,263,1,834.6000000238419,279034.39999997616,7076,WL,C,1.0
2,1.0190000534057617,learn,58980.99994659424,Mon Mar 10 2025 15:31:09 GMT-0500 (Central Daylight Time),280052.5,A,cor,O,r,160,1,1018.1000000238419,279034.39999997616,7076,WL,C,1.0
2,1.318000078201294,learn,58681.999921798706,Mon Mar 10 2025 15:31:09 GMT-0500 (Central Daylight Time),280351.2999999523,A,corn,O,n,292,1,1316.8999999761581,279034.39999997616,7076,WL,C,1.0
2,2.2170000076293945,learn,57782.999992370605,Mon Mar 10 2025 15:31:09 GMT-0500 (Central Daylight Time),281250.59999996424,A,cornenter,O,enter,883,1,2216.199999988079,279034.39999997616,7076,WL,C,1.0
2,3.2160000801086426,learn,56783.99991989136,Mon Mar 10 2025 15:31:09 GMT-0500 (Central Daylight Time),282250.1999999881,A,n,O,n,989,1,999.3000000119209,281250.89999997616,7076,WL,C,2.0
2,3.4170000553131104,learn,56582.99994468689,Mon Mar 10 2025 15:31:09 GMT-0500 (Central Daylight Time),282450.59999996424,A,na,O,a,182,1,1199.699999988079,281250.89999997616,7076,WL,C,2.0
2,3.5830001831054688,learn,56416.99981689453,Mon Mar 10 2025 15:31:09 GMT-0500 (Central Daylight Time),282617.0,A,nai,O,i,145,1,1366.1000000238419,281250.89999997616,7076,WL,C,2.0
2,3.8330001831054688,learn,56166.99981689453,Mon Mar 10 2025 15:31:09 GMT-0500 (Central Daylight Time),282866.5,A,nail,O,l,238,1,1615.6000000238419,281250.89999997616,7076,WL,C,2.0
2,4.252000093460083,learn,55747.99990653992,Mon Mar 10 2025 15:31:09 GMT-0500 (Central Daylight Time),283285.2999999523,A,nailenter,O,enter,413,1,2034.3999999761581,281250.89999997616,7076,WL,C,2.0
2,4.583000183105469,learn,55416.99981689453,Mon Mar 10 2025 15:31:09 GMT-0500 (Central Daylight Time),283616.59999996424,A,c,O,c,325,1,331.0,283285.59999996424,7076,WL,C,3.0
2,4.63100004196167,learn,55368.99995803833,Mon Mar 10 2025 15:31:09 GMT-0500 (Central Daylight Time),283664.59999996424,A,ca,O,a,38,1,379.0,283285.59999996424,7076,WL,C,3.0
2,5.0,learn,55000.0,Mon Mar 10 2025 15:31:09 GMT-0500 (Central Daylight Time),284034.1999999881,A,cat,O,t,351,1,748.6000000238419,283285.59999996424,7076,WL,C,3.0
2,5.182000160217285,learn,54817.999839782715,Mon Mar 10 2025 15:31:09 GMT-0500 (Central Daylight Time),284215.2999999523,A,catt,O,t,161,1,929.6999999880791,283285.59999996424,7076,WL,C,3.0
2,5.382000207901001,learn,54617.999792099,Mon Mar 10 2025 15:31:09 GMT-0500 (Central Daylight Time),284415.2999999523,A,cattl,O,l,182,1,1129.699999988079,283285.59999996424,7076,WL,C,3.0
2,5.516000032424927,learn,54483.99996757507,Mon Mar 10 2025 15:31:09 GMT-0500 (Central Daylight Time),284549.5,A,cattle,O,e,123,1,1263.9000000357628,283285.59999996424,7076,WL,C,3.0
2,5.883000135421753,learn,54116.99986457825,Mon Mar 10 2025 15:31:09 GMT-0500 (Central Daylight Time),284916.5,A,cattleenter,O,enter,354,1,1630.9000000357628,283285.59999996424,7076,WL,C,3.0
2,6.900000095367432,learn,53099.99990463257,Mon Mar 10 2025 15:31:09 GMT-0500 (Central Daylight Time),285933.39999997616,A,s,O,s,994,1,1016.6000000238419,284916.7999999523,7076,WL,C,4.0
2,7.049000024795532,learn,52950.99997520447,Mon Mar 10 2025 15:31:09 GMT-0500 (Central Daylight Time),286082.6999999881,A,sh,O,h,139,1,1165.9000000357628,284916.7999999523,7076,WL,C,4.0
2,7.315000057220459,learn,52684.99994277954,Mon Mar 10 2025 15:31:09 GMT-0500 (Central Daylight Time),286348.6999999881,A,sho,O,o,254,1,1431.9000000357628,284916.7999999523,7076,WL,C,4.0
2,7.615000009536743,learn,52384.99999046326,Mon Mar 10 2025 15:31:09 GMT-0500 (Central Daylight Time),286649.1999999881,A,shor,O,r,282,1,1732.4000000357628,284916.7999999523,7076,WL,C,4.0
2,7.681000232696533,learn,52318.99976730347,Mon Mar 10 2025 15:31:09 GMT-0500 (Central Daylight Time),286714.89999997616,A,shore,O,e,52,1,1798.1000000238419,284916.7999999523,7076,WL,C,4.0
2,7.966000080108643,learn,52033.99991989136,Mon Mar 10 2025 15:31:09 GMT-0500 (Central Daylight Time),286999.6999999881,A,shoreenter,O,enter,280,1,2082.900000035763,284916.7999999523,7076,WL,C,4.0
2,9.098000049591064,learn,50901.999950408936,Mon Mar 10 2025 15:31:09 GMT-0500 (Central Daylight Time),288131.7999999523,A,b,O,b,1120,1,1131.7999999523163,287000.0,7076,WL,C,5.0
2,9.265000104904175,learn,50734.999895095825,Mon Mar 10 2025 15:31:09 GMT-0500 (Central Daylight Time),288298.7999999523,A,bo,O,o,157,1,1298.7999999523163,287000.0,7076,WL,C,5.0
2,9.781000137329102,learn,50218.9998626709,Mon Mar 10 2025 15:31:09 GMT-0500 (Central Daylight Time),288814.59999996424,A,bod,O,d,502,1,1814.5999999642372,287000.0,7076,WL,C,5.0
2,10.065000057220459,learn,49934.99994277954,Mon Mar 10 2025 15:31:09 GMT-0500 (Central Daylight Time),289099.0,A,body,O,y,266,1,2099.0,287000.0,7076,WL,C,5.0
2,10.648000001907349,learn,49351.99999809265,Mon Mar 10 2025 15:31:09 GMT-0500 (Central Daylight Time),289681.59999996424,A,bodyenter,O,enter,573,1,2681.599999964237,287000.0,7076,WL,C,5.0
2,12.814000129699707,learn,47185.99987030029,Mon Mar 10 2025 15:31:09 GMT-0500 (Central Daylight Time),291847.39999997616,A,h,O,h,2150,1,2165.5,289681.89999997616,7076,WL,C,6.0
2,13.047000169754028,learn,46952.99983024597,Mon Mar 10 2025 15:31:09 GMT-0500 (Central Daylight Time),292080.89999997616,A,ho,O,o,228,1,2399.0,289681.89999997616,7076,WL,C,6.0
2,13.112000226974487,learn,46887.99977302551,Mon Mar 10 2025 15:31:09 GMT-0500 (Central Daylight Time),292145.59999996424,A,hom,O,m,46,1,2463.699999988079,289681.89999997616,7076,WL,C,6.0
2,13.414000034332275,learn,46585.999965667725,Mon Mar 10 2025 15:31:09 GMT-0500 (Central Daylight Time),292447.7999999523,A,home,O,e,296,1,2765.899999976158,289681.89999997616,7076,WL,C,6.0
2,13.963000059127808,learn,46036.99994087219,Mon Mar 10 2025 15:31:09 GMT-0500 (Central Daylight Time),292997.1999999881,A,homeenter,O,enter,544,1,3315.300000011921,289681.89999997616,7076,WL,C,6.0
2,15.114000082015991,learn,44885.99991798401,Mon Mar 10 2025 15:31:09 GMT-0500 (Central Daylight Time),294147.5,A,b,O,b,1131,1,1150.0,292997.5,7076,WL,C,7.0
2,15.330000162124634,learn,44669.999837875366,Mon Mar 10 2025 15:31:09 GMT-0500 (Central Daylight Time),294363.59999996424,A,bo,O,o,196,1,1366.0999999642372,292997.5,7076,WL,C,7.0
2,15.797000169754028,learn,44202.99983024597,Mon Mar 10 2025 15:31:09 GMT-0500 (Central Daylight Time),294831.0,A,boy,O,y,461,1,1833.5,292997.5,7076,WL,C,7.0
2,15.978000164031982,learn,44021.99983596802,Mon Mar 10 2025 15:31:09 GMT-0500 (Central Daylight Time),295012.0,A,boyenter,O,enter,169,1,2014.5,292997.5,7076,WL,C,7.0
2,16.479000091552734,learn,43520.999908447266,Mon Mar 10 2025 15:31:09 GMT-0500 (Central Daylight Time),295512.5,A,d,O,d,479,1,500.10000002384186,295012.39999997616,7076,WL,C,8.0
2,16.663000106811523,learn,43336.99989318848,Mon Mar 10 2025 15:31:09 GMT-0500 (Central Daylight Time),295696.2999999523,A,do,O,o,175,1,683.8999999761581,295012.39999997616,7076,WL,C,8.0
2,16.812000036239624,learn,43187.999963760376,Mon Mar 10 2025 15:31:09 GMT-0500 (Central Daylight Time),295846.1999999881,A,doc,O,c,137,1,833.8000000119209,295012.39999997616,7076,WL,C,8.0
2,17.09500002861023,learn,42904.99997138977,Mon Mar 10 2025 15:31:09 GMT-0500 (Central Daylight Time),296128.39999997616,A,doct,O,t,266,1,1116.0,295012.39999997616,7076,WL,C,8.0
2,17.26200008392334,learn,42737.99991607666,Mon Mar 10 2025 15:31:09 GMT-0500 (Central Daylight Time),296295.89999997616,A,docto,O,o,160,1,1283.5,295012.39999997616,7076,WL,C,8.0
2,17.361000061035156,learn,42638.999938964844,Mon Mar 10 2025 15:31:09 GMT-0500 (Central Daylight Time),296395.39999997616,A,doctor,O,r,79,1,1383.0,295012.39999997616,7076,WL,C,8.0
2,17.728000164031982,learn,42271.99983596802,Mon Mar 10 2025 15:31:09 GMT-0500 (Central Daylight Time),296762.1999999881,A,doctorenter,O,enter,355,1,1749.800000011921,295012.39999997616,7076,WL,C,8.0
2,18.645000219345093,learn,41354.99978065491,Mon Mar 10 2025 15:31:09 GMT-0500 (Central Daylight Time),297679.1999999881,A,c,O,c,902,1,916.8000000119209,296762.39999997616,7076,WL,C,9.0
2,18.729000091552734,learn,41270.999908447266,Mon Mar 10 2025 15:31:09 GMT-0500 (Central Daylight Time),297763.0,A,ca,O,a,64,1,1000.6000000238419,296762.39999997616,7076,WL,C,9.0
2,19.36300015449524,learn,40636.99984550476,Mon Mar 10 2025 15:31:09 GMT-0500 (Central Daylight Time),298397.09999996424,A,cam,O,m,629,1,1634.699999988079,296762.39999997616,7076,WL,C,9.0
2,20.229000091552734,learn,39770.999908447266,Mon Mar 10 2025 15:31:09 GMT-0500 (Central Daylight Time),299262.7999999523,A,camp,O,p,860,1,2500.399999976158,296762.39999997616,7076,WL,C,9.0
2,20.580000162124634,learn,39419.999837875366,Mon Mar 10 2025 15:31:09 GMT-0500 (Central Daylight Time),299614.5,A,campenter,O,enter,346,1,2852.100000023842,296762.39999997616,7076,WL,C,9.0
2,21.859000205993652,learn,38140.99979400635,Mon Mar 10 2025 15:31:09 GMT-0500 (Central Daylight Time),300893.2999999523,A,t,O,t,1265,1,1278.5,299614.7999999523,7076,WL,C,10.0
2,22.12600016593933,learn,37873.99983406067,Mon Mar 10 2025 15:31:09 GMT-0500 (Central Daylight Time),301159.89999997616,A,to,O,o,260,1,1545.1000000238419,299614.7999999523,7076,WL,C,10.0
2,22.3270001411438,learn,37672.9998588562,Mon Mar 10 2025 15:31:09 GMT-0500 (Central Daylight Time),301360.89999997616,A,tow,O,w,195,1,1746.1000000238419,299614.7999999523,7076,WL,C,10.0
2,22.41000008583069,learn,37589.99991416931,Mon Mar 10 2025 15:31:09 GMT-0500 (Central Daylight Time),301444.2999999523,A,towe,O,e,63,1,1829.5,299614.7999999523,7076,WL,C,10.0
2,22.66000008583069,learn,37339.99991416931,Mon Mar 10 2025 15:31:09 GMT-0500 (Central Daylight Time),301694.5,A,tower,O,r,235,1,2079.7000000476837,299614.7999999523,7076,WL,C,10.0
2,22.878000020980835,learn,37121.999979019165,Mon Mar 10 2025 15:31:09 GMT-0500 (Central Daylight Time),301911.59999996424,A,towerenter,O,enter,202,1,2296.800000011921,299614.7999999523,7076,WL,C,10.0
2,24.14300012588501,learn,35856.99987411499,Mon Mar 10 2025 15:31:09 GMT-0500 (Central Daylight Time),303177.39999997616,A,s,O,s,1256,1,1265.6000000238419,301911.7999999523,7076,WL,C,11.0
2,24.343000173568726,learn,35656.999826431274,Mon Mar 10 2025 15:31:09 GMT-0500 (Central Daylight Time),303376.7999999523,A,sh,O,h,183,1,1465.0,301911.7999999523,7076,WL,C,11.0
2,24.576000213623047,learn,35423.99978637695,Mon Mar 10 2025 15:31:09 GMT-0500 (Central Daylight Time),303610.1999999881,A,sho,O,o,223,1,1698.4000000357628,301911.7999999523,7076,WL,C,11.0
2,24.80900001525879,learn,35190.99998474121,Mon Mar 10 2025 15:31:09 GMT-0500 (Central Daylight Time),303843.2999999523,A,shor,O,r,213,1,1931.5,301911.7999999523,7076,WL,C,11.0
2,24.85800004005432,learn,35141.99995994568,Mon Mar 10 2025 15:31:09 GMT-0500 (Central Daylight Time),303891.89999997616,A,short,O,t,27,1,1980.1000000238419,301911.7999999523,7076,WL,C,11.0
2,25.343000173568726,learn,34656.999826431274,Mon Mar 10 2025 15:31:09 GMT-0500 (Central Daylight Time),304377.0,A,shortenter,O,enter,477,1,2465.2000000476837,301911.7999999523,7076,WL,C,11.0
2,26.692000150680542,learn,33307.99984931946,Mon Mar 10 2025 15:31:09 GMT-0500 (Central Daylight Time),305726.2999999523,A,s,O,s,1343,1,1349.0,304377.2999999523,7076,WL,C,12.0
2,27.192000150680542,learn,32807.99984931946,Mon Mar 10 2025 15:31:09 GMT-0500 (Central Daylight Time),306226.09999996424,A,sh,O,h,480,1,1848.800000011921,304377.2999999523,7076,WL,C,12.0
2,27.460000038146973,learn,32539.999961853027,Mon Mar 10 2025 15:31:09 GMT-0500 (Central Daylight Time),306494.2999999523,A,sho,O,o,263,1,2117.0,304377.2999999523,7076,WL,C,12.0
2,27.62600016593933,learn,32373.99983406067,Mon Mar 10 2025 15:31:09 GMT-0500 (Central Daylight Time),306660.0,A,shor,O,r,145,1,2282.7000000476837,304377.2999999523,7076,WL,C,12.0
2,27.69100022315979,learn,32308.99977684021,Mon Mar 10 2025 15:31:09 GMT-0500 (Central Daylight Time),306724.7999999523,A,shore,O,e,53,1,2347.5,304377.2999999523,7076,WL,C,12.0
2,28.009000062942505,learn,31990.999937057495,Mon Mar 10 2025 15:31:09 GMT-0500 (Central Daylight Time),307042.89999997616,A,shoreenter,O,enter,309,1,2665.600000023842,304377.2999999523,7076,WL,C,12.0
2,29.29200005531311,learn,30707.99994468689,Mon Mar 10 2025 15:31:09 GMT-0500 (Central Daylight Time),308325.89999997616,A,f,O,f,1269,1,1282.699999988079,307043.1999999881,7076,WL,C,13.0
2,29.424000024795532,learn,30575.999975204468,Mon Mar 10 2025 15:31:09 GMT-0500 (Central Daylight Time),308458.0,A,fa,O,a,114,1,1414.800000011921,307043.1999999881,7076,WL,C,13.0
2,29.642000198364258,learn,30357.999801635742,Mon Mar 10 2025 15:31:09 GMT-0500 (Central Daylight Time),308676.39999997616,A,far,O,r,203,1,1633.199999988079,307043.1999999881,7076,WL,C,13.0
2,29.892000198364258,learn,30107.999801635742,Mon Mar 10 2025 15:31:09 GMT-0500 (Central Daylight Time),308925.59999996424,A,farm,O,m,245,1,1882.3999999761581,307043.1999999881,7076,WL,C,13.0
2,31.674000024795532,learn,28325.999975204468,Mon Mar 10 2025 15:31:09 GMT-0500 (Central Daylight Time),310708.0,A,farmenter,O,enter,1763,1,3664.800000011921,307043.1999999881,7076,WL,C,13.0
2,35.75500011444092,learn,24244.999885559082,Mon Mar 10 2025 15:31:09 GMT-0500 (Central Daylight Time),314789.2999999523,A,n,O,n,4076,1,4081.0,310708.2999999523,7076,WL,C,14.0
2,36.17300009727478,learn,23826.99990272522,Mon Mar 10 2025 15:31:09 GMT-0500 (Central Daylight Time),315207.1999999881,A,na,O,a,414,1,4498.900000035763,310708.2999999523,7076,WL,C,14.0
2,36.373000144958496,learn,23626.999855041504,Mon Mar 10 2025 15:31:09 GMT-0500 (Central Daylight Time),315407.39999997616,A,nai,O,i,193,1,4699.100000023842,310708.2999999523,7076,WL,C,14.0
2,36.63900017738342,learn,23360.999822616577,Mon Mar 10 2025 15:31:09 GMT-0500 (Central Daylight Time),315672.5,A,nail,O,l,256,1,4964.200000047684,310708.2999999523,7076,WL,C,14.0
2,36.98800015449524,learn,23011.99984550476,Mon Mar 10 2025 15:31:09 GMT-0500 (Central Daylight Time),316022.0,A,nailenter,O,enter,335,1,5313.700000047684,310708.2999999523,7076,WL,C,14.0
2,37.872000217437744,learn,22127.999782562256,Mon Mar 10 2025 15:31:09 GMT-0500 (Central Daylight Time),316906.59999996424,A,enter,O,enter,874,1,884.3999999761581,316022.1999999881,7076,WL,C,15.0
3,1.1489999294281006,learn,58851.0000705719,Mon Mar 10 2025 15:31:09 GMT-0500 (Central Daylight Time),386667.89999997616,A,c,O,c,1134,1,1148.800000011921,385519.09999996424,7076,WL,C,1.0
3,1.2309999465942383,learn,58769.00005340576,Mon Mar 10 2025 15:31:09 GMT-0500 (Central Daylight Time),386749.7999999523,A,ca,O,a,66,1,1230.699999988079,385519.09999996424,7076,WL,C,1.0
3,1.5679998397827148,learn,58432.000160217285,Mon Mar 10 2025 15:31:09 GMT-0500 (Central Daylight Time),387086.0,A,cat,O,t,320,1,1566.9000000357628,385519.09999996424,7076,WL,C,1.0
3,1.748999834060669,learn,58251.00016593933,Mon Mar 10 2025 15:31:09 GMT-0500 (Central Daylight Time),387267.39999997616,A,catt,O,t,169,1,1748.300000011921,385519.09999996424,7076,WL,C,1.0
3,1.934000015258789,learn,58065.99998474121,Mon Mar 10 2025 15:31:09 GMT-0500 (Central Daylight Time),387452.6999999881,A,cattl,O,l,163,1,1933.6000000238419,385519.09999996424,7076,WL,C,1.0
3,2.0490000247955322,learn,57950.99997520447,Mon Mar 10 2025 15:31:09 GMT-0500 (Central Daylight Time),387567.39999997616,A,cattle,O,e,109,1,2048.300000011921,385519.09999996424,7076,WL,C,1.0
3,2.9149999618530273,learn,57085.00003814697,Mon Mar 10 2025 15:31:09 GMT-0500 (Central Daylight Time),388433.5,A,cattleenter,O,enter,847,1,2914.400000035763,385519.09999996424,7076,WL,C,1.0
3,3.930999994277954,learn,56069.000005722046,Mon Mar 10 2025 15:31:09 GMT-0500 (Central Daylight Time),389449.0,A,s,O,s,1006,1,1015.1000000238419,388433.89999997616,7076,WL,C,2.0
3,4.232999801635742,learn,55767.00019836426,Mon Mar 10 2025 15:31:09 GMT-0500 (Central Daylight Time),389751.39999997616,A,sh,O,h,296,1,1317.5,388433.89999997616,7076,WL,C,2.0
3,4.4649999141693115,learn,55535.00008583069,Mon Mar 10 2025 15:31:09 GMT-0500 (Central Daylight Time),389983.39999997616,A,sho,O,o,209,1,1549.5,388433.89999997616,7076,WL,C,2.0
3,4.615000009536743,learn,55384.99999046326,Mon Mar 10 2025 15:31:09 GMT-0500 (Central Daylight Time),390133.2999999523,A,shor,O,r,127,1,1699.3999999761581,388433.89999997616,7076,WL,C,2.0
3,4.661999940872192,learn,55338.00005912781,Mon Mar 10 2025 15:31:09 GMT-0500 (Central Daylight Time),390180.5,A,shore,O,e,33,1,1746.6000000238419,388433.89999997616,7076,WL,C,2.0
3,5.23199987411499,learn,54768.00012588501,Mon Mar 10 2025 15:31:09 GMT-0500 (Central Daylight Time),390750.1999999881,A,shoreenter,O,enter,564,1,2316.300000011921,388433.89999997616,7076,WL,C,2.0
3,6.48199987411499,learn,53518.00012588501,Mon Mar 10 2025 15:31:09 GMT-0500 (Central Daylight Time),392000.1999999881,A,b,O,b,1244,1,1249.699999988079,390750.5,7076,WL,C,3.0
3,6.629999876022339,learn,53370.00012397766,Mon Mar 10 2025 15:31:09 GMT-0500 (Central Daylight Time),392148.1999999881,A,bo,O,o,134,1,1397.699999988079,390750.5,7076,WL,C,3.0
3,7.163999795913696,learn,52836.000204086304,Mon Mar 10 2025 15:31:09 GMT-0500 (Central Daylight Time),392682.2999999523,A,bod,O,d,516,1,1931.7999999523163,390750.5,7076,WL,C,3.0
3,7.313999891281128,learn,52686.00010871887,Mon Mar 10 2025 15:31:09 GMT-0500 (Central Daylight Time),392832.0,A,body,O,y,140,1,2081.5,390750.5,7076,WL,C,3.0
3,7.796000003814697,learn,52203.9999961853,Mon Mar 10 2025 15:31:09 GMT-0500 (Central Daylight Time),393314.5,A,bodyenter,O,enter,461,1,2564.0,390750.5,7076,WL,C,3.0
3,8.978999853134155,learn,51021.000146865845,Mon Mar 10 2025 15:31:09 GMT-0500 (Central Daylight Time),394497.6999999881,A,h,O,h,1173,1,1183.0,393314.6999999881,7076,WL,C,4.0
3,9.21399998664856,learn,50786.00001335144,Mon Mar 10 2025 15:31:09 GMT-0500 (Central Daylight Time),394732.09999996424,A,ho,O,o,210,1,1417.3999999761581,393314.6999999881,7076,WL,C,4.0
3,9.260999917984009,learn,50739.00008201599,Mon Mar 10 2025 15:31:09 GMT-0500 (Central Daylight Time),394779.39999997616,A,hom,O,m,33,1,1464.699999988079,393314.6999999881,7076,WL,C,4.0
3,9.527999877929688,learn,50472.00012207031,Mon Mar 10 2025 15:31:09 GMT-0500 (Central Daylight Time),395046.7999999523,A,home,O,e,259,1,1732.0999999642372,393314.6999999881,7076,WL,C,4.0
3,9.928999900817871,learn,50071.00009918213,Mon Mar 10 2025 15:31:09 GMT-0500 (Central Daylight Time),395447.09999996424,A,homeenter,O,enter,382,1,2132.399999976158,393314.6999999881,7076,WL,C,4.0
3,10.230000019073486,learn,49769.999980926514,Mon Mar 10 2025 15:31:09 GMT-0500 (Central Daylight Time),395748.0,A,b,O,b,280,1,300.5,395447.5,7076,WL,C,5.0
3,10.928999900817871,learn,49071.00009918213,Mon Mar 10 2025 15:31:09 GMT-0500 (Central Daylight Time),396447.7999999523,A,bo,O,o,682,1,1000.2999999523163,395447.5,7076,WL,C,5.0
3,11.079999923706055,learn,48920.000076293945,Mon Mar 10 2025 15:31:09 GMT-0500 (Central Daylight Time),396598.09999996424,A,boy,O,y,130,1,1150.5999999642372,395447.5,7076,WL,C,5.0
3,11.329999923706055,learn,48670.000076293945,Mon Mar 10 2025 15:31:09 GMT-0500 (Central Daylight Time),396848.0,A,boyenter,O,enter,241,1,1400.5,395447.5,7076,WL,C,5.0
3,12.894999980926514,learn,47105.000019073486,Mon Mar 10 2025 15:31:09 GMT-0500 (Central Daylight Time),398413.39999997616,A,n,O,n,1552,1,1565.199999988079,396848.1999999881,7076,WL,C,6.0
3,13.078999996185303,learn,46921.0000038147,Mon Mar 10 2025 15:31:09 GMT-0500 (Central Daylight Time),398597.5,A,na,O,a,170,1,1749.300000011921,396848.1999999881,7076,WL,C,6.0
3,13.246999979019165,learn,46753.000020980835,Mon Mar 10 2025 15:31:09 GMT-0500 (Central Daylight Time),398764.89999997616,A,nai,O,i,159,1,1916.699999988079,396848.1999999881,7076,WL,C,6.0
3,13.494999885559082,learn,46505.00011444092,Mon Mar 10 2025 15:31:09 GMT-0500 (Central Daylight Time),399013.6999999881,A,nail,O,l,235,1,2165.5,396848.1999999881,7076,WL,C,6.0
3,14.144999980926514,learn,45855.000019073486,Mon Mar 10 2025 15:31:09 GMT-0500 (Central Daylight Time),399663.39999997616,A,nailenter,O,enter,644,1,2815.199999988079,396848.1999999881,7076,WL,C,6.0
3,15.694000005722046,learn,44305.999994277954,Mon Mar 10 2025 15:31:09 GMT-0500 (Central Daylight Time),401212.5,A,w,O,w,1536,1,1548.800000011921,399663.6999999881,7076,WL,C,7.0
3,16.01099991798401,learn,43989.00008201599,Mon Mar 10 2025 15:31:09 GMT-0500 (Central Daylight Time),401529.5,A,wh,O,h,300,1,1865.800000011921,399663.6999999881,7076,WL,C,7.0
3,16.376999855041504,learn,43623.000144958496,Mon Mar 10 2025 15:31:09 GMT-0500 (Central Daylight Time),401895.2999999523,A,whe,O,e,349,1,2231.599999964237,399663.6999999881,7076,WL,C,7.0
3,16.442999839782715,learn,43557.000160217285,Mon Mar 10 2025 15:31:09 GMT-0500 (Central Daylight Time),401961.5,A,whea,O,a,56,1,2297.800000011921,399663.6999999881,7076,WL,C,7.0
3,16.692999839782715,learn,43307.000160217285,Mon Mar 10 2025 15:31:09 GMT-0500 (Central Daylight Time),402211.59999996424,A,wheat,O,t,236,1,2547.899999976158,399663.6999999881,7076,WL,C,7.0
3,17.191999912261963,learn,42808.00008773804,Mon Mar 10 2025 15:31:09 GMT-0500 (Central Daylight Time),402710.39999997616,A,wheatenter,O,enter,491,1,3046.699999988079,399663.6999999881,7076,WL,C,7.0
3,18.311999797821045,learn,41688.000202178955,Mon Mar 10 2025 15:31:09 GMT-0500 (Central Daylight Time),403829.89999997616,A,q,O,q,1115,1,1119.3999999761581,402710.5,7076,WL,C,8.0
3,18.626999855041504,learn,41373.000144958496,Mon Mar 10 2025 15:31:09 GMT-0500 (Central Daylight Time),404145.59999996424,A,qu,O,u,295,1,1435.0999999642372,402710.5,7076,WL,C,8.0
3,18.825999975204468,learn,41174.00002479553,Mon Mar 10 2025 15:31:09 GMT-0500 (Central Daylight Time),404344.39999997616,A,que,O,e,188,1,1633.8999999761581,402710.5,7076,WL,C,8.0
3,19.009999990463257,learn,40990.00000953674,Mon Mar 10 2025 15:31:09 GMT-0500 (Central Daylight Time),404528.09999996424,A,quee,O,e,175,1,1817.5999999642372,402710.5,7076,WL,C,8.0
3,19.176999807357788,learn,40823.00019264221,Mon Mar 10 2025 15:31:09 GMT-0500 (Central Daylight Time),404695.2999999523,A,queen,O,n,160,1,1984.7999999523163,402710.5,7076,WL,C,8.0
3,21.092999935150146,learn,38907.00006484985,Mon Mar 10 2025 15:31:09 GMT-0500 (Central Daylight Time),406611.39999997616,A,queenenter,O,enter,1902,1,3900.899999976158,402710.5,7076,WL,C,8.0
3,23.325999975204468,learn,36674.00002479553,Mon Mar 10 2025 15:31:09 GMT-0500 (Central Daylight Time),408844.1999999881,A,t,O,t,2211,1,2232.5,406611.6999999881,7076,WL,C,9.0
3,23.609999895095825,learn,36390.000104904175,Mon Mar 10 2025 15:31:09 GMT-0500 (Central Daylight Time),409127.89999997616,A,to,O,o,275,1,2516.199999988079,406611.6999999881,7076,WL,C,9.0
3,23.792999982833862,learn,36207.00001716614,Mon Mar 10 2025 15:31:09 GMT-0500 (Central Daylight Time),409310.7999999523,A,tow,O,w,176,1,2699.099999964237,406611.6999999881,7076,WL,C,9.0
3,23.875,learn,36125.0,Mon Mar 10 2025 15:31:09 GMT-0500 (Central Daylight Time),409393.0,A,towe,O,e,71,1,2781.300000011921,406611.6999999881,7076,WL,C,9.0
3,24.125,learn,35875.0,Mon Mar 10 2025 15:31:09 GMT-0500 (Central Daylight Time),409643.5,A,tower,O,r,238,1,3031.800000011921,406611.6999999881,7076,WL,C,9.0
3,24.342000007629395,learn,35657.999992370605,Mon Mar 10 2025 15:31:09 GMT-0500 (Central Daylight Time),409860.59999996424,A,towerenter,O,enter,196,1,3248.899999976158,406611.6999999881,7076,WL,C,9.0
3,24.507999897003174,learn,35492.000102996826,Mon Mar 10 2025 15:31:09 GMT-0500 (Central Daylight Time),410026.5,A,s,O,s,155,1,165.60000002384186,409860.89999997616,7076,WL,C,10.0
3,24.79199981689453,learn,35208.00018310547,Mon Mar 10 2025 15:31:09 GMT-0500 (Central Daylight Time),410310.1999999881,A,sh,O,h,268,1,449.30000001192093,409860.89999997616,7076,WL,C,10.0
3,25.009999990463257,learn,34990.00000953674,Mon Mar 10 2025 15:31:09 GMT-0500 (Central Daylight Time),410527.89999997616,A,sho,O,o,210,1,667.0,409860.89999997616,7076,WL,C,10.0
3,25.12399983406067,learn,34876.00016593933,Mon Mar 10 2025 15:31:09 GMT-0500 (Central Daylight Time),410642.59999996424,A,shor,O,r,102,1,781.6999999880791,409860.89999997616,7076,WL,C,10.0
3,25.191999912261963,learn,34808.00008773804,Mon Mar 10 2025 15:31:09 GMT-0500 (Central Daylight Time),410709.89999997616,A,shore,O,e,60,1,849.0,409860.89999997616,7076,WL,C,10.0
3,25.740000009536743,learn,34259.99999046326,Mon Mar 10 2025 15:31:09 GMT-0500 (Central Daylight Time),411258.5,A,shoreenter,O,enter,536,1,1397.6000000238419,409860.89999997616,7076,WL,C,10.0
3,29.4229998588562,learn,30577.0001411438,Mon Mar 10 2025 15:31:09 GMT-0500 (Central Daylight Time),414941.7999999523,A,h,O,h,3678,1,3683.0,411258.7999999523,7076,WL,C,11.0
3,29.704999923706055,learn,30295.000076293945,Mon Mar 10 2025 15:31:09 GMT-0500 (Central Daylight Time),415223.1999999881,A,ho,O,o,274,1,3964.400000035763,411258.7999999523,7076,WL,C,11.0
3,29.770999908447266,learn,30229.000091552734,Mon Mar 10 2025 15:31:09 GMT-0500 (Central Daylight Time),415289.7999999523,A,hom,O,m,49,1,4031.0,411258.7999999523,7076,WL,C,11.0
3,29.953999996185303,learn,30046.000003814697,Mon Mar 10 2025 15:31:09 GMT-0500 (Central Daylight Time),415472.09999996424,A,home,O,e,167,1,4213.300000011921,411258.7999999523,7076,WL,C,11.0
3,30.539999961853027,learn,29460.000038146973,Mon Mar 10 2025 15:31:09 GMT-0500 (Central Daylight Time),416058.09999996424,A,homeenter,O,enter,570,1,4799.300000011921,411258.7999999523,7076,WL,C,11.0
3,33.00499987602234,learn,26995.00012397766,Mon Mar 10 2025 15:31:09 GMT-0500 (Central Daylight Time),418524.09999996424,A,b,O,b,2454,1,2465.699999988079,416058.39999997616,7076,WL,C,12.0
3,33.1710000038147,learn,26828.999996185303,Mon Mar 10 2025 15:31:09 GMT-0500 (Central Daylight Time),418689.89999997616,A,bo,O,o,156,1,2631.5,416058.39999997616,7076,WL,C,12.0
3,33.40599989891052,learn,26594.000101089478,Mon Mar 10 2025 15:31:09 GMT-0500 (Central Daylight Time),418924.7999999523,A,boy,O,y,213,1,2866.399999976158,416058.39999997616,7076,WL,C,12.0
3,33.63800001144409,learn,26361.99998855591,Mon Mar 10 2025 15:31:09 GMT-0500 (Central Daylight Time),419156.39999997616,A,boyenter,O,enter,217,1,3098.0,416058.39999997616,7076,WL,C,12.0
3,35.05399990081787,learn,24946.00009918213,Mon Mar 10 2025 15:31:09 GMT-0500 (Central Daylight Time),420572.59999996424,A,d,O,d,1394,1,1415.8999999761581,419156.6999999881,7076,WL,C,13.0
3,35.4229998588562,learn,24577.0001411438,Mon Mar 10 2025 15:31:09 GMT-0500 (Central Daylight Time),420941.7999999523,A,do,O,o,346,1,1785.0999999642372,419156.6999999881,7076,WL,C,13.0
3,35.5699999332428,learn,24430.000066757202,Mon Mar 10 2025 15:31:09 GMT-0500 (Central Daylight Time),421088.6999999881,A,doc,O,c,137,1,1932.0,419156.6999999881,7076,WL,C,13.0
3,35.870999813079834,learn,24129.000186920166,Mon Mar 10 2025 15:31:09 GMT-0500 (Central Daylight Time),421389.5,A,doct,O,t,286,1,2232.800000011921,419156.6999999881,7076,WL,C,13.0
3,36.019999980926514,learn,23980.000019073486,Mon Mar 10 2025 15:31:09 GMT-0500 (Central Daylight Time),421538.6999999881,A,docto,O,o,138,1,2382.0,419156.6999999881,7076,WL,C,13.0
3,36.15499997138977,learn,23845.00002861023,Mon Mar 10 2025 15:31:09 GMT-0500 (Central Daylight Time),421674.0,A,doctor,O,r,124,1,2517.300000011921,419156.6999999881,7076,WL,C,13.0
3,36.48799991607666,learn,23512.00008392334,Mon Mar 10 2025 15:31:09 GMT-0500 (Central Daylight Time),422006.39999997616,A,doctorenter,O,enter,316,1,2849.699999988079,419156.6999999881,7076,WL,C,13.0
3,38.30399990081787,learn,21696.00009918213,Mon Mar 10 2025 15:31:09 GMT-0500 (Central Daylight Time),423822.7999999523,A,c,O,c,1801,1,1816.0999999642372,422006.6999999881,7076,WL,C,14.0
3,38.36800003051758,learn,21631.999969482422,Mon Mar 10 2025 15:31:09 GMT-0500 (Central Daylight Time),423886.6999999881,A,ca,O,a,55,1,1880.0,422006.6999999881,7076,WL,C,14.0
3,38.6029999256134,learn,21397.000074386597,Mon Mar 10 2025 15:31:09 GMT-0500 (Central Daylight Time),424122.0,A,cam,O,m,216,1,2115.300000011921,422006.6999999881,7076,WL,C,14.0
3,39.30299997329712,learn,20697.00002670288,Mon Mar 10 2025 15:31:09 GMT-0500 (Central Daylight Time),424821.2999999523,A,camp,O,p,685,1,2814.599999964237,422006.6999999881,7076,WL,C,14.0
3,40.05199980735779,learn,19948.000192642212,Mon Mar 10 2025 15:31:09 GMT-0500 (Central Daylight Time),425570.09999996424,A,campenter,O,enter,730,1,3563.399999976158,422006.6999999881,7076,WL,C,14.0
3,41.084999799728394,learn,18915.000200271606,Mon Mar 10 2025 15:31:09 GMT-0500 (Central Daylight Time),426603.5,A,n,O,n,1014,1,1033.1000000238419,425570.39999997616,7076,WL,C,15.0
3,41.51899981498718,learn,18481.000185012817,Mon Mar 10 2025 15:31:09 GMT-0500 (Central Daylight Time),427037.39999997616,A,na,O,a,420,1,1467.0,425570.39999997616,7076,WL,C,15.0
3,41.68599987030029,learn,18314.000129699707,Mon Mar 10 2025 15:31:09 GMT-0500 (Central Daylight Time),427204.7999999523,A,nai,O,i,145,1,1634.3999999761581,425570.39999997616,7076,WL,C,15.0
3,42.085999965667725,learn,17914.000034332275,Mon Mar 10 2025 15:31:09 GMT-0500 (Central Daylight Time),427604.5,A,nail,O,l,377,1,2034.1000000238419,425570.39999997616,7076,WL,C,15.0
3,43.01699995994568,learn,16983.00004005432,Mon Mar 10 2025 15:31:09 GMT-0500 (Central Daylight Time),428535.1999999881,A,nailenter,O,enter,912,1,2964.800000011921,425570.39999997616,7076,WL,C,15.0
4,0.8010001182556152,learn,59198.999881744385,Mon Mar 10 2025 15:31:09 GMT-0500 (Central Daylight Time),494966.59999996424,A,c,O,c,785,1,800.0999999642372,494166.5,7076,WL,C,1.0
4,0.8819999694824219,learn,59118.00003051758,Mon Mar 10 2025 15:31:09 GMT-0500 (Central Daylight Time),495047.89999997616,A,ca,O,a,73,1,881.3999999761581,494166.5,7076,WL,C,1.0
4,1.1850001811981201,learn,58814.99981880188,Mon Mar 10 2025 15:31:09 GMT-0500 (Central Daylight Time),495351.09999996424,A,cat,O,t,279,1,1184.5999999642372,494166.5,7076,WL,C,1.0
4,1.317000150680542,learn,58682.99984931946,Mon Mar 10 2025 15:31:09 GMT-0500 (Central Daylight Time),495482.59999996424,A,catt,O,t,117,1,1316.0999999642372,494166.5,7076,WL,C,1.0
4,2.1679999828338623,learn,57832.00001716614,Mon Mar 10 2025 15:31:09 GMT-0500 (Central Daylight Time),496334.0,A,cattl,O,l,838,1,2167.5,494166.5,7076,WL,C,1.0
4,2.4000000953674316,learn,57599.99990463257,Mon Mar 10 2025 15:31:09 GMT-0500 (Central Daylight Time),496566.39999997616,A,cattle,O,e,213,1,2399.899999976158,494166.5,7076,WL,C,1.0
4,3.6490001678466797,learn,56350.99983215332,Mon Mar 10 2025 15:31:09 GMT-0500 (Central Daylight Time),497814.59999996424,A,cattleenter,O,enter,1237,1,3648.099999964237,494166.5,7076,WL,C,1.0
4,4.184000015258789,learn,55815.99998474121,Mon Mar 10 2025 15:31:09 GMT-0500 (Central Daylight Time),498349.89999997616,A,s,O,s,529,1,535.0,497814.89999997616,7076,WL,C,2.0
4,4.598999977111816,learn,55401.00002288818,Mon Mar 10 2025 15:31:09 GMT-0500 (Central Daylight Time),498765.1999999881,A,sh,O,h,396,1,950.3000000119209,497814.89999997616,7076,WL,C,2.0
4,4.848999977111816,learn,55151.00002288818,Mon Mar 10 2025 15:31:09 GMT-0500 (Central Daylight Time),499015.09999996424,A,sho,O,o,228,1,1200.199999988079,497814.89999997616,7076,WL,C,2.0
4,5.0,learn,55000.0,Mon Mar 10 2025 15:31:09 GMT-0500 (Central Daylight Time),499166.0,A,shor,O,r,141,1,1351.1000000238419,497814.89999997616,7076,WL,C,2.0
4,5.064000129699707,learn,54935.99987030029,Mon Mar 10 2025 15:31:09 GMT-0500 (Central Daylight Time),499229.6999999881,A,shore,O,e,45,1,1414.800000011921,497814.89999997616,7076,WL,C,2.0
4,5.516000032424927,learn,54483.99996757507,Mon Mar 10 2025 15:31:09 GMT-0500 (Central Daylight Time),499681.59999996424,A,shoreenter,O,enter,442,1,1866.699999988079,497814.89999997616,7076,WL,C,2.0
4,6.199000120162964,learn,53800.999879837036,Mon Mar 10 2025 15:31:09 GMT-0500 (Central Daylight Time),500365.39999997616,A,b,O,b,678,1,683.5,499681.89999997616,7076,WL,C,3.0
4,6.41700005531311,learn,53582.99994468689,Mon Mar 10 2025 15:31:09 GMT-0500 (Central Daylight Time),500582.6999999881,A,bo,O,o,210,1,900.8000000119209,499681.89999997616,7076,WL,C,3.0
4,7.232000112533569,learn,52767.99988746643,Mon Mar 10 2025 15:31:09 GMT-0500 (Central Daylight Time),501397.89999997616,A,bod,O,d,796,1,1716.0,499681.89999997616,7076,WL,C,3.0
4,7.383000135421753,learn,52616.99986457825,Mon Mar 10 2025 15:31:09 GMT-0500 (Central Daylight Time),501549.09999996424,A,body,O,y,130,1,1867.199999988079,499681.89999997616,7076,WL,C,3.0
4,7.801000118255615,learn,52198.999881744385,Mon Mar 10 2025 15:31:09 GMT-0500 (Central Daylight Time),501967.2999999523,A,bodyenter,O,enter,410,1,2285.399999976158,499681.89999997616,7076,WL,C,3.0
4,8.832000017166138,learn,51167.99998283386,Mon Mar 10 2025 15:31:09 GMT-0500 (Central Daylight Time),502997.6999999881,A,f,O,f,1016,1,1030.199999988079,501967.5,7076,WL,C,4.0
4,9.115000009536743,learn,50884.99999046326,Mon Mar 10 2025 15:31:09 GMT-0500 (Central Daylight Time),503280.89999997616,A,fl,O,l,261,1,1313.3999999761581,501967.5,7076,WL,C,4.0
4,9.246999979019165,learn,50753.000020980835,Mon Mar 10 2025 15:31:09 GMT-0500 (Central Daylight Time),503412.5,A,fla,O,a,123,1,1445.0,501967.5,7076,WL,C,4.0
4,9.51200008392334,learn,50487.99991607666,Mon Mar 10 2025 15:31:09 GMT-0500 (Central Daylight Time),503678.1999999881,A,flah,O,h,250,1,1710.699999988079,501967.5,7076,WL,C,4.0
4,9.962000131607056,learn,50037.999868392944,Mon Mar 10 2025 15:31:09 GMT-0500 (Central Daylight Time),504127.5,A,fla,O,backspace,441,1,2160.0,501967.5,7076,WL,C,4.0
4,10.163000106811523,learn,49836.99989318848,Mon Mar 10 2025 15:31:09 GMT-0500 (Central Daylight Time),504329.1999999881,A,flag,O,g,183,1,2361.699999988079,501967.5,7076,WL,C,4.0
4,10.481000185012817,learn,49518.99981498718,Mon Mar 10 2025 15:31:09 GMT-0500 (Central Daylight Time),504646.39999997616,A,flagenter,O,enter,307,1,2678.899999976158,501967.5,7076,WL,C,4.0
4,11.764000177383423,learn,48235.99982261658,Mon Mar 10 2025 15:31:09 GMT-0500 (Central Daylight Time),505930.39999997616,A,n,O,n,1273,1,1283.699999988079,504646.6999999881,7076,WL,C,5.0
4,12.016000032424927,learn,47983.99996757507,Mon Mar 10 2025 15:31:09 GMT-0500 (Central Daylight Time),506181.59999996424,A,na,O,a,228,1,1534.8999999761581,504646.6999999881,7076,WL,C,5.0
4,12.21399998664856,learn,47786.00001335144,Mon Mar 10 2025 15:31:09 GMT-0500 (Central Daylight Time),506379.5,A,nai,O,i,174,1,1732.800000011921,504646.6999999881,7076,WL,C,5.0
4,12.481000185012817,learn,47518.99981498718,Mon Mar 10 2025 15:31:09 GMT-0500 (Central Daylight Time),506647.0,A,nail,O,l,257,1,2000.300000011921,504646.6999999881,7076,WL,C,5.0
4,13.129000186920166,learn,46870.999813079834,Mon Mar 10 2025 15:31:09 GMT-0500 (Central Daylight Time),507294.59999996424,A,nailenter,O,enter,630,1,2647.899999976158,504646.6999999881,7076,WL,C,5.0
4,14.88100004196167,learn,45118.99995803833,Mon Mar 10 2025 15:31:09 GMT-0500 (Central Daylight Time),509046.89999997616,A,q,O,q,1746,1,1751.8999999761581,507295.0,7076,WL,C,6.0
4,15.31000018119812,learn,44689.99981880188,Mon Mar 10 2025 15:31:09 GMT-0500 (Central Daylight Time),509476.09999996424,A,qu,O,u,419,1,2181.099999964237,507295.0,7076,WL,C,6.0
4,15.509999990463257,learn,44490.00000953674,Mon Mar 10 2025 15:31:09 GMT-0500 (Central Daylight Time),509676.2999999523,A,que,O,e,197,1,2381.2999999523163,507295.0,7076,WL,C,6.0
4,15.67799997329712,learn,44322.00002670288,Mon Mar 10 2025 15:31:09 GMT-0500 (Central Daylight Time),509843.39999997616,A,quee,O,e,154,1,2548.399999976158,507295.0,7076,WL,C,6.0
4,15.811000108718872,learn,44188.99989128113,Mon Mar 10 2025 15:31:09 GMT-0500 (Central Daylight Time),509976.7999999523,A,queen,O,n,125,1,2681.7999999523163,507295.0,7076,WL,C,6.0
4,16.528000116348267,learn,43471.99988365173,Mon Mar 10 2025 15:31:09 GMT-0500 (Central Daylight Time),510694.5,A,queenenter,O,enter,711,1,3399.5,507295.0,7076,WL,C,6.0
4,17.028000116348267,learn,42971.99988365173,Mon Mar 10 2025 15:31:09 GMT-0500 (Central Daylight Time),511194.2999999523,A,t,O,t,490,1,499.2999999523163,510695.0,7076,WL,C,7.0
4,17.42900013923645,learn,42570.99986076355,Mon Mar 10 2025 15:31:09 GMT-0500 (Central Daylight Time),511594.5,A,tp,O,p,381,1,899.5,510695.0,7076,WL,C,7.0
4,18.463000059127808,learn,41536.99994087219,Mon Mar 10 2025 15:31:09 GMT-0500 (Central Daylight Time),512628.89999997616,A,t,O,backspace,1010,1,1933.8999999761581,510695.0,7076,WL,C,7.0
4,19.228000164031982,learn,40771.99983596802,Mon Mar 10 2025 15:31:09 GMT-0500 (Central Daylight Time),513393.7999999523,A,to,O,o,753,1,2698.7999999523163,510695.0,7076,WL,C,7.0
4,19.360000133514404,learn,40639.999866485596,Mon Mar 10 2025 15:31:09 GMT-0500 (Central Daylight Time),513526.1999999881,A,tow,O,w,115,1,2831.199999988079,510695.0,7076,WL,C,7.0
4,19.426000118255615,learn,40573.999881744385,Mon Mar 10 2025 15:31:09 GMT-0500 (Central Daylight Time),513592.39999997616,A,towe,O,e,50,1,2897.399999976158,510695.0,7076,WL,C,7.0
4,19.67799997329712,learn,40322.00002670288,Mon Mar 10 2025 15:31:09 GMT-0500 (Central Daylight Time),513844.2999999523,A,tower,O,r,232,1,3149.2999999523163,510695.0,7076,WL,C,7.0
4,19.860000133514404,learn,40139.999866485596,Mon Mar 10 2025 15:31:09 GMT-0500 (Central Daylight Time),514026.0,A,towerenter,O,enter,165,1,3331.0,510695.0,7076,WL,C,7.0
4,20.41100001335144,learn,39588.99998664856,Mon Mar 10 2025 15:31:09 GMT-0500 (Central Daylight Time),514576.6999999881,A,s,O,s,542,1,550.5,514026.1999999881,7076,WL,C,8.0
4,22.16100001335144,learn,37838.99998664856,Mon Mar 10 2025 15:31:09 GMT-0500 (Central Daylight Time),516327.1999999881,A,sh,O,h,1730,1,2301.0,514026.1999999881,7076,WL,C,8.0
4,22.47699999809265,learn,37523.00000190735,Mon Mar 10 2025 15:31:09 GMT-0500 (Central Daylight Time),516642.7999999523,A,sho,O,o,302,1,2616.599999964237,514026.1999999881,7076,WL,C,8.0
4,22.712000131607056,learn,37287.999868392944,Mon Mar 10 2025 15:31:09 GMT-0500 (Central Daylight Time),516877.6999999881,A,shor,O,r,228,1,2851.5,514026.1999999881,7076,WL,C,8.0
4,22.79200005531311,learn,37207.99994468689,Mon Mar 10 2025 15:31:09 GMT-0500 (Central Daylight Time),516958.2999999523,A,shore,O,e,59,1,2932.099999964237,514026.1999999881,7076,WL,C,8.0
4,25.425000190734863,learn,34574.99980926514,Mon Mar 10 2025 15:31:09 GMT-0500 (Central Daylight Time),519591.09999996424,A,shoreenter,O,enter,2616,1,5564.899999976158,514026.1999999881,7076,WL,C,8.0
4,26.79100012779236,learn,33208.99987220764,Mon Mar 10 2025 15:31:09 GMT-0500 (Central Daylight Time),520956.89999997616,A,c,O,c,1353,1,1365.5,519591.39999997616,7076,WL,C,9.0
4,26.858999967575073,learn,33141.00003242493,Mon Mar 10 2025 15:31:09 GMT-0500 (Central Daylight Time),521024.89999997616,A,ca,O,a,49,1,1433.5,519591.39999997616,7076,WL,C,9.0
4,27.159000158309937,learn,32840.99984169006,Mon Mar 10 2025 15:31:09 GMT-0500 (Central Daylight Time),521325.2999999523,A,cam,O,m,278,1,1733.8999999761581,519591.39999997616,7076,WL,C,9.0
4,27.924000024795532,learn,32075.999975204468,Mon Mar 10 2025 15:31:09 GMT-0500 (Central Daylight Time),522090.0,A,camp,O,p,753,1,2498.600000023842,519591.39999997616,7076,WL,C,9.0
4,28.558000087738037,learn,31441.999912261963,Mon Mar 10 2025 15:31:09 GMT-0500 (Central Daylight Time),522724.09999996424,A,campenter,O,enter,612,1,3132.699999988079,519591.39999997616,7076,WL,C,9.0
4,29.074000120162964,learn,30925.999879837036,Mon Mar 10 2025 15:31:09 GMT-0500 (Central Daylight Time),523239.59999996424,A,d,O,d,508,1,515.1999999880791,522724.39999997616,7076,WL,C,10.0
4,29.39300012588501,learn,30606.99987411499,Mon Mar 10 2025 15:31:09 GMT-0500 (Central Daylight Time),523558.89999997616,A,do,O,o,312,1,834.5,522724.39999997616,7076,WL,C,10.0
4,29.575000047683716,learn,30424.999952316284,Mon Mar 10 2025 15:31:09 GMT-0500 (Central Daylight Time),523741.2999999523,A,doc,O,c,160,1,1016.8999999761581,522724.39999997616,7076,WL,C,10.0
4,29.891000032424927,learn,30108.999967575073,Mon Mar 10 2025 15:31:09 GMT-0500 (Central Daylight Time),524056.59999996424,A,doct,O,t,293,1,1332.199999988079,522724.39999997616,7076,WL,C,10.0
4,30.02500009536743,learn,29974.99990463257,Mon Mar 10 2025 15:31:09 GMT-0500 (Central Daylight Time),524191.39999997616,A,docto,O,o,124,1,1467.0,522724.39999997616,7076,WL,C,10.0
4,30.141000032424927,learn,29858.999967575073,Mon Mar 10 2025 15:31:09 GMT-0500 (Central Daylight Time),524307.0999999642,A,doctor,O,r,91,1,1582.699999988079,522724.39999997616,7076,WL,C,10.0
4,30.52400016784668,learn,29475.99983215332,Mon Mar 10 2025 15:31:09 GMT-0500 (Central Daylight Time),524689.3999999762,A,doctorenter,O,enter,371,1,1965.0,522724.39999997616,7076,WL,C,10.0
4,31.85800004005432,learn,28141.99995994568,Mon Mar 10 2025 15:31:09 GMT-0500 (Central Daylight Time),526023.6999999881,A,h,O,h,1329,1,1334.0,524689.6999999881,7076,WL,C,11.0
4,32.02400016784668,learn,27975.99983215332,Mon Mar 10 2025 15:31:09 GMT-0500 (Central Daylight Time),526189.3999999762,A,ho,O,o,151,1,1499.699999988079,524689.6999999881,7076,WL,C,11.0
4,32.10800004005432,learn,27891.99995994568,Mon Mar 10 2025 15:31:09 GMT-0500 (Central Daylight Time),526273.6999999881,A,hom,O,m,64,1,1584.0,524689.6999999881,7076,WL,C,11.0
4,32.289000034332275,learn,27710.999965667725,Mon Mar 10 2025 15:31:09 GMT-0500 (Central Daylight Time),526455.3999999762,A,home,O,e,173,1,1765.699999988079,524689.6999999881,7076,WL,C,11.0
4,33.32300019264221,learn,26676.999807357788,Mon Mar 10 2025 15:31:09 GMT-0500 (Central Daylight Time),527489.2999999523,A,homeenter,O,enter,1016,1,2799.599999964237,524689.6999999881,7076,WL,C,11.0
4,34.640000104904175,learn,25359.999895095825,Mon Mar 10 2025 15:31:09 GMT-0500 (Central Daylight Time),528805.6999999881,A,b,O,b,1304,1,1316.199999988079,527489.5,7076,WL,C,12.0
4,34.82300019264221,learn,25176.999807357788,Mon Mar 10 2025 15:31:09 GMT-0500 (Central Daylight Time),528989.1999999881,A,bo,O,o,170,1,1499.699999988079,527489.5,7076,WL,C,12.0
4,35.242000102996826,learn,24757.999897003174,Mon Mar 10 2025 15:31:09 GMT-0500 (Central Daylight Time),529407.5,A,boy,O,y,412,1,1918.0,527489.5,7076,WL,C,12.0
4,36.13900017738342,learn,23860.999822616577,Mon Mar 10 2025 15:31:09 GMT-0500 (Central Daylight Time),530305.0,A,boyenter,O,enter,878,1,2815.5,527489.5,7076,WL,C,12.0
4,48.16900014877319,learn,11830.999851226807,Mon Mar 10 2025 15:31:09 GMT-0500 (Central Daylight Time),542335.6999999881,A,c,O,c,12025,1,12030.5,530305.1999999881,7076,WL,C,13.0
4,48.26800012588501,learn,11731.99987411499,Mon Mar 10 2025 15:31:09 GMT-0500 (Central Daylight Time),542434.1999999881,A,ca,O,a,77,1,12129.0,530305.1999999881,7076,WL,C,13.0
4,48.968000173568726,learn,11031.999826431274,Mon Mar 10 2025 15:31:09 GMT-0500 (Central Daylight Time),543134.0,A,cat,O,t,684,1,12828.800000011921,530305.1999999881,7076,WL,C,13.0
4,49.65300011634827,learn,10346.999883651733,Mon Mar 10 2025 15:31:09 GMT-0500 (Central Daylight Time),543819.3999999762,A,ca,O,backspace,665,1,13514.199999988079,530305.1999999881,7076,WL,C,13.0
4,49.8510000705719,learn,10148.9999294281,Mon Mar 10 2025 15:31:09 GMT-0500 (Central Daylight Time),544017.0,A,c,O,backspace,190,1,13711.800000011921,530305.1999999881,7076,WL,C,13.0
4,50.068000078201294,learn,9931.999921798706,Mon Mar 10 2025 15:31:09 GMT-0500 (Central Daylight Time),544234.0,A,,O,backspace,205,1,13928.800000011921,530305.1999999881,7076,WL,C,13.0
4,51.568000078201294,learn,8431.999921798706,Mon Mar 10 2025 15:31:09 GMT-0500 (Central Daylight Time),545734.5999999642,A,n,O,n,1495,1,15429.399999976158,530305.1999999881,7076,WL,C,13.0
4,51.76800012588501,learn,8231.99987411499,Mon Mar 10 2025 15:31:09 GMT-0500 (Central Daylight Time),545934.1999999881,A,na,O,a,192,1,15629.0,530305.1999999881,7076,WL,C,13.0
4,51.950000047683716,learn,8049.999952316284,Mon Mar 10 2025 15:31:09 GMT-0500 (Central Daylight Time),546116.5999999642,A,nai,O,i,168,1,15811.399999976158,530305.1999999881,7076,WL,C,13.0
4,52.265000104904175,learn,7734.999895095825,Mon Mar 10 2025 15:31:09 GMT-0500 (Central Daylight Time),546431.5,A,nail,O,l,308,1,16126.300000011921,530305.1999999881,7076,WL,C,13.0
4,52.782999992370605,learn,7217.0000076293945,Mon Mar 10 2025 15:31:09 GMT-0500 (Central Daylight Time),546949.0,A,nailenter,O,enter,505,1,16643.80000001192,530305.1999999881,7076,WL,C,13.0
4,60.015000104904175,learn,-15.000104904174805,Mon Mar 10 2025 15:31:09 GMT-0500 (Central Daylight Time),554181.0999999642,A,None,O,None,7228,1,7231.899999976158,546949.1999999881,7076,WL,C,14.0
5,0.48399996757507324,learn,60000.0,Mon Mar 10 2025 15:31:09 GMT-0500 (Central Daylight Time),621593.8999999762,A,f,O,f,474,1,484.10000002384186,621109.7999999523,7076,WL,C,1.0
5,0.7999999523162842,learn,60000.0,Mon Mar 10 2025 15:31:09 GMT-0500 (Central Daylight Time),621909.6999999881,A,fl,O,l,301,1,799.9000000357628,621109.7999999523,7076,WL,C,1.0
5,0.9660000801086426,learn,60000.0,Mon Mar 10 2025 15:31:09 GMT-0500 (Central Daylight Time),622075.5999999642,A,fla,O,a,153,1,965.8000000119209,621109.7999999523,7076,WL,C,1.0
5,1.434999942779541,learn,60000.0,Mon Mar 10 2025 15:31:09 GMT-0500 (Central Daylight Time),622544.0,A,flag,O,g,453,1,1434.2000000476837,621109.7999999523,7076,WL,C,1.0
5,1.8329999446868896,learn,60000.0,Mon Mar 10 2025 15:31:09 GMT-0500 (Central Daylight Time),622942.5999999642,A,flagenter,O,enter,380,1,1832.800000011921,621109.7999999523,7076,WL,C,1.0
5,2.7330000400543213,learn,60000.0,Mon Mar 10 2025 15:31:09 GMT-0500 (Central Daylight Time),623842.5,A,m,O,m,881,1,899.5,622943.0,7076,WL,C,2.0
5,2.884000062942505,learn,60000.0,Mon Mar 10 2025 15:31:09 GMT-0500 (Central Daylight Time),623993.2999999523,A,ma,O,a,129,1,1050.2999999523163,622943.0,7076,WL,C,2.0
5,3.1659998893737793,learn,60000.0,Mon Mar 10 2025 15:31:09 GMT-0500 (Central Daylight Time),624275.0999999642,A,mao,O,o,262,1,1332.0999999642372,622943.0,7076,WL,C,2.0
5,3.8320000171661377,learn,60000.0,Mon Mar 10 2025 15:31:09 GMT-0500 (Central Daylight Time),624941.8999999762,A,ma,O,backspace,644,1,1998.8999999761581,622943.0,7076,WL,C,2.0
5,4.016000032424927,learn,60000.0,Mon Mar 10 2025 15:31:09 GMT-0500 (Central Daylight Time),625125.5999999642,A,m,O,backspace,162,1,2182.599999964237,622943.0,7076,WL,C,2.0
5,4.148999929428101,learn,60000.0,Mon Mar 10 2025 15:31:09 GMT-0500 (Central Daylight Time),625259.0,A,,O,backspace,122,1,2316.0,622943.0,7076,WL,C,2.0
5,5.016000032424927,learn,60000.0,Mon Mar 10 2025 15:31:09 GMT-0500 (Central Daylight Time),626125.6999999881,A,n,O,n,844,1,3182.699999988079,622943.0,7076,WL,C,2.0
5,5.232000112533569,learn,60000.0,Mon Mar 10 2025 15:31:09 GMT-0500 (Central Daylight Time),626341.2999999523,A,na,O,a,195,1,3398.2999999523163,622943.0,7076,WL,C,2.0
5,5.398000001907349,learn,60000.0,Mon Mar 10 2025 15:31:09 GMT-0500 (Central Daylight Time),626507.3999999762,A,nai,O,i,154,1,3564.399999976158,622943.0,7076,WL,C,2.0
5,5.648999929428101,learn,60000.0,Mon Mar 10 2025 15:31:09 GMT-0500 (Central Daylight Time),626758.8999999762,A,nail,O,l,246,1,3815.899999976158,622943.0,7076,WL,C,2.0
5,5.997999906539917,learn,60000.0,Mon Mar 10 2025 15:31:09 GMT-0500 (Central Daylight Time),627107.3999999762,A,nailenter,O,enter,336,1,4164.399999976158,622943.0,7076,WL,C,2.0
5,6.365000009536743,learn,60000.0,Mon Mar 10 2025 15:31:09 GMT-0500 (Central Daylight Time),627474.5999999642,A,l,O,l,356,1,366.89999997615814,627107.6999999881,7076,WL,C,3.0
5,6.7809998989105225,learn,60000.0,Mon Mar 10 2025 15:31:09 GMT-0500 (Central Daylight Time),627890.2999999523,A,le,O,e,404,1,782.5999999642372,627107.6999999881,7076,WL,C,3.0
5,6.996999979019165,learn,60000.0,Mon Mar 10 2025 15:31:09 GMT-0500 (Central Daylight Time),628106.5999999642,A,lee,O,e,203,1,998.8999999761581,627107.6999999881,7076,WL,C,3.0
5,7.648999929428101,learn,60000.0,Mon Mar 10 2025 15:31:09 GMT-0500 (Central Daylight Time),628758.0999999642,A,le,O,backspace,637,1,1650.3999999761581,627107.6999999881,7076,WL,C,3.0
5,7.7799999713897705,learn,60000.0,Mon Mar 10 2025 15:31:09 GMT-0500 (Central Daylight Time),628889.8999999762,A,let,O,t,113,1,1782.199999988079,627107.6999999881,7076,WL,C,3.0
5,7.914000034332275,learn,60000.0,Mon Mar 10 2025 15:31:09 GMT-0500 (Central Daylight Time),629023.3999999762,A,lett,O,t,126,1,1915.699999988079,627107.6999999881,7076,WL,C,3.0
5,8.365000009536743,learn,60000.0,Mon Mar 10 2025 15:31:09 GMT-0500 (Central Daylight Time),629474.8999999762,A,lette,O,e,430,1,2367.199999988079,627107.6999999881,7076,WL,C,3.0
5,8.463000059127808,learn,60000.0,Mon Mar 10 2025 15:31:09 GMT-0500 (Central Daylight Time),629572.6999999881,A,letter,O,r,84,1,2465.0,627107.6999999881,7076,WL,C,3.0
5,8.746999979019165,learn,60000.0,Mon Mar 10 2025 15:31:09 GMT-0500 (Central Daylight Time),629856.3999999762,A,letterenter,O,enter,275,1,2748.699999988079,627107.6999999881,7076,WL,C,3.0
5,9.730999946594238,learn,60000.0,Mon Mar 10 2025 15:31:09 GMT-0500 (Central Daylight Time),630840.1999999881,A,c,O,c,969,1,983.6000000238419,629856.5999999642,7076,WL,C,4.0
5,10.04699993133545,learn,60000.0,Mon Mar 10 2025 15:31:09 GMT-0500 (Central Daylight Time),631156.1999999881,A,co,O,o,294,1,1299.6000000238419,629856.5999999642,7076,WL,C,4.0
5,10.263999938964844,learn,60000.0,Mon Mar 10 2025 15:31:09 GMT-0500 (Central Daylight Time),631373.2999999523,A,cor,O,r,195,1,1516.699999988079,629856.5999999642,7076,WL,C,4.0
5,10.52999997138977,learn,60000.0,Mon Mar 10 2025 15:31:09 GMT-0500 (Central Daylight Time),631639.7999999523,A,corn,O,n,247,1,1783.199999988079,629856.5999999642,7076,WL,C,4.0
5,10.878999948501587,learn,60000.0,Mon Mar 10 2025 15:31:09 GMT-0500 (Central Daylight Time),631988.8999999762,A,cornenter,O,enter,335,1,2132.300000011921,629856.5999999642,7076,WL,C,4.0
5,11.313999891281128,learn,60000.0,Mon Mar 10 2025 15:31:09 GMT-0500 (Central Daylight Time),632423.2999999523,A,s,O,s,429,1,434.19999998807907,631989.0999999642,7076,WL,C,5.0
5,11.563999891281128,learn,60000.0,Mon Mar 10 2025 15:31:09 GMT-0500 (Central Daylight Time),632673.3999999762,A,sh,O,h,232,1,684.3000000119209,631989.0999999642,7076,WL,C,5.0
5,11.848000049591064,learn,60000.0,Mon Mar 10 2025 15:31:09 GMT-0500 (Central Daylight Time),632957.0999999642,A,sho,O,o,269,1,968.0,631989.0999999642,7076,WL,C,5.0
5,12.04699993133545,learn,60000.0,Mon Mar 10 2025 15:31:09 GMT-0500 (Central Daylight Time),633156.7999999523,A,shor,O,r,177,1,1167.699999988079,631989.0999999642,7076,WL,C,5.0
5,12.111999988555908,learn,60000.0,Mon Mar 10 2025 15:31:09 GMT-0500 (Central Daylight Time),633221.2999999523,A,shore,O,e,51,1,1232.199999988079,631989.0999999642,7076,WL,C,5.0
5,12.52999997138977,learn,60000.0,Mon Mar 10 2025 15:31:09 GMT-0500 (Central Daylight Time),633639.3999999762,A,shoreenter,O,enter,403,1,1650.300000011921,631989.0999999642,7076,WL,C,5.0
5,13.36299991607666,learn,60000.0,Mon Mar 10 2025 15:31:09 GMT-0500 (Central Daylight Time),634472.1999999881,A,c,O,c,813,1,832.6000000238419,633639.5999999642,7076,WL,C,6.0
5,13.39299988746643,learn,60000.0,Mon Mar 10 2025 15:31:09 GMT-0500 (Central Daylight Time),634502.3999999762,A,ca,O,a,21,1,862.8000000119209,633639.5999999642,7076,WL,C,6.0
5,13.864000082015991,learn,60000.0,Mon Mar 10 2025 15:31:09 GMT-0500 (Central Daylight Time),634973.1999999881,A,cat,O,t,450,1,1333.6000000238419,633639.5999999642,7076,WL,C,6.0
5,14.029000043869019,learn,60000.0,Mon Mar 10 2025 15:31:09 GMT-0500 (Central Daylight Time),635138.2999999523,A,catt,O,t,154,1,1498.699999988079,633639.5999999642,7076,WL,C,6.0
5,14.211999893188477,learn,60000.0,Mon Mar 10 2025 15:31:09 GMT-0500 (Central Daylight Time),635321.5,A,cattl,O,l,173,1,1681.9000000357628,633639.5999999642,7076,WL,C,6.0
5,14.36299991607666,learn,60000.0,Mon Mar 10 2025 15:31:09 GMT-0500 (Central Daylight Time),635472.5999999642,A,cattle,O,e,142,1,1833.0,633639.5999999642,7076,WL,C,6.0
5,14.528000116348267,learn,60000.0,Mon Mar 10 2025 15:31:09 GMT-0500 (Central Daylight Time),635637.5999999642,A,cattleenter,O,enter,158,1,1998.0,633639.5999999642,7076,WL,C,6.0
5,15.413000106811523,learn,60000.0,Mon Mar 10 2025 15:31:09 GMT-0500 (Central Daylight Time),636522.5,A,m,O,m,866,1,884.7000000476837,635637.7999999523,7076,WL,C,7.0
5,15.961999893188477,learn,60000.0,Mon Mar 10 2025 15:31:09 GMT-0500 (Central Daylight Time),637071.7999999523,A,,O,backspace,541,1,1434.0,635637.7999999523,7076,WL,C,7.0
5,16.394999980926514,learn,60000.0,Mon Mar 10 2025 15:31:09 GMT-0500 (Central Daylight Time),637504.8999999762,A,n,O,n,412,1,1867.1000000238419,635637.7999999523,7076,WL,C,7.0
5,16.57800006866455,learn,60000.0,Mon Mar 10 2025 15:31:09 GMT-0500 (Central Daylight Time),637687.5999999642,A,na,O,a,168,1,2049.800000011921,635637.7999999523,7076,WL,C,7.0
5,16.710999965667725,learn,60000.0,Mon Mar 10 2025 15:31:09 GMT-0500 (Central Daylight Time),637820.5,A,nai,O,i,123,1,2182.7000000476837,635637.7999999523,7076,WL,C,7.0
5,16.96499991416931,learn,60000.0,Mon Mar 10 2025 15:31:09 GMT-0500 (Central Daylight Time),638074.2999999523,A,nail,O,l,236,1,2436.5,635637.7999999523,7076,WL,C,7.0
5,17.278000116348267,learn,60000.0,Mon Mar 10 2025 15:31:09 GMT-0500 (Central Daylight Time),638387.6999999881,A,nailenter,O,enter,294,1,2749.900000035763,635637.7999999523,7076,WL,C,7.0
5,17.812000036239624,learn,60000.0,Mon Mar 10 2025 15:31:09 GMT-0500 (Central Daylight Time),638921.6999999881,A,b,O,b,516,1,533.8000000119209,638387.8999999762,7076,WL,C,8.0
5,17.979000091552734,learn,60000.0,Mon Mar 10 2025 15:31:09 GMT-0500 (Central Daylight Time),639089.0,A,bo,O,o,150,1,701.1000000238419,638387.8999999762,7076,WL,C,8.0
5,18.561000108718872,learn,60000.0,Mon Mar 10 2025 15:31:09 GMT-0500 (Central Daylight Time),639670.5,A,bod,O,d,565,1,1282.6000000238419,638387.8999999762,7076,WL,C,8.0
5,18.729000091552734,learn,60000.0,Mon Mar 10 2025 15:31:09 GMT-0500 (Central Daylight Time),639838.7999999523,A,body,O,y,162,1,1450.8999999761581,638387.8999999762,7076,WL,C,8.0
5,19.128000020980835,learn,60000.0,Mon Mar 10 2025 15:31:09 GMT-0500 (Central Daylight Time),640237.3999999762,A,bodyenter,O,enter,375,1,1849.5,638387.8999999762,7076,WL,C,8.0
5,20.743000030517578,learn,60000.0,Mon Mar 10 2025 15:31:09 GMT-0500 (Central Daylight Time),641852.2999999523,A,h,O,h,1595,1,1614.5999999642372,640237.6999999881,7076,WL,C,9.0
5,20.99399995803833,learn,60000.0,Mon Mar 10 2025 15:31:09 GMT-0500 (Central Daylight Time),642103.3999999762,A,ho,O,o,234,1,1865.699999988079,640237.6999999881,7076,WL,C,9.0
5,21.075999975204468,learn,60000.0,Mon Mar 10 2025 15:31:09 GMT-0500 (Central Daylight Time),642185.6999999881,A,hom,O,m,65,1,1948.0,640237.6999999881,7076,WL,C,9.0
5,21.20900011062622,learn,60000.0,Mon Mar 10 2025 15:31:09 GMT-0500 (Central Daylight Time),642319.0,A,home,O,e,127,1,2081.300000011921,640237.6999999881,7076,WL,C,9.0
5,21.47699999809265,learn,60000.0,Mon Mar 10 2025 15:31:09 GMT-0500 (Central Daylight Time),642586.2999999523,A,homeenter,O,enter,256,1,2348.599999964237,640237.6999999881,7076,WL,C,9.0
5,21.658999919891357,learn,60000.0,Mon Mar 10 2025 15:31:09 GMT-0500 (Central Daylight Time),642768.2999999523,A,b,O,b,174,1,181.79999995231628,642586.5,7076,WL,C,10.0
5,21.944000005722046,learn,60000.0,Mon Mar 10 2025 15:31:09 GMT-0500 (Central Daylight Time),643053.8999999762,A,bo,O,o,282,1,467.39999997615814,642586.5,7076,WL,C,10.0
5,22.74399995803833,learn,60000.0,Mon Mar 10 2025 15:31:09 GMT-0500 (Central Daylight Time),643853.8999999762,A,boy,O,y,795,1,1267.3999999761581,642586.5,7076,WL,C,10.0
5,22.9760000705719,learn,60000.0,Mon Mar 10 2025 15:31:09 GMT-0500 (Central Daylight Time),644085.8999999762,A,boyenter,O,enter,218,1,1499.3999999761581,642586.5,7076,WL,C,10.0
5,25.323999881744385,learn,60000.0,Mon Mar 10 2025 15:31:09 GMT-0500 (Central Daylight Time),646433.7999999523,A,d,O,d,2338,1,2347.5,644086.2999999523,7076,WL,C,11.0
5,25.592999935150146,learn,60000.0,Mon Mar 10 2025 15:31:09 GMT-0500 (Central Daylight Time),646702.5,A,do,O,o,255,1,2616.2000000476837,644086.2999999523,7076,WL,C,11.0
5,25.757999897003174,learn,60000.0,Mon Mar 10 2025 15:31:09 GMT-0500 (Central Daylight Time),646868.0,A,doc,O,c,156,1,2781.7000000476837,644086.2999999523,7076,WL,C,11.0
5,26.424999952316284,learn,60000.0,Mon Mar 10 2025 15:31:09 GMT-0500 (Central Daylight Time),647534.0,A,doct,O,t,659,1,3447.7000000476837,644086.2999999523,7076,WL,C,11.0
5,26.657999992370605,learn,60000.0,Mon Mar 10 2025 15:31:09 GMT-0500 (Central Daylight Time),647767.1999999881,A,docto,O,o,218,1,3680.900000035763,644086.2999999523,7076,WL,C,11.0
5,27.757999897003174,learn,60000.0,Mon Mar 10 2025 15:31:09 GMT-0500 (Central Daylight Time),648867.0,A,doctor,O,r,1088,1,4780.700000047684,644086.2999999523,7076,WL,C,11.0
5,27.938999891281128,learn,60000.0,Mon Mar 10 2025 15:31:09 GMT-0500 (Central Daylight Time),649048.5,A,doctorenter,O,enter,172,1,4962.200000047684,644086.2999999523,7076,WL,C,11.0
5,28.242000102996826,learn,60000.0,Mon Mar 10 2025 15:31:09 GMT-0500 (Central Daylight Time),649351.2999999523,A,c,O,c,288,1,302.5,649048.7999999523,7076,WL,C,12.0
5,28.288000106811523,learn,60000.0,Mon Mar 10 2025 15:31:09 GMT-0500 (Central Daylight Time),649398.0,A,ca,O,a,39,1,349.2000000476837,649048.7999999523,7076,WL,C,12.0
5,28.77300000190735,learn,60000.0,Mon Mar 10 2025 15:31:09 GMT-0500 (Central Daylight Time),649882.8999999762,A,cam,O,m,475,1,834.1000000238419,649048.7999999523,7076,WL,C,12.0
5,28.973999977111816,learn,60000.0,Mon Mar 10 2025 15:31:09 GMT-0500 (Central Daylight Time),650083.5999999642,A,camp,O,p,178,1,1034.800000011921,649048.7999999523,7076,WL,C,12.0
5,29.539999961853027,learn,60000.0,Mon Mar 10 2025 15:31:09 GMT-0500 (Central Daylight Time),650649.7999999523,A,campenter,O,enter,549,1,1601.0,649048.7999999523,7076,WL,C,12.0
5,31.240999937057495,learn,60000.0,Mon Mar 10 2025 15:31:09 GMT-0500 (Central Daylight Time),652350.1999999881,A,s,O,s,1687,1,1700.1000000238419,650650.0999999642,7076,WL,C,13.0
5,31.50600004196167,learn,60000.0,Mon Mar 10 2025 15:31:09 GMT-0500 (Central Daylight Time),652615.1999999881,A,si,O,i,249,1,1965.1000000238419,650650.0999999642,7076,WL,C,13.0
5,31.971999883651733,learn,60000.0,Mon Mar 10 2025 15:31:09 GMT-0500 (Central Daylight Time),653081.6999999881,A,sig,O,g,458,1,2431.600000023842,650650.0999999642,7076,WL,C,13.0
5,32.638999938964844,learn,60000.0,Mon Mar 10 2025 15:31:09 GMT-0500 (Central Daylight Time),653748.0999999642,A,si,O,backspace,655,1,3098.0,650650.0999999642,7076,WL,C,13.0
5,32.82299995422363,learn,60000.0,Mon Mar 10 2025 15:31:09 GMT-0500 (Central Daylight Time),653932.6999999881,A,s,O,backspace,162,1,3282.600000023842,650650.0999999642,7076,WL,C,13.0
5,33.62400007247925,learn,60000.0,Mon Mar 10 2025 15:31:09 GMT-0500 (Central Daylight Time),654733.2999999523,A,su,O,u,795,1,4083.199999988079,650650.0999999642,7076,WL,C,13.0
5,34.23799991607666,learn,60000.0,Mon Mar 10 2025 15:31:09 GMT-0500 (Central Daylight Time),655347.5999999642,A,sug,O,g,603,1,4697.5,650650.0999999642,7076,WL,C,13.0
5,34.37299990653992,learn,60000.0,Mon Mar 10 2025 15:31:09 GMT-0500 (Central Daylight Time),655482.2999999523,A,suga,O,a,116,1,4832.199999988079,650650.0999999642,7076,WL,C,13.0
5,34.50500011444092,learn,60000.0,Mon Mar 10 2025 15:31:09 GMT-0500 (Central Daylight Time),655614.7999999523,A,sugar,O,r,127,1,4964.699999988079,650650.0999999642,7076,WL,C,13.0
5,34.77300000190735,learn,60000.0,Mon Mar 10 2025 15:31:09 GMT-0500 (Central Daylight Time),655882.6999999881,A,sugarenter,O,enter,246,1,5232.600000023842,650650.0999999642,7076,WL,C,13.0
5,34.937999963760376,learn,60000.0,Mon Mar 10 2025 15:31:09 GMT-0500 (Central Daylight Time),656047.7999999523,A,w,O,w,150,1,164.79999995231628,655883.0,7076,WL,C,14.0
5,35.25600004196167,learn,60000.0,Mon Mar 10 2025 15:31:09 GMT-0500 (Central Daylight Time),656365.6999999881,A,wh,O,h,313,1,482.69999998807907,655883.0,7076,WL,C,14.0
5,35.43899989128113,learn,60000.0,Mon Mar 10 2025 15:31:09 GMT-0500 (Central Daylight Time),656548.8999999762,A,whe,O,e,162,1,665.8999999761581,655883.0,7076,WL,C,14.0
5,35.50399994850159,learn,60000.0,Mon Mar 10 2025 15:31:09 GMT-0500 (Central Daylight Time),656614.0,A,whea,O,a,50,1,731.0,655883.0,7076,WL,C,14.0
5,35.7039999961853,learn,60000.0,Mon Mar 10 2025 15:31:09 GMT-0500 (Central Daylight Time),656814.0,A,wheat,O,t,186,1,931.0,655883.0,7076,WL,C,14.0
5,37.270999908447266,learn,60000.0,Mon Mar 10 2025 15:31:09 GMT-0500 (Central Daylight Time),658380.5,A,wheatenter,O,enter,1563,1,2497.5,655883.0,7076,WL,C,14.0
5,37.83800005912781,learn,60000.0,Mon Mar 10 2025 15:31:09 GMT-0500 (Central Daylight Time),658948.0,A,t,O,t,546,1,567.3000000119209,658380.6999999881,7076,WL,C,15.0
5,38.187999963760376,learn,60000.0,Mon Mar 10 2025 15:31:09 GMT-0500 (Central Daylight Time),659298.0999999642,A,to,O,o,332,1,917.3999999761581,658380.6999999881,7076,WL,C,15.0
5,38.335999965667725,learn,60000.0,Mon Mar 10 2025 15:31:09 GMT-0500 (Central Daylight Time),659445.8999999762,A,tow,O,w,132,1,1065.199999988079,658380.6999999881,7076,WL,C,15.0
5,38.36800003051758,learn,60000.0,Mon Mar 10 2025 15:31:09 GMT-0500 (Central Daylight Time),659478.0999999642,A,towe,O,e,25,1,1097.3999999761581,658380.6999999881,7076,WL,C,15.0
5,38.687999963760376,learn,60000.0,Mon Mar 10 2025 15:31:09 GMT-0500 (Central Daylight Time),659798.2999999523,A,tower,O,r,308,1,1417.5999999642372,658380.6999999881,7076,WL,C,15.0
5,39.40400004386902,learn,60000.0,Mon Mar 10 2025 15:31:09 GMT-0500 (Central Daylight Time),660514.0999999642,A,towerenter,O,enter,698,1,2133.399999976158,658380.6999999881,7076,WL,C,15.0
6,0.9519999027252197,distr,59048.00009727478,Mon Mar 10 2025 15:31:09 GMT-0500 (Central Daylight Time),743721.8999999762,B,m,O,m,942,1,951.6000000238419,742770.2999999523,7076,WL,C,1.0
6,1.2189998626708984,distr,58781.0001373291,Mon Mar 10 2025 15:31:09 GMT-0500 (Central Daylight Time),743988.6999999881,B,me,O,e,254,1,1218.4000000357628,742770.2999999523,7076,WL,C,1.0
6,1.3659999370574951,distr,58634.000062942505,Mon Mar 10 2025 15:31:09 GMT-0500 (Central Daylight Time),744136.5,B,mea,O,a,131,1,1366.2000000476837,742770.2999999523,7076,WL,C,1.0
6,1.7999999523162842,distr,58200.000047683716,Mon Mar 10 2025 15:31:09 GMT-0500 (Central Daylight Time),744570.5999999642,B,meat,O,t,413,1,1800.300000011921,742770.2999999523,7076,WL,C,1.0
6,2.4659998416900635,distr,57534.00015830994,Mon Mar 10 2025 15:31:09 GMT-0500 (Central Daylight Time),745236.0,B,meatenter,O,enter,638,1,2465.7000000476837,742770.2999999523,7076,WL,C,1.0
6,3.2159998416900635,distr,56784.00015830994,Mon Mar 10 2025 15:31:09 GMT-0500 (Central Daylight Time),745986.5,B,f,O,f,739,1,750.2000000476837,745236.2999999523,7076,WL,C,2.0
6,3.500999927520752,distr,56499.00007247925,Mon Mar 10 2025 15:31:09 GMT-0500 (Central Daylight Time),746271.5,B,fo,O,o,281,1,1035.2000000476837,745236.2999999523,7076,WL,C,2.0
6,3.6989998817443848,distr,56301.000118255615,Mon Mar 10 2025 15:31:09 GMT-0500 (Central Daylight Time),746468.8999999762,B,for,O,r,175,1,1232.6000000238419,745236.2999999523,7076,WL,C,2.0
6,3.746999979019165,distr,56253.000020980835,Mon Mar 10 2025 15:31:09 GMT-0500 (Central Daylight Time),746517.5999999642,B,fore,O,e,32,1,1281.300000011921,745236.2999999523,7076,WL,C,2.0
6,4.0329999923706055,distr,55967.000007629395,Mon Mar 10 2025 15:31:09 GMT-0500 (Central Daylight Time),746803.5,B,forec,O,c,265,1,1567.2000000476837,745236.2999999523,7076,WL,C,2.0
6,4.549999952316284,distr,55450.000047683716,Mon Mar 10 2025 15:31:09 GMT-0500 (Central Daylight Time),747320.1999999881,B,fore,O,backspace,499,1,2083.900000035763,745236.2999999523,7076,WL,C,2.0
6,4.682999849319458,distr,55317.00015068054,Mon Mar 10 2025 15:31:09 GMT-0500 (Central Daylight Time),747453.1999999881,B,fores,O,s,113,1,2216.900000035763,745236.2999999523,7076,WL,C,2.0
6,5.615000009536743,distr,54384.99999046326,Mon Mar 10 2025 15:31:09 GMT-0500 (Central Daylight Time),748385.1999999881,B,forest,O,t,914,1,3148.900000035763,745236.2999999523,7076,WL,C,2.0
6,5.880999803543091,distr,54119.00019645691,Mon Mar 10 2025 15:31:09 GMT-0500 (Central Daylight Time),748651.3999999762,B,forestenter,O,enter,253,1,3415.100000023842,745236.2999999523,7076,WL,C,2.0
6,6.283999919891357,distr,53716.00008010864,Mon Mar 10 2025 15:31:09 GMT-0500 (Central Daylight Time),749053.7999999523,B,t,O,t,398,1,402.0999999642372,748651.6999999881,7076,WL,C,3.0
6,6.516999959945679,distr,53483.00004005432,Mon Mar 10 2025 15:31:09 GMT-0500 (Central Daylight Time),749286.8999999762,B,to,O,o,226,1,635.1999999880791,748651.6999999881,7076,WL,C,3.0
6,6.682999849319458,distr,53317.00015068054,Mon Mar 10 2025 15:31:09 GMT-0500 (Central Daylight Time),749453.0999999642,B,too,O,o,142,1,801.3999999761581,748651.6999999881,7076,WL,C,3.0
6,6.863999843597412,distr,53136.00015640259,Mon Mar 10 2025 15:31:09 GMT-0500 (Central Daylight Time),749634.5,B,tool,O,l,159,1,982.8000000119209,748651.6999999881,7076,WL,C,3.0
6,7.165999889373779,distr,52834.00011062622,Mon Mar 10 2025 15:31:09 GMT-0500 (Central Daylight Time),749935.7999999523,B,toolenter,O,enter,292,1,1284.0999999642372,748651.6999999881,7076,WL,C,3.0
6,7.9659998416900635,distr,52034.00015830994,Mon Mar 10 2025 15:31:09 GMT-0500 (Central Daylight Time),750735.8999999762,B,p,O,p,778,1,799.8999999761581,749936.0,7076,WL,C,4.0
6,8.030999898910522,distr,51969.00010108948,Mon Mar 10 2025 15:31:09 GMT-0500 (Central Daylight Time),750801.3999999762,B,pl,O,l,52,1,865.3999999761581,749936.0,7076,WL,C,4.0
6,8.180999994277954,distr,51819.000005722046,Mon Mar 10 2025 15:31:09 GMT-0500 (Central Daylight Time),750950.8999999762,B,pla,O,a,133,1,1014.8999999761581,749936.0,7076,WL,C,4.0
6,8.413999795913696,distr,51586.000204086304,Mon Mar 10 2025 15:31:09 GMT-0500 (Central Daylight Time),751183.6999999881,B,plan,O,n,216,1,1247.699999988079,749936.0,7076,WL,C,4.0
6,8.649999856948853,distr,51350.00014305115,Mon Mar 10 2025 15:31:09 GMT-0500 (Central Daylight Time),751420.1999999881,B,plant,O,t,214,1,1484.199999988079,749936.0,7076,WL,C,4.0
6,8.830999851226807,distr,51169.00014877319,Mon Mar 10 2025 15:31:09 GMT-0500 (Central Daylight Time),751601.5,B,plantenter,O,enter,168,1,1665.5,749936.0,7076,WL,C,4.0
6,9.246999979019165,distr,50753.000020980835,Mon Mar 10 2025 15:31:09 GMT-0500 (Central Daylight Time),752016.8999999762,B,m,O,m,407,1,415.10000002384186,751601.7999999523,7076,WL,C,5.0
6,9.363999843597412,distr,50636.00015640259,Mon Mar 10 2025 15:31:09 GMT-0500 (Central Daylight Time),752134.3999999762,B,mo,O,o,100,1,532.6000000238419,751601.7999999523,7076,WL,C,5.0
6,9.547999858856201,distr,50452.0001411438,Mon Mar 10 2025 15:31:09 GMT-0500 (Central Daylight Time),752318.3999999762,B,mon,O,n,164,1,716.6000000238419,751601.7999999523,7076,WL,C,5.0
6,10.480999946594238,distr,49519.00005340576,Mon Mar 10 2025 15:31:09 GMT-0500 (Central Daylight Time),753251.0999999642,B,mone,O,e,912,1,1649.300000011921,751601.7999999523,7076,WL,C,5.0
6,11.379999876022339,distr,48620.00012397766,Mon Mar 10 2025 15:31:09 GMT-0500 (Central Daylight Time),754150.1999999881,B,money,O,y,884,1,2548.400000035763,751601.7999999523,7076,WL,C,5.0
6,11.930999994277954,distr,48069.000005722046,Mon Mar 10 2025 15:31:09 GMT-0500 (Central Daylight Time),754700.8999999762,B,moneyenter,O,enter,538,1,3099.100000023842,751601.7999999523,7076,WL,C,5.0
6,12.44700002670288,distr,47552.99997329712,Mon Mar 10 2025 15:31:09 GMT-0500 (Central Daylight Time),755217.0,B,c,O,c,507,1,515.8000000119209,754701.1999999881,7076,WL,C,6.0
6,12.628000020980835,distr,47371.999979019165,Mon Mar 10 2025 15:31:09 GMT-0500 (Central Daylight Time),755397.7999999523,B,ch,O,h,172,1,696.5999999642372,754701.1999999881,7076,WL,C,6.0
6,13.745999813079834,distr,46254.000186920166,Mon Mar 10 2025 15:31:09 GMT-0500 (Central Daylight Time),756516.1999999881,B,chr,O,r,1108,1,1815.0,754701.1999999881,7076,WL,C,6.0
6,13.895999908447266,distr,46104.000091552734,Mon Mar 10 2025 15:31:09 GMT-0500 (Central Daylight Time),756665.5999999642,B,chri,O,i,131,1,1964.3999999761581,754701.1999999881,7076,WL,C,6.0
6,14.13099980354309,distr,45869.00019645691,Mon Mar 10 2025 15:31:09 GMT-0500 (Central Daylight Time),756901.0999999642,B,chris,O,s,213,1,2199.899999976158,754701.1999999881,7076,WL,C,6.0
6,14.379999876022339,distr,45620.00012397766,Mon Mar 10 2025 15:31:09 GMT-0500 (Central Daylight Time),757150.0,B,christ,O,t,233,1,2448.800000011921,754701.1999999881,7076,WL,C,6.0
6,14.579999923706055,distr,45420.000076293945,Mon Mar 10 2025 15:31:09 GMT-0500 (Central Daylight Time),757350.5,B,christm,O,m,191,1,2649.300000011921,754701.1999999881,7076,WL,C,6.0
6,14.980000019073486,distr,45019.999980926514,Mon Mar 10 2025 15:31:09 GMT-0500 (Central Daylight Time),757749.8999999762,B,christma,O,a,385,1,3048.699999988079,754701.1999999881,7076,WL,C,6.0
6,15.044999837875366,distr,44955.000162124634,Mon Mar 10 2025 15:31:09 GMT-0500 (Central Daylight Time),757814.5999999642,B,christmas,O,s,41,1,3113.399999976158,754701.1999999881,7076,WL,C,6.0
6,15.52899980545044,distr,44471.00019454956,Mon Mar 10 2025 15:31:09 GMT-0500 (Central Daylight Time),758298.8999999762,B,christmasenter,O,enter,462,1,3597.699999988079,754701.1999999881,7076,WL,C,6.0
6,16.780999898910522,distr,43219.00010108948,Mon Mar 10 2025 15:31:09 GMT-0500 (Central Daylight Time),759550.6999999881,B,m,O,m,1237,1,1251.5,758299.1999999881,7076,WL,C,7.0
6,16.878000020980835,distr,43121.999979019165,Mon Mar 10 2025 15:31:09 GMT-0500 (Central Daylight Time),759647.8999999762,B,mo,O,o,88,1,1348.699999988079,758299.1999999881,7076,WL,C,7.0
6,17.32799983024597,distr,42672.00016975403,Mon Mar 10 2025 15:31:09 GMT-0500 (Central Daylight Time),760098.5,B,mot,O,t,430,1,1799.300000011921,758299.1999999881,7076,WL,C,7.0
6,17.494999885559082,distr,42505.00011444092,Mon Mar 10 2025 15:31:09 GMT-0500 (Central Daylight Time),760264.7999999523,B,moth,O,h,156,1,1965.5999999642372,758299.1999999881,7076,WL,C,7.0
6,17.563999891281128,distr,42436.00010871887,Mon Mar 10 2025 15:31:09 GMT-0500 (Central Daylight Time),760333.8999999762,B,mothe,O,e,45,1,2034.699999988079,758299.1999999881,7076,WL,C,7.0
6,17.643999814987183,distr,42356.00018501282,Mon Mar 10 2025 15:31:09 GMT-0500 (Central Daylight Time),760414.0999999642,B,mother,O,r,72,1,2114.899999976158,758299.1999999881,7076,WL,C,7.0
6,17.961999893188477,distr,42038.00010681152,Mon Mar 10 2025 15:31:09 GMT-0500 (Central Daylight Time),760731.8999999762,B,motherenter,O,enter,297,1,2432.699999988079,758299.1999999881,7076,WL,C,7.0
6,19.610999822616577,distr,40389.00017738342,Mon Mar 10 2025 15:31:09 GMT-0500 (Central Daylight Time),762381.5,B,d,O,d,1637,1,1649.300000011921,760732.1999999881,7076,WL,C,8.0
6,19.77899980545044,distr,40221.00019454956,Mon Mar 10 2025 15:31:09 GMT-0500 (Central Daylight Time),762548.6999999881,B,di,O,i,161,1,1816.5,760732.1999999881,7076,WL,C,8.0
6,19.944999933242798,distr,40055.0000667572,Mon Mar 10 2025 15:31:09 GMT-0500 (Central Daylight Time),762715.3999999762,B,dia,O,a,146,1,1983.199999988079,760732.1999999881,7076,WL,C,8.0
6,20.17799997329712,distr,39822.00002670288,Mon Mar 10 2025 15:31:09 GMT-0500 (Central Daylight Time),762947.7999999523,B,diam,O,m,211,1,2215.599999964237,760732.1999999881,7076,WL,C,8.0
6,20.259999990463257,distr,39740.00000953674,Mon Mar 10 2025 15:31:09 GMT-0500 (Central Daylight Time),763030.5999999642,B,diamo,O,o,74,1,2298.399999976158,760732.1999999881,7076,WL,C,8.0
6,20.444000005722046,distr,39555.999994277954,Mon Mar 10 2025 15:31:09 GMT-0500 (Central Daylight Time),763213.6999999881,B,diamon,O,n,165,1,2481.5,760732.1999999881,7076,WL,C,8.0
6,20.5939998626709,distr,39406.0001373291,Mon Mar 10 2025 15:31:09 GMT-0500 (Central Daylight Time),763364.0,B,diamond,O,d,130,1,2631.800000011921,760732.1999999881,7076,WL,C,8.0
6,23.14299988746643,distr,36857.00011253357,Mon Mar 10 2025 15:31:09 GMT-0500 (Central Daylight Time),765912.8999999762,B,diamondenter,O,enter,2536,1,5180.699999988079,760732.1999999881,7076,WL,C,8.0
6,41.870999813079834,distr,18129.000186920166,Mon Mar 10 2025 15:31:09 GMT-0500 (Central Daylight Time),784641.1999999881,B,s,O,s,18706,1,18728.100000023842,765913.0999999642,7076,WL,C,9.0
6,42.08699989318848,distr,17913.000106811523,Mon Mar 10 2025 15:31:09 GMT-0500 (Central Daylight Time),784857.7999999523,B,sk,O,k,207,1,18944.69999998808,765913.0999999642,7076,WL,C,9.0
6,42.503000020980835,distr,17496.999979019165,Mon Mar 10 2025 15:31:09 GMT-0500 (Central Daylight Time),785273.0999999642,B,sky,O,y,404,1,19360.0,765913.0999999642,7076,WL,C,9.0
6,43.30399990081787,distr,16696.00009918213,Mon Mar 10 2025 15:31:09 GMT-0500 (Central Daylight Time),786074.0999999642,B,skyenter,O,enter,781,1,20161.0,765913.0999999642,7076,WL,C,9.0
6,53.11699986457825,distr,6883.000135421753,Mon Mar 10 2025 15:31:09 GMT-0500 (Central Daylight Time),795887.0,B,d,O,d,9797,1,9812.600000023842,786074.3999999762,7076,WL,C,10.0
6,53.43400001525879,distr,6565.999984741211,Mon Mar 10 2025 15:31:09 GMT-0500 (Central Daylight Time),796204.3999999762,B,do,O,o,296,1,10130.0,786074.3999999762,7076,WL,C,10.0
6,53.68299984931946,distr,6317.000150680542,Mon Mar 10 2025 15:31:09 GMT-0500 (Central Daylight Time),796453.5999999642,B,dol,O,l,235,1,10379.199999988079,786074.3999999762,7076,WL,C,10.0
6,53.83200001716614,distr,6167.999982833862,Mon Mar 10 2025 15:31:09 GMT-0500 (Central Daylight Time),796602.2999999523,B,doll,O,l,137,1,10527.899999976158,786074.3999999762,7076,WL,C,10.0
6,54.032999992370605,distr,5967.0000076293945,Mon Mar 10 2025 15:31:09 GMT-0500 (Central Daylight Time),796803.1999999881,B,dolla,O,a,188,1,10728.800000011921,786074.3999999762,7076,WL,C,10.0
6,54.181999921798706,distr,5818.000078201294,Mon Mar 10 2025 15:31:09 GMT-0500 (Central Daylight Time),796952.0999999642,B,dollar,O,r,131,1,10877.699999988079,786074.3999999762,7076,WL,C,10.0
6,54.56599998474121,distr,5434.000015258789,Mon Mar 10 2025 15:31:09 GMT-0500 (Central Daylight Time),797336.1999999881,B,dollarenter,O,enter,371,1,11261.800000011921,786074.3999999762,7076,WL,C,10.0
6,55.31599998474121,distr,4684.000015258789,Mon Mar 10 2025 15:31:09 GMT-0500 (Central Daylight Time),798086.1999999881,B,enter,O,enter,734,1,749.8000000119209,797336.3999999762,7076,WL,C,11.0
6,55.54900002479553,distr,4450.999975204468,Mon Mar 10 2025 15:31:09 GMT-0500 (Central Daylight Time),798319.5,B,enter,O,enter,227,1,233.0,798086.5,7076,WL,C,12.0
6,55.781999826431274,distr,4218.000173568726,Mon Mar 10 2025 15:31:09 GMT-0500 (Central Daylight Time),798552.1999999881,B,enter,O,enter,223,1,232.30000001192093,798319.8999999762,7076,WL,C,13.0
6,56.098999977111816,distr,3901.0000228881836,Mon Mar 10 2025 15:31:09 GMT-0500 (Central Daylight Time),798869.2999999523,B,enter,O,enter,313,1,316.7999999523163,798552.5,7076,WL,C,14.0
6,56.467000007629395,distr,3532.9999923706055,Mon Mar 10 2025 15:31:09 GMT-0500 (Central Daylight Time),799237.7999999523,B,enter,O,enter,364,1,368.19999998807907,798869.5999999642,7076,WL,C,15.0
7,1.2990000247955322,immed,58700.99997520447,Mon Mar 10 2025 15:31:09 GMT-0500 (Central Daylight Time),818513.3999999762,A,s,O,s,1283,1,1298.699999988079,817214.6999999881,7076,WL,C,1.0
7,1.4809999465942383,immed,58519.00005340576,Mon Mar 10 2025 15:31:09 GMT-0500 (Central Daylight Time),818695.7999999523,A,su,O,u,176,1,1481.0999999642372,817214.6999999881,7076,WL,C,1.0
7,1.8809998035430908,immed,58119.00019645691,Mon Mar 10 2025 15:31:09 GMT-0500 (Central Daylight Time),819095.8999999762,A,sug,O,g,380,1,1881.199999988079,817214.6999999881,7076,WL,C,1.0
7,2.0490000247955322,immed,57950.99997520447,Mon Mar 10 2025 15:31:09 GMT-0500 (Central Daylight Time),819263.1999999881,A,suga,O,a,149,1,2048.5,817214.6999999881,7076,WL,C,1.0
7,2.2159998416900635,immed,57784.00015830994,Mon Mar 10 2025 15:31:09 GMT-0500 (Central Daylight Time),819430.6999999881,A,sugar,O,r,161,1,2216.0,817214.6999999881,7076,WL,C,1.0
7,2.997999906539917,immed,57002.00009346008,Mon Mar 10 2025 15:31:09 GMT-0500 (Central Daylight Time),820212.7999999523,A,sugarenter,O,enter,769,1,2998.099999964237,817214.6999999881,7076,WL,C,1.0
7,3.497999906539917,immed,56502.00009346008,Mon Mar 10 2025 15:31:09 GMT-0500 (Central Daylight Time),820712.6999999881,A,t,O,t,490,1,499.69999998807907,820213.0,7076,WL,C,2.0
7,3.797999858856201,immed,56202.0001411438,Mon Mar 10 2025 15:31:09 GMT-0500 (Central Daylight Time),821012.2999999523,A,to,O,o,278,1,799.2999999523163,820213.0,7076,WL,C,2.0
7,3.9809999465942383,immed,56019.00005340576,Mon Mar 10 2025 15:31:09 GMT-0500 (Central Daylight Time),821195.5,A,tow,O,w,163,1,982.5,820213.0,7076,WL,C,2.0
7,4.0299999713897705,immed,55970.00002861023,Mon Mar 10 2025 15:31:09 GMT-0500 (Central Daylight Time),821244.7999999523,A,towe,O,e,36,1,1031.7999999523163,820213.0,7076,WL,C,2.0
7,4.332000017166138,immed,55667.99998283386,Mon Mar 10 2025 15:31:09 GMT-0500 (Central Daylight Time),821546.3999999762,A,tower,O,r,282,1,1333.3999999761581,820213.0,7076,WL,C,2.0
7,5.646999835968018,immed,54353.00016403198,Mon Mar 10 2025 15:31:09 GMT-0500 (Central Daylight Time),822861.7999999523,A,towerenter,O,enter,1302,1,2648.7999999523163,820213.0,7076,WL,C,2.0
7,6.21399998664856,immed,53786.00001335144,Mon Mar 10 2025 15:31:09 GMT-0500 (Central Daylight Time),823428.7999999523,A,w,O,w,545,1,566.7999999523163,822862.0,7076,WL,C,3.0
7,6.662999868392944,immed,53337.000131607056,Mon Mar 10 2025 15:31:09 GMT-0500 (Central Daylight Time),823877.1999999881,A,wh,O,h,434,1,1015.1999999880791,822862.0,7076,WL,C,3.0
7,6.846999883651733,immed,53153.00011634827,Mon Mar 10 2025 15:31:09 GMT-0500 (Central Daylight Time),824061.1999999881,A,whe,O,e,169,1,1199.199999988079,822862.0,7076,WL,C,3.0
7,6.94599986076355,immed,53054.00013923645,Mon Mar 10 2025 15:31:09 GMT-0500 (Central Daylight Time),824160.7999999523,A,whea,O,a,90,1,1298.7999999523163,822862.0,7076,WL,C,3.0
7,7.129999876022339,immed,52870.00012397766,Mon Mar 10 2025 15:31:09 GMT-0500 (Central Daylight Time),824344.3999999762,A,wheat,O,t,178,1,1482.3999999761581,822862.0,7076,WL,C,3.0
7,10.09499979019165,immed,49905.00020980835,Mon Mar 10 2025 15:31:09 GMT-0500 (Central Daylight Time),827309.5999999642,A,wheatenter,O,enter,2949,1,4447.599999964237,822862.0,7076,WL,C,3.0
7,18.043999910354614,immed,41956.000089645386,Mon Mar 10 2025 15:31:09 GMT-0500 (Central Daylight Time),835258.3999999762,A,c,O,c,7931,1,7948.600000023842,827309.7999999523,7076,WL,C,4.0
7,18.17799997329712,immed,41822.00002670288,Mon Mar 10 2025 15:31:09 GMT-0500 (Central Daylight Time),835392.0999999642,A,ca,O,a,126,1,8082.300000011921,827309.7999999523,7076,WL,C,4.0
7,19.425999879837036,immed,40574.000120162964,Mon Mar 10 2025 15:31:09 GMT-0500 (Central Daylight Time),836639.8999999762,A,cam,O,m,1228,1,9330.100000023842,827309.7999999523,7076,WL,C,4.0
7,20.05900001525879,immed,39940.99998474121,Mon Mar 10 2025 15:31:09 GMT-0500 (Central Daylight Time),837273.3999999762,A,camp,O,p,623,1,9963.600000023842,827309.7999999523,7076,WL,C,4.0
7,20.72599983215332,immed,39274.00016784668,Mon Mar 10 2025 15:31:09 GMT-0500 (Central Daylight Time),837941.0999999642,A,campenter,O,enter,654,1,10631.300000011921,827309.7999999523,7076,WL,C,4.0
7,21.625999927520752,immed,38374.00007247925,Mon Mar 10 2025 15:31:09 GMT-0500 (Central Daylight Time),838840.5,A,d,O,d,878,1,899.2000000476837,837941.2999999523,7076,WL,C,5.0
7,21.79099988937378,immed,38209.00011062622,Mon Mar 10 2025 15:31:09 GMT-0500 (Central Daylight Time),839006.0999999642,A,do,O,o,149,1,1064.800000011921,837941.2999999523,7076,WL,C,5.0
7,21.992999792099,immed,38007.000207901,Mon Mar 10 2025 15:31:09 GMT-0500 (Central Daylight Time),839207.3999999762,A,doc,O,c,187,1,1266.1000000238419,837941.2999999523,7076,WL,C,5.0
7,22.324999809265137,immed,37675.00019073486,Mon Mar 10 2025 15:31:09 GMT-0500 (Central Daylight Time),839540.0,A,doct,O,t,319,1,1598.7000000476837,837941.2999999523,7076,WL,C,5.0
7,22.592999935150146,immed,37407.00006484985,Mon Mar 10 2025 15:31:09 GMT-0500 (Central Daylight Time),839807.5999999642,A,docto,O,o,252,1,1866.300000011921,837941.2999999523,7076,WL,C,5.0
7,22.72499990463257,immed,37275.00009536743,Mon Mar 10 2025 15:31:09 GMT-0500 (Central Daylight Time),839939.7999999523,A,doctor,O,r,120,1,1998.5,837941.2999999523,7076,WL,C,5.0
7,23.307999849319458,immed,36692.00015068054,Mon Mar 10 2025 15:31:09 GMT-0500 (Central Daylight Time),840523.0999999642,A,doctorenter,O,enter,572,1,2581.800000011921,837941.2999999523,7076,WL,C,5.0
7,24.29099988937378,immed,35709.00011062622,Mon Mar 10 2025 15:31:09 GMT-0500 (Central Daylight Time),841505.5999999642,A,n,O,n,972,1,982.3000000119209,840523.2999999523,7076,WL,C,6.0
7,24.45899987220764,immed,35541.00012779236,Mon Mar 10 2025 15:31:09 GMT-0500 (Central Daylight Time),841673.2999999523,A,na,O,a,145,1,1150.0,840523.2999999523,7076,WL,C,6.0
7,24.607999801635742,immed,35392.00019836426,Mon Mar 10 2025 15:31:09 GMT-0500 (Central Daylight Time),841822.0999999642,A,nai,O,i,142,1,1298.800000011921,840523.2999999523,7076,WL,C,6.0
7,24.924000024795532,immed,35075.99997520447,Mon Mar 10 2025 15:31:09 GMT-0500 (Central Daylight Time),842138.8999999762,A,nail,O,l,295,1,1615.6000000238419,840523.2999999523,7076,WL,C,6.0
7,25.85699987411499,immed,34143.00012588501,Mon Mar 10 2025 15:31:09 GMT-0500 (Central Daylight Time),843071.5,A,nailenter,O,enter,923,1,2548.2000000476837,840523.2999999523,7076,WL,C,6.0
7,47.88499999046326,immed,12115.000009536743,Mon Mar 10 2025 15:31:09 GMT-0500 (Central Daylight Time),865099.5,A,n,O,n,22008,1,22027.700000047684,843071.7999999523,7076,WL,C,7.0
7,48.234999895095825,immed,11765.000104904175,Mon Mar 10 2025 15:31:09 GMT-0500 (Central Daylight Time),865449.5999999642,A,na,O,a,333,1,22377.80000001192,843071.7999999523,7076,WL,C,7.0
7,48.467000007629395,immed,11532.999992370605,Mon Mar 10 2025 15:31:09 GMT-0500 (Central Daylight Time),865681.1999999881,A,nai,O,i,215,1,22609.400000035763,843071.7999999523,7076,WL,C,7.0
7,48.85099983215332,immed,11149.00016784668,Mon Mar 10 2025 15:31:09 GMT-0500 (Central Daylight Time),866065.2999999523,A,naik,O,k,374,1,22993.5,843071.7999999523,7076,WL,C,7.0
7,49.43499994277954,immed,10565.000057220459,Mon Mar 10 2025 15:31:09 GMT-0500 (Central Daylight Time),866649.1999999881,A,nai,O,backspace,575,1,23577.400000035763,843071.7999999523,7076,WL,C,7.0
7,49.81599998474121,immed,10184.000015258789,Mon Mar 10 2025 15:31:09 GMT-0500 (Central Daylight Time),867030.8999999762,A,nail,O,l,362,1,23959.100000023842,843071.7999999523,7076,WL,C,7.0
7,50.58399987220764,immed,9416.000127792358,Mon Mar 10 2025 15:31:09 GMT-0500 (Central Daylight Time),867798.6999999881,A,nailenter,O,enter,760,1,24726.900000035763,843071.7999999523,7076,WL,C,7.0
7,52.23299980163574,immed,7767.000198364258,Mon Mar 10 2025 15:31:09 GMT-0500 (Central Daylight Time),869447.5999999642,A,m,O,m,1643,1,1648.3999999761581,867799.1999999881,7076,WL,C,8.0
7,52.33299994468689,immed,7667.00005531311,Mon Mar 10 2025 15:31:09 GMT-0500 (Central Daylight Time),869547.8999999762,A,mo,O,o,83,1,1748.699999988079,867799.1999999881,7076,WL,C,8.0
7,52.61699986457825,immed,7383.000135421753,Mon Mar 10 2025 15:31:09 GMT-0500 (Central Daylight Time),869831.6999999881,A,mon,O,n,263,1,2032.5,867799.1999999881,7076,WL,C,8.0
7,52.98299980163574,immed,7017.000198364258,Mon Mar 10 2025 15:31:09 GMT-0500 (Central Daylight Time),870197.1999999881,A,mone,O,e,343,1,2398.0,867799.1999999881,7076,WL,C,8.0
7,53.08200001716614,immed,6917.999982833862,Mon Mar 10 2025 15:31:09 GMT-0500 (Central Daylight Time),870296.5999999642,A,money,O,y,86,1,2497.399999976158,867799.1999999881,7076,WL,C,8.0
7,53.64800000190735,immed,6351.999998092651,Mon Mar 10 2025 15:31:09 GMT-0500 (Central Daylight Time),870862.7999999523,A,moneyenter,O,enter,547,1,3063.599999964237,867799.1999999881,7076,WL,C,8.0
7,60.01599979400635,immed,-15.999794006347656,Mon Mar 10 2025 15:31:09 GMT-0500 (Central Daylight Time),877230.5,A,None,O,None,6362,1,6367.400000035763,870863.0999999642,7076,WL,C,9.0
