block_c,block_dur,condition,countdown,datetime,endtime,list,multichar_response,project,response,response_time,session_number,start_end,starttime,subject_id,task,task_vers,trial
,,,,Wed Apr 02 2025 18:42:14 GMT-0500 (Central Daylight Time),,,,O,space,1345,1,,,7116,WL,A,
prac,,0,,Wed Apr 02 2025 18:42:14 GMT-0500 (Central Daylight Time),,NA,b,O,b,5289,1,,,7116,WL,A,1.0
prac,,0,,Wed Apr 02 2025 18:42:14 GMT-0500 (Central Daylight Time),,NA,bo,O,o,86,1,,,7116,WL,A,1.0
prac,,0,,Wed Apr 02 2025 18:42:14 GMT-0500 (Central Daylight Time),,NA,boo,O,o,165,1,,,7116,WL,A,1.0
prac,,0,,Wed Apr 02 2025 18:42:14 GMT-0500 (Central Daylight Time),,NA,boos,O,s,86,1,,,7116,WL,A,1.0
prac,,0,,Wed Apr 02 2025 18:42:14 GMT-0500 (Central Daylight Time),,NA,boost,O,t,343,1,,,7116,WL,A,1.0
prac,,0,,Wed Apr 02 2025 18:42:14 GMT-0500 (Central Daylight Time),,NA,boostenter,O,enter,1242,1,,,7116,WL,A,1.0
1,2.499000072479248,learn,57500.99992752075,Wed Apr 02 2025 18:42:14 GMT-0500 (Central Daylight Time),149241.80000001192,A,k,O,k,2460,1,2498.4000000059605,146743.40000000596,7116,WL,A,1.0
1,2.7309999465942383,learn,57269.00005340576,Wed Apr 02 2025 18:42:14 GMT-0500 (Central Daylight Time),149473.90000000596,A,ke,O,e,185,1,2730.5,146743.40000000596,7116,WL,A,1.0
1,2.8989999294281006,learn,57101.0000705719,Wed Apr 02 2025 18:42:14 GMT-0500 (Central Daylight Time),149641.80000001192,A,key,O,y,148,1,2898.4000000059605,146743.40000000596,7116,WL,A,1.0
1,5.2799999713897705,learn,54720.00002861023,Wed Apr 02 2025 18:42:14 GMT-0500 (Central Daylight Time),152022.80000001192,A,keyenter,O,enter,2350,1,5279.4000000059605,146743.40000000596,7116,WL,A,1.0
1,6.114000082015991,learn,53885.99991798401,Wed Apr 02 2025 18:42:14 GMT-0500 (Central Daylight Time),152857.0,A,r,O,r,813,1,833.7999999821186,152023.20000001788,7116,WL,A,2.0
1,6.296999931335449,learn,53703.00006866455,Wed Apr 02 2025 18:42:14 GMT-0500 (Central Daylight Time),153039.5,A,ra,O,a,148,1,1016.2999999821186,152023.20000001788,7116,WL,A,2.0
1,6.447999954223633,learn,53552.00004577637,Wed Apr 02 2025 18:42:14 GMT-0500 (Central Daylight Time),153190.30000001192,A,rat,O,t,125,1,1167.0999999940395,152023.20000001788,7116,WL,A,2.0
1,6.680999994277954,learn,53319.000005722046,Wed Apr 02 2025 18:42:14 GMT-0500 (Central Daylight Time),153423.5,A,ratt,O,t,192,1,1400.2999999821186,152023.20000001788,7116,WL,A,2.0
1,6.864000082015991,learn,53135.99991798401,Wed Apr 02 2025 18:42:14 GMT-0500 (Central Daylight Time),153606.5,A,rattl,O,l,155,1,1583.2999999821186,152023.20000001788,7116,WL,A,2.0
1,7.015000104904175,learn,52984.999895095825,Wed Apr 02 2025 18:42:14 GMT-0500 (Central Daylight Time),153757.30000001192,A,rattle,O,e,127,1,1734.0999999940395,152023.20000001788,7116,WL,A,2.0
1,7.713000059127808,learn,52286.99994087219,Wed Apr 02 2025 18:42:14 GMT-0500 (Central Daylight Time),154455.40000000596,A,rattleenter,O,enter,670,1,2432.199999988079,152023.20000001788,7116,WL,A,2.0
1,8.696000099182129,learn,51303.99990081787,Wed Apr 02 2025 18:42:14 GMT-0500 (Central Daylight Time),155439.30000001192,A,b,O,b,965,1,983.5,154455.80000001192,7116,WL,A,3.0
1,8.812999963760376,learn,51187.000036239624,Wed Apr 02 2025 18:42:14 GMT-0500 (Central Daylight Time),155555.90000000596,A,bo,O,o,83,1,1100.0999999940395,154455.80000001192,7116,WL,A,3.0
1,8.980000019073486,learn,51019.999980926514,Wed Apr 02 2025 18:42:14 GMT-0500 (Central Daylight Time),155722.30000001192,A,boo,O,o,141,1,1266.5,154455.80000001192,7116,WL,A,3.0
1,9.163000106811523,learn,50836.99989318848,Wed Apr 02 2025 18:42:14 GMT-0500 (Central Daylight Time),155905.59999999404,A,bood,O,d,143,1,1449.7999999821186,154455.80000001192,7116,WL,A,3.0
1,10.229000091552734,learn,49770.999908447266,Wed Apr 02 2025 18:42:14 GMT-0500 (Central Daylight Time),156972.09999999404,A,boo,O,backspace,1027,1,2516.2999999821186,154455.80000001192,7116,WL,A,3.0
1,10.911999940872192,learn,49088.00005912781,Wed Apr 02 2025 18:42:14 GMT-0500 (Central Daylight Time),157654.70000001788,A,book,O,k,641,1,3198.9000000059605,154455.80000001192,7116,WL,A,3.0
1,11.528000116348267,learn,48471.99988365173,Wed Apr 02 2025 18:42:14 GMT-0500 (Central Daylight Time),158270.90000000596,A,bookenter,O,enter,588,1,3815.0999999940395,154455.80000001192,7116,WL,A,3.0
1,12.328999996185303,learn,47671.0000038147,Wed Apr 02 2025 18:42:14 GMT-0500 (Central Daylight Time),159071.20000001788,A,f,O,f,790,1,800.1000000238419,158271.09999999404,7116,WL,A,4.0
1,12.460999965667725,learn,47539.000034332275,Wed Apr 02 2025 18:42:14 GMT-0500 (Central Daylight Time),159203.90000000596,A,fi,O,i,91,1,932.8000000119209,158271.09999999404,7116,WL,A,4.0
1,12.611999988555908,learn,47388.00001144409,Wed Apr 02 2025 18:42:14 GMT-0500 (Central Daylight Time),159354.5,A,fin,O,n,124,1,1083.4000000059605,158271.09999999404,7116,WL,A,4.0
1,12.76200008392334,learn,47237.99991607666,Wed Apr 02 2025 18:42:14 GMT-0500 (Central Daylight Time),159504.90000000596,A,fing,O,g,123,1,1233.800000011921,158271.09999999404,7116,WL,A,4.0
1,12.979000091552734,learn,47020.999908447266,Wed Apr 02 2025 18:42:14 GMT-0500 (Central Daylight Time),159721.40000000596,A,finge,O,e,182,1,1450.300000011921,158271.09999999404,7116,WL,A,4.0
1,13.044000148773193,learn,46955.99985122681,Wed Apr 02 2025 18:42:14 GMT-0500 (Central Daylight Time),159787.09999999404,A,finger,O,r,33,1,1516.0,158271.09999999404,7116,WL,A,4.0
1,13.776999950408936,learn,46223.000049591064,Wed Apr 02 2025 18:42:14 GMT-0500 (Central Daylight Time),160520.0,A,fingerenter,O,enter,720,1,2248.9000000059605,158271.09999999404,7116,WL,A,4.0
1,14.17799997329712,learn,45822.00002670288,Wed Apr 02 2025 18:42:14 GMT-0500 (Central Daylight Time),160921.09999999404,A,s,O,s,381,1,400.7999999821186,160520.30000001192,7116,WL,A,5.0
1,14.477999925613403,learn,45522.0000743866,Wed Apr 02 2025 18:42:14 GMT-0500 (Central Daylight Time),161221.0,A,sa,O,a,264,1,700.6999999880791,160520.30000001192,7116,WL,A,5.0
1,14.694999933242798,learn,45305.0000667572,Wed Apr 02 2025 18:42:14 GMT-0500 (Central Daylight Time),161437.5,A,sal,O,l,181,1,917.1999999880791,160520.30000001192,7116,WL,A,5.0
1,14.878000020980835,learn,45121.999979019165,Wed Apr 02 2025 18:42:14 GMT-0500 (Central Daylight Time),161620.80000001192,A,salt,O,t,152,1,1100.5,160520.30000001192,7116,WL,A,5.0
1,15.842999935150146,learn,44157.00006484985,Wed Apr 02 2025 18:42:14 GMT-0500 (Central Daylight Time),162586.09999999404,A,saltenter,O,enter,922,1,2065.7999999821186,160520.30000001192,7116,WL,A,5.0
1,16.344000101089478,learn,43655.99989891052,Wed Apr 02 2025 18:42:14 GMT-0500 (Central Daylight Time),163086.70000001788,A,a,O,a,491,1,500.2000000178814,162586.5,7116,WL,A,6.0
1,16.57800006866455,learn,43421.99993133545,Wed Apr 02 2025 18:42:14 GMT-0500 (Central Daylight Time),163320.30000001192,A,ap,O,p,200,1,733.8000000119209,162586.5,7116,WL,A,6.0
1,16.694999933242798,learn,43305.0000667572,Wed Apr 02 2025 18:42:14 GMT-0500 (Central Daylight Time),163437.30000001192,A,app,O,p,89,1,850.8000000119209,162586.5,7116,WL,A,6.0
1,16.960000038146973,learn,43039.99996185303,Wed Apr 02 2025 18:42:14 GMT-0500 (Central Daylight Time),163703.09999999404,A,appl,O,l,237,1,1116.5999999940395,162586.5,7116,WL,A,6.0
1,17.094000101089478,learn,42905.99989891052,Wed Apr 02 2025 18:42:14 GMT-0500 (Central Daylight Time),163836.59999999404,A,apple,O,e,85,1,1250.0999999940395,162586.5,7116,WL,A,6.0
1,17.759000062942505,learn,42240.999937057495,Wed Apr 02 2025 18:42:14 GMT-0500 (Central Daylight Time),164502.09999999404,A,appleenter,O,enter,632,1,1915.5999999940395,162586.5,7116,WL,A,6.0
1,18.460000038146973,learn,41539.99996185303,Wed Apr 02 2025 18:42:14 GMT-0500 (Central Daylight Time),165202.80000001192,A,c,O,c,687,1,700.3000000119209,164502.5,7116,WL,A,7.0
1,18.55999994277954,learn,41440.00005722046,Wed Apr 02 2025 18:42:14 GMT-0500 (Central Daylight Time),165302.5,A,ch,O,h,71,1,800.0,164502.5,7116,WL,A,7.0
1,18.8270001411438,learn,41172.9998588562,Wed Apr 02 2025 18:42:14 GMT-0500 (Central Daylight Time),165569.5,A,chi,O,i,237,1,1067.0,164502.5,7116,WL,A,7.0
1,19.009999990463257,learn,40990.00000953674,Wed Apr 02 2025 18:42:14 GMT-0500 (Central Daylight Time),165752.80000001192,A,chim,O,m,146,1,1250.300000011921,164502.5,7116,WL,A,7.0
1,19.259999990463257,learn,40740.00000953674,Wed Apr 02 2025 18:42:14 GMT-0500 (Central Daylight Time),166002.40000000596,A,chiml,O,l,212,1,1499.9000000059605,164502.5,7116,WL,A,7.0
1,19.677000045776367,learn,40322.99995422363,Wed Apr 02 2025 18:42:14 GMT-0500 (Central Daylight Time),166419.20000001788,A,chim,O,backspace,374,1,1916.7000000178814,164502.5,7116,WL,A,7.0
1,19.960000038146973,learn,40039.99996185303,Wed Apr 02 2025 18:42:14 GMT-0500 (Central Daylight Time),166702.40000000596,A,chimn,O,n,247,1,2199.9000000059605,164502.5,7116,WL,A,7.0
1,20.05900001525879,learn,39940.99998474121,Wed Apr 02 2025 18:42:14 GMT-0500 (Central Daylight Time),166802.0,A,chimne,O,e,67,1,2299.5,164502.5,7116,WL,A,7.0
1,20.375999927520752,learn,39624.00007247925,Wed Apr 02 2025 18:42:14 GMT-0500 (Central Daylight Time),167118.5,A,chimney,O,y,289,1,2616.0,164502.5,7116,WL,A,7.0
1,21.092000007629395,learn,38907.999992370605,Wed Apr 02 2025 18:42:14 GMT-0500 (Central Daylight Time),167834.30000001192,A,chimneyenter,O,enter,682,1,3331.800000011921,164502.5,7116,WL,A,7.0
1,22.192000150680542,learn,37807.99984931946,Wed Apr 02 2025 18:42:14 GMT-0500 (Central Daylight Time),168934.70000001788,A,b,O,b,1091,1,1100.0,167834.70000001788,7116,WL,A,8.0
1,22.29100012779236,learn,37708.99987220764,Wed Apr 02 2025 18:42:14 GMT-0500 (Central Daylight Time),169033.90000000596,A,bu,O,u,57,1,1199.199999988079,167834.70000001788,7116,WL,A,8.0
1,22.475000143051147,learn,37524.99985694885,Wed Apr 02 2025 18:42:14 GMT-0500 (Central Daylight Time),169218.09999999404,A,but,O,t,158,1,1383.3999999761581,167834.70000001788,7116,WL,A,8.0
1,22.674000024795532,learn,37325.99997520447,Wed Apr 02 2025 18:42:14 GMT-0500 (Central Daylight Time),169417.0,A,butt,O,t,165,1,1582.2999999821186,167834.70000001788,7116,WL,A,8.0
1,22.7739999294281,learn,37226.0000705719,Wed Apr 02 2025 18:42:14 GMT-0500 (Central Daylight Time),169516.90000000596,A,butto,O,o,88,1,1682.199999988079,167834.70000001788,7116,WL,A,8.0
1,22.89199995994568,learn,37108.00004005432,Wed Apr 02 2025 18:42:14 GMT-0500 (Central Daylight Time),169634.70000001788,A,button,O,n,104,1,1800.0,167834.70000001788,7116,WL,A,8.0
1,23.85700011253357,learn,36142.99988746643,Wed Apr 02 2025 18:42:14 GMT-0500 (Central Daylight Time),170600.09999999404,A,buttonenter,O,enter,943,1,2765.399999976158,167834.70000001788,7116,WL,A,8.0
1,24.841000080108643,learn,35158.99991989136,Wed Apr 02 2025 18:42:14 GMT-0500 (Central Daylight Time),171583.80000001192,A,t,O,t,973,1,983.3000000119209,170600.5,7116,WL,A,9.0
1,25.058000087738037,learn,34941.99991226196,Wed Apr 02 2025 18:42:14 GMT-0500 (Central Daylight Time),171800.80000001192,A,tr,O,r,176,1,1200.300000011921,170600.5,7116,WL,A,9.0
1,25.223999977111816,learn,34776.00002288818,Wed Apr 02 2025 18:42:14 GMT-0500 (Central Daylight Time),171966.30000001192,A,trs,O,s,136,1,1365.800000011921,170600.5,7116,WL,A,9.0
1,25.424999952316284,learn,34575.000047683716,Wed Apr 02 2025 18:42:14 GMT-0500 (Central Daylight Time),172167.30000001192,A,trsi,O,i,180,1,1566.800000011921,170600.5,7116,WL,A,9.0
1,25.558000087738037,learn,34441.99991226196,Wed Apr 02 2025 18:42:14 GMT-0500 (Central Daylight Time),172301.09999999404,A,trsin,O,n,106,1,1700.5999999940395,170600.5,7116,WL,A,9.0
1,25.875,learn,34125.0,Wed Apr 02 2025 18:42:14 GMT-0500 (Central Daylight Time),172617.20000001788,A,trsi,O,backspace,276,1,2016.7000000178814,170600.5,7116,WL,A,9.0
1,26.04100012779236,learn,33958.99987220764,Wed Apr 02 2025 18:42:14 GMT-0500 (Central Daylight Time),172783.90000000596,A,trs,O,backspace,127,1,2183.4000000059605,170600.5,7116,WL,A,9.0
1,26.207000017166138,learn,33792.99998283386,Wed Apr 02 2025 18:42:14 GMT-0500 (Central Daylight Time),172950.09999999404,A,tr,O,backspace,136,1,2349.5999999940395,170600.5,7116,WL,A,9.0
1,26.391000032424927,learn,33608.99996757507,Wed Apr 02 2025 18:42:14 GMT-0500 (Central Daylight Time),173133.59999999404,A,tra,O,a,157,1,2533.0999999940395,170600.5,7116,WL,A,9.0
1,26.657999992370605,learn,33342.000007629395,Wed Apr 02 2025 18:42:14 GMT-0500 (Central Daylight Time),173400.20000001788,A,trai,O,i,231,1,2799.7000000178814,170600.5,7116,WL,A,9.0
1,26.740000009536743,learn,33259.99999046326,Wed Apr 02 2025 18:42:14 GMT-0500 (Central Daylight Time),173482.5,A,train,O,n,50,1,2882.0,170600.5,7116,WL,A,9.0
1,27.473000049591064,learn,32526.999950408936,Wed Apr 02 2025 18:42:14 GMT-0500 (Central Daylight Time),174215.59999999404,A,trainenter,O,enter,702,1,3615.0999999940395,170600.5,7116,WL,A,9.0
1,29.44000005722046,learn,30559.99994277954,Wed Apr 02 2025 18:42:14 GMT-0500 (Central Daylight Time),176182.40000000596,A,m,O,m,1958,1,1966.5,174215.90000000596,7116,WL,A,10.0
1,29.572999954223633,learn,30427.000045776367,Wed Apr 02 2025 18:42:14 GMT-0500 (Central Daylight Time),176315.09999999404,A,me,O,e,90,1,2099.199999988079,174215.90000000596,7116,WL,A,10.0
1,29.723000049591064,learn,30276.999950408936,Wed Apr 02 2025 18:42:14 GMT-0500 (Central Daylight Time),176465.5,A,mea,O,a,131,1,2249.5999999940395,174215.90000000596,7116,WL,A,10.0
1,30.09000015258789,learn,29909.99984741211,Wed Apr 02 2025 18:42:14 GMT-0500 (Central Daylight Time),176832.40000000596,A,mead,O,d,340,1,2616.5,174215.90000000596,7116,WL,A,10.0
1,30.29200005531311,learn,29707.99994468689,Wed Apr 02 2025 18:42:14 GMT-0500 (Central Daylight Time),177032.5,A,meado,O,o,169,1,2816.5999999940395,174215.90000000596,7116,WL,A,10.0
1,30.55900001525879,learn,29440.99998474121,Wed Apr 02 2025 18:42:14 GMT-0500 (Central Daylight Time),177299.0,A,meadow,O,w,228,1,3083.0999999940395,174215.90000000596,7116,WL,A,10.0
1,31.374000072479248,learn,28625.999927520752,Wed Apr 02 2025 18:42:14 GMT-0500 (Central Daylight Time),178114.30000001192,A,meadowenter,O,enter,782,1,3898.4000000059605,174215.90000000596,7116,WL,A,10.0
1,34.04100012779236,learn,25958.99987220764,Wed Apr 02 2025 18:42:14 GMT-0500 (Central Daylight Time),180781.09999999404,A,r,O,r,2644,1,2666.5,178114.59999999404,7116,WL,A,11.0
1,34.17400002479553,learn,25825.999975204468,Wed Apr 02 2025 18:42:14 GMT-0500 (Central Daylight Time),180913.90000000596,A,ru,O,u,91,1,2799.300000011921,178114.59999999404,7116,WL,A,11.0
1,34.740999937057495,learn,25259.000062942505,Wed Apr 02 2025 18:42:14 GMT-0500 (Central Daylight Time),181480.90000000596,A,rug,O,g,539,1,3366.300000011921,178114.59999999404,7116,WL,A,11.0
1,35.638999938964844,learn,24361.000061035156,Wed Apr 02 2025 18:42:14 GMT-0500 (Central Daylight Time),182379.5,A,rugenter,O,enter,856,1,4264.9000000059605,178114.59999999404,7116,WL,A,11.0
1,37.623000144958496,learn,22376.999855041504,Wed Apr 02 2025 18:42:14 GMT-0500 (Central Daylight Time),184362.90000000596,A,f,O,f,1970,1,1983.0999999940395,182379.80000001192,7116,WL,A,12.0
1,38.23900008201599,learn,21760.99991798401,Wed Apr 02 2025 18:42:14 GMT-0500 (Central Daylight Time),184979.59999999404,A,fl,O,l,590,1,2599.7999999821186,182379.80000001192,7116,WL,A,12.0
1,38.473000049591064,learn,21526.999950408936,Wed Apr 02 2025 18:42:14 GMT-0500 (Central Daylight Time),185213.59999999404,A,flo,O,o,213,1,2833.7999999821186,182379.80000001192,7116,WL,A,12.0
1,38.57200002670288,learn,21427.99997329712,Wed Apr 02 2025 18:42:14 GMT-0500 (Central Daylight Time),185311.90000000596,A,flow,O,w,68,1,2932.0999999940395,182379.80000001192,7116,WL,A,12.0
1,38.7720000743866,learn,21227.999925613403,Wed Apr 02 2025 18:42:14 GMT-0500 (Central Daylight Time),185512.0,A,flowe,O,e,188,1,3132.199999988079,182379.80000001192,7116,WL,A,12.0
1,38.890000104904175,learn,21109.999895095825,Wed Apr 02 2025 18:42:14 GMT-0500 (Central Daylight Time),185629.70000001788,A,flower,O,r,96,1,3249.9000000059605,182379.80000001192,7116,WL,A,12.0
1,39.90400004386902,learn,20095.99995613098,Wed Apr 02 2025 18:42:14 GMT-0500 (Central Daylight Time),186644.59999999404,A,flowerenter,O,enter,980,1,4264.799999982119,182379.80000001192,7116,WL,A,12.0
1,46.085999965667725,learn,13914.000034332275,Wed Apr 02 2025 18:42:14 GMT-0500 (Central Daylight Time),192826.20000001788,A,s,O,s,6168,1,6181.300000011921,186644.90000000596,7116,WL,A,13.0
1,46.30200004577637,learn,13697.999954223633,Wed Apr 02 2025 18:42:14 GMT-0500 (Central Daylight Time),193042.59999999404,A,sa,O,a,202,1,6397.699999988079,186644.90000000596,7116,WL,A,13.0
1,46.61899995803833,learn,13381.00004196167,Wed Apr 02 2025 18:42:14 GMT-0500 (Central Daylight Time),193359.09999999404,A,sal,O,l,297,1,6714.199999988079,186644.90000000596,7116,WL,A,13.0
1,46.8529999256134,learn,13147.000074386597,Wed Apr 02 2025 18:42:14 GMT-0500 (Central Daylight Time),193592.70000001788,A,salt,O,t,220,1,6947.800000011921,186644.90000000596,7116,WL,A,13.0
1,47.46900010108948,learn,12530.999898910522,Wed Apr 02 2025 18:42:14 GMT-0500 (Central Daylight Time),194209.0,A,saltenter,O,enter,587,1,7564.0999999940395,186644.90000000596,7116,WL,A,13.0
1,50.50200009346008,learn,9497.999906539917,Wed Apr 02 2025 18:42:14 GMT-0500 (Central Daylight Time),197242.5,A,a,O,a,3012,1,3033.199999988079,194209.30000001192,7116,WL,A,14.0
1,50.651999950408936,learn,9348.000049591064,Wed Apr 02 2025 18:42:14 GMT-0500 (Central Daylight Time),197392.40000000596,A,ap,O,p,111,1,3183.0999999940395,194209.30000001192,7116,WL,A,14.0
1,50.78500008583069,learn,9214.999914169312,Wed Apr 02 2025 18:42:14 GMT-0500 (Central Daylight Time),197525.40000000596,A,app,O,p,106,1,3316.0999999940395,194209.30000001192,7116,WL,A,14.0
1,51.08500003814697,learn,8914.999961853027,Wed Apr 02 2025 18:42:14 GMT-0500 (Central Daylight Time),197825.70000001788,A,appl,O,l,265,1,3616.4000000059605,194209.30000001192,7116,WL,A,14.0
1,51.46799993515015,learn,8532.000064849854,Wed Apr 02 2025 18:42:14 GMT-0500 (Central Daylight Time),198208.70000001788,A,apple,O,e,357,1,3999.4000000059605,194209.30000001192,7116,WL,A,14.0
1,52.1010000705719,learn,7898.999929428101,Wed Apr 02 2025 18:42:14 GMT-0500 (Central Daylight Time),198840.80000001192,A,appleenter,O,enter,600,1,4631.5,194209.30000001192,7116,WL,A,14.0
1,60.01600003242493,learn,-16.000032424926758,Wed Apr 02 2025 18:42:14 GMT-0500 (Central Daylight Time),206755.90000000596,A,None,O,None,7908,1,7914.800000011921,198841.09999999404,7116,WL,A,15.0
2,1.8329999446868896,learn,58167.00005531311,Wed Apr 02 2025 18:42:14 GMT-0500 (Central Daylight Time),278698.90000000596,A,g,O,g,1794,1,1832.199999988079,276866.7000000179,7116,WL,A,1.0
2,1.931999921798706,learn,58068.000078201294,Wed Apr 02 2025 18:42:14 GMT-0500 (Central Daylight Time),278798.40000000596,A,go,O,o,64,1,1931.699999988079,276866.7000000179,7116,WL,A,1.0
2,2.200000047683716,learn,57799.999952316284,Wed Apr 02 2025 18:42:14 GMT-0500 (Central Daylight Time),279065.59999999404,A,god,O,d,243,1,2198.899999976158,276866.7000000179,7116,WL,A,1.0
2,2.999000072479248,learn,57000.99992752075,Wed Apr 02 2025 18:42:14 GMT-0500 (Central Daylight Time),279865.3000000119,A,go,O,backspace,773,1,2998.5999999940395,276866.7000000179,7116,WL,A,1.0
2,3.2990000247955322,learn,56700.99997520447,Wed Apr 02 2025 18:42:14 GMT-0500 (Central Daylight Time),280165.3000000119,A,gol,O,l,263,1,3298.5999999940395,276866.7000000179,7116,WL,A,1.0
2,3.4660000801086426,learn,56533.99991989136,Wed Apr 02 2025 18:42:14 GMT-0500 (Central Daylight Time),280332.3000000119,A,gold,O,d,133,1,3465.5999999940395,276866.7000000179,7116,WL,A,1.0
2,4.430999994277954,learn,55569.000005722046,Wed Apr 02 2025 18:42:14 GMT-0500 (Central Daylight Time),281297.09999999404,A,goldenter,O,enter,924,1,4430.399999976158,276866.7000000179,7116,WL,A,1.0
2,4.898999929428101,learn,55101.0000705719,Wed Apr 02 2025 18:42:14 GMT-0500 (Central Daylight Time),281764.90000000596,A,k,O,k,453,1,467.5,281297.40000000596,7116,WL,A,2.0
2,5.049000024795532,learn,54950.99997520447,Wed Apr 02 2025 18:42:14 GMT-0500 (Central Daylight Time),281915.0,A,ke,O,e,120,1,617.5999999940395,281297.40000000596,7116,WL,A,2.0
2,5.2820000648498535,learn,54717.99993515015,Wed Apr 02 2025 18:42:14 GMT-0500 (Central Daylight Time),282147.90000000596,A,key,O,y,194,1,850.5,281297.40000000596,7116,WL,A,2.0
2,6.114000082015991,learn,53885.99991798401,Wed Apr 02 2025 18:42:14 GMT-0500 (Central Daylight Time),282979.8000000119,A,keyenter,O,enter,798,1,1682.4000000059605,281297.40000000596,7116,WL,A,2.0
2,6.565000057220459,learn,53434.99994277954,Wed Apr 02 2025 18:42:14 GMT-0500 (Central Daylight Time),283430.7000000179,A,r,O,r,434,1,450.5,282980.2000000179,7116,WL,A,3.0
2,6.747999906539917,learn,53252.00009346008,Wed Apr 02 2025 18:42:14 GMT-0500 (Central Daylight Time),283613.8000000119,A,ra,O,a,148,1,633.5999999940395,282980.2000000179,7116,WL,A,3.0
2,6.931999921798706,learn,53068.000078201294,Wed Apr 02 2025 18:42:14 GMT-0500 (Central Daylight Time),283797.8000000119,A,rat,O,t,158,1,817.5999999940395,282980.2000000179,7116,WL,A,3.0
2,7.164999961853027,learn,52835.00003814697,Wed Apr 02 2025 18:42:14 GMT-0500 (Central Daylight Time),284030.8000000119,A,ratt,O,t,197,1,1050.5999999940395,282980.2000000179,7116,WL,A,3.0
2,7.29800009727478,learn,52701.99990272522,Wed Apr 02 2025 18:42:14 GMT-0500 (Central Daylight Time),284163.90000000596,A,rattl,O,l,91,1,1183.699999988079,282980.2000000179,7116,WL,A,3.0
2,7.447999954223633,learn,52552.00004577637,Wed Apr 02 2025 18:42:14 GMT-0500 (Central Daylight Time),284313.59999999404,A,rattle,O,e,112,1,1333.3999999761581,282980.2000000179,7116,WL,A,3.0
2,8.11299991607666,learn,51887.00008392334,Wed Apr 02 2025 18:42:14 GMT-0500 (Central Daylight Time),284979.2000000179,A,rattleenter,O,enter,626,1,1999.0,282980.2000000179,7116,WL,A,3.0
2,8.680999994277954,learn,51319.000005722046,Wed Apr 02 2025 18:42:14 GMT-0500 (Central Daylight Time),285546.59999999404,A,l,O,l,547,1,567.1999999880791,284979.40000000596,7116,WL,A,4.0
2,8.847000122070312,learn,51152.99987792969,Wed Apr 02 2025 18:42:14 GMT-0500 (Central Daylight Time),285713.09999999404,A,lo,O,o,140,1,733.6999999880791,284979.40000000596,7116,WL,A,4.0
2,9.064000129699707,learn,50935.99987030029,Wed Apr 02 2025 18:42:14 GMT-0500 (Central Daylight Time),285930.0,A,log,O,g,182,1,950.5999999940395,284979.40000000596,7116,WL,A,4.0
2,9.77999997138977,learn,50220.00002861023,Wed Apr 02 2025 18:42:14 GMT-0500 (Central Daylight Time),286645.3000000119,A,logenter,O,enter,688,1,1665.9000000059605,284979.40000000596,7116,WL,A,4.0
2,10.44700002670288,learn,49552.99997329712,Wed Apr 02 2025 18:42:14 GMT-0500 (Central Daylight Time),287312.8000000119,A,b,O,b,650,1,667.3000000119209,286645.5,7116,WL,A,5.0
2,10.630000114440918,learn,49369.99988555908,Wed Apr 02 2025 18:42:14 GMT-0500 (Central Daylight Time),287496.0,A,bu,O,u,155,1,850.5,286645.5,7116,WL,A,5.0
2,10.880000114440918,learn,49119.99988555908,Wed Apr 02 2025 18:42:14 GMT-0500 (Central Daylight Time),287745.8000000119,A,but,O,t,215,1,1100.300000011921,286645.5,7116,WL,A,5.0
2,11.062999963760376,learn,48937.000036239624,Wed Apr 02 2025 18:42:14 GMT-0500 (Central Daylight Time),287929.3000000119,A,butt,O,t,145,1,1283.800000011921,286645.5,7116,WL,A,5.0
2,11.163000106811523,learn,48836.99989318848,Wed Apr 02 2025 18:42:14 GMT-0500 (Central Daylight Time),288028.90000000596,A,butto,O,o,72,1,1383.4000000059605,286645.5,7116,WL,A,5.0
2,11.413000106811523,learn,48586.99989318848,Wed Apr 02 2025 18:42:14 GMT-0500 (Central Daylight Time),288279.2000000179,A,button,O,n,222,1,1633.7000000178814,286645.5,7116,WL,A,5.0
2,12.178999900817871,learn,47821.00009918213,Wed Apr 02 2025 18:42:14 GMT-0500 (Central Daylight Time),289044.59999999404,A,buttonenter,O,enter,734,1,2399.0999999940395,286645.5,7116,WL,A,5.0
2,13.229000091552734,learn,46770.999908447266,Wed Apr 02 2025 18:42:14 GMT-0500 (Central Daylight Time),290095.0,A,f,O,f,1041,1,1050.0999999940395,289044.90000000596,7116,WL,A,6.0
2,13.345999956130981,learn,46654.00004386902,Wed Apr 02 2025 18:42:14 GMT-0500 (Central Daylight Time),290211.7000000179,A,fi,O,i,75,1,1166.800000011921,289044.90000000596,7116,WL,A,6.0
2,13.51200008392334,learn,46487.99991607666,Wed Apr 02 2025 18:42:14 GMT-0500 (Central Daylight Time),290378.2000000179,A,fin,O,n,135,1,1333.300000011921,289044.90000000596,7116,WL,A,6.0
2,13.59500002861023,learn,46404.99997138977,Wed Apr 02 2025 18:42:14 GMT-0500 (Central Daylight Time),290460.8000000119,A,fing,O,g,50,1,1415.9000000059605,289044.90000000596,7116,WL,A,6.0
2,13.861999988555908,learn,46138.00001144409,Wed Apr 02 2025 18:42:14 GMT-0500 (Central Daylight Time),290728.2000000179,A,finge,O,e,247,1,1683.300000011921,289044.90000000596,7116,WL,A,6.0
2,13.92799997329712,learn,46072.00002670288,Wed Apr 02 2025 18:42:14 GMT-0500 (Central Daylight Time),290794.09999999404,A,finger,O,r,33,1,1749.199999988079,289044.90000000596,7116,WL,A,6.0
2,14.694999933242798,learn,45305.0000667572,Wed Apr 02 2025 18:42:14 GMT-0500 (Central Daylight Time),291560.40000000596,A,fingerenter,O,enter,753,1,2515.5,289044.90000000596,7116,WL,A,6.0
2,15.061000108718872,learn,44938.99989128113,Wed Apr 02 2025 18:42:14 GMT-0500 (Central Daylight Time),291926.8000000119,A,a,O,a,349,1,366.09999999403954,291560.7000000179,7116,WL,A,7.0
2,15.210999965667725,learn,44789.000034332275,Wed Apr 02 2025 18:42:14 GMT-0500 (Central Daylight Time),292076.90000000596,A,ap,O,p,142,1,516.1999999880791,291560.7000000179,7116,WL,A,7.0
2,15.394999980926514,learn,44605.000019073486,Wed Apr 02 2025 18:42:14 GMT-0500 (Central Daylight Time),292261.2000000179,A,app,O,p,168,1,700.5,291560.7000000179,7116,WL,A,7.0
2,15.67799997329712,learn,44322.00002670288,Wed Apr 02 2025 18:42:14 GMT-0500 (Central Daylight Time),292543.59999999404,A,appl,O,l,254,1,982.8999999761581,291560.7000000179,7116,WL,A,7.0
2,15.776999950408936,learn,44223.000049591064,Wed Apr 02 2025 18:42:14 GMT-0500 (Central Daylight Time),292643.2000000179,A,apple,O,e,71,1,1082.5,291560.7000000179,7116,WL,A,7.0
2,16.594000101089478,learn,43405.99989891052,Wed Apr 02 2025 18:42:14 GMT-0500 (Central Daylight Time),293459.7000000179,A,appleenter,O,enter,801,1,1899.0,291560.7000000179,7116,WL,A,7.0
2,17.17799997329712,learn,42822.00002670288,Wed Apr 02 2025 18:42:14 GMT-0500 (Central Daylight Time),294043.90000000596,A,s,O,s,562,1,583.9000000059605,293460.0,7116,WL,A,8.0
2,17.42799997329712,learn,42572.00002670288,Wed Apr 02 2025 18:42:14 GMT-0500 (Central Daylight Time),294293.90000000596,A,ss,O,s,223,1,833.9000000059605,293460.0,7116,WL,A,8.0
2,17.694999933242798,learn,42305.0000667572,Wed Apr 02 2025 18:42:14 GMT-0500 (Central Daylight Time),294560.40000000596,A,ssa,O,a,228,1,1100.4000000059605,293460.0,7116,WL,A,8.0
2,18.028000116348267,learn,41971.99988365173,Wed Apr 02 2025 18:42:14 GMT-0500 (Central Daylight Time),294893.7000000179,A,ss,O,backspace,297,1,1433.7000000178814,293460.0,7116,WL,A,8.0
2,18.210999965667725,learn,41789.000034332275,Wed Apr 02 2025 18:42:14 GMT-0500 (Central Daylight Time),295076.90000000596,A,s,O,backspace,140,1,1616.9000000059605,293460.0,7116,WL,A,8.0
2,18.344000101089478,learn,41655.99989891052,Wed Apr 02 2025 18:42:14 GMT-0500 (Central Daylight Time),295210.09999999404,A,sa,O,a,102,1,1750.0999999940395,293460.0,7116,WL,A,8.0
2,18.543999910354614,learn,41456.000089645386,Wed Apr 02 2025 18:42:14 GMT-0500 (Central Daylight Time),295410.0,A,sal,O,l,167,1,1950.0,293460.0,7116,WL,A,8.0
2,18.844000101089478,learn,41155.99989891052,Wed Apr 02 2025 18:42:14 GMT-0500 (Central Daylight Time),295710.09999999404,A,salt,O,t,265,1,2250.0999999940395,293460.0,7116,WL,A,8.0
2,19.592999935150146,learn,40407.00006484985,Wed Apr 02 2025 18:42:14 GMT-0500 (Central Daylight Time),296458.8000000119,A,saltenter,O,enter,716,1,2998.800000011921,293460.0,7116,WL,A,8.0
2,20.229000091552734,learn,39770.999908447266,Wed Apr 02 2025 18:42:14 GMT-0500 (Central Daylight Time),297092.3000000119,A,b,O,b,611,1,633.0999999940395,296459.2000000179,7116,WL,A,9.0
2,20.36299991607666,learn,39637.00008392334,Wed Apr 02 2025 18:42:14 GMT-0500 (Central Daylight Time),297226.3000000119,A,bu,O,u,105,1,767.0999999940395,296459.2000000179,7116,WL,A,9.0
2,20.546000003814697,learn,39453.9999961853,Wed Apr 02 2025 18:42:14 GMT-0500 (Central Daylight Time),297409.5,A,but,O,t,154,1,950.2999999821186,296459.2000000179,7116,WL,A,9.0
2,20.746000051498413,learn,39253.99994850159,Wed Apr 02 2025 18:42:14 GMT-0500 (Central Daylight Time),297609.3000000119,A,butt,O,t,160,1,1150.0999999940395,296459.2000000179,7116,WL,A,9.0
2,20.84599995613098,learn,39154.00004386902,Wed Apr 02 2025 18:42:14 GMT-0500 (Central Daylight Time),297709.3000000119,A,butto,O,o,66,1,1250.0999999940395,296459.2000000179,7116,WL,A,9.0
2,21.062999963760376,learn,38937.000036239624,Wed Apr 02 2025 18:42:14 GMT-0500 (Central Daylight Time),297926.09999999404,A,button,O,n,182,1,1466.8999999761581,296459.2000000179,7116,WL,A,9.0
2,21.694999933242798,learn,38305.0000667572,Wed Apr 02 2025 18:42:14 GMT-0500 (Central Daylight Time),298558.2000000179,A,buttonenter,O,enter,596,1,2099.0,296459.2000000179,7116,WL,A,9.0
2,22.09500002861023,learn,37904.99997138977,Wed Apr 02 2025 18:42:14 GMT-0500 (Central Daylight Time),298958.7000000179,A,t,O,t,391,1,400.30000001192093,298558.40000000596,7116,WL,A,10.0
2,22.312000036239624,learn,37687.999963760376,Wed Apr 02 2025 18:42:14 GMT-0500 (Central Daylight Time),299175.7000000179,A,tr,O,r,194,1,617.3000000119209,298558.40000000596,7116,WL,A,10.0
2,22.51200008392334,learn,37487.99991607666,Wed Apr 02 2025 18:42:14 GMT-0500 (Central Daylight Time),299375.5,A,tra,O,a,171,1,817.0999999940395,298558.40000000596,7116,WL,A,10.0
2,22.812000036239624,learn,37187.999963760376,Wed Apr 02 2025 18:42:14 GMT-0500 (Central Daylight Time),299675.2000000179,A,trai,O,i,263,1,1116.800000011921,298558.40000000596,7116,WL,A,10.0
2,22.92899990081787,learn,37071.00009918213,Wed Apr 02 2025 18:42:14 GMT-0500 (Central Daylight Time),299792.09999999404,A,train,O,n,90,1,1233.699999988079,298558.40000000596,7116,WL,A,10.0
2,23.51099991798401,learn,36489.00008201599,Wed Apr 02 2025 18:42:14 GMT-0500 (Central Daylight Time),300374.09999999404,A,trainenter,O,enter,547,1,1815.699999988079,298558.40000000596,7116,WL,A,10.0
2,24.043999910354614,learn,35956.000089645386,Wed Apr 02 2025 18:42:14 GMT-0500 (Central Daylight Time),300907.2000000179,A,f,O,f,518,1,532.7000000178814,300374.5,7116,WL,A,11.0
2,24.24399995803833,learn,35756.00004196167,Wed Apr 02 2025 18:42:14 GMT-0500 (Central Daylight Time),301107.2000000179,A,fl,O,l,176,1,732.7000000178814,300374.5,7116,WL,A,11.0
2,24.460999965667725,learn,35539.000034332275,Wed Apr 02 2025 18:42:14 GMT-0500 (Central Daylight Time),301324.7000000179,A,flo,O,o,194,1,950.2000000178814,300374.5,7116,WL,A,11.0
2,24.543999910354614,learn,35456.000089645386,Wed Apr 02 2025 18:42:14 GMT-0500 (Central Daylight Time),301407.40000000596,A,flow,O,w,56,1,1032.9000000059605,300374.5,7116,WL,A,11.0
2,24.80999994277954,learn,35190.00005722046,Wed Apr 02 2025 18:42:14 GMT-0500 (Central Daylight Time),301673.8000000119,A,flowe,O,e,248,1,1299.300000011921,300374.5,7116,WL,A,11.0
2,24.91100001335144,learn,35088.99998664856,Wed Apr 02 2025 18:42:14 GMT-0500 (Central Daylight Time),301774.8000000119,A,flower,O,r,89,1,1400.300000011921,300374.5,7116,WL,A,11.0
2,25.776999950408936,learn,34223.000049591064,Wed Apr 02 2025 18:42:14 GMT-0500 (Central Daylight Time),302640.0,A,flowerenter,O,enter,830,1,2265.5,300374.5,7116,WL,A,11.0
2,26.960000038146973,learn,33039.99996185303,Wed Apr 02 2025 18:42:14 GMT-0500 (Central Daylight Time),303823.0,A,g,O,g,1164,1,1182.5999999940395,302640.40000000596,7116,WL,A,12.0
2,27.30900001525879,learn,32690.99998474121,Wed Apr 02 2025 18:42:14 GMT-0500 (Central Daylight Time),304172.8000000119,A,go,O,o,333,1,1532.4000000059605,302640.40000000596,7116,WL,A,12.0
2,27.97699999809265,learn,32023.00000190735,Wed Apr 02 2025 18:42:14 GMT-0500 (Central Daylight Time),304840.59999999404,A,gol,O,l,648,1,2200.199999988079,302640.40000000596,7116,WL,A,12.0
2,28.109999895095825,learn,31890.000104904175,Wed Apr 02 2025 18:42:14 GMT-0500 (Central Daylight Time),304973.09999999404,A,gold,O,d,98,1,2332.699999988079,302640.40000000596,7116,WL,A,12.0
2,29.026000022888184,learn,30973.999977111816,Wed Apr 02 2025 18:42:14 GMT-0500 (Central Daylight Time),305889.09999999404,A,goldenter,O,enter,896,1,3248.699999988079,302640.40000000596,7116,WL,A,12.0
2,31.54200005531311,learn,28457.99994468689,Wed Apr 02 2025 18:42:14 GMT-0500 (Central Daylight Time),308405.59999999404,A,r,O,r,2502,1,2516.2999999821186,305889.3000000119,7116,WL,A,13.0
2,31.742000102996826,learn,28257.999897003174,Wed Apr 02 2025 18:42:14 GMT-0500 (Central Daylight Time),308605.90000000596,A,ru,O,u,168,1,2716.5999999940395,305889.3000000119,7116,WL,A,13.0
2,32.10899996757507,learn,27891.000032424927,Wed Apr 02 2025 18:42:14 GMT-0500 (Central Daylight Time),308972.3000000119,A,rug,O,g,324,1,3083.0,305889.3000000119,7116,WL,A,13.0
2,32.67400002479553,learn,27325.999975204468,Wed Apr 02 2025 18:42:14 GMT-0500 (Central Daylight Time),309537.8000000119,A,rugenter,O,enter,536,1,3648.5,305889.3000000119,7116,WL,A,13.0
2,32.97499990463257,learn,27025.00009536743,Wed Apr 02 2025 18:42:14 GMT-0500 (Central Daylight Time),309838.40000000596,A,m,O,m,292,1,300.30000001192093,309538.09999999404,7116,WL,A,14.0
2,33.10899996757507,learn,26891.000032424927,Wed Apr 02 2025 18:42:14 GMT-0500 (Central Daylight Time),309972.2000000179,A,me,O,e,92,1,434.10000002384186,309538.09999999404,7116,WL,A,14.0
2,33.22499990463257,learn,26775.00009536743,Wed Apr 02 2025 18:42:14 GMT-0500 (Central Daylight Time),310088.7000000179,A,mea,O,a,85,1,550.6000000238419,309538.09999999404,7116,WL,A,14.0
2,33.492000102996826,learn,26507.999897003174,Wed Apr 02 2025 18:42:14 GMT-0500 (Central Daylight Time),310355.40000000596,A,mead,O,d,231,1,817.3000000119209,309538.09999999404,7116,WL,A,14.0
2,33.85800004005432,learn,26141.99995994568,Wed Apr 02 2025 18:42:14 GMT-0500 (Central Daylight Time),310721.7000000179,A,meado,O,o,331,1,1183.6000000238419,309538.09999999404,7116,WL,A,14.0
2,34.0239999294281,learn,25976.0000705719,Wed Apr 02 2025 18:42:14 GMT-0500 (Central Daylight Time),310887.3000000119,A,meadow,O,w,128,1,1349.2000000178814,309538.09999999404,7116,WL,A,14.0
2,34.58999991416931,learn,25410.00008583069,Wed Apr 02 2025 18:42:14 GMT-0500 (Central Daylight Time),311453.90000000596,A,meadowenter,O,enter,549,1,1915.800000011921,309538.09999999404,7116,WL,A,14.0
2,35.0239999294281,learn,24976.0000705719,Wed Apr 02 2025 18:42:14 GMT-0500 (Central Daylight Time),311887.7000000179,A,c,O,c,423,1,433.5,311454.2000000179,7116,WL,A,15.0
2,35.12400007247925,learn,24875.999927520752,Wed Apr 02 2025 18:42:14 GMT-0500 (Central Daylight Time),311988.0,A,ch,O,h,71,1,533.7999999821186,311454.2000000179,7116,WL,A,15.0
2,35.35700011253357,learn,24642.99988746643,Wed Apr 02 2025 18:42:14 GMT-0500 (Central Daylight Time),312220.90000000596,A,chi,O,i,198,1,766.6999999880791,311454.2000000179,7116,WL,A,15.0
2,35.490999937057495,learn,24509.000062942505,Wed Apr 02 2025 18:42:14 GMT-0500 (Central Daylight Time),312354.59999999404,A,chim,O,m,113,1,900.3999999761581,311454.2000000179,7116,WL,A,15.0
2,36.10800004005432,learn,23891.99995994568,Wed Apr 02 2025 18:42:14 GMT-0500 (Central Daylight Time),312971.2000000179,A,chimn,O,n,574,1,1517.0,311454.2000000179,7116,WL,A,15.0
2,36.240999937057495,learn,23759.000062942505,Wed Apr 02 2025 18:42:14 GMT-0500 (Central Daylight Time),313104.09999999404,A,chimne,O,e,102,1,1649.8999999761581,311454.2000000179,7116,WL,A,15.0
2,36.42400002479553,learn,23575.999975204468,Wed Apr 02 2025 18:42:14 GMT-0500 (Central Daylight Time),313287.59999999404,A,chimney,O,y,153,1,1833.3999999761581,311454.2000000179,7116,WL,A,15.0
2,36.90599989891052,learn,23094.000101089478,Wed Apr 02 2025 18:42:14 GMT-0500 (Central Daylight Time),313769.8000000119,A,chimneyenter,O,enter,450,1,2315.5999999940395,311454.2000000179,7116,WL,A,15.0
3,1.5999999046325684,learn,58400.00009536743,Wed Apr 02 2025 18:42:14 GMT-0500 (Central Daylight Time),383914.59999999404,A,r,O,r,1570,1,1599.3999999761581,382315.2000000179,7116,WL,A,1.0
3,1.9839999675750732,learn,58016.00003242493,Wed Apr 02 2025 18:42:14 GMT-0500 (Central Daylight Time),384297.7000000179,A,ru,O,u,352,1,1982.5,382315.2000000179,7116,WL,A,1.0
3,2.2660000324249268,learn,57733.99996757507,Wed Apr 02 2025 18:42:14 GMT-0500 (Central Daylight Time),384580.59999999404,A,rug,O,g,242,1,2265.399999976158,382315.2000000179,7116,WL,A,1.0
3,2.7819998264312744,learn,57218.000173568726,Wed Apr 02 2025 18:42:14 GMT-0500 (Central Daylight Time),385096.3000000119,A,rugenter,O,enter,483,1,2781.0999999940395,382315.2000000179,7116,WL,A,1.0
3,3.132999897003174,learn,56867.000102996826,Wed Apr 02 2025 18:42:14 GMT-0500 (Central Daylight Time),385447.2000000179,A,t,O,t,342,1,350.60000002384186,385096.59999999404,7116,WL,A,2.0
3,3.4159998893737793,learn,56584.00011062622,Wed Apr 02 2025 18:42:14 GMT-0500 (Central Daylight Time),385730.59999999404,A,tr,O,r,249,1,634.0,385096.59999999404,7116,WL,A,2.0
3,3.5829999446868896,learn,56417.00005531311,Wed Apr 02 2025 18:42:14 GMT-0500 (Central Daylight Time),385897.09999999404,A,tra,O,a,127,1,800.5,385096.59999999404,7116,WL,A,2.0
3,3.7829999923706055,learn,56217.000007629395,Wed Apr 02 2025 18:42:14 GMT-0500 (Central Daylight Time),386097.09999999404,A,trai,O,i,163,1,1000.5,385096.59999999404,7116,WL,A,2.0
3,3.8989999294281006,learn,56101.0000705719,Wed Apr 02 2025 18:42:14 GMT-0500 (Central Daylight Time),386212.8000000119,A,train,O,n,86,1,1116.2000000178814,385096.59999999404,7116,WL,A,2.0
3,4.681999921798706,learn,55318.000078201294,Wed Apr 02 2025 18:42:14 GMT-0500 (Central Daylight Time),386995.8000000119,A,trainenter,O,enter,765,1,1899.2000000178814,385096.59999999404,7116,WL,A,2.0
3,7.247999906539917,learn,52752.00009346008,Wed Apr 02 2025 18:42:14 GMT-0500 (Central Daylight Time),389562.7000000179,A,m,O,m,2554,1,2566.7000000178814,386996.0,7116,WL,A,3.0
3,7.514999866485596,learn,52485.000133514404,Wed Apr 02 2025 18:42:14 GMT-0500 (Central Daylight Time),389828.90000000596,A,me,O,e,224,1,2832.9000000059605,386996.0,7116,WL,A,3.0
3,7.730999946594238,learn,52269.00005340576,Wed Apr 02 2025 18:42:14 GMT-0500 (Central Daylight Time),390045.59999999404,A,mea,O,a,197,1,3049.5999999940395,386996.0,7116,WL,A,3.0
3,8.13100004196167,learn,51868.99995803833,Wed Apr 02 2025 18:42:14 GMT-0500 (Central Daylight Time),390445.59999999404,A,mead,O,d,366,1,3449.5999999940395,386996.0,7116,WL,A,3.0
3,8.330999851226807,learn,51669.00014877319,Wed Apr 02 2025 18:42:14 GMT-0500 (Central Daylight Time),390645.59999999404,A,meado,O,o,165,1,3649.5999999940395,386996.0,7116,WL,A,3.0
3,8.547999858856201,learn,51452.0001411438,Wed Apr 02 2025 18:42:14 GMT-0500 (Central Daylight Time),390861.7000000179,A,meadoe,O,e,189,1,3865.7000000178814,386996.0,7116,WL,A,3.0
3,8.914000034332275,learn,51085.999965667725,Wed Apr 02 2025 18:42:14 GMT-0500 (Central Daylight Time),391228.40000000596,A,meado,O,backspace,325,1,4232.4000000059605,386996.0,7116,WL,A,3.0
3,8.996999979019165,learn,51003.000020980835,Wed Apr 02 2025 18:42:14 GMT-0500 (Central Daylight Time),391311.09999999404,A,meadow,O,w,46,1,4315.0999999940395,386996.0,7116,WL,A,3.0
3,9.61299991607666,learn,50387.00008392334,Wed Apr 02 2025 18:42:14 GMT-0500 (Central Daylight Time),391927.5,A,meadowenter,O,enter,589,1,4931.5,386996.0,7116,WL,A,3.0
3,9.930999994277954,learn,50069.000005722046,Wed Apr 02 2025 18:42:14 GMT-0500 (Central Daylight Time),392245.3000000119,A,f,O,f,310,1,317.5,391927.8000000119,7116,WL,A,4.0
3,10.13100004196167,learn,49868.99995803833,Wed Apr 02 2025 18:42:14 GMT-0500 (Central Daylight Time),392445.0,A,fl,O,l,157,1,517.1999999880791,391927.8000000119,7116,WL,A,4.0
3,10.363999843597412,learn,49636.00015640259,Wed Apr 02 2025 18:42:14 GMT-0500 (Central Daylight Time),392678.0,A,flo,O,o,205,1,750.1999999880791,391927.8000000119,7116,WL,A,4.0
3,10.480999946594238,learn,49519.00005340576,Wed Apr 02 2025 18:42:14 GMT-0500 (Central Daylight Time),392794.90000000596,A,flow,O,w,90,1,867.0999999940395,391927.8000000119,7116,WL,A,4.0
3,11.164000034332275,learn,48835.999965667725,Wed Apr 02 2025 18:42:14 GMT-0500 (Central Daylight Time),393477.90000000596,A,flowe,O,e,650,1,1550.0999999940395,391927.8000000119,7116,WL,A,4.0
3,11.280999898910522,learn,48719.00010108948,Wed Apr 02 2025 18:42:14 GMT-0500 (Central Daylight Time),393594.8000000119,A,flower,O,r,77,1,1667.0,391927.8000000119,7116,WL,A,4.0
3,12.26199984550476,learn,47738.00015449524,Wed Apr 02 2025 18:42:14 GMT-0500 (Central Daylight Time),394576.59999999404,A,flowerenter,O,enter,948,1,2648.7999999821186,391927.8000000119,7116,WL,A,4.0
3,13.69599986076355,learn,46304.00013923645,Wed Apr 02 2025 18:42:14 GMT-0500 (Central Daylight Time),396010.40000000596,A,f,O,f,1421,1,1433.5,394576.90000000596,7116,WL,A,5.0
3,14.079999923706055,learn,45920.000076293945,Wed Apr 02 2025 18:42:14 GMT-0500 (Central Daylight Time),396394.3000000119,A,fi,O,i,352,1,1817.4000000059605,394576.90000000596,7116,WL,A,5.0
3,14.19599986076355,learn,45804.00013923645,Wed Apr 02 2025 18:42:14 GMT-0500 (Central Daylight Time),396509.90000000596,A,fin,O,n,92,1,1933.0,394576.90000000596,7116,WL,A,5.0
3,14.412999868392944,learn,45587.000131607056,Wed Apr 02 2025 18:42:14 GMT-0500 (Central Daylight Time),396727.0,A,fing,O,g,181,1,2150.0999999940395,394576.90000000596,7116,WL,A,5.0
3,14.678999900817871,learn,45321.00009918213,Wed Apr 02 2025 18:42:14 GMT-0500 (Central Daylight Time),396993.5,A,finge,O,e,231,1,2416.5999999940395,394576.90000000596,7116,WL,A,5.0
3,14.703999996185303,learn,45296.0000038147,Wed Apr 02 2025 18:42:14 GMT-0500 (Central Daylight Time),397017.8000000119,A,finger,O,r,1,1,2440.9000000059605,394576.90000000596,7116,WL,A,5.0
3,15.111999988555908,learn,44888.00001144409,Wed Apr 02 2025 18:42:14 GMT-0500 (Central Daylight Time),397425.8000000119,A,fingerenter,O,enter,388,1,2848.9000000059605,394576.90000000596,7116,WL,A,5.0
3,15.428999900817871,learn,44571.00009918213,Wed Apr 02 2025 18:42:14 GMT-0500 (Central Daylight Time),397743.2000000179,A,a,O,a,309,1,317.10000002384186,397426.09999999404,7116,WL,A,6.0
3,15.628999948501587,learn,44371.00005149841,Wed Apr 02 2025 18:42:14 GMT-0500 (Central Daylight Time),397943.0,A,ap,O,p,173,1,516.9000000059605,397426.09999999404,7116,WL,A,6.0
3,15.845999956130981,learn,44154.00004386902,Wed Apr 02 2025 18:42:14 GMT-0500 (Central Daylight Time),398159.8000000119,A,app,O,p,186,1,733.7000000178814,397426.09999999404,7116,WL,A,6.0
3,16.128999948501587,learn,43871.00005149841,Wed Apr 02 2025 18:42:14 GMT-0500 (Central Daylight Time),398443.0,A,appl,O,l,251,1,1016.9000000059605,397426.09999999404,7116,WL,A,6.0
3,16.296000003814697,learn,43703.9999961853,Wed Apr 02 2025 18:42:14 GMT-0500 (Central Daylight Time),398609.7000000179,A,apple,O,e,128,1,1183.6000000238419,397426.09999999404,7116,WL,A,6.0
3,16.99399995803833,learn,43006.00004196167,Wed Apr 02 2025 18:42:14 GMT-0500 (Central Daylight Time),399308.3000000119,A,appleenter,O,enter,672,1,1882.2000000178814,397426.09999999404,7116,WL,A,6.0
3,17.461999893188477,learn,42538.00010681152,Wed Apr 02 2025 18:42:14 GMT-0500 (Central Daylight Time),399776.0,A,a,O,a,457,1,467.40000000596046,399308.59999999404,7116,WL,A,7.0
3,17.67799997329712,learn,42322.00002670288,Wed Apr 02 2025 18:42:14 GMT-0500 (Central Daylight Time),399992.5,A,ar,O,r,187,1,683.9000000059605,399308.59999999404,7116,WL,A,7.0
3,18.16100001335144,learn,41838.99998664856,Wed Apr 02 2025 18:42:14 GMT-0500 (Central Daylight Time),400475.7000000179,A,a,O,backspace,452,1,1167.1000000238419,399308.59999999404,7116,WL,A,7.0
3,18.32799983024597,learn,41672.00016975403,Wed Apr 02 2025 18:42:14 GMT-0500 (Central Daylight Time),400642.5,A,,O,backspace,130,1,1333.9000000059605,399308.59999999404,7116,WL,A,7.0
3,18.59500002861023,learn,41404.99997138977,Wed Apr 02 2025 18:42:14 GMT-0500 (Central Daylight Time),400908.90000000596,A,h,O,h,232,1,1600.300000011921,399308.59999999404,7116,WL,A,7.0
3,18.777999877929688,learn,41222.00012207031,Wed Apr 02 2025 18:42:14 GMT-0500 (Central Daylight Time),401092.09999999404,A,ha,O,a,142,1,1783.5,399308.59999999404,7116,WL,A,7.0
3,18.960999965667725,learn,41039.000034332275,Wed Apr 02 2025 18:42:14 GMT-0500 (Central Daylight Time),401275.40000000596,A,har,O,r,148,1,1966.800000011921,399308.59999999404,7116,WL,A,7.0
3,19.395999908447266,learn,40604.000091552734,Wed Apr 02 2025 18:42:14 GMT-0500 (Central Daylight Time),401710.2000000179,A,harp,O,p,407,1,2401.600000023842,399308.59999999404,7116,WL,A,7.0
3,20.126999855041504,learn,39873.000144958496,Wed Apr 02 2025 18:42:14 GMT-0500 (Central Daylight Time),402440.7000000179,A,harpenter,O,enter,696,1,3132.100000023842,399308.59999999404,7116,WL,A,7.0
3,20.57799983024597,learn,39422.00016975403,Wed Apr 02 2025 18:42:14 GMT-0500 (Central Daylight Time),402891.8000000119,A,s,O,s,429,1,450.80000001192093,402441.0,7116,WL,A,8.0
3,21.026999950408936,learn,38973.000049591064,Wed Apr 02 2025 18:42:14 GMT-0500 (Central Daylight Time),403341.40000000596,A,sa,O,a,413,1,900.4000000059605,402441.0,7116,WL,A,8.0
3,21.361000061035156,learn,38638.999938964844,Wed Apr 02 2025 18:42:14 GMT-0500 (Central Daylight Time),403674.8000000119,A,sal,O,l,294,1,1233.800000011921,402441.0,7116,WL,A,8.0
3,21.55999994277954,learn,38440.00005722046,Wed Apr 02 2025 18:42:14 GMT-0500 (Central Daylight Time),403874.7000000179,A,salt,O,t,160,1,1433.7000000178814,402441.0,7116,WL,A,8.0
3,22.45899987220764,learn,37541.00012779236,Wed Apr 02 2025 18:42:14 GMT-0500 (Central Daylight Time),404773.2000000179,A,saltenter,O,enter,871,1,2332.2000000178814,402441.0,7116,WL,A,8.0
3,24.026000022888184,learn,35973.99997711182,Wed Apr 02 2025 18:42:14 GMT-0500 (Central Daylight Time),406340.40000000596,A,r,O,r,1553,1,1566.9000000059605,404773.5,7116,WL,A,9.0
3,24.22599983215332,learn,35774.00016784668,Wed Apr 02 2025 18:42:14 GMT-0500 (Central Daylight Time),406540.5,A,ra,O,a,159,1,1767.0,404773.5,7116,WL,A,9.0
3,24.376999855041504,learn,35623.000144958496,Wed Apr 02 2025 18:42:14 GMT-0500 (Central Daylight Time),406691.0,A,rat,O,t,113,1,1917.5,404773.5,7116,WL,A,9.0
3,24.55999994277954,learn,35440.00005722046,Wed Apr 02 2025 18:42:14 GMT-0500 (Central Daylight Time),406874.7000000179,A,ratt,O,t,149,1,2101.2000000178814,404773.5,7116,WL,A,9.0
3,24.776000022888184,learn,35223.99997711182,Wed Apr 02 2025 18:42:14 GMT-0500 (Central Daylight Time),407090.3000000119,A,rattl,O,l,184,1,2316.800000011921,404773.5,7116,WL,A,9.0
3,24.908999919891357,learn,35091.00008010864,Wed Apr 02 2025 18:42:14 GMT-0500 (Central Daylight Time),407223.09999999404,A,rattle,O,e,95,1,2449.5999999940395,404773.5,7116,WL,A,9.0
3,25.557999849319458,learn,34442.00015068054,Wed Apr 02 2025 18:42:14 GMT-0500 (Central Daylight Time),407872.5,A,rattleenter,O,enter,627,1,3099.0,404773.5,7116,WL,A,9.0
3,25.89199995994568,learn,34108.00004005432,Wed Apr 02 2025 18:42:14 GMT-0500 (Central Daylight Time),408206.09999999404,A,g,O,g,326,1,333.2999999821186,407872.8000000119,7116,WL,A,10.0
3,26.05900001525879,learn,33940.99998474121,Wed Apr 02 2025 18:42:14 GMT-0500 (Central Daylight Time),408373.0,A,go,O,o,132,1,500.19999998807907,407872.8000000119,7116,WL,A,10.0
3,26.29200005531311,learn,33707.99994468689,Wed Apr 02 2025 18:42:14 GMT-0500 (Central Daylight Time),408606.3000000119,A,gol,O,l,196,1,733.5,407872.8000000119,7116,WL,A,10.0
3,26.44099998474121,learn,33559.00001525879,Wed Apr 02 2025 18:42:14 GMT-0500 (Central Daylight Time),408755.59999999404,A,gold,O,d,115,1,882.7999999821186,407872.8000000119,7116,WL,A,10.0
3,27.157999992370605,learn,32842.000007629395,Wed Apr 02 2025 18:42:14 GMT-0500 (Central Daylight Time),409471.7000000179,A,goldenter,O,enter,697,1,1598.9000000059605,407872.8000000119,7116,WL,A,10.0
3,28.125,learn,31875.0,Wed Apr 02 2025 18:42:14 GMT-0500 (Central Daylight Time),410439.09999999404,A,l,O,l,951,1,967.1999999880791,409471.90000000596,7116,WL,A,11.0
3,28.325000047683716,learn,31674.999952316284,Wed Apr 02 2025 18:42:14 GMT-0500 (Central Daylight Time),410639.0,A,lo,O,o,163,1,1167.0999999940395,409471.90000000596,7116,WL,A,11.0
3,28.490999937057495,learn,31509.000062942505,Wed Apr 02 2025 18:42:14 GMT-0500 (Central Daylight Time),410805.40000000596,A,log,O,g,140,1,1333.5,409471.90000000596,7116,WL,A,11.0
3,29.4229998588562,learn,30577.0001411438,Wed Apr 02 2025 18:42:14 GMT-0500 (Central Daylight Time),411737.59999999404,A,logenter,O,enter,893,1,2265.699999988079,409471.90000000596,7116,WL,A,11.0
3,30.04099988937378,learn,29959.00011062622,Wed Apr 02 2025 18:42:14 GMT-0500 (Central Daylight Time),412355.09999999404,A,c,O,c,605,1,617.2999999821186,411737.8000000119,7116,WL,A,12.0
3,30.139999866485596,learn,29860.000133514404,Wed Apr 02 2025 18:42:14 GMT-0500 (Central Daylight Time),412454.2000000179,A,ch,O,h,74,1,716.4000000059605,411737.8000000119,7116,WL,A,12.0
3,30.35699987411499,learn,29643.00012588501,Wed Apr 02 2025 18:42:14 GMT-0500 (Central Daylight Time),412671.59999999404,A,chi,O,i,195,1,933.7999999821186,411737.8000000119,7116,WL,A,12.0
3,30.507999897003174,learn,29492.000102996826,Wed Apr 02 2025 18:42:14 GMT-0500 (Central Daylight Time),412821.8000000119,A,chim,O,m,116,1,1084.0,411737.8000000119,7116,WL,A,12.0
3,30.906999826431274,learn,29093.000173568726,Wed Apr 02 2025 18:42:14 GMT-0500 (Central Daylight Time),413221.40000000596,A,chimn,O,n,366,1,1483.5999999940395,411737.8000000119,7116,WL,A,12.0
3,31.056999921798706,learn,28943.000078201294,Wed Apr 02 2025 18:42:14 GMT-0500 (Central Daylight Time),413371.5,A,chimne,O,e,118,1,1633.699999988079,411737.8000000119,7116,WL,A,12.0
3,31.2739999294281,learn,28726.0000705719,Wed Apr 02 2025 18:42:14 GMT-0500 (Central Daylight Time),413587.90000000596,A,chimney,O,y,175,1,1850.0999999940395,411737.8000000119,7116,WL,A,12.0
3,32.10599994659424,learn,27894.00005340576,Wed Apr 02 2025 18:42:14 GMT-0500 (Central Daylight Time),414420.09999999404,A,chimneyenter,O,enter,802,1,2682.2999999821186,411737.8000000119,7116,WL,A,12.0
3,38.723999977111816,learn,21276.000022888184,Wed Apr 02 2025 18:42:14 GMT-0500 (Central Daylight Time),421035.7000000179,A,b,O,b,6593,1,6615.200000017881,414420.5,7116,WL,A,13.0
3,38.95700001716614,learn,21042.999982833862,Wed Apr 02 2025 18:42:14 GMT-0500 (Central Daylight Time),421268.8000000119,A,bu,O,u,196,1,6848.300000011921,414420.5,7116,WL,A,13.0
3,39.20700001716614,learn,20792.999982833862,Wed Apr 02 2025 18:42:14 GMT-0500 (Central Daylight Time),421518.59999999404,A,but,O,t,226,1,7098.0999999940395,414420.5,7116,WL,A,13.0
3,39.37399983406067,learn,20626.00016593933,Wed Apr 02 2025 18:42:14 GMT-0500 (Central Daylight Time),421685.59999999404,A,butt,O,t,141,1,7265.0999999940395,414420.5,7116,WL,A,13.0
3,39.473000049591064,learn,20526.999950408936,Wed Apr 02 2025 18:42:14 GMT-0500 (Central Daylight Time),421784.90000000596,A,butto,O,o,66,1,7364.4000000059605,414420.5,7116,WL,A,13.0
3,39.70700001716614,learn,20292.999982833862,Wed Apr 02 2025 18:42:14 GMT-0500 (Central Daylight Time),422018.59999999404,A,button,O,n,202,1,7598.0999999940395,414420.5,7116,WL,A,13.0
3,40.638999938964844,learn,19361.000061035156,Wed Apr 02 2025 18:42:14 GMT-0500 (Central Daylight Time),422950.59999999404,A,buttonenter,O,enter,903,1,8530.09999999404,414420.5,7116,WL,A,13.0
3,47.73699998855591,learn,12263.000011444092,Wed Apr 02 2025 18:42:14 GMT-0500 (Central Daylight Time),430049.3000000119,A,k,O,k,7088,1,7098.4000000059605,422950.90000000596,7116,WL,A,14.0
3,47.9539999961853,learn,12046.000003814697,Wed Apr 02 2025 18:42:14 GMT-0500 (Central Daylight Time),430265.90000000596,A,ke,O,e,187,1,7315.0,422950.90000000596,7116,WL,A,14.0
3,48.12100005149841,learn,11878.999948501587,Wed Apr 02 2025 18:42:14 GMT-0500 (Central Daylight Time),430432.90000000596,A,key,O,y,132,1,7482.0,422950.90000000596,7116,WL,A,14.0
3,48.76900005340576,learn,11230.999946594238,Wed Apr 02 2025 18:42:14 GMT-0500 (Central Daylight Time),431081.2000000179,A,keyenter,O,enter,616,1,8130.300000011921,422950.90000000596,7116,WL,A,14.0
3,49.9539999961853,learn,10046.000003814697,Wed Apr 02 2025 18:42:14 GMT-0500 (Central Daylight Time),432265.40000000596,A,a,O,a,1164,1,1183.9000000059605,431081.5,7116,WL,A,15.0
3,50.085999965667725,learn,9914.000034332275,Wed Apr 02 2025 18:42:14 GMT-0500 (Central Daylight Time),432397.90000000596,A,ap,O,p,94,1,1316.4000000059605,431081.5,7116,WL,A,15.0
3,50.236000061035156,learn,9763.999938964844,Wed Apr 02 2025 18:42:14 GMT-0500 (Central Daylight Time),432548.0,A,app,O,p,125,1,1466.5,431081.5,7116,WL,A,15.0
3,50.437000036239624,learn,9562.999963760376,Wed Apr 02 2025 18:42:14 GMT-0500 (Central Daylight Time),432748.5,A,appl,O,l,171,1,1667.0,431081.5,7116,WL,A,15.0
3,50.501999855041504,learn,9498.000144958496,Wed Apr 02 2025 18:42:14 GMT-0500 (Central Daylight Time),432814.0,A,apple,O,e,31,1,1732.5,431081.5,7116,WL,A,15.0
3,51.319000005722046,learn,8680.999994277954,Wed Apr 02 2025 18:42:14 GMT-0500 (Central Daylight Time),433630.5,A,appleenter,O,enter,798,1,2549.0,431081.5,7116,WL,A,15.0
4,0.7829999923706055,learn,59217.000007629395,Wed Apr 02 2025 18:42:14 GMT-0500 (Central Daylight Time),505924.5,A,f,O,f,753,1,782.6999999880791,505141.8000000119,7116,WL,A,1.0
4,0.932999849319458,learn,59067.00015068054,Wed Apr 02 2025 18:42:14 GMT-0500 (Central Daylight Time),506074.3000000119,A,fl,O,l,112,1,932.5,505141.8000000119,7116,WL,A,1.0
4,1.1659998893737793,learn,58834.00011062622,Wed Apr 02 2025 18:42:14 GMT-0500 (Central Daylight Time),506307.8000000119,A,flo,O,o,195,1,1166.0,505141.8000000119,7116,WL,A,1.0
4,1.247999906539917,learn,58752.00009346008,Wed Apr 02 2025 18:42:14 GMT-0500 (Central Daylight Time),506389.90000000596,A,flow,O,w,53,1,1248.0999999940395,505141.8000000119,7116,WL,A,1.0
4,1.4169998168945312,learn,58583.00018310547,Wed Apr 02 2025 18:42:14 GMT-0500 (Central Daylight Time),506558.09999999404,A,flowe,O,e,156,1,1416.2999999821186,505141.8000000119,7116,WL,A,1.0
4,1.5149998664855957,learn,58485.000133514404,Wed Apr 02 2025 18:42:14 GMT-0500 (Central Daylight Time),506656.8000000119,A,flower,O,r,73,1,1515.0,505141.8000000119,7116,WL,A,1.0
4,2.6649999618530273,learn,57335.00003814697,Wed Apr 02 2025 18:42:14 GMT-0500 (Central Daylight Time),507806.09999999404,A,flowerenter,O,enter,1131,1,2664.2999999821186,505141.8000000119,7116,WL,A,1.0
4,3.0989999771118164,learn,56901.00002288818,Wed Apr 02 2025 18:42:14 GMT-0500 (Central Daylight Time),508240.40000000596,A,b,O,b,416,1,434.09999999403954,507806.3000000119,7116,WL,A,2.0
4,3.248999834060669,learn,56751.00016593933,Wed Apr 02 2025 18:42:14 GMT-0500 (Central Daylight Time),508390.3000000119,A,bo,O,o,116,1,584.0,507806.3000000119,7116,WL,A,2.0
4,3.4159998893737793,learn,56584.00011062622,Wed Apr 02 2025 18:42:14 GMT-0500 (Central Daylight Time),508557.3000000119,A,boo,O,o,141,1,751.0,507806.3000000119,7116,WL,A,2.0
4,4.180999994277954,learn,55819.000005722046,Wed Apr 02 2025 18:42:14 GMT-0500 (Central Daylight Time),509323.0,A,book,O,k,735,1,1516.699999988079,507806.3000000119,7116,WL,A,2.0
4,4.896999835968018,learn,55103.00016403198,Wed Apr 02 2025 18:42:14 GMT-0500 (Central Daylight Time),510038.7000000179,A,bookenter,O,enter,686,1,2232.4000000059605,507806.3000000119,7116,WL,A,2.0
4,5.247999906539917,learn,54752.00009346008,Wed Apr 02 2025 18:42:14 GMT-0500 (Central Daylight Time),510389.7000000179,A,t,O,t,335,1,350.7000000178814,510039.0,7116,WL,A,3.0
4,5.664000034332275,learn,54335.999965667725,Wed Apr 02 2025 18:42:14 GMT-0500 (Central Daylight Time),510806.0,A,tr,O,r,389,1,767.0,510039.0,7116,WL,A,3.0
4,5.797999858856201,learn,54202.0001411438,Wed Apr 02 2025 18:42:14 GMT-0500 (Central Daylight Time),510939.3000000119,A,tra,O,a,101,1,900.3000000119209,510039.0,7116,WL,A,3.0
4,6.063999891281128,learn,53936.00010871887,Wed Apr 02 2025 18:42:14 GMT-0500 (Central Daylight Time),511205.7000000179,A,trai,O,i,246,1,1166.7000000178814,510039.0,7116,WL,A,3.0
4,6.2149999141693115,learn,53785.00008583069,Wed Apr 02 2025 18:42:14 GMT-0500 (Central Daylight Time),511356.09999999404,A,train,O,n,112,1,1317.0999999940395,510039.0,7116,WL,A,3.0
4,8.062999963760376,learn,51937.000036239624,Wed Apr 02 2025 18:42:14 GMT-0500 (Central Daylight Time),513204.3000000119,A,trainenter,O,enter,1816,1,3165.300000011921,510039.0,7116,WL,A,3.0
4,8.54699993133545,learn,51453.00006866455,Wed Apr 02 2025 18:42:14 GMT-0500 (Central Daylight Time),513688.40000000596,A,r,O,r,475,1,483.90000000596046,513204.5,7116,WL,A,4.0
4,8.69700002670288,learn,51302.99997329712,Wed Apr 02 2025 18:42:14 GMT-0500 (Central Daylight Time),513838.40000000596,A,ru,O,u,123,1,633.9000000059605,513204.5,7116,WL,A,4.0
4,9.329999923706055,learn,50670.000076293945,Wed Apr 02 2025 18:42:14 GMT-0500 (Central Daylight Time),514471.7000000179,A,rug,O,g,606,1,1267.2000000178814,513204.5,7116,WL,A,4.0
4,10.562000036239624,learn,49437.999963760376,Wed Apr 02 2025 18:42:14 GMT-0500 (Central Daylight Time),515703.59999999404,A,rugenter,O,enter,1197,1,2499.0999999940395,513204.5,7116,WL,A,4.0
4,10.962999820709229,learn,49037.00017929077,Wed Apr 02 2025 18:42:14 GMT-0500 (Central Daylight Time),516104.5,A,m,O,m,391,1,400.59999999403954,515703.90000000596,7116,WL,A,5.0
4,11.178999900817871,learn,48821.00009918213,Wed Apr 02 2025 18:42:14 GMT-0500 (Central Daylight Time),516321.0,A,ma,O,a,178,1,617.0999999940395,515703.90000000596,7116,WL,A,5.0
4,11.429999828338623,learn,48570.00017166138,Wed Apr 02 2025 18:42:14 GMT-0500 (Central Daylight Time),516571.2000000179,A,mad,O,d,209,1,867.3000000119209,515703.90000000596,7116,WL,A,5.0
4,11.86299991607666,learn,48137.00008392334,Wed Apr 02 2025 18:42:14 GMT-0500 (Central Daylight Time),517004.2000000179,A,ma,O,backspace,393,1,1300.300000011921,515703.90000000596,7116,WL,A,5.0
4,11.994999885559082,learn,48005.00011444092,Wed Apr 02 2025 18:42:14 GMT-0500 (Central Daylight Time),517136.59999999404,A,m,O,backspace,104,1,1432.699999988079,515703.90000000596,7116,WL,A,5.0
4,12.095999956130981,learn,47904.00004386902,Wed Apr 02 2025 18:42:14 GMT-0500 (Central Daylight Time),517237.0,A,me,O,e,88,1,1533.0999999940395,515703.90000000596,7116,WL,A,5.0
4,12.211999893188477,learn,47788.00010681152,Wed Apr 02 2025 18:42:14 GMT-0500 (Central Daylight Time),517353.59999999404,A,mea,O,a,93,1,1649.699999988079,515703.90000000596,7116,WL,A,5.0
4,12.478999853134155,learn,47521.000146865845,Wed Apr 02 2025 18:42:14 GMT-0500 (Central Daylight Time),517620.3000000119,A,mead,O,d,243,1,1916.4000000059605,515703.90000000596,7116,WL,A,5.0
4,12.644999980926514,learn,47355.000019073486,Wed Apr 02 2025 18:42:14 GMT-0500 (Central Daylight Time),517786.09999999404,A,meado,O,o,136,1,2082.199999988079,515703.90000000596,7116,WL,A,5.0
4,12.810999870300293,learn,47189.00012969971,Wed Apr 02 2025 18:42:14 GMT-0500 (Central Daylight Time),517952.59999999404,A,meadow,O,w,146,1,2248.699999988079,515703.90000000596,7116,WL,A,5.0
4,14.760999917984009,learn,45239.00008201599,Wed Apr 02 2025 18:42:14 GMT-0500 (Central Daylight Time),519902.09999999404,A,meadowenter,O,enter,1940,1,4198.199999988079,515703.90000000596,7116,WL,A,5.0
4,15.944000005722046,learn,44055.999994277954,Wed Apr 02 2025 18:42:14 GMT-0500 (Central Daylight Time),521085.90000000596,A,c,O,c,1177,1,1183.5999999940395,519902.3000000119,7116,WL,A,6.0
4,16.110999822616577,learn,43889.00017738342,Wed Apr 02 2025 18:42:14 GMT-0500 (Central Daylight Time),521252.90000000596,A,ch,O,h,125,1,1350.5999999940395,519902.3000000119,7116,WL,A,6.0
4,16.310999870300293,learn,43689.00012969971,Wed Apr 02 2025 18:42:14 GMT-0500 (Central Daylight Time),521452.09999999404,A,chi,O,i,175,1,1549.7999999821186,519902.3000000119,7116,WL,A,6.0
4,16.494999885559082,learn,43505.00011444092,Wed Apr 02 2025 18:42:14 GMT-0500 (Central Daylight Time),521636.09999999404,A,chim,O,m,164,1,1733.7999999821186,519902.3000000119,7116,WL,A,6.0
4,16.878000020980835,learn,43121.999979019165,Wed Apr 02 2025 18:42:14 GMT-0500 (Central Daylight Time),522019.09999999404,A,chimn,O,n,351,1,2116.7999999821186,519902.3000000119,7116,WL,A,6.0
4,17.026999950408936,learn,42973.000049591064,Wed Apr 02 2025 18:42:14 GMT-0500 (Central Daylight Time),522168.59999999404,A,chimne,O,e,112,1,2266.2999999821186,519902.3000000119,7116,WL,A,6.0
4,17.276999950408936,learn,42723.000049591064,Wed Apr 02 2025 18:42:14 GMT-0500 (Central Daylight Time),522419.0,A,chimney,O,y,218,1,2516.699999988079,519902.3000000119,7116,WL,A,6.0
4,18.526999950408936,learn,41473.000049591064,Wed Apr 02 2025 18:42:14 GMT-0500 (Central Daylight Time),523668.7000000179,A,chimneyenter,O,enter,1207,1,3766.4000000059605,519902.3000000119,7116,WL,A,6.0
4,18.944000005722046,learn,41055.999994277954,Wed Apr 02 2025 18:42:14 GMT-0500 (Central Daylight Time),524085.2000000179,A,h,O,h,394,1,416.2000000178814,523669.0,7116,WL,A,7.0
4,19.05999994277954,learn,40940.00005722046,Wed Apr 02 2025 18:42:14 GMT-0500 (Central Daylight Time),524201.7000000179,A,ha,O,a,84,1,532.7000000178814,523669.0,7116,WL,A,7.0
4,19.276999950408936,learn,40723.000049591064,Wed Apr 02 2025 18:42:14 GMT-0500 (Central Daylight Time),524418.2000000179,A,har,O,r,184,1,749.2000000178814,523669.0,7116,WL,A,7.0
4,19.72699999809265,learn,40273.00000190735,Wed Apr 02 2025 18:42:14 GMT-0500 (Central Daylight Time),524868.2000000179,A,harp,O,p,408,1,1199.2000000178814,523669.0,7116,WL,A,7.0
4,20.574999809265137,learn,39425.00019073486,Wed Apr 02 2025 18:42:14 GMT-0500 (Central Daylight Time),525716.7000000179,A,harpenter,O,enter,821,1,2047.7000000178814,523669.0,7116,WL,A,7.0
4,21.80900001525879,learn,38190.99998474121,Wed Apr 02 2025 18:42:14 GMT-0500 (Central Daylight Time),526950.400000006,A,b,O,b,1226,1,1233.4000000059605,525717.0,7116,WL,A,8.0
4,21.97599983215332,learn,38024.00016784668,Wed Apr 02 2025 18:42:14 GMT-0500 (Central Daylight Time),527117.400000006,A,bu,O,u,125,1,1400.4000000059605,525717.0,7116,WL,A,8.0
4,22.39299988746643,learn,37607.00011253357,Wed Apr 02 2025 18:42:14 GMT-0500 (Central Daylight Time),527534.7000000179,A,but,O,t,391,1,1817.7000000178814,525717.0,7116,WL,A,8.0
4,22.592999935150146,learn,37407.00006484985,Wed Apr 02 2025 18:42:14 GMT-0500 (Central Daylight Time),527734.099999994,A,butt,O,t,180,1,2017.0999999940395,525717.0,7116,WL,A,8.0
4,22.70899987220764,learn,37291.00012779236,Wed Apr 02 2025 18:42:14 GMT-0500 (Central Daylight Time),527850.400000006,A,butto,O,o,78,1,2133.4000000059605,525717.0,7116,WL,A,8.0
4,22.95899987220764,learn,37041.00012779236,Wed Apr 02 2025 18:42:14 GMT-0500 (Central Daylight Time),528100.900000006,A,button,O,n,218,1,2383.9000000059605,525717.0,7116,WL,A,8.0
4,23.87399983406067,learn,36126.00016593933,Wed Apr 02 2025 18:42:14 GMT-0500 (Central Daylight Time),529015.8000000119,A,buttonenter,O,enter,885,1,3298.800000011921,525717.0,7116,WL,A,8.0
4,25.424000024795532,learn,34575.99997520447,Wed Apr 02 2025 18:42:14 GMT-0500 (Central Daylight Time),530565.2000000179,A,a,O,a,1540,1,1549.2000000178814,529016.0,7116,WL,A,9.0
4,25.68999981880188,learn,34310.00018119812,Wed Apr 02 2025 18:42:14 GMT-0500 (Central Daylight Time),530831.7000000179,A,ap,O,p,255,1,1815.7000000178814,529016.0,7116,WL,A,9.0
4,25.83999991416931,learn,34160.00008583069,Wed Apr 02 2025 18:42:14 GMT-0500 (Central Daylight Time),530981.8000000119,A,app,O,p,132,1,1965.800000011921,529016.0,7116,WL,A,9.0
4,26.08999991416931,learn,33910.00008583069,Wed Apr 02 2025 18:42:14 GMT-0500 (Central Daylight Time),531231.7000000179,A,appl,O,l,238,1,2215.7000000178814,529016.0,7116,WL,A,9.0
4,26.18999981880188,learn,33810.00018119812,Wed Apr 02 2025 18:42:14 GMT-0500 (Central Daylight Time),531331.7000000179,A,apple,O,e,84,1,2315.7000000178814,529016.0,7116,WL,A,9.0
4,26.756999969482422,learn,33243.00003051758,Wed Apr 02 2025 18:42:14 GMT-0500 (Central Daylight Time),531898.2000000179,A,appleenter,O,enter,544,1,2882.2000000178814,529016.0,7116,WL,A,9.0
4,27.240000009536743,learn,32759.999990463257,Wed Apr 02 2025 18:42:14 GMT-0500 (Central Daylight Time),532381.3000000119,A,s,O,s,466,1,482.7000000178814,531898.599999994,7116,WL,A,10.0
4,27.43999981880188,learn,32560.00018119812,Wed Apr 02 2025 18:42:14 GMT-0500 (Central Daylight Time),532581.3000000119,A,sa,O,a,183,1,682.7000000178814,531898.599999994,7116,WL,A,10.0
4,27.58999991416931,learn,32410.00008583069,Wed Apr 02 2025 18:42:14 GMT-0500 (Central Daylight Time),532731.2000000179,A,sal,O,l,127,1,832.6000000238419,531898.599999994,7116,WL,A,10.0
4,28.073999881744385,learn,31926.000118255615,Wed Apr 02 2025 18:42:14 GMT-0500 (Central Daylight Time),533215.400000006,A,salt,O,t,476,1,1316.800000011921,531898.599999994,7116,WL,A,10.0
4,28.805999994277954,learn,31194.000005722046,Wed Apr 02 2025 18:42:14 GMT-0500 (Central Daylight Time),533947.5,A,saltenter,O,enter,698,1,2048.9000000059605,531898.599999994,7116,WL,A,10.0
4,29.906999826431274,learn,30093.000173568726,Wed Apr 02 2025 18:42:14 GMT-0500 (Central Daylight Time),535048.2000000179,A,l,O,l,1092,1,1100.4000000059605,533947.8000000119,7116,WL,A,11.0
4,30.122999906539917,learn,29877.000093460083,Wed Apr 02 2025 18:42:14 GMT-0500 (Central Daylight Time),535264.7000000179,A,lo,O,o,188,1,1316.9000000059605,533947.8000000119,7116,WL,A,11.0
4,30.33999991416931,learn,29660.00008583069,Wed Apr 02 2025 18:42:14 GMT-0500 (Central Daylight Time),535481.3000000119,A,log,O,g,190,1,1533.5,533947.8000000119,7116,WL,A,11.0
4,31.105000019073486,learn,28894.999980926514,Wed Apr 02 2025 18:42:14 GMT-0500 (Central Daylight Time),536246.8000000119,A,logenter,O,enter,736,1,2299.0,533947.8000000119,7116,WL,A,11.0
4,34.05799984931946,learn,25942.000150680542,Wed Apr 02 2025 18:42:14 GMT-0500 (Central Daylight Time),539196.8000000119,A,g,O,g,2936,1,2949.800000011921,536247.0,7116,WL,A,12.0
4,34.17400002479553,learn,25825.999975204468,Wed Apr 02 2025 18:42:14 GMT-0500 (Central Daylight Time),539312.7000000179,A,go,O,o,81,1,3065.7000000178814,536247.0,7116,WL,A,12.0
4,34.60699987411499,learn,25393.00012588501,Wed Apr 02 2025 18:42:14 GMT-0500 (Central Daylight Time),539746.7000000179,A,god,O,d,414,1,3499.7000000178814,536247.0,7116,WL,A,12.0
4,35.35699987411499,learn,24643.00012588501,Wed Apr 02 2025 18:42:14 GMT-0500 (Central Daylight Time),540495.900000006,A,go,O,backspace,722,1,4248.9000000059605,536247.0,7116,WL,A,12.0
4,35.62399983406067,learn,24376.00016593933,Wed Apr 02 2025 18:42:14 GMT-0500 (Central Daylight Time),540763.0,A,gol,O,l,236,1,4516.0,536247.0,7116,WL,A,12.0
4,35.74000000953674,learn,24259.999990463257,Wed Apr 02 2025 18:42:14 GMT-0500 (Central Daylight Time),540879.0,A,gold,O,d,88,1,4632.0,536247.0,7116,WL,A,12.0
4,36.27300000190735,learn,23726.99999809265,Wed Apr 02 2025 18:42:14 GMT-0500 (Central Daylight Time),541411.8000000119,A,goldenter,O,enter,502,1,5164.800000011921,536247.0,7116,WL,A,12.0
4,36.60699987411499,learn,23393.00012588501,Wed Apr 02 2025 18:42:14 GMT-0500 (Central Daylight Time),541746.0,A,k,O,k,323,1,334.09999999403954,541411.900000006,7116,WL,A,13.0
4,36.77300000190735,learn,23226.99999809265,Wed Apr 02 2025 18:42:14 GMT-0500 (Central Daylight Time),541912.599999994,A,ke,O,e,134,1,500.69999998807907,541411.900000006,7116,WL,A,13.0
4,36.972999811172485,learn,23027.000188827515,Wed Apr 02 2025 18:42:14 GMT-0500 (Central Daylight Time),542112.599999994,A,key,O,y,170,1,700.6999999880791,541411.900000006,7116,WL,A,13.0
4,37.97199988365173,learn,22028.000116348267,Wed Apr 02 2025 18:42:14 GMT-0500 (Central Daylight Time),543111.2000000179,A,keyenter,O,enter,968,1,1699.300000011921,541411.900000006,7116,WL,A,13.0
4,43.704999923706055,learn,16295.000076293945,Wed Apr 02 2025 18:42:14 GMT-0500 (Central Daylight Time),548843.8000000119,A,t,O,t,5720,1,5732.300000011921,543111.5,7116,WL,A,14.0
4,44.47099995613098,learn,15529.000043869019,Wed Apr 02 2025 18:42:14 GMT-0500 (Central Daylight Time),549610.2000000179,A,,O,backspace,735,1,6498.700000017881,543111.5,7116,WL,A,14.0
4,44.98699998855591,learn,15013.000011444092,Wed Apr 02 2025 18:42:14 GMT-0500 (Central Daylight Time),550126.3000000119,A,t,O,t,492,1,7014.800000011921,543111.5,7116,WL,A,14.0
4,45.22099995613098,learn,14779.000043869019,Wed Apr 02 2025 18:42:14 GMT-0500 (Central Daylight Time),550359.900000006,A,tr,O,r,198,1,7248.4000000059605,543111.5,7116,WL,A,14.0
4,45.3199999332428,learn,14680.000066757202,Wed Apr 02 2025 18:42:14 GMT-0500 (Central Daylight Time),550459.3000000119,A,tra,O,a,58,1,7347.800000011921,543111.5,7116,WL,A,14.0
4,45.47000002861023,learn,14529.99997138977,Wed Apr 02 2025 18:42:14 GMT-0500 (Central Daylight Time),550609.599999994,A,trai,O,i,115,1,7498.0999999940395,543111.5,7116,WL,A,14.0
4,45.603999853134155,learn,14396.000146865845,Wed Apr 02 2025 18:42:14 GMT-0500 (Central Daylight Time),550742.900000006,A,train,O,n,105,1,7631.4000000059605,543111.5,7116,WL,A,14.0
4,46.30299997329712,learn,13697.00002670288,Wed Apr 02 2025 18:42:14 GMT-0500 (Central Daylight Time),551441.8000000119,A,trainenter,O,enter,670,1,8330.300000011921,543111.5,7116,WL,A,14.0
4,55.00099992752075,learn,4999.000072479248,Wed Apr 02 2025 18:42:14 GMT-0500 (Central Daylight Time),560140.099999994,A,a,O,a,8676,1,8698.0,551442.099999994,7116,WL,A,15.0
4,55.16699981689453,learn,4833.000183105469,Wed Apr 02 2025 18:42:14 GMT-0500 (Central Daylight Time),560306.5,A,ap,O,p,124,1,8864.40000000596,551442.099999994,7116,WL,A,15.0
4,55.33399987220764,learn,4666.000127792358,Wed Apr 02 2025 18:42:14 GMT-0500 (Central Daylight Time),560472.900000006,A,app,O,p,138,1,9030.800000011921,551442.099999994,7116,WL,A,15.0
4,55.550999879837036,learn,4449.000120162964,Wed Apr 02 2025 18:42:14 GMT-0500 (Central Daylight Time),560689.8000000119,A,appl,O,l,178,1,9247.700000017881,551442.099999994,7116,WL,A,15.0
4,55.60599994659424,learn,4394.000053405762,Wed Apr 02 2025 18:42:14 GMT-0500 (Central Daylight Time),560744.900000006,A,apple,O,e,17,1,9302.800000011921,551442.099999994,7116,WL,A,15.0
4,56.18299984931946,learn,3817.000150680542,Wed Apr 02 2025 18:42:14 GMT-0500 (Central Daylight Time),561321.900000006,A,appleenter,O,enter,557,1,9879.800000011921,551442.099999994,7116,WL,A,15.0
5,2.5329999923706055,learn,60000.0,Wed Apr 02 2025 18:42:14 GMT-0500 (Central Daylight Time),631300.5,A,t,O,t,2493,1,2532.699999988079,628767.8000000119,7116,WL,A,1.0
5,2.75,learn,60000.0,Wed Apr 02 2025 18:42:14 GMT-0500 (Central Daylight Time),631516.8000000119,A,tr,O,r,173,1,2749.0,628767.8000000119,7116,WL,A,1.0
5,2.9000000953674316,learn,60000.0,Wed Apr 02 2025 18:42:14 GMT-0500 (Central Daylight Time),631666.7000000179,A,tra,O,a,113,1,2898.9000000059605,628767.8000000119,7116,WL,A,1.0
5,3.0820000171661377,learn,60000.0,Wed Apr 02 2025 18:42:14 GMT-0500 (Central Daylight Time),631849.0,A,trai,O,i,153,1,3081.199999988079,628767.8000000119,7116,WL,A,1.0
5,3.2150001525878906,learn,60000.0,Wed Apr 02 2025 18:42:14 GMT-0500 (Central Daylight Time),631982.0,A,train,O,n,112,1,3214.199999988079,628767.8000000119,7116,WL,A,1.0
5,4.0980000495910645,learn,60000.0,Wed Apr 02 2025 18:42:14 GMT-0500 (Central Daylight Time),632865.2000000179,A,trainenter,O,enter,864,1,4097.4000000059605,628767.8000000119,7116,WL,A,1.0
5,4.565000057220459,learn,60000.0,Wed Apr 02 2025 18:42:14 GMT-0500 (Central Daylight Time),633331.5,A,l,O,l,443,1,466.09999999403954,632865.400000006,7116,WL,A,2.0
5,4.79800009727478,learn,60000.0,Wed Apr 02 2025 18:42:14 GMT-0500 (Central Daylight Time),633564.8000000119,A,lo,O,o,217,1,699.4000000059605,632865.400000006,7116,WL,A,2.0
5,4.998000144958496,learn,60000.0,Wed Apr 02 2025 18:42:14 GMT-0500 (Central Daylight Time),633764.7000000179,A,log,O,g,192,1,899.3000000119209,632865.400000006,7116,WL,A,2.0
5,6.031000137329102,learn,60000.0,Wed Apr 02 2025 18:42:14 GMT-0500 (Central Daylight Time),634797.900000006,A,logenter,O,enter,1016,1,1932.5,632865.400000006,7116,WL,A,2.0
5,17.528000116348267,learn,60000.0,Wed Apr 02 2025 18:42:14 GMT-0500 (Central Daylight Time),646295.099999994,A,r,O,r,11480,1,11496.899999976158,634798.2000000179,7116,WL,A,3.0
5,17.64400005340576,learn,60000.0,Wed Apr 02 2025 18:42:14 GMT-0500 (Central Daylight Time),646411.2000000179,A,ru,O,u,83,1,11613.0,634798.2000000179,7116,WL,A,3.0
5,17.91100001335144,learn,60000.0,Wed Apr 02 2025 18:42:14 GMT-0500 (Central Daylight Time),646678.2000000179,A,rug,O,g,243,1,11880.0,634798.2000000179,7116,WL,A,3.0
5,18.592999935150146,learn,60000.0,Wed Apr 02 2025 18:42:14 GMT-0500 (Central Daylight Time),647360.3000000119,A,rugenter,O,enter,653,1,12562.09999999404,634798.2000000179,7116,WL,A,3.0
5,19.5770001411438,learn,60000.0,Wed Apr 02 2025 18:42:14 GMT-0500 (Central Daylight Time),648344.3000000119,A,c,O,c,967,1,983.8000000119209,647360.5,7116,WL,A,4.0
5,19.693000078201294,learn,60000.0,Wed Apr 02 2025 18:42:14 GMT-0500 (Central Daylight Time),648460.400000006,A,ch,O,h,73,1,1099.9000000059605,647360.5,7116,WL,A,4.0
5,19.91000008583069,learn,60000.0,Wed Apr 02 2025 18:42:14 GMT-0500 (Central Daylight Time),648677.3000000119,A,chi,O,i,187,1,1316.800000011921,647360.5,7116,WL,A,4.0
5,20.026999950408936,learn,60000.0,Wed Apr 02 2025 18:42:14 GMT-0500 (Central Daylight Time),648794.2000000179,A,chim,O,m,88,1,1433.7000000178814,647360.5,7116,WL,A,4.0
5,20.377000093460083,learn,60000.0,Wed Apr 02 2025 18:42:14 GMT-0500 (Central Daylight Time),649144.099999994,A,chimn,O,n,314,1,1783.5999999940395,647360.5,7116,WL,A,4.0
5,20.542999982833862,learn,60000.0,Wed Apr 02 2025 18:42:14 GMT-0500 (Central Daylight Time),649309.8000000119,A,chimne,O,e,131,1,1949.300000011921,647360.5,7116,WL,A,4.0
5,20.792999982833862,learn,60000.0,Wed Apr 02 2025 18:42:14 GMT-0500 (Central Daylight Time),649560.400000006,A,chimney,O,y,229,1,2199.9000000059605,647360.5,7116,WL,A,4.0
5,21.544000148773193,learn,60000.0,Wed Apr 02 2025 18:42:14 GMT-0500 (Central Daylight Time),650310.400000006,A,chimneyenter,O,enter,715,1,2949.9000000059605,647360.5,7116,WL,A,4.0
5,21.91000008583069,learn,60000.0,Wed Apr 02 2025 18:42:14 GMT-0500 (Central Daylight Time),650676.900000006,A,f,O,f,353,1,366.19999998807907,650310.7000000179,7116,WL,A,5.0
5,22.026000022888184,learn,60000.0,Wed Apr 02 2025 18:42:14 GMT-0500 (Central Daylight Time),650793.0,A,fl,O,l,89,1,482.2999999821186,650310.7000000179,7116,WL,A,5.0
5,22.2260000705719,learn,60000.0,Wed Apr 02 2025 18:42:14 GMT-0500 (Central Daylight Time),650993.099999994,A,flo,O,o,182,1,682.3999999761581,650310.7000000179,7116,WL,A,5.0
5,22.342999935150146,learn,60000.0,Wed Apr 02 2025 18:42:14 GMT-0500 (Central Daylight Time),651109.900000006,A,flow,O,w,82,1,799.1999999880791,650310.7000000179,7116,WL,A,5.0
5,22.493000030517578,learn,60000.0,Wed Apr 02 2025 18:42:14 GMT-0500 (Central Daylight Time),651259.8000000119,A,flowe,O,e,107,1,949.0999999940395,650310.7000000179,7116,WL,A,5.0
5,22.575000047683716,learn,60000.0,Wed Apr 02 2025 18:42:14 GMT-0500 (Central Daylight Time),651342.400000006,A,flower,O,r,54,1,1031.699999988079,650310.7000000179,7116,WL,A,5.0
5,23.04200005531311,learn,60000.0,Wed Apr 02 2025 18:42:14 GMT-0500 (Central Daylight Time),651808.8000000119,A,flowerenter,O,enter,439,1,1498.0999999940395,650310.7000000179,7116,WL,A,5.0
5,23.64300012588501,learn,60000.0,Wed Apr 02 2025 18:42:14 GMT-0500 (Central Daylight Time),652409.7000000179,A,b,O,b,590,1,600.7000000178814,651809.0,7116,WL,A,6.0
5,24.026000022888184,learn,60000.0,Wed Apr 02 2025 18:42:14 GMT-0500 (Central Daylight Time),652792.900000006,A,bo,O,o,355,1,983.9000000059605,651809.0,7116,WL,A,6.0
5,24.192000150680542,learn,60000.0,Wed Apr 02 2025 18:42:14 GMT-0500 (Central Daylight Time),652959.400000006,A,boo,O,o,140,1,1150.4000000059605,651809.0,7116,WL,A,6.0
5,24.426000118255615,learn,60000.0,Wed Apr 02 2025 18:42:14 GMT-0500 (Central Daylight Time),653192.7000000179,A,book,O,k,211,1,1383.7000000178814,651809.0,7116,WL,A,6.0
5,25.19099998474121,learn,60000.0,Wed Apr 02 2025 18:42:14 GMT-0500 (Central Daylight Time),653958.2000000179,A,bookenter,O,enter,732,1,2149.2000000178814,651809.0,7116,WL,A,6.0
5,26.05900001525879,learn,60000.0,Wed Apr 02 2025 18:42:14 GMT-0500 (Central Daylight Time),654825.599999994,A,h,O,h,849,1,867.1999999880791,653958.400000006,7116,WL,A,7.0
5,26.174999952316284,learn,60000.0,Wed Apr 02 2025 18:42:14 GMT-0500 (Central Daylight Time),654941.8000000119,A,ha,O,a,80,1,983.4000000059605,653958.400000006,7116,WL,A,7.0
5,26.325000047683716,learn,60000.0,Wed Apr 02 2025 18:42:14 GMT-0500 (Central Daylight Time),655092.099999994,A,har,O,r,110,1,1133.699999988079,653958.400000006,7116,WL,A,7.0
5,26.907999992370605,learn,60000.0,Wed Apr 02 2025 18:42:14 GMT-0500 (Central Daylight Time),655675.400000006,A,harp,O,p,543,1,1717.0,653958.400000006,7116,WL,A,7.0
5,27.54100012779236,learn,60000.0,Wed Apr 02 2025 18:42:14 GMT-0500 (Central Daylight Time),656307.5,A,harpenter,O,enter,592,1,2349.0999999940395,653958.400000006,7116,WL,A,7.0
5,28.075000047683716,learn,60000.0,Wed Apr 02 2025 18:42:14 GMT-0500 (Central Daylight Time),656841.599999994,A,f,O,f,515,1,533.7999999821186,656307.8000000119,7116,WL,A,8.0
5,28.19099998474121,learn,60000.0,Wed Apr 02 2025 18:42:14 GMT-0500 (Central Daylight Time),656958.2000000179,A,fi,O,i,83,1,650.4000000059605,656307.8000000119,7116,WL,A,8.0
5,28.344000101089478,learn,60000.0,Wed Apr 02 2025 18:42:14 GMT-0500 (Central Daylight Time),657108.3000000119,A,fin,O,n,109,1,800.5,656307.8000000119,7116,WL,A,8.0
5,28.426000118255615,learn,60000.0,Wed Apr 02 2025 18:42:14 GMT-0500 (Central Daylight Time),657190.599999994,A,fing,O,g,53,1,882.7999999821186,656307.8000000119,7116,WL,A,8.0
5,28.62600016593933,learn,60000.0,Wed Apr 02 2025 18:42:14 GMT-0500 (Central Daylight Time),657391.2000000179,A,finge,O,e,176,1,1083.4000000059605,656307.8000000119,7116,WL,A,8.0
5,28.686000108718872,learn,60000.0,Wed Apr 02 2025 18:42:14 GMT-0500 (Central Daylight Time),657450.7000000179,A,finger,O,r,21,1,1142.9000000059605,656307.8000000119,7116,WL,A,8.0
5,29.16000008583069,learn,60000.0,Wed Apr 02 2025 18:42:14 GMT-0500 (Central Daylight Time),657924.5,A,fingerenter,O,enter,441,1,1616.699999988079,656307.8000000119,7116,WL,A,8.0
5,29.926000118255615,learn,60000.0,Wed Apr 02 2025 18:42:14 GMT-0500 (Central Daylight Time),658691.0,A,a,O,a,755,1,766.0999999940395,657924.900000006,7116,WL,A,9.0
5,30.108999967575073,learn,60000.0,Wed Apr 02 2025 18:42:14 GMT-0500 (Central Daylight Time),658874.2000000179,A,ap,O,p,152,1,949.3000000119209,657924.900000006,7116,WL,A,9.0
5,30.243000030517578,learn,60000.0,Wed Apr 02 2025 18:42:14 GMT-0500 (Central Daylight Time),659007.5,A,app,O,p,99,1,1082.5999999940395,657924.900000006,7116,WL,A,9.0
5,30.443000078201294,learn,60000.0,Wed Apr 02 2025 18:42:14 GMT-0500 (Central Daylight Time),659207.3000000119,A,appl,O,l,173,1,1282.4000000059605,657924.900000006,7116,WL,A,9.0
5,30.575999975204468,learn,60000.0,Wed Apr 02 2025 18:42:14 GMT-0500 (Central Daylight Time),659340.2000000179,A,apple,O,e,100,1,1415.300000011921,657924.900000006,7116,WL,A,9.0
5,31.375,learn,60000.0,Wed Apr 02 2025 18:42:14 GMT-0500 (Central Daylight Time),660139.5,A,appleenter,O,enter,768,1,2214.5999999940395,657924.900000006,7116,WL,A,9.0
5,34.375,learn,60000.0,Wed Apr 02 2025 18:42:14 GMT-0500 (Central Daylight Time),663139.599999994,A,g,O,g,2979,1,2999.899999976158,660139.7000000179,7116,WL,A,10.0
5,34.443000078201294,learn,60000.0,Wed Apr 02 2025 18:42:14 GMT-0500 (Central Daylight Time),663207.900000006,A,go,O,o,40,1,3068.199999988079,660139.7000000179,7116,WL,A,10.0
5,34.657999992370605,learn,60000.0,Wed Apr 02 2025 18:42:14 GMT-0500 (Central Daylight Time),663422.599999994,A,gol,O,l,195,1,3282.899999976158,660139.7000000179,7116,WL,A,10.0
5,34.77400016784668,learn,60000.0,Wed Apr 02 2025 18:42:14 GMT-0500 (Central Daylight Time),663539.2000000179,A,gold,O,d,84,1,3399.5,660139.7000000179,7116,WL,A,10.0
5,35.20700001716614,learn,60000.0,Wed Apr 02 2025 18:42:14 GMT-0500 (Central Daylight Time),663971.5,A,goldenter,O,enter,399,1,3831.7999999821186,660139.7000000179,7116,WL,A,10.0
5,35.80800008773804,learn,60000.0,Wed Apr 02 2025 18:42:14 GMT-0500 (Central Daylight Time),664572.3000000119,A,r,O,r,588,1,600.5999999940395,663971.7000000179,7116,WL,A,11.0
5,36.14100003242493,learn,60000.0,Wed Apr 02 2025 18:42:14 GMT-0500 (Central Daylight Time),664905.599999994,A,ra,O,a,302,1,933.8999999761581,663971.7000000179,7116,WL,A,11.0
5,36.37400007247925,learn,60000.0,Wed Apr 02 2025 18:42:14 GMT-0500 (Central Daylight Time),665138.8000000119,A,rat,O,t,194,1,1167.0999999940395,663971.7000000179,7116,WL,A,11.0
5,36.50699996948242,learn,60000.0,Wed Apr 02 2025 18:42:14 GMT-0500 (Central Daylight Time),665271.5,A,ratt,O,t,96,1,1299.7999999821186,663971.7000000179,7116,WL,A,11.0
5,36.70700001716614,learn,60000.0,Wed Apr 02 2025 18:42:14 GMT-0500 (Central Daylight Time),665471.900000006,A,rattl,O,l,185,1,1500.199999988079,663971.7000000179,7116,WL,A,11.0
5,36.85700011253357,learn,60000.0,Wed Apr 02 2025 18:42:14 GMT-0500 (Central Daylight Time),665622.0,A,rattle,O,e,116,1,1650.2999999821186,663971.7000000179,7116,WL,A,11.0
5,37.43900012969971,learn,60000.0,Wed Apr 02 2025 18:42:14 GMT-0500 (Central Daylight Time),666203.900000006,A,rattleenter,O,enter,549,1,2232.199999988079,663971.7000000179,7116,WL,A,11.0
5,38.890000104904175,learn,60000.0,Wed Apr 02 2025 18:42:14 GMT-0500 (Central Daylight Time),667654.3000000119,A,k,O,k,1443,1,1450.2000000178814,666204.099999994,7116,WL,A,12.0
5,39.02300000190735,learn,60000.0,Wed Apr 02 2025 18:42:14 GMT-0500 (Central Daylight Time),667787.7000000179,A,ke,O,e,96,1,1583.6000000238419,666204.099999994,7116,WL,A,12.0
5,39.24000000953674,learn,60000.0,Wed Apr 02 2025 18:42:14 GMT-0500 (Central Daylight Time),668004.599999994,A,key,O,y,189,1,1800.5,666204.099999994,7116,WL,A,12.0
5,40.205000162124634,learn,60000.0,Wed Apr 02 2025 18:42:14 GMT-0500 (Central Daylight Time),668969.900000006,A,keyenter,O,enter,924,1,2765.800000011921,666204.099999994,7116,WL,A,12.0
5,52.568000078201294,learn,60000.0,Wed Apr 02 2025 18:42:14 GMT-0500 (Central Daylight Time),681332.8000000119,A,s,O,s,12348,1,12362.59999999404,668970.2000000179,7116,WL,A,13.0
5,52.75100016593933,learn,60000.0,Wed Apr 02 2025 18:42:14 GMT-0500 (Central Daylight Time),681515.599999994,A,sa,O,a,171,1,12545.399999976158,668970.2000000179,7116,WL,A,13.0
5,52.88499999046326,learn,60000.0,Wed Apr 02 2025 18:42:14 GMT-0500 (Central Daylight Time),681650.099999994,A,sal,O,l,123,1,12679.899999976158,668970.2000000179,7116,WL,A,13.0
5,53.21900010108948,learn,60000.0,Wed Apr 02 2025 18:42:14 GMT-0500 (Central Daylight Time),681983.2000000179,A,salt,O,t,306,1,13013.0,668970.2000000179,7116,WL,A,13.0
5,53.76800012588501,learn,60000.0,Wed Apr 02 2025 18:42:14 GMT-0500 (Central Daylight Time),682532.099999994,A,saltenter,O,enter,505,1,13561.899999976158,668970.2000000179,7116,WL,A,13.0
5,54.75100016593933,learn,60000.0,Wed Apr 02 2025 18:42:14 GMT-0500 (Central Daylight Time),683516.2000000179,A,a,O,a,971,1,983.8000000119209,682532.400000006,7116,WL,A,14.0
5,54.93499994277954,learn,60000.0,Wed Apr 02 2025 18:42:14 GMT-0500 (Central Daylight Time),683699.599999994,A,ap,O,p,142,1,1167.199999988079,682532.400000006,7116,WL,A,14.0
5,55.068000078201294,learn,60000.0,Wed Apr 02 2025 18:42:14 GMT-0500 (Central Daylight Time),683832.7000000179,A,app,O,p,96,1,1300.300000011921,682532.400000006,7116,WL,A,14.0
5,55.25100016593933,learn,60000.0,Wed Apr 02 2025 18:42:14 GMT-0500 (Central Daylight Time),684016.0,A,appl,O,l,148,1,1483.5999999940395,682532.400000006,7116,WL,A,14.0
5,55.33400011062622,learn,60000.0,Wed Apr 02 2025 18:42:14 GMT-0500 (Central Daylight Time),684098.5,A,apple,O,e,43,1,1566.0999999940395,682532.400000006,7116,WL,A,14.0
5,55.96799993515015,learn,60000.0,Wed Apr 02 2025 18:42:14 GMT-0500 (Central Daylight Time),684732.3000000119,A,appleenter,O,enter,602,1,2199.9000000059605,682532.400000006,7116,WL,A,14.0
5,62.99900007247925,learn,60000.0,Wed Apr 02 2025 18:42:14 GMT-0500 (Central Daylight Time),691763.2000000179,A,b,O,b,7019,1,7030.700000017881,684732.5,7116,WL,A,15.0
6,2.816999912261963,distr,57183.00008773804,Wed Apr 02 2025 18:42:14 GMT-0500 (Central Daylight Time),774436.400000006,B,p,O,p,2803,1,2816.5,771619.900000006,7116,WL,A,1.0
6,3.0,distr,57000.0,Wed Apr 02 2025 18:42:14 GMT-0500 (Central Daylight Time),774619.5,B,pe,O,e,153,1,2999.5999999940395,771619.900000006,7116,WL,A,1.0
6,3.1499998569488525,distr,56850.00014305115,Wed Apr 02 2025 18:42:14 GMT-0500 (Central Daylight Time),774769.599999994,B,pea,O,a,120,1,3149.699999988079,771619.900000006,7116,WL,A,1.0
6,3.5829999446868896,distr,56417.00005531311,Wed Apr 02 2025 18:42:14 GMT-0500 (Central Daylight Time),775202.599999994,B,peac,O,c,402,1,3582.699999988079,771619.900000006,7116,WL,A,1.0
6,3.7159998416900635,distr,56284.00015830994,Wed Apr 02 2025 18:42:14 GMT-0500 (Central Daylight Time),775335.7000000179,B,peach,O,h,107,1,3715.800000011921,771619.900000006,7116,WL,A,1.0
6,4.299000024795532,distr,55700.99997520447,Wed Apr 02 2025 18:42:14 GMT-0500 (Central Daylight Time),775918.099999994,B,peachenter,O,enter,555,1,4298.199999988079,771619.900000006,7116,WL,A,1.0
6,4.83299994468689,distr,55167.00005531311,Wed Apr 02 2025 18:42:14 GMT-0500 (Central Daylight Time),776452.5,B,j,O,j,512,1,534.0999999940395,775918.400000006,7116,WL,A,2.0
6,5.08299994468689,distr,54917.00005531311,Wed Apr 02 2025 18:42:14 GMT-0500 (Central Daylight Time),776702.099999994,B,ju,O,u,215,1,783.6999999880791,775918.400000006,7116,WL,A,2.0
6,5.25,distr,54750.0,Wed Apr 02 2025 18:42:14 GMT-0500 (Central Daylight Time),776869.599999994,B,jus,O,s,142,1,951.1999999880791,775918.400000006,7116,WL,A,2.0
6,5.616999864578247,distr,54383.00013542175,Wed Apr 02 2025 18:42:14 GMT-0500 (Central Daylight Time),777234.599999994,B,jusd,O,d,325,1,1316.199999988079,775918.400000006,7116,WL,A,2.0
6,6.000999927520752,distr,53999.00007247925,Wed Apr 02 2025 18:42:14 GMT-0500 (Central Daylight Time),777618.5,B,jus,O,backspace,362,1,1700.0999999940395,775918.400000006,7116,WL,A,2.0
6,6.167999982833862,distr,53832.00001716614,Wed Apr 02 2025 18:42:14 GMT-0500 (Central Daylight Time),777785.099999994,B,ju,O,backspace,128,1,1866.699999988079,775918.400000006,7116,WL,A,2.0
6,6.283999919891357,distr,53716.00008010864,Wed Apr 02 2025 18:42:14 GMT-0500 (Central Daylight Time),777901.0,B,jud,O,d,88,1,1982.5999999940395,775918.400000006,7116,WL,A,2.0
6,6.550999879837036,distr,53449.000120162964,Wed Apr 02 2025 18:42:14 GMT-0500 (Central Daylight Time),778168.400000006,B,judg,O,g,256,1,2250.0,775918.400000006,7116,WL,A,2.0
6,6.784999847412109,distr,53215.00015258789,Wed Apr 02 2025 18:42:14 GMT-0500 (Central Daylight Time),778401.8000000119,B,judge,O,e,195,1,2483.4000000059605,775918.400000006,7116,WL,A,2.0
6,7.366999864578247,distr,52633.00013542175,Wed Apr 02 2025 18:42:14 GMT-0500 (Central Daylight Time),778983.900000006,B,judgeenter,O,enter,553,1,3065.5,775918.400000006,7116,WL,A,2.0
6,7.733999967575073,distr,52266.00003242493,Wed Apr 02 2025 18:42:14 GMT-0500 (Central Daylight Time),779351.2000000179,B,d,O,d,359,1,367.2000000178814,778984.0,7116,WL,A,3.0
6,8.184000015258789,distr,51815.99998474121,Wed Apr 02 2025 18:42:14 GMT-0500 (Central Daylight Time),779801.099999994,B,dq,O,q,412,1,817.0999999940395,778984.0,7116,WL,A,3.0
6,8.83299994468689,distr,51167.00005531311,Wed Apr 02 2025 18:42:14 GMT-0500 (Central Daylight Time),780450.7000000179,B,d,O,backspace,611,1,1466.7000000178814,778984.0,7116,WL,A,3.0
6,8.932999849319458,distr,51067.00015068054,Wed Apr 02 2025 18:42:14 GMT-0500 (Central Daylight Time),780550.3000000119,B,da,O,a,66,1,1566.300000011921,778984.0,7116,WL,A,3.0
6,9.184000015258789,distr,50815.99998474121,Wed Apr 02 2025 18:42:14 GMT-0500 (Central Daylight Time),780800.900000006,B,daw,O,w,226,1,1816.9000000059605,778984.0,7116,WL,A,3.0
6,9.5,distr,50500.0,Wed Apr 02 2025 18:42:14 GMT-0500 (Central Daylight Time),781117.5,B,dawn,O,n,275,1,2133.5,778984.0,7116,WL,A,3.0
6,10.082000017166138,distr,49917.99998283386,Wed Apr 02 2025 18:42:14 GMT-0500 (Central Daylight Time),781699.599999994,B,dawnenter,O,enter,553,1,2715.5999999940395,778984.0,7116,WL,A,3.0
6,10.58299994468689,distr,49417.00005531311,Wed Apr 02 2025 18:42:14 GMT-0500 (Central Daylight Time),782200.2000000179,B,b,O,b,492,1,500.40000000596046,781699.8000000119,7116,WL,A,4.0
6,10.950000047683716,distr,49049.999952316284,Wed Apr 02 2025 18:42:14 GMT-0500 (Central Daylight Time),782566.900000006,B,bo,O,o,339,1,867.0999999940395,781699.8000000119,7116,WL,A,4.0
6,11.465999841690063,distr,48534.00015830994,Wed Apr 02 2025 18:42:14 GMT-0500 (Central Daylight Time),783083.2000000179,B,bol,O,l,492,1,1383.4000000059605,781699.8000000119,7116,WL,A,4.0
6,11.998999834060669,distr,48001.00016593933,Wed Apr 02 2025 18:42:14 GMT-0500 (Central Daylight Time),783616.2000000179,B,bo,O,backspace,504,1,1916.4000000059605,781699.8000000119,7116,WL,A,4.0
6,12.115999937057495,distr,47884.000062942505,Wed Apr 02 2025 18:42:14 GMT-0500 (Central Daylight Time),783733.3000000119,B,bow,O,w,82,1,2033.5,781699.8000000119,7116,WL,A,4.0
6,12.315999984741211,distr,47684.00001525879,Wed Apr 02 2025 18:42:14 GMT-0500 (Central Daylight Time),783933.2000000179,B,bowl,O,l,166,1,2233.4000000059605,781699.8000000119,7116,WL,A,4.0
6,13.047999858856201,distr,46952.0001411438,Wed Apr 02 2025 18:42:14 GMT-0500 (Central Daylight Time),784665.2000000179,B,bowlenter,O,enter,702,1,2965.4000000059605,781699.8000000119,7116,WL,A,4.0
6,19.996999979019165,distr,40003.000020980835,Wed Apr 02 2025 18:42:14 GMT-0500 (Central Daylight Time),791614.0,B,s,O,s,6942,1,6948.4000000059605,784665.599999994,7116,WL,A,5.0
6,20.19700002670288,distr,39802.99997329712,Wed Apr 02 2025 18:42:14 GMT-0500 (Central Daylight Time),791814.400000006,B,se,O,e,176,1,7148.800000011921,784665.599999994,7116,WL,A,5.0
6,20.363999843597412,distr,39636.00015640259,Wed Apr 02 2025 18:42:14 GMT-0500 (Central Daylight Time),791980.900000006,B,see,O,e,124,1,7315.300000011921,784665.599999994,7116,WL,A,5.0
6,20.562999963760376,distr,39437.000036239624,Wed Apr 02 2025 18:42:14 GMT-0500 (Central Daylight Time),792180.7000000179,B,seed,O,d,166,1,7515.100000023842,784665.599999994,7116,WL,A,5.0
6,21.128999948501587,distr,38871.00005149841,Wed Apr 02 2025 18:42:14 GMT-0500 (Central Daylight Time),792745.900000006,B,seedenter,O,enter,527,1,8080.300000011921,784665.599999994,7116,WL,A,5.0
6,21.513000011444092,distr,38486.99998855591,Wed Apr 02 2025 18:42:14 GMT-0500 (Central Daylight Time),793130.3000000119,B,p,O,p,373,1,384.09999999403954,792746.2000000179,7116,WL,A,6.0
6,21.77999997138977,distr,38220.00002861023,Wed Apr 02 2025 18:42:14 GMT-0500 (Central Daylight Time),793396.8000000119,B,po,O,o,233,1,650.5999999940395,792746.2000000179,7116,WL,A,6.0
6,21.96299982070923,distr,38037.00017929077,Wed Apr 02 2025 18:42:14 GMT-0500 (Central Daylight Time),793580.099999994,B,poo,O,o,143,1,833.8999999761581,792746.2000000179,7116,WL,A,6.0
6,22.145999908447266,distr,37854.000091552734,Wed Apr 02 2025 18:42:14 GMT-0500 (Central Daylight Time),793763.2000000179,B,pool,O,l,153,1,1017.0,792746.2000000179,7116,WL,A,6.0
6,23.027999877929688,distr,36972.00012207031,Wed Apr 02 2025 18:42:14 GMT-0500 (Central Daylight Time),794645.3000000119,B,poolenter,O,enter,855,1,1899.0999999940395,792746.2000000179,7116,WL,A,6.0
6,24.062000036239624,distr,35937.999963760376,Wed Apr 02 2025 18:42:14 GMT-0500 (Central Daylight Time),795678.8000000119,B,s,O,s,1026,1,1033.300000011921,794645.5,7116,WL,A,7.0
6,24.477999925613403,distr,35522.0000743866,Wed Apr 02 2025 18:42:14 GMT-0500 (Central Daylight Time),796095.400000006,B,sh,O,h,389,1,1449.9000000059605,794645.5,7116,WL,A,7.0
6,24.661999940872192,distr,35338.00005912781,Wed Apr 02 2025 18:42:14 GMT-0500 (Central Daylight Time),796279.099999994,B,she,O,e,147,1,1633.5999999940395,794645.5,7116,WL,A,7.0
6,24.828999996185303,distr,35171.0000038147,Wed Apr 02 2025 18:42:14 GMT-0500 (Central Daylight Time),796446.599999994,B,shee,O,e,141,1,1801.0999999940395,794645.5,7116,WL,A,7.0
6,24.944000005722046,distr,35055.999994277954,Wed Apr 02 2025 18:42:14 GMT-0500 (Central Daylight Time),796561.599999994,B,sheep,O,p,90,1,1916.0999999940395,794645.5,7116,WL,A,7.0
6,26.32699990272522,distr,33673.00009727478,Wed Apr 02 2025 18:42:14 GMT-0500 (Central Daylight Time),797944.2000000179,B,sheepenter,O,enter,1353,1,3298.7000000178814,794645.5,7116,WL,A,7.0
6,30.72699999809265,distr,29273.00000190735,Wed Apr 02 2025 18:42:14 GMT-0500 (Central Daylight Time),802343.8000000119,B,s,O,s,4391,1,4399.300000011921,797944.5,7116,WL,A,8.0
6,30.942999839782715,distr,29057.000160217285,Wed Apr 02 2025 18:42:14 GMT-0500 (Central Daylight Time),802560.400000006,B,se,O,e,187,1,4615.9000000059605,797944.5,7116,WL,A,8.0
6,31.092999935150146,distr,28907.000064849854,Wed Apr 02 2025 18:42:14 GMT-0500 (Central Daylight Time),802710.3000000119,B,see,O,e,125,1,4765.800000011921,797944.5,7116,WL,A,8.0
6,31.292999982833862,distr,28707.000017166138,Wed Apr 02 2025 18:42:14 GMT-0500 (Central Daylight Time),802910.3000000119,B,seed,O,d,167,1,4965.800000011921,797944.5,7116,WL,A,8.0
6,31.89199995994568,distr,28108.00004005432,Wed Apr 02 2025 18:42:14 GMT-0500 (Central Daylight Time),803509.099999994,B,seedenter,O,enter,564,1,5564.5999999940395,797944.5,7116,WL,A,8.0
6,58.26799988746643,distr,1732.0001125335693,Wed Apr 02 2025 18:42:14 GMT-0500 (Central Daylight Time),829884.900000006,B,p,O,p,26354,1,26375.5,803509.400000006,7116,WL,A,9.0
6,58.550999879837036,distr,1449.0001201629639,Wed Apr 02 2025 18:42:14 GMT-0500 (Central Daylight Time),830168.3000000119,B,po,O,o,253,1,26658.90000000596,803509.400000006,7116,WL,A,9.0
6,58.76699995994568,distr,1233.0000400543213,Wed Apr 02 2025 18:42:14 GMT-0500 (Central Daylight Time),830384.599999994,B,poo,O,o,193,1,26875.19999998808,803509.400000006,7116,WL,A,9.0
6,59.48399996757507,distr,516.0000324249268,Wed Apr 02 2025 18:42:14 GMT-0500 (Central Daylight Time),831101.0,B,pool,O,l,676,1,27591.59999999404,803509.400000006,7116,WL,A,9.0
6,60.03399991989136,distr,-33.99991989135742,Wed Apr 02 2025 18:42:14 GMT-0500 (Central Daylight Time),831650.900000006,B,poolNone,O,None,524,1,28141.5,803509.400000006,7116,WL,A,9.0
7,1.566999912261963,immed,58433.00008773804,Wed Apr 02 2025 18:42:14 GMT-0500 (Central Daylight Time),848628.900000006,A,t,O,t,1526,1,1566.0,847062.900000006,7116,WL,A,1.0
7,1.7659997940063477,immed,58234.00020599365,Wed Apr 02 2025 18:42:14 GMT-0500 (Central Daylight Time),848828.3000000119,A,tr,O,r,167,1,1765.4000000059605,847062.900000006,7116,WL,A,1.0
7,2.232999801635742,immed,57767.00019836426,Wed Apr 02 2025 18:42:14 GMT-0500 (Central Daylight Time),849294.7000000179,A,tra,O,a,444,1,2231.800000011921,847062.900000006,7116,WL,A,1.0
7,2.432999849319458,immed,57567.00015068054,Wed Apr 02 2025 18:42:14 GMT-0500 (Central Daylight Time),849495.0,A,trai,O,i,166,1,2432.0999999940395,847062.900000006,7116,WL,A,1.0
7,2.5999999046325684,immed,57400.00009536743,Wed Apr 02 2025 18:42:14 GMT-0500 (Central Daylight Time),849662.3000000119,A,train,O,n,142,1,2599.4000000059605,847062.900000006,7116,WL,A,1.0
7,3.4819998741149902,immed,56518.00012588501,Wed Apr 02 2025 18:42:14 GMT-0500 (Central Daylight Time),850543.599999994,A,trainenter,O,enter,846,1,3480.699999988079,847062.900000006,7116,WL,A,1.0
7,4.015999794006348,immed,55984.00020599365,Wed Apr 02 2025 18:42:14 GMT-0500 (Central Daylight Time),851077.8000000119,A,f,O,f,519,1,533.9000000059605,850543.900000006,7116,WL,A,2.0
7,4.148999929428101,immed,55851.0000705719,Wed Apr 02 2025 18:42:14 GMT-0500 (Central Daylight Time),851210.599999994,A,fl,O,l,103,1,666.6999999880791,850543.900000006,7116,WL,A,2.0
7,4.365999937057495,immed,55634.000062942505,Wed Apr 02 2025 18:42:14 GMT-0500 (Central Daylight Time),851427.5,A,flo,O,o,187,1,883.5999999940395,850543.900000006,7116,WL,A,2.0
7,4.4659998416900635,immed,55534.00015830994,Wed Apr 02 2025 18:42:14 GMT-0500 (Central Daylight Time),851528.0,A,flow,O,w,71,1,984.0999999940395,850543.900000006,7116,WL,A,2.0
7,4.580999851226807,immed,55419.00014877319,Wed Apr 02 2025 18:42:14 GMT-0500 (Central Daylight Time),851643.400000006,A,flowe,O,e,73,1,1099.5,850543.900000006,7116,WL,A,2.0
7,4.698999881744385,immed,55301.000118255615,Wed Apr 02 2025 18:42:14 GMT-0500 (Central Daylight Time),851761.0,A,flower,O,r,96,1,1217.0999999940395,850543.900000006,7116,WL,A,2.0
7,6.263999938964844,immed,53736.000061035156,Wed Apr 02 2025 18:42:14 GMT-0500 (Central Daylight Time),853326.099999994,A,flowerenter,O,enter,1531,1,2782.199999988079,850543.900000006,7116,WL,A,2.0
7,6.648000001907349,immed,53351.99999809265,Wed Apr 02 2025 18:42:14 GMT-0500 (Central Daylight Time),853710.0,A,r,O,r,377,1,383.59999999403954,853326.400000006,7116,WL,A,3.0
7,6.9649999141693115,immed,53035.00008583069,Wed Apr 02 2025 18:42:14 GMT-0500 (Central Daylight Time),854026.900000006,A,ru,O,u,279,1,700.5,853326.400000006,7116,WL,A,3.0
7,7.23199987411499,immed,52768.00012588501,Wed Apr 02 2025 18:42:14 GMT-0500 (Central Daylight Time),854294.0,A,rug,O,g,241,1,967.5999999940395,853326.400000006,7116,WL,A,3.0
7,7.863999843597412,immed,52136.00015640259,Wed Apr 02 2025 18:42:14 GMT-0500 (Central Daylight Time),854925.5,A,rugenter,O,enter,606,1,1599.0999999940395,853326.400000006,7116,WL,A,3.0
7,8.180999994277954,immed,51819.000005722046,Wed Apr 02 2025 18:42:14 GMT-0500 (Central Daylight Time),855243.3000000119,A,m,O,m,305,1,317.59999999403954,854925.7000000179,7116,WL,A,4.0
7,8.363999843597412,immed,51636.00015640259,Wed Apr 02 2025 18:42:14 GMT-0500 (Central Daylight Time),855426.400000006,A,ma,O,a,155,1,500.69999998807907,854925.7000000179,7116,WL,A,4.0
7,8.947999954223633,immed,51052.00004577637,Wed Apr 02 2025 18:42:14 GMT-0500 (Central Daylight Time),856009.7000000179,A,m,O,backspace,558,1,1084.0,854925.7000000179,7116,WL,A,4.0
7,9.04699993133545,immed,50953.00006866455,Wed Apr 02 2025 18:42:14 GMT-0500 (Central Daylight Time),856109.099999994,A,me,O,e,63,1,1183.3999999761581,854925.7000000179,7116,WL,A,4.0
7,9.230999946594238,immed,50769.00005340576,Wed Apr 02 2025 18:42:14 GMT-0500 (Central Daylight Time),856292.7000000179,A,mea,O,a,143,1,1367.0,854925.7000000179,7116,WL,A,4.0
7,9.46399998664856,immed,50536.00001335144,Wed Apr 02 2025 18:42:14 GMT-0500 (Central Daylight Time),856526.0,A,mead,O,d,201,1,1600.2999999821186,854925.7000000179,7116,WL,A,4.0
7,9.613999843597412,immed,50386.00015640259,Wed Apr 02 2025 18:42:14 GMT-0500 (Central Daylight Time),856676.0,A,meado,O,o,110,1,1750.2999999821186,854925.7000000179,7116,WL,A,4.0
7,9.813999891281128,immed,50186.00010871887,Wed Apr 02 2025 18:42:14 GMT-0500 (Central Daylight Time),856876.0,A,meadow,O,w,170,1,1950.2999999821186,854925.7000000179,7116,WL,A,4.0
7,10.745999813079834,immed,49254.000186920166,Wed Apr 02 2025 18:42:14 GMT-0500 (Central Daylight Time),857807.900000006,A,meadowenter,O,enter,901,1,2882.199999988079,854925.7000000179,7116,WL,A,4.0
7,15.34500002861023,immed,44654.99997138977,Wed Apr 02 2025 18:42:14 GMT-0500 (Central Daylight Time),862407.3000000119,A,f,O,f,4591,1,4599.0999999940395,857808.2000000179,7116,WL,A,5.0
7,15.461999893188477,immed,44538.00010681152,Wed Apr 02 2025 18:42:14 GMT-0500 (Central Daylight Time),862523.400000006,A,fl,O,l,83,1,4715.199999988079,857808.2000000179,7116,WL,A,5.0
7,15.661999940872192,immed,44338.00005912781,Wed Apr 02 2025 18:42:14 GMT-0500 (Central Daylight Time),862724.0,A,flo,O,o,171,1,4915.799999982119,857808.2000000179,7116,WL,A,5.0
7,15.715999841690063,immed,44284.00015830994,Wed Apr 02 2025 18:42:14 GMT-0500 (Central Daylight Time),862778.0,A,flow,O,w,23,1,4969.799999982119,857808.2000000179,7116,WL,A,5.0
7,15.895999908447266,immed,44104.000091552734,Wed Apr 02 2025 18:42:14 GMT-0500 (Central Daylight Time),862957.8000000119,A,flowe,O,e,162,1,5149.5999999940395,857808.2000000179,7116,WL,A,5.0
7,16.044999837875366,immed,43955.000162124634,Wed Apr 02 2025 18:42:14 GMT-0500 (Central Daylight Time),863107.2000000179,A,flower,O,r,116,1,5299.0,857808.2000000179,7116,WL,A,5.0
