acc_sum,block,block_c,block_cond,con_img,correct,correct_response,datetime,endtime,face,jitter,line,project,response,response_time,row_sel,session_number,start_end,starttime,subject_id,task,task_vers,trial
1,prac,1,A,haborder.png,1,m,Thu Mar 06 2025 18:11:42 GMT-0600 (Central Standard Time),61893.10000000149,CFD-WF-013-009-HC.jpg,1500,solid,O,m,786,11,1,3066.8000000044703,58826.29999999702,7080,ATS,C,1
2,prac,1,A,haborder.png,1,m,Thu Mar 06 2025 18:11:42 GMT-0600 (Central Standard Time),65107.19999999553,CFD-WM-035-036-HC.jpg,1700,solid,O,m,702,9,1,6280.89999999851,58826.29999999702,7080,ATS,C,2
3,prac,1,A,haborder.png,1,z,Thu Mar 06 2025 18:11:42 GMT-0600 (Central Standard Time),67524.0,CFD-WF-023-013-A.jpg,1000,solid,O,z,646,12,1,8697.70000000298,58826.29999999702,7080,ATS,C,3
4,prac,1,A,haborder.png,1,z,Thu Mar 06 2025 18:11:42 GMT-0600 (Central Standard Time),69889.79999999702,CFD-BF-031-020-A.jpg,1000,solid,O,z,573,4,1,11063.5,58826.29999999702,7080,ATS,C,4
5,prac,1,A,haborder.png,1,m,Thu Mar 06 2025 18:11:42 GMT-0600 (Central Standard Time),73471.5,CFD-BF-019-004-HC.jpg,2000,solid,O,m,785,5,1,14645.20000000298,58826.29999999702,7080,ATS,C,5
6,prac,1,A,haborder.png,1,m,Thu Mar 06 2025 18:11:42 GMT-0600 (Central Standard Time),76604.5,CFD-BM-034-035-HC.jpg,1700,solid,O,m,637,1,1,17778.20000000298,58826.29999999702,7080,ATS,C,6
7,prac,1,A,haborder.png,1,z,Thu Mar 06 2025 18:11:42 GMT-0600 (Central Standard Time),79587.19999999553,CFD-BM-043-014-A.jpg,1600,solid,O,z,614,2,1,20760.89999999851,58826.29999999702,7080,ATS,C,7
8,prac,1,A,haborder.png,1,m,Thu Mar 06 2025 18:11:42 GMT-0600 (Central Standard Time),82535.5,CFD-BM-022-004-HC.jpg,1500,solid,O,m,658,3,1,23709.20000000298,58826.29999999702,7080,ATS,C,8
9,prac,1,A,haborder.png,1,z,Thu Mar 06 2025 18:11:42 GMT-0600 (Central Standard Time),86085.29999999702,CFD-WM-036-018-A.jpg,1900,solid,O,z,853,8,1,27259.0,58826.29999999702,7080,ATS,C,9
10,prac,1,A,haborder.png,1,z,Thu Mar 06 2025 18:11:42 GMT-0600 (Central Standard Time),89167.19999999553,CFD-WF-037-016-A.jpg,1600,solid,O,z,693,10,1,30340.89999999851,58826.29999999702,7080,ATS,C,10
11,prac,1,A,haborder.png,1,m,Thu Mar 06 2025 18:11:42 GMT-0600 (Central Standard Time),92050.0,CFD-WM-028-005-HC.jpg,1400,solid,O,m,707,7,1,33223.70000000298,58826.29999999702,7080,ATS,C,11
12,prac,1,A,haborder.png,1,z,Thu Mar 06 2025 18:11:42 GMT-0600 (Central Standard Time),94715.39999999851,CFD-BF-002-018-A.jpg,1200,solid,O,z,687,6,1,35889.10000000149,58826.29999999702,7080,ATS,C,12
1,prac,1,B,mfborder.png,1,m,Thu Mar 06 2025 18:11:42 GMT-0600 (Central Standard Time),126987.0,CFD-BM-022-004-HC.jpg,1700,1,O,m,920,dash,1,3414.89999999851,123572.10000000149,7080,ATS,C,1
2,prac,1,B,mfborder.png,1,z,Thu Mar 06 2025 18:11:42 GMT-0600 (Central Standard Time),130469.79999999702,CFD-BF-019-004-HC.jpg,1400,7,O,z,1285,dash,1,6897.69999999553,123572.10000000149,7080,ATS,C,2
3,prac,1,B,mfborder.png,1,z,Thu Mar 06 2025 18:11:42 GMT-0600 (Central Standard Time),133852.19999999553,CFD-WF-001-010-HC.jpg,1900,8,O,z,697,dash,1,10280.09999999404,123572.10000000149,7080,ATS,C,3
4,prac,1,B,mfborder.png,1,z,Thu Mar 06 2025 18:11:42 GMT-0600 (Central Standard Time),136818.0,CFD-BF-042-031-HC.jpg,1500,3,O,z,672,dash,1,13245.89999999851,123572.10000000149,7080,ATS,C,4
5,prac,1,B,mfborder.png,1,m,Thu Mar 06 2025 18:11:42 GMT-0600 (Central Standard Time),140234.1000000015,CFD-WM-035-036-HC.jpg,1600,10,O,m,1016,dash,1,16662.0,123572.10000000149,7080,ATS,C,5
6,prac,1,B,mfborder.png,1,m,Thu Mar 06 2025 18:11:42 GMT-0600 (Central Standard Time),143182.6000000015,CFD-WM-034-040-A.jpg,1200,6,O,m,950,dash,1,19610.5,123572.10000000149,7080,ATS,C,6
7,prac,1,B,mfborder.png,1,z,Thu Mar 06 2025 18:11:42 GMT-0600 (Central Standard Time),146164.6000000015,CFD-WF-013-009-HC.jpg,1000,12,O,z,1184,dash,1,22592.5,123572.10000000149,7080,ATS,C,7
8,prac,1,B,mfborder.png,1,m,Thu Mar 06 2025 18:11:42 GMT-0600 (Central Standard Time),149612.79999999702,CFD-BM-043-014-A.jpg,2000,5,O,m,634,dash,1,26040.69999999553,123572.10000000149,7080,ATS,C,8
9,prac,1,B,mfborder.png,1,m,Thu Mar 06 2025 18:11:42 GMT-0600 (Central Standard Time),152715.29999999702,CFD-WM-036-018-A.jpg,1700,9,O,m,606,dash,1,29143.19999999553,123572.10000000149,7080,ATS,C,9
10,prac,1,B,mfborder.png,1,z,Thu Mar 06 2025 18:11:42 GMT-0600 (Central Standard Time),155827.79999999702,CFD-WF-037-016-A.jpg,1500,11,O,z,819,dash,1,32255.69999999553,123572.10000000149,7080,ATS,C,10
11,prac,1,B,mfborder.png,1,m,Thu Mar 06 2025 18:11:42 GMT-0600 (Central Standard Time),158845.19999999553,CFD-BM-021-026-A.jpg,1600,2,O,m,620,dash,1,35273.09999999404,123572.10000000149,7080,ATS,C,11
12,prac,1,B,mfborder.png,1,z,Thu Mar 06 2025 18:11:42 GMT-0600 (Central Standard Time),161594.0,CFD-BF-031-020-A.jpg,1000,4,O,z,956,dash,1,38021.89999999851,123572.10000000149,7080,ATS,C,12
1,test,1,A,haborder.png,1,z,Thu Mar 06 2025 18:11:42 GMT-0600 (Central Standard Time),187734.0,CFD-WF-037-016-A.jpg,1600,solid,O,z,786,10,1,2415.60000000149,185318.3999999985,7080,ATS,C,1
2,test,1,A,haborder.png,1,z,Thu Mar 06 2025 18:11:42 GMT-0600 (Central Standard Time),189500.69999999553,CFD-BF-031-020-A.jpg,1000,solid,O,z,745,4,1,4182.29999999702,185318.3999999985,7080,ATS,C,2
3,test,1,A,haborder.png,1,m,Thu Mar 06 2025 18:11:42 GMT-0600 (Central Standard Time),191883.1000000015,CFD-BM-034-035-HC.jpg,1700,solid,O,m,665,1,1,6564.70000000298,185318.3999999985,7080,ATS,C,3
4,test,1,A,haborder.png,1,z,Thu Mar 06 2025 18:11:42 GMT-0600 (Central Standard Time),194032.3999999985,CFD-BF-002-018-A.jpg,1200,solid,O,z,925,6,1,8714.0,185318.3999999985,7080,ATS,C,4
5,test,1,A,haborder.png,1,z,Thu Mar 06 2025 18:11:42 GMT-0600 (Central Standard Time),196282.5,CFD-WF-037-016-A.jpg,1600,solid,O,z,616,10,1,10964.10000000149,185318.3999999985,7080,ATS,C,5
6,test,1,A,haborder.png,1,m,Thu Mar 06 2025 18:11:42 GMT-0600 (Central Standard Time),198480.5,CFD-WF-013-009-HC.jpg,1500,solid,O,m,674,11,1,13162.10000000149,185318.3999999985,7080,ATS,C,6
7,test,1,A,haborder.png,1,z,Thu Mar 06 2025 18:11:42 GMT-0600 (Central Standard Time),200397.3999999985,CFD-WF-023-013-A.jpg,1000,solid,O,z,894,12,1,15079.0,185318.3999999985,7080,ATS,C,7
8,test,1,A,haborder.png,1,m,Thu Mar 06 2025 18:11:42 GMT-0600 (Central Standard Time),202561.6000000015,CFD-WM-028-005-HC.jpg,1400,solid,O,m,748,7,1,17243.20000000298,185318.3999999985,7080,ATS,C,8
9,test,1,A,haborder.png,1,z,Thu Mar 06 2025 18:11:42 GMT-0600 (Central Standard Time),204496.79999999702,CFD-BF-002-018-A.jpg,1200,solid,O,z,709,6,1,19178.39999999851,185318.3999999985,7080,ATS,C,9
10,test,1,A,haborder.png,1,z,Thu Mar 06 2025 18:11:42 GMT-0600 (Central Standard Time),207180.3999999985,CFD-WM-036-018-A.jpg,1900,solid,O,z,765,8,1,21862.0,185318.3999999985,7080,ATS,C,10
11,test,1,A,haborder.png,1,z,Thu Mar 06 2025 18:11:42 GMT-0600 (Central Standard Time),208894.6000000015,CFD-WF-023-013-A.jpg,1000,solid,O,z,686,12,1,23576.20000000298,185318.3999999985,7080,ATS,C,11
12,test,1,A,haborder.png,1,m,Thu Mar 06 2025 18:11:42 GMT-0600 (Central Standard Time),211327.0,CFD-BM-034-035-HC.jpg,1700,solid,O,m,709,1,1,26008.60000000149,185318.3999999985,7080,ATS,C,12
13,test,1,A,haborder.png,1,z,Thu Mar 06 2025 18:11:42 GMT-0600 (Central Standard Time),213643.79999999702,CFD-BM-043-014-A.jpg,1600,solid,O,z,697,2,1,28325.39999999851,185318.3999999985,7080,ATS,C,13
14,test,1,A,haborder.png,1,m,Thu Mar 06 2025 18:11:42 GMT-0600 (Central Standard Time),215842.29999999702,CFD-BM-022-004-HC.jpg,1500,solid,O,m,656,3,1,30523.89999999851,185318.3999999985,7080,ATS,C,14
15,test,1,A,haborder.png,1,z,Thu Mar 06 2025 18:11:42 GMT-0600 (Central Standard Time),218476.29999999702,CFD-WM-036-018-A.jpg,1900,solid,O,z,717,8,1,33157.89999999851,185318.3999999985,7080,ATS,C,15
16,test,1,A,haborder.png,1,m,Thu Mar 06 2025 18:11:42 GMT-0600 (Central Standard Time),221190.8999999985,CFD-BF-019-004-HC.jpg,2000,solid,O,m,686,5,1,35872.5,185318.3999999985,7080,ATS,C,16
17,test,1,A,haborder.png,1,m,Thu Mar 06 2025 18:11:42 GMT-0600 (Central Standard Time),223890.69999999553,CFD-BF-019-004-HC.jpg,2000,solid,O,m,672,5,1,38572.29999999702,185318.3999999985,7080,ATS,C,17
18,test,1,A,haborder.png,1,m,Thu Mar 06 2025 18:11:42 GMT-0600 (Central Standard Time),226373.0,CFD-WM-035-036-HC.jpg,1700,solid,O,m,764,9,1,41054.60000000149,185318.3999999985,7080,ATS,C,18
19,test,1,A,haborder.png,1,m,Thu Mar 06 2025 18:11:42 GMT-0600 (Central Standard Time),228605.6000000015,CFD-WM-035-036-HC.jpg,1700,solid,O,m,504,9,1,43287.20000000298,185318.3999999985,7080,ATS,C,19
20,test,1,A,haborder.png,1,m,Thu Mar 06 2025 18:11:42 GMT-0600 (Central Standard Time),230705.19999999553,CFD-WM-028-005-HC.jpg,1400,solid,O,m,664,7,1,45386.79999999702,185318.3999999985,7080,ATS,C,20
21,test,1,A,haborder.png,1,m,Thu Mar 06 2025 18:11:42 GMT-0600 (Central Standard Time),232886.3999999985,CFD-WF-013-009-HC.jpg,1500,solid,O,m,652,11,1,47568.0,185318.3999999985,7080,ATS,C,21
22,test,1,A,haborder.png,1,z,Thu Mar 06 2025 18:11:42 GMT-0600 (Central Standard Time),234537.19999999553,CFD-BF-031-020-A.jpg,1000,solid,O,z,625,4,1,49218.79999999702,185318.3999999985,7080,ATS,C,22
23,test,1,A,haborder.png,1,m,Thu Mar 06 2025 18:11:42 GMT-0600 (Central Standard Time),236744.1000000015,CFD-BM-022-004-HC.jpg,1500,solid,O,m,676,3,1,51425.70000000298,185318.3999999985,7080,ATS,C,23
24,test,1,A,haborder.png,1,z,Thu Mar 06 2025 18:11:42 GMT-0600 (Central Standard Time),239068.19999999553,CFD-BM-043-014-A.jpg,1600,solid,O,z,711,2,1,53749.79999999702,185318.3999999985,7080,ATS,C,24
1,test,1,B,mfborder.png,1,m,Thu Mar 06 2025 18:11:42 GMT-0600 (Central Standard Time),260196.79999999702,CFD-BM-021-026-A.jpg,1600,dash,O,m,600,2,1,2234.10000000149,257962.69999999553,7080,ATS,C,1
2,test,1,B,mfborder.png,1,z,Thu Mar 06 2025 18:11:42 GMT-0600 (Central Standard Time),262378.8999999985,CFD-WF-037-016-A.jpg,1500,dash,O,z,655,11,1,4416.20000000298,257962.69999999553,7080,ATS,C,2
3,test,1,B,mfborder.png,1,m,Thu Mar 06 2025 18:11:42 GMT-0600 (Central Standard Time),264960.1000000015,CFD-BM-043-014-A.jpg,2000,dash,O,m,558,5,1,6997.4000000059605,257962.69999999553,7080,ATS,C,3
4,test,1,B,mfborder.png,1,m,Thu Mar 06 2025 18:11:42 GMT-0600 (Central Standard Time),267194.3999999985,CFD-WM-035-036-HC.jpg,1600,dash,O,m,616,10,1,9231.70000000298,257962.69999999553,7080,ATS,C,4
5,test,1,B,mfborder.png,1,m,Thu Mar 06 2025 18:11:42 GMT-0600 (Central Standard Time),269410.5,CFD-BM-021-026-A.jpg,1600,dash,O,m,593,2,1,11447.80000000447,257962.69999999553,7080,ATS,C,5
6,test,1,B,mfborder.png,1,z,Thu Mar 06 2025 18:11:42 GMT-0600 (Central Standard Time),271907.69999999553,CFD-WF-001-010-HC.jpg,1900,dash,O,z,572,8,1,13945.0,257962.69999999553,7080,ATS,C,6
7,test,1,B,mfborder.png,1,z,Thu Mar 06 2025 18:11:42 GMT-0600 (Central Standard Time),274040.299999997,CFD-BF-019-004-HC.jpg,1400,dash,O,z,708,7,1,16077.60000000149,257962.69999999553,7080,ATS,C,7
8,test,1,B,mfborder.png,1,m,Thu Mar 06 2025 18:11:42 GMT-0600 (Central Standard Time),276389.8999999985,CFD-BM-022-004-HC.jpg,1700,dash,O,m,628,1,1,18427.20000000298,257962.69999999553,7080,ATS,C,8
9,test,1,B,mfborder.png,1,z,Thu Mar 06 2025 18:11:42 GMT-0600 (Central Standard Time),278105.69999999553,CFD-BF-031-020-A.jpg,1000,dash,O,z,691,4,1,20143.0,257962.69999999553,7080,ATS,C,9
10,test,1,B,mfborder.png,1,z,Thu Mar 06 2025 18:11:42 GMT-0600 (Central Standard Time),279740.6000000015,CFD-BF-031-020-A.jpg,1000,dash,O,z,616,4,1,21777.90000000596,257962.69999999553,7080,ATS,C,10
11,test,1,B,mfborder.png,1,m,Thu Mar 06 2025 18:11:42 GMT-0600 (Central Standard Time),282071.3999999985,CFD-WM-036-018-A.jpg,1700,dash,O,m,601,9,1,24108.70000000298,257962.69999999553,7080,ATS,C,11
12,test,1,B,mfborder.png,1,m,Thu Mar 06 2025 18:11:42 GMT-0600 (Central Standard Time),284388.19999999553,CFD-BM-022-004-HC.jpg,1700,dash,O,m,597,1,1,26425.5,257962.69999999553,7080,ATS,C,12
13,test,1,B,mfborder.png,1,z,Thu Mar 06 2025 18:11:42 GMT-0600 (Central Standard Time),286537.69999999553,CFD-BF-042-031-HC.jpg,1500,dash,O,z,624,3,1,28575.0,257962.69999999553,7080,ATS,C,13
14,test,1,B,mfborder.png,1,m,Thu Mar 06 2025 18:11:42 GMT-0600 (Central Standard Time),288369.8999999985,CFD-WM-034-040-A.jpg,1200,dash,O,m,608,6,1,30407.20000000298,257962.69999999553,7080,ATS,C,14
15,test,1,B,mfborder.png,1,m,Thu Mar 06 2025 18:11:42 GMT-0600 (Central Standard Time),290734.8999999985,CFD-WM-036-018-A.jpg,1700,dash,O,m,642,9,1,32772.20000000298,257962.69999999553,7080,ATS,C,15
16,test,1,B,mfborder.png,1,z,Thu Mar 06 2025 18:11:42 GMT-0600 (Central Standard Time),293284.3999999985,CFD-WF-001-010-HC.jpg,1900,dash,O,z,641,8,1,35321.70000000298,257962.69999999553,7080,ATS,C,16
17,test,1,B,mfborder.png,1,m,Thu Mar 06 2025 18:11:42 GMT-0600 (Central Standard Time),295533.799999997,CFD-WM-035-036-HC.jpg,1600,dash,O,m,619,10,1,37571.10000000149,257962.69999999553,7080,ATS,C,17
18,test,1,B,mfborder.png,1,m,Thu Mar 06 2025 18:11:42 GMT-0600 (Central Standard Time),298166.3999999985,CFD-BM-043-014-A.jpg,2000,dash,O,m,601,5,1,40203.70000000298,257962.69999999553,7080,ATS,C,18
19,test,1,B,mfborder.png,1,z,Thu Mar 06 2025 18:11:42 GMT-0600 (Central Standard Time),300313.69999999553,CFD-BF-042-031-HC.jpg,1500,dash,O,z,620,3,1,42351.0,257962.69999999553,7080,ATS,C,19
20,test,1,B,mfborder.png,1,z,Thu Mar 06 2025 18:11:42 GMT-0600 (Central Standard Time),302031.69999999553,CFD-WF-013-009-HC.jpg,1000,dash,O,z,686,12,1,44069.0,257962.69999999553,7080,ATS,C,20
21,test,1,B,mfborder.png,1,z,Thu Mar 06 2025 18:11:42 GMT-0600 (Central Standard Time),303615.19999999553,CFD-WF-013-009-HC.jpg,1000,dash,O,z,561,12,1,45652.5,257962.69999999553,7080,ATS,C,21
22,test,1,B,mfborder.png,1,m,Thu Mar 06 2025 18:11:42 GMT-0600 (Central Standard Time),305498.0,CFD-WM-034-040-A.jpg,1200,dash,O,m,665,6,1,47535.30000000447,257962.69999999553,7080,ATS,C,22
23,test,1,B,mfborder.png,1,z,Thu Mar 06 2025 18:11:42 GMT-0600 (Central Standard Time),307629.6000000015,CFD-WF-037-016-A.jpg,1500,dash,O,z,602,11,1,49666.90000000596,257962.69999999553,7080,ATS,C,23
24,test,1,B,mfborder.png,1,z,Thu Mar 06 2025 18:11:42 GMT-0600 (Central Standard Time),309612.19999999553,CFD-BF-019-004-HC.jpg,1400,dash,O,z,552,7,1,51649.5,257962.69999999553,7080,ATS,C,24
1,prac,1,C,mfborder.png,1,m,Thu Mar 06 2025 18:11:42 GMT-0600 (Central Standard Time),371942.6000000015,CFD-WM-036-018-A.jpg,1700,solid,O,m,1233,7,1,3716.0,368226.6000000015,7080,ATS,C,1
2,prac,1,C,mfborder.png,1,m,Thu Mar 06 2025 18:11:42 GMT-0600 (Central Standard Time),374876.299999997,CFD-BM-043-014-A.jpg,1200,dash,O,m,965,7,1,6649.69999999553,368226.6000000015,7080,ATS,C,2
3,prac,1,C,haborder.png,1,z,Thu Mar 06 2025 18:11:42 GMT-0600 (Central Standard Time),378208.19999999553,CFD-BF-002-018-A.jpg,1700,solid,O,z,849,7,1,9981.59999999404,368226.6000000015,7080,ATS,C,3
3,prac,1,C,mfborder.png,0,z,Thu Mar 06 2025 18:11:42 GMT-0600 (Central Standard Time),381641.1000000015,CFD-WF-013-009-HC.jpg,1600,dash,O,m,1033,7,1,13414.5,368226.6000000015,7080,ATS,C,4
4,prac,1,C,mfborder.png,1,z,Thu Mar 06 2025 18:11:42 GMT-0600 (Central Standard Time),385072.3999999985,CFD-WF-023-013-A.jpg,1500,solid,O,z,1149,7,1,16845.79999999702,368226.6000000015,7080,ATS,C,5
5,prac,1,C,mfborder.png,1,z,Thu Mar 06 2025 18:11:42 GMT-0600 (Central Standard Time),388188.5,CFD-BF-019-004-HC.jpg,1000,dash,O,z,1333,7,1,19961.89999999851,368226.6000000015,7080,ATS,C,6
6,prac,1,C,haborder.png,1,z,Thu Mar 06 2025 18:11:42 GMT-0600 (Central Standard Time),392068.3999999985,CFD-WF-037-016-A.jpg,1600,dash,O,z,1485,7,1,23841.79999999702,368226.6000000015,7080,ATS,C,7
7,prac,1,C,mfborder.png,1,m,Thu Mar 06 2025 18:11:42 GMT-0600 (Central Standard Time),396168.8999999985,CFD-BM-034-035-HC.jpg,2000,solid,O,m,1306,7,1,27942.29999999702,368226.6000000015,7080,ATS,C,8
8,prac,1,C,haborder.png,1,m,Thu Mar 06 2025 18:11:42 GMT-0600 (Central Standard Time),399568.6000000015,CFD-WM-028-005-HC.jpg,1400,solid,O,m,1208,7,1,31342.0,368226.6000000015,7080,ATS,C,9
8,prac,1,C,haborder.png,0,z,Thu Mar 06 2025 18:11:42 GMT-0600 (Central Standard Time),403765.8999999985,CFD-BF-031-020-A.jpg,1900,dash,O,None,1516,7,1,35539.29999999702,368226.6000000015,7080,ATS,C,10
8,prac,1,C,haborder.png,0,m,Thu Mar 06 2025 18:11:42 GMT-0600 (Central Standard Time),407564.3999999985,CFD-BM-022-004-HC.jpg,1500,solid,O,None,1515,7,1,39337.79999999702,368226.6000000015,7080,ATS,C,11
9,prac,1,C,haborder.png,1,m,Thu Mar 06 2025 18:11:42 GMT-0600 (Central Standard Time),410215.0,CFD-WM-028-005-HC.jpg,1000,dash,O,m,851,7,1,41988.39999999851,368226.6000000015,7080,ATS,C,12
1,test,1,C,mfborder.png,1,m,Thu Mar 06 2025 18:11:42 GMT-0600 (Central Standard Time),428157.6000000015,CFD-WM-034-040-A.jpg,2000,dash,O,m,1010,5,1,3031.4000000059605,425126.19999999553,7080,ATS,C,1
2,test,1,C,haborder.png,1,z,Thu Mar 06 2025 18:11:42 GMT-0600 (Central Standard Time),430939.8999999985,CFD-WM-036-018-A.jpg,1400,solid,O,z,1352,7,1,5813.70000000298,425126.19999999553,7080,ATS,C,2
3,test,1,C,haborder.png,1,m,Thu Mar 06 2025 18:11:42 GMT-0600 (Central Standard Time),433790.3999999985,CFD-BF-019-004-HC.jpg,1600,solid,O,m,1233,10,1,8664.20000000298,425126.19999999553,7080,ATS,C,3
4,test,1,C,mfborder.png,1,z,Thu Mar 06 2025 18:11:42 GMT-0600 (Central Standard Time),436506.1000000015,CFD-BF-031-020-A.jpg,1600,dash,O,z,1090,2,1,11379.90000000596,425126.19999999553,7080,ATS,C,4
4,test,1,C,haborder.png,0,z,Thu Mar 06 2025 18:11:42 GMT-0600 (Central Standard Time),439939.5,CFD-BM-043-014-A.jpg,1900,solid,O,None,1516,8,1,14813.30000000447,425126.19999999553,7080,ATS,C,5
5,test,1,C,haborder.png,1,z,Thu Mar 06 2025 18:11:42 GMT-0600 (Central Standard Time),442820.69999999553,CFD-BM-043-014-A.jpg,1900,solid,O,z,965,8,1,17694.5,425126.19999999553,7080,ATS,C,6
6,test,1,C,mfborder.png,1,z,Thu Mar 06 2025 18:11:42 GMT-0600 (Central Standard Time),445701.8999999985,CFD-BF-042-031-HC.jpg,1700,dash,O,z,1159,1,1,20575.70000000298,425126.19999999553,7080,ATS,C,7
7,test,1,C,haborder.png,1,m,Thu Mar 06 2025 18:11:42 GMT-0600 (Central Standard Time),448603.0,CFD-BF-019-004-HC.jpg,1600,solid,O,m,1283,10,1,23476.80000000447,425126.19999999553,7080,ATS,C,8
7,test,1,C,haborder.png,0,z,Thu Mar 06 2025 18:11:42 GMT-0600 (Central Standard Time),451834.69999999553,CFD-BM-021-026-A.jpg,1700,solid,O,None,1517,9,1,26708.5,425126.19999999553,7080,ATS,C,9
7,test,1,C,mfborder.png,0,z,Thu Mar 06 2025 18:11:42 GMT-0600 (Central Standard Time),455066.1000000015,CFD-BF-042-031-HC.jpg,1700,dash,O,None,1508,1,1,29939.90000000596,425126.19999999553,7080,ATS,C,10
7,test,1,C,haborder.png,0,z,Thu Mar 06 2025 18:11:42 GMT-0600 (Central Standard Time),458299.799999997,CFD-BM-021-026-A.jpg,1700,solid,O,None,1515,9,1,33173.60000000149,425126.19999999553,7080,ATS,C,11
8,test,1,C,mfborder.png,1,m,Thu Mar 06 2025 18:11:42 GMT-0600 (Central Standard Time),461638.799999997,CFD-WM-034-040-A.jpg,2000,dash,O,m,1309,5,1,36512.60000000149,425126.19999999553,7080,ATS,C,12
9,test,1,C,mfborder.png,1,z,Thu Mar 06 2025 18:11:42 GMT-0600 (Central Standard Time),464113.6000000015,CFD-WF-037-016-A.jpg,1500,dash,O,z,957,3,1,38987.40000000596,425126.19999999553,7080,ATS,C,13
10,test,1,C,mfborder.png,1,z,Thu Mar 06 2025 18:11:42 GMT-0600 (Central Standard Time),466629.5,CFD-WF-037-016-A.jpg,1500,dash,O,z,996,3,1,41503.30000000447,425126.19999999553,7080,ATS,C,14
11,test,1,C,mfborder.png,1,z,Thu Mar 06 2025 18:11:42 GMT-0600 (Central Standard Time),469112.5,CFD-BF-031-020-A.jpg,1600,dash,O,z,859,2,1,43986.30000000447,425126.19999999553,7080,ATS,C,15
12,test,1,C,mfborder.png,1,m,Thu Mar 06 2025 18:11:42 GMT-0600 (Central Standard Time),471112.6000000015,CFD-WM-035-036-HC.jpg,1000,dash,O,m,968,4,1,45986.40000000596,425126.19999999553,7080,ATS,C,16
13,test,1,C,haborder.png,1,m,Thu Mar 06 2025 18:11:42 GMT-0600 (Central Standard Time),473395.3999999985,CFD-WF-013-009-HC.jpg,1000,solid,O,m,1266,12,1,48269.20000000298,425126.19999999553,7080,ATS,C,17
14,test,1,C,mfborder.png,1,m,Thu Mar 06 2025 18:11:42 GMT-0600 (Central Standard Time),475928.0,CFD-BM-022-004-HC.jpg,1200,dash,O,m,1302,6,1,50801.80000000447,425126.19999999553,7080,ATS,C,18
15,test,1,C,mfborder.png,1,m,Thu Mar 06 2025 18:11:42 GMT-0600 (Central Standard Time),477758.5,CFD-WM-035-036-HC.jpg,1000,dash,O,m,809,4,1,52632.30000000447,425126.19999999553,7080,ATS,C,19
15,test,1,C,haborder.png,0,m,Thu Mar 06 2025 18:11:42 GMT-0600 (Central Standard Time),480291.299999997,CFD-WF-013-009-HC.jpg,1000,solid,O,None,1514,12,1,55165.10000000149,425126.19999999553,7080,ATS,C,20
16,test,1,C,haborder.png,1,m,Thu Mar 06 2025 18:11:42 GMT-0600 (Central Standard Time),482974.0,CFD-WF-001-010-HC.jpg,1500,solid,O,m,1160,11,1,57847.80000000447,425126.19999999553,7080,ATS,C,21
17,test,1,C,haborder.png,1,z,Thu Mar 06 2025 18:11:42 GMT-0600 (Central Standard Time),485490.5,CFD-WM-036-018-A.jpg,1400,solid,O,z,1075,7,1,60364.30000000447,425126.19999999553,7080,ATS,C,22
18,test,1,C,mfborder.png,1,m,Thu Mar 06 2025 18:11:42 GMT-0600 (Central Standard Time),487674.5,CFD-BM-022-004-HC.jpg,1200,dash,O,m,951,6,1,62548.30000000447,425126.19999999553,7080,ATS,C,23
18,test,1,C,haborder.png,0,m,Thu Mar 06 2025 18:11:42 GMT-0600 (Central Standard Time),490438.799999997,CFD-WF-001-010-HC.jpg,1500,solid,O,z,1245,11,1,65312.60000000149,425126.19999999553,7080,ATS,C,24
1,test,2,C,haborder.png,1,z,Thu Mar 06 2025 18:11:42 GMT-0600 (Central Standard Time),497303.3999999985,CFD-BF-031-020-A.jpg,1400,solid,O,z,1294,7,1,2716.39999999851,494587.0,7080,ATS,C,1
2,test,2,C,haborder.png,1,m,Thu Mar 06 2025 18:11:42 GMT-0600 (Central Standard Time),499935.1000000015,CFD-WM-028-005-HC.jpg,1500,solid,O,m,1110,11,1,5348.10000000149,494587.0,7080,ATS,C,2
2,test,2,C,mfborder.png,0,m,Thu Mar 06 2025 18:11:42 GMT-0600 (Central Standard Time),502668.3999999985,CFD-WM-036-018-A.jpg,1200,dash,O,None,1515,6,1,8081.39999999851,494587.0,7080,ATS,C,3
3,test,2,C,haborder.png,1,m,Thu Mar 06 2025 18:11:42 GMT-0600 (Central Standard Time),504733.8999999985,CFD-WM-028-005-HC.jpg,1000,solid,O,m,1045,12,1,10146.89999999851,494587.0,7080,ATS,C,4
4,test,2,C,haborder.png,1,m,Thu Mar 06 2025 18:11:42 GMT-0600 (Central Standard Time),507334.0,CFD-BM-022-004-HC.jpg,1600,solid,O,m,971,10,1,12747.0,494587.0,7080,ATS,C,5
5,test,2,C,haborder.png,1,m,Thu Mar 06 2025 18:11:42 GMT-0600 (Central Standard Time),509731.19999999553,CFD-WM-028-005-HC.jpg,1500,solid,O,m,880,11,1,15144.19999999553,494587.0,7080,ATS,C,6
6,test,2,C,haborder.png,1,z,Thu Mar 06 2025 18:11:42 GMT-0600 (Central Standard Time),512865.1000000015,CFD-BF-002-018-A.jpg,1900,solid,O,z,1199,8,1,18278.10000000149,494587.0,7080,ATS,C,7
6,test,2,C,haborder.png,0,m,Thu Mar 06 2025 18:11:42 GMT-0600 (Central Standard Time),515398.69999999553,CFD-WM-028-005-HC.jpg,1000,solid,O,None,1509,12,1,20811.69999999553,494587.0,7080,ATS,C,8
6,test,2,C,mfborder.png,0,m,Thu Mar 06 2025 18:11:42 GMT-0600 (Central Standard Time),518628.69999999553,CFD-BM-043-014-A.jpg,2000,dash,O,z,1212,5,1,24041.69999999553,494587.0,7080,ATS,C,9
7,test,2,C,mfborder.png,1,m,Thu Mar 06 2025 18:11:42 GMT-0600 (Central Standard Time),520931.1000000015,CFD-WM-036-018-A.jpg,1200,dash,O,m,1084,6,1,26344.10000000149,494587.0,7080,ATS,C,10
8,test,2,C,mfborder.png,1,z,Thu Mar 06 2025 18:11:42 GMT-0600 (Central Standard Time),523497.1000000015,CFD-WF-023-013-A.jpg,1600,dash,O,z,943,2,1,28910.10000000149,494587.0,7080,ATS,C,11
9,test,2,C,haborder.png,1,z,Thu Mar 06 2025 18:11:42 GMT-0600 (Central Standard Time),525961.1999999955,CFD-BF-031-020-A.jpg,1400,solid,O,z,1042,7,1,31374.19999999553,494587.0,7080,ATS,C,12
10,test,2,C,haborder.png,1,z,Thu Mar 06 2025 18:11:42 GMT-0600 (Central Standard Time),528709.8999999985,CFD-BF-002-018-A.jpg,1900,solid,O,z,819,8,1,34122.89999999851,494587.0,7080,ATS,C,13
11,test,2,C,haborder.png,1,z,Thu Mar 06 2025 18:11:42 GMT-0600 (Central Standard Time),531358.5,CFD-WF-037-016-A.jpg,1700,solid,O,z,926,9,1,36771.5,494587.0,7080,ATS,C,14
12,test,2,C,mfborder.png,1,z,Thu Mar 06 2025 18:11:42 GMT-0600 (Central Standard Time),534225.3999999985,CFD-BF-019-004-HC.jpg,1500,dash,O,z,1332,3,1,39638.39999999851,494587.0,7080,ATS,C,15
13,test,2,C,mfborder.png,1,m,Thu Mar 06 2025 18:11:42 GMT-0600 (Central Standard Time),536674.1000000015,CFD-BM-034-035-HC.jpg,1000,dash,O,m,1414,4,1,42087.10000000149,494587.0,7080,ATS,C,16
14,test,2,C,haborder.png,1,m,Thu Mar 06 2025 18:11:42 GMT-0600 (Central Standard Time),539756.6999999955,CFD-BM-022-004-HC.jpg,1600,solid,O,m,1465,10,1,45169.69999999553,494587.0,7080,ATS,C,17
14,test,2,C,mfborder.png,0,z,Thu Mar 06 2025 18:11:42 GMT-0600 (Central Standard Time),542987.799999997,CFD-WF-013-009-HC.jpg,1700,dash,O,None,1514,1,1,48400.79999999702,494587.0,7080,ATS,C,18
15,test,2,C,mfborder.png,1,z,Thu Mar 06 2025 18:11:42 GMT-0600 (Central Standard Time),545370.5,CFD-WF-013-009-HC.jpg,1700,dash,O,z,655,1,1,50783.5,494587.0,7080,ATS,C,19
15,test,2,C,mfborder.png,0,m,Thu Mar 06 2025 18:11:42 GMT-0600 (Central Standard Time),548904.1999999955,CFD-BM-043-014-A.jpg,2000,dash,O,None,1516,5,1,54317.19999999553,494587.0,7080,ATS,C,20
15,test,2,C,mfborder.png,0,m,Thu Mar 06 2025 18:11:42 GMT-0600 (Central Standard Time),551436.299999997,CFD-BM-034-035-HC.jpg,1000,dash,O,None,1516,4,1,56849.29999999702,494587.0,7080,ATS,C,21
16,test,2,C,mfborder.png,1,z,Thu Mar 06 2025 18:11:42 GMT-0600 (Central Standard Time),554169.1999999955,CFD-WF-023-013-A.jpg,1600,dash,O,z,1100,2,1,59582.19999999553,494587.0,7080,ATS,C,22
17,test,2,C,haborder.png,1,z,Thu Mar 06 2025 18:11:42 GMT-0600 (Central Standard Time),557101.6999999955,CFD-WF-037-016-A.jpg,1700,solid,O,z,1215,9,1,62514.69999999553,494587.0,7080,ATS,C,23
17,test,2,C,mfborder.png,0,z,Thu Mar 06 2025 18:11:42 GMT-0600 (Central Standard Time),560134.1000000015,CFD-BF-019-004-HC.jpg,1500,dash,O,None,1515,3,1,65547.10000000149,494587.0,7080,ATS,C,24
0,test,3,C,haborder.png,0,m,Thu Mar 06 2025 18:11:42 GMT-0600 (Central Standard Time),565447.799999997,CFD-WF-001-010-HC.jpg,1500,solid,O,None,1507,11,1,3032.6999999955297,562415.1000000015,7080,ATS,C,1
1,test,3,C,haborder.png,1,m,Thu Mar 06 2025 18:11:42 GMT-0600 (Central Standard Time),568080.3999999985,CFD-BF-019-004-HC.jpg,1600,solid,O,m,999,10,1,5665.29999999702,562415.1000000015,7080,ATS,C,2
1,test,3,C,mfborder.png,0,m,Thu Mar 06 2025 18:11:42 GMT-0600 (Central Standard Time),571129.799999997,CFD-WM-034-040-A.jpg,2000,dash,O,z,1033,5,1,8714.69999999553,562415.1000000015,7080,ATS,C,3
1,test,3,C,haborder.png,0,z,Thu Mar 06 2025 18:11:42 GMT-0600 (Central Standard Time),574029.3999999985,CFD-BM-043-014-A.jpg,1900,solid,O,m,982,8,1,11614.29999999702,562415.1000000015,7080,ATS,C,4
1,test,3,C,mfborder.png,0,z,Thu Mar 06 2025 18:11:42 GMT-0600 (Central Standard Time),576878.5,CFD-BF-031-020-A.jpg,1600,dash,O,m,1219,2,1,14463.39999999851,562415.1000000015,7080,ATS,C,5
2,test,3,C,mfborder.png,1,z,Thu Mar 06 2025 18:11:42 GMT-0600 (Central Standard Time),579276.0,CFD-WF-037-016-A.jpg,1500,dash,O,z,878,3,1,16860.89999999851,562415.1000000015,7080,ATS,C,6
3,test,3,C,mfborder.png,1,z,Thu Mar 06 2025 18:11:42 GMT-0600 (Central Standard Time),581482.299999997,CFD-BF-031-020-A.jpg,1600,dash,O,z,578,2,1,19067.19999999553,562415.1000000015,7080,ATS,C,7
3,test,3,C,haborder.png,0,z,Thu Mar 06 2025 18:11:42 GMT-0600 (Central Standard Time),584540.6999999955,CFD-BM-043-014-A.jpg,1900,solid,O,m,1144,8,1,22125.59999999404,562415.1000000015,7080,ATS,C,8
4,test,3,C,mfborder.png,1,z,Thu Mar 06 2025 18:11:42 GMT-0600 (Central Standard Time),587490.6999999955,CFD-BF-042-031-HC.jpg,1700,dash,O,z,1222,1,1,25075.59999999404,562415.1000000015,7080,ATS,C,9
4,test,3,C,haborder.png,0,m,Thu Mar 06 2025 18:11:42 GMT-0600 (Central Standard Time),590024.0,CFD-WF-013-009-HC.jpg,1000,solid,O,None,1515,12,1,27608.89999999851,562415.1000000015,7080,ATS,C,10
4,test,3,C,haborder.png,0,z,Thu Mar 06 2025 18:11:42 GMT-0600 (Central Standard Time),593258.3999999985,CFD-BM-021-026-A.jpg,1700,solid,O,None,1518,9,1,30843.29999999702,562415.1000000015,7080,ATS,C,11
5,test,3,C,haborder.png,1,z,Thu Mar 06 2025 18:11:42 GMT-0600 (Central Standard Time),595804.6999999955,CFD-WM-036-018-A.jpg,1400,solid,O,z,1129,7,1,33389.59999999404,562415.1000000015,7080,ATS,C,12
6,test,3,C,mfborder.png,1,m,Thu Mar 06 2025 18:11:42 GMT-0600 (Central Standard Time),598221.299999997,CFD-WM-035-036-HC.jpg,1000,dash,O,m,1370,4,1,35806.19999999553,562415.1000000015,7080,ATS,C,13
7,test,3,C,mfborder.png,1,z,Thu Mar 06 2025 18:11:42 GMT-0600 (Central Standard Time),601036.6000000015,CFD-WF-037-016-A.jpg,1500,dash,O,z,1296,3,1,38621.5,562415.1000000015,7080,ATS,C,14
8,test,3,C,haborder.png,1,m,Thu Mar 06 2025 18:11:42 GMT-0600 (Central Standard Time),603334.5,CFD-WF-013-009-HC.jpg,1000,solid,O,m,1259,12,1,40919.39999999851,562415.1000000015,7080,ATS,C,15
8,test,3,C,mfborder.png,0,m,Thu Mar 06 2025 18:11:42 GMT-0600 (Central Standard Time),606066.1000000015,CFD-BM-022-004-HC.jpg,1200,dash,O,None,1512,6,1,43651.0,562415.1000000015,7080,ATS,C,16
8,test,3,C,mfborder.png,0,z,Thu Mar 06 2025 18:11:42 GMT-0600 (Central Standard Time),609218.6000000015,CFD-BF-042-031-HC.jpg,1700,dash,O,m,1415,1,1,46803.5,562415.1000000015,7080,ATS,C,17
9,test,3,C,haborder.png,1,z,Thu Mar 06 2025 18:11:42 GMT-0600 (Central Standard Time),611933.0,CFD-WM-036-018-A.jpg,1400,solid,O,z,1288,7,1,49517.89999999851,562415.1000000015,7080,ATS,C,18
10,test,3,C,haborder.png,1,m,Thu Mar 06 2025 18:11:42 GMT-0600 (Central Standard Time),614798.799999997,CFD-BF-019-004-HC.jpg,1600,solid,O,m,1242,10,1,52383.69999999553,562415.1000000015,7080,ATS,C,19
10,test,3,C,mfborder.png,0,m,Thu Mar 06 2025 18:11:42 GMT-0600 (Central Standard Time),617332.1999999955,CFD-WM-035-036-HC.jpg,1000,dash,O,None,1516,4,1,54917.09999999404,562415.1000000015,7080,ATS,C,20
11,test,3,C,haborder.png,1,z,Thu Mar 06 2025 18:11:42 GMT-0600 (Central Standard Time),620298.1999999955,CFD-BM-021-026-A.jpg,1700,solid,O,z,1242,9,1,57883.09999999404,562415.1000000015,7080,ATS,C,21
11,test,3,C,mfborder.png,0,m,Thu Mar 06 2025 18:11:42 GMT-0600 (Central Standard Time),623830.6999999955,CFD-WM-034-040-A.jpg,2000,dash,O,None,1517,5,1,61415.59999999404,562415.1000000015,7080,ATS,C,22
12,test,3,C,haborder.png,1,m,Thu Mar 06 2025 18:11:42 GMT-0600 (Central Standard Time),626828.8999999985,CFD-WF-001-010-HC.jpg,1500,solid,O,m,1469,11,1,64413.79999999702,562415.1000000015,7080,ATS,C,23
12,test,3,C,mfborder.png,0,m,Thu Mar 06 2025 18:11:42 GMT-0600 (Central Standard Time),629541.6999999955,CFD-BM-022-004-HC.jpg,1200,dash,O,z,1490,6,1,67126.59999999404,562415.1000000015,7080,ATS,C,24
0,test,4,C,mfborder.png,0,z,Thu Mar 06 2025 18:11:42 GMT-0600 (Central Standard Time),633828.1000000015,CFD-BF-019-004-HC.jpg,1500,dash,O,m,1498,3,1,3017.4000000059605,630810.6999999955,7080,ATS,C,1
1,test,4,C,mfborder.png,1,m,Thu Mar 06 2025 18:11:42 GMT-0600 (Central Standard Time),636209.799999997,CFD-WM-036-018-A.jpg,1200,dash,O,m,1143,6,1,5399.10000000149,630810.6999999955,7080,ATS,C,2
1,test,4,C,haborder.png,0,m,Thu Mar 06 2025 18:11:42 GMT-0600 (Central Standard Time),639242.3999999985,CFD-WM-028-005-HC.jpg,1500,solid,O,None,1515,11,1,8431.70000000298,630810.6999999955,7080,ATS,C,3
2,test,4,C,haborder.png,1,m,Thu Mar 06 2025 18:11:42 GMT-0600 (Central Standard Time),641809.299999997,CFD-BM-022-004-HC.jpg,1600,solid,O,m,935,10,1,10998.60000000149,630810.6999999955,7080,ATS,C,4
2,test,4,C,haborder.png,0,z,Thu Mar 06 2025 18:11:42 GMT-0600 (Central Standard Time),644739.3999999985,CFD-BF-031-020-A.jpg,1400,solid,O,None,1514,7,1,13928.70000000298,630810.6999999955,7080,ATS,C,5
3,test,4,C,haborder.png,1,z,Thu Mar 06 2025 18:11:42 GMT-0600 (Central Standard Time),647621.0,CFD-WF-037-016-A.jpg,1700,solid,O,z,1160,9,1,16810.30000000447,630810.6999999955,7080,ATS,C,6
4,test,4,C,mfborder.png,1,m,Thu Mar 06 2025 18:11:42 GMT-0600 (Central Standard Time),650103.6000000015,CFD-BM-034-035-HC.jpg,1000,dash,O,m,1461,4,1,19292.90000000596,630810.6999999955,7080,ATS,C,7
5,test,4,C,haborder.png,1,m,Thu Mar 06 2025 18:11:42 GMT-0600 (Central Standard Time),653118.0,CFD-BM-022-004-HC.jpg,1600,solid,O,m,1392,10,1,22307.30000000447,630810.6999999955,7080,ATS,C,8
5,test,4,C,mfborder.png,0,m,Thu Mar 06 2025 18:11:42 GMT-0600 (Central Standard Time),655853.0,CFD-WM-036-018-A.jpg,1200,dash,O,None,1516,6,1,25042.30000000447,630810.6999999955,7080,ATS,C,9
6,test,4,C,mfborder.png,1,z,Thu Mar 06 2025 18:11:42 GMT-0600 (Central Standard Time),658751.1000000015,CFD-WF-023-013-A.jpg,1600,dash,O,z,1277,2,1,27940.40000000596,630810.6999999955,7080,ATS,C,10
6,test,4,C,haborder.png,0,z,Thu Mar 06 2025 18:11:42 GMT-0600 (Central Standard Time),661350.799999997,CFD-BF-031-020-A.jpg,1400,solid,O,m,1176,7,1,30540.10000000149,630810.6999999955,7080,ATS,C,11
7,test,4,C,haborder.png,1,z,Thu Mar 06 2025 18:11:42 GMT-0600 (Central Standard Time),664100.8999999985,CFD-BF-002-018-A.jpg,1900,solid,O,z,820,8,1,33290.20000000298,630810.6999999955,7080,ATS,C,12
8,test,4,C,mfborder.png,1,m,Thu Mar 06 2025 18:11:42 GMT-0600 (Central Standard Time),666615.8999999985,CFD-BM-034-035-HC.jpg,1000,dash,O,m,1492,4,1,35805.20000000298,630810.6999999955,7080,ATS,C,13
9,test,4,C,haborder.png,1,m,Thu Mar 06 2025 18:11:42 GMT-0600 (Central Standard Time),668798.6999999955,CFD-WM-028-005-HC.jpg,1000,solid,O,m,1162,12,1,37988.0,630810.6999999955,7080,ATS,C,14
10,test,4,C,mfborder.png,1,m,Thu Mar 06 2025 18:11:42 GMT-0600 (Central Standard Time),671681.5,CFD-BM-043-014-A.jpg,2000,dash,O,m,865,5,1,40870.80000000447,630810.6999999955,7080,ATS,C,15
11,test,4,C,mfborder.png,1,z,Thu Mar 06 2025 18:11:42 GMT-0600 (Central Standard Time),674296.0,CFD-WF-013-009-HC.jpg,1700,dash,O,z,885,1,1,43485.30000000447,630810.6999999955,7080,ATS,C,16
12,test,4,C,haborder.png,1,m,Thu Mar 06 2025 18:11:42 GMT-0600 (Central Standard Time),676947.3999999985,CFD-WM-028-005-HC.jpg,1500,solid,O,m,1128,11,1,46136.70000000298,630810.6999999955,7080,ATS,C,17
12,test,4,C,haborder.png,0,z,Thu Mar 06 2025 18:11:42 GMT-0600 (Central Standard Time),680179.0,CFD-WF-037-016-A.jpg,1700,solid,O,None,1516,9,1,49368.30000000447,630810.6999999955,7080,ATS,C,18
13,test,4,C,haborder.png,1,z,Thu Mar 06 2025 18:11:42 GMT-0600 (Central Standard Time),682978.0,CFD-BF-002-018-A.jpg,1900,solid,O,z,882,8,1,52167.30000000447,630810.6999999955,7080,ATS,C,19
13,test,4,C,haborder.png,0,m,Thu Mar 06 2025 18:11:42 GMT-0600 (Central Standard Time),685510.5,CFD-WM-028-005-HC.jpg,1000,solid,O,None,1514,12,1,54699.80000000447,630810.6999999955,7080,ATS,C,20
13,test,4,C,mfborder.png,0,z,Thu Mar 06 2025 18:11:42 GMT-0600 (Central Standard Time),688542.1000000015,CFD-BF-019-004-HC.jpg,1500,dash,O,None,1515,3,1,57731.40000000596,630810.6999999955,7080,ATS,C,21
13,test,4,C,mfborder.png,0,z,Thu Mar 06 2025 18:11:42 GMT-0600 (Central Standard Time),691292.299999997,CFD-WF-013-009-HC.jpg,1700,dash,O,m,1033,1,1,60481.60000000149,630810.6999999955,7080,ATS,C,22
14,test,4,C,mfborder.png,1,z,Thu Mar 06 2025 18:11:42 GMT-0600 (Central Standard Time),693956.8999999985,CFD-WF-023-013-A.jpg,1600,dash,O,z,1045,2,1,63146.20000000298,630810.6999999955,7080,ATS,C,23
15,test,4,C,mfborder.png,1,m,Thu Mar 06 2025 18:11:42 GMT-0600 (Central Standard Time),696973.8999999985,CFD-BM-043-014-A.jpg,2000,dash,O,m,989,5,1,66163.20000000298,630810.6999999955,7080,ATS,C,24
