acc_sum,block,block_c,change,condition,correct,correct_response,datetime,endtime,face,project,response,response_time,row_sel,session_number,start_end,starttime,subject_id,task,task_vers,trial
0,prac,1,,1-Back,,,Tue Jan 28 2025 12:27:08 GMT-0600 (Central Standard Time),,093_m_f_n_a.png,I,space,5660,1,1,,,8015,NNB,C,0
1,prac,1,0.0,1-Back,1,m,Tue Jan 28 2025 12:27:08 GMT-0600 (Central Standard Time),122886.29999999702,098_y_f_n_a.png,I,m,1345,2,1,2208.9000000059605,120677.39999999106,8015,NNB,C,1
2,prac,1,1.0,1-Back,1,z,Tue Jan 28 2025 12:27:08 GMT-0600 (Central Standard Time),125085.70000000298,098_y_f_n_a.png,I,z,1414,3,1,2193.7000000029802,122892.0,8015,NNB,C,2
3,prac,1,0.0,1-Back,1,m,Tue Jan 28 2025 12:27:08 GMT-0600 (Central Standard Time),127401.79999999702,059_o_m_n_a.png,I,m,1428,4,1,2310.5,125091.29999999702,8015,NNB,C,3
4,prac,1,0.0,1-Back,1,m,Tue Jan 28 2025 12:27:08 GMT-0600 (Central Standard Time),129651.09999999404,092_m_m_n_a.png,I,m,1364,5,1,2243.3999999910593,127407.70000000298,8015,NNB,C,4
5,prac,1,1.0,1-Back,1,z,Tue Jan 28 2025 12:27:08 GMT-0600 (Central Standard Time),131633.59999999404,092_m_m_n_a.png,I,z,1194,6,1,1976.7999999970198,129656.79999999702,8015,NNB,C,5
6,prac,1,0.0,1-Back,1,m,Tue Jan 28 2025 12:27:08 GMT-0600 (Central Standard Time),133716.29999999702,130_o_f_n_a.png,I,m,1191,7,1,2076.7000000029802,131639.59999999404,8015,NNB,C,6
7,prac,1,0.0,1-Back,1,m,Tue Jan 28 2025 12:27:08 GMT-0600 (Central Standard Time),135765.59999999404,082_m_m_n_a.png,I,m,1169,8,1,2043.7999999970198,133721.79999999702,8015,NNB,C,7
8,prac,1,0.0,1-Back,1,m,Tue Jan 28 2025 12:27:08 GMT-0600 (Central Standard Time),137781.79999999702,093_m_f_n_a.png,I,m,1139,9,1,2010.4000000059605,135771.39999999106,8015,NNB,C,8
9,prac,1,1.0,1-Back,1,z,Tue Jan 28 2025 12:27:08 GMT-0600 (Central Standard Time),139497.70000000298,093_m_f_n_a.png,I,z,936,10,1,1710.300000011921,137787.39999999106,8015,NNB,C,9
10,prac,1,0.0,1-Back,1,m,Tue Jan 28 2025 12:27:08 GMT-0600 (Central Standard Time),141347.29999999702,059_o_m_n_a.png,I,m,1067,11,1,1843.4000000059605,139503.89999999106,8015,NNB,C,10
11,prac,1,0.0,1-Back,1,m,Tue Jan 28 2025 12:27:08 GMT-0600 (Central Standard Time),143263.20000000298,028_y_f_n_a.png,I,m,1041,12,1,1909.7000000029802,141353.5,8015,NNB,C,11
0,test,1,0.0,1-Back,,,Tue Jan 28 2025 12:27:08 GMT-0600 (Central Standard Time),143263.20000000298,098_y_f_n_a.png,I,space,7920,1,1,1909.7000000029802,141353.5,8015,NNB,C,0
1,test,1,0.0,1-Back,1,m,Tue Jan 28 2025 12:27:08 GMT-0600 (Central Standard Time),161091.0,006_m_f_n_a.png,I,m,875,2,1,1895.0,159196.0,8015,NNB,C,1
2,test,1,0.0,1-Back,1,m,Tue Jan 28 2025 12:27:08 GMT-0600 (Central Standard Time),163273.70000000298,028_y_f_n_a.png,I,m,1152,3,1,2178.7000000029802,161095.0,8015,NNB,C,2
3,test,1,1.0,1-Back,1,z,Tue Jan 28 2025 12:27:08 GMT-0600 (Central Standard Time),165139.70000000298,028_y_f_n_a.png,I,z,832,4,1,1861.4000000059605,163278.29999999702,8015,NNB,C,3
4,test,1,0.0,1-Back,1,m,Tue Jan 28 2025 12:27:08 GMT-0600 (Central Standard Time),167555.5,006_m_f_n_a.png,I,m,1382,5,1,2411.7000000029802,165143.79999999702,8015,NNB,C,4
5,test,1,0.0,1-Back,1,m,Tue Jan 28 2025 12:27:08 GMT-0600 (Central Standard Time),169454.89999999106,059_o_m_n_a.png,I,m,879,6,1,1895.3999999910593,167559.5,8015,NNB,C,5
6,test,1,1.0,1-Back,1,z,Tue Jan 28 2025 12:27:08 GMT-0600 (Central Standard Time),170971.29999999702,059_o_m_n_a.png,I,z,492,7,1,1512.0999999940395,169459.20000000298,8015,NNB,C,6
7,test,1,0.0,1-Back,1,m,Tue Jan 28 2025 12:27:08 GMT-0600 (Central Standard Time),172870.79999999702,092_m_m_n_a.png,I,m,879,8,1,1895.5,170975.29999999702,8015,NNB,C,7
8,test,1,0.0,1-Back,1,m,Tue Jan 28 2025 12:27:08 GMT-0600 (Central Standard Time),175069.89999999106,130_o_f_n_a.png,I,m,1180,9,1,2194.8999999910593,172875.0,8015,NNB,C,8
9,test,1,0.0,1-Back,1,m,Tue Jan 28 2025 12:27:08 GMT-0600 (Central Standard Time),178052.59999999404,092_m_m_n_a.png,I,m,1858,10,1,2978.7999999970198,175073.79999999702,8015,NNB,C,9
10,test,1,0.0,1-Back,1,m,Tue Jan 28 2025 12:27:08 GMT-0600 (Central Standard Time),180251.70000000298,057_y_m_n_a.png,I,m,1166,11,1,2194.9000000059605,178056.79999999702,8015,NNB,C,10
11,test,1,1.0,1-Back,1,z,Tue Jan 28 2025 12:27:08 GMT-0600 (Central Standard Time),182151.29999999702,057_y_m_n_a.png,I,z,870,12,1,1895.5,180255.79999999702,8015,NNB,C,11
12,test,1,0.0,1-Back,1,m,Tue Jan 28 2025 12:27:08 GMT-0600 (Central Standard Time),184217.0,030_o_f_n_a.png,I,m,1036,13,1,2061.7999999970198,182155.20000000298,8015,NNB,C,12
13,test,1,1.0,1-Back,1,z,Tue Jan 28 2025 12:27:08 GMT-0600 (Central Standard Time),185983.39999999106,030_o_f_n_a.png,I,z,746,14,1,1762.199999988079,184221.20000000298,8015,NNB,C,13
14,test,1,0.0,1-Back,1,m,Tue Jan 28 2025 12:27:08 GMT-0600 (Central Standard Time),187932.70000000298,031_y_m_n_a.png,I,m,930,15,1,1945.300000011921,185987.39999999106,8015,NNB,C,14
15,test,1,0.0,1-Back,1,m,Tue Jan 28 2025 12:27:08 GMT-0600 (Central Standard Time),189981.70000000298,093_m_f_n_a.png,I,m,1030,16,1,2045.1000000089407,187936.59999999404,8015,NNB,C,15
16,test,1,0.0,1-Back,1,m,Tue Jan 28 2025 12:27:08 GMT-0600 (Central Standard Time),191931.29999999702,146_o_m_n_a.png,I,m,924,17,1,1945.5,189985.79999999702,8015,NNB,C,16
17,test,1,0.0,1-Back,1,m,Tue Jan 28 2025 12:27:08 GMT-0600 (Central Standard Time),193997.29999999702,093_m_f_n_a.png,I,m,1039,18,1,2062.0,191935.29999999702,8015,NNB,C,17
0,test,2,0.0,1-Back,,,Tue Jan 28 2025 12:27:08 GMT-0600 (Central Standard Time),193997.29999999702,092_m_m_n_a.png,I,space,4150,1,1,2062.0,191935.29999999702,8015,NNB,C,0
1,test,2,0.0,1-Back,1,m,Tue Jan 28 2025 12:27:08 GMT-0600 (Central Standard Time),201944.79999999702,006_m_f_n_a.png,I,m,736,2,1,1761.9000000059605,200182.89999999106,8015,NNB,C,1
2,test,2,1.0,1-Back,1,z,Tue Jan 28 2025 12:27:08 GMT-0600 (Central Standard Time),203794.5,006_m_f_n_a.png,I,z,826,3,1,1845.7999999970198,201948.70000000298,8015,NNB,C,2
3,test,2,0.0,1-Back,1,m,Tue Jan 28 2025 12:27:08 GMT-0600 (Central Standard Time),206010.39999999106,092_m_m_n_a.png,I,m,1184,4,1,2211.8999999910593,203798.5,8015,NNB,C,3
4,test,2,0.0,1-Back,1,m,Tue Jan 28 2025 12:27:08 GMT-0600 (Central Standard Time),208076.29999999702,057_y_m_n_a.png,I,m,1040,5,1,2061.5999999940395,206014.70000000298,8015,NNB,C,4
5,test,2,0.0,1-Back,1,m,Tue Jan 28 2025 12:27:08 GMT-0600 (Central Standard Time),210108.79999999702,098_y_f_n_a.png,I,m,1007,6,1,2028.5,208080.29999999702,8015,NNB,C,5
6,test,2,1.0,1-Back,1,z,Tue Jan 28 2025 12:27:08 GMT-0600 (Central Standard Time),211941.5,098_y_f_n_a.png,I,z,814,7,1,1828.7999999970198,210112.70000000298,8015,NNB,C,6
7,test,2,0.0,1-Back,1,m,Tue Jan 28 2025 12:27:08 GMT-0600 (Central Standard Time),213891.09999999404,057_y_m_n_a.png,I,m,917,8,1,1946.0,211945.09999999404,8015,NNB,C,7
8,test,2,0.0,1-Back,1,m,Tue Jan 28 2025 12:27:08 GMT-0600 (Central Standard Time),215825.0,030_o_f_n_a.png,I,m,912,9,1,1929.9000000059605,213895.09999999404,8015,NNB,C,8
9,test,2,0.0,1-Back,1,m,Tue Jan 28 2025 12:27:08 GMT-0600 (Central Standard Time),217740.0,082_m_m_n_a.png,I,m,882,10,1,1910.7000000029802,215829.29999999702,8015,NNB,C,9
10,test,2,1.0,1-Back,1,z,Tue Jan 28 2025 12:27:08 GMT-0600 (Central Standard Time),219589.29999999702,082_m_m_n_a.png,I,z,823,11,1,1845.2000000029802,217744.09999999404,8015,NNB,C,10
11,test,2,0.0,1-Back,1,m,Tue Jan 28 2025 12:27:08 GMT-0600 (Central Standard Time),221605.5,030_o_f_n_a.png,I,m,989,12,1,2012.2999999970198,219593.20000000298,8015,NNB,C,11
12,test,2,0.0,1-Back,1,m,Tue Jan 28 2025 12:27:08 GMT-0600 (Central Standard Time),223604.59999999404,130_o_f_n_a.png,I,m,972,13,1,1994.8999999910593,221609.70000000298,8015,NNB,C,12
13,test,2,0.0,1-Back,1,m,Tue Jan 28 2025 12:27:08 GMT-0600 (Central Standard Time),225571.0,059_o_m_n_a.png,I,m,934,14,1,1962.6000000089407,223608.39999999106,8015,NNB,C,13
14,test,2,0.0,1-Back,1,m,Tue Jan 28 2025 12:27:08 GMT-0600 (Central Standard Time),227620.09999999404,146_o_m_n_a.png,I,m,1024,15,1,2045.2999999970198,225574.79999999702,8015,NNB,C,14
15,test,2,1.0,1-Back,1,z,Tue Jan 28 2025 12:27:08 GMT-0600 (Central Standard Time),229519.79999999702,146_o_m_n_a.png,I,z,854,16,1,1895.5999999940395,227624.20000000298,8015,NNB,C,15
16,test,2,0.0,1-Back,1,m,Tue Jan 28 2025 12:27:08 GMT-0600 (Central Standard Time),231452.29999999702,031_y_m_n_a.png,I,m,907,17,1,1928.7000000029802,229523.59999999404,8015,NNB,C,16
17,test,2,1.0,1-Back,1,z,Tue Jan 28 2025 12:27:08 GMT-0600 (Central Standard Time),233385.0,031_y_m_n_a.png,I,z,903,18,1,1928.7000000029802,231456.29999999702,8015,NNB,C,17
0,test,3,1.0,1-Back,,,Tue Jan 28 2025 12:27:08 GMT-0600 (Central Standard Time),233385.0,028_y_f_n_a.png,I,space,1562,1,1,1928.7000000029802,231456.29999999702,8015,NNB,C,0
1,test,3,0.0,1-Back,1,m,Tue Jan 28 2025 12:27:08 GMT-0600 (Central Standard Time),238783.5,146_o_m_n_a.png,I,m,687,1,1,1728.7999999970198,237054.70000000298,8015,NNB,C,1
2,test,3,1.0,1-Back,1,z,Tue Jan 28 2025 12:27:08 GMT-0600 (Central Standard Time),241732.70000000298,146_o_m_n_a.png,I,z,1931,1,1,2945.5,238787.20000000298,8015,NNB,C,2
3,test,3,0.0,1-Back,1,m,Tue Jan 28 2025 12:27:08 GMT-0600 (Central Standard Time),243715.09999999404,093_m_f_n_a.png,I,m,950,1,1,1978.5999999940395,241736.5,8015,NNB,C,3
4,test,3,1.0,1-Back,1,z,Tue Jan 28 2025 12:27:08 GMT-0600 (Central Standard Time),245581.09999999404,093_m_f_n_a.png,I,z,840,1,1,1862.0,243719.09999999404,8015,NNB,C,4
5,test,3,0.0,1-Back,1,m,Tue Jan 28 2025 12:27:08 GMT-0600 (Central Standard Time),247480.70000000298,030_o_f_n_a.png,I,m,869,1,1,1895.9000000059605,245584.79999999702,8015,NNB,C,5
6,test,3,0.0,1-Back,1,m,Tue Jan 28 2025 12:27:08 GMT-0600 (Central Standard Time),249396.70000000298,057_y_m_n_a.png,I,m,882,1,1,1911.9000000059605,247484.79999999702,8015,NNB,C,6
7,test,3,0.0,1-Back,1,m,Tue Jan 28 2025 12:27:08 GMT-0600 (Central Standard Time),251529.39999999106,030_o_f_n_a.png,I,m,1109,1,1,2128.5999999940395,249400.79999999702,8015,NNB,C,7
8,test,3,0.0,1-Back,1,m,Tue Jan 28 2025 12:27:08 GMT-0600 (Central Standard Time),253445.39999999106,031_y_m_n_a.png,I,m,889,1,1,1911.8999999910593,251533.5,8015,NNB,C,8
9,test,3,1.0,1-Back,1,z,Tue Jan 28 2025 12:27:08 GMT-0600 (Central Standard Time),254828.20000000298,031_y_m_n_a.png,I,z,357,1,1,1379.0,253449.20000000298,8015,NNB,C,9
10,test,3,0.0,1-Back,1,m,Tue Jan 28 2025 12:27:08 GMT-0600 (Central Standard Time),256761.0,006_m_f_n_a.png,I,m,902,1,1,1928.7999999970198,254832.20000000298,8015,NNB,C,10
11,test,3,0.0,1-Back,1,m,Tue Jan 28 2025 12:27:08 GMT-0600 (Central Standard Time),258810.5,098_y_f_n_a.png,I,m,1018,1,1,2045.6000000089407,256764.89999999106,8015,NNB,C,11
12,test,3,1.0,1-Back,1,z,Tue Jan 28 2025 12:27:08 GMT-0600 (Central Standard Time),260544.0,098_y_f_n_a.png,I,z,712,1,1,1729.4000000059605,258814.59999999404,8015,NNB,C,12
13,test,3,0.0,1-Back,1,m,Tue Jan 28 2025 12:27:08 GMT-0600 (Central Standard Time),262509.09999999404,006_m_f_n_a.png,I,m,946,1,1,1960.7000000029802,260548.39999999106,8015,NNB,C,13
14,test,3,0.0,1-Back,1,m,Tue Jan 28 2025 12:27:08 GMT-0600 (Central Standard Time),264325.299999997,092_m_m_n_a.png,I,m,798,1,1,1812.2000000029802,262513.09999999404,8015,NNB,C,14
15,test,3,1.0,1-Back,1,z,Tue Jan 28 2025 12:27:08 GMT-0600 (Central Standard Time),266091.39999999106,092_m_m_n_a.png,I,z,733,1,1,1762.3999999910593,264329.0,8015,NNB,C,15
16,test,3,0.0,1-Back,1,m,Tue Jan 28 2025 12:27:08 GMT-0600 (Central Standard Time),267890.799999997,130_o_f_n_a.png,I,m,775,1,1,1795.0999999940395,266095.700000003,8015,NNB,C,16
17,test,3,1.0,1-Back,1,z,Tue Jan 28 2025 12:27:08 GMT-0600 (Central Standard Time),269840.39999999106,130_o_f_n_a.png,I,z,920,1,1,1945.7999999970198,267894.59999999404,8015,NNB,C,17
0,test,4,1.0,1-Back,,,Tue Jan 28 2025 12:27:08 GMT-0600 (Central Standard Time),269840.39999999106,093_m_f_n_a.png,I,space,2035,1,1,1945.7999999970198,267894.59999999404,8015,NNB,C,0
1,test,4,0.0,1-Back,1,m,Tue Jan 28 2025 12:27:08 GMT-0600 (Central Standard Time),275755.09999999404,146_o_m_n_a.png,I,m,742,2,1,1762.2000000029802,273992.89999999106,8015,NNB,C,1
2,test,4,0.0,1-Back,1,m,Tue Jan 28 2025 12:27:08 GMT-0600 (Central Standard Time),277871.0,093_m_f_n_a.png,I,m,1087,3,1,2112.0,275759.0,8015,NNB,C,2
3,test,4,0.0,1-Back,1,m,Tue Jan 28 2025 12:27:08 GMT-0600 (Central Standard Time),279670.700000003,030_o_f_n_a.png,I,m,780,4,1,1795.5,277875.200000003,8015,NNB,C,3
4,test,4,1.0,1-Back,1,z,Tue Jan 28 2025 12:27:08 GMT-0600 (Central Standard Time),281336.5,030_o_f_n_a.png,I,z,637,5,1,1661.9000000059605,279674.59999999404,8015,NNB,C,4
5,test,4,0.0,1-Back,1,m,Tue Jan 28 2025 12:27:08 GMT-0600 (Central Standard Time),283285.89999999106,098_y_f_n_a.png,I,m,922,6,1,1945.3999999910593,281340.5,8015,NNB,C,5
6,test,4,0.0,1-Back,1,m,Tue Jan 28 2025 12:27:08 GMT-0600 (Central Standard Time),285118.799999997,057_y_m_n_a.png,I,m,805,7,1,1828.9000000059605,283289.89999999106,8015,NNB,C,6
7,test,4,1.0,1-Back,1,z,Tue Jan 28 2025 12:27:08 GMT-0600 (Central Standard Time),286586.200000003,057_y_m_n_a.png,I,z,436,8,1,1463.6000000089407,285122.59999999404,8015,NNB,C,7
8,test,4,0.0,1-Back,1,m,Tue Jan 28 2025 12:27:08 GMT-0600 (Central Standard Time),288434.5,098_y_f_n_a.png,I,m,816,9,1,1844.0,286590.5,8015,NNB,C,8
9,test,4,0.0,1-Back,1,m,Tue Jan 28 2025 12:27:08 GMT-0600 (Central Standard Time),290317.299999997,082_m_m_n_a.png,I,m,848,10,1,1878.7000000029802,288438.59999999404,8015,NNB,C,9
10,test,4,1.0,1-Back,1,z,Tue Jan 28 2025 12:27:08 GMT-0600 (Central Standard Time),291783.5,082_m_m_n_a.png,I,z,437,11,1,1461.9000000059605,290321.59999999404,8015,NNB,C,10
11,test,4,0.0,1-Back,1,m,Tue Jan 28 2025 12:27:08 GMT-0600 (Central Standard Time),293632.799999997,130_o_f_n_a.png,I,m,828,12,1,1845.2999999970198,291787.5,8015,NNB,C,11
12,test,4,0.0,1-Back,1,m,Tue Jan 28 2025 12:27:08 GMT-0600 (Central Standard Time),295549.0,059_o_m_n_a.png,I,m,898,13,1,1912.2999999970198,293636.700000003,8015,NNB,C,12
13,test,4,0.0,1-Back,1,m,Tue Jan 28 2025 12:27:08 GMT-0600 (Central Standard Time),297298.39999999106,130_o_f_n_a.png,I,m,718,14,1,1745.2999999970198,295553.09999999404,8015,NNB,C,13
14,test,4,0.0,1-Back,1,m,Tue Jan 28 2025 12:27:08 GMT-0600 (Central Standard Time),299131.09999999404,028_y_f_n_a.png,I,m,800,15,1,1828.5999999940395,297302.5,8015,NNB,C,14
15,test,4,1.0,1-Back,1,z,Tue Jan 28 2025 12:27:08 GMT-0600 (Central Standard Time),300530.5,028_y_f_n_a.png,I,z,375,16,1,1395.4000000059605,299135.09999999404,8015,NNB,C,15
16,test,4,0.0,1-Back,1,m,Tue Jan 28 2025 12:27:08 GMT-0600 (Central Standard Time),302363.39999999106,006_m_f_n_a.png,I,m,808,17,1,1829.0,300534.39999999106,8015,NNB,C,16
17,test,4,1.0,1-Back,1,z,Tue Jan 28 2025 12:27:08 GMT-0600 (Central Standard Time),304363.0,006_m_f_n_a.png,I,z,967,18,1,1995.7000000029802,302367.299999997,8015,NNB,C,17
0,test,5,1.0,1-Back,,,Tue Jan 28 2025 12:27:08 GMT-0600 (Central Standard Time),304363.0,059_o_m_n_a.png,I,space,2177,1,1,1995.7000000029802,302367.299999997,8015,NNB,C,0
1,test,5,1.0,1-Back,1,z,Tue Jan 28 2025 12:27:08 GMT-0600 (Central Standard Time),310411.0,059_o_m_n_a.png,I,z,826,2,1,1845.2000000029802,308565.799999997,8015,NNB,C,1
2,test,5,0.0,1-Back,1,m,Tue Jan 28 2025 12:27:08 GMT-0600 (Central Standard Time),312410.39999999106,098_y_f_n_a.png,I,m,975,3,1,1995.699999988079,310414.700000003,8015,NNB,C,2
3,test,5,0.0,1-Back,1,m,Tue Jan 28 2025 12:27:08 GMT-0600 (Central Standard Time),314243.200000003,057_y_m_n_a.png,I,m,799,4,1,1829.2000000029802,312414.0,8015,NNB,C,3
4,test,5,0.0,1-Back,1,m,Tue Jan 28 2025 12:27:08 GMT-0600 (Central Standard Time),316292.299999997,098_y_f_n_a.png,I,m,1016,5,1,2045.0999999940395,314247.200000003,8015,NNB,C,4
5,test,5,0.0,1-Back,1,m,Tue Jan 28 2025 12:27:08 GMT-0600 (Central Standard Time),318025.200000003,092_m_m_n_a.png,I,m,702,6,1,1728.9000000059605,316296.299999997,8015,NNB,C,5
6,test,5,1.0,1-Back,1,z,Tue Jan 28 2025 12:27:08 GMT-0600 (Central Standard Time),319841.39999999106,092_m_m_n_a.png,I,z,794,7,1,1812.5,318028.89999999106,8015,NNB,C,6
7,test,5,0.0,1-Back,1,m,Tue Jan 28 2025 12:27:08 GMT-0600 (Central Standard Time),321790.799999997,028_y_f_n_a.png,I,m,921,8,1,1945.5,319845.299999997,8015,NNB,C,7
8,test,5,0.0,1-Back,1,m,Tue Jan 28 2025 12:27:08 GMT-0600 (Central Standard Time),323473.5,031_y_m_n_a.png,I,m,652,9,1,1678.9000000059605,321794.59999999404,8015,NNB,C,8
9,test,5,0.0,1-Back,1,m,Tue Jan 28 2025 12:27:08 GMT-0600 (Central Standard Time),325139.5,028_y_f_n_a.png,I,m,640,10,1,1661.7999999970198,323477.700000003,8015,NNB,C,9
10,test,5,0.0,1-Back,1,m,Tue Jan 28 2025 12:27:08 GMT-0600 (Central Standard Time),326889.09999999404,130_o_f_n_a.png,I,m,719,11,1,1745.5,325143.59999999404,8015,NNB,C,10
11,test,5,1.0,1-Back,1,z,Tue Jan 28 2025 12:27:08 GMT-0600 (Central Standard Time),328821.700000003,130_o_f_n_a.png,I,z,914,12,1,1928.6000000089407,326893.09999999404,8015,NNB,C,11
12,test,5,0.0,1-Back,1,m,Tue Jan 28 2025 12:27:08 GMT-0600 (Central Standard Time),330688.0,146_o_m_n_a.png,I,m,837,13,1,1863.2999999970198,328824.700000003,8015,NNB,C,12
13,test,5,0.0,1-Back,1,m,Tue Jan 28 2025 12:27:08 GMT-0600 (Central Standard Time),332604.09999999404,093_m_f_n_a.png,I,m,882,14,1,1912.2000000029802,330691.89999999106,8015,NNB,C,13
14,test,5,1.0,1-Back,1,z,Tue Jan 28 2025 12:27:08 GMT-0600 (Central Standard Time),334403.39999999106,093_m_f_n_a.png,I,z,775,15,1,1795.5999999940395,332607.799999997,8015,NNB,C,14
15,test,5,0.0,1-Back,1,m,Tue Jan 28 2025 12:27:08 GMT-0600 (Central Standard Time),336186.200000003,146_o_m_n_a.png,I,m,751,16,1,1778.9000000059605,334407.299999997,8015,NNB,C,15
16,test,5,0.0,1-Back,1,m,Tue Jan 28 2025 12:27:08 GMT-0600 (Central Standard Time),337985.700000003,006_m_f_n_a.png,I,m,769,17,1,1795.800000011921,336189.89999999106,8015,NNB,C,16
17,test,5,0.0,1-Back,1,m,Tue Jan 28 2025 12:27:08 GMT-0600 (Central Standard Time),339718.5,082_m_m_n_a.png,I,m,712,18,1,1729.2000000029802,337989.299999997,8015,NNB,C,17
0,prac,1,0.0,2-Back,,,Tue Jan 28 2025 12:27:08 GMT-0600 (Central Standard Time),339718.5,031_y_m_n_a.png,I,space,12010,1,1,1729.2000000029802,337989.299999997,8015,NNB,C,0
0,prac,1,0.0,2-Back,,,Tue Jan 28 2025 12:27:08 GMT-0600 (Central Standard Time),339718.5,006_m_f_n_a.png,I,space,12010,2,1,1729.2000000029802,337989.299999997,8015,NNB,C,0
1,prac,1,1.0,2-Back,1,m,Tue Jan 28 2025 12:27:08 GMT-0600 (Central Standard Time),477891.89999999106,146_o_m_n_a.png,I,m,1874,3,1,2745.3999999910593,475146.5,8015,NNB,C,1
1,prac,1,0.0,2-Back,0,m,Tue Jan 28 2025 12:27:08 GMT-0600 (Central Standard Time),480791.09999999404,130_o_f_n_a.png,I,None,2010,4,1,2893.7000000029802,477897.39999999106,8015,NNB,C,2
1,prac,1,0.0,2-Back,0,z,Tue Jan 28 2025 12:27:08 GMT-0600 (Central Standard Time),483173.39999999106,146_o_m_n_a.png,I,m,1475,5,1,2376.699999988079,480796.700000003,8015,NNB,C,3
1,prac,1,1.0,2-Back,0,z,Tue Jan 28 2025 12:27:08 GMT-0600 (Central Standard Time),485822.700000003,130_o_f_n_a.png,I,m,1872,6,1,2643.5,483179.200000003,8015,NNB,C,4
1,prac,1,0.0,2-Back,0,m,Tue Jan 28 2025 12:27:08 GMT-0600 (Central Standard Time),488705.09999999404,082_m_m_n_a.png,I,None,2013,7,1,2877.0999999940395,485828.0,8015,NNB,C,5
1,prac,1,0.0,2-Back,0,m,Tue Jan 28 2025 12:27:08 GMT-0600 (Central Standard Time),491404.59999999404,059_o_m_n_a.png,I,z,1827,8,1,2694.0999999940395,488710.5,8015,NNB,C,6
2,prac,1,0.0,2-Back,1,m,Tue Jan 28 2025 12:27:08 GMT-0600 (Central Standard Time),493153.89999999106,028_y_f_n_a.png,I,m,873,9,1,1743.5999999940395,491410.299999997,8015,NNB,C,7
2,prac,1,1.0,2-Back,0,z,Tue Jan 28 2025 12:27:08 GMT-0600 (Central Standard Time),494919.89999999106,059_o_m_n_a.png,I,m,988,10,1,1760.5999999940395,493159.299999997,8015,NNB,C,8
3,prac,1,0.0,2-Back,1,m,Tue Jan 28 2025 12:27:08 GMT-0600 (Central Standard Time),497469.0,098_y_f_n_a.png,I,m,1676,11,1,2543.7999999970198,494925.200000003,8015,NNB,C,9
3,prac,1,0.0,2-Back,0,m,Tue Jan 28 2025 12:27:08 GMT-0600 (Central Standard Time),499451.700000003,082_m_m_n_a.png,I,z,1193,12,1,1977.0,497474.700000003,8015,NNB,C,10
0,prac,2,0.0,2-Back,,,Tue Jan 28 2025 12:27:08 GMT-0600 (Central Standard Time),499451.700000003,031_y_m_n_a.png,I,a,7555,1,1,1977.0,497474.700000003,8015,NNB,C,0
0,prac,2,0.0,2-Back,,,Tue Jan 28 2025 12:27:08 GMT-0600 (Central Standard Time),499451.700000003,006_m_f_n_a.png,I,a,7555,2,1,1977.0,497474.700000003,8015,NNB,C,0
1,prac,2,1.0,2-Back,1,m,Tue Jan 28 2025 12:27:08 GMT-0600 (Central Standard Time),514113.5,146_o_m_n_a.png,I,m,952,3,1,1842.9000000059605,512270.59999999404,8015,NNB,C,1
2,prac,2,0.0,2-Back,1,m,Tue Jan 28 2025 12:27:08 GMT-0600 (Central Standard Time),516396.5,130_o_f_n_a.png,I,m,1371,4,1,2277.2000000029802,514119.299999997,8015,NNB,C,2
2,prac,2,0.0,2-Back,0,z,Tue Jan 28 2025 12:27:08 GMT-0600 (Central Standard Time),518312.700000003,146_o_m_n_a.png,I,m,1129,5,1,1910.6000000089407,516402.09999999404,8015,NNB,C,3
2,prac,2,1.0,2-Back,0,z,Tue Jan 28 2025 12:27:08 GMT-0600 (Central Standard Time),520761.59999999404,130_o_f_n_a.png,I,m,1669,6,1,2443.2999999970198,518318.299999997,8015,NNB,C,4
2,prac,2,0.0,2-Back,0,m,Tue Jan 28 2025 12:27:08 GMT-0600 (Central Standard Time),523544.299999997,082_m_m_n_a.png,I,None,2009,7,1,2777.2000000029802,520767.09999999404,8015,NNB,C,5
3,prac,2,0.0,2-Back,1,m,Tue Jan 28 2025 12:27:08 GMT-0600 (Central Standard Time),525810.700000003,059_o_m_n_a.png,I,m,1380,8,1,2261.2000000029802,523549.5,8015,NNB,C,6
4,prac,2,0.0,2-Back,1,m,Tue Jan 28 2025 12:27:08 GMT-0600 (Central Standard Time),527793.099999994,028_y_f_n_a.png,I,m,1100,9,1,1977.5,525815.599999994,8015,NNB,C,7
5,prac,2,1.0,2-Back,1,z,Tue Jan 28 2025 12:27:08 GMT-0600 (Central Standard Time),529642.099999994,059_o_m_n_a.png,I,z,1069,10,1,1843.5999999940395,527798.5,8015,NNB,C,8
6,prac,2,0.0,2-Back,1,m,Tue Jan 28 2025 12:27:08 GMT-0600 (Central Standard Time),531558.299999997,098_y_f_n_a.png,I,m,1043,11,1,1911.0999999940395,529647.200000003,8015,NNB,C,9
6,prac,2,0.0,2-Back,0,m,Tue Jan 28 2025 12:27:08 GMT-0600 (Central Standard Time),533557.700000003,082_m_m_n_a.png,I,z,1216,12,1,1994.0,531563.700000003,8015,NNB,C,10
0,test,1,0.0,2-Back,,,Tue Jan 28 2025 12:27:08 GMT-0600 (Central Standard Time),533557.700000003,057_y_m_n_a.png,I,space,12195,1,1,1994.0,531563.700000003,8015,NNB,C,0
0,test,1,0.0,2-Back,,,Tue Jan 28 2025 12:27:08 GMT-0600 (Central Standard Time),533557.700000003,057_y_m_n_a.png,I,space,12195,2,1,1994.0,531563.700000003,8015,NNB,C,0
1,test,1,0.0,2-Back,1,m,Tue Jan 28 2025 12:27:08 GMT-0600 (Central Standard Time),578260.299999997,130_o_f_n_a.png,I,m,1490,3,1,2512.4000000059605,575747.8999999911,8015,NNB,C,1
2,test,1,0.0,2-Back,1,m,Tue Jan 28 2025 12:27:08 GMT-0600 (Central Standard Time),580309.799999997,092_m_m_n_a.png,I,m,1022,4,1,2045.5999999940395,578264.200000003,8015,NNB,C,2
3,test,1,1.0,2-Back,1,z,Tue Jan 28 2025 12:27:08 GMT-0600 (Central Standard Time),582325.8999999911,130_o_f_n_a.png,I,z,989,5,1,2012.0999999940395,580313.799999997,8015,NNB,C,3
4,test,1,0.0,2-Back,1,m,Tue Jan 28 2025 12:27:08 GMT-0600 (Central Standard Time),584258.599999994,098_y_f_n_a.png,I,m,909,6,1,1928.5999999940395,582330.0,8015,NNB,C,4
5,test,1,0.0,2-Back,1,m,Tue Jan 28 2025 12:27:08 GMT-0600 (Central Standard Time),586208.0,092_m_m_n_a.png,I,m,928,7,1,1946.1000000089407,584261.8999999911,8015,NNB,C,5
6,test,1,1.0,2-Back,1,z,Tue Jan 28 2025 12:27:08 GMT-0600 (Central Standard Time),587923.8999999911,098_y_f_n_a.png,I,z,682,8,1,1712.5999999940395,586211.299999997,8015,NNB,C,6
6,test,1,0.0,2-Back,0,m,Tue Jan 28 2025 12:27:08 GMT-0600 (Central Standard Time),590056.599999994,031_y_m_n_a.png,I,z,1102,9,1,2128.7999999970198,587927.799999997,8015,NNB,C,7
7,test,1,0.0,2-Back,1,m,Tue Jan 28 2025 12:27:08 GMT-0600 (Central Standard Time),592022.5,030_o_f_n_a.png,I,m,946,10,1,1962.1000000089407,590060.3999999911,8015,NNB,C,8
8,test,1,1.0,2-Back,1,z,Tue Jan 28 2025 12:27:08 GMT-0600 (Central Standard Time),593872.200000003,031_y_m_n_a.png,I,z,828,11,1,1845.9000000059605,592026.299999997,8015,NNB,C,9
9,test,1,0.0,2-Back,1,m,Tue Jan 28 2025 12:27:08 GMT-0600 (Central Standard Time),595605.0,006_m_f_n_a.png,I,m,715,12,1,1728.9000000059605,593876.099999994,8015,NNB,C,10
9,test,1,0.0,2-Back,0,m,Tue Jan 28 2025 12:27:08 GMT-0600 (Central Standard Time),598187.5,006_m_f_n_a.png,I,z,1550,13,1,2578.9000000059605,595608.599999994,8015,NNB,C,11
10,test,1,0.0,2-Back,1,m,Tue Jan 28 2025 12:27:08 GMT-0600 (Central Standard Time),600080.0,146_o_m_n_a.png,I,m,727,14,1,1888.7999999970198,598191.200000003,8015,NNB,C,12
10,test,1,0.0,2-Back,0,m,Tue Jan 28 2025 12:27:08 GMT-0600 (Central Standard Time),602369.5,030_o_f_n_a.png,I,z,1276,15,1,2286.0,600083.5,8015,NNB,C,13
11,test,1,1.0,2-Back,1,z,Tue Jan 28 2025 12:27:08 GMT-0600 (Central Standard Time),604652.0,146_o_m_n_a.png,I,z,1249,16,1,2278.7000000029802,602373.299999997,8015,NNB,C,14
12,test,1,0.0,2-Back,1,m,Tue Jan 28 2025 12:27:08 GMT-0600 (Central Standard Time),606551.599999994,093_m_f_n_a.png,I,m,879,17,1,1895.5,604656.099999994,8015,NNB,C,15
13,test,1,0.0,2-Back,1,m,Tue Jan 28 2025 12:27:08 GMT-0600 (Central Standard Time),608367.700000003,082_m_m_n_a.png,I,m,787,18,1,1812.2000000029802,606555.5,8015,NNB,C,16
0,test,2,0.0,2-Back,,,Tue Jan 28 2025 12:27:08 GMT-0600 (Central Standard Time),608367.700000003,082_m_m_n_a.png,I,space,2780,1,1,1812.2000000029802,606555.5,8015,NNB,C,0
0,test,2,0.0,2-Back,,,Tue Jan 28 2025 12:27:08 GMT-0600 (Central Standard Time),608367.700000003,028_y_f_n_a.png,I,space,2780,2,1,1812.2000000029802,606555.5,8015,NNB,C,0
0,test,2,1.0,2-Back,0,z,Tue Jan 28 2025 12:27:08 GMT-0600 (Central Standard Time),617981.299999997,082_m_m_n_a.png,I,m,681,3,1,1695.2000000029802,616286.099999994,8015,NNB,C,1
1,test,2,0.0,2-Back,1,m,Tue Jan 28 2025 12:27:08 GMT-0600 (Central Standard Time),620563.799999997,093_m_f_n_a.png,I,m,1557,4,1,2578.5,617985.299999997,8015,NNB,C,2
1,test,2,0.0,2-Back,0,m,Tue Jan 28 2025 12:27:08 GMT-0600 (Central Standard Time),622446.700000003,028_y_f_n_a.png,I,z,863,5,1,1878.9000000059605,620567.799999997,8015,NNB,C,3
2,test,2,0.0,2-Back,1,m,Tue Jan 28 2025 12:27:08 GMT-0600 (Central Standard Time),624329.299999997,146_o_m_n_a.png,I,m,835,6,1,1878.9000000059605,622450.3999999911,8015,NNB,C,4
3,test,2,0.0,2-Back,1,m,Tue Jan 28 2025 12:27:08 GMT-0600 (Central Standard Time),626228.799999997,098_y_f_n_a.png,I,m,865,7,1,1895.5999999940395,624333.200000003,8015,NNB,C,5
4,test,2,1.0,2-Back,1,z,Tue Jan 28 2025 12:27:08 GMT-0600 (Central Standard Time),628278.0,146_o_m_n_a.png,I,z,1022,8,1,2045.4000000059605,626232.599999994,8015,NNB,C,6
5,test,2,0.0,2-Back,1,m,Tue Jan 28 2025 12:27:08 GMT-0600 (Central Standard Time),630260.8999999911,031_y_m_n_a.png,I,m,965,9,1,1979.5,628281.3999999911,8015,NNB,C,7
5,test,2,0.0,2-Back,0,m,Tue Jan 28 2025 12:27:08 GMT-0600 (Central Standard Time),632359.8999999911,031_y_m_n_a.png,I,z,1078,10,1,2095.5,630264.3999999911,8015,NNB,C,8
6,test,2,0.0,2-Back,1,m,Tue Jan 28 2025 12:27:08 GMT-0600 (Central Standard Time),634592.799999997,006_m_f_n_a.png,I,m,1211,11,1,2229.2999999970198,632363.5,8015,NNB,C,9
7,test,2,0.0,2-Back,1,m,Tue Jan 28 2025 12:27:08 GMT-0600 (Central Standard Time),636759.0,028_y_f_n_a.png,I,m,1138,12,1,2162.7000000029802,634596.299999997,8015,NNB,C,10
8,test,2,1.0,2-Back,1,z,Tue Jan 28 2025 12:27:08 GMT-0600 (Central Standard Time),638658.099999994,006_m_f_n_a.png,I,z,876,13,1,1895.2999999970198,636762.799999997,8015,NNB,C,11
9,test,2,0.0,2-Back,1,m,Tue Jan 28 2025 12:27:08 GMT-0600 (Central Standard Time),640474.200000003,059_o_m_n_a.png,I,m,785,14,1,1812.1000000089407,638662.099999994,8015,NNB,C,12
10,test,2,0.0,2-Back,1,m,Tue Jan 28 2025 12:27:08 GMT-0600 (Central Standard Time),642806.799999997,059_o_m_n_a.png,I,m,1305,15,1,2328.7000000029802,640478.099999994,8015,NNB,C,13
11,test,2,0.0,2-Back,1,m,Tue Jan 28 2025 12:27:08 GMT-0600 (Central Standard Time),644856.299999997,030_o_f_n_a.png,I,m,1028,16,1,2045.5999999940395,642810.700000003,8015,NNB,C,14
12,test,2,0.0,2-Back,1,m,Tue Jan 28 2025 12:27:08 GMT-0600 (Central Standard Time),646839.0,092_m_m_n_a.png,I,m,954,17,1,1979.0,644860.0,8015,NNB,C,15
13,test,2,1.0,2-Back,1,z,Tue Jan 28 2025 12:27:08 GMT-0600 (Central Standard Time),648754.8999999911,030_o_f_n_a.png,I,z,884,18,1,1911.8999999910593,646843.0,8015,NNB,C,16
0,test,3,1.0,2-Back,,,Tue Jan 28 2025 12:27:08 GMT-0600 (Central Standard Time),648754.8999999911,057_y_m_n_a.png,I,space,2265,1,1,1911.8999999910593,646843.0,8015,NNB,C,0
0,test,3,1.0,2-Back,,,Tue Jan 28 2025 12:27:08 GMT-0600 (Central Standard Time),648754.8999999911,057_y_m_n_a.png,I,space,2265,2,1,1911.8999999910593,646843.0,8015,NNB,C,0
1,test,3,0.0,2-Back,1,m,Tue Jan 28 2025 12:27:08 GMT-0600 (Central Standard Time),657952.3999999911,030_o_f_n_a.png,I,m,753,3,1,1779.5,656172.8999999911,8015,NNB,C,1
2,test,3,0.0,2-Back,1,m,Tue Jan 28 2025 12:27:08 GMT-0600 (Central Standard Time),659901.3999999911,082_m_m_n_a.png,I,m,931,4,1,1945.0999999940395,657956.299999997,8015,NNB,C,2
3,test,3,1.0,2-Back,1,z,Tue Jan 28 2025 12:27:08 GMT-0600 (Central Standard Time),662117.599999994,030_o_f_n_a.png,I,z,1180,5,1,2212.2000000029802,659905.3999999911,8015,NNB,C,3
3,test,3,0.0,2-Back,0,m,Tue Jan 28 2025 12:27:08 GMT-0600 (Central Standard Time),664366.700000003,031_y_m_n_a.png,I,z,1221,6,1,2245.2000000029802,662121.5,8015,NNB,C,4
4,test,3,0.0,2-Back,1,m,Tue Jan 28 2025 12:27:08 GMT-0600 (Central Standard Time),666299.3999999911,082_m_m_n_a.png,I,m,908,7,1,1928.7999999970198,664370.599999994,8015,NNB,C,5
5,test,3,1.0,2-Back,1,z,Tue Jan 28 2025 12:27:08 GMT-0600 (Central Standard Time),668248.799999997,031_y_m_n_a.png,I,z,927,8,1,1945.0,666303.799999997,8015,NNB,C,6
6,test,3,0.0,2-Back,1,m,Tue Jan 28 2025 12:27:08 GMT-0600 (Central Standard Time),670014.8999999911,028_y_f_n_a.png,I,m,746,9,1,1762.0999999940395,668252.799999997,8015,NNB,C,7
7,test,3,0.0,2-Back,1,m,Tue Jan 28 2025 12:27:08 GMT-0600 (Central Standard Time),671781.0,092_m_m_n_a.png,I,m,732,10,1,1762.2000000029802,670018.799999997,8015,NNB,C,8
8,test,3,1.0,2-Back,1,z,Tue Jan 28 2025 12:27:08 GMT-0600 (Central Standard Time),673330.799999997,028_y_f_n_a.png,I,z,517,11,1,1545.5999999940395,671785.200000003,8015,NNB,C,9
8,test,3,1.0,2-Back,0,z,Tue Jan 28 2025 12:27:08 GMT-0600 (Central Standard Time),675213.299999997,092_m_m_n_a.png,I,m,856,12,1,1878.7999999970198,673334.5,8015,NNB,C,10
8,test,3,0.0,2-Back,0,m,Tue Jan 28 2025 12:27:08 GMT-0600 (Central Standard Time),677013.0,030_o_f_n_a.png,I,z,781,13,1,1795.9000000059605,675217.099999994,8015,NNB,C,11
9,test,3,0.0,2-Back,1,m,Tue Jan 28 2025 12:27:08 GMT-0600 (Central Standard Time),678829.099999994,093_m_f_n_a.png,I,m,782,14,1,1812.2999999970198,677016.799999997,8015,NNB,C,12
10,test,3,0.0,2-Back,1,m,Tue Jan 28 2025 12:27:08 GMT-0600 (Central Standard Time),680744.8999999911,146_o_m_n_a.png,I,m,894,15,1,1912.199999988079,678832.700000003,8015,NNB,C,13
11,test,3,1.0,2-Back,1,z,Tue Jan 28 2025 12:27:08 GMT-0600 (Central Standard Time),682777.700000003,093_m_f_n_a.png,I,z,1010,16,1,2028.7000000029802,680749.0,8015,NNB,C,14
12,test,3,0.0,2-Back,1,m,Tue Jan 28 2025 12:27:08 GMT-0600 (Central Standard Time),684826.8999999911,130_o_f_n_a.png,I,m,1017,17,1,2045.2999999970198,682781.599999994,8015,NNB,C,15
13,test,3,0.0,2-Back,1,m,Tue Jan 28 2025 12:27:08 GMT-0600 (Central Standard Time),686609.8999999911,130_o_f_n_a.png,I,m,760,18,1,1779.2999999970198,684830.599999994,8015,NNB,C,16
0,test,4,0.0,2-Back,,,Tue Jan 28 2025 12:27:08 GMT-0600 (Central Standard Time),686609.8999999911,059_o_m_n_a.png,I,space,1706,1,1,1779.2999999970198,684830.599999994,8015,NNB,C,0
0,test,4,0.0,2-Back,,,Tue Jan 28 2025 12:27:08 GMT-0600 (Central Standard Time),686609.8999999911,098_y_f_n_a.png,I,space,1706,2,1,1779.2999999970198,684830.599999994,8015,NNB,C,0
1,test,4,1.0,2-Back,1,z,Tue Jan 28 2025 12:27:08 GMT-0600 (Central Standard Time),695640.099999994,059_o_m_n_a.png,I,z,1053,3,1,2078.0999999940395,693562.0,8015,NNB,C,1
2,test,4,1.0,2-Back,1,z,Tue Jan 28 2025 12:27:08 GMT-0600 (Central Standard Time),697939.799999997,098_y_f_n_a.png,I,z,1266,4,1,2295.7999999970198,695644.0,8015,NNB,C,2
3,test,4,0.0,2-Back,1,m,Tue Jan 28 2025 12:27:08 GMT-0600 (Central Standard Time),699772.3999999911,030_o_f_n_a.png,I,m,799,5,1,1828.7999999970198,697943.599999994,8015,NNB,C,3
4,test,4,0.0,2-Back,1,m,Tue Jan 28 2025 12:27:08 GMT-0600 (Central Standard Time),701921.799999997,030_o_f_n_a.png,I,m,1127,6,1,2145.4000000059605,699776.3999999911,8015,NNB,C,4
5,test,4,0.0,2-Back,1,m,Tue Jan 28 2025 12:27:08 GMT-0600 (Central Standard Time),704005.5,006_m_f_n_a.png,I,m,1057,7,1,2080.0,701925.5,8015,NNB,C,5
6,test,4,0.0,2-Back,1,m,Tue Jan 28 2025 12:27:08 GMT-0600 (Central Standard Time),706220.299999997,031_y_m_n_a.png,I,m,1182,8,1,2210.4000000059605,704009.8999999911,8015,NNB,C,6
7,test,4,1.0,2-Back,1,z,Tue Jan 28 2025 12:27:08 GMT-0600 (Central Standard Time),707819.8999999911,006_m_f_n_a.png,I,z,567,9,1,1595.7999999970198,706224.099999994,8015,NNB,C,7
8,test,4,0.0,2-Back,1,m,Tue Jan 28 2025 12:27:08 GMT-0600 (Central Standard Time),709652.700000003,092_m_m_n_a.png,I,m,799,10,1,1829.1000000089407,707823.599999994,8015,NNB,C,8
8,test,4,0.0,2-Back,0,m,Tue Jan 28 2025 12:27:08 GMT-0600 (Central Standard Time),711385.299999997,031_y_m_n_a.png,I,z,701,11,1,1728.7000000029802,709656.599999994,8015,NNB,C,9
9,test,4,0.0,2-Back,1,m,Tue Jan 28 2025 12:27:08 GMT-0600 (Central Standard Time),713368.299999997,130_o_f_n_a.png,I,m,950,12,1,1979.2999999970198,711389.0,8015,NNB,C,10
9,test,4,0.0,2-Back,0,m,Tue Jan 28 2025 12:27:08 GMT-0600 (Central Standard Time),715434.200000003,057_y_m_n_a.png,I,z,1043,13,1,2062.0,713372.200000003,8015,NNB,C,11
10,test,4,1.0,2-Back,1,z,Tue Jan 28 2025 12:27:08 GMT-0600 (Central Standard Time),717416.8999999911,130_o_f_n_a.png,I,z,953,14,1,1979.2999999970198,715437.599999994,8015,NNB,C,12
11,test,4,1.0,2-Back,1,z,Tue Jan 28 2025 12:27:08 GMT-0600 (Central Standard Time),719266.299999997,057_y_m_n_a.png,I,z,826,15,1,1845.5,717420.799999997,8015,NNB,C,13
12,test,4,0.0,2-Back,1,m,Tue Jan 28 2025 12:27:08 GMT-0600 (Central Standard Time),721365.3999999911,082_m_m_n_a.png,I,m,1080,16,1,2095.3999999910593,719270.0,8015,NNB,C,14
13,test,4,0.0,2-Back,1,m,Tue Jan 28 2025 12:27:08 GMT-0600 (Central Standard Time),723281.3999999911,093_m_f_n_a.png,I,m,885,17,1,1912.2999999970198,721369.099999994,8015,NNB,C,15
14,test,4,1.0,2-Back,1,z,Tue Jan 28 2025 12:27:08 GMT-0600 (Central Standard Time),725164.200000003,082_m_m_n_a.png,I,z,857,18,1,1878.4000000059605,723285.799999997,8015,NNB,C,16
0,test,5,1.0,2-Back,,,Tue Jan 28 2025 12:27:08 GMT-0600 (Central Standard Time),725164.200000003,057_y_m_n_a.png,I,space,1744,1,1,1878.4000000059605,723285.799999997,8015,NNB,C,0
0,test,5,1.0,2-Back,,,Tue Jan 28 2025 12:27:08 GMT-0600 (Central Standard Time),725164.200000003,093_m_f_n_a.png,I,space,1744,2,1,1878.4000000059605,723285.799999997,8015,NNB,C,0
1,test,5,1.0,2-Back,1,z,Tue Jan 28 2025 12:27:08 GMT-0600 (Central Standard Time),733595.099999994,057_y_m_n_a.png,I,z,600,3,1,1629.5,731965.599999994,8015,NNB,C,1
2,test,5,1.0,2-Back,1,z,Tue Jan 28 2025 12:27:08 GMT-0600 (Central Standard Time),736210.700000003,093_m_f_n_a.png,I,z,1592,4,1,2611.7000000029802,733599.0,8015,NNB,C,2
3,test,5,0.0,2-Back,1,m,Tue Jan 28 2025 12:27:08 GMT-0600 (Central Standard Time),738026.8999999911,130_o_f_n_a.png,I,m,784,5,1,1812.199999988079,736214.700000003,8015,NNB,C,3
3,test,5,0.0,2-Back,0,m,Tue Jan 28 2025 12:27:08 GMT-0600 (Central Standard Time),741189.700000003,057_y_m_n_a.png,I,None,2144,6,1,3159.1000000089407,738030.599999994,8015,NNB,C,4
4,test,5,0.0,2-Back,1,m,Tue Jan 28 2025 12:27:08 GMT-0600 (Central Standard Time),743058.700000003,028_y_f_n_a.png,I,m,834,7,1,1865.0,741193.700000003,8015,NNB,C,5
5,test,5,0.0,2-Back,1,m,Tue Jan 28 2025 12:27:08 GMT-0600 (Central Standard Time),745691.200000003,130_o_f_n_a.png,I,m,1600,8,1,2628.6000000089407,743062.599999994,8015,NNB,C,6
5,test,5,1.0,2-Back,0,z,Tue Jan 28 2025 12:27:08 GMT-0600 (Central Standard Time),747840.599999994,028_y_f_n_a.png,I,m,1119,9,1,2145.7000000029802,745694.8999999911,8015,NNB,C,7
6,test,5,0.0,2-Back,1,m,Tue Jan 28 2025 12:27:08 GMT-0600 (Central Standard Time),749706.8999999911,146_o_m_n_a.png,I,m,842,10,1,1862.3999999910593,747844.5,8015,NNB,C,8
7,test,5,0.0,2-Back,1,m,Tue Jan 28 2025 12:27:08 GMT-0600 (Central Standard Time),751689.599999994,006_m_f_n_a.png,I,m,960,11,1,1979.3999999910593,749710.200000003,8015,NNB,C,9
8,test,5,0.0,2-Back,1,m,Tue Jan 28 2025 12:27:08 GMT-0600 (Central Standard Time),753555.599999994,092_m_m_n_a.png,I,m,841,12,1,1862.2999999970198,751693.299999997,8015,NNB,C,10
8,test,5,0.0,2-Back,0,m,Tue Jan 28 2025 12:27:08 GMT-0600 (Central Standard Time),755421.599999994,146_o_m_n_a.png,I,z,847,13,1,1862.0999999940395,753559.5,8015,NNB,C,11
9,test,5,1.0,2-Back,1,z,Tue Jan 28 2025 12:27:08 GMT-0600 (Central Standard Time),757337.599999994,092_m_m_n_a.png,I,z,893,14,1,1912.2999999970198,755425.299999997,8015,NNB,C,12
10,test,5,0.0,2-Back,1,m,Tue Jan 28 2025 12:27:08 GMT-0600 (Central Standard Time),759220.200000003,098_y_f_n_a.png,I,m,849,15,1,1879.6000000089407,757340.599999994,8015,NNB,C,13
11,test,5,0.0,2-Back,1,m,Tue Jan 28 2025 12:27:08 GMT-0600 (Central Standard Time),761402.8999999911,059_o_m_n_a.png,I,m,1151,16,1,2179.0,759223.8999999911,8015,NNB,C,14
11,test,5,0.0,2-Back,0,m,Tue Jan 28 2025 12:27:08 GMT-0600 (Central Standard Time),763319.099999994,006_m_f_n_a.png,I,z,895,17,1,1912.5,761406.599999994,8015,NNB,C,15
11,test,5,1.0,2-Back,0,z,Tue Jan 28 2025 12:27:08 GMT-0600 (Central Standard Time),765235.200000003,059_o_m_n_a.png,I,m,892,18,1,1912.2000000029802,763323.0,8015,NNB,C,16
