block_c,block_dur,condition,countdown,datetime,endtime,list,multichar_response,project,response,response_time,session_number,start_end,starttime,subject_id,task,task_vers,trial
,,,,Fri Apr 04 2025 12:26:37 GMT-0500 (Central Daylight Time),,,,O,space,4085,1,,,7070,WL,C,
prac,,0,,Fri Apr 04 2025 12:26:37 GMT-0500 (Central Daylight Time),,NA,b,O,b,3855,1,,,7070,WL,C,1.0
prac,,0,,Fri Apr 04 2025 12:26:37 GMT-0500 (Central Daylight Time),,NA,bo,O,o,178,1,,,7070,WL,C,1.0
prac,,0,,Fri Apr 04 2025 12:26:37 GMT-0500 (Central Daylight Time),,NA,boo,O,o,143,1,,,7070,WL,C,1.0
prac,,0,,Fri Apr 04 2025 12:26:37 GMT-0500 (Central Daylight Time),,NA,boos,O,s,202,1,,,7070,WL,C,1.0
prac,,0,,Fri Apr 04 2025 12:26:37 GMT-0500 (Central Daylight Time),,NA,boost,O,t,257,1,,,7070,WL,C,1.0
prac,,0,,Fri Apr 04 2025 12:26:37 GMT-0500 (Central Daylight Time),,NA,boostenter,O,enter,2381,1,,,7070,WL,C,1.0
1,1.4809999465942383,learn,58519.00005340576,Fri Apr 04 2025 12:26:37 GMT-0500 (Central Daylight Time),163374.5,A,t,O,t,1463,1,1480.7999999970198,161893.70000000298,7070,WL,C,1.0
1,1.7990000247955322,learn,58200.99997520447,Fri Apr 04 2025 12:26:37 GMT-0500 (Central Daylight Time),163692.6000000015,A,to,O,o,302,1,1798.8999999985099,161893.70000000298,7070,WL,C,1.0
1,1.8980000019073486,learn,58101.99999809265,Fri Apr 04 2025 12:26:37 GMT-0500 (Central Daylight Time),163791.1000000015,A,tow,O,w,80,1,1897.3999999985099,161893.70000000298,7070,WL,C,1.0
1,2.0810000896453857,learn,57918.999910354614,Fri Apr 04 2025 12:26:37 GMT-0500 (Central Daylight Time),163974.0,A,towe,O,e,175,1,2080.2999999970198,161893.70000000298,7070,WL,C,1.0
1,2.615000009536743,learn,57384.99999046326,Fri Apr 04 2025 12:26:37 GMT-0500 (Central Daylight Time),164508.70000000298,A,tower,O,r,520,1,2615.0,161893.70000000298,7070,WL,C,1.0
1,4.082000017166138,learn,55917.99998283386,Fri Apr 04 2025 12:26:37 GMT-0500 (Central Daylight Time),165975.20000000298,A,towerc,O,c,1445,1,4081.5,161893.70000000298,7070,WL,C,1.0
1,4.265000104904175,learn,55734.999895095825,Fri Apr 04 2025 12:26:37 GMT-0500 (Central Daylight Time),166158.29999999702,A,towerca,O,a,167,1,4264.5999999940395,161893.70000000298,7070,WL,C,1.0
1,4.415999889373779,learn,55584.00011062622,Fri Apr 04 2025 12:26:37 GMT-0500 (Central Daylight Time),166308.8999999985,A,towercan,O,n,145,1,4415.19999999553,161893.70000000298,7070,WL,C,1.0
1,4.913000106811523,learn,55086.99989318848,Fri Apr 04 2025 12:26:37 GMT-0500 (Central Daylight Time),166806.70000000298,A,towercanp,O,p,487,1,4913.0,161893.70000000298,7070,WL,C,1.0
1,5.664000034332275,learn,54335.999965667725,Fri Apr 04 2025 12:26:37 GMT-0500 (Central Daylight Time),167557.1000000015,A,towercanpf,O,f,745,1,5663.39999999851,161893.70000000298,7070,WL,C,1.0
1,5.864000082015991,learn,54135.99991798401,Fri Apr 04 2025 12:26:37 GMT-0500 (Central Daylight Time),167757.0,A,towercanpfl,O,l,192,1,5863.29999999702,161893.70000000298,7070,WL,C,1.0
1,6.046999931335449,learn,53953.00006866455,Fri Apr 04 2025 12:26:37 GMT-0500 (Central Daylight Time),167940.3999999985,A,towercanpfla,O,a,174,1,6046.69999999553,161893.70000000298,7070,WL,C,1.0
1,9.598000049591064,learn,50401.999950408936,Fri Apr 04 2025 12:26:37 GMT-0500 (Central Daylight Time),171491.1000000015,A,towercanpfl,O,backspace,3544,1,9597.39999999851,161893.70000000298,7070,WL,C,1.0
1,10.196000099182129,learn,49803.99990081787,Fri Apr 04 2025 12:26:37 GMT-0500 (Central Daylight Time),172089.8999999985,A,towercanpf,O,backspace,578,1,10196.19999999553,161893.70000000298,7070,WL,C,1.0
1,11.529000043869019,learn,48470.99995613098,Fri Apr 04 2025 12:26:37 GMT-0500 (Central Daylight Time),173422.0,A,towercanp,O,backspace,1324,1,11528.29999999702,161893.70000000298,7070,WL,C,1.0
1,11.944999933242798,learn,48055.0000667572,Fri Apr 04 2025 12:26:37 GMT-0500 (Central Daylight Time),173838.1000000015,A,towercan,O,backspace,398,1,11944.39999999851,161893.70000000298,7070,WL,C,1.0
1,12.194999933242798,learn,47805.0000667572,Fri Apr 04 2025 12:26:37 GMT-0500 (Central Daylight Time),174088.20000000298,A,towerca,O,backspace,240,1,12194.5,161893.70000000298,7070,WL,C,1.0
1,12.395999908447266,learn,47604.000091552734,Fri Apr 04 2025 12:26:37 GMT-0500 (Central Daylight Time),174289.1000000015,A,towerc,O,backspace,181,1,12395.39999999851,161893.70000000298,7070,WL,C,1.0
1,12.594000101089478,learn,47405.99989891052,Fri Apr 04 2025 12:26:37 GMT-0500 (Central Daylight Time),174487.6000000015,A,tower,O,backspace,179,1,12593.89999999851,161893.70000000298,7070,WL,C,1.0
1,18.52500009536743,learn,41474.99990463257,Fri Apr 04 2025 12:26:37 GMT-0500 (Central Daylight Time),180419.5,A,towerenter,O,enter,5914,1,18525.79999999702,161893.70000000298,7070,WL,C,1.0
1,20.973999977111816,learn,39026.00002288818,Fri Apr 04 2025 12:26:37 GMT-0500 (Central Daylight Time),182868.5,A,c,O,c,2442,1,2448.5,180420.0,7070,WL,C,2.0
1,21.191999912261963,learn,38808.00008773804,Fri Apr 04 2025 12:26:37 GMT-0500 (Central Daylight Time),183086.29999999702,A,ca,O,a,211,1,2666.2999999970198,180420.0,7070,WL,C,2.0
1,21.973999977111816,learn,38026.00002288818,Fri Apr 04 2025 12:26:37 GMT-0500 (Central Daylight Time),183868.0,A,cam,O,m,766,1,3448.0,180420.0,7070,WL,C,2.0
1,22.67300009727478,learn,37326.99990272522,Fri Apr 04 2025 12:26:37 GMT-0500 (Central Daylight Time),184567.6000000015,A,camp,O,p,688,1,4147.60000000149,180420.0,7070,WL,C,2.0
1,24.22699999809265,learn,35773.00000190735,Fri Apr 04 2025 12:26:37 GMT-0500 (Central Daylight Time),186121.0,A,campenter,O,enter,1533,1,5701.0,180420.0,7070,WL,C,2.0
1,25.473000049591064,learn,34526.999950408936,Fri Apr 04 2025 12:26:37 GMT-0500 (Central Daylight Time),187367.0,A,f,O,f,1238,1,1245.7999999970198,186121.20000000298,7070,WL,C,3.0
1,25.640000104904175,learn,34359.999895095825,Fri Apr 04 2025 12:26:37 GMT-0500 (Central Daylight Time),187533.70000000298,A,fl,O,l,159,1,1412.5,186121.20000000298,7070,WL,C,3.0
1,25.808000087738037,learn,34191.99991226196,Fri Apr 04 2025 12:26:37 GMT-0500 (Central Daylight Time),187702.20000000298,A,fla,O,a,152,1,1581.0,186121.20000000298,7070,WL,C,3.0
1,26.405999898910522,learn,33594.00010108948,Fri Apr 04 2025 12:26:37 GMT-0500 (Central Daylight Time),188300.29999999702,A,flag,O,g,581,1,2179.0999999940395,186121.20000000298,7070,WL,C,3.0
1,26.67199993133545,learn,33328.00006866455,Fri Apr 04 2025 12:26:37 GMT-0500 (Central Daylight Time),188566.1000000015,A,flagenter,O,enter,247,1,2444.89999999851,186121.20000000298,7070,WL,C,3.0
1,27.039000034332275,learn,32960.999965667725,Fri Apr 04 2025 12:26:37 GMT-0500 (Central Daylight Time),188933.29999999702,A,d,O,d,350,1,366.79999999701977,188566.5,7070,WL,C,4.0
1,27.35699987411499,learn,32643.00012588501,Fri Apr 04 2025 12:26:37 GMT-0500 (Central Daylight Time),189250.8999999985,A,do,O,o,304,1,684.3999999985099,188566.5,7070,WL,C,4.0
1,27.539999961853027,learn,32460.000038146973,Fri Apr 04 2025 12:26:37 GMT-0500 (Central Daylight Time),189434.3999999985,A,doc,O,c,170,1,867.8999999985099,188566.5,7070,WL,C,4.0
1,27.85599994659424,learn,32144.00005340576,Fri Apr 04 2025 12:26:37 GMT-0500 (Central Daylight Time),189750.0,A,doct,O,t,298,1,1183.5,188566.5,7070,WL,C,4.0
1,28.72099995613098,learn,31279.00004386902,Fri Apr 04 2025 12:26:37 GMT-0500 (Central Daylight Time),190615.6000000015,A,doctr,O,r,853,1,2049.10000000149,188566.5,7070,WL,C,4.0
1,29.15499997138977,learn,30845.00002861023,Fri Apr 04 2025 12:26:37 GMT-0500 (Central Daylight Time),191049.20000000298,A,doctrenter,O,enter,421,1,2482.7000000029802,188566.5,7070,WL,C,4.0
1,34.95300006866455,learn,25046.99993133545,Fri Apr 04 2025 12:26:37 GMT-0500 (Central Daylight Time),196847.3999999985,A,c,O,c,5788,1,5798.0,191049.3999999985,7070,WL,C,5.0
1,35.22099995613098,learn,24779.00004386902,Fri Apr 04 2025 12:26:37 GMT-0500 (Central Daylight Time),197115.29999999702,A,cr,O,r,263,1,6065.89999999851,191049.3999999985,7070,WL,C,5.0
1,35.42199993133545,learn,24578.00006866455,Fri Apr 04 2025 12:26:37 GMT-0500 (Central Daylight Time),197316.3999999985,A,cre,O,e,194,1,6267.0,191049.3999999985,7070,WL,C,5.0
1,35.65400004386902,learn,24345.99995613098,Fri Apr 04 2025 12:26:37 GMT-0500 (Central Daylight Time),197548.1000000015,A,crea,O,a,217,1,6498.70000000298,191049.3999999985,7070,WL,C,5.0
1,35.98699998855591,learn,24013.00001144409,Fri Apr 04 2025 12:26:37 GMT-0500 (Central Daylight Time),197881.1000000015,A,crean,O,n,320,1,6831.70000000298,191049.3999999985,7070,WL,C,5.0
1,37.269999980926514,learn,22730.000019073486,Fri Apr 04 2025 12:26:37 GMT-0500 (Central Daylight Time),199164.3999999985,A,crea,O,backspace,1277,1,8115.0,191049.3999999985,7070,WL,C,5.0
1,37.80399990081787,learn,22196.00009918213,Fri Apr 04 2025 12:26:37 GMT-0500 (Central Daylight Time),199698.70000000298,A,cream,O,m,512,1,8649.30000000447,191049.3999999985,7070,WL,C,5.0
1,39.53500008583069,learn,20464.99991416931,Fri Apr 04 2025 12:26:37 GMT-0500 (Central Daylight Time),201428.8999999985,A,creamenter,O,enter,1724,1,10379.5,191049.3999999985,7070,WL,C,5.0
1,46.01699995994568,learn,13983.000040054321,Fri Apr 04 2025 12:26:37 GMT-0500 (Central Daylight Time),207911.3999999985,A,f,O,f,6464,1,6482.10000000149,201429.29999999702,7070,WL,C,6.0
1,46.26699995994568,learn,13733.000040054321,Fri Apr 04 2025 12:26:37 GMT-0500 (Central Daylight Time),208161.29999999702,A,fl,O,l,238,1,6732.0,201429.29999999702,7070,WL,C,6.0
1,46.41799998283386,learn,13582.000017166138,Fri Apr 04 2025 12:26:37 GMT-0500 (Central Daylight Time),208311.8999999985,A,fla,O,a,132,1,6882.60000000149,201429.29999999702,7070,WL,C,6.0
1,46.71600008010864,learn,13283.999919891357,Fri Apr 04 2025 12:26:37 GMT-0500 (Central Daylight Time),208610.20000000298,A,flag,O,g,285,1,7180.9000000059605,201429.29999999702,7070,WL,C,6.0
1,47.615999937057495,learn,12384.000062942505,Fri Apr 04 2025 12:26:37 GMT-0500 (Central Daylight Time),209510.0,A,flagenter,O,enter,883,1,8080.70000000298,201429.29999999702,7070,WL,C,6.0
1,51.367000102996826,learn,8632.999897003174,Fri Apr 04 2025 12:26:37 GMT-0500 (Central Daylight Time),213260.6000000015,A,b,O,b,3745,1,3750.3000000044703,209510.29999999702,7070,WL,C,7.0
1,51.73199987411499,learn,8268.00012588501,Fri Apr 04 2025 12:26:37 GMT-0500 (Central Daylight Time),213625.70000000298,A,bo,O,o,351,1,4115.4000000059605,209510.29999999702,7070,WL,C,7.0
1,52.015000104904175,learn,7984.999895095825,Fri Apr 04 2025 12:26:37 GMT-0500 (Central Daylight Time),213909.29999999702,A,boy,O,y,268,1,4399.0,209510.29999999702,7070,WL,C,7.0
1,53.44799995422363,learn,6552.000045776367,Fri Apr 04 2025 12:26:37 GMT-0500 (Central Daylight Time),215341.79999999702,A,boyenter,O,enter,1414,1,5831.5,209510.29999999702,7070,WL,C,7.0
1,60.01300001144409,learn,-13.000011444091797,Fri Apr 04 2025 12:26:37 GMT-0500 (Central Daylight Time),221907.1000000015,A,None,O,None,6560,1,6565.0,215342.1000000015,7070,WL,C,8.0
2,2.1000001430511475,learn,57899.99985694885,Fri Apr 04 2025 12:26:37 GMT-0500 (Central Daylight Time),336637.6000000015,A,t,O,t,2091,1,2100.2000000029802,334537.3999999985,7070,WL,C,1.0
2,2.315999984741211,learn,57684.00001525879,Fri Apr 04 2025 12:26:37 GMT-0500 (Central Daylight Time),336853.8999999985,A,to,O,o,208,1,2316.5,334537.3999999985,7070,WL,C,1.0
2,2.683000087738037,learn,57316.99991226196,Fri Apr 04 2025 12:26:37 GMT-0500 (Central Daylight Time),337220.5,A,tow,O,w,359,1,2683.10000000149,334537.3999999985,7070,WL,C,1.0
2,2.931999921798706,learn,57068.000078201294,Fri Apr 04 2025 12:26:37 GMT-0500 (Central Daylight Time),337469.799999997,A,towe,O,e,233,1,2932.39999999851,334537.3999999985,7070,WL,C,1.0
2,3.1489999294281006,learn,56851.0000705719,Fri Apr 04 2025 12:26:37 GMT-0500 (Central Daylight Time),337686.200000003,A,tower,O,r,194,1,3148.8000000044703,334537.3999999985,7070,WL,C,1.0
2,4.615999937057495,learn,55384.000062942505,Fri Apr 04 2025 12:26:37 GMT-0500 (Central Daylight Time),339153.1000000015,A,towerenter,O,enter,1455,1,4615.70000000298,334537.3999999985,7070,WL,C,1.0
2,6.21399998664856,learn,53786.00001335144,Fri Apr 04 2025 12:26:37 GMT-0500 (Central Daylight Time),340751.299999997,A,w,O,w,1589,1,1598.0,339153.299999997,7070,WL,C,2.0
2,6.398000001907349,learn,53601.99999809265,Fri Apr 04 2025 12:26:37 GMT-0500 (Central Daylight Time),340935.200000003,A,wh,O,h,166,1,1781.9000000059605,339153.299999997,7070,WL,C,2.0
2,6.664000034332275,learn,53335.999965667725,Fri Apr 04 2025 12:26:37 GMT-0500 (Central Daylight Time),341201.799999997,A,whe,O,e,246,1,2048.5,339153.299999997,7070,WL,C,2.0
2,6.9649999141693115,learn,53035.00008583069,Fri Apr 04 2025 12:26:37 GMT-0500 (Central Daylight Time),341502.1000000015,A,whea,O,a,283,1,2348.8000000044703,339153.299999997,7070,WL,C,2.0
2,7.263999938964844,learn,52736.000061035156,Fri Apr 04 2025 12:26:37 GMT-0500 (Central Daylight Time),341801.6000000015,A,wheat,O,t,287,1,2648.3000000044703,339153.299999997,7070,WL,C,2.0
2,9.680000066757202,learn,50319.9999332428,Fri Apr 04 2025 12:26:37 GMT-0500 (Central Daylight Time),344217.799999997,A,wheatenter,O,enter,2395,1,5064.5,339153.299999997,7070,WL,C,2.0
2,11.147000074386597,learn,48852.9999256134,Fri Apr 04 2025 12:26:37 GMT-0500 (Central Daylight Time),345685.0,A,q,O,q,1461,1,1466.8999999985099,344218.1000000015,7070,WL,C,3.0
2,11.396000146865845,learn,48603.999853134155,Fri Apr 04 2025 12:26:37 GMT-0500 (Central Daylight Time),345933.3999999985,A,qu,O,u,242,1,1715.2999999970198,344218.1000000015,7070,WL,C,3.0
2,11.712000131607056,learn,48287.999868392944,Fri Apr 04 2025 12:26:37 GMT-0500 (Central Daylight Time),346249.8999999985,A,que,O,e,303,1,2031.7999999970198,344218.1000000015,7070,WL,C,3.0
2,11.930000066757202,learn,48069.9999332428,Fri Apr 04 2025 12:26:37 GMT-0500 (Central Daylight Time),346467.200000003,A,quee,O,e,204,1,2249.10000000149,344218.1000000015,7070,WL,C,3.0
2,12.411999940872192,learn,47588.00005912781,Fri Apr 04 2025 12:26:37 GMT-0500 (Central Daylight Time),346949.700000003,A,queen,O,n,466,1,2731.60000000149,344218.1000000015,7070,WL,C,3.0
2,15.111999988555908,learn,44888.00001144409,Fri Apr 04 2025 12:26:37 GMT-0500 (Central Daylight Time),349649.0,A,queenenter,O,enter,2687,1,5430.89999999851,344218.1000000015,7070,WL,C,3.0
2,16.127000093460083,learn,43872.99990653992,Fri Apr 04 2025 12:26:37 GMT-0500 (Central Daylight Time),350665.0,A,b,O,b,1006,1,1015.7000000029802,349649.299999997,7070,WL,C,4.0
2,16.496000051498413,learn,43503.99994850159,Fri Apr 04 2025 12:26:37 GMT-0500 (Central Daylight Time),351033.299999997,A,bo,O,o,358,1,1384.0,349649.299999997,7070,WL,C,4.0
2,16.861000061035156,learn,43138.999938964844,Fri Apr 04 2025 12:26:37 GMT-0500 (Central Daylight Time),351398.200000003,A,boy,O,y,359,1,1748.9000000059605,349649.299999997,7070,WL,C,4.0
2,18.360000133514404,learn,41639.999866485596,Fri Apr 04 2025 12:26:37 GMT-0500 (Central Daylight Time),352897.5,A,boyenter,O,enter,1487,1,3248.2000000029802,349649.299999997,7070,WL,C,4.0
2,19.092999935150146,learn,40907.00006484985,Fri Apr 04 2025 12:26:37 GMT-0500 (Central Daylight Time),353631.200000003,A,c,O,c,724,1,733.4000000059605,352897.799999997,7070,WL,C,5.0
2,19.3270001411438,learn,40672.9998588562,Fri Apr 04 2025 12:26:37 GMT-0500 (Central Daylight Time),353864.700000003,A,ca,O,a,222,1,966.9000000059605,352897.799999997,7070,WL,C,5.0
2,19.611000061035156,learn,40388.999938964844,Fri Apr 04 2025 12:26:37 GMT-0500 (Central Daylight Time),354148.299999997,A,cam,O,m,269,1,1250.5,352897.799999997,7070,WL,C,5.0
2,20.193000078201294,learn,39806.999921798706,Fri Apr 04 2025 12:26:37 GMT-0500 (Central Daylight Time),354730.8999999985,A,camp,O,p,559,1,1833.1000000014901,352897.799999997,7070,WL,C,5.0
2,21.91100001335144,learn,38088.99998664856,Fri Apr 04 2025 12:26:37 GMT-0500 (Central Daylight Time),356449.200000003,A,campenter,O,enter,1697,1,3551.4000000059605,352897.799999997,7070,WL,C,5.0
2,22.608999967575073,learn,37391.00003242493,Fri Apr 04 2025 12:26:37 GMT-0500 (Central Daylight Time),357147.700000003,A,f,O,f,676,1,698.2000000029802,356449.5,7070,WL,C,6.0
2,22.7260000705719,learn,37273.9999294281,Fri Apr 04 2025 12:26:37 GMT-0500 (Central Daylight Time),357264.0,A,fl,O,l,97,1,814.5,356449.5,7070,WL,C,6.0
2,22.89300012588501,learn,37106.99987411499,Fri Apr 04 2025 12:26:37 GMT-0500 (Central Daylight Time),357431.1000000015,A,fla,O,a,155,1,981.6000000014901,356449.5,7070,WL,C,6.0
2,23.125,learn,36875.0,Fri Apr 04 2025 12:26:37 GMT-0500 (Central Daylight Time),357663.3999999985,A,flag,O,g,218,1,1213.8999999985099,356449.5,7070,WL,C,6.0
2,23.558000087738037,learn,36441.99991226196,Fri Apr 04 2025 12:26:37 GMT-0500 (Central Daylight Time),358096.700000003,A,flagenter,O,enter,419,1,1647.2000000029802,356449.5,7070,WL,C,6.0
2,23.907999992370605,learn,36092.000007629395,Fri Apr 04 2025 12:26:37 GMT-0500 (Central Daylight Time),358446.700000003,A,c,O,c,341,1,349.70000000298023,358097.0,7070,WL,C,7.0
2,24.092999935150146,learn,35907.00006484985,Fri Apr 04 2025 12:26:37 GMT-0500 (Central Daylight Time),358631.0,A,co,O,o,166,1,534.0,358097.0,7070,WL,C,7.0
2,24.493000030517578,learn,35506.99996948242,Fri Apr 04 2025 12:26:37 GMT-0500 (Central Daylight Time),359031.0,A,cor,O,r,391,1,934.0,358097.0,7070,WL,C,7.0
2,24.95900011062622,learn,35040.99988937378,Fri Apr 04 2025 12:26:37 GMT-0500 (Central Daylight Time),359497.299999997,A,corn,O,n,455,1,1400.2999999970198,358097.0,7070,WL,C,7.0
2,25.508000135421753,learn,34491.99986457825,Fri Apr 04 2025 12:26:37 GMT-0500 (Central Daylight Time),360046.0,A,cornenter,O,enter,522,1,1949.0,358097.0,7070,WL,C,7.0
2,25.808000087738037,learn,34191.99991226196,Fri Apr 04 2025 12:26:37 GMT-0500 (Central Daylight Time),360346.799999997,A,c,O,c,288,1,300.5,360046.299999997,7070,WL,C,8.0
2,25.993000030517578,learn,34006.99996948242,Fri Apr 04 2025 12:26:37 GMT-0500 (Central Daylight Time),360531.200000003,A,ca,O,a,173,1,484.90000000596046,360046.299999997,7070,WL,C,8.0
2,26.258000135421753,learn,33741.99986457825,Fri Apr 04 2025 12:26:37 GMT-0500 (Central Daylight Time),360796.3999999985,A,cat,O,t,248,1,750.1000000014901,360046.299999997,7070,WL,C,8.0
2,26.408999919891357,learn,33591.00008010864,Fri Apr 04 2025 12:26:37 GMT-0500 (Central Daylight Time),360947.6000000015,A,catt,O,t,127,1,901.3000000044703,360046.299999997,7070,WL,C,8.0
2,26.575000047683716,learn,33424.999952316284,Fri Apr 04 2025 12:26:37 GMT-0500 (Central Daylight Time),361113.1000000015,A,cattl,O,l,140,1,1066.8000000044703,360046.299999997,7070,WL,C,8.0
2,26.70799994468689,learn,33292.00005531311,Fri Apr 04 2025 12:26:37 GMT-0500 (Central Daylight Time),361246.5,A,cattle,O,e,108,1,1200.2000000029802,360046.299999997,7070,WL,C,8.0
2,27.924000024795532,learn,32075.999975204468,Fri Apr 04 2025 12:26:37 GMT-0500 (Central Daylight Time),362461.8999999985,A,cattleenter,O,enter,1204,1,2415.60000000149,360046.299999997,7070,WL,C,8.0
2,30.789000034332275,learn,29210.999965667725,Fri Apr 04 2025 12:26:37 GMT-0500 (Central Daylight Time),365327.200000003,A,d,O,d,2856,1,2864.9000000059605,362462.299999997,7070,WL,C,9.0
2,31.00600004196167,learn,28993.99995803833,Fri Apr 04 2025 12:26:37 GMT-0500 (Central Daylight Time),365544.1000000015,A,do,O,o,204,1,3081.8000000044703,362462.299999997,7070,WL,C,9.0
2,31.140000104904175,learn,28859.999895095825,Fri Apr 04 2025 12:26:37 GMT-0500 (Central Daylight Time),365678.299999997,A,doc,O,c,116,1,3216.0,362462.299999997,7070,WL,C,9.0
2,31.42300009727478,learn,28576.99990272522,Fri Apr 04 2025 12:26:37 GMT-0500 (Central Daylight Time),365961.299999997,A,doct,O,t,259,1,3499.0,362462.299999997,7070,WL,C,9.0
2,32.07299995422363,learn,27927.000045776367,Fri Apr 04 2025 12:26:37 GMT-0500 (Central Daylight Time),366611.799999997,A,docto,O,o,634,1,4149.5,362462.299999997,7070,WL,C,9.0
2,32.20700001716614,learn,27792.999982833862,Fri Apr 04 2025 12:26:37 GMT-0500 (Central Daylight Time),366745.200000003,A,doctor,O,r,112,1,4282.9000000059605,362462.299999997,7070,WL,C,9.0
2,33.7720000743866,learn,26227.999925613403,Fri Apr 04 2025 12:26:37 GMT-0500 (Central Daylight Time),368310.3999999985,A,doctorenter,O,enter,1544,1,5848.10000000149,362462.299999997,7070,WL,C,9.0
2,35.223000049591064,learn,24776.999950408936,Fri Apr 04 2025 12:26:37 GMT-0500 (Central Daylight Time),369760.799999997,A,b,O,b,1439,1,1450.0999999940395,368310.700000003,7070,WL,C,10.0
2,35.69000005722046,learn,24309.99994277954,Fri Apr 04 2025 12:26:37 GMT-0500 (Central Daylight Time),370228.1000000015,A,bo,O,o,457,1,1917.3999999985099,368310.700000003,7070,WL,C,10.0
2,36.02300000190735,learn,23976.99999809265,Fri Apr 04 2025 12:26:37 GMT-0500 (Central Daylight Time),370561.3999999985,A,boy,O,y,316,1,2250.6999999955297,368310.700000003,7070,WL,C,10.0
2,37.47000002861023,learn,22529.99997138977,Fri Apr 04 2025 12:26:37 GMT-0500 (Central Daylight Time),372008.3999999985,A,boyenter,O,enter,1432,1,3697.6999999955297,368310.700000003,7070,WL,C,10.0
2,43.70300006866455,learn,16296.99993133545,Fri Apr 04 2025 12:26:37 GMT-0500 (Central Daylight Time),378241.200000003,A,s,O,s,6221,1,6232.60000000149,372008.6000000015,7070,WL,C,11.0
2,43.954999923706055,learn,16045.000076293945,Fri Apr 04 2025 12:26:37 GMT-0500 (Central Daylight Time),378493.0,A,su,O,u,242,1,6484.39999999851,372008.6000000015,7070,WL,C,11.0
2,44.170000076293945,learn,15829.999923706055,Fri Apr 04 2025 12:26:37 GMT-0500 (Central Daylight Time),378708.799999997,A,sug,O,g,198,1,6700.19999999553,372008.6000000015,7070,WL,C,11.0
2,44.37000012397766,learn,15629.999876022339,Fri Apr 04 2025 12:26:37 GMT-0500 (Central Daylight Time),378908.0,A,suga,O,a,191,1,6899.39999999851,372008.6000000015,7070,WL,C,11.0
2,44.634000062942505,learn,15365.999937057495,Fri Apr 04 2025 12:26:37 GMT-0500 (Central Daylight Time),379172.799999997,A,sugar,O,r,251,1,7164.19999999553,372008.6000000015,7070,WL,C,11.0
2,45.21799993515015,learn,14782.000064849854,Fri Apr 04 2025 12:26:37 GMT-0500 (Central Daylight Time),379756.8999999985,A,sugarenter,O,enter,572,1,7748.29999999702,372008.6000000015,7070,WL,C,11.0
2,47.799999952316284,learn,12200.000047683716,Fri Apr 04 2025 12:26:37 GMT-0500 (Central Daylight Time),382338.299999997,A,l,O,l,2568,1,2580.89999999851,379757.3999999985,7070,WL,C,12.0
2,47.901000022888184,learn,12098.999977111816,Fri Apr 04 2025 12:26:37 GMT-0500 (Central Daylight Time),382439.200000003,A,le,O,e,89,1,2681.8000000044703,379757.3999999985,7070,WL,C,12.0
2,48.16700005531311,learn,11832.99994468689,Fri Apr 04 2025 12:26:37 GMT-0500 (Central Daylight Time),382705.6000000015,A,let,O,t,247,1,2948.2000000029802,379757.3999999985,7070,WL,C,12.0
2,48.28399991989136,learn,11716.000080108643,Fri Apr 04 2025 12:26:37 GMT-0500 (Central Daylight Time),382821.8999999985,A,lett,O,t,95,1,3064.5,379757.3999999985,7070,WL,C,12.0
2,48.50099992752075,learn,11499.000072479248,Fri Apr 04 2025 12:26:37 GMT-0500 (Central Daylight Time),383039.3999999985,A,lette,O,e,203,1,3282.0,379757.3999999985,7070,WL,C,12.0
2,48.6029999256134,learn,11397.000074386597,Fri Apr 04 2025 12:26:37 GMT-0500 (Central Daylight Time),383140.8999999985,A,letter,O,r,96,1,3383.5,379757.3999999985,7070,WL,C,12.0
2,48.884000062942505,learn,11115.999937057495,Fri Apr 04 2025 12:26:37 GMT-0500 (Central Daylight Time),383422.200000003,A,letterenter,O,enter,263,1,3664.8000000044703,379757.3999999985,7070,WL,C,12.0
2,60.01300001144409,learn,-13.000011444091797,Fri Apr 04 2025 12:26:37 GMT-0500 (Central Daylight Time),394551.6000000015,A,None,O,None,11124,1,11129.10000000149,383422.5,7070,WL,C,13.0
3,1.9500000476837158,learn,58049.999952316284,Fri Apr 04 2025 12:26:37 GMT-0500 (Central Daylight Time),464030.5,A,t,O,t,1932,1,1949.2999999970198,462081.200000003,7070,WL,C,1.0
3,2.183000087738037,learn,57816.99991226196,Fri Apr 04 2025 12:26:37 GMT-0500 (Central Daylight Time),464263.5,A,to,O,o,215,1,2182.2999999970198,462081.200000003,7070,WL,C,1.0
3,2.381999969482422,learn,57618.00003051758,Fri Apr 04 2025 12:26:37 GMT-0500 (Central Daylight Time),464462.6000000015,A,tow,O,w,191,1,2381.39999999851,462081.200000003,7070,WL,C,1.0
3,2.5820000171661377,learn,57417.99998283386,Fri Apr 04 2025 12:26:37 GMT-0500 (Central Daylight Time),464663.0,A,towe,O,e,189,1,2581.7999999970198,462081.200000003,7070,WL,C,1.0
3,2.797999858856201,learn,57202.0001411438,Fri Apr 04 2025 12:26:37 GMT-0500 (Central Daylight Time),464879.299999997,A,tower,O,r,206,1,2798.0999999940395,462081.200000003,7070,WL,C,1.0
3,4.466000080108643,learn,55533.99991989136,Fri Apr 04 2025 12:26:37 GMT-0500 (Central Daylight Time),466546.8999999985,A,towerenter,O,enter,1655,1,4465.69999999553,462081.200000003,7070,WL,C,1.0
3,4.799000024795532,learn,55200.99997520447,Fri Apr 04 2025 12:26:37 GMT-0500 (Central Daylight Time),466879.799999997,A,w,O,w,323,1,332.59999999403954,466547.200000003,7070,WL,C,2.0
3,5.046999931335449,learn,54953.00006866455,Fri Apr 04 2025 12:26:37 GMT-0500 (Central Daylight Time),467128.1000000015,A,wh,O,h,229,1,580.8999999985099,466547.200000003,7070,WL,C,2.0
3,5.213000059127808,learn,54786.99994087219,Fri Apr 04 2025 12:26:37 GMT-0500 (Central Daylight Time),467294.200000003,A,whe,O,e,157,1,747.0,466547.200000003,7070,WL,C,2.0
3,5.563999891281128,learn,54436.00010871887,Fri Apr 04 2025 12:26:37 GMT-0500 (Central Daylight Time),467645.200000003,A,whea,O,a,334,1,1098.0,466547.200000003,7070,WL,C,2.0
3,5.828999996185303,learn,54171.0000038147,Fri Apr 04 2025 12:26:37 GMT-0500 (Central Daylight Time),467909.700000003,A,wheat,O,t,247,1,1362.5,466547.200000003,7070,WL,C,2.0
3,7.379999876022339,learn,52620.00012397766,Fri Apr 04 2025 12:26:37 GMT-0500 (Central Daylight Time),469460.8999999985,A,wheatenter,O,enter,1548,1,2913.6999999955297,466547.200000003,7070,WL,C,2.0
3,8.547999858856201,learn,51452.0001411438,Fri Apr 04 2025 12:26:37 GMT-0500 (Central Daylight Time),470628.6000000015,A,q,O,q,1145,1,1167.5,469461.1000000015,7070,WL,C,3.0
3,8.914999961853027,learn,51085.00003814697,Fri Apr 04 2025 12:26:37 GMT-0500 (Central Daylight Time),470995.8999999985,A,qu,O,u,343,1,1534.7999999970198,469461.1000000015,7070,WL,C,3.0
3,9.13100004196167,learn,50868.99995803833,Fri Apr 04 2025 12:26:37 GMT-0500 (Central Daylight Time),471211.700000003,A,que,O,e,209,1,1750.6000000014901,469461.1000000015,7070,WL,C,3.0
3,9.480000019073486,learn,50519.999980926514,Fri Apr 04 2025 12:26:37 GMT-0500 (Central Daylight Time),471560.6000000015,A,quee,O,e,329,1,2099.5,469461.1000000015,7070,WL,C,3.0
3,9.879999876022339,learn,50120.00012397766,Fri Apr 04 2025 12:26:37 GMT-0500 (Central Daylight Time),471960.5,A,queen,O,n,390,1,2499.39999999851,469461.1000000015,7070,WL,C,3.0
3,11.26200008392334,learn,48737.99991607666,Fri Apr 04 2025 12:26:37 GMT-0500 (Central Daylight Time),473343.3999999985,A,queenenter,O,enter,1374,1,3882.2999999970198,469461.1000000015,7070,WL,C,3.0
3,11.694999933242798,learn,48305.0000667572,Fri Apr 04 2025 12:26:37 GMT-0500 (Central Daylight Time),473776.299999997,A,h,O,h,422,1,432.59999999403954,473343.700000003,7070,WL,C,4.0
3,11.996000051498413,learn,48003.99994850159,Fri Apr 04 2025 12:26:37 GMT-0500 (Central Daylight Time),474077.200000003,A,ho,O,o,295,1,733.5,473343.700000003,7070,WL,C,4.0
3,12.779000043869019,learn,47220.99995613098,Fri Apr 04 2025 12:26:37 GMT-0500 (Central Daylight Time),474860.200000003,A,hom,O,m,776,1,1516.5,473343.700000003,7070,WL,C,4.0
3,12.930000066757202,learn,47069.9999332428,Fri Apr 04 2025 12:26:37 GMT-0500 (Central Daylight Time),475011.200000003,A,home,O,e,145,1,1667.5,473343.700000003,7070,WL,C,4.0
3,13.443000078201294,learn,46556.999921798706,Fri Apr 04 2025 12:26:37 GMT-0500 (Central Daylight Time),475525.1000000015,A,homeenter,O,enter,509,1,2181.39999999851,473343.700000003,7070,WL,C,4.0
3,13.76200008392334,learn,46237.99991607666,Fri Apr 04 2025 12:26:37 GMT-0500 (Central Daylight Time),475843.299999997,A,b,O,b,305,1,318.0,475525.299999997,7070,WL,C,5.0
3,13.979000091552734,learn,46020.999908447266,Fri Apr 04 2025 12:26:37 GMT-0500 (Central Daylight Time),476060.299999997,A,bo,O,o,195,1,535.0,475525.299999997,7070,WL,C,5.0
3,14.378000020980835,learn,45621.999979019165,Fri Apr 04 2025 12:26:37 GMT-0500 (Central Daylight Time),476459.6000000015,A,boy,O,y,383,1,934.3000000044703,475525.299999997,7070,WL,C,5.0
3,15.559999942779541,learn,44440.00005722046,Fri Apr 04 2025 12:26:37 GMT-0500 (Central Daylight Time),477642.1000000015,A,boyenter,O,enter,1162,1,2116.8000000044703,475525.299999997,7070,WL,C,5.0
3,16.545000076293945,learn,43454.999923706055,Fri Apr 04 2025 12:26:37 GMT-0500 (Central Daylight Time),478626.799999997,A,b,O,b,980,1,984.3999999985099,477642.3999999985,7070,WL,C,6.0
3,16.825999975204468,learn,43174.00002479553,Fri Apr 04 2025 12:26:37 GMT-0500 (Central Daylight Time),478908.200000003,A,bo,O,o,267,1,1265.8000000044703,477642.3999999985,7070,WL,C,6.0
3,17.042999982833862,learn,42957.00001716614,Fri Apr 04 2025 12:26:37 GMT-0500 (Central Daylight Time),479124.3999999985,A,bod,O,d,199,1,1482.0,477642.3999999985,7070,WL,C,6.0
3,17.32699990272522,learn,42673.00009727478,Fri Apr 04 2025 12:26:37 GMT-0500 (Central Daylight Time),479408.8999999985,A,body,O,y,260,1,1766.5,477642.3999999985,7070,WL,C,6.0
3,18.109999895095825,learn,41890.000104904175,Fri Apr 04 2025 12:26:37 GMT-0500 (Central Daylight Time),480191.5,A,bodyenter,O,enter,761,1,2549.10000000149,477642.3999999985,7070,WL,C,6.0
3,18.91000008583069,learn,41089.99991416931,Fri Apr 04 2025 12:26:37 GMT-0500 (Central Daylight Time),480991.299999997,A,d,O,d,792,1,799.5,480191.799999997,7070,WL,C,7.0
3,19.14299988746643,learn,40857.00011253357,Fri Apr 04 2025 12:26:37 GMT-0500 (Central Daylight Time),481224.700000003,A,do,O,o,212,1,1032.9000000059605,480191.799999997,7070,WL,C,7.0
3,19.259000062942505,learn,40740.999937057495,Fri Apr 04 2025 12:26:37 GMT-0500 (Central Daylight Time),481340.799999997,A,doc,O,c,105,1,1149.0,480191.799999997,7070,WL,C,7.0
3,19.526000022888184,learn,40473.99997711182,Fri Apr 04 2025 12:26:37 GMT-0500 (Central Daylight Time),481607.799999997,A,doct,O,t,256,1,1416.0,480191.799999997,7070,WL,C,7.0
3,19.658999919891357,learn,40341.00008010864,Fri Apr 04 2025 12:26:37 GMT-0500 (Central Daylight Time),481740.3999999985,A,docto,O,o,118,1,1548.6000000014901,480191.799999997,7070,WL,C,7.0
3,19.80999994277954,learn,40190.00005722046,Fri Apr 04 2025 12:26:37 GMT-0500 (Central Daylight Time),481891.299999997,A,doctor,O,r,136,1,1699.5,480191.799999997,7070,WL,C,7.0
3,20.658999919891357,learn,39341.00008010864,Fri Apr 04 2025 12:26:37 GMT-0500 (Central Daylight Time),482740.8999999985,A,doctorenter,O,enter,845,1,2549.10000000149,480191.799999997,7070,WL,C,7.0
3,21.425999879837036,learn,38574.000120162964,Fri Apr 04 2025 12:26:37 GMT-0500 (Central Daylight Time),483507.299999997,A,h,O,h,746,1,766.0999999940395,482741.200000003,7070,WL,C,8.0
3,21.79200005531311,learn,38207.99994468689,Fri Apr 04 2025 12:26:37 GMT-0500 (Central Daylight Time),483873.6000000015,A,ho,O,o,356,1,1132.3999999985099,482741.200000003,7070,WL,C,8.0
3,22.29200005531311,learn,37707.99994468689,Fri Apr 04 2025 12:26:37 GMT-0500 (Central Daylight Time),484374.0,A,hom,O,m,483,1,1632.7999999970198,482741.200000003,7070,WL,C,8.0
3,22.441999912261963,learn,37558.00008773804,Fri Apr 04 2025 12:26:37 GMT-0500 (Central Daylight Time),484524.1000000015,A,home,O,e,135,1,1782.8999999985099,482741.200000003,7070,WL,C,8.0
3,22.858999967575073,learn,37141.00003242493,Fri Apr 04 2025 12:26:37 GMT-0500 (Central Daylight Time),484940.799999997,A,homeenter,O,enter,412,1,2199.5999999940395,482741.200000003,7070,WL,C,8.0
3,23.825000047683716,learn,36174.999952316284,Fri Apr 04 2025 12:26:37 GMT-0500 (Central Daylight Time),485906.8999999985,A,l,O,l,953,1,965.8999999985099,484941.0,7070,WL,C,9.0
3,23.924000024795532,learn,36075.99997520447,Fri Apr 04 2025 12:26:37 GMT-0500 (Central Daylight Time),486005.299999997,A,le,O,e,80,1,1064.2999999970198,484941.0,7070,WL,C,9.0
3,24.191999912261963,learn,35808.00008773804,Fri Apr 04 2025 12:26:37 GMT-0500 (Central Daylight Time),486273.6000000015,A,let,O,t,255,1,1332.6000000014901,484941.0,7070,WL,C,9.0
3,24.325000047683716,learn,35674.999952316284,Fri Apr 04 2025 12:26:37 GMT-0500 (Central Daylight Time),486406.6000000015,A,lett,O,t,123,1,1465.6000000014901,484941.0,7070,WL,C,9.0
3,24.5239999294281,learn,35476.0000705719,Fri Apr 04 2025 12:26:37 GMT-0500 (Central Daylight Time),486605.799999997,A,lette,O,e,182,1,1664.7999999970198,484941.0,7070,WL,C,9.0
3,24.657999992370605,learn,35342.000007629395,Fri Apr 04 2025 12:26:37 GMT-0500 (Central Daylight Time),486739.8999999985,A,letter,O,r,119,1,1798.8999999985099,484941.0,7070,WL,C,9.0
3,24.756999969482422,learn,35243.00003051758,Fri Apr 04 2025 12:26:37 GMT-0500 (Central Daylight Time),486838.200000003,A,letterenter,O,enter,87,1,1897.2000000029802,484941.0,7070,WL,C,9.0
3,25.125,learn,34875.0,Fri Apr 04 2025 12:26:37 GMT-0500 (Central Daylight Time),487206.5,A,f,O,f,351,1,368.0,486838.5,7070,WL,C,10.0
3,25.342000007629395,learn,34657.999992370605,Fri Apr 04 2025 12:26:37 GMT-0500 (Central Daylight Time),487423.5,A,fl,O,l,200,1,585.0,486838.5,7070,WL,C,10.0
3,25.491999864578247,learn,34508.00013542175,Fri Apr 04 2025 12:26:37 GMT-0500 (Central Daylight Time),487573.200000003,A,fla,O,a,135,1,734.7000000029802,486838.5,7070,WL,C,10.0
3,26.407000064849854,learn,33592.99993515015,Fri Apr 04 2025 12:26:37 GMT-0500 (Central Daylight Time),488488.8999999985,A,flag,O,g,896,1,1650.3999999985099,486838.5,7070,WL,C,10.0
3,26.990000009536743,learn,33009.99999046326,Fri Apr 04 2025 12:26:37 GMT-0500 (Central Daylight Time),489071.799999997,A,flagenter,O,enter,571,1,2233.2999999970198,486838.5,7070,WL,C,10.0
3,27.506999969482422,learn,32493.000030517578,Fri Apr 04 2025 12:26:37 GMT-0500 (Central Daylight Time),489588.3999999985,A,c,O,c,503,1,516.3999999985099,489072.0,7070,WL,C,11.0
3,27.740999937057495,learn,32259.000062942505,Fri Apr 04 2025 12:26:37 GMT-0500 (Central Daylight Time),489822.299999997,A,ca,O,a,217,1,750.2999999970198,489072.0,7070,WL,C,11.0
3,27.973999977111816,learn,32026.000022888184,Fri Apr 04 2025 12:26:37 GMT-0500 (Central Daylight Time),490055.299999997,A,cam,O,m,223,1,983.2999999970198,489072.0,7070,WL,C,11.0
3,28.457000017166138,learn,31542.999982833862,Fri Apr 04 2025 12:26:37 GMT-0500 (Central Daylight Time),490538.299999997,A,camp,O,p,471,1,1466.2999999970198,489072.0,7070,WL,C,11.0
3,29.555000066757202,learn,30444.999933242798,Fri Apr 04 2025 12:26:37 GMT-0500 (Central Daylight Time),491636.700000003,A,campenter,O,enter,1083,1,2564.7000000029802,489072.0,7070,WL,C,11.0
3,30.45300006866455,learn,29546.99993133545,Fri Apr 04 2025 12:26:37 GMT-0500 (Central Daylight Time),492534.8999999985,A,n,O,n,888,1,897.8999999985099,491637.0,7070,WL,C,12.0
3,30.605000019073486,learn,29394.999980926514,Fri Apr 04 2025 12:26:37 GMT-0500 (Central Daylight Time),492686.5,A,na,O,a,137,1,1049.5,491637.0,7070,WL,C,12.0
3,30.75600004196167,learn,29243.99995803833,Fri Apr 04 2025 12:26:37 GMT-0500 (Central Daylight Time),492838.0,A,nai,O,i,131,1,1201.0,491637.0,7070,WL,C,12.0
3,31.473999977111816,learn,28526.000022888184,Fri Apr 04 2025 12:26:37 GMT-0500 (Central Daylight Time),493555.3999999985,A,nail,O,l,697,1,1918.3999999985099,491637.0,7070,WL,C,12.0
3,32.187999963760376,learn,27812.000036239624,Fri Apr 04 2025 12:26:37 GMT-0500 (Central Daylight Time),494269.6000000015,A,nailenter,O,enter,691,1,2632.60000000149,491637.0,7070,WL,C,12.0
3,36.3050000667572,learn,23694.999933242798,Fri Apr 04 2025 12:26:37 GMT-0500 (Central Daylight Time),498386.6000000015,A,s,O,s,4095,1,4116.70000000298,494269.8999999985,7070,WL,C,13.0
3,36.420000076293945,learn,23579.999923706055,Fri Apr 04 2025 12:26:37 GMT-0500 (Central Daylight Time),498502.0,A,sh,O,h,107,1,4232.10000000149,494269.8999999985,7070,WL,C,13.0
3,36.770999908447266,learn,23229.000091552734,Fri Apr 04 2025 12:26:37 GMT-0500 (Central Daylight Time),498853.0,A,sho,O,o,335,1,4583.10000000149,494269.8999999985,7070,WL,C,13.0
3,36.90499997138977,learn,23095.00002861023,Fri Apr 04 2025 12:26:37 GMT-0500 (Central Daylight Time),498987.0,A,shor,O,r,129,1,4717.10000000149,494269.8999999985,7070,WL,C,13.0
3,37.085999965667725,learn,22914.000034332275,Fri Apr 04 2025 12:26:37 GMT-0500 (Central Daylight Time),499167.8999999985,A,shore,O,e,162,1,4898.0,494269.8999999985,7070,WL,C,13.0
3,39.0699999332428,learn,20930.000066757202,Fri Apr 04 2025 12:26:37 GMT-0500 (Central Daylight Time),501151.200000003,A,shoreenter,O,enter,1963,1,6881.30000000447,494269.8999999985,7070,WL,C,13.0
3,47.151000022888184,learn,12848.999977111816,Fri Apr 04 2025 12:26:37 GMT-0500 (Central Daylight Time),509232.200000003,A,c,O,c,8071,1,8080.70000000298,501151.5,7070,WL,C,14.0
3,47.51699995994568,learn,12483.000040054321,Fri Apr 04 2025 12:26:37 GMT-0500 (Central Daylight Time),509599.0,A,co,O,o,362,1,8447.5,501151.5,7070,WL,C,14.0
3,47.68400001525879,learn,12315.999984741211,Fri Apr 04 2025 12:26:37 GMT-0500 (Central Daylight Time),509765.5,A,cor,O,r,160,1,8614.0,501151.5,7070,WL,C,14.0
3,48.0,learn,12000.0,Fri Apr 04 2025 12:26:37 GMT-0500 (Central Daylight Time),510082.0,A,corn,O,n,296,1,8930.5,501151.5,7070,WL,C,14.0
3,48.5,learn,11500.0,Fri Apr 04 2025 12:26:37 GMT-0500 (Central Daylight Time),510581.6000000015,A,cornenter,O,enter,494,1,9430.10000000149,501151.5,7070,WL,C,14.0
3,48.86400008201599,learn,11135.999917984009,Fri Apr 04 2025 12:26:37 GMT-0500 (Central Daylight Time),510946.0,A,c,O,c,351,1,364.1000000014901,510581.8999999985,7070,WL,C,15.0
3,49.06500005722046,learn,10934.999942779541,Fri Apr 04 2025 12:26:37 GMT-0500 (Central Daylight Time),511146.799999997,A,ca,O,a,181,1,564.8999999985099,510581.8999999985,7070,WL,C,15.0
3,49.61500000953674,learn,10384.999990463257,Fri Apr 04 2025 12:26:37 GMT-0500 (Central Daylight Time),511696.700000003,A,cat,O,t,540,1,1114.8000000044703,510581.8999999985,7070,WL,C,15.0
3,49.764999866485596,learn,10235.000133514404,Fri Apr 04 2025 12:26:37 GMT-0500 (Central Daylight Time),511846.5,A,catt,O,t,134,1,1264.6000000014901,510581.8999999985,7070,WL,C,15.0
3,49.91499996185303,learn,10085.000038146973,Fri Apr 04 2025 12:26:37 GMT-0500 (Central Daylight Time),511996.6000000015,A,cattl,O,l,142,1,1414.7000000029802,510581.8999999985,7070,WL,C,15.0
3,50.01600003242493,learn,9983.999967575073,Fri Apr 04 2025 12:26:37 GMT-0500 (Central Daylight Time),512097.299999997,A,cattle,O,e,91,1,1515.3999999985099,510581.8999999985,7070,WL,C,15.0
3,50.41499996185303,learn,9585.000038146973,Fri Apr 04 2025 12:26:37 GMT-0500 (Central Daylight Time),512496.700000003,A,cattleenter,O,enter,378,1,1914.8000000044703,510581.8999999985,7070,WL,C,15.0
4,1.6489999294281006,learn,58351.0000705719,Fri Apr 04 2025 12:26:37 GMT-0500 (Central Daylight Time),582309.700000003,A,t,O,t,1642,1,1649.0,580660.700000003,7070,WL,C,1.0
4,1.9149999618530273,learn,58085.00003814697,Fri Apr 04 2025 12:26:37 GMT-0500 (Central Daylight Time),582575.3999999985,A,to,O,o,256,1,1914.6999999955297,580660.700000003,7070,WL,C,1.0
4,2.182999849319458,learn,57817.00015068054,Fri Apr 04 2025 12:26:37 GMT-0500 (Central Daylight Time),582843.200000003,A,tow,O,w,245,1,2182.5,580660.700000003,7070,WL,C,1.0
4,2.382999897003174,learn,57617.000102996826,Fri Apr 04 2025 12:26:37 GMT-0500 (Central Daylight Time),583043.200000003,A,towe,O,e,192,1,2382.5,580660.700000003,7070,WL,C,1.0
4,2.5979998111724854,learn,57402.000188827515,Fri Apr 04 2025 12:26:37 GMT-0500 (Central Daylight Time),583258.299999997,A,tower,O,r,201,1,2597.5999999940395,580660.700000003,7070,WL,C,1.0
4,4.113999843597412,learn,55886.00015640259,Fri Apr 04 2025 12:26:37 GMT-0500 (Central Daylight Time),584773.8999999985,A,towerenter,O,enter,1498,1,4113.19999999553,580660.700000003,7070,WL,C,1.0
4,4.379999876022339,learn,55620.00012397766,Fri Apr 04 2025 12:26:37 GMT-0500 (Central Daylight Time),585040.1000000015,A,w,O,w,257,1,266.0,584774.1000000015,7070,WL,C,2.0
4,4.546000003814697,learn,55453.9999961853,Fri Apr 04 2025 12:26:37 GMT-0500 (Central Daylight Time),585205.8999999985,A,wh,O,h,148,1,431.79999999701977,584774.1000000015,7070,WL,C,2.0
4,4.679999828338623,learn,55320.00017166138,Fri Apr 04 2025 12:26:37 GMT-0500 (Central Daylight Time),585340.200000003,A,whe,O,e,126,1,566.1000000014901,584774.1000000015,7070,WL,C,2.0
4,4.96399998664856,learn,55036.00001335144,Fri Apr 04 2025 12:26:37 GMT-0500 (Central Daylight Time),585624.0,A,whea,O,a,263,1,849.8999999985099,584774.1000000015,7070,WL,C,2.0
4,5.2149999141693115,learn,54785.00008583069,Fri Apr 04 2025 12:26:37 GMT-0500 (Central Daylight Time),585875.1000000015,A,wheat,O,t,226,1,1101.0,584774.1000000015,7070,WL,C,2.0
4,5.615000009536743,learn,54384.99999046326,Fri Apr 04 2025 12:26:37 GMT-0500 (Central Daylight Time),586275.299999997,A,wheatenter,O,enter,394,1,1501.1999999955297,584774.1000000015,7070,WL,C,2.0
4,6.19599986076355,learn,53804.00013923645,Fri Apr 04 2025 12:26:37 GMT-0500 (Central Daylight Time),586856.3999999985,A,q,O,q,564,1,580.8999999985099,586275.5,7070,WL,C,3.0
4,6.447999954223633,learn,53552.00004577637,Fri Apr 04 2025 12:26:37 GMT-0500 (Central Daylight Time),587107.8999999985,A,qu,O,u,243,1,832.3999999985099,586275.5,7070,WL,C,3.0
4,6.7799999713897705,learn,53220.00002861023,Fri Apr 04 2025 12:26:37 GMT-0500 (Central Daylight Time),587440.799999997,A,que,O,e,312,1,1165.2999999970198,586275.5,7070,WL,C,3.0
4,6.996999979019165,learn,53003.000020980835,Fri Apr 04 2025 12:26:37 GMT-0500 (Central Daylight Time),587657.700000003,A,quee,O,e,197,1,1382.2000000029802,586275.5,7070,WL,C,3.0
4,7.394999980926514,learn,52605.000019073486,Fri Apr 04 2025 12:26:37 GMT-0500 (Central Daylight Time),588055.200000003,A,queen,O,n,386,1,1779.7000000029802,586275.5,7070,WL,C,3.0
4,8.013000011444092,learn,51986.99998855591,Fri Apr 04 2025 12:26:37 GMT-0500 (Central Daylight Time),588672.700000003,A,queenenter,O,enter,600,1,2397.2000000029802,586275.5,7070,WL,C,3.0
4,8.578999996185303,learn,51421.0000038147,Fri Apr 04 2025 12:26:37 GMT-0500 (Central Daylight Time),589239.5,A,s,O,s,551,1,566.5,588673.0,7070,WL,C,4.0
4,8.746999979019165,learn,51253.000020980835,Fri Apr 04 2025 12:26:37 GMT-0500 (Central Daylight Time),589407.1000000015,A,su,O,u,146,1,734.1000000014901,588673.0,7070,WL,C,4.0
4,9.02999997138977,learn,50970.00002861023,Fri Apr 04 2025 12:26:37 GMT-0500 (Central Daylight Time),589690.200000003,A,sug,O,g,269,1,1017.2000000029802,588673.0,7070,WL,C,4.0
4,11.629999876022339,learn,48370.00012397766,Fri Apr 04 2025 12:26:37 GMT-0500 (Central Daylight Time),592290.0,A,suga,O,a,2590,1,3617.0,588673.0,7070,WL,C,4.0
4,11.978999853134155,learn,48021.000146865845,Fri Apr 04 2025 12:26:37 GMT-0500 (Central Daylight Time),592639.5,A,sugar,O,r,331,1,3966.5,588673.0,7070,WL,C,4.0
4,14.41100001335144,learn,45588.99998664856,Fri Apr 04 2025 12:26:37 GMT-0500 (Central Daylight Time),595071.700000003,A,sugarenter,O,enter,2413,1,6398.70000000298,588673.0,7070,WL,C,4.0
4,15.026999950408936,learn,44973.000049591064,Fri Apr 04 2025 12:26:37 GMT-0500 (Central Daylight Time),595687.799999997,A,c,O,c,599,1,615.7999999970198,595072.0,7070,WL,C,5.0
4,17.143999814987183,learn,42856.00018501282,Fri Apr 04 2025 12:26:37 GMT-0500 (Central Daylight Time),597804.799999997,A,,O,backspace,2101,1,2732.7999999970198,595072.0,7070,WL,C,5.0
4,18.192999839782715,learn,41807.000160217285,Fri Apr 04 2025 12:26:37 GMT-0500 (Central Daylight Time),598853.8999999985,A,d,O,d,1043,1,3781.89999999851,595072.0,7070,WL,C,5.0
4,18.49399995803833,learn,41506.00004196167,Fri Apr 04 2025 12:26:37 GMT-0500 (Central Daylight Time),599155.200000003,A,do,O,o,297,1,4083.2000000029802,595072.0,7070,WL,C,5.0
4,18.658999919891357,learn,41341.00008010864,Fri Apr 04 2025 12:26:37 GMT-0500 (Central Daylight Time),599319.799999997,A,doc,O,c,146,1,4247.79999999702,595072.0,7070,WL,C,5.0
4,18.992999792099,learn,41007.000207901,Fri Apr 04 2025 12:26:37 GMT-0500 (Central Daylight Time),599653.8999999985,A,doct,O,t,316,1,4581.89999999851,595072.0,7070,WL,C,5.0
4,19.259999990463257,learn,40740.00000953674,Fri Apr 04 2025 12:26:37 GMT-0500 (Central Daylight Time),599920.8999999985,A,docto,O,o,246,1,4848.89999999851,595072.0,7070,WL,C,5.0
4,19.376999855041504,learn,40623.000144958496,Fri Apr 04 2025 12:26:37 GMT-0500 (Central Daylight Time),600037.3999999985,A,doctor,O,r,99,1,4965.39999999851,595072.0,7070,WL,C,5.0
4,21.80900001525879,learn,38190.99998474121,Fri Apr 04 2025 12:26:37 GMT-0500 (Central Daylight Time),602470.0,A,doctorenter,O,enter,2415,1,7398.0,595072.0,7070,WL,C,5.0
4,24.491999864578247,learn,35508.00013542175,Fri Apr 04 2025 12:26:37 GMT-0500 (Central Daylight Time),605152.6000000015,A,h,O,h,2663,1,2682.3000000044703,602470.299999997,7070,WL,C,6.0
4,24.857999801635742,learn,35142.00019836426,Fri Apr 04 2025 12:26:37 GMT-0500 (Central Daylight Time),605518.700000003,A,ho,O,o,348,1,3048.4000000059605,602470.299999997,7070,WL,C,6.0
4,25.125,learn,34875.0,Fri Apr 04 2025 12:26:37 GMT-0500 (Central Daylight Time),605785.799999997,A,hon,O,n,256,1,3315.5,602470.299999997,7070,WL,C,6.0
4,25.223999977111816,learn,34776.00002288818,Fri Apr 04 2025 12:26:37 GMT-0500 (Central Daylight Time),605885.1000000015,A,hone,O,e,93,1,3414.8000000044703,602470.299999997,7070,WL,C,6.0
4,25.688999891281128,learn,34311.00010871887,Fri Apr 04 2025 12:26:37 GMT-0500 (Central Daylight Time),606350.200000003,A,honeenter,O,enter,455,1,3879.9000000059605,602470.299999997,7070,WL,C,6.0
4,26.205999851226807,learn,33794.00014877319,Fri Apr 04 2025 12:26:37 GMT-0500 (Central Daylight Time),606867.200000003,A,b,O,b,511,1,516.8000000044703,606350.3999999985,7070,WL,C,7.0
4,26.44099998474121,learn,33559.00001525879,Fri Apr 04 2025 12:26:37 GMT-0500 (Central Daylight Time),607101.8999999985,A,bo,O,o,217,1,751.5,606350.3999999985,7070,WL,C,7.0
4,26.957000017166138,learn,33042.99998283386,Fri Apr 04 2025 12:26:37 GMT-0500 (Central Daylight Time),607617.5,A,boy,O,y,503,1,1267.1000000014901,606350.3999999985,7070,WL,C,7.0
4,27.9229998588562,learn,32077.0001411438,Fri Apr 04 2025 12:26:37 GMT-0500 (Central Daylight Time),608583.799999997,A,boyenter,O,enter,957,1,2233.39999999851,606350.3999999985,7070,WL,C,7.0
4,28.50599980354309,learn,31494.00019645691,Fri Apr 04 2025 12:26:37 GMT-0500 (Central Daylight Time),609167.299999997,A,b,O,b,565,1,583.1999999955297,608584.1000000015,7070,WL,C,8.0
4,28.70799994468689,learn,31292.00005531311,Fri Apr 04 2025 12:26:37 GMT-0500 (Central Daylight Time),609368.3999999985,A,bo,O,o,190,1,784.2999999970198,608584.1000000015,7070,WL,C,8.0
4,28.95799994468689,learn,31042.00005531311,Fri Apr 04 2025 12:26:37 GMT-0500 (Central Daylight Time),609618.799999997,A,bod,O,d,238,1,1034.6999999955297,608584.1000000015,7070,WL,C,8.0
4,29.323999881744385,learn,30676.000118255615,Fri Apr 04 2025 12:26:37 GMT-0500 (Central Daylight Time),609985.3999999985,A,body,O,y,346,1,1401.2999999970198,608584.1000000015,7070,WL,C,8.0
4,30.490000009536743,learn,29509.999990463257,Fri Apr 04 2025 12:26:37 GMT-0500 (Central Daylight Time),611150.799999997,A,bodyenter,O,enter,1146,1,2566.6999999955297,608584.1000000015,7070,WL,C,8.0
4,31.937999963760376,learn,28062.000036239624,Fri Apr 04 2025 12:26:37 GMT-0500 (Central Daylight Time),612598.700000003,A,c,O,c,1439,1,1447.5,611151.200000003,7070,WL,C,9.0
4,32.15399980545044,learn,27846.00019454956,Fri Apr 04 2025 12:26:37 GMT-0500 (Central Daylight Time),612815.1000000015,A,ca,O,a,197,1,1663.8999999985099,611151.200000003,7070,WL,C,9.0
4,32.32099986076355,learn,27679.00013923645,Fri Apr 04 2025 12:26:37 GMT-0500 (Central Daylight Time),612982.200000003,A,can,O,n,150,1,1831.0,611151.200000003,7070,WL,C,9.0
4,33.18899989128113,learn,26811.000108718872,Fri Apr 04 2025 12:26:37 GMT-0500 (Central Daylight Time),613849.5,A,ca,O,backspace,846,1,2698.2999999970198,611151.200000003,7070,WL,C,9.0
4,33.77199983596802,learn,26228.000164031982,Fri Apr 04 2025 12:26:37 GMT-0500 (Central Daylight Time),614432.5,A,cam,O,m,560,1,3281.2999999970198,611151.200000003,7070,WL,C,9.0
4,34.47199988365173,learn,25528.000116348267,Fri Apr 04 2025 12:26:37 GMT-0500 (Central Daylight Time),615133.0,A,camp,O,p,685,1,3981.7999999970198,611151.200000003,7070,WL,C,9.0
4,35.120999813079834,learn,24879.000186920166,Fri Apr 04 2025 12:26:37 GMT-0500 (Central Daylight Time),615781.6000000015,A,campenter,O,enter,629,1,4630.39999999851,611151.200000003,7070,WL,C,9.0
4,35.55299997329712,learn,24447.00002670288,Fri Apr 04 2025 12:26:37 GMT-0500 (Central Daylight Time),616214.200000003,A,f,O,f,424,1,432.40000000596046,615781.799999997,7070,WL,C,10.0
4,35.770999908447266,learn,24229.000091552734,Fri Apr 04 2025 12:26:37 GMT-0500 (Central Daylight Time),616432.1000000015,A,fl,O,l,194,1,650.3000000044703,615781.799999997,7070,WL,C,10.0
4,35.88800001144409,learn,24111.99998855591,Fri Apr 04 2025 12:26:37 GMT-0500 (Central Daylight Time),616548.3999999985,A,fla,O,a,101,1,766.6000000014901,615781.799999997,7070,WL,C,10.0
4,36.187999963760376,learn,23812.000036239624,Fri Apr 04 2025 12:26:37 GMT-0500 (Central Daylight Time),616848.8999999985,A,flag,O,g,283,1,1067.1000000014901,615781.799999997,7070,WL,C,10.0
4,36.519999980926514,learn,23480.000019073486,Fri Apr 04 2025 12:26:37 GMT-0500 (Central Daylight Time),617180.8999999985,A,flagenter,O,enter,317,1,1399.1000000014901,615781.799999997,7070,WL,C,10.0
4,37.120999813079834,learn,22879.000186920166,Fri Apr 04 2025 12:26:37 GMT-0500 (Central Daylight Time),617781.8999999985,A,c,O,c,594,1,600.6999999955297,617181.200000003,7070,WL,C,11.0
4,37.32099986076355,learn,22679.00013923645,Fri Apr 04 2025 12:26:37 GMT-0500 (Central Daylight Time),617981.799999997,A,ca,O,a,193,1,800.5999999940395,617181.200000003,7070,WL,C,11.0
4,37.569000005722046,learn,22430.999994277954,Fri Apr 04 2025 12:26:37 GMT-0500 (Central Daylight Time),618230.299999997,A,cat,O,t,240,1,1049.0999999940395,617181.200000003,7070,WL,C,11.0
4,37.78699994087219,learn,22213.000059127808,Fri Apr 04 2025 12:26:37 GMT-0500 (Central Daylight Time),618447.5,A,catt,O,t,205,1,1266.2999999970198,617181.200000003,7070,WL,C,11.0
4,38.169999837875366,learn,21830.000162124634,Fri Apr 04 2025 12:26:37 GMT-0500 (Central Daylight Time),618830.799999997,A,cattl,O,l,374,1,1649.5999999940395,617181.200000003,7070,WL,C,11.0
4,38.269999980926514,learn,21730.000019073486,Fri Apr 04 2025 12:26:37 GMT-0500 (Central Daylight Time),618930.6000000015,A,cattle,O,e,86,1,1749.3999999985099,617181.200000003,7070,WL,C,11.0
4,39.9689998626709,learn,20031.0001373291,Fri Apr 04 2025 12:26:37 GMT-0500 (Central Daylight Time),620629.5,A,cattleenter,O,enter,1676,1,3448.2999999970198,617181.200000003,7070,WL,C,11.0
4,40.58699989318848,learn,19413.000106811523,Fri Apr 04 2025 12:26:37 GMT-0500 (Central Daylight Time),621247.8999999985,A,c,O,c,609,1,618.1000000014901,620629.799999997,7070,WL,C,12.0
4,40.88599991798401,learn,19114.00008201599,Fri Apr 04 2025 12:26:37 GMT-0500 (Central Daylight Time),621547.0,A,co,O,o,286,1,917.2000000029802,620629.799999997,7070,WL,C,12.0
4,41.13499999046326,learn,18865.000009536743,Fri Apr 04 2025 12:26:37 GMT-0500 (Central Daylight Time),621796.1000000015,A,cor,O,r,234,1,1166.3000000044703,620629.799999997,7070,WL,C,12.0
4,41.45199990272522,learn,18548.00009727478,Fri Apr 04 2025 12:26:37 GMT-0500 (Central Daylight Time),622112.700000003,A,corn,O,n,294,1,1482.9000000059605,620629.799999997,7070,WL,C,12.0
4,42.317999839782715,learn,17682.000160217285,Fri Apr 04 2025 12:26:37 GMT-0500 (Central Daylight Time),622978.8999999985,A,cornenter,O,enter,846,1,2349.10000000149,620629.799999997,7070,WL,C,12.0
4,43.169999837875366,learn,16830.000162124634,Fri Apr 04 2025 12:26:37 GMT-0500 (Central Daylight Time),623830.700000003,A,s,O,s,845,1,851.6000000014901,622979.1000000015,7070,WL,C,13.0
4,43.319000005722046,learn,16680.999994277954,Fri Apr 04 2025 12:26:37 GMT-0500 (Central Daylight Time),623980.0,A,sh,O,h,143,1,1000.8999999985099,622979.1000000015,7070,WL,C,13.0
4,43.7189998626709,learn,16281.000137329102,Fri Apr 04 2025 12:26:37 GMT-0500 (Central Daylight Time),624380.200000003,A,sho,O,o,385,1,1401.1000000014901,622979.1000000015,7070,WL,C,13.0
4,44.151999950408936,learn,15848.000049591064,Fri Apr 04 2025 12:26:37 GMT-0500 (Central Daylight Time),624812.700000003,A,shor,O,r,416,1,1833.6000000014901,622979.1000000015,7070,WL,C,13.0
4,44.38599991798401,learn,15614.000082015991,Fri Apr 04 2025 12:26:37 GMT-0500 (Central Daylight Time),625047.200000003,A,shore,O,e,228,1,2068.10000000149,622979.1000000015,7070,WL,C,13.0
4,46.76699995994568,learn,13233.000040054321,Fri Apr 04 2025 12:26:37 GMT-0500 (Central Daylight Time),627427.799999997,A,shoreenter,O,enter,2357,1,4448.69999999553,622979.1000000015,7070,WL,C,13.0
4,51.431999921798706,learn,8568.000078201294,Fri Apr 04 2025 12:26:37 GMT-0500 (Central Daylight Time),632092.6000000015,A,l,O,l,4651,1,4664.60000000149,627428.0,7070,WL,C,14.0
4,51.51699995994568,learn,8483.000040054321,Fri Apr 04 2025 12:26:37 GMT-0500 (Central Daylight Time),632177.799999997,A,le,O,e,64,1,4749.79999999702,627428.0,7070,WL,C,14.0
4,51.763999938964844,learn,8236.000061035156,Fri Apr 04 2025 12:26:37 GMT-0500 (Central Daylight Time),632424.799999997,A,let,O,t,236,1,4996.79999999702,627428.0,7070,WL,C,14.0
4,51.88199996948242,learn,8118.000030517578,Fri Apr 04 2025 12:26:37 GMT-0500 (Central Daylight Time),632542.5,A,lett,O,t,111,1,5114.5,627428.0,7070,WL,C,14.0
4,52.133999824523926,learn,7866.000175476074,Fri Apr 04 2025 12:26:37 GMT-0500 (Central Daylight Time),632794.6000000015,A,lette,O,e,230,1,5366.60000000149,627428.0,7070,WL,C,14.0
4,52.23299980163574,learn,7767.000198364258,Fri Apr 04 2025 12:26:37 GMT-0500 (Central Daylight Time),632893.3999999985,A,letter,O,r,93,1,5465.39999999851,627428.0,7070,WL,C,14.0
4,52.38199996948242,learn,7618.000030517578,Fri Apr 04 2025 12:26:37 GMT-0500 (Central Daylight Time),633042.799999997,A,letterenter,O,enter,128,1,5614.79999999702,627428.0,7070,WL,C,14.0
4,60.01300001144409,learn,-13.000011444091797,Fri Apr 04 2025 12:26:37 GMT-0500 (Central Daylight Time),640674.3999999985,A,None,O,None,7625,1,7631.39999999851,633043.0,7070,WL,C,15.0
5,3.6989998817443848,learn,60000.0,Fri Apr 04 2025 12:26:37 GMT-0500 (Central Daylight Time),715200.299999997,A,t,O,t,3689,1,3699.7999999970198,711500.5,7070,WL,C,1.0
5,3.9169998168945312,learn,60000.0,Fri Apr 04 2025 12:26:37 GMT-0500 (Central Daylight Time),715418.1000000015,A,to,O,o,197,1,3917.60000000149,711500.5,7070,WL,C,1.0
5,4.182999849319458,learn,60000.0,Fri Apr 04 2025 12:26:37 GMT-0500 (Central Daylight Time),715684.200000003,A,tow,O,w,249,1,4183.70000000298,711500.5,7070,WL,C,1.0
5,4.416999816894531,learn,60000.0,Fri Apr 04 2025 12:26:37 GMT-0500 (Central Daylight Time),715918.299999997,A,towe,O,e,223,1,4417.79999999702,711500.5,7070,WL,C,1.0
5,4.616999864578247,learn,60000.0,Fri Apr 04 2025 12:26:37 GMT-0500 (Central Daylight Time),716118.299999997,A,tower,O,r,193,1,4617.79999999702,711500.5,7070,WL,C,1.0
5,5.56499981880188,learn,60000.0,Fri Apr 04 2025 12:26:37 GMT-0500 (Central Daylight Time),717066.1000000015,A,towerenter,O,enter,935,1,5565.60000000149,711500.5,7070,WL,C,1.0
5,6.1499998569488525,learn,60000.0,Fri Apr 04 2025 12:26:37 GMT-0500 (Central Daylight Time),717651.299999997,A,w,O,w,580,1,585.0,717066.299999997,7070,WL,C,2.0
5,6.333999872207642,learn,60000.0,Fri Apr 04 2025 12:26:37 GMT-0500 (Central Daylight Time),717835.1000000015,A,wh,O,h,160,1,768.8000000044703,717066.299999997,7070,WL,C,2.0
5,6.498999834060669,learn,60000.0,Fri Apr 04 2025 12:26:37 GMT-0500 (Central Daylight Time),718000.5,A,whe,O,e,145,1,934.2000000029802,717066.299999997,7070,WL,C,2.0
5,6.747999906539917,learn,60000.0,Fri Apr 04 2025 12:26:37 GMT-0500 (Central Daylight Time),718249.200000003,A,whea,O,a,234,1,1182.9000000059605,717066.299999997,7070,WL,C,2.0
5,7.031999826431274,learn,60000.0,Fri Apr 04 2025 12:26:37 GMT-0500 (Central Daylight Time),718533.299999997,A,wheat,O,t,265,1,1467.0,717066.299999997,7070,WL,C,2.0
5,8.047999858856201,learn,60000.0,Fri Apr 04 2025 12:26:37 GMT-0500 (Central Daylight Time),719549.0,A,wheatenter,O,enter,1009,1,2482.7000000029802,717066.299999997,7070,WL,C,2.0
5,8.615000009536743,learn,60000.0,Fri Apr 04 2025 12:26:37 GMT-0500 (Central Daylight Time),720115.799999997,A,q,O,q,554,1,566.5,719549.299999997,7070,WL,C,3.0
5,8.896999835968018,learn,60000.0,Fri Apr 04 2025 12:26:37 GMT-0500 (Central Daylight Time),720397.700000003,A,qu,O,u,265,1,848.4000000059605,719549.299999997,7070,WL,C,3.0
5,9.164999961853027,learn,60000.0,Fri Apr 04 2025 12:26:37 GMT-0500 (Central Daylight Time),720665.8999999985,A,que,O,e,245,1,1116.6000000014901,719549.299999997,7070,WL,C,3.0
5,9.365000009536743,learn,60000.0,Fri Apr 04 2025 12:26:37 GMT-0500 (Central Daylight Time),720866.200000003,A,quee,O,e,172,1,1316.9000000059605,719549.299999997,7070,WL,C,3.0
5,10.014999866485596,learn,60000.0,Fri Apr 04 2025 12:26:37 GMT-0500 (Central Daylight Time),721516.1000000015,A,queen,O,n,643,1,1966.8000000044703,719549.299999997,7070,WL,C,3.0
5,10.513000011444092,learn,60000.0,Fri Apr 04 2025 12:26:37 GMT-0500 (Central Daylight Time),722013.8999999985,A,queenenter,O,enter,477,1,2464.60000000149,719549.299999997,7070,WL,C,3.0
5,10.914000034332275,learn,60000.0,Fri Apr 04 2025 12:26:37 GMT-0500 (Central Daylight Time),722415.5,A,s,O,s,396,1,401.3999999985099,722014.1000000015,7070,WL,C,4.0
5,11.264999866485596,learn,60000.0,Fri Apr 04 2025 12:26:37 GMT-0500 (Central Daylight Time),722765.799999997,A,su,O,u,342,1,751.6999999955297,722014.1000000015,7070,WL,C,4.0
5,11.563999891281128,learn,60000.0,Fri Apr 04 2025 12:26:37 GMT-0500 (Central Daylight Time),723065.1000000015,A,sug,O,g,278,1,1051.0,722014.1000000015,7070,WL,C,4.0
5,11.764999866485596,learn,60000.0,Fri Apr 04 2025 12:26:37 GMT-0500 (Central Daylight Time),723265.700000003,A,suga,O,a,177,1,1251.6000000014901,722014.1000000015,7070,WL,C,4.0
5,12.013999938964844,learn,60000.0,Fri Apr 04 2025 12:26:37 GMT-0500 (Central Daylight Time),723515.5,A,sugar,O,r,235,1,1501.3999999985099,722014.1000000015,7070,WL,C,4.0
5,12.44599986076355,learn,60000.0,Fri Apr 04 2025 12:26:37 GMT-0500 (Central Daylight Time),723947.200000003,A,sugarenter,O,enter,412,1,1933.1000000014901,722014.1000000015,7070,WL,C,4.0
5,13.429999828338623,learn,60000.0,Fri Apr 04 2025 12:26:37 GMT-0500 (Central Daylight Time),724931.5,A,d,O,d,971,1,984.1000000014901,723947.3999999985,7070,WL,C,5.0
5,13.680999994277954,learn,60000.0,Fri Apr 04 2025 12:26:37 GMT-0500 (Central Daylight Time),725181.5,A,do,O,o,240,1,1234.1000000014901,723947.3999999985,7070,WL,C,5.0
5,13.878000020980835,learn,60000.0,Fri Apr 04 2025 12:26:37 GMT-0500 (Central Daylight Time),725379.3999999985,A,doc,O,c,189,1,1432.0,723947.3999999985,7070,WL,C,5.0
5,14.164000034332275,learn,60000.0,Fri Apr 04 2025 12:26:37 GMT-0500 (Central Daylight Time),725664.700000003,A,doct,O,t,266,1,1717.3000000044703,723947.3999999985,7070,WL,C,5.0
5,14.27999997138977,learn,60000.0,Fri Apr 04 2025 12:26:37 GMT-0500 (Central Daylight Time),725781.3999999985,A,docto,O,o,111,1,1834.0,723947.3999999985,7070,WL,C,5.0
5,14.428999900817871,learn,60000.0,Fri Apr 04 2025 12:26:37 GMT-0500 (Central Daylight Time),725929.799999997,A,doctor,O,r,122,1,1982.3999999985099,723947.3999999985,7070,WL,C,5.0
5,15.51199984550476,learn,60000.0,Fri Apr 04 2025 12:26:37 GMT-0500 (Central Daylight Time),727013.200000003,A,doctorenter,O,enter,1064,1,3065.8000000044703,723947.3999999985,7070,WL,C,5.0
5,16.51199984550476,learn,60000.0,Fri Apr 04 2025 12:26:37 GMT-0500 (Central Daylight Time),728013.5,A,b,O,b,985,1,1000.1000000014901,727013.3999999985,7070,WL,C,6.0
5,16.77899980545044,learn,60000.0,Fri Apr 04 2025 12:26:37 GMT-0500 (Central Daylight Time),728279.700000003,A,bo,O,o,246,1,1266.3000000044703,727013.3999999985,7070,WL,C,6.0
5,17.02899980545044,learn,60000.0,Fri Apr 04 2025 12:26:37 GMT-0500 (Central Daylight Time),728530.3999999985,A,bod,O,d,237,1,1517.0,727013.3999999985,7070,WL,C,6.0
5,17.3439998626709,learn,60000.0,Fri Apr 04 2025 12:26:37 GMT-0500 (Central Daylight Time),728845.3999999985,A,body,O,y,297,1,1832.0,727013.3999999985,7070,WL,C,6.0
5,17.896999835968018,learn,60000.0,Fri Apr 04 2025 12:26:37 GMT-0500 (Central Daylight Time),729398.200000003,A,bodyenter,O,enter,545,1,2384.8000000044703,727013.3999999985,7070,WL,C,6.0
5,18.960999965667725,learn,60000.0,Fri Apr 04 2025 12:26:37 GMT-0500 (Central Daylight Time),730462.5,A,h,O,h,1059,1,1064.1000000014901,729398.3999999985,7070,WL,C,7.0
5,19.277999877929688,learn,60000.0,Fri Apr 04 2025 12:26:37 GMT-0500 (Central Daylight Time),730779.5,A,ho,O,o,301,1,1381.1000000014901,729398.3999999985,7070,WL,C,7.0
5,19.478999853134155,learn,60000.0,Fri Apr 04 2025 12:26:37 GMT-0500 (Central Daylight Time),730980.299999997,A,hon,O,n,191,1,1581.8999999985099,729398.3999999985,7070,WL,C,7.0
5,19.57699990272522,learn,60000.0,Fri Apr 04 2025 12:26:37 GMT-0500 (Central Daylight Time),731078.299999997,A,hone,O,e,84,1,1679.8999999985099,729398.3999999985,7070,WL,C,7.0
5,19.944000005722046,learn,60000.0,Fri Apr 04 2025 12:26:37 GMT-0500 (Central Daylight Time),731444.700000003,A,honeenter,O,enter,351,1,2046.3000000044703,729398.3999999985,7070,WL,C,7.0
5,20.442999839782715,learn,60000.0,Fri Apr 04 2025 12:26:37 GMT-0500 (Central Daylight Time),731944.700000003,A,b,O,b,480,1,499.70000000298023,731445.0,7070,WL,C,8.0
5,20.625999927520752,learn,60000.0,Fri Apr 04 2025 12:26:37 GMT-0500 (Central Daylight Time),732127.299999997,A,bi,O,i,171,1,682.2999999970198,731445.0,7070,WL,C,8.0
5,21.610999822616577,learn,60000.0,Fri Apr 04 2025 12:26:37 GMT-0500 (Central Daylight Time),733112.200000003,A,b,O,backspace,964,1,1667.2000000029802,731445.0,7070,WL,C,8.0
5,21.859999895095825,learn,60000.0,Fri Apr 04 2025 12:26:37 GMT-0500 (Central Daylight Time),733361.299999997,A,bo,O,o,235,1,1916.2999999970198,731445.0,7070,WL,C,8.0
5,22.194000005722046,learn,60000.0,Fri Apr 04 2025 12:26:37 GMT-0500 (Central Daylight Time),733695.1000000015,A,boy,O,y,316,1,2250.10000000149,731445.0,7070,WL,C,8.0
5,22.859999895095825,learn,60000.0,Fri Apr 04 2025 12:26:37 GMT-0500 (Central Daylight Time),734361.1000000015,A,boyenter,O,enter,653,1,2916.10000000149,731445.0,7070,WL,C,8.0
5,26.442999839782715,learn,60000.0,Fri Apr 04 2025 12:26:37 GMT-0500 (Central Daylight Time),737943.799999997,A,c,O,c,3574,1,3582.5,734361.299999997,7070,WL,C,9.0
5,26.70799994468689,learn,60000.0,Fri Apr 04 2025 12:26:37 GMT-0500 (Central Daylight Time),738208.700000003,A,ca,O,a,240,1,3847.4000000059605,734361.299999997,7070,WL,C,9.0
5,27.04099988937378,learn,60000.0,Fri Apr 04 2025 12:26:37 GMT-0500 (Central Daylight Time),738542.1000000015,A,cam,O,m,314,1,4180.80000000447,734361.299999997,7070,WL,C,9.0
5,27.524999856948853,learn,60000.0,Fri Apr 04 2025 12:26:37 GMT-0500 (Central Daylight Time),739026.3999999985,A,camp,O,p,470,1,4665.10000000149,734361.299999997,7070,WL,C,9.0
5,28.007999897003174,learn,60000.0,Fri Apr 04 2025 12:26:37 GMT-0500 (Central Daylight Time),739509.1000000015,A,campenter,O,enter,464,1,5147.80000000447,734361.299999997,7070,WL,C,9.0
5,28.79199981689453,learn,60000.0,Fri Apr 04 2025 12:26:37 GMT-0500 (Central Daylight Time),740293.1000000015,A,f,O,f,770,1,783.7000000029802,739509.3999999985,7070,WL,C,10.0
5,29.04099988937378,learn,60000.0,Fri Apr 04 2025 12:26:37 GMT-0500 (Central Daylight Time),740542.200000003,A,fl,O,l,239,1,1032.8000000044703,739509.3999999985,7070,WL,C,10.0
5,29.191999912261963,learn,60000.0,Fri Apr 04 2025 12:26:37 GMT-0500 (Central Daylight Time),740692.700000003,A,fla,O,a,134,1,1183.3000000044703,739509.3999999985,7070,WL,C,10.0
5,29.490999937057495,learn,60000.0,Fri Apr 04 2025 12:26:37 GMT-0500 (Central Daylight Time),740992.5,A,flag,O,g,284,1,1483.1000000014901,739509.3999999985,7070,WL,C,10.0
5,29.90999984741211,learn,60000.0,Fri Apr 04 2025 12:26:37 GMT-0500 (Central Daylight Time),741411.1000000015,A,flagenter,O,enter,409,1,1901.7000000029802,739509.3999999985,7070,WL,C,10.0
5,32.375,learn,60000.0,Fri Apr 04 2025 12:26:37 GMT-0500 (Central Daylight Time),743876.200000003,A,c,O,c,2443,1,2464.7000000029802,741411.5,7070,WL,C,11.0
5,32.53699994087219,learn,60000.0,Fri Apr 04 2025 12:26:37 GMT-0500 (Central Daylight Time),744038.3999999985,A,ca,O,a,149,1,2626.89999999851,741411.5,7070,WL,C,11.0
5,32.823999881744385,learn,60000.0,Fri Apr 04 2025 12:26:37 GMT-0500 (Central Daylight Time),744325.1000000015,A,cat,O,t,274,1,2913.60000000149,741411.5,7070,WL,C,11.0
5,32.973999977111816,learn,60000.0,Fri Apr 04 2025 12:26:37 GMT-0500 (Central Daylight Time),744474.5,A,catt,O,t,138,1,3063.0,741411.5,7070,WL,C,11.0
5,33.223999977111816,learn,60000.0,Fri Apr 04 2025 12:26:37 GMT-0500 (Central Daylight Time),744725.3999999985,A,cattl,O,l,245,1,3313.89999999851,741411.5,7070,WL,C,11.0
5,33.32599997520447,learn,60000.0,Fri Apr 04 2025 12:26:37 GMT-0500 (Central Daylight Time),744826.700000003,A,cattle,O,e,91,1,3415.2000000029802,741411.5,7070,WL,C,11.0
5,34.20599985122681,learn,60000.0,Fri Apr 04 2025 12:26:37 GMT-0500 (Central Daylight Time),745706.700000003,A,cattleenter,O,enter,860,1,4295.20000000298,741411.5,7070,WL,C,11.0
5,34.972999811172485,learn,60000.0,Fri Apr 04 2025 12:26:37 GMT-0500 (Central Daylight Time),746474.3999999985,A,c,O,c,747,1,767.2999999970198,745707.1000000015,7070,WL,C,12.0
5,35.223999977111816,learn,60000.0,Fri Apr 04 2025 12:26:37 GMT-0500 (Central Daylight Time),746725.5,A,co,O,o,232,1,1018.3999999985099,745707.1000000015,7070,WL,C,12.0
5,35.406999826431274,learn,60000.0,Fri Apr 04 2025 12:26:37 GMT-0500 (Central Daylight Time),746908.5,A,cor,O,r,166,1,1201.3999999985099,745707.1000000015,7070,WL,C,12.0
5,35.67199993133545,learn,60000.0,Fri Apr 04 2025 12:26:37 GMT-0500 (Central Daylight Time),747173.1000000015,A,corn,O,n,258,1,1466.0,745707.1000000015,7070,WL,C,12.0
5,36.17199993133545,learn,60000.0,Fri Apr 04 2025 12:26:37 GMT-0500 (Central Daylight Time),747673.200000003,A,cornenter,O,enter,487,1,1966.1000000014901,745707.1000000015,7070,WL,C,12.0
5,38.67199993133545,learn,60000.0,Fri Apr 04 2025 12:26:37 GMT-0500 (Central Daylight Time),750172.799999997,A,s,O,s,2484,1,2499.2999999970198,747673.5,7070,WL,C,13.0
5,38.82200002670288,learn,60000.0,Fri Apr 04 2025 12:26:37 GMT-0500 (Central Daylight Time),750323.3999999985,A,sh,O,h,136,1,2649.89999999851,747673.5,7070,WL,C,13.0
5,39.187000036239624,learn,60000.0,Fri Apr 04 2025 12:26:37 GMT-0500 (Central Daylight Time),750687.8999999985,A,sho,O,o,354,1,3014.39999999851,747673.5,7070,WL,C,13.0
5,39.454999923706055,learn,60000.0,Fri Apr 04 2025 12:26:37 GMT-0500 (Central Daylight Time),750956.0,A,shor,O,r,246,1,3282.5,747673.5,7070,WL,C,13.0
5,39.68899989128113,learn,60000.0,Fri Apr 04 2025 12:26:37 GMT-0500 (Central Daylight Time),751190.5,A,shore,O,e,228,1,3517.0,747673.5,7070,WL,C,13.0
5,40.05499982833862,learn,60000.0,Fri Apr 04 2025 12:26:37 GMT-0500 (Central Daylight Time),751555.8999999985,A,shoreenter,O,enter,360,1,3882.39999999851,747673.5,7070,WL,C,13.0
5,45.80199980735779,learn,60000.0,Fri Apr 04 2025 12:26:37 GMT-0500 (Central Daylight Time),757303.1000000015,A,h,O,h,5731,1,5746.89999999851,751556.200000003,7070,WL,C,14.0
5,46.300999879837036,learn,60000.0,Fri Apr 04 2025 12:26:37 GMT-0500 (Central Daylight Time),757802.200000003,A,ho,O,o,477,1,6246.0,751556.200000003,7070,WL,C,14.0
5,46.61800003051758,learn,60000.0,Fri Apr 04 2025 12:26:37 GMT-0500 (Central Daylight Time),758118.8999999985,A,hon,O,n,301,1,6562.69999999553,751556.200000003,7070,WL,C,14.0
5,46.70199990272522,learn,60000.0,Fri Apr 04 2025 12:26:37 GMT-0500 (Central Daylight Time),758202.799999997,A,hone,O,e,76,1,6646.5999999940395,751556.200000003,7070,WL,C,14.0
5,47.2189998626709,learn,60000.0,Fri Apr 04 2025 12:26:37 GMT-0500 (Central Daylight Time),758720.0,A,honeenter,O,enter,500,1,7163.79999999702,751556.200000003,7070,WL,C,14.0
5,98.85099983215332,learn,60000.0,Fri Apr 04 2025 12:26:37 GMT-0500 (Central Daylight Time),810352.5,A,h,O,h,51623,1,51632.29999999702,758720.200000003,7070,WL,C,15.0
6,9.995999813079834,distr,50004.000186920166,Fri Apr 04 2025 12:26:37 GMT-0500 (Central Daylight Time),902923.1000000015,B,s,O,s,9986,1,9996.89999999851,892926.200000003,7070,WL,C,1.0
6,10.346999883651733,distr,49653.00011634827,Fri Apr 04 2025 12:26:37 GMT-0500 (Central Daylight Time),903274.0,B,sk,O,k,339,1,10347.79999999702,892926.200000003,7070,WL,C,1.0
6,10.613999843597412,distr,49386.00015640259,Fri Apr 04 2025 12:26:37 GMT-0500 (Central Daylight Time),903540.799999997,B,sky,O,y,262,1,10614.59999999404,892926.200000003,7070,WL,C,1.0
6,11.063999891281128,distr,48936.00010871887,Fri Apr 04 2025 12:26:37 GMT-0500 (Central Daylight Time),903990.799999997,B,skyv,O,v,435,1,11064.59999999404,892926.200000003,7070,WL,C,1.0
6,11.246999979019165,distr,48753.000020980835,Fri Apr 04 2025 12:26:37 GMT-0500 (Central Daylight Time),904173.700000003,B,skyva,O,a,177,1,11247.5,892926.200000003,7070,WL,C,1.0
6,11.71399998664856,distr,48286.00001335144,Fri Apr 04 2025 12:26:37 GMT-0500 (Central Daylight Time),904640.299999997,B,skyval,O,l,453,1,11714.09999999404,892926.200000003,7070,WL,C,1.0
6,11.861999988555908,distr,48138.00001144409,Fri Apr 04 2025 12:26:37 GMT-0500 (Central Daylight Time),904789.0,B,skyvall,O,l,141,1,11862.79999999702,892926.200000003,7070,WL,C,1.0
6,12.712999820709229,distr,47287.00017929077,Fri Apr 04 2025 12:26:37 GMT-0500 (Central Daylight Time),905639.8999999985,B,skyval,O,backspace,839,1,12713.69999999553,892926.200000003,7070,WL,C,1.0
6,12.878999948501587,distr,47121.00005149841,Fri Apr 04 2025 12:26:37 GMT-0500 (Central Daylight Time),905805.700000003,B,skyva,O,backspace,159,1,12879.5,892926.200000003,7070,WL,C,1.0
6,13.062999963760376,distr,46937.000036239624,Fri Apr 04 2025 12:26:37 GMT-0500 (Central Daylight Time),905989.6000000015,B,skyv,O,backspace,166,1,13063.39999999851,892926.200000003,7070,WL,C,1.0
6,13.179999828338623,distr,46820.00017166138,Fri Apr 04 2025 12:26:37 GMT-0500 (Central Daylight Time),906107.200000003,B,sky,O,backspace,111,1,13181.0,892926.200000003,7070,WL,C,1.0
6,14.212999820709229,distr,45787.00017929077,Fri Apr 04 2025 12:26:37 GMT-0500 (Central Daylight Time),907140.200000003,B,skyenter,O,enter,1011,1,14214.0,892926.200000003,7070,WL,C,1.0
6,14.562999963760376,distr,45437.000036239624,Fri Apr 04 2025 12:26:37 GMT-0500 (Central Daylight Time),907489.299999997,B,v,O,v,330,1,348.8999999985099,907140.3999999985,7070,WL,C,2.0
6,14.728999853134155,distr,45271.000146865845,Fri Apr 04 2025 12:26:37 GMT-0500 (Central Daylight Time),907655.799999997,B,va,O,a,148,1,515.3999999985099,907140.3999999985,7070,WL,C,2.0
6,14.979999780654907,distr,45020.00021934509,Fri Apr 04 2025 12:26:37 GMT-0500 (Central Daylight Time),907906.5,B,val,O,l,230,1,766.1000000014901,907140.3999999985,7070,WL,C,2.0
6,15.111999988555908,distr,44888.00001144409,Fri Apr 04 2025 12:26:37 GMT-0500 (Central Daylight Time),908038.799999997,B,vall,O,l,124,1,898.3999999985099,907140.3999999985,7070,WL,C,2.0
6,15.627999782562256,distr,44372.000217437744,Fri Apr 04 2025 12:26:37 GMT-0500 (Central Daylight Time),908554.700000003,B,valle,O,e,501,1,1414.3000000044703,907140.3999999985,7070,WL,C,2.0
6,15.961999893188477,distr,44038.00010681152,Fri Apr 04 2025 12:26:37 GMT-0500 (Central Daylight Time),908889.200000003,B,valley,O,y,316,1,1748.8000000044703,907140.3999999985,7070,WL,C,2.0
6,17.110999822616577,distr,42889.00017738342,Fri Apr 04 2025 12:26:37 GMT-0500 (Central Daylight Time),910037.700000003,B,valleyenter,O,enter,1140,1,2897.3000000044703,907140.3999999985,7070,WL,C,2.0
6,17.578999996185303,distr,42421.0000038147,Fri Apr 04 2025 12:26:37 GMT-0500 (Central Daylight Time),910505.3999999985,B,c,O,c,448,1,467.3999999985099,910038.0,7070,WL,C,3.0
6,17.92799997329712,distr,42072.00002670288,Fri Apr 04 2025 12:26:37 GMT-0500 (Central Daylight Time),910854.799999997,B,ch,O,h,328,1,816.7999999970198,910038.0,7070,WL,C,3.0
6,18.07799983024597,distr,41922.00016975403,Fri Apr 04 2025 12:26:37 GMT-0500 (Central Daylight Time),911005.1000000015,B,chr,O,r,133,1,967.1000000014901,910038.0,7070,WL,C,3.0
6,18.228999853134155,distr,41771.000146865845,Fri Apr 04 2025 12:26:37 GMT-0500 (Central Daylight Time),911155.700000003,B,chri,O,i,139,1,1117.7000000029802,910038.0,7070,WL,C,3.0
6,18.393999814987183,distr,41606.00018501282,Fri Apr 04 2025 12:26:37 GMT-0500 (Central Daylight Time),911321.200000003,B,chris,O,s,153,1,1283.2000000029802,910038.0,7070,WL,C,3.0
6,18.5939998626709,distr,41406.0001373291,Fri Apr 04 2025 12:26:37 GMT-0500 (Central Daylight Time),911520.700000003,B,christ,O,t,189,1,1482.7000000029802,910038.0,7070,WL,C,3.0
6,18.894999980926514,distr,41105.000019073486,Fri Apr 04 2025 12:26:37 GMT-0500 (Central Daylight Time),911821.799999997,B,christn,O,n,285,1,1783.7999999970198,910038.0,7070,WL,C,3.0
6,19.09599995613098,distr,40904.00004386902,Fri Apr 04 2025 12:26:37 GMT-0500 (Central Daylight Time),912022.5,B,christna,O,a,195,1,1984.5,910038.0,7070,WL,C,3.0
6,19.76099991798401,distr,40239.00008201599,Fri Apr 04 2025 12:26:37 GMT-0500 (Central Daylight Time),912687.299999997,B,christn,O,backspace,654,1,2649.2999999970198,910038.0,7070,WL,C,3.0
6,19.959999799728394,distr,40040.00020027161,Fri Apr 04 2025 12:26:37 GMT-0500 (Central Daylight Time),912887.200000003,B,christ,O,backspace,191,1,2849.2000000029802,910038.0,7070,WL,C,3.0
6,20.109999895095825,distr,39890.000104904175,Fri Apr 04 2025 12:26:37 GMT-0500 (Central Daylight Time),913036.799999997,B,chris,O,backspace,142,1,2998.7999999970198,910038.0,7070,WL,C,3.0
6,20.310999870300293,distr,39689.00012969971,Fri Apr 04 2025 12:26:37 GMT-0500 (Central Daylight Time),913238.1000000015,B,chri,O,backspace,183,1,3200.10000000149,910038.0,7070,WL,C,3.0
6,20.776999950408936,distr,39223.000049591064,Fri Apr 04 2025 12:26:37 GMT-0500 (Central Daylight Time),913704.1000000015,B,chr,O,backspace,456,1,3666.10000000149,910038.0,7070,WL,C,3.0
6,20.978999853134155,distr,39021.000146865845,Fri Apr 04 2025 12:26:37 GMT-0500 (Central Daylight Time),913906.0,B,ch,O,backspace,196,1,3868.0,910038.0,7070,WL,C,3.0
6,21.113999843597412,distr,38886.00015640259,Fri Apr 04 2025 12:26:37 GMT-0500 (Central Daylight Time),914040.6000000015,B,c,O,backspace,126,1,4002.60000000149,910038.0,7070,WL,C,3.0
6,21.509999990463257,distr,38490.00000953674,Fri Apr 04 2025 12:26:37 GMT-0500 (Central Daylight Time),914437.0,B,,O,backspace,392,1,4399.0,910038.0,7070,WL,C,3.0
6,22.742999792099,distr,37257.000207901,Fri Apr 04 2025 12:26:37 GMT-0500 (Central Daylight Time),915670.0,B,c,O,c,1217,1,5632.0,910038.0,7070,WL,C,3.0
6,24.274999856948853,distr,35725.00014305115,Fri Apr 04 2025 12:26:37 GMT-0500 (Central Daylight Time),917202.200000003,B,ch,O,h,1512,1,7164.20000000298,910038.0,7070,WL,C,3.0
6,26.057999849319458,distr,33942.00015068054,Fri Apr 04 2025 12:26:37 GMT-0500 (Central Daylight Time),918985.0,B,chr,O,r,1763,1,8947.0,910038.0,7070,WL,C,3.0
6,26.19099998474121,distr,33809.00001525879,Fri Apr 04 2025 12:26:37 GMT-0500 (Central Daylight Time),919118.0,B,chri,O,i,116,1,9080.0,910038.0,7070,WL,C,3.0
6,26.324999809265137,distr,33675.00019073486,Fri Apr 04 2025 12:26:37 GMT-0500 (Central Daylight Time),919251.299999997,B,chris,O,s,118,1,9213.29999999702,910038.0,7070,WL,C,3.0
6,26.54099988937378,distr,33459.00011062622,Fri Apr 04 2025 12:26:37 GMT-0500 (Central Daylight Time),919467.8999999985,B,christ,O,t,210,1,9429.89999999851,910038.0,7070,WL,C,3.0
6,26.840999841690063,distr,33159.00015830994,Fri Apr 04 2025 12:26:37 GMT-0500 (Central Daylight Time),919768.0,B,christn,O,n,291,1,9730.0,910038.0,7070,WL,C,3.0
6,26.924999952316284,distr,33075.000047683716,Fri Apr 04 2025 12:26:37 GMT-0500 (Central Daylight Time),919851.799999997,B,christna,O,a,70,1,9813.79999999702,910038.0,7070,WL,C,3.0
6,27.125,distr,32875.0,Fri Apr 04 2025 12:26:37 GMT-0500 (Central Daylight Time),920051.700000003,B,christnas,O,s,185,1,10013.70000000298,910038.0,7070,WL,C,3.0
6,28.45799994468689,distr,31542.00005531311,Fri Apr 04 2025 12:26:37 GMT-0500 (Central Daylight Time),921384.8999999985,B,christna,O,backspace,1315,1,11346.89999999851,910038.0,7070,WL,C,3.0
6,28.60699987411499,distr,31393.00012588501,Fri Apr 04 2025 12:26:37 GMT-0500 (Central Daylight Time),921534.200000003,B,christn,O,backspace,143,1,11496.20000000298,910038.0,7070,WL,C,3.0
6,29.30899977684021,distr,30691.00022315979,Fri Apr 04 2025 12:26:37 GMT-0500 (Central Daylight Time),922235.3999999985,B,christ,O,backspace,679,1,12197.39999999851,910038.0,7070,WL,C,3.0
6,30.2739999294281,distr,29726.0000705719,Fri Apr 04 2025 12:26:37 GMT-0500 (Central Daylight Time),923201.0,B,christm,O,m,946,1,13163.0,910038.0,7070,WL,C,3.0
6,30.340999841690063,distr,29659.000158309937,Fri Apr 04 2025 12:26:37 GMT-0500 (Central Daylight Time),923267.799999997,B,christma,O,a,44,1,13229.79999999702,910038.0,7070,WL,C,3.0
6,30.50599980354309,distr,29494.00019645691,Fri Apr 04 2025 12:26:37 GMT-0500 (Central Daylight Time),923433.1000000015,B,christmas,O,s,145,1,13395.10000000149,910038.0,7070,WL,C,3.0
6,32.65599989891052,distr,27344.000101089478,Fri Apr 04 2025 12:26:37 GMT-0500 (Central Daylight Time),925583.0,B,christmasenter,O,enter,2140,1,15545.0,910038.0,7070,WL,C,3.0
6,34.78999996185303,distr,25210.000038146973,Fri Apr 04 2025 12:26:37 GMT-0500 (Central Daylight Time),927717.0,B,d,O,d,2128,1,2133.7000000029802,925583.299999997,7070,WL,C,4.0
6,34.99000000953674,distr,25009.999990463257,Fri Apr 04 2025 12:26:37 GMT-0500 (Central Daylight Time),927917.0,B,di,O,i,184,1,2333.7000000029802,925583.299999997,7070,WL,C,4.0
6,35.12299990653992,distr,24877.000093460083,Fri Apr 04 2025 12:26:37 GMT-0500 (Central Daylight Time),928050.200000003,B,dia,O,a,121,1,2466.9000000059605,925583.299999997,7070,WL,C,4.0
6,35.537999868392944,distr,24462.000131607056,Fri Apr 04 2025 12:26:37 GMT-0500 (Central Daylight Time),928464.799999997,B,diam,O,m,393,1,2881.5,925583.299999997,7070,WL,C,4.0
6,35.80499982833862,distr,24195.000171661377,Fri Apr 04 2025 12:26:37 GMT-0500 (Central Daylight Time),928732.0,B,diamo,O,o,244,1,3148.7000000029802,925583.299999997,7070,WL,C,4.0
6,36.222999811172485,distr,23777.000188827515,Fri Apr 04 2025 12:26:37 GMT-0500 (Central Daylight Time),929149.299999997,B,diamon,O,n,402,1,3566.0,925583.299999997,7070,WL,C,4.0
6,37.24000000953674,distr,22759.999990463257,Fri Apr 04 2025 12:26:37 GMT-0500 (Central Daylight Time),930166.299999997,B,diamont,O,t,1008,1,4583.0,925583.299999997,7070,WL,C,4.0
6,38.151999950408936,distr,21848.000049591064,Fri Apr 04 2025 12:26:37 GMT-0500 (Central Daylight Time),931079.1000000015,B,diamon,O,backspace,903,1,5495.80000000447,925583.299999997,7070,WL,C,4.0
6,38.75499987602234,distr,21245.00012397766,Fri Apr 04 2025 12:26:37 GMT-0500 (Central Daylight Time),931681.8999999985,B,diamond,O,d,594,1,6098.60000000149,925583.299999997,7070,WL,C,4.0
6,39.270999908447266,distr,20729.000091552734,Fri Apr 04 2025 12:26:37 GMT-0500 (Central Daylight Time),932197.5,B,diamondenter,O,enter,508,1,6614.20000000298,925583.299999997,7070,WL,C,4.0
6,43.32099986076355,distr,16679.00013923645,Fri Apr 04 2025 12:26:37 GMT-0500 (Central Daylight Time),936247.299999997,B,t,O,t,4034,1,4049.5999999940395,932197.700000003,7070,WL,C,5.0
6,43.48699998855591,distr,16513.00001144409,Fri Apr 04 2025 12:26:37 GMT-0500 (Central Daylight Time),936413.799999997,B,to,O,o,150,1,4216.0999999940395,932197.700000003,7070,WL,C,5.0
6,43.63800001144409,distr,16361.999988555908,Fri Apr 04 2025 12:26:37 GMT-0500 (Central Daylight Time),936564.799999997,B,too,O,o,136,1,4367.0999999940395,932197.700000003,7070,WL,C,5.0
6,43.80299997329712,distr,16197.00002670288,Fri Apr 04 2025 12:26:37 GMT-0500 (Central Daylight Time),936730.1000000015,B,tool,O,l,152,1,4532.39999999851,932197.700000003,7070,WL,C,5.0
6,44.83799982070923,distr,15162.000179290771,Fri Apr 04 2025 12:26:37 GMT-0500 (Central Daylight Time),937764.299999997,B,toolenter,O,enter,1018,1,5566.5999999940395,932197.700000003,7070,WL,C,5.0
6,45.96799993515015,distr,14032.000064849854,Fri Apr 04 2025 12:26:37 GMT-0500 (Central Daylight Time),938895.200000003,B,l,O,l,1114,1,1130.6000000014901,937764.6000000015,7070,WL,C,6.0
6,46.08399987220764,distr,13916.000127792358,Fri Apr 04 2025 12:26:37 GMT-0500 (Central Daylight Time),939011.1000000015,B,le,O,e,92,1,1246.5,937764.6000000015,7070,WL,C,6.0
6,46.40299987792969,distr,13597.000122070312,Fri Apr 04 2025 12:26:37 GMT-0500 (Central Daylight Time),939329.5,B,let,O,t,310,1,1564.8999999985099,937764.6000000015,7070,WL,C,6.0
6,46.53499984741211,distr,13465.00015258789,Fri Apr 04 2025 12:26:37 GMT-0500 (Central Daylight Time),939461.299999997,B,lett,O,t,115,1,1696.6999999955297,937764.6000000015,7070,WL,C,6.0
6,46.73599982261658,distr,13264.000177383423,Fri Apr 04 2025 12:26:37 GMT-0500 (Central Daylight Time),939662.299999997,B,lette,O,e,182,1,1897.6999999955297,937764.6000000015,7070,WL,C,6.0
6,46.8529999256134,distr,13147.000074386597,Fri Apr 04 2025 12:26:37 GMT-0500 (Central Daylight Time),939779.6000000015,B,letter,O,r,93,1,2015.0,937764.6000000015,7070,WL,C,6.0
6,48.18399977684021,distr,11816.00022315979,Fri Apr 04 2025 12:26:37 GMT-0500 (Central Daylight Time),941110.799999997,B,letterenter,O,enter,1320,1,3346.1999999955297,937764.6000000015,7070,WL,C,6.0
6,60.013999938964844,distr,-13.99993896484375,Fri Apr 04 2025 12:26:37 GMT-0500 (Central Daylight Time),952940.8999999985,B,None,O,None,11825,1,11829.79999999702,941111.1000000015,7070,WL,C,7.0
7,5.880999803543091,immed,54119.00019645691,Fri Apr 04 2025 12:26:37 GMT-0500 (Central Daylight Time),972502.700000003,A,t,O,t,5875,1,5881.30000000447,966621.3999999985,7070,WL,C,1.0
7,6.129999876022339,immed,53870.00012397766,Fri Apr 04 2025 12:26:37 GMT-0500 (Central Daylight Time),972751.700000003,A,to,O,o,231,1,6130.30000000447,966621.3999999985,7070,WL,C,1.0
7,6.313999891281128,immed,53686.00010871887,Fri Apr 04 2025 12:26:37 GMT-0500 (Central Daylight Time),972935.6000000015,A,tow,O,w,176,1,6314.20000000298,966621.3999999985,7070,WL,C,1.0
7,6.5299999713897705,immed,53470.00002861023,Fri Apr 04 2025 12:26:37 GMT-0500 (Central Daylight Time),973151.0,A,towe,O,e,208,1,6529.60000000149,966621.3999999985,7070,WL,C,1.0
7,6.7129998207092285,immed,53287.00017929077,Fri Apr 04 2025 12:26:37 GMT-0500 (Central Daylight Time),973334.3999999985,A,tower,O,r,175,1,6713.0,966621.3999999985,7070,WL,C,1.0
7,7.8459999561309814,immed,52154.00004386902,Fri Apr 04 2025 12:26:37 GMT-0500 (Central Daylight Time),974467.700000003,A,towerenter,O,enter,1111,1,7846.30000000447,966621.3999999985,7070,WL,C,1.0
7,9.02899980545044,immed,50971.00019454956,Fri Apr 04 2025 12:26:37 GMT-0500 (Central Daylight Time),975650.6000000015,A,q,O,q,1171,1,1182.7000000029802,974467.8999999985,7070,WL,C,2.0
7,9.36299991607666,immed,50637.00008392334,Fri Apr 04 2025 12:26:37 GMT-0500 (Central Daylight Time),975984.3999999985,A,qu,O,u,316,1,1516.5,974467.8999999985,7070,WL,C,2.0
7,9.61299991607666,immed,50387.00008392334,Fri Apr 04 2025 12:26:37 GMT-0500 (Central Daylight Time),976233.8999999985,A,que,O,e,229,1,1766.0,974467.8999999985,7070,WL,C,2.0
7,9.79699993133545,immed,50203.00006866455,Fri Apr 04 2025 12:26:37 GMT-0500 (Central Daylight Time),976418.0,A,quee,O,e,171,1,1950.1000000014901,974467.8999999985,7070,WL,C,2.0
7,10.078999996185303,immed,49921.0000038147,Fri Apr 04 2025 12:26:37 GMT-0500 (Central Daylight Time),976700.0,A,queen,O,n,267,1,2232.10000000149,974467.8999999985,7070,WL,C,2.0
7,10.944999933242798,immed,49055.0000667572,Fri Apr 04 2025 12:26:37 GMT-0500 (Central Daylight Time),977565.8999999985,A,queenenter,O,enter,850,1,3098.0,974467.8999999985,7070,WL,C,2.0
7,11.679999828338623,immed,48320.00017166138,Fri Apr 04 2025 12:26:37 GMT-0500 (Central Daylight Time),978301.200000003,A,s,O,s,730,1,735.0,977566.200000003,7070,WL,C,3.0
7,11.896999835968018,immed,48103.00016403198,Fri Apr 04 2025 12:26:37 GMT-0500 (Central Daylight Time),978518.299999997,A,su,O,u,209,1,952.0999999940395,977566.200000003,7070,WL,C,3.0
7,12.095999956130981,immed,47904.00004386902,Fri Apr 04 2025 12:26:37 GMT-0500 (Central Daylight Time),978717.1000000015,A,sug,O,g,185,1,1150.8999999985099,977566.200000003,7070,WL,C,3.0
7,12.280999898910522,immed,47719.00010108948,Fri Apr 04 2025 12:26:37 GMT-0500 (Central Daylight Time),978902.200000003,A,suga,O,a,170,1,1336.0,977566.200000003,7070,WL,C,3.0
7,12.543999910354614,immed,47456.000089645386,Fri Apr 04 2025 12:26:37 GMT-0500 (Central Daylight Time),979165.5,A,sugar,O,r,246,1,1599.2999999970198,977566.200000003,7070,WL,C,3.0
7,14.194000005722046,immed,45805.999994277954,Fri Apr 04 2025 12:26:37 GMT-0500 (Central Daylight Time),980815.1000000015,A,sugarenter,O,enter,1641,1,3248.89999999851,977566.200000003,7070,WL,C,3.0
7,14.859999895095825,immed,45140.000104904175,Fri Apr 04 2025 12:26:37 GMT-0500 (Central Daylight Time),981481.700000003,A,d,O,d,647,1,666.4000000059605,980815.299999997,7070,WL,C,4.0
7,15.043999910354614,immed,44956.000089645386,Fri Apr 04 2025 12:26:37 GMT-0500 (Central Daylight Time),981665.5,A,do,O,o,165,1,850.2000000029802,980815.299999997,7070,WL,C,4.0
7,15.178999900817871,immed,44821.00009918213,Fri Apr 04 2025 12:26:37 GMT-0500 (Central Daylight Time),981800.200000003,A,doc,O,c,115,1,984.9000000059605,980815.299999997,7070,WL,C,4.0
7,15.44599986076355,immed,44554.00013923645,Fri Apr 04 2025 12:26:37 GMT-0500 (Central Daylight Time),982067.200000003,A,doct,O,t,246,1,1251.9000000059605,980815.299999997,7070,WL,C,4.0
7,15.893999814987183,immed,44106.00018501282,Fri Apr 04 2025 12:26:37 GMT-0500 (Central Daylight Time),982515.5,A,docto,O,o,432,1,1700.2000000029802,980815.299999997,7070,WL,C,4.0
7,15.99399995803833,immed,44006.00004196167,Fri Apr 04 2025 12:26:37 GMT-0500 (Central Daylight Time),982615.0,A,doctor,O,r,81,1,1799.7000000029802,980815.299999997,7070,WL,C,4.0
7,17.176999807357788,immed,42823.00019264221,Fri Apr 04 2025 12:26:37 GMT-0500 (Central Daylight Time),983798.6000000015,A,doctorenter,O,enter,1166,1,2983.3000000044703,980815.299999997,7070,WL,C,4.0
7,17.97699999809265,immed,42023.00000190735,Fri Apr 04 2025 12:26:37 GMT-0500 (Central Daylight Time),984598.200000003,A,h,O,h,793,1,799.2000000029802,983799.0,7070,WL,C,5.0
7,18.376999855041504,immed,41623.000144958496,Fri Apr 04 2025 12:26:37 GMT-0500 (Central Daylight Time),984998.200000003,A,ho,O,o,392,1,1199.2000000029802,983799.0,7070,WL,C,5.0
7,18.876999855041504,immed,41123.000144958496,Fri Apr 04 2025 12:26:37 GMT-0500 (Central Daylight Time),985498.0,A,hom,O,m,477,1,1699.0,983799.0,7070,WL,C,5.0
7,18.994999885559082,immed,41005.00011444092,Fri Apr 04 2025 12:26:37 GMT-0500 (Central Daylight Time),985615.8999999985,A,home,O,e,107,1,1816.8999999985099,983799.0,7070,WL,C,5.0
7,19.442999839782715,immed,40557.000160217285,Fri Apr 04 2025 12:26:37 GMT-0500 (Central Daylight Time),986064.1000000015,A,homeenter,O,enter,428,1,2265.10000000149,983799.0,7070,WL,C,5.0
7,20.158999919891357,immed,39841.00008010864,Fri Apr 04 2025 12:26:37 GMT-0500 (Central Daylight Time),986780.799999997,A,b,O,b,696,1,716.5,986064.299999997,7070,WL,C,6.0
7,20.342999935150146,immed,39657.00006484985,Fri Apr 04 2025 12:26:37 GMT-0500 (Central Daylight Time),986964.299999997,A,bo,O,o,170,1,900.0,986064.299999997,7070,WL,C,6.0
7,21.15999984741211,immed,38840.00015258789,Fri Apr 04 2025 12:26:37 GMT-0500 (Central Daylight Time),987781.0,A,boy,O,y,802,1,1716.7000000029802,986064.299999997,7070,WL,C,6.0
7,22.325999975204468,immed,37674.00002479553,Fri Apr 04 2025 12:26:37 GMT-0500 (Central Daylight Time),988946.799999997,A,boyenter,O,enter,1144,1,2882.5,986064.299999997,7070,WL,C,6.0
7,22.824999809265137,immed,37175.00019073486,Fri Apr 04 2025 12:26:37 GMT-0500 (Central Daylight Time),989446.3999999985,A,b,O,b,483,1,499.19999999552965,988947.200000003,7070,WL,C,7.0
7,23.04199981689453,immed,36958.00018310547,Fri Apr 04 2025 12:26:37 GMT-0500 (Central Daylight Time),989662.8999999985,A,bo,O,o,207,1,715.6999999955297,988947.200000003,7070,WL,C,7.0
7,23.2739999294281,immed,36726.0000705719,Fri Apr 04 2025 12:26:37 GMT-0500 (Central Daylight Time),989895.299999997,A,bod,O,d,215,1,948.0999999940395,988947.200000003,7070,WL,C,7.0
7,23.526999950408936,immed,36473.000049591064,Fri Apr 04 2025 12:26:37 GMT-0500 (Central Daylight Time),990148.5,A,body,O,y,246,1,1201.2999999970198,988947.200000003,7070,WL,C,7.0
7,24.875,immed,35125.0,Fri Apr 04 2025 12:26:37 GMT-0500 (Central Daylight Time),991496.299999997,A,bodyenter,O,enter,1327,1,2549.0999999940395,988947.200000003,7070,WL,C,7.0
7,25.657999992370605,immed,34342.000007629395,Fri Apr 04 2025 12:26:37 GMT-0500 (Central Daylight Time),992279.0,A,c,O,c,766,1,782.3999999985099,991496.6000000015,7070,WL,C,8.0
7,25.857999801635742,immed,34142.00019836426,Fri Apr 04 2025 12:26:37 GMT-0500 (Central Daylight Time),992479.0,A,ca,O,a,182,1,982.3999999985099,991496.6000000015,7070,WL,C,8.0
7,26.12399983406067,immed,33876.00016593933,Fri Apr 04 2025 12:26:37 GMT-0500 (Central Daylight Time),992745.6000000015,A,cat,O,t,246,1,1249.0,991496.6000000015,7070,WL,C,8.0
7,26.256999969482422,immed,33743.00003051758,Fri Apr 04 2025 12:26:37 GMT-0500 (Central Daylight Time),992877.799999997,A,catt,O,t,112,1,1381.1999999955297,991496.6000000015,7070,WL,C,8.0
7,26.44099998474121,immed,33559.00001525879,Fri Apr 04 2025 12:26:37 GMT-0500 (Central Daylight Time),993062.1000000015,A,cattl,O,l,167,1,1565.5,991496.6000000015,7070,WL,C,8.0
7,26.524999856948853,immed,33475.00014305115,Fri Apr 04 2025 12:26:37 GMT-0500 (Central Daylight Time),993145.8999999985,A,cattle,O,e,63,1,1649.2999999970198,991496.6000000015,7070,WL,C,8.0
7,27.223999977111816,immed,32776.00002288818,Fri Apr 04 2025 12:26:37 GMT-0500 (Central Daylight Time),993845.200000003,A,cattleenter,O,enter,693,1,2348.60000000149,991496.6000000015,7070,WL,C,8.0
7,27.924999952316284,immed,32075.000047683716,Fri Apr 04 2025 12:26:37 GMT-0500 (Central Daylight Time),994546.0,A,c,O,c,690,1,700.6000000014901,993845.3999999985,7070,WL,C,9.0
7,28.073999881744385,immed,31926.000118255615,Fri Apr 04 2025 12:26:37 GMT-0500 (Central Daylight Time),994695.6000000015,A,co,O,o,139,1,850.2000000029802,993845.3999999985,7070,WL,C,9.0
7,28.33999991416931,immed,31660.00008583069,Fri Apr 04 2025 12:26:37 GMT-0500 (Central Daylight Time),994961.700000003,A,cor,O,r,254,1,1116.3000000044703,993845.3999999985,7070,WL,C,9.0
7,28.68999981880188,immed,31310.00018119812,Fri Apr 04 2025 12:26:37 GMT-0500 (Central Daylight Time),995310.799999997,A,corn,O,n,331,1,1465.3999999985099,993845.3999999985,7070,WL,C,9.0
7,29.471999883651733,immed,30528.000116348267,Fri Apr 04 2025 12:26:37 GMT-0500 (Central Daylight Time),996093.5,A,cornenter,O,enter,776,1,2248.10000000149,993845.3999999985,7070,WL,C,9.0
7,30.304999828338623,immed,29695.000171661377,Fri Apr 04 2025 12:26:37 GMT-0500 (Central Daylight Time),996926.3999999985,A,c,O,c,817,1,832.6000000014901,996093.799999997,7070,WL,C,10.0
7,30.488999843597412,immed,29511.000156402588,Fri Apr 04 2025 12:26:37 GMT-0500 (Central Daylight Time),997110.700000003,A,ca,O,a,168,1,1016.9000000059605,996093.799999997,7070,WL,C,10.0
7,30.954999923706055,immed,29045.000076293945,Fri Apr 04 2025 12:26:37 GMT-0500 (Central Daylight Time),997576.3999999985,A,can,O,n,454,1,1482.6000000014901,996093.799999997,7070,WL,C,10.0
7,31.65499997138977,immed,28345.00002861023,Fri Apr 04 2025 12:26:37 GMT-0500 (Central Daylight Time),998276.6000000015,A,ca,O,backspace,695,1,2182.8000000044703,996093.799999997,7070,WL,C,10.0
7,32.03999996185303,immed,27960.000038146973,Fri Apr 04 2025 12:26:37 GMT-0500 (Central Daylight Time),998661.0,A,cam,O,m,369,1,2567.2000000029802,996093.799999997,7070,WL,C,10.0
7,32.40499997138977,immed,27595.00002861023,Fri Apr 04 2025 12:26:37 GMT-0500 (Central Daylight Time),999026.700000003,A,camo,O,o,351,1,2932.9000000059605,996093.799999997,7070,WL,C,10.0
7,33.520999908447266,immed,26479.000091552734,Fri Apr 04 2025 12:26:37 GMT-0500 (Central Daylight Time),1000142.0,A,cam,O,backspace,1107,1,4048.2000000029802,996093.799999997,7070,WL,C,10.0
7,33.77199983596802,immed,26228.000164031982,Fri Apr 04 2025 12:26:37 GMT-0500 (Central Daylight Time),1000393.3999999985,A,camp,O,p,231,1,4299.60000000149,996093.799999997,7070,WL,C,10.0
7,35.02300000190735,immed,24976.99999809265,Fri Apr 04 2025 12:26:37 GMT-0500 (Central Daylight Time),1001644.1000000015,A,campenter,O,enter,1235,1,5550.30000000447,996093.799999997,7070,WL,C,10.0
7,35.888999938964844,immed,24111.000061035156,Fri Apr 04 2025 12:26:37 GMT-0500 (Central Daylight Time),1002510.3999999985,A,f,O,f,861,1,866.1000000014901,1001644.299999997,7070,WL,C,11.0
7,36.13699984550476,immed,23863.00015449524,Fri Apr 04 2025 12:26:37 GMT-0500 (Central Daylight Time),1002757.8999999985,A,fl,O,l,232,1,1113.6000000014901,1001644.299999997,7070,WL,C,11.0
7,36.288999795913696,immed,23711.000204086304,Fri Apr 04 2025 12:26:37 GMT-0500 (Central Daylight Time),1002910.0,A,fla,O,a,145,1,1265.7000000029802,1001644.299999997,7070,WL,C,11.0
7,36.98699998855591,immed,23013.00001144409,Fri Apr 04 2025 12:26:37 GMT-0500 (Central Daylight Time),1003608.3999999985,A,flag,O,g,688,1,1964.1000000014901,1001644.299999997,7070,WL,C,11.0
7,37.98799991607666,immed,22012.00008392334,Fri Apr 04 2025 12:26:37 GMT-0500 (Central Daylight Time),1004609.0,A,flagenter,O,enter,992,1,2964.7000000029802,1001644.299999997,7070,WL,C,11.0
7,38.30399990081787,immed,21696.00009918213,Fri Apr 04 2025 12:26:37 GMT-0500 (Central Daylight Time),1004925.200000003,A,d,O,d,301,1,316.0,1004609.200000003,7070,WL,C,12.0
7,38.48799991607666,immed,21512.00008392334,Fri Apr 04 2025 12:26:37 GMT-0500 (Central Daylight Time),1005108.799999997,A,do,O,o,169,1,499.59999999403954,1004609.200000003,7070,WL,C,12.0
7,38.63599991798401,immed,21364.00008201599,Fri Apr 04 2025 12:26:37 GMT-0500 (Central Daylight Time),1005257.799999997,A,doc,O,c,127,1,648.5999999940395,1004609.200000003,7070,WL,C,12.0
7,38.88599991798401,immed,21114.00008201599,Fri Apr 04 2025 12:26:37 GMT-0500 (Central Daylight Time),1005506.799999997,A,doct,O,t,236,1,897.5999999940395,1004609.200000003,7070,WL,C,12.0
7,39.019999980926514,immed,20980.000019073486,Fri Apr 04 2025 12:26:37 GMT-0500 (Central Daylight Time),1005640.8999999985,A,docto,O,o,123,1,1031.6999999955297,1004609.200000003,7070,WL,C,12.0
7,39.169999837875366,immed,20830.000162124634,Fri Apr 04 2025 12:26:37 GMT-0500 (Central Daylight Time),1005791.200000003,A,doctor,O,r,140,1,1182.0,1004609.200000003,7070,WL,C,12.0
7,40.8529999256134,immed,19147.000074386597,Fri Apr 04 2025 12:26:37 GMT-0500 (Central Daylight Time),1007474.200000003,A,doctorenter,O,enter,1670,1,2865.0,1004609.200000003,7070,WL,C,12.0
7,49.66599988937378,immed,10334.00011062622,Fri Apr 04 2025 12:26:37 GMT-0500 (Central Daylight Time),1016288.0,A,s,O,s,8805,1,8813.5,1007474.5,7070,WL,C,13.0
7,49.93299984931946,immed,10067.000150680542,Fri Apr 04 2025 12:26:37 GMT-0500 (Central Daylight Time),1016555.0,A,sh,O,h,254,1,9080.5,1007474.5,7070,WL,C,13.0
7,50.514999866485596,immed,9485.000133514404,Fri Apr 04 2025 12:26:37 GMT-0500 (Central Daylight Time),1017136.8999999985,A,sho,O,o,570,1,9662.39999999851,1007474.5,7070,WL,C,13.0
7,50.61699986457825,immed,9383.000135421753,Fri Apr 04 2025 12:26:37 GMT-0500 (Central Daylight Time),1017238.700000003,A,shor,O,r,97,1,9764.20000000298,1007474.5,7070,WL,C,13.0
7,50.83199977874756,immed,9168.000221252441,Fri Apr 04 2025 12:26:37 GMT-0500 (Central Daylight Time),1017454.200000003,A,shore,O,e,199,1,9979.70000000298,1007474.5,7070,WL,C,13.0
7,51.74799990653992,immed,8252.000093460083,Fri Apr 04 2025 12:26:37 GMT-0500 (Central Daylight Time),1018369.700000003,A,shoreenter,O,enter,902,1,10895.20000000298,1007474.5,7070,WL,C,13.0
7,54.014999866485596,immed,5985.000133514404,Fri Apr 04 2025 12:26:37 GMT-0500 (Central Daylight Time),1020636.799999997,A,n,O,n,2262,1,2266.7999999970198,1018370.0,7070,WL,C,14.0
7,54.96499991416931,immed,5035.0000858306885,Fri Apr 04 2025 12:26:37 GMT-0500 (Central Daylight Time),1021586.799999997,A,na,O,a,929,1,3216.7999999970198,1018370.0,7070,WL,C,14.0
7,55.41599988937378,immed,4584.000110626221,Fri Apr 04 2025 12:26:37 GMT-0500 (Central Daylight Time),1022037.8999999985,A,nai,O,i,444,1,3667.89999999851,1018370.0,7070,WL,C,14.0
7,56.29699993133545,immed,3703.000068664551,Fri Apr 04 2025 12:26:37 GMT-0500 (Central Daylight Time),1022918.5,A,nail,O,l,864,1,4548.5,1018370.0,7070,WL,C,14.0
7,57.145999908447266,immed,2854.0000915527344,Fri Apr 04 2025 12:26:37 GMT-0500 (Central Daylight Time),1023767.700000003,A,nailenter,O,enter,838,1,5397.70000000298,1018370.0,7070,WL,C,14.0
7,60.01299977302551,immed,-12.999773025512695,Fri Apr 04 2025 12:26:37 GMT-0500 (Central Daylight Time),1026634.799999997,A,None,O,None,2863,1,2866.89999999851,1023767.8999999985,7070,WL,C,15.0
