acc_sum,block,block_c,change,condition,correct,correct_response,datetime,endtime,face,project,response,response_time,row_sel,session_number,start_end,starttime,subject_id,task,task_vers,trial
0,prac,1,,1-Back,,,Wed Apr 02 2025 12:01:30 GMT-0500 (Central Daylight Time),,005_o_f_d_a.png,O,space,10748,1,1,,,7104,VNB,B,0
0,prac,1,0.0,1-Back,0,m,Wed Apr 02 2025 12:01:30 GMT-0500 (Central Daylight Time),153399.10000002384,020_y_f_n_a.png,O,z,1955,2,1,2822.2999999523163,150576.80000007153,7104,VNB,B,1
0,prac,1,0.0,1-Back,0,m,Wed Apr 02 2025 12:01:30 GMT-0500 (Central Daylight Time),156280.60000002384,007_m_m_h_a.png,O,None,2002,3,1,2873.2999999523163,153407.30000007153,7104,VNB,B,2
1,prac,1,0.0,1-Back,1,m,Wed Apr 02 2025 12:01:30 GMT-0500 (Central Daylight Time),157947.30000007153,016_y_m_d_a.png,O,m,780,4,1,1658.2000000476837,156289.10000002384,7104,VNB,B,3
2,prac,1,0.0,1-Back,1,m,Wed Apr 02 2025 12:01:30 GMT-0500 (Central Daylight Time),159946.90000009537,005_o_f_n_a.png,O,m,1123,5,1,1991.0,157955.90000009537,7104,VNB,B,4
2,prac,1,1.0,1-Back,0,z,Wed Apr 02 2025 12:01:30 GMT-0500 (Central Daylight Time),161794.5,016_y_m_n_a.png,O,m,963,6,1,1839.1999999284744,159955.30000007153,7104,VNB,B,5
3,prac,1,0.0,1-Back,1,m,Wed Apr 02 2025 12:01:30 GMT-0500 (Central Daylight Time),164012.5,004_o_m_h_a.png,O,m,1353,7,1,2213.6999999284744,161798.80000007153,7104,VNB,B,6
4,prac,1,0.0,1-Back,1,m,Wed Apr 02 2025 12:01:30 GMT-0500 (Central Daylight Time),165944.90000009537,011_m_f_d_a.png,O,m,1058,8,1,1923.4000000953674,164021.5,7104,VNB,B,7
4,prac,1,1.0,1-Back,0,z,Wed Apr 02 2025 12:01:30 GMT-0500 (Central Daylight Time),167877.60000002384,020_y_f_d_a.png,O,m,1073,9,1,1924.6000000238419,165953.0,7104,VNB,B,8
5,prac,1,0.0,1-Back,1,m,Wed Apr 02 2025 12:01:30 GMT-0500 (Central Daylight Time),170293.60000002384,007_m_m_n_a.png,O,m,1522,10,1,2406.899999976158,167886.70000004768,7104,VNB,B,9
6,prac,1,0.0,1-Back,1,m,Wed Apr 02 2025 12:01:30 GMT-0500 (Central Daylight Time),172593.40000009537,005_o_f_h_a.png,O,m,1416,11,1,2291.5,170301.90000009537,7104,VNB,B,10
7,prac,1,0.0,1-Back,1,m,Wed Apr 02 2025 12:01:30 GMT-0500 (Central Daylight Time),174575.10000002384,016_y_m_d_a.png,O,m,1093,12,1,1973.5,172601.60000002384,7104,VNB,B,11
0,test,1,0.0,1-Back,,,Wed Apr 02 2025 12:01:30 GMT-0500 (Central Daylight Time),174575.10000002384,020_y_f_d_a.png,O,space,8029,1,1,1973.5,172601.60000002384,7104,VNB,B,0
0,test,1,0.0,1-Back,0,m,Wed Apr 02 2025 12:01:30 GMT-0500 (Central Daylight Time),201766.30000007153,011_m_f_n_a.png,O,z,1092,2,1,2108.2000000476837,199658.10000002384,7104,VNB,B,1
1,test,1,0.0,1-Back,1,m,Wed Apr 02 2025 12:01:30 GMT-0500 (Central Daylight Time),203948.70000004768,004_o_m_h_a.png,O,m,1152,3,1,2173.5,201775.20000004768,7104,VNB,B,2
2,test,1,1.0,1-Back,1,z,Wed Apr 02 2025 12:01:30 GMT-0500 (Central Daylight Time),206015.40000009537,007_m_m_h_a.png,O,z,1049,4,1,2057.3000000715256,203958.10000002384,7104,VNB,B,3
3,test,1,0.0,1-Back,1,m,Wed Apr 02 2025 12:01:30 GMT-0500 (Central Daylight Time),208081.5,005_o_f_n_a.png,O,m,1046,5,1,2056.899999976158,206024.60000002384,7104,VNB,B,4
3,test,1,0.0,1-Back,0,m,Wed Apr 02 2025 12:01:30 GMT-0500 (Central Daylight Time),210246.90000009537,016_y_m_d_a.png,O,z,1135,6,1,2158.3000000715256,208088.60000002384,7104,VNB,B,5
4,test,1,1.0,1-Back,1,z,Wed Apr 02 2025 12:01:30 GMT-0500 (Central Daylight Time),212579.60000002384,011_m_f_d_a.png,O,z,1310,7,1,2324.6999999284744,210254.90000009537,7104,VNB,B,6
5,test,1,0.0,1-Back,1,m,Wed Apr 02 2025 12:01:30 GMT-0500 (Central Daylight Time),214580.20000004768,020_y_f_h_a.png,O,m,976,8,1,1993.0,212587.20000004768,7104,VNB,B,7
6,test,1,0.0,1-Back,1,m,Wed Apr 02 2025 12:01:30 GMT-0500 (Central Daylight Time),216611.20000004768,004_o_m_n_a.png,O,m,1011,9,1,2024.7000000476837,214586.5,7104,VNB,B,8
7,test,1,0.0,1-Back,1,m,Wed Apr 02 2025 12:01:30 GMT-0500 (Central Daylight Time),218627.80000007153,016_y_m_h_a.png,O,m,986,10,1,2008.2000000476837,216619.60000002384,7104,VNB,B,9
8,test,1,0.0,1-Back,1,m,Wed Apr 02 2025 12:01:30 GMT-0500 (Central Daylight Time),220576.40000009537,004_o_m_d_a.png,O,m,930,11,1,1941.4000000953674,218635.0,7104,VNB,B,10
9,test,1,1.0,1-Back,1,z,Wed Apr 02 2025 12:01:30 GMT-0500 (Central Daylight Time),222675.20000004768,005_o_f_d_a.png,O,z,1078,12,1,2092.899999976158,220582.30000007153,7104,VNB,B,11
9,test,1,0.0,1-Back,0,m,Wed Apr 02 2025 12:01:30 GMT-0500 (Central Daylight Time),224875.30000007153,007_m_m_n_a.png,O,z,1170,13,1,2192.600000023842,222682.70000004768,7104,VNB,B,12
10,test,1,1.0,1-Back,1,z,Wed Apr 02 2025 12:01:30 GMT-0500 (Central Daylight Time),226924.90000009537,020_y_f_n_a.png,O,z,1018,14,1,2041.2000000476837,224883.70000004768,7104,VNB,B,13
10,test,1,0.0,1-Back,0,m,Wed Apr 02 2025 12:01:30 GMT-0500 (Central Daylight Time),229957.60000002384,011_m_f_h_a.png,O,None,2015,15,1,3024.7999999523163,226932.80000007153,7104,VNB,B,14
10,test,1,0.0,1-Back,0,m,Wed Apr 02 2025 12:01:30 GMT-0500 (Central Daylight Time),232006.10000002384,007_m_m_d_a.png,O,z,1016,16,1,2040.6999999284744,229965.40000009537,7104,VNB,B,15
10,test,1,0.0,1-Back,0,m,Wed Apr 02 2025 12:01:30 GMT-0500 (Central Daylight Time),234354.30000007153,016_y_m_n_a.png,O,z,1318,17,1,2339.2000000476837,232015.10000002384,7104,VNB,B,16
11,test,1,0.0,1-Back,1,m,Wed Apr 02 2025 12:01:30 GMT-0500 (Central Daylight Time),236570.90000009537,005_o_f_h_a.png,O,m,1193,18,1,2209.8000000715256,234361.10000002384,7104,VNB,B,17
0,test,2,0.0,1-Back,,,Wed Apr 02 2025 12:01:30 GMT-0500 (Central Daylight Time),236570.90000009537,016_y_m_n_a.png,O,space,2987,1,1,2209.8000000715256,234361.10000002384,7104,VNB,B,0
0,test,2,0.0,1-Back,0,m,Wed Apr 02 2025 12:01:30 GMT-0500 (Central Daylight Time),244185.0,020_y_f_h_a.png,O,z,1570,2,1,2588.899999976158,241596.10000002384,7104,VNB,B,1
1,test,2,1.0,1-Back,1,m,Wed Apr 02 2025 12:01:30 GMT-0500 (Central Daylight Time),247152.5,004_o_m_n_a.png,O,m,1949,3,1,2959.2999999523163,244193.20000004768,7104,VNB,B,2
1,test,2,0.0,1-Back,0,m,Wed Apr 02 2025 12:01:30 GMT-0500 (Central Daylight Time),249033.20000004768,011_m_f_d_a.png,O,z,852,4,1,1872.7999999523163,247160.40000009537,7104,VNB,B,3
2,test,2,0.0,1-Back,1,z,Wed Apr 02 2025 12:01:30 GMT-0500 (Central Daylight Time),251150.60000002384,007_m_m_d_a.png,O,z,1084,5,1,2109.399999976158,249041.20000004768,7104,VNB,B,4
3,test,2,0.0,1-Back,1,m,Wed Apr 02 2025 12:01:30 GMT-0500 (Central Daylight Time),253117.10000002384,016_y_m_h_a.png,O,m,934,6,1,1959.8999999761581,251157.20000004768,7104,VNB,B,5
4,test,2,1.0,1-Back,1,z,Wed Apr 02 2025 12:01:30 GMT-0500 (Central Daylight Time),255532.0,005_o_f_h_a.png,O,z,1393,7,1,2407.899999976158,253124.10000002384,7104,VNB,B,6
5,test,2,0.0,1-Back,1,m,Wed Apr 02 2025 12:01:30 GMT-0500 (Central Daylight Time),257650.20000004768,011_m_f_n_a.png,O,m,1083,8,1,2110.7999999523163,255539.40000009537,7104,VNB,B,7
5,test,2,0.0,1-Back,0,m,Wed Apr 02 2025 12:01:30 GMT-0500 (Central Daylight Time),259746.90000009537,020_y_f_d_a.png,O,z,1078,9,1,2088.600000023842,257658.30000007153,7104,VNB,B,8
5,test,2,0.0,1-Back,0,m,Wed Apr 02 2025 12:01:30 GMT-0500 (Central Daylight Time),261862.5,007_m_m_n_a.png,O,z,1090,10,1,2110.5,259752.0,7104,VNB,B,9
6,test,2,1.0,1-Back,1,m,Wed Apr 02 2025 12:01:30 GMT-0500 (Central Daylight Time),263829.3000000715,011_m_f_h_a.png,O,m,942,11,1,1959.6000000238419,261869.70000004768,7104,VNB,B,10
7,test,2,0.0,1-Back,1,z,Wed Apr 02 2025 12:01:30 GMT-0500 (Central Daylight Time),265930.2000000477,004_o_m_h_a.png,O,z,1082,12,1,2093.2999999523163,263836.90000009537,7104,VNB,B,11
8,test,2,0.0,1-Back,1,m,Wed Apr 02 2025 12:01:30 GMT-0500 (Central Daylight Time),267977.90000009537,016_y_m_d_a.png,O,m,1028,13,1,2039.1000000238419,265938.8000000715,7104,VNB,B,12
8,test,2,0.0,1-Back,0,m,Wed Apr 02 2025 12:01:30 GMT-0500 (Central Daylight Time),270393.60000002384,005_o_f_n_a.png,O,z,1389,14,1,2408.1999999284744,267985.40000009537,7104,VNB,B,13
9,test,2,0.0,1-Back,1,z,Wed Apr 02 2025 12:01:30 GMT-0500 (Central Daylight Time),272393.10000002384,020_y_f_n_a.png,O,z,980,15,1,1991.6000000238419,270401.5,7104,VNB,B,14
10,test,2,1.0,1-Back,1,m,Wed Apr 02 2025 12:01:30 GMT-0500 (Central Daylight Time),274327.8000000715,007_m_m_h_a.png,O,m,917,16,1,1930.2000000476837,272397.60000002384,7104,VNB,B,15
11,test,2,0.0,1-Back,1,m,Wed Apr 02 2025 12:01:30 GMT-0500 (Central Daylight Time),276342.0,005_o_f_d_a.png,O,m,993,17,1,2008.7999999523163,274333.2000000477,7104,VNB,B,16
12,test,2,1.0,1-Back,1,z,Wed Apr 02 2025 12:01:30 GMT-0500 (Central Daylight Time),278391.5,004_o_m_d_a.png,O,z,1023,18,1,2043.0999999046326,276348.40000009537,7104,VNB,B,17
0,test,3,1.0,1-Back,,,Wed Apr 02 2025 12:01:30 GMT-0500 (Central Daylight Time),278391.5,005_o_f_h_a.png,O,space,3151,1,1,2043.0999999046326,276348.40000009537,7104,VNB,B,0
1,test,3,0.0,1-Back,1,m,Wed Apr 02 2025 12:01:30 GMT-0500 (Central Daylight Time),286055.7000000477,011_m_f_d_a.png,O,m,1355,2,1,2372.2000000476837,283683.5,7104,VNB,B,1
1,test,3,1.0,1-Back,0,m,Wed Apr 02 2025 12:01:30 GMT-0500 (Central Daylight Time),288254.3000000715,007_m_m_n_a.png,O,z,1166,3,1,2191.5,286062.8000000715,7104,VNB,B,2
2,test,3,0.0,1-Back,1,z,Wed Apr 02 2025 12:01:30 GMT-0500 (Central Daylight Time),290273.60000002384,005_o_f_n_a.png,O,z,1001,4,1,2011.3999999761581,288262.2000000477,7104,VNB,B,3
2,test,3,1.0,1-Back,0,m,Wed Apr 02 2025 12:01:30 GMT-0500 (Central Daylight Time),292154.2000000477,004_o_m_d_a.png,O,z,852,5,1,1872.7000000476837,290281.5,7104,VNB,B,4
3,test,3,0.0,1-Back,1,m,Wed Apr 02 2025 12:01:30 GMT-0500 (Central Daylight Time),294287.0,020_y_f_h_a.png,O,m,1107,6,1,2125.1999999284744,292161.8000000715,7104,VNB,B,5
4,test,3,0.0,1-Back,1,z,Wed Apr 02 2025 12:01:30 GMT-0500 (Central Daylight Time),296270.10000002384,016_y_m_h_a.png,O,z,951,7,1,1974.8999999761581,294295.2000000477,7104,VNB,B,6
5,test,3,0.0,1-Back,1,m,Wed Apr 02 2025 12:01:30 GMT-0500 (Central Daylight Time),298468.8000000715,011_m_f_n_a.png,O,m,1176,8,1,2191.0,296277.8000000715,7104,VNB,B,7
5,test,3,0.0,1-Back,0,m,Wed Apr 02 2025 12:01:30 GMT-0500 (Central Daylight Time),300967.90000009537,020_y_f_d_a.png,O,z,1464,9,1,2491.2000000476837,298476.7000000477,7104,VNB,B,8
5,test,3,1.0,1-Back,0,m,Wed Apr 02 2025 12:01:30 GMT-0500 (Central Daylight Time),302949.60000002384,004_o_m_n_a.png,O,z,957,10,1,1974.1000000238419,300975.5,7104,VNB,B,9
6,test,3,0.0,1-Back,1,m,Wed Apr 02 2025 12:01:30 GMT-0500 (Central Daylight Time),305065.90000009537,007_m_m_h_a.png,O,m,1085,11,1,2107.9000000953674,302958.0,7104,VNB,B,10
7,test,3,0.0,1-Back,1,z,Wed Apr 02 2025 12:01:30 GMT-0500 (Central Daylight Time),307266.10000002384,011_m_f_h_a.png,O,z,1183,12,1,2192.0,305074.10000002384,7104,VNB,B,11
8,test,3,1.0,1-Back,1,m,Wed Apr 02 2025 12:01:30 GMT-0500 (Central Daylight Time),309331.60000002384,005_o_f_d_a.png,O,m,1036,13,1,2057.399999976158,307274.2000000477,7104,VNB,B,12
9,test,3,0.0,1-Back,1,z,Wed Apr 02 2025 12:01:30 GMT-0500 (Central Daylight Time),311680.40000009537,007_m_m_d_a.png,O,z,1321,14,1,2341.3000000715256,309339.10000002384,7104,VNB,B,13
9,test,3,0.0,1-Back,0,m,Wed Apr 02 2025 12:01:30 GMT-0500 (Central Daylight Time),313614.0,016_y_m_n_a.png,O,z,899,15,1,1926.0999999046326,311687.90000009537,7104,VNB,B,14
10,test,3,1.0,1-Back,1,m,Wed Apr 02 2025 12:01:30 GMT-0500 (Central Daylight Time),315629.3000000715,004_o_m_h_a.png,O,m,991,16,1,2006.1000000238419,313623.2000000477,7104,VNB,B,15
10,test,3,0.0,1-Back,0,m,Wed Apr 02 2025 12:01:30 GMT-0500 (Central Daylight Time),317778.5,016_y_m_d_a.png,O,z,1127,17,1,2142.5999999046326,315635.90000009537,7104,VNB,B,16
11,test,3,1.0,1-Back,1,m,Wed Apr 02 2025 12:01:30 GMT-0500 (Central Daylight Time),320345.0,020_y_f_n_a.png,O,m,1538,18,1,2557.5999999046326,317787.40000009537,7104,VNB,B,17
0,test,4,1.0,1-Back,,,Wed Apr 02 2025 12:01:30 GMT-0500 (Central Daylight Time),320345.0,007_m_m_d_a.png,O,space,5447,1,1,2557.5999999046326,317787.40000009537,7104,VNB,B,0
1,test,4,0.0,1-Back,1,z,Wed Apr 02 2025 12:01:30 GMT-0500 (Central Daylight Time),329725.3000000715,004_o_m_d_a.png,O,z,884,2,1,1908.3999999761581,327816.90000009537,7104,VNB,B,1
2,test,4,0.0,1-Back,1,m,Wed Apr 02 2025 12:01:30 GMT-0500 (Central Daylight Time),331777.5,016_y_m_h_a.png,O,m,1019,3,1,2043.5999999046326,329733.90000009537,7104,VNB,B,2
2,test,4,0.0,1-Back,0,m,Wed Apr 02 2025 12:01:30 GMT-0500 (Central Daylight Time),334240.7000000477,011_m_f_n_a.png,O,z,1439,4,1,2460.600000023842,331780.10000002384,7104,VNB,B,3
3,test,4,1.0,1-Back,1,m,Wed Apr 02 2025 12:01:30 GMT-0500 (Central Daylight Time),337237.10000002384,005_o_f_h_a.png,O,m,1970,5,1,2987.899999976158,334249.2000000477,7104,VNB,B,4
4,test,4,0.0,1-Back,1,m,Wed Apr 02 2025 12:01:30 GMT-0500 (Central Daylight Time),339689.60000002384,007_m_m_n_a.png,O,m,1422,6,1,2449.6999999284744,337239.90000009537,7104,VNB,B,5
4,test,4,0.0,1-Back,0,m,Wed Apr 02 2025 12:01:30 GMT-0500 (Central Daylight Time),342105.40000009537,016_y_m_d_a.png,O,z,1399,7,1,2408.600000023842,339696.8000000715,7104,VNB,B,6
5,test,4,1.0,1-Back,1,z,Wed Apr 02 2025 12:01:30 GMT-0500 (Central Daylight Time),344122.8000000715,020_y_f_d_a.png,O,z,989,8,1,2010.6000000238419,342112.2000000477,7104,VNB,B,7
6,test,4,0.0,1-Back,1,m,Wed Apr 02 2025 12:01:30 GMT-0500 (Central Daylight Time),346852.60000002384,011_m_f_h_a.png,O,m,1708,9,1,2722.600000023842,344130.0,7104,VNB,B,8
7,test,4,0.0,1-Back,1,z,Wed Apr 02 2025 12:01:30 GMT-0500 (Central Daylight Time),349036.10000002384,004_o_m_h_a.png,O,z,1160,10,1,2175.7999999523163,346860.3000000715,7104,VNB,B,9
8,test,4,1.0,1-Back,1,m,Wed Apr 02 2025 12:01:30 GMT-0500 (Central Daylight Time),351251.10000002384,005_o_f_n_a.png,O,m,1186,11,1,2206.899999976158,349044.2000000477,7104,VNB,B,10
8,test,4,0.0,1-Back,0,m,Wed Apr 02 2025 12:01:30 GMT-0500 (Central Daylight Time),353417.7000000477,011_m_f_d_a.png,O,z,1148,12,1,2160.399999976158,351257.3000000715,7104,VNB,B,11
8,test,4,0.0,1-Back,0,m,Wed Apr 02 2025 12:01:30 GMT-0500 (Central Daylight Time),355367.3000000715,020_y_f_n_a.png,O,z,923,13,1,1942.8999999761581,353424.40000009537,7104,VNB,B,12
8,test,4,0.0,1-Back,0,m,Wed Apr 02 2025 12:01:30 GMT-0500 (Central Daylight Time),357317.10000002384,005_o_f_d_a.png,O,z,926,14,1,1942.3999999761581,355374.7000000477,7104,VNB,B,13
9,test,4,0.0,1-Back,1,m,Wed Apr 02 2025 12:01:30 GMT-0500 (Central Daylight Time),359448.3000000715,020_y_f_h_a.png,O,m,1113,15,1,2124.0,357324.3000000715,7104,VNB,B,14
10,test,4,1.0,1-Back,1,z,Wed Apr 02 2025 12:01:30 GMT-0500 (Central Daylight Time),361948.2000000477,007_m_m_h_a.png,O,z,1477,16,1,2492.7000000476837,359455.5,7104,VNB,B,15
11,test,4,0.0,1-Back,1,m,Wed Apr 02 2025 12:01:30 GMT-0500 (Central Daylight Time),364065.40000009537,004_o_m_n_a.png,O,m,1097,17,1,2110.0,361955.40000009537,7104,VNB,B,16
12,test,4,1.0,1-Back,1,z,Wed Apr 02 2025 12:01:30 GMT-0500 (Central Daylight Time),366045.2000000477,016_y_m_n_a.png,O,z,957,18,1,1973.1000000238419,364072.10000002384,7104,VNB,B,17
0,test,5,1.0,1-Back,,,Wed Apr 02 2025 12:01:30 GMT-0500 (Central Daylight Time),366045.2000000477,004_o_m_n_a.png,O,space,2202,1,1,1973.1000000238419,364072.10000002384,7104,VNB,B,0
1,test,5,1.0,1-Back,1,m,Wed Apr 02 2025 12:01:30 GMT-0500 (Central Daylight Time),372810.7000000477,005_o_f_h_a.png,O,m,1526,2,1,2539.2999999523163,370271.40000009537,7104,VNB,B,1
2,test,5,0.0,1-Back,1,m,Wed Apr 02 2025 12:01:30 GMT-0500 (Central Daylight Time),374992.7000000477,016_y_m_d_a.png,O,m,1153,3,1,2175.100000023842,372817.60000002384,7104,VNB,B,2
3,test,5,0.0,1-Back,1,z,Wed Apr 02 2025 12:01:30 GMT-0500 (Central Daylight Time),376860.0,004_o_m_d_a.png,O,z,836,4,1,1859.3999999761581,375000.60000002384,7104,VNB,B,3
4,test,5,0.0,1-Back,1,m,Wed Apr 02 2025 12:01:30 GMT-0500 (Central Daylight Time),379026.5,011_m_f_h_a.png,O,m,1146,5,1,2159.0999999046326,376867.40000009537,7104,VNB,B,4
5,test,5,0.0,1-Back,1,m,Wed Apr 02 2025 12:01:30 GMT-0500 (Central Daylight Time),381691.3000000715,020_y_f_n_a.png,O,m,1636,6,1,2657.600000023842,379033.7000000477,7104,VNB,B,5
6,test,5,1.0,1-Back,1,z,Wed Apr 02 2025 12:01:30 GMT-0500 (Central Daylight Time),383673.40000009537,005_o_f_n_a.png,O,z,961,7,1,1975.0,381698.40000009537,7104,VNB,B,6
6,test,5,0.0,1-Back,0,m,Wed Apr 02 2025 12:01:30 GMT-0500 (Central Daylight Time),385609.10000002384,011_m_f_d_a.png,O,z,917,8,1,1930.3999999761581,383678.7000000477,7104,VNB,B,7
7,test,5,0.0,1-Back,1,m,Wed Apr 02 2025 12:01:30 GMT-0500 (Central Daylight Time),387591.40000009537,016_y_m_h_a.png,O,m,959,9,1,1976.1000000238419,385615.3000000715,7104,VNB,B,8
8,test,5,0.0,1-Back,1,m,Wed Apr 02 2025 12:01:30 GMT-0500 (Central Daylight Time),390023.5,020_y_f_d_a.png,O,m,1415,10,1,2425.5,387598.0,7104,VNB,B,9
8,test,5,0.0,1-Back,0,m,Wed Apr 02 2025 12:01:30 GMT-0500 (Central Daylight Time),392223.40000009537,007_m_m_n_a.png,O,z,1183,11,1,2195.8000000715256,390027.60000002384,7104,VNB,B,10
9,test,5,1.0,1-Back,1,z,Wed Apr 02 2025 12:01:30 GMT-0500 (Central Daylight Time),394238.90000009537,011_m_f_n_a.png,O,z,984,12,1,2009.2000000476837,392229.7000000477,7104,VNB,B,11
10,test,5,0.0,1-Back,1,m,Wed Apr 02 2025 12:01:30 GMT-0500 (Central Daylight Time),396321.10000002384,004_o_m_h_a.png,O,m,1056,13,1,2075.2999999523163,394245.8000000715,7104,VNB,B,12
11,test,5,0.0,1-Back,1,z,Wed Apr 02 2025 12:01:30 GMT-0500 (Central Daylight Time),398768.60000002384,007_m_m_h_a.png,O,z,1420,14,1,2441.399999976158,396327.2000000477,7104,VNB,B,13
12,test,5,1.0,1-Back,1,m,Wed Apr 02 2025 12:01:30 GMT-0500 (Central Daylight Time),400902.2000000477,005_o_f_d_a.png,O,m,1116,15,1,2127.7000000476837,398774.5,7104,VNB,B,14
12,test,5,0.0,1-Back,0,m,Wed Apr 02 2025 12:01:30 GMT-0500 (Central Daylight Time),402934.8000000715,016_y_m_n_a.png,O,z,1006,16,1,2027.8999999761581,400906.90000009537,7104,VNB,B,15
13,test,5,0.0,1-Back,1,m,Wed Apr 02 2025 12:01:30 GMT-0500 (Central Daylight Time),405001.2000000477,020_y_f_h_a.png,O,m,1037,17,1,2060.100000023842,402941.10000002384,7104,VNB,B,16
13,test,5,0.0,1-Back,0,m,Wed Apr 02 2025 12:01:30 GMT-0500 (Central Daylight Time),407133.7000000477,007_m_m_d_a.png,O,z,1108,18,1,2124.899999976158,405008.8000000715,7104,VNB,B,17
0,prac,1,0.0,2-Back,,,Wed Apr 02 2025 12:01:30 GMT-0500 (Central Daylight Time),407133.7000000477,011_m_f_n_a.png,O,space,6263,1,1,2124.899999976158,405008.8000000715,7104,VNB,B,0
0,prac,1,0.0,2-Back,,,Wed Apr 02 2025 12:01:30 GMT-0500 (Central Daylight Time),407133.7000000477,005_o_f_h_a.png,O,space,6263,2,1,2124.899999976158,405008.8000000715,7104,VNB,B,0
0,prac,1,0.0,2-Back,0,m,Wed Apr 02 2025 12:01:30 GMT-0500 (Central Daylight Time),525729.1000000238,004_o_m_d_a.png,O,z,1005,3,1,1862.2999999523163,523866.8000000715,7104,VNB,B,1
0,prac,1,1.0,2-Back,0,z,Wed Apr 02 2025 12:01:30 GMT-0500 (Central Daylight Time),528012.9000000954,007_m_m_h_a.png,O,m,1382,4,1,2274.8000000715256,525738.1000000238,7104,VNB,B,2
0,prac,1,0.0,2-Back,0,m,Wed Apr 02 2025 12:01:30 GMT-0500 (Central Daylight Time),530711.1000000238,020_y_f_n_a.png,O,z,1827,5,1,2690.1999999284744,528020.9000000954,7104,VNB,B,3
0,prac,1,1.0,2-Back,0,z,Wed Apr 02 2025 12:01:30 GMT-0500 (Central Daylight Time),532679.2000000477,004_o_m_h_a.png,O,m,1181,6,1,1958.2000000476837,530721.0,7104,VNB,B,4
1,prac,1,1.0,2-Back,1,z,Wed Apr 02 2025 12:01:30 GMT-0500 (Central Daylight Time),534759.8000000715,016_y_m_n_a.png,O,z,1203,7,1,2076.2000000476837,532683.6000000238,7104,VNB,B,5
1,prac,1,0.0,2-Back,0,m,Wed Apr 02 2025 12:01:30 GMT-0500 (Central Daylight Time),536743.3000000715,011_m_f_d_a.png,O,z,1101,8,1,1974.6000000238419,534768.7000000477,7104,VNB,B,6
2,prac,1,0.0,2-Back,1,m,Wed Apr 02 2025 12:01:30 GMT-0500 (Central Daylight Time),538560.4000000954,005_o_f_d_a.png,O,m,940,9,1,1807.7000000476837,536752.7000000477,7104,VNB,B,7
3,prac,1,0.0,2-Back,1,m,Wed Apr 02 2025 12:01:30 GMT-0500 (Central Daylight Time),540441.8000000715,007_m_m_h_a.png,O,m,1099,10,1,1871.3999999761581,538570.4000000954,7104,VNB,B,8
4,prac,1,1.0,2-Back,1,z,Wed Apr 02 2025 12:01:30 GMT-0500 (Central Daylight Time),542473.3000000715,020_y_f_d_a.png,O,z,1159,11,1,2023.0,540450.3000000715,7104,VNB,B,9
5,prac,1,0.0,2-Back,1,m,Wed Apr 02 2025 12:01:30 GMT-0500 (Central Daylight Time),544789.6000000238,004_o_m_n_a.png,O,m,1429,12,1,2306.0,542483.6000000238,7104,VNB,B,10
0,prac,2,0.0,2-Back,,,Wed Apr 02 2025 12:01:30 GMT-0500 (Central Daylight Time),544789.6000000238,011_m_f_n_a.png,O,a,4146,1,1,2306.0,542483.6000000238,7104,VNB,B,0
0,prac,2,0.0,2-Back,,,Wed Apr 02 2025 12:01:30 GMT-0500 (Central Daylight Time),544789.6000000238,005_o_f_h_a.png,O,a,4146,2,1,2306.0,542483.6000000238,7104,VNB,B,0
0,prac,2,0.0,2-Back,0,m,Wed Apr 02 2025 12:01:30 GMT-0500 (Central Daylight Time),556687.3000000715,004_o_m_d_a.png,O,z,1621,3,1,2477.0,554210.3000000715,7104,VNB,B,1
0,prac,2,1.0,2-Back,0,z,Wed Apr 02 2025 12:01:30 GMT-0500 (Central Daylight Time),559168.4000000954,007_m_m_h_a.png,O,m,1703,4,1,2472.4000000953674,556696.0,7104,VNB,B,2
1,prac,2,0.0,2-Back,1,m,Wed Apr 02 2025 12:01:30 GMT-0500 (Central Daylight Time),561535.4000000954,020_y_f_n_a.png,O,m,1498,5,1,2360.8000000715256,559174.6000000238,7104,VNB,B,3
1,prac,2,1.0,2-Back,0,z,Wed Apr 02 2025 12:01:30 GMT-0500 (Central Daylight Time),563618.5,004_o_m_h_a.png,O,m,1222,6,1,2072.6999999284744,561545.8000000715,7104,VNB,B,4
1,prac,2,1.0,2-Back,0,z,Wed Apr 02 2025 12:01:30 GMT-0500 (Central Daylight Time),565998.9000000954,016_y_m_n_a.png,O,m,1491,7,1,2372.3000000715256,563626.6000000238,7104,VNB,B,5
1,prac,2,0.0,2-Back,0,m,Wed Apr 02 2025 12:01:30 GMT-0500 (Central Daylight Time),567817.0,011_m_f_d_a.png,O,z,909,8,1,1811.2999999523163,566005.7000000477,7104,VNB,B,6
2,prac,2,0.0,2-Back,1,m,Wed Apr 02 2025 12:01:30 GMT-0500 (Central Daylight Time),569366.5,005_o_f_d_a.png,O,m,665,9,1,1540.5999999046326,567825.9000000954,7104,VNB,B,7
3,prac,2,0.0,2-Back,1,m,Wed Apr 02 2025 12:01:30 GMT-0500 (Central Daylight Time),571350.3000000715,007_m_m_h_a.png,O,m,1199,10,1,1975.2000000476837,569375.1000000238,7104,VNB,B,8
4,prac,2,1.0,2-Back,1,z,Wed Apr 02 2025 12:01:30 GMT-0500 (Central Daylight Time),573382.8000000715,020_y_f_d_a.png,O,z,1167,11,1,2023.2000000476837,571359.6000000238,7104,VNB,B,9
4,prac,2,0.0,2-Back,0,m,Wed Apr 02 2025 12:01:30 GMT-0500 (Central Daylight Time),575480.6000000238,004_o_m_n_a.png,O,z,1244,12,1,2089.5,573391.1000000238,7104,VNB,B,10
0,test,1,0.0,2-Back,,,Wed Apr 02 2025 12:01:30 GMT-0500 (Central Daylight Time),575480.6000000238,016_y_m_h_a.png,O,space,7131,1,1,2089.5,573391.1000000238,7104,VNB,B,0
0,test,1,0.0,2-Back,,,Wed Apr 02 2025 12:01:30 GMT-0500 (Central Daylight Time),575480.6000000238,005_o_f_n_a.png,O,space,7131,2,1,2089.5,573391.1000000238,7104,VNB,B,0
1,test,1,0.0,2-Back,1,z,Wed Apr 02 2025 12:01:30 GMT-0500 (Central Daylight Time),606304.4000000954,004_o_m_h_a.png,O,z,1032,3,1,2038.6000000238419,604265.8000000715,7104,VNB,B,1
2,test,1,0.0,2-Back,1,m,Wed Apr 02 2025 12:01:30 GMT-0500 (Central Daylight Time),608736.9000000954,011_m_f_d_a.png,O,m,1416,4,1,2427.4000000953674,606309.5,7104,VNB,B,2
2,test,1,1.0,2-Back,0,m,Wed Apr 02 2025 12:01:30 GMT-0500 (Central Daylight Time),611418.8000000715,016_y_m_n_a.png,O,z,1663,5,1,2673.100000023842,608745.7000000477,7104,VNB,B,3
2,test,1,0.0,2-Back,0,z,Wed Apr 02 2025 12:01:30 GMT-0500 (Central Daylight Time),614451.5,020_y_f_d_a.png,O,None,2016,6,1,3026.0999999046326,611425.4000000954,7104,VNB,B,4
2,test,1,0.0,2-Back,0,m,Wed Apr 02 2025 12:01:30 GMT-0500 (Central Daylight Time),617151.5,007_m_m_h_a.png,O,z,1666,7,1,2691.6999999284744,614459.8000000715,7104,VNB,B,5
3,test,1,1.0,2-Back,1,m,Wed Apr 02 2025 12:01:30 GMT-0500 (Central Daylight Time),619515.0,020_y_f_n_a.png,O,m,1344,8,1,2355.1999999284744,617159.8000000715,7104,VNB,B,6
4,test,1,0.0,2-Back,1,z,Wed Apr 02 2025 12:01:30 GMT-0500 (Central Daylight Time),622099.2000000477,005_o_f_h_a.png,O,z,1553,9,1,2576.2000000476837,619523.0,7104,VNB,B,7
5,test,1,0.0,2-Back,1,m,Wed Apr 02 2025 12:01:30 GMT-0500 (Central Daylight Time),624465.2000000477,004_o_m_d_a.png,O,m,1349,10,1,2357.899999976158,622107.3000000715,7104,VNB,B,8
5,test,1,1.0,2-Back,0,m,Wed Apr 02 2025 12:01:30 GMT-0500 (Central Daylight Time),626530.3000000715,007_m_m_d_a.png,O,z,1047,11,1,2061.600000023842,624468.7000000477,7104,VNB,B,9
5,test,1,0.0,2-Back,0,m,Wed Apr 02 2025 12:01:30 GMT-0500 (Central Daylight Time),629212.7000000477,011_m_f_n_a.png,O,z,1658,12,1,2673.899999976158,626538.8000000715,7104,VNB,B,10
6,test,1,0.0,2-Back,1,m,Wed Apr 02 2025 12:01:30 GMT-0500 (Central Daylight Time),631828.9000000954,020_y_f_h_a.png,O,m,1593,13,1,2608.8000000715256,629220.1000000238,7104,VNB,B,11
7,test,1,0.0,2-Back,1,z,Wed Apr 02 2025 12:01:30 GMT-0500 (Central Daylight Time),633877.8000000715,007_m_m_n_a.png,O,z,1016,14,1,2041.2000000476837,631836.6000000238,7104,VNB,B,12
8,test,1,0.0,2-Back,1,m,Wed Apr 02 2025 12:01:30 GMT-0500 (Central Daylight Time),636543.0,016_y_m_d_a.png,O,m,1646,15,1,2658.0,633885.0,7104,VNB,B,13
8,test,1,1.0,2-Back,0,m,Wed Apr 02 2025 12:01:30 GMT-0500 (Central Daylight Time),638709.7000000477,011_m_f_h_a.png,O,z,1142,16,1,2162.7999999523163,636546.9000000954,7104,VNB,B,14
8,test,1,0.0,2-Back,0,z,Wed Apr 02 2025 12:01:30 GMT-0500 (Central Daylight Time),641743.8000000715,005_o_f_d_a.png,O,None,2015,17,1,3025.5,638718.3000000715,7104,VNB,B,15
8,test,1,0.0,2-Back,0,m,Wed Apr 02 2025 12:01:30 GMT-0500 (Central Daylight Time),644392.1000000238,004_o_m_n_a.png,O,z,1633,18,1,2644.399999976158,641747.7000000477,7104,VNB,B,16
0,test,2,0.0,2-Back,,,Wed Apr 02 2025 12:01:30 GMT-0500 (Central Daylight Time),644392.1000000238,007_m_m_h_a.png,O,space,5958,1,1,2644.399999976158,641747.7000000477,7104,VNB,B,0
0,test,2,0.0,2-Back,,,Wed Apr 02 2025 12:01:30 GMT-0500 (Central Daylight Time),644392.1000000238,020_y_f_n_a.png,O,space,5958,2,1,2644.399999976158,641747.7000000477,7104,VNB,B,0
1,test,2,1.0,2-Back,1,z,Wed Apr 02 2025 12:01:30 GMT-0500 (Central Daylight Time),657620.7000000477,005_o_f_h_a.png,O,z,1010,3,1,2022.2000000476837,655598.5,7104,VNB,B,1
2,test,2,0.0,2-Back,1,m,Wed Apr 02 2025 12:01:30 GMT-0500 (Central Daylight Time),660205.8000000715,004_o_m_d_a.png,O,m,1551,4,1,2578.7000000476837,657627.1000000238,7104,VNB,B,2
2,test,2,0.0,2-Back,0,m,Wed Apr 02 2025 12:01:30 GMT-0500 (Central Daylight Time),663220.0,011_m_f_d_a.png,O,None,2001,5,1,3009.6999999284744,660210.3000000715,7104,VNB,B,3
2,test,2,0.0,2-Back,0,m,Wed Apr 02 2025 12:01:30 GMT-0500 (Central Daylight Time),665368.8000000715,016_y_m_h_a.png,O,z,1131,6,1,2140.100000023842,663228.7000000477,7104,VNB,B,4
2,test,2,0.0,2-Back,0,m,Wed Apr 02 2025 12:01:30 GMT-0500 (Central Daylight Time),667652.7000000477,005_o_f_n_a.png,O,z,1251,7,1,2279.0,665373.7000000477,7104,VNB,B,5
3,test,2,1.0,2-Back,1,z,Wed Apr 02 2025 12:01:30 GMT-0500 (Central Daylight Time),669632.4000000954,004_o_m_h_a.png,O,z,961,8,1,1973.6000000238419,667658.8000000715,7104,VNB,B,6
3,test,2,0.0,2-Back,0,m,Wed Apr 02 2025 12:01:30 GMT-0500 (Central Daylight Time),671934.9000000954,020_y_f_d_a.png,O,z,1276,9,1,2294.0,669640.9000000954,7104,VNB,B,7
4,test,2,0.0,2-Back,1,m,Wed Apr 02 2025 12:01:30 GMT-0500 (Central Daylight Time),674865.7000000477,016_y_m_d_a.png,O,m,1905,10,1,2924.0,671941.7000000477,7104,VNB,B,8
5,test,2,0.0,2-Back,1,m,Wed Apr 02 2025 12:01:30 GMT-0500 (Central Daylight Time),677398.4000000954,007_m_m_n_a.png,O,m,1508,11,1,2528.5,674869.9000000954,7104,VNB,B,9
5,test,2,0.0,2-Back,0,m,Wed Apr 02 2025 12:01:30 GMT-0500 (Central Daylight Time),679199.3000000715,011_m_f_h_a.png,O,z,784,12,1,1793.7000000476837,677405.6000000238,7104,VNB,B,10
5,test,2,1.0,2-Back,0,z,Wed Apr 02 2025 12:01:30 GMT-0500 (Central Daylight Time),682230.6000000238,004_o_m_n_a.png,O,None,2015,13,1,3027.0,679203.6000000238,7104,VNB,B,11
5,test,2,0.0,2-Back,0,m,Wed Apr 02 2025 12:01:30 GMT-0500 (Central Daylight Time),684613.0,005_o_f_d_a.png,O,z,1353,14,1,2375.2999999523163,682237.7000000477,7104,VNB,B,12
6,test,2,0.0,2-Back,1,m,Wed Apr 02 2025 12:01:30 GMT-0500 (Central Daylight Time),686661.2000000477,020_y_f_h_a.png,O,m,1023,15,1,2041.3999999761581,684619.8000000715,7104,VNB,B,13
7,test,2,0.0,2-Back,1,z,Wed Apr 02 2025 12:01:30 GMT-0500 (Central Daylight Time),689543.4000000954,007_m_m_d_a.png,O,z,1853,16,1,2872.8000000715256,686670.6000000238,7104,VNB,B,14
7,test,2,0.0,2-Back,0,m,Wed Apr 02 2025 12:01:30 GMT-0500 (Central Daylight Time),692210.5,016_y_m_n_a.png,O,z,1634,17,1,2660.6999999284744,689549.8000000715,7104,VNB,B,15
7,test,2,1.0,2-Back,0,m,Wed Apr 02 2025 12:01:30 GMT-0500 (Central Daylight Time),694492.9000000954,011_m_f_n_a.png,O,z,1260,18,1,2278.3000000715256,692214.6000000238,7104,VNB,B,16
0,test,3,1.0,2-Back,,,Wed Apr 02 2025 12:01:30 GMT-0500 (Central Daylight Time),694492.9000000954,004_o_m_n_a.png,O,space,3752,1,1,2278.3000000715256,692214.6000000238,7104,VNB,B,0
0,test,3,1.0,2-Back,,,Wed Apr 02 2025 12:01:30 GMT-0500 (Central Daylight Time),694492.9000000954,005_o_f_d_a.png,O,space,3752,2,1,2278.3000000715256,692214.6000000238,7104,VNB,B,0
1,test,3,0.0,2-Back,1,m,Wed Apr 02 2025 12:01:30 GMT-0500 (Central Daylight Time),705587.8000000715,020_y_f_h_a.png,O,m,1261,3,1,2272.5,703315.3000000715,7104,VNB,B,1
2,test,3,0.0,2-Back,1,z,Wed Apr 02 2025 12:01:30 GMT-0500 (Central Daylight Time),707620.1000000238,011_m_f_d_a.png,O,z,1010,4,1,2027.2999999523163,705592.8000000715,7104,VNB,B,2
2,test,3,1.0,2-Back,0,m,Wed Apr 02 2025 12:01:30 GMT-0500 (Central Daylight Time),709637.3000000715,016_y_m_n_a.png,O,z,984,5,1,2009.8999999761581,707627.4000000954,7104,VNB,B,3
2,test,3,0.0,2-Back,0,m,Wed Apr 02 2025 12:01:30 GMT-0500 (Central Daylight Time),711888.3000000715,004_o_m_h_a.png,O,z,1232,6,1,2242.3000000715256,709646.0,7104,VNB,B,4
2,test,3,0.0,2-Back,0,z,Wed Apr 02 2025 12:01:30 GMT-0500 (Central Daylight Time),714919.0,020_y_f_n_a.png,O,None,2015,7,1,3022.5999999046326,711896.4000000954,7104,VNB,B,5
3,test,3,1.0,2-Back,1,m,Wed Apr 02 2025 12:01:30 GMT-0500 (Central Daylight Time),717468.2000000477,007_m_m_d_a.png,O,m,1516,8,1,2541.100000023842,714927.1000000238,7104,VNB,B,6
3,test,3,0.0,2-Back,0,m,Wed Apr 02 2025 12:01:30 GMT-0500 (Central Daylight Time),719353.1000000238,016_y_m_d_a.png,O,z,867,9,1,1877.8999999761581,717475.2000000477,7104,VNB,B,7
4,test,3,0.0,2-Back,1,m,Wed Apr 02 2025 12:01:30 GMT-0500 (Central Daylight Time),721867.4000000954,005_o_f_h_a.png,O,m,1494,10,1,2507.8000000715256,719359.6000000238,7104,VNB,B,8
4,test,3,1.0,2-Back,0,m,Wed Apr 02 2025 12:01:30 GMT-0500 (Central Daylight Time),724899.7000000477,011_m_f_n_a.png,O,None,2015,11,1,3025.100000023842,721874.6000000238,7104,VNB,B,9
5,test,3,1.0,2-Back,1,z,Wed Apr 02 2025 12:01:30 GMT-0500 (Central Daylight Time),726731.8000000715,007_m_m_h_a.png,O,z,802,12,1,1822.3999999761581,724909.4000000954,7104,VNB,B,10
5,test,3,0.0,2-Back,0,m,Wed Apr 02 2025 12:01:30 GMT-0500 (Central Daylight Time),729482.1000000238,020_y_f_d_a.png,O,z,1723,13,1,2743.2999999523163,726738.8000000715,7104,VNB,B,11
6,test,3,0.0,2-Back,1,m,Wed Apr 02 2025 12:01:30 GMT-0500 (Central Daylight Time),731979.1000000238,005_o_f_n_a.png,O,m,1476,14,1,2488.600000023842,729490.5,7104,VNB,B,12
6,test,3,0.0,2-Back,0,z,Wed Apr 02 2025 12:01:30 GMT-0500 (Central Daylight Time),734712.9000000954,004_o_m_d_a.png,O,m,1715,15,1,2727.8000000715256,731985.1000000238,7104,VNB,B,13
6,test,3,1.0,2-Back,0,m,Wed Apr 02 2025 12:01:30 GMT-0500 (Central Daylight Time),736245.6000000238,011_m_f_h_a.png,O,z,508,16,1,1527.2999999523163,734718.3000000715,7104,VNB,B,14
6,test,3,0.0,2-Back,0,m,Wed Apr 02 2025 12:01:30 GMT-0500 (Central Daylight Time),738978.8000000715,007_m_m_n_a.png,O,z,1712,17,1,2726.600000023842,736252.2000000477,7104,VNB,B,15
7,test,3,0.0,2-Back,1,z,Wed Apr 02 2025 12:01:30 GMT-0500 (Central Daylight Time),741260.0,016_y_m_h_a.png,O,z,1260,18,1,2275.1999999284744,738984.8000000715,7104,VNB,B,16
0,test,4,0.0,2-Back,,,Wed Apr 02 2025 12:01:30 GMT-0500 (Central Daylight Time),741260.0,011_m_f_n_a.png,O,space,1817,1,1,2275.1999999284744,738984.8000000715,7104,VNB,B,0
0,test,4,0.0,2-Back,,,Wed Apr 02 2025 12:01:30 GMT-0500 (Central Daylight Time),741260.0,004_o_m_n_a.png,O,space,1817,2,1,2275.1999999284744,738984.8000000715,7104,VNB,B,0
1,test,4,1.0,2-Back,1,m,Wed Apr 02 2025 12:01:30 GMT-0500 (Central Daylight Time),750674.0,016_y_m_h_a.png,O,m,1336,3,1,2357.5999999046326,748316.4000000954,7104,VNB,B,1
1,test,4,1.0,2-Back,0,m,Wed Apr 02 2025 12:01:30 GMT-0500 (Central Daylight Time),753140.7000000477,005_o_f_d_a.png,O,z,1444,4,1,2459.399999976158,750681.3000000715,7104,VNB,B,2
1,test,4,0.0,2-Back,0,z,Wed Apr 02 2025 12:01:30 GMT-0500 (Central Daylight Time),755538.4000000954,004_o_m_h_a.png,O,m,1375,5,1,2392.3000000715256,753146.1000000238,7104,VNB,B,3
1,test,4,0.0,2-Back,0,m,Wed Apr 02 2025 12:01:30 GMT-0500 (Central Daylight Time),757621.8000000715,007_m_m_n_a.png,O,z,1058,6,1,2076.899999976158,755544.9000000954,7104,VNB,B,4
1,test,4,0.0,2-Back,0,m,Wed Apr 02 2025 12:01:30 GMT-0500 (Central Daylight Time),760655.8000000715,011_m_f_d_a.png,O,None,2017,7,1,3028.8000000715256,757627.0,7104,VNB,B,5
1,test,4,0.0,2-Back,0,z,Wed Apr 02 2025 12:01:30 GMT-0500 (Central Daylight Time),763219.5,020_y_f_n_a.png,O,m,1534,8,1,2556.0999999046326,760663.4000000954,7104,VNB,B,6
1,test,4,1.0,2-Back,0,m,Wed Apr 02 2025 12:01:30 GMT-0500 (Central Daylight Time),764804.7000000477,005_o_f_h_a.png,O,z,552,9,1,1579.5,763225.2000000477,7104,VNB,B,7
2,test,4,0.0,2-Back,1,m,Wed Apr 02 2025 12:01:30 GMT-0500 (Central Daylight Time),767401.0,007_m_m_h_a.png,O,m,1578,10,1,2589.5,764811.5,7104,VNB,B,8
3,test,4,0.0,2-Back,1,m,Wed Apr 02 2025 12:01:30 GMT-0500 (Central Daylight Time),769734.5,020_y_f_d_a.png,O,m,1307,11,1,2329.6999999284744,767404.8000000715,7104,VNB,B,9
4,test,4,0.0,2-Back,1,m,Wed Apr 02 2025 12:01:30 GMT-0500 (Central Daylight Time),772033.0,016_y_m_n_a.png,O,m,1270,12,1,2292.2999999523163,769740.7000000477,7104,VNB,B,10
5,test,4,0.0,2-Back,1,z,Wed Apr 02 2025 12:01:30 GMT-0500 (Central Daylight Time),774650.7000000477,004_o_m_d_a.png,O,z,1597,13,1,2612.7000000476837,772038.0,7104,VNB,B,11
5,test,4,1.0,2-Back,0,m,Wed Apr 02 2025 12:01:30 GMT-0500 (Central Daylight Time),776984.1000000238,011_m_f_h_a.png,O,z,1316,14,1,2330.2999999523163,774653.8000000715,7104,VNB,B,12
6,test,4,1.0,2-Back,1,m,Wed Apr 02 2025 12:01:30 GMT-0500 (Central Daylight Time),779200.3000000715,020_y_f_h_a.png,O,m,1200,15,1,2205.399999976158,776994.9000000954,7104,VNB,B,13
7,test,4,0.0,2-Back,1,m,Wed Apr 02 2025 12:01:30 GMT-0500 (Central Daylight Time),781348.9000000954,005_o_f_n_a.png,O,m,1126,16,1,2140.2000000476837,779208.7000000477,7104,VNB,B,14
8,test,4,0.0,2-Back,1,m,Wed Apr 02 2025 12:01:30 GMT-0500 (Central Daylight Time),783363.2000000477,016_y_m_d_a.png,O,m,992,17,1,2007.1000000238419,781356.1000000238,7104,VNB,B,15
8,test,4,1.0,2-Back,0,m,Wed Apr 02 2025 12:01:30 GMT-0500 (Central Daylight Time),785230.2000000477,007_m_m_d_a.png,O,z,850,18,1,1859.2999999523163,783370.9000000954,7104,VNB,B,16
0,test,5,1.0,2-Back,,,Wed Apr 02 2025 12:01:30 GMT-0500 (Central Daylight Time),785230.2000000477,020_y_f_d_a.png,O,space,1992,1,1,1859.2999999523163,783370.9000000954,7104,VNB,B,0
0,test,5,1.0,2-Back,,,Wed Apr 02 2025 12:01:30 GMT-0500 (Central Daylight Time),785230.2000000477,005_o_f_h_a.png,O,space,1992,2,1,1859.2999999523163,783370.9000000954,7104,VNB,B,0
1,test,5,1.0,2-Back,1,z,Wed Apr 02 2025 12:01:30 GMT-0500 (Central Daylight Time),794960.9000000954,004_o_m_d_a.png,O,z,1480,3,1,2492.7000000476837,792468.2000000477,7104,VNB,B,1
2,test,5,1.0,2-Back,1,m,Wed Apr 02 2025 12:01:30 GMT-0500 (Central Daylight Time),797243.3000000715,011_m_f_n_a.png,O,m,1262,4,1,2272.8000000715256,794970.5,7104,VNB,B,2
3,test,5,0.0,2-Back,1,m,Wed Apr 02 2025 12:01:30 GMT-0500 (Central Daylight Time),799608.3000000715,007_m_m_h_a.png,O,m,1338,5,1,2356.399999976158,797251.9000000954,7104,VNB,B,3
4,test,5,0.0,2-Back,1,z,Wed Apr 02 2025 12:01:30 GMT-0500 (Central Daylight Time),801910.0,020_y_f_n_a.png,O,z,1269,6,1,2295.0,799615.0,7104,VNB,B,4
4,test,5,0.0,2-Back,0,m,Wed Apr 02 2025 12:01:30 GMT-0500 (Central Daylight Time),804940.9000000954,005_o_f_d_a.png,O,None,2015,7,1,3024.100000023842,801916.8000000715,7104,VNB,B,5
4,test,5,0.0,2-Back,0,m,Wed Apr 02 2025 12:01:30 GMT-0500 (Central Daylight Time),806673.1000000238,004_o_m_h_a.png,O,z,704,8,1,1724.6000000238419,804948.5,7104,VNB,B,6
4,test,5,1.0,2-Back,0,z,Wed Apr 02 2025 12:01:30 GMT-0500 (Central Daylight Time),808971.8000000715,011_m_f_d_a.png,O,m,1269,9,1,2291.2000000476837,806680.6000000238,7104,VNB,B,7
5,test,5,0.0,2-Back,1,m,Wed Apr 02 2025 12:01:30 GMT-0500 (Central Daylight Time),811072.2000000477,016_y_m_n_a.png,O,m,1072,10,1,2092.0,808980.2000000477,7104,VNB,B,8
5,test,5,0.0,2-Back,0,m,Wed Apr 02 2025 12:01:30 GMT-0500 (Central Daylight Time),813288.3000000715,007_m_m_n_a.png,O,z,1190,11,1,2209.0,811079.3000000715,7104,VNB,B,9
6,test,5,0.0,2-Back,1,m,Wed Apr 02 2025 12:01:30 GMT-0500 (Central Daylight Time),816304.2000000477,020_y_f_h_a.png,O,m,1998,12,1,3007.0,813297.2000000477,7104,VNB,B,10
6,test,5,0.0,2-Back,0,m,Wed Apr 02 2025 12:01:30 GMT-0500 (Central Daylight Time),818452.2000000477,016_y_m_d_a.png,O,z,1125,13,1,2140.7999999523163,816311.4000000954,7104,VNB,B,11
6,test,5,1.0,2-Back,0,z,Wed Apr 02 2025 12:01:30 GMT-0500 (Central Daylight Time),821484.9000000954,011_m_f_h_a.png,O,None,2013,14,1,3025.5,818459.4000000954,7104,VNB,B,12
6,test,5,0.0,2-Back,0,m,Wed Apr 02 2025 12:01:30 GMT-0500 (Central Daylight Time),823934.7000000477,004_o_m_n_a.png,O,z,1415,15,1,2443.0,821491.7000000477,7104,VNB,B,13
7,test,5,0.0,2-Back,1,m,Wed Apr 02 2025 12:01:30 GMT-0500 (Central Daylight Time),826301.0,007_m_m_d_a.png,O,m,1334,16,1,2355.7999999523163,823945.2000000477,7104,VNB,B,14
8,test,5,0.0,2-Back,1,z,Wed Apr 02 2025 12:01:30 GMT-0500 (Central Daylight Time),829066.3000000715,005_o_f_n_a.png,O,z,1736,17,1,2757.899999976158,826308.4000000954,7104,VNB,B,15
9,test,5,1.0,2-Back,1,m,Wed Apr 02 2025 12:01:30 GMT-0500 (Central Daylight Time),831932.1000000238,016_y_m_h_a.png,O,m,1834,18,1,2857.5,829074.6000000238,7104,VNB,B,16
