acc_sum,block,block_c,block_cond,con_img,correct,correct_response,datetime,endtime,face,jitter,line,project,response,response_time,row_sel,session_number,start_end,starttime,subject_id,task,task_vers,trial
1,prac,1,A,haborder.png,1,z,Fri Apr 18 2025 14:40:20 GMT-0500 (Central Daylight Time),77343.70000001788,CFD-BF-002-018-A.jpg,1200,solid,O,z,1086,6,1,3103.5,74240.20000001788,7129,ATS,C,1
2,prac,1,A,haborder.png,1,z,Fri Apr 18 2025 14:40:20 GMT-0500 (Central Daylight Time),80472.10000002384,CFD-BM-043-014-A.jpg,1600,solid,O,z,734,2,1,6231.9000000059605,74240.20000001788,7129,ATS,C,2
3,prac,1,A,haborder.png,1,z,Fri Apr 18 2025 14:40:20 GMT-0500 (Central Daylight Time),82906.0,CFD-WF-023-013-A.jpg,1000,solid,O,z,624,12,1,8665.799999982119,74240.20000001788,7129,ATS,C,3
4,prac,1,A,haborder.png,1,m,Fri Apr 18 2025 14:40:20 GMT-0500 (Central Daylight Time),85788.80000001192,CFD-WF-013-009-HC.jpg,1500,solid,O,m,603,11,1,11548.59999999404,74240.20000001788,7129,ATS,C,4
5,prac,1,A,haborder.png,1,z,Fri Apr 18 2025 14:40:20 GMT-0500 (Central Daylight Time),88286.80000001192,CFD-BF-031-020-A.jpg,1000,solid,O,z,686,4,1,14046.59999999404,74240.20000001788,7129,ATS,C,5
6,prac,1,A,haborder.png,1,m,Fri Apr 18 2025 14:40:20 GMT-0500 (Central Daylight Time),91903.0,CFD-BF-019-004-HC.jpg,2000,solid,O,m,825,5,1,17662.79999998212,74240.20000001788,7129,ATS,C,6
7,prac,1,A,haborder.png,1,m,Fri Apr 18 2025 14:40:20 GMT-0500 (Central Daylight Time),95367.90000000596,CFD-BM-034-035-HC.jpg,1700,solid,O,m,974,1,1,21127.69999998808,74240.20000001788,7129,ATS,C,7
8,prac,1,A,haborder.png,1,m,Fri Apr 18 2025 14:40:20 GMT-0500 (Central Daylight Time),98267.20000001788,CFD-WM-028-005-HC.jpg,1400,solid,O,m,719,7,1,24027.0,74240.20000001788,7129,ATS,C,8
9,prac,1,A,haborder.png,1,z,Fri Apr 18 2025 14:40:20 GMT-0500 (Central Daylight Time),101731.80000001192,CFD-WM-036-018-A.jpg,1900,solid,O,z,770,8,1,27491.59999999404,74240.20000001788,7129,ATS,C,9
10,prac,1,A,haborder.png,1,z,Fri Apr 18 2025 14:40:20 GMT-0500 (Central Daylight Time),105015.0,CFD-WF-037-016-A.jpg,1600,solid,O,z,883,10,1,30774.79999998212,74240.20000001788,7129,ATS,C,10
11,prac,1,A,haborder.png,1,m,Fri Apr 18 2025 14:40:20 GMT-0500 (Central Daylight Time),108364.90000000596,CFD-WM-035-036-HC.jpg,1700,solid,O,m,878,9,1,34124.69999998808,74240.20000001788,7129,ATS,C,11
12,prac,1,A,haborder.png,1,m,Fri Apr 18 2025 14:40:20 GMT-0500 (Central Daylight Time),111346.5,CFD-BM-022-004-HC.jpg,1500,solid,O,m,698,3,1,37106.29999998212,74240.20000001788,7129,ATS,C,12
0,prac,1,B,mfborder.png,0,z,Fri Apr 18 2025 14:40:20 GMT-0500 (Central Daylight Time),137221.30000001192,CFD-WF-013-009-HC.jpg,1000,12,O,None,1514,dash,1,3314.5,133906.80000001192,7129,ATS,C,1
1,prac,1,B,mfborder.png,1,m,Fri Apr 18 2025 14:40:20 GMT-0500 (Central Daylight Time),140470.30000001192,CFD-BM-021-026-A.jpg,1600,2,O,m,850,dash,1,6563.5,133906.80000001192,7129,ATS,C,2
2,prac,1,B,mfborder.png,1,m,Fri Apr 18 2025 14:40:20 GMT-0500 (Central Daylight Time),143819.5,CFD-WM-036-018-A.jpg,1700,9,O,m,864,dash,1,9912.699999988079,133906.80000001192,7129,ATS,C,3
3,prac,1,B,mfborder.png,1,z,Fri Apr 18 2025 14:40:20 GMT-0500 (Central Daylight Time),147100.40000000596,CFD-WF-001-010-HC.jpg,1900,8,O,z,585,dash,1,13193.59999999404,133906.80000001192,7129,ATS,C,4
4,prac,1,B,mfborder.png,1,z,Fri Apr 18 2025 14:40:20 GMT-0500 (Central Daylight Time),149549.80000001192,CFD-BF-031-020-A.jpg,1000,4,O,z,659,dash,1,15643.0,133906.80000001192,7129,ATS,C,5
5,prac,1,B,mfborder.png,1,m,Fri Apr 18 2025 14:40:20 GMT-0500 (Central Daylight Time),152699.60000002384,CFD-BM-022-004-HC.jpg,1700,1,O,m,638,dash,1,18792.80000001192,133906.80000001192,7129,ATS,C,6
6,prac,1,B,mfborder.png,1,m,Fri Apr 18 2025 14:40:20 GMT-0500 (Central Daylight Time),155681.80000001192,CFD-WM-035-036-HC.jpg,1600,10,O,m,599,dash,1,21775.0,133906.80000001192,7129,ATS,C,7
7,prac,1,B,mfborder.png,1,m,Fri Apr 18 2025 14:40:20 GMT-0500 (Central Daylight Time),158947.10000002384,CFD-BM-043-014-A.jpg,2000,5,O,m,471,dash,1,25040.30000001192,133906.80000001192,7129,ATS,C,8
8,prac,1,B,mfborder.png,1,z,Fri Apr 18 2025 14:40:20 GMT-0500 (Central Daylight Time),161930.0,CFD-BF-042-031-HC.jpg,1500,3,O,z,690,dash,1,28023.19999998808,133906.80000001192,7129,ATS,C,9
9,prac,1,B,mfborder.png,1,m,Fri Apr 18 2025 14:40:20 GMT-0500 (Central Daylight Time),164679.70000001788,CFD-WM-034-040-A.jpg,1200,6,O,m,760,dash,1,30772.90000000596,133906.80000001192,7129,ATS,C,10
10,prac,1,B,mfborder.png,1,z,Fri Apr 18 2025 14:40:20 GMT-0500 (Central Daylight Time),167679.0,CFD-WF-037-016-A.jpg,1500,11,O,z,694,dash,1,33772.19999998808,133906.80000001192,7129,ATS,C,11
11,prac,1,B,mfborder.png,1,z,Fri Apr 18 2025 14:40:20 GMT-0500 (Central Daylight Time),170461.60000002384,CFD-BF-019-004-HC.jpg,1400,7,O,z,570,dash,1,36554.80000001192,133906.80000001192,7129,ATS,C,12
1,test,1,A,haborder.png,1,m,Fri Apr 18 2025 14:40:20 GMT-0500 (Central Daylight Time),198169.20000001788,CFD-BM-022-004-HC.jpg,1500,solid,O,m,1359,3,1,2883.0999999940395,195286.10000002384,7129,ATS,C,1
2,test,1,A,haborder.png,1,z,Fri Apr 18 2025 14:40:20 GMT-0500 (Central Daylight Time),199836.0,CFD-WF-023-013-A.jpg,1000,solid,O,z,650,12,1,4549.899999976158,195286.10000002384,7129,ATS,C,2
3,test,1,A,haborder.png,1,m,Fri Apr 18 2025 14:40:20 GMT-0500 (Central Daylight Time),201884.40000000596,CFD-BM-022-004-HC.jpg,1500,solid,O,m,531,3,1,6598.299999982119,195286.10000002384,7129,ATS,C,3
4,test,1,A,haborder.png,1,m,Fri Apr 18 2025 14:40:20 GMT-0500 (Central Daylight Time),204399.70000001788,CFD-BF-019-004-HC.jpg,2000,solid,O,m,479,5,1,9113.59999999404,195286.10000002384,7129,ATS,C,4
5,test,1,A,haborder.png,1,z,Fri Apr 18 2025 14:40:20 GMT-0500 (Central Daylight Time),206098.30000001192,CFD-WF-023-013-A.jpg,1000,solid,O,z,667,12,1,10812.199999988079,195286.10000002384,7129,ATS,C,5
6,test,1,A,haborder.png,1,z,Fri Apr 18 2025 14:40:20 GMT-0500 (Central Daylight Time),208016.20000001788,CFD-BF-002-018-A.jpg,1200,solid,O,z,686,6,1,12730.09999999404,195286.10000002384,7129,ATS,C,6
7,test,1,A,haborder.png,1,z,Fri Apr 18 2025 14:40:20 GMT-0500 (Central Daylight Time),210314.5,CFD-BM-043-014-A.jpg,1600,solid,O,z,670,2,1,15028.399999976158,195286.10000002384,7129,ATS,C,7
8,test,1,A,haborder.png,1,m,Fri Apr 18 2025 14:40:20 GMT-0500 (Central Daylight Time),212780.0,CFD-BM-034-035-HC.jpg,1700,solid,O,m,738,1,1,17493.899999976158,195286.10000002384,7129,ATS,C,8
9,test,1,A,haborder.png,1,z,Fri Apr 18 2025 14:40:20 GMT-0500 (Central Daylight Time),215246.70000001788,CFD-WF-037-016-A.jpg,1600,solid,O,z,836,10,1,19960.59999999404,195286.10000002384,7129,ATS,C,9
10,test,1,A,haborder.png,1,z,Fri Apr 18 2025 14:40:20 GMT-0500 (Central Daylight Time),217711.60000002384,CFD-BM-043-014-A.jpg,1600,solid,O,z,834,2,1,22425.5,195286.10000002384,7129,ATS,C,10
11,test,1,A,haborder.png,1,m,Fri Apr 18 2025 14:40:20 GMT-0500 (Central Daylight Time),220059.90000000596,CFD-WM-028-005-HC.jpg,1400,solid,O,m,921,7,1,24773.79999998212,195286.10000002384,7129,ATS,C,11
12,test,1,A,haborder.png,1,z,Fri Apr 18 2025 14:40:20 GMT-0500 (Central Daylight Time),222777.5,CFD-WM-036-018-A.jpg,1900,solid,O,z,783,8,1,27491.399999976158,195286.10000002384,7129,ATS,C,12
13,test,1,A,haborder.png,1,m,Fri Apr 18 2025 14:40:20 GMT-0500 (Central Daylight Time),225393.60000002384,CFD-BF-019-004-HC.jpg,2000,solid,O,m,594,5,1,30107.5,195286.10000002384,7129,ATS,C,13
14,test,1,A,haborder.png,1,m,Fri Apr 18 2025 14:40:20 GMT-0500 (Central Daylight Time),227625.40000000596,CFD-WF-013-009-HC.jpg,1500,solid,O,m,714,11,1,32339.29999998212,195286.10000002384,7129,ATS,C,14
15,test,1,A,haborder.png,1,m,Fri Apr 18 2025 14:40:20 GMT-0500 (Central Daylight Time),230042.0,CFD-WM-035-036-HC.jpg,1700,solid,O,m,677,9,1,34755.89999997616,195286.10000002384,7129,ATS,C,15
16,test,1,A,haborder.png,1,m,Fri Apr 18 2025 14:40:20 GMT-0500 (Central Daylight Time),232524.20000001788,CFD-WM-035-036-HC.jpg,1700,solid,O,m,755,9,1,37238.09999999404,195286.10000002384,7129,ATS,C,16
17,test,1,A,haborder.png,1,z,Fri Apr 18 2025 14:40:20 GMT-0500 (Central Daylight Time),234906.10000002384,CFD-WF-037-016-A.jpg,1600,solid,O,z,765,10,1,39620.0,195286.10000002384,7129,ATS,C,17
18,test,1,A,haborder.png,1,z,Fri Apr 18 2025 14:40:20 GMT-0500 (Central Daylight Time),237622.10000002384,CFD-WM-036-018-A.jpg,1900,solid,O,z,784,8,1,42336.0,195286.10000002384,7129,ATS,C,18
19,test,1,A,haborder.png,1,z,Fri Apr 18 2025 14:40:20 GMT-0500 (Central Daylight Time),239323.30000001192,CFD-BF-031-020-A.jpg,1000,solid,O,z,676,4,1,44037.19999998808,195286.10000002384,7129,ATS,C,19
20,test,1,A,haborder.png,1,z,Fri Apr 18 2025 14:40:20 GMT-0500 (Central Daylight Time),241157.0,CFD-BF-002-018-A.jpg,1200,solid,O,z,618,6,1,45870.89999997616,195286.10000002384,7129,ATS,C,20
21,test,1,A,haborder.png,1,z,Fri Apr 18 2025 14:40:20 GMT-0500 (Central Daylight Time),242970.20000001788,CFD-BF-031-020-A.jpg,1000,solid,O,z,789,4,1,47684.09999999404,195286.10000002384,7129,ATS,C,21
22,test,1,A,haborder.png,1,m,Fri Apr 18 2025 14:40:20 GMT-0500 (Central Daylight Time),245002.90000000596,CFD-WF-013-009-HC.jpg,1500,solid,O,m,515,11,1,49716.79999998212,195286.10000002384,7129,ATS,C,22
23,test,1,A,haborder.png,1,m,Fri Apr 18 2025 14:40:20 GMT-0500 (Central Daylight Time),247152.5,CFD-WM-028-005-HC.jpg,1400,solid,O,m,726,7,1,51866.39999997616,195286.10000002384,7129,ATS,C,23
24,test,1,A,haborder.png,1,m,Fri Apr 18 2025 14:40:20 GMT-0500 (Central Daylight Time),249585.40000000596,CFD-BM-034-035-HC.jpg,1700,solid,O,m,692,1,1,54299.29999998212,195286.10000002384,7129,ATS,C,24
1,test,1,B,mfborder.png,1,m,Fri Apr 18 2025 14:40:20 GMT-0500 (Central Daylight Time),286025.3000000119,CFD-WM-036-018-A.jpg,1700,dash,O,m,753,9,1,2486.4000000059605,283538.90000000596,7129,ATS,C,1
2,test,1,B,mfborder.png,1,m,Fri Apr 18 2025 14:40:20 GMT-0500 (Central Daylight Time),288173.0,CFD-WM-035-036-HC.jpg,1600,dash,O,m,520,10,1,4634.0999999940395,283538.90000000596,7129,ATS,C,2
3,test,1,B,mfborder.png,1,z,Fri Apr 18 2025 14:40:20 GMT-0500 (Central Daylight Time),290123.60000002384,CFD-BF-019-004-HC.jpg,1400,dash,O,z,525,7,1,6584.700000017881,283538.90000000596,7129,ATS,C,3
4,test,1,B,mfborder.png,1,m,Fri Apr 18 2025 14:40:20 GMT-0500 (Central Daylight Time),292305.7000000179,CFD-WM-035-036-HC.jpg,1600,dash,O,m,557,10,1,8766.800000011921,283538.90000000596,7129,ATS,C,4
5,test,1,B,mfborder.png,1,m,Fri Apr 18 2025 14:40:20 GMT-0500 (Central Daylight Time),294070.5,CFD-WM-034-040-A.jpg,1200,dash,O,m,530,6,1,10531.59999999404,283538.90000000596,7129,ATS,C,5
6,test,1,B,mfborder.png,1,z,Fri Apr 18 2025 14:40:20 GMT-0500 (Central Daylight Time),296286.10000002384,CFD-BF-042-031-HC.jpg,1500,dash,O,z,678,3,1,12747.200000017881,283538.90000000596,7129,ATS,C,6
7,test,1,B,mfborder.png,1,z,Fri Apr 18 2025 14:40:20 GMT-0500 (Central Daylight Time),298769.7000000179,CFD-WF-001-010-HC.jpg,1900,dash,O,z,558,8,1,15230.800000011921,283538.90000000596,7129,ATS,C,7
8,test,1,B,mfborder.png,1,z,Fri Apr 18 2025 14:40:20 GMT-0500 (Central Daylight Time),301152.10000002384,CFD-WF-001-010-HC.jpg,1900,dash,O,z,461,8,1,17613.20000001788,283538.90000000596,7129,ATS,C,8
9,test,1,B,mfborder.png,1,z,Fri Apr 18 2025 14:40:20 GMT-0500 (Central Daylight Time),303170.3000000119,CFD-WF-037-016-A.jpg,1500,dash,O,z,501,11,1,19631.40000000596,283538.90000000596,7129,ATS,C,9
10,test,1,B,mfborder.png,1,z,Fri Apr 18 2025 14:40:20 GMT-0500 (Central Daylight Time),305449.60000002384,CFD-BF-031-020-A.jpg,1000,dash,O,z,1249,4,1,21910.70000001788,283538.90000000596,7129,ATS,C,10
11,test,1,B,mfborder.png,1,z,Fri Apr 18 2025 14:40:20 GMT-0500 (Central Daylight Time),307816.7000000179,CFD-BF-042-031-HC.jpg,1500,dash,O,z,833,3,1,24277.80000001192,283538.90000000596,7129,ATS,C,11
12,test,1,B,mfborder.png,1,m,Fri Apr 18 2025 14:40:20 GMT-0500 (Central Daylight Time),310300.2000000179,CFD-BM-022-004-HC.jpg,1700,dash,O,m,767,1,1,26761.30000001192,283538.90000000596,7129,ATS,C,12
13,test,1,B,mfborder.png,1,m,Fri Apr 18 2025 14:40:20 GMT-0500 (Central Daylight Time),312981.0,CFD-BM-043-014-A.jpg,2000,dash,O,m,652,5,1,29442.09999999404,283538.90000000596,7129,ATS,C,13
14,test,1,B,mfborder.png,1,m,Fri Apr 18 2025 14:40:20 GMT-0500 (Central Daylight Time),315314.40000000596,CFD-WM-036-018-A.jpg,1700,dash,O,m,599,9,1,31775.5,283538.90000000596,7129,ATS,C,14
15,test,1,B,mfborder.png,1,m,Fri Apr 18 2025 14:40:20 GMT-0500 (Central Daylight Time),317132.3000000119,CFD-WM-034-040-A.jpg,1200,dash,O,m,600,6,1,33593.40000000596,283538.90000000596,7129,ATS,C,15
16,test,1,B,mfborder.png,1,z,Fri Apr 18 2025 14:40:20 GMT-0500 (Central Daylight Time),318913.90000000596,CFD-WF-013-009-HC.jpg,1000,dash,O,z,759,12,1,35375.0,283538.90000000596,7129,ATS,C,16
17,test,1,B,mfborder.png,1,m,Fri Apr 18 2025 14:40:20 GMT-0500 (Central Daylight Time),321595.8000000119,CFD-BM-022-004-HC.jpg,1700,dash,O,m,954,1,1,38056.90000000596,283538.90000000596,7129,ATS,C,17
18,test,1,B,mfborder.png,1,z,Fri Apr 18 2025 14:40:20 GMT-0500 (Central Daylight Time),323728.2000000179,CFD-BF-019-004-HC.jpg,1400,dash,O,z,701,7,1,40189.30000001192,283538.90000000596,7129,ATS,C,18
19,test,1,B,mfborder.png,1,z,Fri Apr 18 2025 14:40:20 GMT-0500 (Central Daylight Time),325327.90000000596,CFD-WF-013-009-HC.jpg,1000,dash,O,z,567,12,1,41789.0,283538.90000000596,7129,ATS,C,19
20,test,1,B,mfborder.png,1,m,Fri Apr 18 2025 14:40:20 GMT-0500 (Central Daylight Time),327443.3000000119,CFD-BM-021-026-A.jpg,1600,dash,O,m,488,2,1,43904.40000000596,283538.90000000596,7129,ATS,C,20
21,test,1,B,mfborder.png,1,z,Fri Apr 18 2025 14:40:20 GMT-0500 (Central Daylight Time),329659.7000000179,CFD-WF-037-016-A.jpg,1500,dash,O,z,682,11,1,46120.80000001192,283538.90000000596,7129,ATS,C,21
22,test,1,B,mfborder.png,1,z,Fri Apr 18 2025 14:40:20 GMT-0500 (Central Daylight Time),331174.90000000596,CFD-BF-031-020-A.jpg,1000,dash,O,z,492,4,1,47636.0,283538.90000000596,7129,ATS,C,22
23,test,1,B,mfborder.png,1,m,Fri Apr 18 2025 14:40:20 GMT-0500 (Central Daylight Time),333542.2000000179,CFD-BM-021-026-A.jpg,1600,dash,O,m,745,2,1,50003.30000001192,283538.90000000596,7129,ATS,C,23
24,test,1,B,mfborder.png,1,m,Fri Apr 18 2025 14:40:20 GMT-0500 (Central Daylight Time),336275.10000002384,CFD-BM-043-014-A.jpg,2000,dash,O,m,711,5,1,52736.20000001788,283538.90000000596,7129,ATS,C,24
1,prac,1,C,mfborder.png,1,z,Fri Apr 18 2025 14:40:20 GMT-0500 (Central Daylight Time),381010.2000000179,CFD-WF-023-013-A.jpg,1500,solid,O,z,1316,5,1,3598.0999999940395,377412.10000002384,7129,ATS,C,1
2,prac,1,C,haborder.png,1,m,Fri Apr 18 2025 14:40:20 GMT-0500 (Central Daylight Time),384474.7000000179,CFD-BM-022-004-HC.jpg,1500,solid,O,m,1179,5,1,7062.5999999940395,377412.10000002384,7129,ATS,C,2
2,prac,1,C,mfborder.png,0,z,Fri Apr 18 2025 14:40:20 GMT-0500 (Central Daylight Time),387774.8000000119,CFD-BF-019-004-HC.jpg,1000,dash,O,None,1508,5,1,10362.699999988079,377412.10000002384,7129,ATS,C,3
3,prac,1,C,mfborder.png,1,m,Fri Apr 18 2025 14:40:20 GMT-0500 (Central Daylight Time),391689.0,CFD-BM-034-035-HC.jpg,2000,solid,O,m,1116,5,1,14276.899999976158,377412.10000002384,7129,ATS,C,4
4,prac,1,C,haborder.png,1,z,Fri Apr 18 2025 14:40:20 GMT-0500 (Central Daylight Time),394990.0,CFD-WF-037-016-A.jpg,1600,dash,O,z,917,5,1,17577.899999976158,377412.10000002384,7129,ATS,C,5
5,prac,1,C,haborder.png,1,m,Fri Apr 18 2025 14:40:20 GMT-0500 (Central Daylight Time),397506.3000000119,CFD-WM-028-005-HC.jpg,1000,dash,O,m,740,5,1,20094.19999998808,377412.10000002384,7129,ATS,C,6
6,prac,1,C,haborder.png,1,z,Fri Apr 18 2025 14:40:20 GMT-0500 (Central Daylight Time),401071.7000000179,CFD-BF-031-020-A.jpg,1900,dash,O,z,859,5,1,23659.59999999404,377412.10000002384,7129,ATS,C,7
7,prac,1,C,haborder.png,1,m,Fri Apr 18 2025 14:40:20 GMT-0500 (Central Daylight Time),404052.40000000596,CFD-WM-028-005-HC.jpg,1400,solid,O,m,785,5,1,26640.29999998212,377412.10000002384,7129,ATS,C,8
8,prac,1,C,haborder.png,1,z,Fri Apr 18 2025 14:40:20 GMT-0500 (Central Daylight Time),407484.10000002384,CFD-BF-002-018-A.jpg,1700,solid,O,z,935,5,1,30072.0,377412.10000002384,7129,ATS,C,9
9,prac,1,C,mfborder.png,1,m,Fri Apr 18 2025 14:40:20 GMT-0500 (Central Daylight Time),410784.90000000596,CFD-WM-036-018-A.jpg,1700,solid,O,m,801,5,1,33372.79999998212,377412.10000002384,7129,ATS,C,10
10,prac,1,C,mfborder.png,1,m,Fri Apr 18 2025 14:40:20 GMT-0500 (Central Daylight Time),413434.0,CFD-BM-043-014-A.jpg,1200,dash,O,m,667,5,1,36021.89999997616,377412.10000002384,7129,ATS,C,11
10,prac,1,C,mfborder.png,0,z,Fri Apr 18 2025 14:40:20 GMT-0500 (Central Daylight Time),417316.0,CFD-WF-013-009-HC.jpg,1600,dash,O,None,1514,5,1,39903.89999997616,377412.10000002384,7129,ATS,C,12
0,test,1,C,mfborder.png,0,m,Fri Apr 18 2025 14:40:20 GMT-0500 (Central Daylight Time),439592.10000002384,CFD-WM-035-036-HC.jpg,1000,dash,O,None,1511,4,1,2533.5,437058.60000002384,7129,ATS,C,1
0,test,1,C,haborder.png,0,z,Fri Apr 18 2025 14:40:20 GMT-0500 (Central Daylight Time),442822.90000000596,CFD-BM-021-026-A.jpg,1700,solid,O,None,1507,9,1,5764.299999982119,437058.60000002384,7129,ATS,C,2
1,test,1,C,mfborder.png,1,z,Fri Apr 18 2025 14:40:20 GMT-0500 (Central Daylight Time),445738.60000002384,CFD-WF-037-016-A.jpg,1500,dash,O,z,1389,3,1,8680.0,437058.60000002384,7129,ATS,C,3
2,test,1,C,mfborder.png,1,m,Fri Apr 18 2025 14:40:20 GMT-0500 (Central Daylight Time),448571.40000000596,CFD-WM-034-040-A.jpg,2000,dash,O,m,797,5,1,11512.799999982119,437058.60000002384,7129,ATS,C,4
2,test,1,C,haborder.png,0,z,Fri Apr 18 2025 14:40:20 GMT-0500 (Central Daylight Time),451137.5,CFD-WM-036-018-A.jpg,1400,solid,O,m,1140,7,1,14078.899999976158,437058.60000002384,7129,ATS,C,5
2,test,1,C,mfborder.png,0,m,Fri Apr 18 2025 14:40:20 GMT-0500 (Central Daylight Time),453871.2000000179,CFD-BM-022-004-HC.jpg,1200,dash,O,None,1516,6,1,16812.59999999404,437058.60000002384,7129,ATS,C,6
2,test,1,C,haborder.png,0,z,Fri Apr 18 2025 14:40:20 GMT-0500 (Central Daylight Time),456603.0,CFD-BM-043-014-A.jpg,1900,solid,O,m,794,8,1,19544.399999976158,437058.60000002384,7129,ATS,C,7
2,test,1,C,haborder.png,0,m,Fri Apr 18 2025 14:40:20 GMT-0500 (Central Daylight Time),458501.7000000179,CFD-WF-013-009-HC.jpg,1000,solid,O,z,871,12,1,21443.09999999404,437058.60000002384,7129,ATS,C,8
2,test,1,C,mfborder.png,0,z,Fri Apr 18 2025 14:40:20 GMT-0500 (Central Daylight Time),461482.40000000596,CFD-BF-042-031-HC.jpg,1700,dash,O,m,1254,1,1,24423.79999998212,437058.60000002384,7129,ATS,C,9
2,test,1,C,haborder.png,0,m,Fri Apr 18 2025 14:40:20 GMT-0500 (Central Daylight Time),464116.90000000596,CFD-WF-001-010-HC.jpg,1500,solid,O,z,1111,11,1,27058.29999998212,437058.60000002384,7129,ATS,C,10
2,test,1,C,haborder.png,0,m,Fri Apr 18 2025 14:40:20 GMT-0500 (Central Daylight Time),466165.10000002384,CFD-WF-013-009-HC.jpg,1000,solid,O,z,1014,12,1,29106.5,437058.60000002384,7129,ATS,C,11
2,test,1,C,mfborder.png,0,z,Fri Apr 18 2025 14:40:20 GMT-0500 (Central Daylight Time),468782.0,CFD-WF-037-016-A.jpg,1500,dash,O,m,1085,3,1,31723.399999976158,437058.60000002384,7129,ATS,C,12
2,test,1,C,haborder.png,0,m,Fri Apr 18 2025 14:40:20 GMT-0500 (Central Daylight Time),471915.7000000179,CFD-BF-019-004-HC.jpg,1600,solid,O,None,1516,10,1,34857.09999999404,437058.60000002384,7129,ATS,C,13
2,test,1,C,haborder.png,0,z,Fri Apr 18 2025 14:40:20 GMT-0500 (Central Daylight Time),474613.2000000179,CFD-WM-036-018-A.jpg,1400,solid,O,m,1281,7,1,37554.59999999404,437058.60000002384,7129,ATS,C,14
2,test,1,C,haborder.png,0,m,Fri Apr 18 2025 14:40:20 GMT-0500 (Central Daylight Time),477730.5,CFD-BF-019-004-HC.jpg,1600,solid,O,None,1502,10,1,40671.89999997616,437058.60000002384,7129,ATS,C,15
3,test,1,C,mfborder.png,1,m,Fri Apr 18 2025 14:40:20 GMT-0500 (Central Daylight Time),479544.2000000179,CFD-WM-035-036-HC.jpg,1000,dash,O,m,785,4,1,42485.59999999404,437058.60000002384,7129,ATS,C,16
4,test,1,C,mfborder.png,1,z,Fri Apr 18 2025 14:40:20 GMT-0500 (Central Daylight Time),482160.5,CFD-BF-042-031-HC.jpg,1700,dash,O,z,892,1,1,45101.89999997616,437058.60000002384,7129,ATS,C,17
5,test,1,C,haborder.png,1,z,Fri Apr 18 2025 14:40:20 GMT-0500 (Central Daylight Time),484928.7000000179,CFD-BM-021-026-A.jpg,1700,solid,O,z,1029,9,1,47870.09999999404,437058.60000002384,7129,ATS,C,18
5,test,1,C,haborder.png,0,m,Fri Apr 18 2025 14:40:20 GMT-0500 (Central Daylight Time),487308.90000000596,CFD-WF-001-010-HC.jpg,1500,solid,O,z,850,11,1,50250.29999998212,437058.60000002384,7129,ATS,C,19
6,test,1,C,mfborder.png,1,z,Fri Apr 18 2025 14:40:20 GMT-0500 (Central Daylight Time),489876.2000000179,CFD-BF-031-020-A.jpg,1600,dash,O,z,941,2,1,52817.59999999404,437058.60000002384,7129,ATS,C,20
6,test,1,C,haborder.png,0,z,Fri Apr 18 2025 14:40:20 GMT-0500 (Central Daylight Time),492824.40000000596,CFD-BM-043-014-A.jpg,1900,solid,O,m,1010,8,1,55765.79999998212,437058.60000002384,7129,ATS,C,21
7,test,1,C,mfborder.png,1,m,Fri Apr 18 2025 14:40:20 GMT-0500 (Central Daylight Time),495640.40000000596,CFD-WM-034-040-A.jpg,2000,dash,O,m,783,5,1,58581.79999998212,437058.60000002384,7129,ATS,C,22
8,test,1,C,mfborder.png,1,m,Fri Apr 18 2025 14:40:20 GMT-0500 (Central Daylight Time),497472.10000002384,CFD-BM-022-004-HC.jpg,1200,dash,O,m,603,6,1,60413.5,437058.60000002384,7129,ATS,C,23
8,test,1,C,mfborder.png,0,z,Fri Apr 18 2025 14:40:20 GMT-0500 (Central Daylight Time),499723.0,CFD-BF-031-020-A.jpg,1600,dash,O,m,626,2,1,62664.39999997616,437058.60000002384,7129,ATS,C,24
1,test,2,C,mfborder.png,1,m,Fri Apr 18 2025 14:40:20 GMT-0500 (Central Daylight Time),518149.2000000179,CFD-BM-043-014-A.jpg,2000,dash,O,m,1204,5,1,3232.9000000059605,514916.3000000119,7129,ATS,C,1
1,test,2,C,haborder.png,0,z,Fri Apr 18 2025 14:40:20 GMT-0500 (Central Daylight Time),521383.10000002384,CFD-WF-037-016-A.jpg,1700,solid,O,None,1517,9,1,6466.800000011921,514916.3000000119,7129,ATS,C,2
1,test,2,C,mfborder.png,0,m,Fri Apr 18 2025 14:40:20 GMT-0500 (Central Daylight Time),523779.10000002384,CFD-BM-034-035-HC.jpg,1000,dash,O,z,1372,4,1,8862.800000011921,514916.3000000119,7129,ATS,C,3
2,test,2,C,haborder.png,1,m,Fri Apr 18 2025 14:40:20 GMT-0500 (Central Daylight Time),526562.900000006,CFD-BM-022-004-HC.jpg,1600,solid,O,m,1148,10,1,11646.59999999404,514916.3000000119,7129,ATS,C,4
2,test,2,C,mfborder.png,0,m,Fri Apr 18 2025 14:40:20 GMT-0500 (Central Daylight Time),529296.8000000119,CFD-WM-036-018-A.jpg,1200,dash,O,None,1517,6,1,14380.5,514916.3000000119,7129,ATS,C,5
3,test,2,C,haborder.png,1,z,Fri Apr 18 2025 14:40:20 GMT-0500 (Central Daylight Time),532077.8000000119,CFD-BF-002-018-A.jpg,1900,solid,O,z,852,8,1,17161.5,514916.3000000119,7129,ATS,C,6
4,test,2,C,haborder.png,1,m,Fri Apr 18 2025 14:40:20 GMT-0500 (Central Daylight Time),533962.6000000238,CFD-WM-028-005-HC.jpg,1000,solid,O,m,852,12,1,19046.30000001192,514916.3000000119,7129,ATS,C,7
5,test,2,C,haborder.png,1,m,Fri Apr 18 2025 14:40:20 GMT-0500 (Central Daylight Time),536179.1000000238,CFD-WM-028-005-HC.jpg,1500,solid,O,m,699,11,1,21262.80000001192,514916.3000000119,7129,ATS,C,8
6,test,2,C,mfborder.png,1,m,Fri Apr 18 2025 14:40:20 GMT-0500 (Central Daylight Time),538228.0,CFD-BM-034-035-HC.jpg,1000,dash,O,m,1016,4,1,23311.69999998808,514916.3000000119,7129,ATS,C,9
7,test,2,C,haborder.png,1,z,Fri Apr 18 2025 14:40:20 GMT-0500 (Central Daylight Time),540842.8000000119,CFD-WF-037-016-A.jpg,1700,solid,O,z,883,9,1,25926.5,514916.3000000119,7129,ATS,C,10
8,test,2,C,haborder.png,1,z,Fri Apr 18 2025 14:40:20 GMT-0500 (Central Daylight Time),543174.3000000119,CFD-BF-031-020-A.jpg,1400,solid,O,z,910,7,1,28258.0,514916.3000000119,7129,ATS,C,11
9,test,2,C,haborder.png,1,m,Fri Apr 18 2025 14:40:20 GMT-0500 (Central Daylight Time),545573.7000000179,CFD-BM-022-004-HC.jpg,1600,solid,O,m,773,10,1,30657.40000000596,514916.3000000119,7129,ATS,C,12
10,test,2,C,mfborder.png,1,z,Fri Apr 18 2025 14:40:20 GMT-0500 (Central Daylight Time),547972.1000000238,CFD-BF-019-004-HC.jpg,1500,dash,O,z,869,3,1,33055.80000001192,514916.3000000119,7129,ATS,C,13
11,test,2,C,mfborder.png,1,z,Fri Apr 18 2025 14:40:20 GMT-0500 (Central Daylight Time),551039.1000000238,CFD-WF-013-009-HC.jpg,1700,dash,O,z,1328,1,1,36122.80000001192,514916.3000000119,7129,ATS,C,14
12,test,2,C,haborder.png,1,m,Fri Apr 18 2025 14:40:20 GMT-0500 (Central Daylight Time),553122.1000000238,CFD-WM-028-005-HC.jpg,1000,solid,O,m,1049,12,1,38205.80000001192,514916.3000000119,7129,ATS,C,15
13,test,2,C,mfborder.png,1,z,Fri Apr 18 2025 14:40:20 GMT-0500 (Central Daylight Time),555772.2000000179,CFD-WF-023-013-A.jpg,1600,dash,O,z,1027,2,1,40855.90000000596,514916.3000000119,7129,ATS,C,16
14,test,2,C,mfborder.png,1,m,Fri Apr 18 2025 14:40:20 GMT-0500 (Central Daylight Time),559170.3000000119,CFD-BM-043-014-A.jpg,2000,dash,O,m,1367,5,1,44254.0,514916.3000000119,7129,ATS,C,17
15,test,2,C,haborder.png,1,z,Fri Apr 18 2025 14:40:20 GMT-0500 (Central Daylight Time),561569.400000006,CFD-BF-031-020-A.jpg,1400,solid,O,z,960,7,1,46653.09999999404,514916.3000000119,7129,ATS,C,18
16,test,2,C,haborder.png,1,z,Fri Apr 18 2025 14:40:20 GMT-0500 (Central Daylight Time),564551.2000000179,CFD-BF-002-018-A.jpg,1900,solid,O,z,1060,8,1,49634.90000000596,514916.3000000119,7129,ATS,C,19
17,test,2,C,mfborder.png,1,m,Fri Apr 18 2025 14:40:20 GMT-0500 (Central Daylight Time),567150.900000006,CFD-WM-036-018-A.jpg,1200,dash,O,m,1370,6,1,52234.59999999404,514916.3000000119,7129,ATS,C,20
18,test,2,C,haborder.png,1,m,Fri Apr 18 2025 14:40:20 GMT-0500 (Central Daylight Time),569565.0,CFD-WM-028-005-HC.jpg,1500,solid,O,m,886,11,1,54648.69999998808,514916.3000000119,7129,ATS,C,21
19,test,2,C,mfborder.png,1,z,Fri Apr 18 2025 14:40:20 GMT-0500 (Central Daylight Time),572149.8000000119,CFD-BF-019-004-HC.jpg,1500,dash,O,z,1048,3,1,57233.5,514916.3000000119,7129,ATS,C,22
20,test,2,C,mfborder.png,1,z,Fri Apr 18 2025 14:40:20 GMT-0500 (Central Daylight Time),574880.900000006,CFD-WF-023-013-A.jpg,1600,dash,O,z,1101,2,1,59964.59999999404,514916.3000000119,7129,ATS,C,23
21,test,2,C,mfborder.png,1,z,Fri Apr 18 2025 14:40:20 GMT-0500 (Central Daylight Time),577398.1000000238,CFD-WF-013-009-HC.jpg,1700,dash,O,z,786,1,1,62481.80000001192,514916.3000000119,7129,ATS,C,24
1,test,3,C,haborder.png,1,m,Fri Apr 18 2025 14:40:20 GMT-0500 (Central Daylight Time),583246.400000006,CFD-BF-019-004-HC.jpg,1600,solid,O,m,1337,10,1,2967.5,580278.900000006,7129,ATS,C,1
1,test,3,C,mfborder.png,0,m,Fri Apr 18 2025 14:40:20 GMT-0500 (Central Daylight Time),585379.900000006,CFD-WM-035-036-HC.jpg,1000,dash,O,z,1117,4,1,5101.0,580278.900000006,7129,ATS,C,2
2,test,3,C,haborder.png,1,m,Fri Apr 18 2025 14:40:20 GMT-0500 (Central Daylight Time),587194.400000006,CFD-WF-013-009-HC.jpg,1000,solid,O,m,797,12,1,6915.5,580278.900000006,7129,ATS,C,3
3,test,3,C,mfborder.png,1,z,Fri Apr 18 2025 14:40:20 GMT-0500 (Central Daylight Time),590160.1000000238,CFD-BF-042-031-HC.jpg,1700,dash,O,z,1235,1,1,9881.200000017881,580278.900000006,7129,ATS,C,4
4,test,3,C,mfborder.png,1,z,Fri Apr 18 2025 14:40:20 GMT-0500 (Central Daylight Time),592809.6000000238,CFD-BF-042-031-HC.jpg,1700,dash,O,z,916,1,1,12530.700000017881,580278.900000006,7129,ATS,C,5
5,test,3,C,mfborder.png,1,z,Fri Apr 18 2025 14:40:20 GMT-0500 (Central Daylight Time),595174.3000000119,CFD-BF-031-020-A.jpg,1600,dash,O,z,738,2,1,14895.40000000596,580278.900000006,7129,ATS,C,6
5,test,3,C,haborder.png,0,z,Fri Apr 18 2025 14:40:20 GMT-0500 (Central Daylight Time),597973.6000000238,CFD-BM-043-014-A.jpg,1900,solid,O,m,869,8,1,17694.70000001788,580278.900000006,7129,ATS,C,7
6,test,3,C,haborder.png,1,z,Fri Apr 18 2025 14:40:20 GMT-0500 (Central Daylight Time),600490.5,CFD-WM-036-018-A.jpg,1400,solid,O,z,1084,7,1,20211.59999999404,580278.900000006,7129,ATS,C,8
7,test,3,C,mfborder.png,1,z,Fri Apr 18 2025 14:40:20 GMT-0500 (Central Daylight Time),603555.5,CFD-BF-031-020-A.jpg,1600,dash,O,z,1433,2,1,23276.59999999404,580278.900000006,7129,ATS,C,9
7,test,3,C,haborder.png,0,z,Fri Apr 18 2025 14:40:20 GMT-0500 (Central Daylight Time),606603.6000000238,CFD-BM-021-026-A.jpg,1700,solid,O,m,1321,9,1,26324.70000001788,580278.900000006,7129,ATS,C,10
8,test,3,C,mfborder.png,1,z,Fri Apr 18 2025 14:40:20 GMT-0500 (Central Daylight Time),609269.5,CFD-WF-037-016-A.jpg,1500,dash,O,z,1129,3,1,28990.59999999404,580278.900000006,7129,ATS,C,11
9,test,3,C,mfborder.png,1,m,Fri Apr 18 2025 14:40:20 GMT-0500 (Central Daylight Time),611621.2000000179,CFD-BM-022-004-HC.jpg,1200,dash,O,m,1132,6,1,31342.30000001192,580278.900000006,7129,ATS,C,12
10,test,3,C,mfborder.png,1,m,Fri Apr 18 2025 14:40:20 GMT-0500 (Central Daylight Time),614535.0,CFD-WM-034-040-A.jpg,2000,dash,O,m,892,5,1,34256.09999999404,580278.900000006,7129,ATS,C,13
10,test,3,C,haborder.png,0,m,Fri Apr 18 2025 14:40:20 GMT-0500 (Central Daylight Time),616983.7000000179,CFD-WF-013-009-HC.jpg,1000,solid,O,z,1418,12,1,36704.80000001192,580278.900000006,7129,ATS,C,14
10,test,3,C,mfborder.png,0,m,Fri Apr 18 2025 14:40:20 GMT-0500 (Central Daylight Time),619717.1000000238,CFD-BM-022-004-HC.jpg,1200,dash,O,None,1508,6,1,39438.20000001788,580278.900000006,7129,ATS,C,15
11,test,3,C,mfborder.png,1,m,Fri Apr 18 2025 14:40:20 GMT-0500 (Central Daylight Time),621600.1000000238,CFD-WM-035-036-HC.jpg,1000,dash,O,m,844,4,1,41321.20000001788,580278.900000006,7129,ATS,C,16
12,test,3,C,haborder.png,1,z,Fri Apr 18 2025 14:40:20 GMT-0500 (Central Daylight Time),624632.2000000179,CFD-BM-021-026-A.jpg,1700,solid,O,z,1300,9,1,44353.30000001192,580278.900000006,7129,ATS,C,17
13,test,3,C,mfborder.png,1,z,Fri Apr 18 2025 14:40:20 GMT-0500 (Central Daylight Time),627415.2000000179,CFD-WF-037-016-A.jpg,1500,dash,O,z,1262,3,1,47136.30000001192,580278.900000006,7129,ATS,C,18
14,test,3,C,haborder.png,1,m,Fri Apr 18 2025 14:40:20 GMT-0500 (Central Daylight Time),630146.7000000179,CFD-BF-019-004-HC.jpg,1600,solid,O,m,1099,10,1,49867.80000001192,580278.900000006,7129,ATS,C,19
15,test,3,C,haborder.png,1,z,Fri Apr 18 2025 14:40:20 GMT-0500 (Central Daylight Time),632913.2000000179,CFD-BM-043-014-A.jpg,1900,solid,O,z,834,8,1,52634.30000001192,580278.900000006,7129,ATS,C,20
16,test,3,C,haborder.png,1,z,Fri Apr 18 2025 14:40:20 GMT-0500 (Central Daylight Time),635212.900000006,CFD-WM-036-018-A.jpg,1400,solid,O,z,870,7,1,54934.0,580278.900000006,7129,ATS,C,21
17,test,3,C,haborder.png,1,m,Fri Apr 18 2025 14:40:20 GMT-0500 (Central Daylight Time),637811.3000000119,CFD-WF-001-010-HC.jpg,1500,solid,O,m,1065,11,1,57532.40000000596,580278.900000006,7129,ATS,C,22
18,test,3,C,haborder.png,1,m,Fri Apr 18 2025 14:40:20 GMT-0500 (Central Daylight Time),640110.6000000238,CFD-WF-001-010-HC.jpg,1500,solid,O,m,770,11,1,59831.70000001788,580278.900000006,7129,ATS,C,23
19,test,3,C,mfborder.png,1,m,Fri Apr 18 2025 14:40:20 GMT-0500 (Central Daylight Time),643492.2000000179,CFD-WM-034-040-A.jpg,2000,dash,O,m,1352,5,1,63213.30000001192,580278.900000006,7129,ATS,C,24
1,test,4,C,mfborder.png,1,z,Fri Apr 18 2025 14:40:20 GMT-0500 (Central Daylight Time),649740.400000006,CFD-BF-019-004-HC.jpg,1500,dash,O,z,1248,3,1,2764.0999999940395,646976.3000000119,7129,ATS,C,1
2,test,4,C,haborder.png,1,z,Fri Apr 18 2025 14:40:20 GMT-0500 (Central Daylight Time),651989.6000000238,CFD-BF-031-020-A.jpg,1400,solid,O,z,817,7,1,5013.300000011921,646976.3000000119,7129,ATS,C,2
3,test,4,C,haborder.png,1,z,Fri Apr 18 2025 14:40:20 GMT-0500 (Central Daylight Time),654623.3000000119,CFD-BF-002-018-A.jpg,1900,solid,O,z,701,8,1,7647.0,646976.3000000119,7129,ATS,C,3
4,test,4,C,mfborder.png,1,m,Fri Apr 18 2025 14:40:20 GMT-0500 (Central Daylight Time),656572.2000000179,CFD-WM-036-018-A.jpg,1200,dash,O,m,715,6,1,9595.90000000596,646976.3000000119,7129,ATS,C,4
5,test,4,C,mfborder.png,1,z,Fri Apr 18 2025 14:40:20 GMT-0500 (Central Daylight Time),658939.1000000238,CFD-BF-019-004-HC.jpg,1500,dash,O,z,835,3,1,11962.800000011921,646976.3000000119,7129,ATS,C,5
6,test,4,C,mfborder.png,1,z,Fri Apr 18 2025 14:40:20 GMT-0500 (Central Daylight Time),661437.0,CFD-WF-013-009-HC.jpg,1700,dash,O,z,772,1,1,14460.699999988079,646976.3000000119,7129,ATS,C,6
7,test,4,C,mfborder.png,1,m,Fri Apr 18 2025 14:40:20 GMT-0500 (Central Daylight Time),663236.1000000238,CFD-BM-034-035-HC.jpg,1000,dash,O,m,765,4,1,16259.800000011921,646976.3000000119,7129,ATS,C,7
8,test,4,C,haborder.png,1,m,Fri Apr 18 2025 14:40:20 GMT-0500 (Central Daylight Time),665803.2000000179,CFD-BM-022-004-HC.jpg,1600,solid,O,m,940,10,1,18826.90000000596,646976.3000000119,7129,ATS,C,8
9,test,4,C,haborder.png,1,z,Fri Apr 18 2025 14:40:20 GMT-0500 (Central Daylight Time),668218.6000000238,CFD-WF-037-016-A.jpg,1700,solid,O,z,677,9,1,21242.30000001192,646976.3000000119,7129,ATS,C,9
10,test,4,C,mfborder.png,1,z,Fri Apr 18 2025 14:40:20 GMT-0500 (Central Daylight Time),670700.7000000179,CFD-WF-023-013-A.jpg,1600,dash,O,z,855,2,1,23724.40000000596,646976.3000000119,7129,ATS,C,10
10,test,4,C,haborder.png,0,z,Fri Apr 18 2025 14:40:20 GMT-0500 (Central Daylight Time),673450.0,CFD-WF-037-016-A.jpg,1700,solid,O,m,1024,9,1,26473.69999998808,646976.3000000119,7129,ATS,C,11
11,test,4,C,haborder.png,1,z,Fri Apr 18 2025 14:40:20 GMT-0500 (Central Daylight Time),675833.3000000119,CFD-BF-031-020-A.jpg,1400,solid,O,z,941,7,1,28857.0,646976.3000000119,7129,ATS,C,12
12,test,4,C,haborder.png,1,m,Fri Apr 18 2025 14:40:20 GMT-0500 (Central Daylight Time),678299.2000000179,CFD-WM-028-005-HC.jpg,1000,solid,O,m,1434,12,1,31322.90000000596,646976.3000000119,7129,ATS,C,13
13,test,4,C,mfborder.png,1,z,Fri Apr 18 2025 14:40:20 GMT-0500 (Central Daylight Time),680579.900000006,CFD-WF-023-013-A.jpg,1600,dash,O,z,646,2,1,33603.59999999404,646976.3000000119,7129,ATS,C,14
14,test,4,C,haborder.png,1,z,Fri Apr 18 2025 14:40:20 GMT-0500 (Central Daylight Time),683579.3000000119,CFD-BF-002-018-A.jpg,1900,solid,O,z,1071,8,1,36603.0,646976.3000000119,7129,ATS,C,15
15,test,4,C,mfborder.png,1,m,Fri Apr 18 2025 14:40:20 GMT-0500 (Central Daylight Time),685795.6000000238,CFD-BM-034-035-HC.jpg,1000,dash,O,m,1182,4,1,38819.30000001192,646976.3000000119,7129,ATS,C,16
16,test,4,C,haborder.png,1,m,Fri Apr 18 2025 14:40:20 GMT-0500 (Central Daylight Time),688744.8000000119,CFD-WM-028-005-HC.jpg,1500,solid,O,m,1427,11,1,41768.5,646976.3000000119,7129,ATS,C,17
17,test,4,C,haborder.png,1,m,Fri Apr 18 2025 14:40:20 GMT-0500 (Central Daylight Time),691178.8000000119,CFD-WM-028-005-HC.jpg,1500,solid,O,m,900,11,1,44202.5,646976.3000000119,7129,ATS,C,18
18,test,4,C,mfborder.png,1,z,Fri Apr 18 2025 14:40:20 GMT-0500 (Central Daylight Time),693743.6000000238,CFD-WF-013-009-HC.jpg,1700,dash,O,z,828,1,1,46767.30000001192,646976.3000000119,7129,ATS,C,19
19,test,4,C,mfborder.png,1,m,Fri Apr 18 2025 14:40:20 GMT-0500 (Central Daylight Time),697141.2000000179,CFD-BM-043-014-A.jpg,2000,dash,O,m,1367,5,1,50164.90000000596,646976.3000000119,7129,ATS,C,20
20,test,4,C,haborder.png,1,m,Fri Apr 18 2025 14:40:20 GMT-0500 (Central Daylight Time),699842.6000000238,CFD-BM-022-004-HC.jpg,1600,solid,O,m,1083,10,1,52866.30000001192,646976.3000000119,7129,ATS,C,21
20,test,4,C,mfborder.png,0,m,Fri Apr 18 2025 14:40:20 GMT-0500 (Central Daylight Time),701824.5,CFD-WM-036-018-A.jpg,1200,dash,O,z,749,6,1,54848.19999998808,646976.3000000119,7129,ATS,C,22
21,test,4,C,haborder.png,1,m,Fri Apr 18 2025 14:40:20 GMT-0500 (Central Daylight Time),703724.2000000179,CFD-WM-028-005-HC.jpg,1000,solid,O,m,865,12,1,56747.90000000596,646976.3000000119,7129,ATS,C,23
22,test,4,C,mfborder.png,1,m,Fri Apr 18 2025 14:40:20 GMT-0500 (Central Daylight Time),706924.400000006,CFD-BM-043-014-A.jpg,2000,dash,O,m,1175,5,1,59948.09999999404,646976.3000000119,7129,ATS,C,24
