acc_sum,block,block_c,change,condition,correct,correct_response,datetime,endtime,face,project,response,response_time,row_sel,session_number,start_end,starttime,subject_id,task,task_vers,trial
0,prac,1,,1-Back,,,Tue Feb 18 2025 14:36:58 GMT-0600 (Central Standard Time),,012_o_f_d_a.png,I,space,5651,1,1,,,8016,VNB,C,0
1,prac,1,0.0,1-Back,1,m,Tue Feb 18 2025 14:36:58 GMT-0600 (Central Standard Time),136488.39999999106,022_y_f_n_a.png,I,m,1319,2,1,2223.8999999910593,134264.5,8016,VNB,C,1
2,prac,1,0.0,1-Back,1,m,Tue Feb 18 2025 14:36:58 GMT-0600 (Central Standard Time),138521.09999999404,014_m_m_h_a.png,I,m,1149,3,1,2026.5,136494.59999999404,8016,VNB,C,2
3,prac,1,0.0,1-Back,1,m,Tue Feb 18 2025 14:36:58 GMT-0600 (Central Standard Time),140453.70000000298,025_y_m_d_a.png,I,m,1055,4,1,1924.7000000029802,138529.0,8016,VNB,C,3
4,prac,1,0.0,1-Back,1,m,Tue Feb 18 2025 14:36:58 GMT-0600 (Central Standard Time),142569.79999999702,012_o_f_n_a.png,I,m,1228,5,1,2110.4000000059605,140459.39999999106,8016,VNB,C,4
4,prac,1,1.0,1-Back,0,z,Tue Feb 18 2025 14:36:58 GMT-0600 (Central Standard Time),144702.5,025_y_m_n_a.png,I,m,1244,6,1,2125.2000000029802,142577.29999999702,8016,VNB,C,5
5,prac,1,0.0,1-Back,1,m,Tue Feb 18 2025 14:36:58 GMT-0600 (Central Standard Time),146768.59999999404,015_o_m_h_a.png,I,m,1167,7,1,2058.0999999940395,144710.5,8016,VNB,C,6
6,prac,1,0.0,1-Back,1,m,Tue Feb 18 2025 14:36:58 GMT-0600 (Central Standard Time),148801.09999999404,019_m_f_d_a.png,I,m,1135,8,1,2025.5999999940395,146775.5,8016,VNB,C,7
6,prac,1,1.0,1-Back,0,z,Tue Feb 18 2025 14:36:58 GMT-0600 (Central Standard Time),150850.39999999106,022_y_f_d_a.png,I,m,1148,9,1,2041.8999999910593,148808.5,8016,VNB,C,8
7,prac,1,0.0,1-Back,1,m,Tue Feb 18 2025 14:36:58 GMT-0600 (Central Standard Time),153349.89999999106,014_m_m_n_a.png,I,m,1609,10,1,2492.199999988079,150857.70000000298,8016,VNB,C,9
8,prac,1,0.0,1-Back,1,m,Tue Feb 18 2025 14:36:58 GMT-0600 (Central Standard Time),155299.20000000298,012_o_f_h_a.png,I,m,1048,11,1,1942.0,153357.20000000298,8016,VNB,C,10
9,prac,1,0.0,1-Back,1,m,Tue Feb 18 2025 14:36:58 GMT-0600 (Central Standard Time),157098.5,025_y_m_d_a.png,I,m,924,12,1,1791.6000000089407,155306.89999999106,8016,VNB,C,11
0,test,1,0.0,1-Back,,,Tue Feb 18 2025 14:36:58 GMT-0600 (Central Standard Time),157098.5,022_y_f_d_a.png,I,space,12119,1,1,1791.6000000089407,155306.89999999106,8016,VNB,C,0
1,test,1,0.0,1-Back,1,m,Tue Feb 18 2025 14:36:58 GMT-0600 (Central Standard Time),183190.39999999106,019_m_f_n_a.png,I,m,1161,2,1,2177.699999988079,181012.70000000298,8016,VNB,C,1
2,test,1,0.0,1-Back,1,m,Tue Feb 18 2025 14:36:58 GMT-0600 (Central Standard Time),185223.09999999404,015_o_m_h_a.png,I,m,1002,3,1,2028.0999999940395,183195.0,8016,VNB,C,2
3,test,1,1.0,1-Back,1,z,Tue Feb 18 2025 14:36:58 GMT-0600 (Central Standard Time),187405.5,014_m_m_h_a.png,I,z,1153,4,1,2178.0,185227.5,8016,VNB,C,3
4,test,1,0.0,1-Back,1,m,Tue Feb 18 2025 14:36:58 GMT-0600 (Central Standard Time),189371.79999999702,012_o_f_n_a.png,I,m,939,5,1,1962.0,187409.79999999702,8016,VNB,C,4
5,test,1,0.0,1-Back,1,m,Tue Feb 18 2025 14:36:58 GMT-0600 (Central Standard Time),191637.59999999404,025_y_m_d_a.png,I,m,1244,6,1,2261.5999999940395,189376.0,8016,VNB,C,5
6,test,1,1.0,1-Back,1,z,Tue Feb 18 2025 14:36:58 GMT-0600 (Central Standard Time),193820.29999999702,019_m_f_d_a.png,I,z,1162,7,1,2178.2000000029802,191642.09999999404,8016,VNB,C,6
7,test,1,0.0,1-Back,1,m,Tue Feb 18 2025 14:36:58 GMT-0600 (Central Standard Time),195937.59999999404,022_y_f_h_a.png,I,m,1099,8,1,2112.7999999970198,193824.79999999702,8016,VNB,C,7
8,test,1,0.0,1-Back,1,m,Tue Feb 18 2025 14:36:58 GMT-0600 (Central Standard Time),198219.0,015_o_m_n_a.png,I,m,1257,9,1,2277.1000000089407,195941.89999999106,8016,VNB,C,8
9,test,1,0.0,1-Back,1,m,Tue Feb 18 2025 14:36:58 GMT-0600 (Central Standard Time),201084.70000000298,025_y_m_h_a.png,I,m,1837,10,1,2861.1000000089407,198223.59999999404,8016,VNB,C,9
10,test,1,0.0,1-Back,1,m,Tue Feb 18 2025 14:36:58 GMT-0600 (Central Standard Time),203450.59999999404,015_o_m_d_a.png,I,m,1347,11,1,2362.0,201088.59999999404,8016,VNB,C,10
11,test,1,1.0,1-Back,1,z,Tue Feb 18 2025 14:36:58 GMT-0600 (Central Standard Time),205449.89999999106,012_o_f_d_a.png,I,z,982,12,1,1994.699999988079,203455.20000000298,8016,VNB,C,11
12,test,1,0.0,1-Back,1,m,Tue Feb 18 2025 14:36:58 GMT-0600 (Central Standard Time),207715.89999999106,014_m_m_n_a.png,I,m,1238,13,1,2261.3999999910593,205454.5,8016,VNB,C,12
13,test,1,1.0,1-Back,1,z,Tue Feb 18 2025 14:36:58 GMT-0600 (Central Standard Time),210265.29999999702,022_y_f_n_a.png,I,z,1516,14,1,2545.5,207719.79999999702,8016,VNB,C,13
14,test,1,0.0,1-Back,1,m,Tue Feb 18 2025 14:36:58 GMT-0600 (Central Standard Time),212381.20000000298,019_m_f_h_a.png,I,m,1096,15,1,2111.2000000029802,210270.0,8016,VNB,C,14
15,test,1,0.0,1-Back,1,m,Tue Feb 18 2025 14:36:58 GMT-0600 (Central Standard Time),214730.20000000298,014_m_m_d_a.png,I,m,1331,16,1,2344.7000000029802,212385.5,8016,VNB,C,15
16,test,1,0.0,1-Back,1,m,Tue Feb 18 2025 14:36:58 GMT-0600 (Central Standard Time),217130.0,025_y_m_n_a.png,I,m,1367,17,1,2395.7000000029802,214734.29999999702,8016,VNB,C,16
17,test,1,0.0,1-Back,1,m,Tue Feb 18 2025 14:36:58 GMT-0600 (Central Standard Time),220029.09999999404,012_o_f_h_a.png,I,m,1870,18,1,2895.0,217134.09999999404,8016,VNB,C,17
0,test,2,0.0,1-Back,,,Tue Feb 18 2025 14:36:58 GMT-0600 (Central Standard Time),220029.09999999404,025_y_m_n_a.png,I,space,1859,1,1,2895.0,217134.09999999404,8016,VNB,C,0
1,test,2,0.0,1-Back,1,m,Tue Feb 18 2025 14:36:58 GMT-0600 (Central Standard Time),226326.79999999702,022_y_f_h_a.png,I,m,1349,2,1,2411.2999999970198,223915.5,8016,VNB,C,1
2,test,2,1.0,1-Back,1,m,Tue Feb 18 2025 14:36:58 GMT-0600 (Central Standard Time),228359.5,015_o_m_n_a.png,I,m,1001,3,1,2028.6000000089407,226330.89999999106,8016,VNB,C,2
3,test,2,0.0,1-Back,1,m,Tue Feb 18 2025 14:36:58 GMT-0600 (Central Standard Time),230658.70000000298,019_m_f_d_a.png,I,m,1273,4,1,2295.2000000029802,228363.5,8016,VNB,C,3
4,test,2,0.0,1-Back,1,z,Tue Feb 18 2025 14:36:58 GMT-0600 (Central Standard Time),232741.39999999106,014_m_m_d_a.png,I,z,1061,5,1,2078.0999999940395,230663.29999999702,8016,VNB,C,4
5,test,2,0.0,1-Back,1,m,Tue Feb 18 2025 14:36:58 GMT-0600 (Central Standard Time),234774.5,025_y_m_h_a.png,I,m,1011,6,1,2029.2000000029802,232745.29999999702,8016,VNB,C,5
6,test,2,1.0,1-Back,1,z,Tue Feb 18 2025 14:36:58 GMT-0600 (Central Standard Time),237123.5,012_o_f_h_a.png,I,z,1323,7,1,2345.5,234778.0,8016,VNB,C,6
7,test,2,0.0,1-Back,1,m,Tue Feb 18 2025 14:36:58 GMT-0600 (Central Standard Time),239289.5,019_m_f_n_a.png,I,m,1134,8,1,2161.9000000059605,237127.59999999404,8016,VNB,C,7
8,test,2,0.0,1-Back,1,m,Tue Feb 18 2025 14:36:58 GMT-0600 (Central Standard Time),241688.59999999404,022_y_f_d_a.png,I,m,1375,9,1,2395.0999999940395,239293.5,8016,VNB,C,8
9,test,2,0.0,1-Back,1,m,Tue Feb 18 2025 14:36:58 GMT-0600 (Central Standard Time),244021.39999999106,014_m_m_n_a.png,I,m,1303,10,1,2329.5,241691.89999999106,8016,VNB,C,9
10,test,2,1.0,1-Back,1,m,Tue Feb 18 2025 14:36:58 GMT-0600 (Central Standard Time),246153.89999999106,019_m_f_h_a.png,I,m,1107,11,1,2127.8999999910593,244026.0,8016,VNB,C,10
11,test,2,0.0,1-Back,1,z,Tue Feb 18 2025 14:36:58 GMT-0600 (Central Standard Time),248236.59999999404,015_o_m_h_a.png,I,z,1055,12,1,2078.5999999940395,246158.0,8016,VNB,C,11
12,test,2,0.0,1-Back,1,m,Tue Feb 18 2025 14:36:58 GMT-0600 (Central Standard Time),250302.79999999702,025_y_m_d_a.png,I,m,1044,13,1,2062.0999999940395,248240.70000000298,8016,VNB,C,12
13,test,2,0.0,1-Back,1,m,Tue Feb 18 2025 14:36:58 GMT-0600 (Central Standard Time),252502.09999999404,012_o_f_n_a.png,I,m,1170,14,1,2195.3999999910593,250306.70000000298,8016,VNB,C,13
14,test,2,0.0,1-Back,1,z,Tue Feb 18 2025 14:36:58 GMT-0600 (Central Standard Time),254618.09999999404,022_y_f_n_a.png,I,z,1090,15,1,2111.0999999940395,252507.0,8016,VNB,C,14
15,test,2,1.0,1-Back,1,m,Tue Feb 18 2025 14:36:58 GMT-0600 (Central Standard Time),256917.39999999106,014_m_m_h_a.png,I,m,1279,16,1,2295.0999999940395,254622.29999999702,8016,VNB,C,15
15,test,2,0.0,1-Back,0,m,Tue Feb 18 2025 14:36:58 GMT-0600 (Central Standard Time),258950.09999999404,012_o_f_d_a.png,I,z,1011,17,1,2028.0,256922.09999999404,8016,VNB,C,16
16,test,2,1.0,1-Back,1,z,Tue Feb 18 2025 14:36:58 GMT-0600 (Central Standard Time),261965.70000000298,015_o_m_d_a.png,I,z,1986,18,1,3011.4000000059605,258954.29999999702,8016,VNB,C,17
0,test,3,1.0,1-Back,,,Tue Feb 18 2025 14:36:58 GMT-0600 (Central Standard Time),261965.70000000298,012_o_f_h_a.png,I,space,1235,1,1,3011.4000000059605,258954.29999999702,8016,VNB,C,0
1,test,3,0.0,1-Back,1,m,Tue Feb 18 2025 14:36:58 GMT-0600 (Central Standard Time),267330.59999999404,019_m_f_d_a.png,I,m,981,2,1,1995.0999999940395,265335.5,8016,VNB,C,1
2,test,3,1.0,1-Back,1,m,Tue Feb 18 2025 14:36:58 GMT-0600 (Central Standard Time),269546.799999997,014_m_m_n_a.png,I,m,1190,3,1,2212.2999999970198,267334.5,8016,VNB,C,2
2,test,3,0.0,1-Back,0,z,Tue Feb 18 2025 14:36:58 GMT-0600 (Central Standard Time),272545.799999997,012_o_f_n_a.png,I,m,1983,4,1,2994.4000000059605,269551.39999999106,8016,VNB,C,3
3,test,3,1.0,1-Back,1,m,Tue Feb 18 2025 14:36:58 GMT-0600 (Central Standard Time),274795.0,015_o_m_d_a.png,I,m,1232,5,1,2245.5,272549.5,8016,VNB,C,4
4,test,3,0.0,1-Back,1,m,Tue Feb 18 2025 14:36:58 GMT-0600 (Central Standard Time),277027.59999999404,022_y_f_h_a.png,I,m,1205,6,1,2229.2000000029802,274798.39999999106,8016,VNB,C,5
5,test,3,0.0,1-Back,1,z,Tue Feb 18 2025 14:36:58 GMT-0600 (Central Standard Time),279026.700000003,025_y_m_h_a.png,I,z,981,7,1,1994.6000000089407,277032.09999999404,8016,VNB,C,6
6,test,3,0.0,1-Back,1,m,Tue Feb 18 2025 14:36:58 GMT-0600 (Central Standard Time),281009.89999999106,019_m_f_n_a.png,I,m,950,8,1,1978.5999999940395,279031.299999997,8016,VNB,C,7
7,test,3,0.0,1-Back,1,m,Tue Feb 18 2025 14:36:58 GMT-0600 (Central Standard Time),283076.0,022_y_f_d_a.png,I,m,1046,9,1,2062.2000000029802,281013.799999997,8016,VNB,C,8
8,test,3,1.0,1-Back,1,m,Tue Feb 18 2025 14:36:58 GMT-0600 (Central Standard Time),285025.5,015_o_m_n_a.png,I,m,916,10,1,1945.7999999970198,283079.700000003,8016,VNB,C,9
9,test,3,0.0,1-Back,1,m,Tue Feb 18 2025 14:36:58 GMT-0600 (Central Standard Time),287557.700000003,014_m_m_h_a.png,I,m,1511,11,1,2527.4000000059605,285030.299999997,8016,VNB,C,10
10,test,3,0.0,1-Back,1,z,Tue Feb 18 2025 14:36:58 GMT-0600 (Central Standard Time),289706.700000003,019_m_f_h_a.png,I,z,1124,12,1,2144.9000000059605,287561.799999997,8016,VNB,C,11
11,test,3,1.0,1-Back,1,m,Tue Feb 18 2025 14:36:58 GMT-0600 (Central Standard Time),291639.59999999404,012_o_f_d_a.png,I,m,909,13,1,1929.5,289710.09999999404,8016,VNB,C,12
12,test,3,0.0,1-Back,1,z,Tue Feb 18 2025 14:36:58 GMT-0600 (Central Standard Time),293972.799999997,014_m_m_d_a.png,I,z,1314,14,1,2329.2000000029802,291643.59999999404,8016,VNB,C,13
13,test,3,0.0,1-Back,1,m,Tue Feb 18 2025 14:36:58 GMT-0600 (Central Standard Time),296055.0,025_y_m_n_a.png,I,m,1052,15,1,2078.0,293977.0,8016,VNB,C,14
14,test,3,1.0,1-Back,1,m,Tue Feb 18 2025 14:36:58 GMT-0600 (Central Standard Time),298071.200000003,015_o_m_h_a.png,I,m,985,16,1,2012.2000000029802,296059.0,8016,VNB,C,15
15,test,3,0.0,1-Back,1,m,Tue Feb 18 2025 14:36:58 GMT-0600 (Central Standard Time),300553.799999997,025_y_m_d_a.png,I,m,1465,17,1,2478.4000000059605,298075.39999999106,8016,VNB,C,16
16,test,3,1.0,1-Back,1,m,Tue Feb 18 2025 14:36:58 GMT-0600 (Central Standard Time),303202.5,022_y_f_n_a.png,I,m,1631,18,1,2645.6000000089407,300556.89999999106,8016,VNB,C,17
0,test,4,1.0,1-Back,,,Tue Feb 18 2025 14:36:58 GMT-0600 (Central Standard Time),303202.5,014_m_m_d_a.png,I,space,1358,1,1,2645.6000000089407,300556.89999999106,8016,VNB,C,0
1,test,4,0.0,1-Back,1,z,Tue Feb 18 2025 14:36:58 GMT-0600 (Central Standard Time),308667.799999997,015_o_m_d_a.png,I,z,1063,2,1,2078.9000000059605,306588.89999999106,8016,VNB,C,1
2,test,4,0.0,1-Back,1,m,Tue Feb 18 2025 14:36:58 GMT-0600 (Central Standard Time),310767.09999999404,025_y_m_h_a.png,I,m,1069,3,1,2095.0999999940395,308672.0,8016,VNB,C,2
3,test,4,0.0,1-Back,1,m,Tue Feb 18 2025 14:36:58 GMT-0600 (Central Standard Time),312766.5,019_m_f_n_a.png,I,m,977,4,1,1995.2999999970198,310771.200000003,8016,VNB,C,3
4,test,4,1.0,1-Back,1,m,Tue Feb 18 2025 14:36:58 GMT-0600 (Central Standard Time),314865.89999999106,012_o_f_h_a.png,I,m,1066,5,1,2095.7999999970198,312770.09999999404,8016,VNB,C,4
5,test,4,0.0,1-Back,1,m,Tue Feb 18 2025 14:36:58 GMT-0600 (Central Standard Time),317031.700000003,014_m_m_n_a.png,I,m,1134,6,1,2161.1000000089407,314870.59999999404,8016,VNB,C,5
6,test,4,0.0,1-Back,1,m,Tue Feb 18 2025 14:36:58 GMT-0600 (Central Standard Time),319343.200000003,025_y_m_d_a.png,I,m,1148,7,1,2307.5,317035.700000003,8016,VNB,C,6
7,test,4,1.0,1-Back,1,z,Tue Feb 18 2025 14:36:58 GMT-0600 (Central Standard Time),321313.700000003,022_y_f_d_a.png,I,z,949,8,1,1966.6000000089407,319347.09999999404,8016,VNB,C,7
8,test,4,0.0,1-Back,1,m,Tue Feb 18 2025 14:36:58 GMT-0600 (Central Standard Time),323163.200000003,019_m_f_h_a.png,I,m,830,9,1,1845.2000000029802,321318.0,8016,VNB,C,8
9,test,4,0.0,1-Back,1,z,Tue Feb 18 2025 14:36:58 GMT-0600 (Central Standard Time),325296.0,015_o_m_h_a.png,I,z,1100,10,1,2128.0,323168.0,8016,VNB,C,9
10,test,4,1.0,1-Back,1,m,Tue Feb 18 2025 14:36:58 GMT-0600 (Central Standard Time),327245.09999999404,012_o_f_n_a.png,I,m,921,11,1,1943.7000000029802,325301.39999999106,8016,VNB,C,10
11,test,4,0.0,1-Back,1,m,Tue Feb 18 2025 14:36:58 GMT-0600 (Central Standard Time),329377.799999997,019_m_f_d_a.png,I,m,1100,12,1,2128.5999999940395,327249.200000003,8016,VNB,C,11
12,test,4,0.0,1-Back,1,m,Tue Feb 18 2025 14:36:58 GMT-0600 (Central Standard Time),331860.39999999106,022_y_f_n_a.png,I,m,1462,13,1,2478.5999999940395,329381.799999997,8016,VNB,C,12
13,test,4,0.0,1-Back,1,m,Tue Feb 18 2025 14:36:58 GMT-0600 (Central Standard Time),334009.700000003,012_o_f_d_a.png,I,m,1125,14,1,2145.4000000059605,331864.299999997,8016,VNB,C,13
14,test,4,0.0,1-Back,1,m,Tue Feb 18 2025 14:36:58 GMT-0600 (Central Standard Time),336075.799999997,022_y_f_h_a.png,I,m,1039,15,1,2061.7000000029802,334014.09999999404,8016,VNB,C,14
15,test,4,1.0,1-Back,1,z,Tue Feb 18 2025 14:36:58 GMT-0600 (Central Standard Time),338058.700000003,014_m_m_h_a.png,I,z,956,16,1,1978.1000000089407,336080.59999999404,8016,VNB,C,15
16,test,4,0.0,1-Back,1,m,Tue Feb 18 2025 14:36:58 GMT-0600 (Central Standard Time),340141.299999997,015_o_m_n_a.png,I,m,1054,17,1,2078.9000000059605,338062.39999999106,8016,VNB,C,16
17,test,4,1.0,1-Back,1,z,Tue Feb 18 2025 14:36:58 GMT-0600 (Central Standard Time),342057.39999999106,025_y_m_n_a.png,I,z,891,18,1,1912.7999999970198,340144.59999999404,8016,VNB,C,17
0,test,5,1.0,1-Back,,,Tue Feb 18 2025 14:36:58 GMT-0600 (Central Standard Time),342057.39999999106,015_o_m_n_a.png,I,space,1471,1,1,1912.7999999970198,340144.59999999404,8016,VNB,C,0
1,test,5,1.0,1-Back,1,m,Tue Feb 18 2025 14:36:58 GMT-0600 (Central Standard Time),347589.09999999404,012_o_f_h_a.png,I,m,1013,2,1,2028.2000000029802,345560.89999999106,8016,VNB,C,1
2,test,5,0.0,1-Back,1,m,Tue Feb 18 2025 14:36:58 GMT-0600 (Central Standard Time),349488.39999999106,025_y_m_d_a.png,I,m,867,3,1,1895.0999999940395,347593.299999997,8016,VNB,C,2
3,test,5,0.0,1-Back,1,z,Tue Feb 18 2025 14:36:58 GMT-0600 (Central Standard Time),351504.39999999106,015_o_m_d_a.png,I,z,992,4,1,2012.5999999940395,349491.799999997,8016,VNB,C,3
4,test,5,0.0,1-Back,1,m,Tue Feb 18 2025 14:36:58 GMT-0600 (Central Standard Time),353420.299999997,019_m_f_h_a.png,I,m,888,5,1,1911.2999999970198,351509.0,8016,VNB,C,4
5,test,5,0.0,1-Back,1,m,Tue Feb 18 2025 14:36:58 GMT-0600 (Central Standard Time),355419.89999999106,022_y_f_n_a.png,I,m,980,6,1,1995.699999988079,353424.200000003,8016,VNB,C,5
6,test,5,1.0,1-Back,1,z,Tue Feb 18 2025 14:36:58 GMT-0600 (Central Standard Time),357336.0,012_o_f_n_a.png,I,z,893,7,1,1912.2999999970198,355423.700000003,8016,VNB,C,6
7,test,5,0.0,1-Back,1,m,Tue Feb 18 2025 14:36:58 GMT-0600 (Central Standard Time),359219.700000003,019_m_f_d_a.png,I,m,864,8,1,1879.4000000059605,357340.299999997,8016,VNB,C,7
8,test,5,0.0,1-Back,1,m,Tue Feb 18 2025 14:36:58 GMT-0600 (Central Standard Time),361434.39999999106,025_y_m_h_a.png,I,m,1189,9,1,2210.2999999970198,359224.09999999404,8016,VNB,C,8
9,test,5,0.0,1-Back,1,m,Tue Feb 18 2025 14:36:58 GMT-0600 (Central Standard Time),363950.39999999106,022_y_f_d_a.png,I,m,1486,10,1,2512.699999988079,361437.700000003,8016,VNB,C,9
10,test,5,0.0,1-Back,1,m,Tue Feb 18 2025 14:36:58 GMT-0600 (Central Standard Time),366499.299999997,014_m_m_n_a.png,I,m,1522,11,1,2544.9000000059605,363954.39999999106,8016,VNB,C,10
10,test,5,1.0,1-Back,0,z,Tue Feb 18 2025 14:36:58 GMT-0600 (Central Standard Time),368698.89999999106,019_m_f_n_a.png,I,m,1180,12,1,2196.199999988079,366502.700000003,8016,VNB,C,11
11,test,5,0.0,1-Back,1,m,Tue Feb 18 2025 14:36:58 GMT-0600 (Central Standard Time),370815.0,015_o_m_h_a.png,I,m,1085,13,1,2112.0,368703.0,8016,VNB,C,12
12,test,5,0.0,1-Back,1,z,Tue Feb 18 2025 14:36:58 GMT-0600 (Central Standard Time),373630.700000003,014_m_m_h_a.png,I,z,1794,14,1,2811.7000000029802,370819.0,8016,VNB,C,13
13,test,5,1.0,1-Back,1,m,Tue Feb 18 2025 14:36:58 GMT-0600 (Central Standard Time),375346.799999997,012_o_f_d_a.png,I,m,698,15,1,1711.5999999940395,373635.200000003,8016,VNB,C,14
14,test,5,0.0,1-Back,1,m,Tue Feb 18 2025 14:36:58 GMT-0600 (Central Standard Time),377296.39999999106,025_y_m_n_a.png,I,m,917,16,1,1945.699999988079,375350.700000003,8016,VNB,C,15
15,test,5,0.0,1-Back,1,m,Tue Feb 18 2025 14:36:58 GMT-0600 (Central Standard Time),379512.39999999106,022_y_f_h_a.png,I,m,1193,17,1,2211.7999999970198,377300.59999999404,8016,VNB,C,16
16,test,5,0.0,1-Back,1,m,Tue Feb 18 2025 14:36:58 GMT-0600 (Central Standard Time),381978.200000003,014_m_m_d_a.png,I,m,1433,18,1,2461.800000011921,379516.39999999106,8016,VNB,C,17
0,prac,1,0.0,2-Back,,,Tue Feb 18 2025 14:36:58 GMT-0600 (Central Standard Time),381978.200000003,019_m_f_n_a.png,I,space,8192,1,1,2461.800000011921,379516.39999999106,8016,VNB,C,0
0,prac,1,0.0,2-Back,,,Tue Feb 18 2025 14:36:58 GMT-0600 (Central Standard Time),381978.200000003,012_o_f_h_a.png,I,space,8192,2,1,2461.800000011921,379516.39999999106,8016,VNB,C,0
1,prac,1,0.0,2-Back,1,m,Tue Feb 18 2025 14:36:58 GMT-0600 (Central Standard Time),499741.5,015_o_m_d_a.png,I,m,1452,3,1,2343.0,497398.5,8016,VNB,C,1
2,prac,1,1.0,2-Back,1,z,Tue Feb 18 2025 14:36:58 GMT-0600 (Central Standard Time),502423.799999997,014_m_m_h_a.png,I,z,1796,4,1,2677.0,499746.799999997,8016,VNB,C,2
2,prac,1,0.0,2-Back,0,m,Tue Feb 18 2025 14:36:58 GMT-0600 (Central Standard Time),505322.799999997,022_y_f_n_a.png,I,None,2009,5,1,2893.4000000059605,502429.39999999106,8016,VNB,C,3
2,prac,1,1.0,2-Back,0,z,Tue Feb 18 2025 14:36:58 GMT-0600 (Central Standard Time),508222.09999999404,015_o_m_h_a.png,I,None,2003,6,1,2893.2000000029802,505328.89999999106,8016,VNB,C,4
3,prac,1,1.0,2-Back,1,z,Tue Feb 18 2025 14:36:58 GMT-0600 (Central Standard Time),510321.5,025_y_m_n_a.png,I,z,1216,7,1,2094.0,508227.5,8016,VNB,C,5
4,prac,1,0.0,2-Back,1,m,Tue Feb 18 2025 14:36:58 GMT-0600 (Central Standard Time),512187.59999999404,019_m_f_d_a.png,I,m,970,8,1,1860.5,510327.09999999404,8016,VNB,C,6
4,prac,1,0.0,2-Back,0,m,Tue Feb 18 2025 14:36:58 GMT-0600 (Central Standard Time),514270.299999997,012_o_f_d_a.png,I,z,1181,9,1,2076.4000000059605,512193.89999999106,8016,VNB,C,7
5,prac,1,0.0,2-Back,1,m,Tue Feb 18 2025 14:36:58 GMT-0600 (Central Standard Time),516302.700000003,014_m_m_h_a.png,I,m,1253,10,1,2025.9000000059605,514276.799999997,8016,VNB,C,8
6,prac,1,1.0,2-Back,1,z,Tue Feb 18 2025 14:36:58 GMT-0600 (Central Standard Time),518535.5,022_y_f_d_a.png,I,z,1333,11,1,2227.7999999970198,516307.700000003,8016,VNB,C,9
7,prac,1,0.0,2-Back,1,m,Tue Feb 18 2025 14:36:58 GMT-0600 (Central Standard Time),520601.59999999404,015_o_m_n_a.png,I,m,1165,12,1,2060.0999999940395,518541.5,8016,VNB,C,10
0,prac,2,0.0,2-Back,,,Tue Feb 18 2025 14:36:58 GMT-0600 (Central Standard Time),520601.59999999404,019_m_f_n_a.png,I,a,2932,1,1,2060.0999999940395,518541.5,8016,VNB,C,0
0,prac,2,0.0,2-Back,,,Tue Feb 18 2025 14:36:58 GMT-0600 (Central Standard Time),520601.59999999404,012_o_f_h_a.png,I,a,2932,2,1,2060.0999999940395,518541.5,8016,VNB,C,0
1,prac,2,0.0,2-Back,1,m,Tue Feb 18 2025 14:36:58 GMT-0600 (Central Standard Time),530998.0,015_o_m_d_a.png,I,m,1270,3,1,2161.2000000029802,528836.799999997,8016,VNB,C,1
2,prac,2,1.0,2-Back,1,z,Tue Feb 18 2025 14:36:58 GMT-0600 (Central Standard Time),532598.8999999911,014_m_m_h_a.png,I,z,828,4,1,1594.199999988079,531004.700000003,8016,VNB,C,2
3,prac,2,0.0,2-Back,1,m,Tue Feb 18 2025 14:36:58 GMT-0600 (Central Standard Time),534580.3999999911,022_y_f_n_a.png,I,m,1080,5,1,1976.7999999970198,532603.599999994,8016,VNB,C,3
4,prac,2,1.0,2-Back,1,z,Tue Feb 18 2025 14:36:58 GMT-0600 (Central Standard Time),536596.3999999911,015_o_m_h_a.png,I,z,1119,6,1,2010.5,534585.8999999911,8016,VNB,C,4
4,prac,2,1.0,2-Back,0,z,Tue Feb 18 2025 14:36:58 GMT-0600 (Central Standard Time),538696.099999994,025_y_m_n_a.png,I,m,1215,7,1,2094.0,536602.099999994,8016,VNB,C,5
5,prac,2,0.0,2-Back,1,m,Tue Feb 18 2025 14:36:58 GMT-0600 (Central Standard Time),540961.5,019_m_f_d_a.png,I,m,1364,8,1,2259.5,538702.0,8016,VNB,C,6
6,prac,2,0.0,2-Back,1,m,Tue Feb 18 2025 14:36:58 GMT-0600 (Central Standard Time),543227.799999997,012_o_f_d_a.png,I,m,1366,9,1,2259.2999999970198,540968.5,8016,VNB,C,7
7,prac,2,0.0,2-Back,1,m,Tue Feb 18 2025 14:36:58 GMT-0600 (Central Standard Time),545843.599999994,014_m_m_h_a.png,I,m,1832,10,1,2610.5999999940395,543233.0,8016,VNB,C,8
8,prac,2,1.0,2-Back,1,z,Tue Feb 18 2025 14:36:58 GMT-0600 (Central Standard Time),547776.5,022_y_f_d_a.png,I,z,1028,11,1,1927.2999999970198,545849.200000003,8016,VNB,C,9
8,prac,2,0.0,2-Back,0,m,Tue Feb 18 2025 14:36:58 GMT-0600 (Central Standard Time),550425.3999999911,015_o_m_n_a.png,I,z,1755,12,1,2642.3999999910593,547783.0,8016,VNB,C,10
0,test,1,0.0,2-Back,,,Tue Feb 18 2025 14:36:58 GMT-0600 (Central Standard Time),550425.3999999911,025_y_m_h_a.png,I,space,8264,1,1,2642.3999999910593,547783.0,8016,VNB,C,0
0,test,1,0.0,2-Back,,,Tue Feb 18 2025 14:36:58 GMT-0600 (Central Standard Time),550425.3999999911,012_o_f_n_a.png,I,space,8264,2,1,2642.3999999910593,547783.0,8016,VNB,C,0
0,test,1,0.0,2-Back,0,z,Tue Feb 18 2025 14:36:58 GMT-0600 (Central Standard Time),571635.3999999911,015_o_m_h_a.png,I,m,857,3,1,1879.5999999940395,569755.799999997,8016,VNB,C,1
0,test,1,0.0,2-Back,0,m,Tue Feb 18 2025 14:36:58 GMT-0600 (Central Standard Time),574667.8999999911,019_m_f_d_a.png,I,None,2016,4,1,3028.5999999940395,571639.299999997,8016,VNB,C,2
0,test,1,1.0,2-Back,0,m,Tue Feb 18 2025 14:36:58 GMT-0600 (Central Standard Time),577700.299999997,025_y_m_n_a.png,I,None,2015,5,1,3028.5999999940395,574671.700000003,8016,VNB,C,3
1,test,1,0.0,2-Back,1,z,Tue Feb 18 2025 14:36:58 GMT-0600 (Central Standard Time),579399.5,022_y_f_d_a.png,I,z,668,6,1,1695.2000000029802,577704.299999997,8016,VNB,C,4
2,test,1,0.0,2-Back,1,m,Tue Feb 18 2025 14:36:58 GMT-0600 (Central Standard Time),581598.8999999911,014_m_m_h_a.png,I,m,1169,7,1,2195.699999988079,579403.200000003,8016,VNB,C,5
3,test,1,1.0,2-Back,1,m,Tue Feb 18 2025 14:36:58 GMT-0600 (Central Standard Time),583881.700000003,022_y_f_n_a.png,I,m,1265,8,1,2278.9000000059605,581602.799999997,8016,VNB,C,6
4,test,1,0.0,2-Back,1,z,Tue Feb 18 2025 14:36:58 GMT-0600 (Central Standard Time),586280.700000003,012_o_f_h_a.png,I,z,1376,9,1,2395.6000000089407,583885.099999994,8016,VNB,C,7
5,test,1,0.0,2-Back,1,m,Tue Feb 18 2025 14:36:58 GMT-0600 (Central Standard Time),588313.700000003,015_o_m_d_a.png,I,m,999,10,1,2028.9000000059605,586284.799999997,8016,VNB,C,8
5,test,1,1.0,2-Back,0,m,Tue Feb 18 2025 14:36:58 GMT-0600 (Central Standard Time),590545.8999999911,014_m_m_d_a.png,I,z,1215,11,1,2228.199999988079,588317.700000003,8016,VNB,C,9
6,test,1,0.0,2-Back,1,m,Tue Feb 18 2025 14:36:58 GMT-0600 (Central Standard Time),593145.3999999911,019_m_f_n_a.png,I,m,1574,12,1,2595.8999999910593,590549.5,8016,VNB,C,10
7,test,1,0.0,2-Back,1,m,Tue Feb 18 2025 14:36:58 GMT-0600 (Central Standard Time),595244.700000003,022_y_f_h_a.png,I,m,1071,13,1,2095.4000000059605,593149.299999997,8016,VNB,C,11
8,test,1,0.0,2-Back,1,z,Tue Feb 18 2025 14:36:58 GMT-0600 (Central Standard Time),597710.599999994,014_m_m_n_a.png,I,z,1436,14,1,2462.0999999940395,595248.5,8016,VNB,C,12
8,test,1,0.0,2-Back,0,m,Tue Feb 18 2025 14:36:58 GMT-0600 (Central Standard Time),600243.299999997,025_y_m_d_a.png,I,z,1514,15,1,2528.7999999970198,597714.5,8016,VNB,C,13
9,test,1,1.0,2-Back,1,m,Tue Feb 18 2025 14:36:58 GMT-0600 (Central Standard Time),602242.299999997,019_m_f_h_a.png,I,m,981,16,1,1995.0,600247.299999997,8016,VNB,C,14
10,test,1,0.0,2-Back,1,z,Tue Feb 18 2025 14:36:58 GMT-0600 (Central Standard Time),604308.5,012_o_f_d_a.png,I,z,1045,17,1,2062.5,602246.0,8016,VNB,C,15
11,test,1,0.0,2-Back,1,m,Tue Feb 18 2025 14:36:58 GMT-0600 (Central Standard Time),606458.0,015_o_m_n_a.png,I,m,1116,18,1,2145.7000000029802,604312.299999997,8016,VNB,C,16
0,test,2,0.0,2-Back,,,Tue Feb 18 2025 14:36:58 GMT-0600 (Central Standard Time),606458.0,014_m_m_h_a.png,I,space,4439,1,1,2145.7000000029802,604312.299999997,8016,VNB,C,0
0,test,2,0.0,2-Back,,,Tue Feb 18 2025 14:36:58 GMT-0600 (Central Standard Time),606458.0,022_y_f_n_a.png,I,space,4439,2,1,2145.7000000029802,604312.299999997,8016,VNB,C,0
0,test,2,1.0,2-Back,0,z,Tue Feb 18 2025 14:36:58 GMT-0600 (Central Standard Time),618037.5,012_o_f_h_a.png,I,m,861,3,1,1879.0,616158.5,8016,VNB,C,1
0,test,2,0.0,2-Back,0,m,Tue Feb 18 2025 14:36:58 GMT-0600 (Central Standard Time),621070.0,015_o_m_d_a.png,I,None,2016,4,1,3028.5,618041.5,8016,VNB,C,2
1,test,2,0.0,2-Back,1,m,Tue Feb 18 2025 14:36:58 GMT-0600 (Central Standard Time),623869.099999994,019_m_f_d_a.png,I,m,1770,5,1,2794.7000000029802,621074.3999999911,8016,VNB,C,3
1,test,2,0.0,2-Back,0,m,Tue Feb 18 2025 14:36:58 GMT-0600 (Central Standard Time),626018.200000003,025_y_m_h_a.png,I,z,1131,6,1,2145.800000011921,623872.3999999911,8016,VNB,C,4
2,test,2,0.0,2-Back,1,m,Tue Feb 18 2025 14:36:58 GMT-0600 (Central Standard Time),628184.3999999911,012_o_f_n_a.png,I,m,1142,7,1,2162.3999999910593,626022.0,8016,VNB,C,5
3,test,2,1.0,2-Back,1,z,Tue Feb 18 2025 14:36:58 GMT-0600 (Central Standard Time),630350.3999999911,015_o_m_h_a.png,I,z,1144,8,1,2161.7999999970198,628188.599999994,8016,VNB,C,6
4,test,2,0.0,2-Back,1,m,Tue Feb 18 2025 14:36:58 GMT-0600 (Central Standard Time),632916.299999997,022_y_f_d_a.png,I,m,1546,9,1,2562.0,630354.299999997,8016,VNB,C,7
4,test,2,0.0,2-Back,0,m,Tue Feb 18 2025 14:36:58 GMT-0600 (Central Standard Time),635149.0,025_y_m_d_a.png,I,z,1212,10,1,2228.9000000059605,632920.099999994,8016,VNB,C,8
5,test,2,0.0,2-Back,1,m,Tue Feb 18 2025 14:36:58 GMT-0600 (Central Standard Time),637631.599999994,014_m_m_n_a.png,I,m,1451,11,1,2478.2000000029802,635153.3999999911,8016,VNB,C,9
6,test,2,0.0,2-Back,1,m,Tue Feb 18 2025 14:36:58 GMT-0600 (Central Standard Time),640064.099999994,019_m_f_h_a.png,I,m,1401,12,1,2428.5999999940395,637635.5,8016,VNB,C,10
7,test,2,1.0,2-Back,1,z,Tue Feb 18 2025 14:36:58 GMT-0600 (Central Standard Time),642196.799999997,015_o_m_n_a.png,I,z,1104,13,1,2128.5,640068.299999997,8016,VNB,C,11
8,test,2,0.0,2-Back,1,m,Tue Feb 18 2025 14:36:58 GMT-0600 (Central Standard Time),644496.0,012_o_f_d_a.png,I,m,1275,14,1,2295.2999999970198,642200.700000003,8016,VNB,C,12
8,test,2,0.0,2-Back,0,m,Tue Feb 18 2025 14:36:58 GMT-0600 (Central Standard Time),646795.299999997,022_y_f_h_a.png,I,z,1272,15,1,2295.2000000029802,644500.099999994,8016,VNB,C,13
8,test,2,0.0,2-Back,0,z,Tue Feb 18 2025 14:36:58 GMT-0600 (Central Standard Time),649394.200000003,014_m_m_d_a.png,I,m,1581,16,1,2595.2000000029802,646799.0,8016,VNB,C,14
8,test,2,0.0,2-Back,0,m,Tue Feb 18 2025 14:36:58 GMT-0600 (Central Standard Time),651760.299999997,025_y_m_n_a.png,I,z,1342,17,1,2362.0999999940395,649398.200000003,8016,VNB,C,15
8,test,2,1.0,2-Back,0,m,Tue Feb 18 2025 14:36:58 GMT-0600 (Central Standard Time),653909.700000003,019_m_f_n_a.png,I,z,1129,18,1,2145.6000000089407,651764.099999994,8016,VNB,C,16
0,test,3,1.0,2-Back,,,Tue Feb 18 2025 14:36:58 GMT-0600 (Central Standard Time),653909.700000003,015_o_m_n_a.png,I,space,2011,1,1,2145.6000000089407,651764.099999994,8016,VNB,C,0
0,test,3,1.0,2-Back,,,Tue Feb 18 2025 14:36:58 GMT-0600 (Central Standard Time),653909.700000003,012_o_f_d_a.png,I,space,2011,2,1,2145.6000000089407,651764.099999994,8016,VNB,C,0
1,test,3,0.0,2-Back,1,m,Tue Feb 18 2025 14:36:58 GMT-0600 (Central Standard Time),663106.799999997,022_y_f_h_a.png,I,m,989,3,1,2011.7999999970198,661095.0,8016,VNB,C,1
1,test,3,0.0,2-Back,0,z,Tue Feb 18 2025 14:36:58 GMT-0600 (Central Standard Time),665839.200000003,019_m_f_d_a.png,I,m,1710,4,1,2728.7000000029802,663110.5,8016,VNB,C,2
1,test,3,1.0,2-Back,0,m,Tue Feb 18 2025 14:36:58 GMT-0600 (Central Standard Time),667821.799999997,025_y_m_n_a.png,I,z,961,5,1,1979.0,665842.799999997,8016,VNB,C,3
2,test,3,0.0,2-Back,1,m,Tue Feb 18 2025 14:36:58 GMT-0600 (Central Standard Time),670254.5,015_o_m_h_a.png,I,m,1402,6,1,2428.7999999970198,667825.700000003,8016,VNB,C,4
2,test,3,0.0,2-Back,0,z,Tue Feb 18 2025 14:36:58 GMT-0600 (Central Standard Time),672672.5,022_y_f_n_a.png,I,m,1394,7,1,2414.2000000029802,670258.299999997,8016,VNB,C,5
3,test,3,1.0,2-Back,1,m,Tue Feb 18 2025 14:36:58 GMT-0600 (Central Standard Time),675353.099999994,014_m_m_d_a.png,I,m,1659,8,1,2676.8999999910593,672676.200000003,8016,VNB,C,6
3,test,3,0.0,2-Back,0,m,Tue Feb 18 2025 14:36:58 GMT-0600 (Central Standard Time),677618.8999999911,025_y_m_d_a.png,I,z,1239,9,1,2261.7999999970198,675357.099999994,8016,VNB,C,7
4,test,3,0.0,2-Back,1,m,Tue Feb 18 2025 14:36:58 GMT-0600 (Central Standard Time),679768.200000003,012_o_f_h_a.png,I,m,1125,10,1,2145.4000000059605,677622.799999997,8016,VNB,C,8
5,test,3,1.0,2-Back,1,m,Tue Feb 18 2025 14:36:58 GMT-0600 (Central Standard Time),682251.0,019_m_f_n_a.png,I,m,1457,11,1,2478.7999999970198,679772.200000003,8016,VNB,C,9
6,test,3,1.0,2-Back,1,z,Tue Feb 18 2025 14:36:58 GMT-0600 (Central Standard Time),684316.8999999911,014_m_m_h_a.png,I,z,1037,12,1,2061.699999988079,682255.200000003,8016,VNB,C,10
6,test,3,0.0,2-Back,0,m,Tue Feb 18 2025 14:36:58 GMT-0600 (Central Standard Time),686516.299999997,022_y_f_d_a.png,I,z,1180,13,1,2194.7999999970198,684321.5,8016,VNB,C,11
7,test,3,0.0,2-Back,1,m,Tue Feb 18 2025 14:36:58 GMT-0600 (Central Standard Time),688948.599999994,012_o_f_n_a.png,I,m,1404,14,1,2428.2999999970198,686520.299999997,8016,VNB,C,12
7,test,3,0.0,2-Back,0,z,Tue Feb 18 2025 14:36:58 GMT-0600 (Central Standard Time),691264.599999994,015_o_m_d_a.png,I,m,1283,15,1,2312.0,688952.599999994,8016,VNB,C,13
8,test,3,1.0,2-Back,1,m,Tue Feb 18 2025 14:36:58 GMT-0600 (Central Standard Time),693214.099999994,019_m_f_h_a.png,I,m,921,16,1,1945.7000000029802,691268.3999999911,8016,VNB,C,14
8,test,3,0.0,2-Back,0,m,Tue Feb 18 2025 14:36:58 GMT-0600 (Central Standard Time),695180.299999997,014_m_m_n_a.png,I,z,938,17,1,1962.5999999940395,693217.700000003,8016,VNB,C,15
8,test,3,0.0,2-Back,0,z,Tue Feb 18 2025 14:36:58 GMT-0600 (Central Standard Time),697479.3999999911,025_y_m_h_a.png,I,m,1240,18,1,2295.0,695184.3999999911,8016,VNB,C,16
0,test,4,0.0,2-Back,,,Tue Feb 18 2025 14:36:58 GMT-0600 (Central Standard Time),697479.3999999911,019_m_f_n_a.png,I,space,1857,1,1,2295.0,695184.3999999911,8016,VNB,C,0
0,test,4,0.0,2-Back,,,Tue Feb 18 2025 14:36:58 GMT-0600 (Central Standard Time),697479.3999999911,015_o_m_n_a.png,I,space,1857,2,1,2295.0,695184.3999999911,8016,VNB,C,0
1,test,4,1.0,2-Back,1,m,Tue Feb 18 2025 14:36:58 GMT-0600 (Central Standard Time),706609.8999999911,025_y_m_h_a.png,I,m,950,3,1,1979.2999999970198,704630.599999994,8016,VNB,C,1
2,test,4,1.0,2-Back,1,m,Tue Feb 18 2025 14:36:58 GMT-0600 (Central Standard Time),708659.099999994,012_o_f_d_a.png,I,m,1021,4,1,2045.0999999940395,706614.0,8016,VNB,C,2
2,test,4,0.0,2-Back,0,z,Tue Feb 18 2025 14:36:58 GMT-0600 (Central Standard Time),710941.799999997,015_o_m_h_a.png,I,m,1254,5,1,2278.7000000029802,708663.099999994,8016,VNB,C,3
2,test,4,0.0,2-Back,0,m,Tue Feb 18 2025 14:36:58 GMT-0600 (Central Standard Time),712991.299999997,014_m_m_n_a.png,I,z,1028,6,1,2046.0,710945.299999997,8016,VNB,C,4
3,test,4,0.0,2-Back,1,m,Tue Feb 18 2025 14:36:58 GMT-0600 (Central Standard Time),715323.599999994,019_m_f_d_a.png,I,m,1312,7,1,2328.0,712995.599999994,8016,VNB,C,5
3,test,4,0.0,2-Back,0,z,Tue Feb 18 2025 14:36:58 GMT-0600 (Central Standard Time),717589.599999994,022_y_f_n_a.png,I,m,1245,8,1,2262.3999999910593,715327.200000003,8016,VNB,C,6
3,test,4,1.0,2-Back,0,m,Tue Feb 18 2025 14:36:58 GMT-0600 (Central Standard Time),720038.799999997,012_o_f_h_a.png,I,z,1427,9,1,2445.4000000059605,717593.3999999911,8016,VNB,C,7
3,test,4,0.0,2-Back,0,m,Tue Feb 18 2025 14:36:58 GMT-0600 (Central Standard Time),722438.299999997,014_m_m_h_a.png,I,z,1377,10,1,2395.5999999940395,720042.700000003,8016,VNB,C,8
4,test,4,0.0,2-Back,1,m,Tue Feb 18 2025 14:36:58 GMT-0600 (Central Standard Time),724954.099999994,022_y_f_d_a.png,I,m,1491,11,1,2512.0,722442.099999994,8016,VNB,C,9
5,test,4,0.0,2-Back,1,m,Tue Feb 18 2025 14:36:58 GMT-0600 (Central Standard Time),727536.599999994,025_y_m_n_a.png,I,m,1550,12,1,2578.5999999940395,724958.0,8016,VNB,C,10
5,test,4,0.0,2-Back,0,z,Tue Feb 18 2025 14:36:58 GMT-0600 (Central Standard Time),729986.0,015_o_m_d_a.png,I,m,1417,13,1,2445.6000000089407,727540.3999999911,8016,VNB,C,11
6,test,4,1.0,2-Back,1,m,Tue Feb 18 2025 14:36:58 GMT-0600 (Central Standard Time),732068.700000003,019_m_f_h_a.png,I,m,1062,14,1,2079.5,729989.200000003,8016,VNB,C,12
7,test,4,1.0,2-Back,1,m,Tue Feb 18 2025 14:36:58 GMT-0600 (Central Standard Time),734517.700000003,022_y_f_h_a.png,I,m,1420,15,1,2444.9000000059605,732072.799999997,8016,VNB,C,13
7,test,4,0.0,2-Back,0,m,Tue Feb 18 2025 14:36:58 GMT-0600 (Central Standard Time),736683.799999997,012_o_f_n_a.png,I,z,1138,16,1,2162.0,734521.799999997,8016,VNB,C,14
7,test,4,0.0,2-Back,0,m,Tue Feb 18 2025 14:36:58 GMT-0600 (Central Standard Time),738899.599999994,025_y_m_d_a.png,I,z,1197,17,1,2212.7000000029802,736686.8999999911,8016,VNB,C,15
8,test,4,1.0,2-Back,1,m,Tue Feb 18 2025 14:36:58 GMT-0600 (Central Standard Time),741065.700000003,014_m_m_d_a.png,I,m,1140,18,1,2162.0,738903.700000003,8016,VNB,C,16
0,test,5,1.0,2-Back,,,Tue Feb 18 2025 14:36:58 GMT-0600 (Central Standard Time),741065.700000003,022_y_f_d_a.png,I,space,1367,1,1,2162.0,738903.700000003,8016,VNB,C,0
0,test,5,1.0,2-Back,,,Tue Feb 18 2025 14:36:58 GMT-0600 (Central Standard Time),741065.700000003,012_o_f_h_a.png,I,space,1367,2,1,2162.0,738903.700000003,8016,VNB,C,0
0,test,5,1.0,2-Back,0,z,Tue Feb 18 2025 14:36:58 GMT-0600 (Central Standard Time),749812.8999999911,015_o_m_d_a.png,I,m,1062,3,1,2078.199999988079,747734.700000003,8016,VNB,C,1
0,test,5,1.0,2-Back,0,m,Tue Feb 18 2025 14:36:58 GMT-0600 (Central Standard Time),752845.5,019_m_f_n_a.png,I,None,2015,4,1,3028.9000000059605,749816.599999994,8016,VNB,C,2
0,test,5,0.0,2-Back,0,m,Tue Feb 18 2025 14:36:58 GMT-0600 (Central Standard Time),755577.700000003,014_m_m_h_a.png,I,z,1715,5,1,2727.9000000059605,752849.799999997,8016,VNB,C,3
0,test,5,0.0,2-Back,0,z,Tue Feb 18 2025 14:36:58 GMT-0600 (Central Standard Time),757893.799999997,022_y_f_n_a.png,I,m,1294,6,1,2312.0999999940395,755581.700000003,8016,VNB,C,4
1,test,5,0.0,2-Back,1,m,Tue Feb 18 2025 14:36:58 GMT-0600 (Central Standard Time),760109.799999997,012_o_f_d_a.png,I,m,1194,7,1,2211.7999999970198,757898.0,8016,VNB,C,5
1,test,5,0.0,2-Back,0,m,Tue Feb 18 2025 14:36:58 GMT-0600 (Central Standard Time),762225.700000003,015_o_m_h_a.png,I,z,1084,8,1,2112.2000000029802,760113.5,8016,VNB,C,6
1,test,5,1.0,2-Back,0,z,Tue Feb 18 2025 14:36:58 GMT-0600 (Central Standard Time),764425.099999994,019_m_f_d_a.png,I,m,1166,9,1,2195.5999999940395,762229.5,8016,VNB,C,7
1,test,5,0.0,2-Back,0,m,Tue Feb 18 2025 14:36:58 GMT-0600 (Central Standard Time),766788.700000003,025_y_m_n_a.png,I,z,1346,10,1,2359.6000000089407,764429.099999994,8016,VNB,C,8
1,test,5,0.0,2-Back,0,m,Tue Feb 18 2025 14:36:58 GMT-0600 (Central Standard Time),768557.200000003,014_m_m_n_a.png,I,z,737,11,1,1765.2000000029802,766792.0,8016,VNB,C,9
2,test,5,0.0,2-Back,1,m,Tue Feb 18 2025 14:36:58 GMT-0600 (Central Standard Time),771023.0,022_y_f_h_a.png,I,m,1444,12,1,2462.9000000059605,768560.099999994,8016,VNB,C,10
3,test,5,0.0,2-Back,1,m,Tue Feb 18 2025 14:36:58 GMT-0600 (Central Standard Time),773255.700000003,025_y_m_d_a.png,I,m,1201,13,1,2228.9000000059605,771026.799999997,8016,VNB,C,11
4,test,5,1.0,2-Back,1,z,Tue Feb 18 2025 14:36:58 GMT-0600 (Central Standard Time),775571.700000003,019_m_f_h_a.png,I,z,1296,14,1,2312.2000000029802,773259.5,8016,VNB,C,12
4,test,5,0.0,2-Back,0,m,Tue Feb 18 2025 14:36:58 GMT-0600 (Central Standard Time),778220.8999999911,015_o_m_n_a.png,I,z,1630,15,1,2645.699999988079,775575.200000003,8016,VNB,C,13
5,test,5,0.0,2-Back,1,m,Tue Feb 18 2025 14:36:58 GMT-0600 (Central Standard Time),780353.3999999911,014_m_m_d_a.png,I,m,1099,16,1,2128.8999999910593,778224.5,8016,VNB,C,14
5,test,5,0.0,2-Back,0,z,Tue Feb 18 2025 14:36:58 GMT-0600 (Central Standard Time),782569.3999999911,012_o_f_n_a.png,I,m,1191,17,1,2212.2999999970198,780357.099999994,8016,VNB,C,15
6,test,5,1.0,2-Back,1,m,Tue Feb 18 2025 14:36:58 GMT-0600 (Central Standard Time),784868.5,025_y_m_h_a.png,I,m,1271,18,1,2295.1000000089407,782573.3999999911,8016,VNB,C,16
