acc_sum,block,block_c,change,condition,correct,correct_response,datetime,endtime,face,project,response,response_time,row_sel,session_number,start_end,starttime,subject_id,task,task_vers,trial
0,prac,1,,1-Back,,,Wed Apr 02 2025 11:14:16 GMT-0500 (Central Daylight Time),,097_m_f_n_a.png,O,space,3196,1,1,,,7103,NNB,B,0
1,prac,1,0.0,1-Back,1,m,Wed Apr 02 2025 11:14:16 GMT-0500 (Central Daylight Time),116976.40000000596,152_y_f_n_a.png,O,m,721,2,1,1621.9000000059605,115354.5,7103,NNB,B,1
2,prac,1,1.0,1-Back,1,z,Wed Apr 02 2025 11:14:16 GMT-0500 (Central Daylight Time),119608.80000001192,152_y_f_n_a.png,O,z,1832,3,1,2606.699999988079,117002.10000002384,7103,NNB,B,2
3,prac,1,0.0,1-Back,1,m,Wed Apr 02 2025 11:14:16 GMT-0500 (Central Daylight Time),122357.90000000596,176_o_m_n_a.png,O,m,1820,4,1,2720.0,119637.90000000596,7103,NNB,B,3
4,prac,1,0.0,1-Back,1,m,Wed Apr 02 2025 11:14:16 GMT-0500 (Central Daylight Time),124273.60000002384,126_m_m_n_a.png,O,m,981,5,1,1884.7000000178814,122388.90000000596,7103,NNB,B,4
5,prac,1,1.0,1-Back,1,z,Wed Apr 02 2025 11:14:16 GMT-0500 (Central Daylight Time),125839.80000001192,126_m_m_n_a.png,O,z,759,6,1,1534.300000011921,124305.5,7103,NNB,B,5
6,prac,1,0.0,1-Back,1,m,Wed Apr 02 2025 11:14:16 GMT-0500 (Central Daylight Time),127656.0,086_o_f_n_a.png,O,m,853,7,1,1785.3999999761581,125870.60000002384,7103,NNB,B,6
7,prac,1,0.0,1-Back,1,m,Wed Apr 02 2025 11:14:16 GMT-0500 (Central Daylight Time),129471.80000001192,178_m_m_n_a.png,O,m,879,8,1,1786.0,127685.80000001192,7103,NNB,B,7
8,prac,1,0.0,1-Back,1,m,Wed Apr 02 2025 11:14:16 GMT-0500 (Central Daylight Time),131121.40000000596,097_m_f_n_a.png,O,m,716,9,1,1618.7999999821186,129502.60000002384,7103,NNB,B,8
9,prac,1,1.0,1-Back,1,z,Wed Apr 02 2025 11:14:16 GMT-0500 (Central Daylight Time),132737.60000002384,097_m_f_n_a.png,O,z,797,10,1,1579.800000011921,131157.80000001192,7103,NNB,B,9
10,prac,1,0.0,1-Back,1,m,Wed Apr 02 2025 11:14:16 GMT-0500 (Central Daylight Time),134504.30000001192,176_o_m_n_a.png,O,m,801,11,1,1719.9000000059605,132784.40000000596,7103,NNB,B,10
11,prac,1,0.0,1-Back,1,m,Wed Apr 02 2025 11:14:16 GMT-0500 (Central Daylight Time),136152.20000001788,173_y_f_n_a.png,O,m,706,12,1,1617.5999999940395,134534.60000002384,7103,NNB,B,11
0,test,1,0.0,1-Back,,,Wed Apr 02 2025 11:14:16 GMT-0500 (Central Daylight Time),136152.20000001788,152_y_f_n_a.png,O,space,12364,1,1,1617.5999999940395,134534.60000002384,7103,NNB,B,0
1,test,1,0.0,1-Back,1,m,Wed Apr 02 2025 11:14:16 GMT-0500 (Central Daylight Time),178139.5,029_m_f_n_a.png,O,m,873,2,1,1894.0,176245.5,7103,NNB,B,1
2,test,1,0.0,1-Back,1,m,Wed Apr 02 2025 11:14:16 GMT-0500 (Central Daylight Time),179972.30000001192,173_y_f_n_a.png,O,m,782,3,1,1814.300000011921,178158.0,7103,NNB,B,2
3,test,1,1.0,1-Back,1,z,Wed Apr 02 2025 11:14:16 GMT-0500 (Central Daylight Time),181754.80000001192,173_y_f_n_a.png,O,z,741,4,1,1763.199999988079,179991.60000002384,7103,NNB,B,3
4,test,1,0.0,1-Back,1,m,Wed Apr 02 2025 11:14:16 GMT-0500 (Central Daylight Time),183770.70000001788,029_m_f_n_a.png,O,m,975,5,1,1992.0,181778.70000001788,7103,NNB,B,4
5,test,1,0.0,1-Back,1,m,Wed Apr 02 2025 11:14:16 GMT-0500 (Central Daylight Time),185636.70000001788,176_o_m_n_a.png,O,m,823,6,1,1846.800000011921,183789.90000000596,7103,NNB,B,5
6,test,1,1.0,1-Back,1,z,Wed Apr 02 2025 11:14:16 GMT-0500 (Central Daylight Time),187718.60000002384,176_o_m_n_a.png,O,z,1038,7,1,2063.9000000059605,185654.70000001788,7103,NNB,B,6
7,test,1,0.0,1-Back,1,m,Wed Apr 02 2025 11:14:16 GMT-0500 (Central Daylight Time),189602.30000001192,126_m_m_n_a.png,O,m,851,8,1,1879.699999988079,187722.60000002384,7103,NNB,B,7
8,test,1,0.0,1-Back,1,m,Wed Apr 02 2025 11:14:16 GMT-0500 (Central Daylight Time),191485.0,086_o_f_n_a.png,O,m,847,9,1,1862.5999999940395,189622.40000000596,7103,NNB,B,8
9,test,1,0.0,1-Back,1,m,Wed Apr 02 2025 11:14:16 GMT-0500 (Central Daylight Time),193667.30000001192,126_m_m_n_a.png,O,m,1140,10,1,2163.4000000059605,191503.90000000596,7103,NNB,B,9
10,test,1,0.0,1-Back,1,m,Wed Apr 02 2025 11:14:16 GMT-0500 (Central Daylight Time),195433.90000000596,153_y_m_n_a.png,O,m,718,11,1,1747.7999999821186,193686.10000002384,7103,NNB,B,10
11,test,1,1.0,1-Back,1,z,Wed Apr 02 2025 11:14:16 GMT-0500 (Central Daylight Time),197133.10000002384,153_y_m_n_a.png,O,z,656,12,1,1677.800000011921,195455.30000001192,7103,NNB,B,11
12,test,1,0.0,1-Back,1,m,Wed Apr 02 2025 11:14:16 GMT-0500 (Central Daylight Time),198965.40000000596,110_o_f_n_a.png,O,m,796,13,1,1813.5999999940395,197151.80000001192,7103,NNB,B,12
13,test,1,1.0,1-Back,1,z,Wed Apr 02 2025 11:14:16 GMT-0500 (Central Daylight Time),201131.70000001788,110_o_f_n_a.png,O,z,1116,14,1,2147.300000011921,198984.40000000596,7103,NNB,B,13
14,test,1,0.0,1-Back,1,m,Wed Apr 02 2025 11:14:16 GMT-0500 (Central Daylight Time),202847.80000001192,013_y_m_n_a.png,O,m,670,15,1,1694.4000000059605,201153.40000000596,7103,NNB,B,14
15,test,1,0.0,1-Back,1,m,Wed Apr 02 2025 11:14:16 GMT-0500 (Central Daylight Time),204813.40000000596,097_m_f_n_a.png,O,m,930,16,1,1946.4000000059605,202867.0,7103,NNB,B,15
16,test,1,0.0,1-Back,1,m,Wed Apr 02 2025 11:14:16 GMT-0500 (Central Daylight Time),206597.0,065_o_m_n_a.png,O,m,747,17,1,1762.2999999821186,204834.70000001788,7103,NNB,B,16
17,test,1,0.0,1-Back,1,m,Wed Apr 02 2025 11:14:16 GMT-0500 (Central Daylight Time),208279.40000000596,097_m_f_n_a.png,O,m,637,18,1,1657.2999999821186,206622.10000002384,7103,NNB,B,17
0,test,2,0.0,1-Back,,,Wed Apr 02 2025 11:14:16 GMT-0500 (Central Daylight Time),208279.40000000596,126_m_m_n_a.png,O,space,2833,1,1,1657.2999999821186,206622.10000002384,7103,NNB,B,0
1,test,2,0.0,1-Back,1,m,Wed Apr 02 2025 11:14:16 GMT-0500 (Central Daylight Time),215527.0,029_m_f_n_a.png,O,m,1220,2,1,2251.5999999940395,213275.40000000596,7103,NNB,B,1
1,test,2,1.0,1-Back,0,z,Wed Apr 02 2025 11:14:16 GMT-0500 (Central Daylight Time),217925.5,029_m_f_n_a.png,O,m,1354,3,1,2379.7999999821186,215545.70000001788,7103,NNB,B,2
2,test,2,0.0,1-Back,1,m,Wed Apr 02 2025 11:14:16 GMT-0500 (Central Daylight Time),219842.10000002384,126_m_m_n_a.png,O,m,883,4,1,1912.7000000178814,217929.40000000596,7103,NNB,B,3
3,test,2,0.0,1-Back,1,m,Wed Apr 02 2025 11:14:16 GMT-0500 (Central Daylight Time),221560.70000001788,153_y_m_n_a.png,O,m,683,5,1,1704.2000000178814,219856.5,7103,NNB,B,4
4,test,2,0.0,1-Back,1,m,Wed Apr 02 2025 11:14:16 GMT-0500 (Central Daylight Time),223374.20000001788,152_y_f_n_a.png,O,m,796,6,1,1808.300000011921,221565.90000000596,7103,NNB,B,5
5,test,2,1.0,1-Back,1,z,Wed Apr 02 2025 11:14:16 GMT-0500 (Central Daylight Time),225523.70000001788,152_y_f_n_a.png,O,z,1107,7,1,2118.2000000178814,223405.5,7103,NNB,B,6
6,test,2,0.0,1-Back,1,m,Wed Apr 02 2025 11:14:16 GMT-0500 (Central Daylight Time),227606.30000001192,153_y_m_n_a.png,O,m,1046,8,1,2063.0999999940395,225543.20000001788,7103,NNB,B,7
7,test,2,0.0,1-Back,1,m,Wed Apr 02 2025 11:14:16 GMT-0500 (Central Daylight Time),229805.20000001788,110_o_f_n_a.png,O,m,1163,9,1,2179.7000000178814,227625.5,7103,NNB,B,8
8,test,2,0.0,1-Back,1,m,Wed Apr 02 2025 11:14:16 GMT-0500 (Central Daylight Time),231621.80000001192,178_m_m_n_a.png,O,m,772,10,1,1797.699999988079,229824.10000002384,7103,NNB,B,9
9,test,2,1.0,1-Back,1,z,Wed Apr 02 2025 11:14:16 GMT-0500 (Central Daylight Time),233454.40000000596,178_m_m_n_a.png,O,z,796,11,1,1803.9000000059605,231650.5,7103,NNB,B,10
10,test,2,0.0,1-Back,1,m,Wed Apr 02 2025 11:14:16 GMT-0500 (Central Daylight Time),235687.0,110_o_f_n_a.png,O,m,1187,12,1,2215.7999999821186,233471.20000001788,7103,NNB,B,11
11,test,2,0.0,1-Back,1,m,Wed Apr 02 2025 11:14:16 GMT-0500 (Central Daylight Time),238252.80000001192,086_o_f_n_a.png,O,m,1522,13,1,2547.800000011921,235705.0,7103,NNB,B,12
12,test,2,0.0,1-Back,1,m,Wed Apr 02 2025 11:14:16 GMT-0500 (Central Daylight Time),240102.40000000596,176_o_m_n_a.png,O,m,804,14,1,1828.4000000059605,238274.0,7103,NNB,B,13
13,test,2,0.0,1-Back,1,m,Wed Apr 02 2025 11:14:16 GMT-0500 (Central Daylight Time),242268.20000001788,065_o_m_n_a.png,O,m,1115,15,1,2144.300000011921,240123.90000000596,7103,NNB,B,14
14,test,2,1.0,1-Back,1,z,Wed Apr 02 2025 11:14:16 GMT-0500 (Central Daylight Time),244284.30000001192,065_o_m_n_a.png,O,z,966,16,1,1996.5999999940395,242287.70000001788,7103,NNB,B,15
15,test,2,0.0,1-Back,1,m,Wed Apr 02 2025 11:14:16 GMT-0500 (Central Daylight Time),246267.20000001788,013_y_m_n_a.png,O,m,932,17,1,1962.300000011921,244304.90000000596,7103,NNB,B,16
16,test,2,1.0,1-Back,1,z,Wed Apr 02 2025 11:14:16 GMT-0500 (Central Daylight Time),247999.40000000596,013_y_m_n_a.png,O,z,687,18,1,1714.199999988079,246285.20000001788,7103,NNB,B,17
0,test,3,1.0,1-Back,,,Wed Apr 02 2025 11:14:16 GMT-0500 (Central Daylight Time),247999.40000000596,173_y_f_n_a.png,O,space,4770,1,1,1714.199999988079,246285.20000001788,7103,NNB,B,0
1,test,3,0.0,1-Back,1,m,Wed Apr 02 2025 11:14:16 GMT-0500 (Central Daylight Time),256763.5,065_o_m_n_a.png,O,m,783,1,1,1810.199999988079,254953.30000001192,7103,NNB,B,1
2,test,3,1.0,1-Back,1,z,Wed Apr 02 2025 11:14:16 GMT-0500 (Central Daylight Time),258729.20000001788,065_o_m_n_a.png,O,z,926,1,1,1945.9000000059605,256783.30000001192,7103,NNB,B,2
3,test,3,0.0,1-Back,1,m,Wed Apr 02 2025 11:14:16 GMT-0500 (Central Daylight Time),260462.20000001788,097_m_f_n_a.png,O,m,696,1,1,1715.300000011921,258746.90000000596,7103,NNB,B,3
4,test,3,1.0,1-Back,1,z,Wed Apr 02 2025 11:14:16 GMT-0500 (Central Daylight Time),262711.7000000179,097_m_f_n_a.png,O,z,1211,1,1,2230.5999999940395,260481.10000002384,7103,NNB,B,4
5,test,3,0.0,1-Back,1,m,Wed Apr 02 2025 11:14:16 GMT-0500 (Central Daylight Time),264594.2000000179,110_o_f_n_a.png,O,m,834,1,1,1863.800000011921,262730.40000000596,7103,NNB,B,5
6,test,3,0.0,1-Back,1,m,Wed Apr 02 2025 11:14:16 GMT-0500 (Central Daylight Time),266427.0,153_y_m_n_a.png,O,m,791,1,1,1813.699999988079,264613.3000000119,7103,NNB,B,6
7,test,3,0.0,1-Back,1,m,Wed Apr 02 2025 11:14:16 GMT-0500 (Central Daylight Time),268759.60000002384,110_o_f_n_a.png,O,m,1294,1,1,2307.100000023842,266452.5,7103,NNB,B,7
8,test,3,0.0,1-Back,1,m,Wed Apr 02 2025 11:14:16 GMT-0500 (Central Daylight Time),270575.40000000596,013_y_m_n_a.png,O,m,778,1,1,1796.199999988079,268779.2000000179,7103,NNB,B,8
9,test,3,1.0,1-Back,1,z,Wed Apr 02 2025 11:14:16 GMT-0500 (Central Daylight Time),272309.0,013_y_m_n_a.png,O,z,698,1,1,1714.5999999940395,270594.40000000596,7103,NNB,B,9
10,test,3,0.0,1-Back,1,m,Wed Apr 02 2025 11:14:16 GMT-0500 (Central Daylight Time),274091.10000002384,029_m_f_n_a.png,O,m,741,1,1,1764.0,272327.10000002384,7103,NNB,B,10
11,test,3,0.0,1-Back,1,m,Wed Apr 02 2025 11:14:16 GMT-0500 (Central Daylight Time),275790.7000000179,152_y_f_n_a.png,O,m,654,1,1,1681.5999999940395,274109.10000002384,7103,NNB,B,11
12,test,3,1.0,1-Back,1,z,Wed Apr 02 2025 11:14:16 GMT-0500 (Central Daylight Time),277639.90000000596,152_y_f_n_a.png,O,z,810,1,1,1828.5999999940395,275811.3000000119,7103,NNB,B,12
13,test,3,0.0,1-Back,1,m,Wed Apr 02 2025 11:14:16 GMT-0500 (Central Daylight Time),279489.2000000179,029_m_f_n_a.png,O,m,801,1,1,1823.800000011921,277665.40000000596,7103,NNB,B,13
14,test,3,0.0,1-Back,1,m,Wed Apr 02 2025 11:14:16 GMT-0500 (Central Daylight Time),281405.3000000119,126_m_m_n_a.png,O,m,872,1,1,1897.699999988079,279507.60000002384,7103,NNB,B,14
15,test,3,1.0,1-Back,1,z,Wed Apr 02 2025 11:14:16 GMT-0500 (Central Daylight Time),283254.8000000119,126_m_m_n_a.png,O,z,812,1,1,1829.199999988079,281425.60000002384,7103,NNB,B,15
16,test,3,0.0,1-Back,1,m,Wed Apr 02 2025 11:14:16 GMT-0500 (Central Daylight Time),285504.7000000179,086_o_f_n_a.png,O,m,1215,1,1,2230.0,283274.7000000179,7103,NNB,B,16
17,test,3,1.0,1-Back,1,z,Wed Apr 02 2025 11:14:16 GMT-0500 (Central Daylight Time),287320.10000002384,086_o_f_n_a.png,O,z,777,1,1,1797.0,285523.10000002384,7103,NNB,B,17
0,test,4,1.0,1-Back,,,Wed Apr 02 2025 11:14:16 GMT-0500 (Central Daylight Time),287320.10000002384,097_m_f_n_a.png,O,space,1875,1,1,1797.0,285523.10000002384,7103,NNB,B,0
1,test,4,0.0,1-Back,1,m,Wed Apr 02 2025 11:14:16 GMT-0500 (Central Daylight Time),293035.0,065_o_m_n_a.png,O,m,633,2,1,1665.199999988079,291369.8000000119,7103,NNB,B,1
2,test,4,0.0,1-Back,1,m,Wed Apr 02 2025 11:14:16 GMT-0500 (Central Daylight Time),295051.0,097_m_f_n_a.png,O,m,974,3,1,1997.0,293054.0,7103,NNB,B,2
3,test,4,0.0,1-Back,1,m,Wed Apr 02 2025 11:14:16 GMT-0500 (Central Daylight Time),296883.60000002384,110_o_f_n_a.png,O,m,790,4,1,1813.300000011921,295070.3000000119,7103,NNB,B,3
4,test,4,1.0,1-Back,1,z,Wed Apr 02 2025 11:14:16 GMT-0500 (Central Daylight Time),298749.7000000179,110_o_f_n_a.png,O,z,823,5,1,1843.9000000059605,296905.8000000119,7103,NNB,B,4
5,test,4,0.0,1-Back,1,m,Wed Apr 02 2025 11:14:16 GMT-0500 (Central Daylight Time),300732.40000000596,152_y_f_n_a.png,O,m,940,6,1,1966.0,298766.40000000596,7103,NNB,B,5
6,test,4,0.0,1-Back,1,m,Wed Apr 02 2025 11:14:16 GMT-0500 (Central Daylight Time),302582.10000002384,153_y_m_n_a.png,O,m,813,7,1,1821.1000000238419,300761.0,7103,NNB,B,6
7,test,4,1.0,1-Back,1,z,Wed Apr 02 2025 11:14:16 GMT-0500 (Central Daylight Time),304230.90000000596,153_y_m_n_a.png,O,z,612,8,1,1624.2999999821186,302606.60000002384,7103,NNB,B,7
8,test,4,0.0,1-Back,1,m,Wed Apr 02 2025 11:14:16 GMT-0500 (Central Daylight Time),306163.90000000596,152_y_f_n_a.png,O,m,890,9,1,1915.5999999940395,304248.3000000119,7103,NNB,B,8
9,test,4,0.0,1-Back,1,m,Wed Apr 02 2025 11:14:16 GMT-0500 (Central Daylight Time),307946.8000000119,178_m_m_n_a.png,O,m,734,10,1,1762.199999988079,306184.60000002384,7103,NNB,B,9
10,test,4,1.0,1-Back,1,z,Wed Apr 02 2025 11:14:16 GMT-0500 (Central Daylight Time),309779.7000000179,178_m_m_n_a.png,O,z,782,11,1,1813.0999999940395,307966.60000002384,7103,NNB,B,10
11,test,4,0.0,1-Back,1,m,Wed Apr 02 2025 11:14:16 GMT-0500 (Central Daylight Time),311762.0,086_o_f_n_a.png,O,m,943,12,1,1962.3999999761581,309799.60000002384,7103,NNB,B,11
12,test,4,0.0,1-Back,1,m,Wed Apr 02 2025 11:14:16 GMT-0500 (Central Daylight Time),313544.90000000596,176_o_m_n_a.png,O,m,743,13,1,1764.0999999940395,311780.8000000119,7103,NNB,B,12
13,test,4,0.0,1-Back,1,m,Wed Apr 02 2025 11:14:16 GMT-0500 (Central Daylight Time),315411.0,086_o_f_n_a.png,O,m,818,14,1,1841.5,313569.5,7103,NNB,B,13
14,test,4,0.0,1-Back,1,m,Wed Apr 02 2025 11:14:16 GMT-0500 (Central Daylight Time),317227.0,173_y_f_n_a.png,O,m,758,15,1,1786.199999988079,315440.8000000119,7103,NNB,B,14
15,test,4,1.0,1-Back,1,z,Wed Apr 02 2025 11:14:16 GMT-0500 (Central Daylight Time),318925.7000000179,173_y_f_n_a.png,O,z,662,16,1,1680.5,317245.2000000179,7103,NNB,B,15
16,test,4,0.0,1-Back,1,m,Wed Apr 02 2025 11:14:16 GMT-0500 (Central Daylight Time),320625.90000000596,029_m_f_n_a.png,O,m,677,17,1,1695.4000000059605,318930.5,7103,NNB,B,16
17,test,4,1.0,1-Back,1,z,Wed Apr 02 2025 11:14:16 GMT-0500 (Central Daylight Time),322392.5,029_m_f_n_a.png,O,z,720,18,1,1748.199999988079,320644.3000000119,7103,NNB,B,17
0,test,5,1.0,1-Back,,,Wed Apr 02 2025 11:14:16 GMT-0500 (Central Daylight Time),322392.5,176_o_m_n_a.png,O,space,1241,1,1,1748.199999988079,320644.3000000119,7103,NNB,B,0
1,test,5,1.0,1-Back,1,z,Wed Apr 02 2025 11:14:16 GMT-0500 (Central Daylight Time),327540.3000000119,176_o_m_n_a.png,O,z,690,2,1,1713.0,325827.3000000119,7103,NNB,B,1
2,test,5,0.0,1-Back,1,m,Wed Apr 02 2025 11:14:16 GMT-0500 (Central Daylight Time),329556.40000000596,152_y_f_n_a.png,O,m,965,3,1,1997.5999999940395,327558.8000000119,7103,NNB,B,2
3,test,5,0.0,1-Back,1,m,Wed Apr 02 2025 11:14:16 GMT-0500 (Central Daylight Time),331605.60000002384,153_y_m_n_a.png,O,m,1005,4,1,2030.800000011921,329574.8000000119,7103,NNB,B,3
4,test,5,0.0,1-Back,1,m,Wed Apr 02 2025 11:14:16 GMT-0500 (Central Daylight Time),333355.0,152_y_f_n_a.png,O,m,702,5,1,1731.0,331624.0,7103,NNB,B,4
5,test,5,0.0,1-Back,1,m,Wed Apr 02 2025 11:14:16 GMT-0500 (Central Daylight Time),334987.7000000179,126_m_m_n_a.png,O,m,583,6,1,1614.300000011921,333373.40000000596,7103,NNB,B,5
6,test,5,1.0,1-Back,1,z,Wed Apr 02 2025 11:14:16 GMT-0500 (Central Daylight Time),336720.7000000179,126_m_m_n_a.png,O,z,686,7,1,1716.300000011921,335004.40000000596,7103,NNB,B,6
7,test,5,0.0,1-Back,1,m,Wed Apr 02 2025 11:14:16 GMT-0500 (Central Daylight Time),338821.2000000179,173_y_f_n_a.png,O,m,1065,8,1,2075.800000011921,336745.40000000596,7103,NNB,B,7
8,test,5,0.0,1-Back,1,m,Wed Apr 02 2025 11:14:16 GMT-0500 (Central Daylight Time),340719.2000000179,013_y_m_n_a.png,O,m,853,9,1,1879.9000000059605,338839.3000000119,7103,NNB,B,8
9,test,5,0.0,1-Back,1,m,Wed Apr 02 2025 11:14:16 GMT-0500 (Central Daylight Time),342469.3000000119,173_y_f_n_a.png,O,m,700,10,1,1716.4000000059605,340752.90000000596,7103,NNB,B,9
10,test,5,0.0,1-Back,1,m,Wed Apr 02 2025 11:14:16 GMT-0500 (Central Daylight Time),344218.0,086_o_f_n_a.png,O,m,709,11,1,1726.2999999821186,342491.7000000179,7103,NNB,B,10
11,test,5,1.0,1-Back,1,z,Wed Apr 02 2025 11:14:16 GMT-0500 (Central Daylight Time),345984.10000002384,086_o_f_n_a.png,O,z,719,12,1,1739.5,344244.60000002384,7103,NNB,B,11
12,test,5,0.0,1-Back,1,m,Wed Apr 02 2025 11:14:16 GMT-0500 (Central Daylight Time),347717.10000002384,065_o_m_n_a.png,O,m,698,13,1,1714.9000000059605,346002.2000000179,7103,NNB,B,12
13,test,5,0.0,1-Back,1,m,Wed Apr 02 2025 11:14:16 GMT-0500 (Central Daylight Time),349516.40000000596,097_m_f_n_a.png,O,m,757,14,1,1770.5999999940395,347745.8000000119,7103,NNB,B,13
14,test,5,1.0,1-Back,1,z,Wed Apr 02 2025 11:14:16 GMT-0500 (Central Daylight Time),351299.10000002384,097_m_f_n_a.png,O,z,741,15,1,1757.4000000059605,349541.7000000179,7103,NNB,B,14
15,test,5,0.0,1-Back,1,m,Wed Apr 02 2025 11:14:16 GMT-0500 (Central Daylight Time),353231.60000002384,065_o_m_n_a.png,O,m,888,16,1,1914.0,351317.60000002384,7103,NNB,B,15
16,test,5,0.0,1-Back,1,m,Wed Apr 02 2025 11:14:16 GMT-0500 (Central Daylight Time),354981.2000000179,029_m_f_n_a.png,O,m,706,17,1,1733.4000000059605,353247.8000000119,7103,NNB,B,16
17,test,5,0.0,1-Back,1,m,Wed Apr 02 2025 11:14:16 GMT-0500 (Central Daylight Time),356747.3000000119,178_m_m_n_a.png,O,m,725,18,1,1746.9000000059605,355000.40000000596,7103,NNB,B,17
0,prac,1,0.0,2-Back,,,Wed Apr 02 2025 11:14:16 GMT-0500 (Central Daylight Time),356747.3000000119,013_y_m_n_a.png,O,space,10013,1,1,1746.9000000059605,355000.40000000596,7103,NNB,B,0
0,prac,1,0.0,2-Back,,,Wed Apr 02 2025 11:14:16 GMT-0500 (Central Daylight Time),356747.3000000119,029_m_f_n_a.png,O,space,10013,2,1,1746.9000000059605,355000.40000000596,7103,NNB,B,0
1,prac,1,1.0,2-Back,1,m,Wed Apr 02 2025 11:14:16 GMT-0500 (Central Daylight Time),470162.60000002384,065_o_m_n_a.png,O,m,1135,3,1,2065.5,468097.10000002384,7103,NNB,B,1
1,prac,1,0.0,2-Back,0,m,Wed Apr 02 2025 11:14:16 GMT-0500 (Central Daylight Time),473142.60000002384,086_o_f_n_a.png,O,None,2011,4,1,2954.4000000059605,470188.2000000179,7103,NNB,B,2
2,prac,1,0.0,2-Back,1,z,Wed Apr 02 2025 11:14:16 GMT-0500 (Central Daylight Time),475491.2000000179,065_o_m_n_a.png,O,z,1544,5,1,2321.0,473170.2000000179,7103,NNB,B,3
3,prac,1,1.0,2-Back,1,z,Wed Apr 02 2025 11:14:16 GMT-0500 (Central Daylight Time),477690.90000000596,086_o_f_n_a.png,O,z,1227,6,1,2183.9000000059605,475507.0,7103,NNB,B,4
4,prac,1,0.0,2-Back,1,m,Wed Apr 02 2025 11:14:16 GMT-0500 (Central Daylight Time),479507.0,178_m_m_n_a.png,O,m,885,7,1,1785.5,477721.5,7103,NNB,B,5
5,prac,1,0.0,2-Back,1,m,Wed Apr 02 2025 11:14:16 GMT-0500 (Central Daylight Time),481256.5,176_o_m_n_a.png,O,m,788,8,1,1720.8999999761581,479535.60000002384,7103,NNB,B,6
6,prac,1,0.0,2-Back,1,m,Wed Apr 02 2025 11:14:16 GMT-0500 (Central Daylight Time),483272.90000000596,173_y_f_n_a.png,O,m,1071,9,1,1988.2999999821186,481284.60000002384,7103,NNB,B,7
7,prac,1,1.0,2-Back,1,z,Wed Apr 02 2025 11:14:16 GMT-0500 (Central Daylight Time),485155.3000000119,176_o_m_n_a.png,O,z,1074,10,1,1857.199999988079,483298.10000002384,7103,NNB,B,8
8,prac,1,0.0,2-Back,1,m,Wed Apr 02 2025 11:14:16 GMT-0500 (Central Daylight Time),487487.8000000119,152_y_f_n_a.png,O,m,1402,11,1,2302.5,485185.3000000119,7103,NNB,B,9
9,prac,1,0.0,2-Back,1,m,Wed Apr 02 2025 11:14:16 GMT-0500 (Central Daylight Time),489853.8000000119,178_m_m_n_a.png,O,m,1562,12,1,2335.5999999940395,487518.2000000179,7103,NNB,B,10
0,test,1,0.0,2-Back,,,Wed Apr 02 2025 11:14:16 GMT-0500 (Central Daylight Time),489853.8000000119,153_y_m_n_a.png,O,space,8852,1,1,2335.5999999940395,487518.2000000179,7103,NNB,B,0
0,test,1,0.0,2-Back,,,Wed Apr 02 2025 11:14:16 GMT-0500 (Central Daylight Time),489853.8000000119,153_y_m_n_a.png,O,space,8852,2,1,2335.5999999940395,487518.2000000179,7103,NNB,B,0
1,test,1,0.0,2-Back,1,m,Wed Apr 02 2025 11:14:16 GMT-0500 (Central Daylight Time),514429.0,086_o_f_n_a.png,O,m,807,3,1,1832.199999988079,512596.8000000119,7103,NNB,B,1
2,test,1,0.0,2-Back,1,m,Wed Apr 02 2025 11:14:16 GMT-0500 (Central Daylight Time),516895.0,126_m_m_n_a.png,O,m,1421,4,1,2447.5,514447.5,7103,NNB,B,2
3,test,1,1.0,2-Back,1,z,Wed Apr 02 2025 11:14:16 GMT-0500 (Central Daylight Time),518910.8000000119,086_o_f_n_a.png,O,z,971,5,1,1997.5999999940395,516913.2000000179,7103,NNB,B,3
4,test,1,0.0,2-Back,1,m,Wed Apr 02 2025 11:14:16 GMT-0500 (Central Daylight Time),521226.60000002384,152_y_f_n_a.png,O,m,1268,6,1,2298.4000000059605,518928.2000000179,7103,NNB,B,4
5,test,1,0.0,2-Back,1,m,Wed Apr 02 2025 11:14:16 GMT-0500 (Central Daylight Time),523625.60000002384,126_m_m_n_a.png,O,m,1359,7,1,2379.9000000059605,521245.7000000179,7103,NNB,B,5
6,test,1,1.0,2-Back,1,z,Wed Apr 02 2025 11:14:16 GMT-0500 (Central Daylight Time),526175.1000000238,152_y_f_n_a.png,O,z,1513,8,1,2531.100000023842,523644.0,7103,NNB,B,6
7,test,1,0.0,2-Back,1,m,Wed Apr 02 2025 11:14:16 GMT-0500 (Central Daylight Time),528907.5,013_y_m_n_a.png,O,m,1683,9,1,2715.0999999940395,526192.400000006,7103,NNB,B,7
8,test,1,0.0,2-Back,1,m,Wed Apr 02 2025 11:14:16 GMT-0500 (Central Daylight Time),531056.6000000238,110_o_f_n_a.png,O,m,1110,10,1,2131.4000000059605,528925.2000000179,7103,NNB,B,8
9,test,1,1.0,2-Back,1,z,Wed Apr 02 2025 11:14:16 GMT-0500 (Central Daylight Time),533039.400000006,013_y_m_n_a.png,O,z,928,11,1,1944.9000000059605,531094.5,7103,NNB,B,9
10,test,1,0.0,2-Back,1,m,Wed Apr 02 2025 11:14:16 GMT-0500 (Central Daylight Time),535555.2000000179,029_m_f_n_a.png,O,m,1466,12,1,2496.7000000178814,533058.5,7103,NNB,B,10
10,test,1,0.0,2-Back,0,m,Wed Apr 02 2025 11:14:16 GMT-0500 (Central Daylight Time),538604.5,029_m_f_n_a.png,O,None,2014,13,1,3031.899999976158,535572.6000000238,7103,NNB,B,11
11,test,1,0.0,2-Back,1,m,Wed Apr 02 2025 11:14:16 GMT-0500 (Central Daylight Time),541003.400000006,065_o_m_n_a.png,O,m,1349,14,1,2381.0999999940395,538622.3000000119,7103,NNB,B,12
12,test,1,0.0,2-Back,1,m,Wed Apr 02 2025 11:14:16 GMT-0500 (Central Daylight Time),543003.0,110_o_f_n_a.png,O,m,950,15,1,1977.199999988079,541025.8000000119,7103,NNB,B,13
13,test,1,1.0,2-Back,1,z,Wed Apr 02 2025 11:14:16 GMT-0500 (Central Daylight Time),545301.7000000179,065_o_m_n_a.png,O,z,1263,16,1,2280.9000000059605,543020.8000000119,7103,NNB,B,14
14,test,1,0.0,2-Back,1,m,Wed Apr 02 2025 11:14:16 GMT-0500 (Central Daylight Time),547618.2000000179,097_m_f_n_a.png,O,m,1267,17,1,2297.5999999940395,545320.6000000238,7103,NNB,B,15
15,test,1,0.0,2-Back,1,m,Wed Apr 02 2025 11:14:16 GMT-0500 (Central Daylight Time),550083.7000000179,178_m_m_n_a.png,O,m,1417,18,1,2443.0,547640.7000000179,7103,NNB,B,16
0,test,2,0.0,2-Back,,,Wed Apr 02 2025 11:14:16 GMT-0500 (Central Daylight Time),550083.7000000179,178_m_m_n_a.png,O,space,5318,1,1,2443.0,547640.7000000179,7103,NNB,B,0
0,test,2,0.0,2-Back,,,Wed Apr 02 2025 11:14:16 GMT-0500 (Central Daylight Time),550083.7000000179,173_y_f_n_a.png,O,space,5318,2,1,2443.0,547640.7000000179,7103,NNB,B,0
1,test,2,1.0,2-Back,1,z,Wed Apr 02 2025 11:14:16 GMT-0500 (Central Daylight Time),562646.0,178_m_m_n_a.png,O,z,1013,3,1,2028.0,560618.0,7103,NNB,B,1
2,test,2,0.0,2-Back,1,m,Wed Apr 02 2025 11:14:16 GMT-0500 (Central Daylight Time),564462.400000006,097_m_f_n_a.png,O,m,771,4,1,1790.9000000059605,562671.5,7103,NNB,B,2
3,test,2,0.0,2-Back,1,m,Wed Apr 02 2025 11:14:16 GMT-0500 (Central Daylight Time),566795.1000000238,173_y_f_n_a.png,O,m,1291,5,1,2314.9000000059605,564480.2000000179,7103,NNB,B,3
4,test,2,0.0,2-Back,1,m,Wed Apr 02 2025 11:14:16 GMT-0500 (Central Daylight Time),569427.900000006,065_o_m_n_a.png,O,m,1583,6,1,2615.2999999821186,566812.6000000238,7103,NNB,B,4
5,test,2,0.0,2-Back,1,m,Wed Apr 02 2025 11:14:16 GMT-0500 (Central Daylight Time),571677.5,152_y_f_n_a.png,O,m,1215,7,1,2231.899999976158,569445.6000000238,7103,NNB,B,5
6,test,2,1.0,2-Back,1,z,Wed Apr 02 2025 11:14:16 GMT-0500 (Central Daylight Time),573775.2000000179,065_o_m_n_a.png,O,z,1052,8,1,2079.2000000178814,571696.0,7103,NNB,B,6
7,test,2,0.0,2-Back,1,m,Wed Apr 02 2025 11:14:16 GMT-0500 (Central Daylight Time),576058.7000000179,013_y_m_n_a.png,O,m,1258,9,1,2279.5999999940395,573779.1000000238,7103,NNB,B,7
8,test,2,0.0,2-Back,1,m,Wed Apr 02 2025 11:14:16 GMT-0500 (Central Daylight Time),578341.400000006,013_y_m_n_a.png,O,m,1247,10,1,2265.5,576075.900000006,7103,NNB,B,8
9,test,2,0.0,2-Back,1,m,Wed Apr 02 2025 11:14:16 GMT-0500 (Central Daylight Time),580890.2000000179,029_m_f_n_a.png,O,m,1509,11,1,2532.0999999940395,578358.1000000238,7103,NNB,B,9
10,test,2,0.0,2-Back,1,m,Wed Apr 02 2025 11:14:16 GMT-0500 (Central Daylight Time),583856.1000000238,173_y_f_n_a.png,O,m,1927,12,1,2947.300000011921,580908.8000000119,7103,NNB,B,10
11,test,2,1.0,2-Back,1,z,Wed Apr 02 2025 11:14:16 GMT-0500 (Central Daylight Time),585805.5,029_m_f_n_a.png,O,z,915,13,1,1931.5,583874.0,7103,NNB,B,11
12,test,2,0.0,2-Back,1,m,Wed Apr 02 2025 11:14:16 GMT-0500 (Central Daylight Time),587938.1000000238,176_o_m_n_a.png,O,m,1092,14,1,2113.7000000178814,585824.400000006,7103,NNB,B,12
13,test,2,0.0,2-Back,1,m,Wed Apr 02 2025 11:14:16 GMT-0500 (Central Daylight Time),590553.900000006,176_o_m_n_a.png,O,m,1575,15,1,2591.7999999821186,587962.1000000238,7103,NNB,B,13
14,test,2,0.0,2-Back,1,m,Wed Apr 02 2025 11:14:16 GMT-0500 (Central Daylight Time),592437.2000000179,110_o_f_n_a.png,O,m,849,16,1,1865.0,590572.2000000179,7103,NNB,B,14
15,test,2,0.0,2-Back,1,m,Wed Apr 02 2025 11:14:16 GMT-0500 (Central Daylight Time),594319.3000000119,126_m_m_n_a.png,O,m,846,17,1,1858.0999999940395,592461.2000000179,7103,NNB,B,15
16,test,2,1.0,2-Back,1,z,Wed Apr 02 2025 11:14:16 GMT-0500 (Central Daylight Time),595902.2000000179,110_o_f_n_a.png,O,z,538,18,1,1564.5999999940395,594337.6000000238,7103,NNB,B,16
0,test,3,1.0,2-Back,,,Wed Apr 02 2025 11:14:16 GMT-0500 (Central Daylight Time),595902.2000000179,153_y_m_n_a.png,O,space,2955,1,1,1564.5999999940395,594337.6000000238,7103,NNB,B,0
0,test,3,1.0,2-Back,,,Wed Apr 02 2025 11:14:16 GMT-0500 (Central Daylight Time),595902.2000000179,153_y_m_n_a.png,O,space,2955,2,1,1564.5999999940395,594337.6000000238,7103,NNB,B,0
1,test,3,0.0,2-Back,1,m,Wed Apr 02 2025 11:14:16 GMT-0500 (Central Daylight Time),606148.8000000119,110_o_f_n_a.png,O,m,1049,3,1,2077.800000011921,604071.0,7103,NNB,B,1
2,test,3,0.0,2-Back,1,m,Wed Apr 02 2025 11:14:16 GMT-0500 (Central Daylight Time),608714.900000006,178_m_m_n_a.png,O,m,1517,4,1,2547.699999988079,606167.2000000179,7103,NNB,B,2
3,test,3,1.0,2-Back,1,z,Wed Apr 02 2025 11:14:16 GMT-0500 (Central Daylight Time),610347.2000000179,110_o_f_n_a.png,O,z,583,5,1,1614.4000000059605,608732.8000000119,7103,NNB,B,3
4,test,3,0.0,2-Back,1,m,Wed Apr 02 2025 11:14:16 GMT-0500 (Central Daylight Time),612979.8000000119,013_y_m_n_a.png,O,m,1582,6,1,2613.4000000059605,610366.400000006,7103,NNB,B,4
4,test,3,0.0,2-Back,0,m,Wed Apr 02 2025 11:14:16 GMT-0500 (Central Daylight Time),615495.7000000179,178_m_m_n_a.png,O,z,1477,7,1,2497.5999999940395,612998.1000000238,7103,NNB,B,5
5,test,3,1.0,2-Back,1,z,Wed Apr 02 2025 11:14:16 GMT-0500 (Central Daylight Time),618011.400000006,013_y_m_n_a.png,O,z,1467,8,1,2497.0,615514.400000006,7103,NNB,B,6
6,test,3,0.0,2-Back,1,m,Wed Apr 02 2025 11:14:16 GMT-0500 (Central Daylight Time),620110.7000000179,173_y_f_n_a.png,O,m,1062,9,1,2070.4000000059605,618040.3000000119,7103,NNB,B,7
7,test,3,0.0,2-Back,1,m,Wed Apr 02 2025 11:14:16 GMT-0500 (Central Daylight Time),622576.8000000119,126_m_m_n_a.png,O,m,1427,10,1,2445.5,620131.3000000119,7103,NNB,B,8
8,test,3,1.0,2-Back,1,z,Wed Apr 02 2025 11:14:16 GMT-0500 (Central Daylight Time),624326.2000000179,173_y_f_n_a.png,O,z,703,11,1,1730.0999999940395,622596.1000000238,7103,NNB,B,9
8,test,3,1.0,2-Back,0,z,Wed Apr 02 2025 11:14:16 GMT-0500 (Central Daylight Time),626008.900000006,126_m_m_n_a.png,O,m,635,12,1,1665.0,624343.900000006,7103,NNB,B,10
9,test,3,0.0,2-Back,1,m,Wed Apr 02 2025 11:14:16 GMT-0500 (Central Daylight Time),628525.400000006,110_o_f_n_a.png,O,m,1478,13,1,2492.0999999940395,626033.3000000119,7103,NNB,B,11
10,test,3,0.0,2-Back,1,m,Wed Apr 02 2025 11:14:16 GMT-0500 (Central Daylight Time),630824.0,097_m_f_n_a.png,O,m,1261,14,1,2281.399999976158,628542.6000000238,7103,NNB,B,12
11,test,3,0.0,2-Back,1,m,Wed Apr 02 2025 11:14:16 GMT-0500 (Central Daylight Time),632640.3000000119,065_o_m_n_a.png,O,m,779,15,1,1788.0999999940395,630852.2000000179,7103,NNB,B,13
12,test,3,1.0,2-Back,1,z,Wed Apr 02 2025 11:14:16 GMT-0500 (Central Daylight Time),635255.8000000119,097_m_f_n_a.png,O,z,1570,16,1,2590.0,632665.8000000119,7103,NNB,B,14
13,test,3,0.0,2-Back,1,m,Wed Apr 02 2025 11:14:16 GMT-0500 (Central Daylight Time),637122.0,086_o_f_n_a.png,O,m,826,17,1,1848.5,635273.5,7103,NNB,B,15
14,test,3,0.0,2-Back,1,m,Wed Apr 02 2025 11:14:16 GMT-0500 (Central Daylight Time),639454.2000000179,086_o_f_n_a.png,O,m,1298,18,1,2311.2000000178814,637143.0,7103,NNB,B,16
0,test,4,0.0,2-Back,,,Wed Apr 02 2025 11:14:16 GMT-0500 (Central Daylight Time),639454.2000000179,176_o_m_n_a.png,O,space,1844,1,1,2311.2000000178814,637143.0,7103,NNB,B,0
0,test,4,0.0,2-Back,,,Wed Apr 02 2025 11:14:16 GMT-0500 (Central Daylight Time),639454.2000000179,152_y_f_n_a.png,O,space,1844,2,1,2311.2000000178814,637143.0,7103,NNB,B,0
1,test,4,1.0,2-Back,1,z,Wed Apr 02 2025 11:14:16 GMT-0500 (Central Daylight Time),648318.1000000238,176_o_m_n_a.png,O,z,629,3,1,1652.0,646666.1000000238,7103,NNB,B,1
2,test,4,1.0,2-Back,1,z,Wed Apr 02 2025 11:14:16 GMT-0500 (Central Daylight Time),650350.8000000119,152_y_f_n_a.png,O,z,994,4,1,2013.4000000059605,648337.400000006,7103,NNB,B,2
3,test,4,0.0,2-Back,1,m,Wed Apr 02 2025 11:14:16 GMT-0500 (Central Daylight Time),653000.0,110_o_f_n_a.png,O,m,1603,5,1,2631.7999999821186,650368.2000000179,7103,NNB,B,3
4,test,4,0.0,2-Back,1,m,Wed Apr 02 2025 11:14:16 GMT-0500 (Central Daylight Time),655132.900000006,110_o_f_n_a.png,O,m,1083,6,1,2114.7999999821186,653018.1000000238,7103,NNB,B,4
5,test,4,0.0,2-Back,1,m,Wed Apr 02 2025 11:14:16 GMT-0500 (Central Daylight Time),657281.8000000119,029_m_f_n_a.png,O,m,1109,7,1,2130.0999999940395,655151.7000000179,7103,NNB,B,5
6,test,4,0.0,2-Back,1,m,Wed Apr 02 2025 11:14:16 GMT-0500 (Central Daylight Time),659148.900000006,013_y_m_n_a.png,O,m,832,8,1,1850.5999999940395,657298.3000000119,7103,NNB,B,6
7,test,4,1.0,2-Back,1,z,Wed Apr 02 2025 11:14:16 GMT-0500 (Central Daylight Time),660981.7000000179,029_m_f_n_a.png,O,z,798,9,1,1813.4000000059605,659168.3000000119,7103,NNB,B,7
8,test,4,0.0,2-Back,1,m,Wed Apr 02 2025 11:14:16 GMT-0500 (Central Daylight Time),663330.2000000179,126_m_m_n_a.png,O,m,1301,10,1,2331.300000011921,660998.900000006,7103,NNB,B,8
9,test,4,0.0,2-Back,1,m,Wed Apr 02 2025 11:14:16 GMT-0500 (Central Daylight Time),665562.6000000238,013_y_m_n_a.png,O,m,1192,11,1,2215.100000023842,663347.5,7103,NNB,B,9
10,test,4,0.0,2-Back,1,m,Wed Apr 02 2025 11:14:16 GMT-0500 (Central Daylight Time),667445.5,086_o_f_n_a.png,O,m,848,12,1,1864.199999988079,665581.3000000119,7103,NNB,B,10
11,test,4,0.0,2-Back,1,m,Wed Apr 02 2025 11:14:16 GMT-0500 (Central Daylight Time),669477.2000000179,153_y_m_n_a.png,O,m,995,13,1,2013.7000000178814,667463.5,7103,NNB,B,11
12,test,4,1.0,2-Back,1,z,Wed Apr 02 2025 11:14:16 GMT-0500 (Central Daylight Time),671677.5,086_o_f_n_a.png,O,z,1173,14,1,2194.5,669483.0,7103,NNB,B,12
13,test,4,1.0,2-Back,1,z,Wed Apr 02 2025 11:14:16 GMT-0500 (Central Daylight Time),673876.8000000119,153_y_m_n_a.png,O,z,1156,15,1,2182.0,671694.8000000119,7103,NNB,B,13
14,test,4,0.0,2-Back,1,m,Wed Apr 02 2025 11:14:16 GMT-0500 (Central Daylight Time),675792.6000000238,178_m_m_n_a.png,O,m,852,16,1,1886.300000011921,673906.3000000119,7103,NNB,B,14
15,test,4,0.0,2-Back,1,m,Wed Apr 02 2025 11:14:16 GMT-0500 (Central Daylight Time),677658.6000000238,097_m_f_n_a.png,O,m,817,17,1,1839.2000000178814,675819.400000006,7103,NNB,B,15
16,test,4,1.0,2-Back,1,z,Wed Apr 02 2025 11:14:16 GMT-0500 (Central Daylight Time),679758.0,178_m_m_n_a.png,O,z,1055,18,1,2076.0,677682.0,7103,NNB,B,16
0,test,5,1.0,2-Back,,,Wed Apr 02 2025 11:14:16 GMT-0500 (Central Daylight Time),679758.0,153_y_m_n_a.png,O,space,1244,1,1,2076.0,677682.0,7103,NNB,B,0
0,test,5,1.0,2-Back,,,Wed Apr 02 2025 11:14:16 GMT-0500 (Central Daylight Time),679758.0,097_m_f_n_a.png,O,space,1244,2,1,2076.0,677682.0,7103,NNB,B,0
1,test,5,1.0,2-Back,1,z,Wed Apr 02 2025 11:14:16 GMT-0500 (Central Daylight Time),688055.1000000238,153_y_m_n_a.png,O,z,679,3,1,1698.300000011921,686356.8000000119,7103,NNB,B,1
2,test,5,1.0,2-Back,1,z,Wed Apr 02 2025 11:14:16 GMT-0500 (Central Daylight Time),689754.8000000119,097_m_f_n_a.png,O,z,658,4,1,1683.0,688071.8000000119,7103,NNB,B,2
3,test,5,0.0,2-Back,1,m,Wed Apr 02 2025 11:14:16 GMT-0500 (Central Daylight Time),691671.0,086_o_f_n_a.png,O,m,871,5,1,1899.7999999821186,689771.2000000179,7103,NNB,B,3
3,test,5,0.0,2-Back,0,m,Wed Apr 02 2025 11:14:16 GMT-0500 (Central Daylight Time),694421.6000000238,153_y_m_n_a.png,O,z,1716,6,1,2728.800000011921,691692.8000000119,7103,NNB,B,4
4,test,5,0.0,2-Back,1,m,Wed Apr 02 2025 11:14:16 GMT-0500 (Central Daylight Time),696685.7000000179,173_y_f_n_a.png,O,m,1231,7,1,2249.300000011921,694436.400000006,7103,NNB,B,5
4,test,5,0.0,2-Back,0,m,Wed Apr 02 2025 11:14:16 GMT-0500 (Central Daylight Time),698835.400000006,086_o_f_n_a.png,O,z,1101,8,1,2132.4000000059605,696703.0,7103,NNB,B,6
4,test,5,1.0,2-Back,0,z,Wed Apr 02 2025 11:14:16 GMT-0500 (Central Daylight Time),701367.5,173_y_f_n_a.png,O,m,1487,9,1,2514.7999999821186,698852.7000000179,7103,NNB,B,7
5,test,5,0.0,2-Back,1,m,Wed Apr 02 2025 11:14:16 GMT-0500 (Central Daylight Time),704365.7000000179,065_o_m_n_a.png,O,m,1954,10,1,2981.2000000178814,701384.5,7103,NNB,B,8
6,test,5,0.0,2-Back,1,m,Wed Apr 02 2025 11:14:16 GMT-0500 (Central Daylight Time),706115.8000000119,029_m_f_n_a.png,O,m,724,11,1,1745.4000000059605,704370.400000006,7103,NNB,B,9
7,test,5,0.0,2-Back,1,m,Wed Apr 02 2025 11:14:16 GMT-0500 (Central Daylight Time),708098.2000000179,126_m_m_n_a.png,O,m,958,12,1,1969.9000000059605,706128.3000000119,7103,NNB,B,10
8,test,5,0.0,2-Back,1,m,Wed Apr 02 2025 11:14:16 GMT-0500 (Central Daylight Time),710564.7000000179,065_o_m_n_a.png,O,m,1441,13,1,2456.800000011921,708107.900000006,7103,NNB,B,11
9,test,5,1.0,2-Back,1,z,Wed Apr 02 2025 11:14:16 GMT-0500 (Central Daylight Time),712830.400000006,126_m_m_n_a.png,O,z,1229,14,1,2245.199999988079,710585.2000000179,7103,NNB,B,12
10,test,5,0.0,2-Back,1,m,Wed Apr 02 2025 11:14:16 GMT-0500 (Central Daylight Time),714996.6000000238,152_y_f_n_a.png,O,m,1124,15,1,2149.600000023842,712847.0,7103,NNB,B,13
11,test,5,0.0,2-Back,1,m,Wed Apr 02 2025 11:14:16 GMT-0500 (Central Daylight Time),717115.3000000119,176_o_m_n_a.png,O,m,1085,16,1,2091.9000000059605,715023.400000006,7103,NNB,B,14
12,test,5,0.0,2-Back,1,m,Wed Apr 02 2025 11:14:16 GMT-0500 (Central Daylight Time),718861.6000000238,029_m_f_n_a.png,O,m,732,17,1,1741.7000000178814,717119.900000006,7103,NNB,B,15
13,test,5,1.0,2-Back,1,z,Wed Apr 02 2025 11:14:16 GMT-0500 (Central Daylight Time),720494.6000000238,176_o_m_n_a.png,O,z,589,18,1,1618.4000000059605,718876.2000000179,7103,NNB,B,16
