acc_sum,block,block_c,change,condition,correct,correct_response,datetime,endtime,face,project,response,response_time,row_sel,session_number,start_end,starttime,subject_id,task,task_vers,trial
0,prac,1,,1-Back,,,Fri Feb 28 2025 17:26:28 GMT-0600 (Central Standard Time),,050_m_f_n_a.png,O,space,10118,1,1,,,7064,NNB,A,0
1,prac,1,0.0,1-Back,1,m,Fri Feb 28 2025 17:26:28 GMT-0600 (Central Standard Time),170760.60000002384,063_y_f_n_a.png,O,m,1406,2,1,2204.400000035763,168556.19999998808,7064,NNB,A,1
1,prac,1,1.0,1-Back,0,z,Fri Feb 28 2025 17:26:28 GMT-0600 (Central Standard Time),173575.80000001192,063_y_f_n_a.png,O,None,2014,3,1,2805.699999988079,170770.10000002384,7064,NNB,A,2
1,prac,1,0.0,1-Back,0,m,Fri Feb 28 2025 17:26:28 GMT-0600 (Central Standard Time),175742.0,053_o_m_n_a.png,O,z,1366,4,1,2155.599999964237,173586.40000003576,7064,NNB,A,3
2,prac,1,0.0,1-Back,1,m,Fri Feb 28 2025 17:26:28 GMT-0600 (Central Standard Time),178023.90000003576,058_m_m_n_a.png,O,m,1469,5,1,2271.0,175752.90000003576,7064,NNB,A,4
3,prac,1,1.0,1-Back,1,z,Fri Feb 28 2025 17:26:28 GMT-0600 (Central Standard Time),180123.40000003576,058_m_m_n_a.png,O,z,1324,6,1,2089.800000011921,178033.60000002384,7064,NNB,A,5
4,prac,1,0.0,1-Back,1,m,Fri Feb 28 2025 17:26:28 GMT-0600 (Central Standard Time),182657.0,047_o_f_n_a.png,O,m,1704,7,1,2524.099999964237,180132.90000003576,7064,NNB,A,6
5,prac,1,0.0,1-Back,1,m,Fri Feb 28 2025 17:26:28 GMT-0600 (Central Standard Time),184756.0,045_m_m_n_a.png,O,m,1285,8,1,2087.599999964237,182668.40000003576,7064,NNB,A,7
6,prac,1,0.0,1-Back,1,m,Fri Feb 28 2025 17:26:28 GMT-0600 (Central Standard Time),186672.0,050_m_f_n_a.png,O,m,1129,9,1,1906.3999999761581,184765.60000002384,7064,NNB,A,8
7,prac,1,1.0,1-Back,1,z,Fri Feb 28 2025 17:26:28 GMT-0600 (Central Standard Time),188321.40000003576,050_m_f_n_a.png,O,z,858,10,1,1640.1000000238419,186681.30000001192,7064,NNB,A,9
8,prac,1,0.0,1-Back,1,m,Fri Feb 28 2025 17:26:28 GMT-0600 (Central Standard Time),190453.80000001192,053_o_m_n_a.png,O,m,1368,11,1,2121.600000023842,188332.19999998808,7064,NNB,A,10
9,prac,1,0.0,1-Back,1,m,Fri Feb 28 2025 17:26:28 GMT-0600 (Central Standard Time),193168.90000003576,010_y_f_n_a.png,O,m,1887,12,1,2704.5,190464.40000003576,7064,NNB,A,11
0,test,1,0.0,1-Back,,,Fri Feb 28 2025 17:26:28 GMT-0600 (Central Standard Time),193168.90000003576,063_y_f_n_a.png,O,space,22093,1,1,2704.5,190464.40000003576,7064,NNB,A,0
1,test,1,0.0,1-Back,1,m,Fri Feb 28 2025 17:26:28 GMT-0600 (Central Standard Time),227076.40000003576,043_m_f_n_a.png,O,m,1880,2,1,2888.400000035763,224188.0,7064,NNB,A,1
2,test,1,0.0,1-Back,1,m,Fri Feb 28 2025 17:26:28 GMT-0600 (Central Standard Time),229789.5,010_y_f_n_a.png,O,m,1697,3,1,2703.800000011921,227085.69999998808,7064,NNB,A,2
3,test,1,1.0,1-Back,1,z,Fri Feb 28 2025 17:26:28 GMT-0600 (Central Standard Time),232790.80000001192,010_y_f_n_a.png,O,z,1982,4,1,2990.600000023842,229800.19999998808,7064,NNB,A,3
4,test,1,0.0,1-Back,1,m,Fri Feb 28 2025 17:26:28 GMT-0600 (Central Standard Time),234705.60000002384,043_m_f_n_a.png,O,m,885,5,1,1904.800000011921,232800.80000001192,7064,NNB,A,4
5,test,1,0.0,1-Back,1,m,Fri Feb 28 2025 17:26:28 GMT-0600 (Central Standard Time),236838.30000001192,053_o_m_n_a.png,O,m,1115,6,1,2123.199999988079,234715.10000002384,7064,NNB,A,5
6,test,1,1.0,1-Back,1,z,Fri Feb 28 2025 17:26:28 GMT-0600 (Central Standard Time),238588.40000003576,053_o_m_n_a.png,O,z,716,7,1,1742.6000000238419,236845.80000001192,7064,NNB,A,6
7,test,1,0.0,1-Back,1,m,Fri Feb 28 2025 17:26:28 GMT-0600 (Central Standard Time),240838.19999998808,058_m_m_n_a.png,O,m,1233,8,1,2241.5,238596.69999998808,7064,NNB,A,7
8,test,1,0.0,1-Back,1,m,Fri Feb 28 2025 17:26:28 GMT-0600 (Central Standard Time),242969.30000001192,047_o_f_n_a.png,O,m,1102,9,1,2124.600000023842,240844.69999998808,7064,NNB,A,8
8,test,1,0.0,1-Back,0,m,Fri Feb 28 2025 17:26:28 GMT-0600 (Central Standard Time),246003.60000002384,058_m_m_n_a.png,O,None,2015,10,1,3026.199999988079,242977.40000003576,7064,NNB,A,9
9,test,1,0.0,1-Back,1,m,Fri Feb 28 2025 17:26:28 GMT-0600 (Central Standard Time),248004.60000002384,041_y_m_n_a.png,O,m,970,11,1,1991.6000000238419,246013.0,7064,NNB,A,10
10,test,1,1.0,1-Back,1,z,Fri Feb 28 2025 17:26:28 GMT-0600 (Central Standard Time),249689.60000002384,041_y_m_n_a.png,O,z,670,12,1,1680.5,248009.10000002384,7064,NNB,A,11
11,test,1,0.0,1-Back,1,m,Fri Feb 28 2025 17:26:28 GMT-0600 (Central Standard Time),251566.19999998808,044_o_f_n_a.png,O,m,863,13,1,1870.0999999642372,249696.10000002384,7064,NNB,A,12
11,test,1,1.0,1-Back,0,z,Fri Feb 28 2025 17:26:28 GMT-0600 (Central Standard Time),253033.10000002384,044_o_f_n_a.png,O,m,445,14,1,1458.5,251574.60000002384,7064,NNB,A,13
12,test,1,0.0,1-Back,1,m,Fri Feb 28 2025 17:26:28 GMT-0600 (Central Standard Time),255267.69999998808,008_y_m_n_a.png,O,m,1201,15,1,2226.0,253041.69999998808,7064,NNB,A,14
13,test,1,0.0,1-Back,1,m,Fri Feb 28 2025 17:26:28 GMT-0600 (Central Standard Time),257098.40000003576,050_m_f_n_a.png,O,m,802,16,1,1821.1000000238419,255277.30000001192,7064,NNB,A,15
14,test,1,0.0,1-Back,1,m,Fri Feb 28 2025 17:26:28 GMT-0600 (Central Standard Time),258830.69999998808,046_o_m_n_a.png,O,m,713,17,1,1724.699999988079,257106.0,7064,NNB,A,16
15,test,1,0.0,1-Back,1,m,Fri Feb 28 2025 17:26:28 GMT-0600 (Central Standard Time),261013.80000001192,050_m_f_n_a.png,O,m,1157,18,1,2175.100000023842,258838.69999998808,7064,NNB,A,17
0,test,2,0.0,1-Back,,,Fri Feb 28 2025 17:26:28 GMT-0600 (Central Standard Time),261013.80000001192,058_m_m_n_a.png,O,space,2101,1,1,2175.100000023842,258838.69999998808,7064,NNB,A,0
1,test,2,0.0,1-Back,1,m,Fri Feb 28 2025 17:26:28 GMT-0600 (Central Standard Time),266928.0,043_m_f_n_a.png,O,m,763,2,1,1771.699999988079,265156.3000000119,7064,NNB,A,1
2,test,2,1.0,1-Back,1,z,Fri Feb 28 2025 17:26:28 GMT-0600 (Central Standard Time),268778.40000003576,043_m_f_n_a.png,O,z,827,3,1,1841.800000011921,266936.60000002384,7064,NNB,A,2
3,test,2,0.0,1-Back,1,m,Fri Feb 28 2025 17:26:28 GMT-0600 (Central Standard Time),270509.90000003576,058_m_m_n_a.png,O,m,703,4,1,1723.300000011921,268786.60000002384,7064,NNB,A,3
4,test,2,0.0,1-Back,1,m,Fri Feb 28 2025 17:26:28 GMT-0600 (Central Standard Time),272410.8000000119,041_y_m_n_a.png,O,m,867,5,1,1890.3999999761581,270520.40000003576,7064,NNB,A,4
5,test,2,0.0,1-Back,1,m,Fri Feb 28 2025 17:26:28 GMT-0600 (Central Standard Time),274109.0,063_y_f_n_a.png,O,m,682,6,1,1688.699999988079,272420.3000000119,7064,NNB,A,5
6,test,2,1.0,1-Back,1,z,Fri Feb 28 2025 17:26:28 GMT-0600 (Central Standard Time),275692.40000003576,063_y_f_n_a.png,O,z,550,7,1,1572.2000000476837,274120.1999999881,7064,NNB,A,6
7,test,2,0.0,1-Back,1,m,Fri Feb 28 2025 17:26:28 GMT-0600 (Central Standard Time),277541.5,041_y_m_n_a.png,O,m,822,8,1,1838.8999999761581,275702.60000002384,7064,NNB,A,7
8,test,2,0.0,1-Back,1,m,Fri Feb 28 2025 17:26:28 GMT-0600 (Central Standard Time),279122.3000000119,044_o_f_n_a.png,O,m,547,9,1,1571.8999999761581,277550.40000003576,7064,NNB,A,8
9,test,2,0.0,1-Back,1,m,Fri Feb 28 2025 17:26:28 GMT-0600 (Central Standard Time),280857.60000002384,045_m_m_n_a.png,O,m,709,10,1,1730.0,279127.60000002384,7064,NNB,A,9
10,test,2,1.0,1-Back,1,z,Fri Feb 28 2025 17:26:28 GMT-0600 (Central Standard Time),282323.5,045_m_m_n_a.png,O,z,441,11,1,1456.8999999761581,280866.60000002384,7064,NNB,A,10
11,test,2,0.0,1-Back,1,m,Fri Feb 28 2025 17:26:28 GMT-0600 (Central Standard Time),283838.60000002384,044_o_f_n_a.png,O,m,493,12,1,1505.9000000357628,282332.6999999881,7064,NNB,A,11
12,test,2,0.0,1-Back,1,m,Fri Feb 28 2025 17:26:28 GMT-0600 (Central Standard Time),285590.5,047_o_f_n_a.png,O,m,716,13,1,1747.199999988079,283843.3000000119,7064,NNB,A,12
13,test,2,0.0,1-Back,1,m,Fri Feb 28 2025 17:26:28 GMT-0600 (Central Standard Time),287188.0,053_o_m_n_a.png,O,m,565,14,1,1588.199999988079,285599.8000000119,7064,NNB,A,13
14,test,2,0.0,1-Back,1,m,Fri Feb 28 2025 17:26:28 GMT-0600 (Central Standard Time),288721.6999999881,046_o_m_n_a.png,O,m,502,15,1,1526.3999999761581,287195.3000000119,7064,NNB,A,14
15,test,2,1.0,1-Back,1,z,Fri Feb 28 2025 17:26:28 GMT-0600 (Central Standard Time),290221.6999999881,046_o_m_n_a.png,O,z,473,16,1,1491.5,288730.1999999881,7064,NNB,A,15
16,test,2,0.0,1-Back,1,m,Fri Feb 28 2025 17:26:28 GMT-0600 (Central Standard Time),291721.8000000119,008_y_m_n_a.png,O,m,471,17,1,1490.199999988079,290231.60000002384,7064,NNB,A,16
16,test,2,1.0,1-Back,0,z,Fri Feb 28 2025 17:26:28 GMT-0600 (Central Standard Time),293203.10000002384,008_y_m_n_a.png,O,m,450,18,1,1471.699999988079,291731.40000003576,7064,NNB,A,17
0,test,3,1.0,1-Back,,,Fri Feb 28 2025 17:26:28 GMT-0600 (Central Standard Time),293203.10000002384,010_y_f_n_a.png,O,space,2624,1,1,1471.699999988079,291731.40000003576,7064,NNB,A,0
1,test,3,0.0,1-Back,1,m,Fri Feb 28 2025 17:26:28 GMT-0600 (Central Standard Time),299868.6999999881,046_o_m_n_a.png,O,m,941,2,1,1956.3999999761581,297912.3000000119,7064,NNB,A,1
1,test,3,1.0,1-Back,0,z,Fri Feb 28 2025 17:26:28 GMT-0600 (Central Standard Time),301418.6999999881,046_o_m_n_a.png,O,m,518,3,1,1539.699999988079,299879.0,7064,NNB,A,2
2,test,3,0.0,1-Back,1,m,Fri Feb 28 2025 17:26:28 GMT-0600 (Central Standard Time),303669.1999999881,050_m_f_n_a.png,O,m,1234,4,1,2240.399999976158,301428.8000000119,7064,NNB,A,3
3,test,3,1.0,1-Back,1,z,Fri Feb 28 2025 17:26:28 GMT-0600 (Central Standard Time),305151.40000003576,050_m_f_n_a.png,O,z,467,5,1,1473.4000000357628,303678.0,7064,NNB,A,4
4,test,3,0.0,1-Back,1,m,Fri Feb 28 2025 17:26:28 GMT-0600 (Central Standard Time),306782.40000003576,044_o_f_n_a.png,O,m,614,6,1,1621.2000000476837,305161.1999999881,7064,NNB,A,5
5,test,3,0.0,1-Back,1,m,Fri Feb 28 2025 17:26:28 GMT-0600 (Central Standard Time),308716.3000000119,041_y_m_n_a.png,O,m,909,7,1,1927.0,306789.3000000119,7064,NNB,A,6
6,test,3,0.0,1-Back,1,m,Fri Feb 28 2025 17:26:28 GMT-0600 (Central Standard Time),310280.8000000119,044_o_f_n_a.png,O,m,545,8,1,1556.3999999761581,308724.40000003576,7064,NNB,A,7
7,test,3,0.0,1-Back,1,m,Fri Feb 28 2025 17:26:28 GMT-0600 (Central Standard Time),312148.40000003576,008_y_m_n_a.png,O,m,850,9,1,1858.800000011921,310289.60000002384,7064,NNB,A,8
8,test,3,1.0,1-Back,1,z,Fri Feb 28 2025 17:26:28 GMT-0600 (Central Standard Time),314047.1999999881,008_y_m_n_a.png,O,z,871,10,1,1889.5,312157.6999999881,7064,NNB,A,9
9,test,3,0.0,1-Back,1,m,Fri Feb 28 2025 17:26:28 GMT-0600 (Central Standard Time),315896.3000000119,043_m_f_n_a.png,O,m,817,11,1,1839.8999999761581,314056.40000003576,7064,NNB,A,10
10,test,3,0.0,1-Back,1,m,Fri Feb 28 2025 17:26:28 GMT-0600 (Central Standard Time),317895.3000000119,063_y_f_n_a.png,O,m,978,12,1,1990.199999988079,315905.10000002384,7064,NNB,A,11
11,test,3,1.0,1-Back,1,z,Fri Feb 28 2025 17:26:28 GMT-0600 (Central Standard Time),319912.10000002384,063_y_f_n_a.png,O,z,999,13,1,2007.300000011921,317904.8000000119,7064,NNB,A,12
12,test,3,0.0,1-Back,1,m,Fri Feb 28 2025 17:26:28 GMT-0600 (Central Standard Time),321811.0,043_m_f_n_a.png,O,m,868,14,1,1889.699999988079,319921.3000000119,7064,NNB,A,13
13,test,3,0.0,1-Back,1,m,Fri Feb 28 2025 17:26:28 GMT-0600 (Central Standard Time),323810.90000003576,058_m_m_n_a.png,O,m,965,15,1,1991.7000000476837,321819.1999999881,7064,NNB,A,14
14,test,3,1.0,1-Back,1,z,Fri Feb 28 2025 17:26:28 GMT-0600 (Central Standard Time),326077.0,058_m_m_n_a.png,O,z,1241,16,1,2257.199999988079,323819.8000000119,7064,NNB,A,15
15,test,3,0.0,1-Back,1,m,Fri Feb 28 2025 17:26:28 GMT-0600 (Central Standard Time),327858.6999999881,047_o_f_n_a.png,O,m,758,17,1,1772.199999988079,326086.5,7064,NNB,A,16
16,test,3,1.0,1-Back,1,z,Fri Feb 28 2025 17:26:28 GMT-0600 (Central Standard Time),330108.6999999881,047_o_f_n_a.png,O,z,1224,18,1,2239.699999988079,327869.0,7064,NNB,A,17
0,test,4,1.0,1-Back,,,Fri Feb 28 2025 17:26:28 GMT-0600 (Central Standard Time),330108.6999999881,050_m_f_n_a.png,O,space,7286,1,1,2239.699999988079,327869.0,7064,NNB,A,0
1,test,4,0.0,1-Back,1,m,Fri Feb 28 2025 17:26:28 GMT-0600 (Central Standard Time),341438.60000002384,046_o_m_n_a.png,O,m,990,2,1,2005.4000000357628,339433.1999999881,7064,NNB,A,1
2,test,4,0.0,1-Back,1,m,Fri Feb 28 2025 17:26:28 GMT-0600 (Central Standard Time),343404.0,050_m_f_n_a.png,O,m,941,3,1,1955.800000011921,341448.1999999881,7064,NNB,A,2
3,test,4,0.0,1-Back,1,m,Fri Feb 28 2025 17:26:28 GMT-0600 (Central Standard Time),345037.0,044_o_f_n_a.png,O,m,606,4,1,1624.300000011921,343412.6999999881,7064,NNB,A,3
4,test,4,1.0,1-Back,1,z,Fri Feb 28 2025 17:26:28 GMT-0600 (Central Standard Time),347152.40000003576,044_o_f_n_a.png,O,z,1085,5,1,2105.900000035763,345046.5,7064,NNB,A,4
5,test,4,0.0,1-Back,1,m,Fri Feb 28 2025 17:26:28 GMT-0600 (Central Standard Time),348935.6999999881,063_y_f_n_a.png,O,m,755,6,1,1773.3999999761581,347162.3000000119,7064,NNB,A,5
6,test,4,0.0,1-Back,1,m,Fri Feb 28 2025 17:26:28 GMT-0600 (Central Standard Time),350552.6999999881,041_y_m_n_a.png,O,m,595,7,1,1608.199999988079,348944.5,7064,NNB,A,6
7,test,4,1.0,1-Back,1,z,Fri Feb 28 2025 17:26:28 GMT-0600 (Central Standard Time),352303.40000003576,041_y_m_n_a.png,O,z,735,8,1,1742.0,350561.40000003576,7064,NNB,A,7
8,test,4,0.0,1-Back,1,m,Fri Feb 28 2025 17:26:28 GMT-0600 (Central Standard Time),354168.5,063_y_f_n_a.png,O,m,832,9,1,1856.5,352312.0,7064,NNB,A,8
9,test,4,0.0,1-Back,1,m,Fri Feb 28 2025 17:26:28 GMT-0600 (Central Standard Time),355933.5,045_m_m_n_a.png,O,m,739,10,1,1757.699999988079,354175.8000000119,7064,NNB,A,9
10,test,4,1.0,1-Back,1,z,Fri Feb 28 2025 17:26:28 GMT-0600 (Central Standard Time),357648.6999999881,045_m_m_n_a.png,O,z,694,11,1,1707.2999999523163,355941.40000003576,7064,NNB,A,10
11,test,4,0.0,1-Back,1,m,Fri Feb 28 2025 17:26:28 GMT-0600 (Central Standard Time),359200.10000002384,047_o_f_n_a.png,O,m,521,12,1,1542.199999988079,357657.90000003576,7064,NNB,A,11
12,test,4,0.0,1-Back,1,m,Fri Feb 28 2025 17:26:28 GMT-0600 (Central Standard Time),360882.1999999881,053_o_m_n_a.png,O,m,652,13,1,1672.199999988079,359210.0,7064,NNB,A,12
13,test,4,0.0,1-Back,1,m,Fri Feb 28 2025 17:26:28 GMT-0600 (Central Standard Time),362613.8000000119,047_o_f_n_a.png,O,m,712,14,1,1722.3999999761581,360891.40000003576,7064,NNB,A,13
14,test,4,0.0,1-Back,1,m,Fri Feb 28 2025 17:26:28 GMT-0600 (Central Standard Time),364314.10000002384,010_y_f_n_a.png,O,m,679,15,1,1691.6000000238419,362622.5,7064,NNB,A,14
15,test,4,1.0,1-Back,1,z,Fri Feb 28 2025 17:26:28 GMT-0600 (Central Standard Time),366047.10000002384,010_y_f_n_a.png,O,z,706,16,1,1724.9000000357628,364322.1999999881,7064,NNB,A,15
16,test,4,0.0,1-Back,1,m,Fri Feb 28 2025 17:26:28 GMT-0600 (Central Standard Time),368078.6999999881,043_m_f_n_a.png,O,m,1004,17,1,2022.5999999642372,366056.10000002384,7064,NNB,A,16
17,test,4,1.0,1-Back,1,z,Fri Feb 28 2025 17:26:28 GMT-0600 (Central Standard Time),369829.40000003576,043_m_f_n_a.png,O,z,733,18,1,1741.5,368087.90000003576,7064,NNB,A,17
0,test,5,1.0,1-Back,,,Fri Feb 28 2025 17:26:28 GMT-0600 (Central Standard Time),369829.40000003576,053_o_m_n_a.png,O,space,1878,1,1,1741.5,368087.90000003576,7064,NNB,A,0
0,test,5,1.0,1-Back,0,z,Fri Feb 28 2025 17:26:28 GMT-0600 (Central Standard Time),375210.1999999881,053_o_m_n_a.png,O,m,459,2,1,1471.3999999761581,373738.8000000119,7064,NNB,A,1
1,test,5,0.0,1-Back,1,m,Fri Feb 28 2025 17:26:28 GMT-0600 (Central Standard Time),377278.6999999881,063_y_f_n_a.png,O,m,1049,3,1,2059.899999976158,375218.8000000119,7064,NNB,A,2
2,test,5,0.0,1-Back,1,m,Fri Feb 28 2025 17:26:28 GMT-0600 (Central Standard Time),379342.3000000119,041_y_m_n_a.png,O,m,1049,4,1,2056.5,377285.8000000119,7064,NNB,A,3
3,test,5,0.0,1-Back,1,m,Fri Feb 28 2025 17:26:28 GMT-0600 (Central Standard Time),381208.40000003576,063_y_f_n_a.png,O,m,844,5,1,1857.7000000476837,379350.6999999881,7064,NNB,A,4
4,test,5,0.0,1-Back,1,m,Fri Feb 28 2025 17:26:28 GMT-0600 (Central Standard Time),382825.3000000119,058_m_m_n_a.png,O,m,586,6,1,1608.3999999761581,381216.90000003576,7064,NNB,A,5
4,test,5,1.0,1-Back,0,z,Fri Feb 28 2025 17:26:28 GMT-0600 (Central Standard Time),384409.10000002384,058_m_m_n_a.png,O,m,554,7,1,1574.699999988079,382834.40000003576,7064,NNB,A,6
5,test,5,0.0,1-Back,1,m,Fri Feb 28 2025 17:26:28 GMT-0600 (Central Standard Time),386357.90000003576,010_y_f_n_a.png,O,m,934,8,1,1938.2000000476837,384419.6999999881,7064,NNB,A,7
6,test,5,0.0,1-Back,1,m,Fri Feb 28 2025 17:26:28 GMT-0600 (Central Standard Time),388223.0,008_y_m_n_a.png,O,m,839,9,1,1856.5,386366.5,7064,NNB,A,8
7,test,5,0.0,1-Back,1,m,Fri Feb 28 2025 17:26:28 GMT-0600 (Central Standard Time),390124.60000002384,010_y_f_n_a.png,O,m,882,10,1,1893.300000011921,388231.3000000119,7064,NNB,A,9
8,test,5,0.0,1-Back,1,m,Fri Feb 28 2025 17:26:28 GMT-0600 (Central Standard Time),392072.3000000119,047_o_f_n_a.png,O,m,928,11,1,1939.3999999761581,390132.90000003576,7064,NNB,A,10
9,test,5,1.0,1-Back,1,z,Fri Feb 28 2025 17:26:28 GMT-0600 (Central Standard Time),393804.8000000119,047_o_f_n_a.png,O,z,715,12,1,1722.3999999761581,392082.40000003576,7064,NNB,A,11
10,test,5,0.0,1-Back,1,m,Fri Feb 28 2025 17:26:28 GMT-0600 (Central Standard Time),395672.5,046_o_m_n_a.png,O,m,849,13,1,1859.5999999642372,393812.90000003576,7064,NNB,A,12
11,test,5,0.0,1-Back,1,m,Fri Feb 28 2025 17:26:28 GMT-0600 (Central Standard Time),397587.5,050_m_f_n_a.png,O,m,884,14,1,1906.300000011921,395681.1999999881,7064,NNB,A,13
12,test,5,1.0,1-Back,1,z,Fri Feb 28 2025 17:26:28 GMT-0600 (Central Standard Time),399137.0,050_m_f_n_a.png,O,z,519,15,1,1540.199999988079,397596.8000000119,7064,NNB,A,14
13,test,5,0.0,1-Back,1,m,Fri Feb 28 2025 17:26:28 GMT-0600 (Central Standard Time),400787.6999999881,046_o_m_n_a.png,O,m,627,16,1,1641.0999999642372,399146.60000002384,7064,NNB,A,15
14,test,5,0.0,1-Back,1,m,Fri Feb 28 2025 17:26:28 GMT-0600 (Central Standard Time),402702.40000003576,043_m_f_n_a.png,O,m,898,17,1,1905.9000000357628,400796.5,7064,NNB,A,16
15,test,5,0.0,1-Back,1,m,Fri Feb 28 2025 17:26:28 GMT-0600 (Central Standard Time),404500.3000000119,045_m_m_n_a.png,O,m,772,18,1,1789.199999988079,402711.10000002384,7064,NNB,A,17
0,prac,1,0.0,2-Back,,,Fri Feb 28 2025 17:26:28 GMT-0600 (Central Standard Time),404500.3000000119,008_y_m_n_a.png,O,space,10004,1,1,1789.199999988079,402711.10000002384,7064,NNB,A,0
0,prac,1,0.0,2-Back,,,Fri Feb 28 2025 17:26:28 GMT-0600 (Central Standard Time),404500.3000000119,043_m_f_n_a.png,O,space,10004,2,1,1789.199999988079,402711.10000002384,7064,NNB,A,0
1,prac,1,1.0,2-Back,1,m,Fri Feb 28 2025 17:26:28 GMT-0600 (Central Standard Time),545458.9000000358,046_o_m_n_a.png,O,m,1271,3,1,2057.5,543401.4000000358,7064,NNB,A,1
1,prac,1,0.0,2-Back,0,m,Fri Feb 28 2025 17:26:28 GMT-0600 (Central Standard Time),548291.0,047_o_f_n_a.png,O,None,2005,4,1,2821.699999988079,545469.3000000119,7064,NNB,A,2
2,prac,1,0.0,2-Back,1,z,Fri Feb 28 2025 17:26:28 GMT-0600 (Central Standard Time),550589.3000000119,046_o_m_n_a.png,O,z,1531,5,1,2292.199999988079,548297.1000000238,7064,NNB,A,3
3,prac,1,1.0,2-Back,1,z,Fri Feb 28 2025 17:26:28 GMT-0600 (Central Standard Time),552372.1999999881,047_o_f_n_a.png,O,z,991,6,1,1772.7999999523163,550599.4000000358,7064,NNB,A,4
3,prac,1,0.0,2-Back,0,m,Fri Feb 28 2025 17:26:28 GMT-0600 (Central Standard Time),553988.6999999881,045_m_m_n_a.png,O,z,815,7,1,1605.3999999761581,552383.3000000119,7064,NNB,A,5
3,prac,1,0.0,2-Back,0,m,Fri Feb 28 2025 17:26:28 GMT-0600 (Central Standard Time),556804.5,053_o_m_n_a.png,O,None,2016,8,1,2804.300000011921,554000.1999999881,7064,NNB,A,6
4,prac,1,0.0,2-Back,1,m,Fri Feb 28 2025 17:26:28 GMT-0600 (Central Standard Time),559004.3000000119,010_y_f_n_a.png,O,m,1359,9,1,2189.199999988079,556815.1000000238,7064,NNB,A,7
5,prac,1,1.0,2-Back,1,z,Fri Feb 28 2025 17:26:28 GMT-0600 (Central Standard Time),561218.3000000119,053_o_m_n_a.png,O,z,1430,10,1,2203.5,559014.8000000119,7064,NNB,A,8
6,prac,1,0.0,2-Back,1,m,Fri Feb 28 2025 17:26:28 GMT-0600 (Central Standard Time),563452.8000000119,063_y_f_n_a.png,O,m,1435,11,1,2224.300000011921,561228.5,7064,NNB,A,9
6,prac,1,0.0,2-Back,0,m,Fri Feb 28 2025 17:26:28 GMT-0600 (Central Standard Time),565566.6999999881,045_m_m_n_a.png,O,z,1334,12,1,2104.099999964237,563462.6000000238,7064,NNB,A,10
0,prac,2,0.0,2-Back,,,Fri Feb 28 2025 17:26:28 GMT-0600 (Central Standard Time),565566.6999999881,008_y_m_n_a.png,O,a,9249,1,1,2104.099999964237,563462.6000000238,7064,NNB,A,0
0,prac,2,0.0,2-Back,,,Fri Feb 28 2025 17:26:28 GMT-0600 (Central Standard Time),565566.6999999881,043_m_f_n_a.png,O,a,9249,2,1,2104.099999964237,563462.6000000238,7064,NNB,A,0
1,prac,2,1.0,2-Back,1,m,Fri Feb 28 2025 17:26:28 GMT-0600 (Central Standard Time),582344.1000000238,046_o_m_n_a.png,O,m,1619,3,1,2399.600000023842,579944.5,7064,NNB,A,1
2,prac,2,0.0,2-Back,1,m,Fri Feb 28 2025 17:26:28 GMT-0600 (Central Standard Time),584894.1999999881,047_o_f_n_a.png,O,m,1761,4,1,2539.0,582355.1999999881,7064,NNB,A,2
3,prac,2,0.0,2-Back,1,z,Fri Feb 28 2025 17:26:28 GMT-0600 (Central Standard Time),586927.5,046_o_m_n_a.png,O,z,1244,5,1,2023.800000011921,584903.6999999881,7064,NNB,A,3
4,prac,2,1.0,2-Back,1,z,Fri Feb 28 2025 17:26:28 GMT-0600 (Central Standard Time),589310.3000000119,047_o_f_n_a.png,O,z,1603,6,1,2372.100000023842,586938.1999999881,7064,NNB,A,4
5,prac,2,0.0,2-Back,1,m,Fri Feb 28 2025 17:26:28 GMT-0600 (Central Standard Time),591308.1999999881,045_m_m_n_a.png,O,m,1212,7,1,1987.0,589321.1999999881,7064,NNB,A,5
6,prac,2,0.0,2-Back,1,m,Fri Feb 28 2025 17:26:28 GMT-0600 (Central Standard Time),593924.6000000238,053_o_m_n_a.png,O,m,1838,8,1,2605.400000035763,591319.1999999881,7064,NNB,A,6
7,prac,2,0.0,2-Back,1,m,Fri Feb 28 2025 17:26:28 GMT-0600 (Central Standard Time),596207.8000000119,010_y_f_n_a.png,O,m,1492,9,1,2272.199999988079,593935.6000000238,7064,NNB,A,7
8,prac,2,1.0,2-Back,1,z,Fri Feb 28 2025 17:26:28 GMT-0600 (Central Standard Time),598005.9000000358,053_o_m_n_a.png,O,z,1019,10,1,1788.9000000357628,596217.0,7064,NNB,A,8
9,prac,2,0.0,2-Back,1,m,Fri Feb 28 2025 17:26:28 GMT-0600 (Central Standard Time),599889.0,063_y_f_n_a.png,O,m,1101,11,1,1872.8999999761581,598016.1000000238,7064,NNB,A,9
10,prac,2,0.0,2-Back,1,m,Fri Feb 28 2025 17:26:28 GMT-0600 (Central Standard Time),601756.6999999881,045_m_m_n_a.png,O,m,1096,12,1,1856.8999999761581,599899.8000000119,7064,NNB,A,10
0,prac,3,0.0,2-Back,,,Fri Feb 28 2025 17:26:28 GMT-0600 (Central Standard Time),601756.6999999881,008_y_m_n_a.png,O,a,12058,1,1,1856.8999999761581,599899.8000000119,7064,NNB,A,0
0,prac,3,0.0,2-Back,,,Fri Feb 28 2025 17:26:28 GMT-0600 (Central Standard Time),601756.6999999881,043_m_f_n_a.png,O,a,12058,2,1,1856.8999999761581,599899.8000000119,7064,NNB,A,0
1,prac,3,1.0,2-Back,1,m,Fri Feb 28 2025 17:26:28 GMT-0600 (Central Standard Time),620766.6999999881,046_o_m_n_a.png,O,m,1044,3,1,1807.0,618959.6999999881,7064,NNB,A,1
2,prac,3,0.0,2-Back,1,m,Fri Feb 28 2025 17:26:28 GMT-0600 (Central Standard Time),623033.3000000119,047_o_f_n_a.png,O,m,1490,4,1,2255.600000023842,620777.6999999881,7064,NNB,A,2
3,prac,3,0.0,2-Back,1,z,Fri Feb 28 2025 17:26:28 GMT-0600 (Central Standard Time),624813.9000000358,046_o_m_n_a.png,O,z,1003,5,1,1769.9000000357628,623044.0,7064,NNB,A,3
4,prac,3,1.0,2-Back,1,z,Fri Feb 28 2025 17:26:28 GMT-0600 (Central Standard Time),627081.6999999881,047_o_f_n_a.png,O,z,1489,6,1,2256.399999976158,624825.3000000119,7064,NNB,A,4
5,prac,3,0.0,2-Back,1,m,Fri Feb 28 2025 17:26:28 GMT-0600 (Central Standard Time),628848.1000000238,045_m_m_n_a.png,O,m,1001,7,1,1756.1000000238419,627092.0,7064,NNB,A,5
6,prac,3,0.0,2-Back,1,m,Fri Feb 28 2025 17:26:28 GMT-0600 (Central Standard Time),630813.1999999881,053_o_m_n_a.png,O,m,1168,8,1,1955.5,628857.6999999881,7064,NNB,A,6
7,prac,3,0.0,2-Back,1,m,Fri Feb 28 2025 17:26:28 GMT-0600 (Central Standard Time),632446.5,010_y_f_n_a.png,O,m,800,9,1,1621.5999999642372,630824.9000000358,7064,NNB,A,7
8,prac,3,1.0,2-Back,1,z,Fri Feb 28 2025 17:26:28 GMT-0600 (Central Standard Time),634145.8000000119,053_o_m_n_a.png,O,z,906,10,1,1687.8999999761581,632457.9000000358,7064,NNB,A,8
9,prac,3,0.0,2-Back,1,m,Fri Feb 28 2025 17:26:28 GMT-0600 (Central Standard Time),635977.9000000358,063_y_f_n_a.png,O,m,1011,11,1,1821.4000000357628,634156.5,7064,NNB,A,9
10,prac,3,0.0,2-Back,1,m,Fri Feb 28 2025 17:26:28 GMT-0600 (Central Standard Time),638410.5,045_m_m_n_a.png,O,m,1657,12,1,2421.899999976158,635988.6000000238,7064,NNB,A,10
0,test,1,0.0,2-Back,,,Fri Feb 28 2025 17:26:28 GMT-0600 (Central Standard Time),638410.5,041_y_m_n_a.png,O,space,18390,1,1,2421.899999976158,635988.6000000238,7064,NNB,A,0
0,test,1,0.0,2-Back,,,Fri Feb 28 2025 17:26:28 GMT-0600 (Central Standard Time),638410.5,041_y_m_n_a.png,O,space,18390,2,1,2421.899999976158,635988.6000000238,7064,NNB,A,0
1,test,1,0.0,2-Back,1,m,Fri Feb 28 2025 17:26:28 GMT-0600 (Central Standard Time),671733.4000000358,047_o_f_n_a.png,O,m,857,3,1,1871.300000011921,669862.1000000238,7064,NNB,A,1
2,test,1,0.0,2-Back,1,m,Fri Feb 28 2025 17:26:28 GMT-0600 (Central Standard Time),673733.1000000238,058_m_m_n_a.png,O,m,973,4,1,1990.9000000357628,671742.1999999881,7064,NNB,A,2
3,test,1,1.0,2-Back,1,z,Fri Feb 28 2025 17:26:28 GMT-0600 (Central Standard Time),675666.6000000238,047_o_f_n_a.png,O,z,910,5,1,1924.5,673742.1000000238,7064,NNB,A,3
4,test,1,0.0,2-Back,1,m,Fri Feb 28 2025 17:26:28 GMT-0600 (Central Standard Time),677549.4000000358,063_y_f_n_a.png,O,m,859,6,1,1872.4000000357628,675677.0,7064,NNB,A,4
5,test,1,0.0,2-Back,1,m,Fri Feb 28 2025 17:26:28 GMT-0600 (Central Standard Time),679682.1000000238,058_m_m_n_a.png,O,m,1105,7,1,2123.5,677558.6000000238,7064,NNB,A,5
6,test,1,1.0,2-Back,1,z,Fri Feb 28 2025 17:26:28 GMT-0600 (Central Standard Time),681463.4000000358,063_y_f_n_a.png,O,z,749,8,1,1771.0,679692.4000000358,7064,NNB,A,6
7,test,1,0.0,2-Back,1,m,Fri Feb 28 2025 17:26:28 GMT-0600 (Central Standard Time),683479.6000000238,008_y_m_n_a.png,O,m,983,9,1,2006.4000000357628,681473.1999999881,7064,NNB,A,7
8,test,1,0.0,2-Back,1,m,Fri Feb 28 2025 17:26:28 GMT-0600 (Central Standard Time),685281.3000000119,044_o_f_n_a.png,O,m,783,10,1,1791.5,683489.8000000119,7064,NNB,A,8
9,test,1,1.0,2-Back,1,z,Fri Feb 28 2025 17:26:28 GMT-0600 (Central Standard Time),687279.0,008_y_m_n_a.png,O,z,982,11,1,1987.199999988079,685291.8000000119,7064,NNB,A,9
10,test,1,0.0,2-Back,1,m,Fri Feb 28 2025 17:26:28 GMT-0600 (Central Standard Time),688995.1999999881,043_m_f_n_a.png,O,m,684,12,1,1706.5999999642372,687288.6000000238,7064,NNB,A,10
11,test,1,0.0,2-Back,1,m,Fri Feb 28 2025 17:26:28 GMT-0600 (Central Standard Time),691626.4000000358,043_m_f_n_a.png,O,m,1609,13,1,2621.900000035763,689004.5,7064,NNB,A,11
12,test,1,0.0,2-Back,1,m,Fri Feb 28 2025 17:26:28 GMT-0600 (Central Standard Time),694144.4000000358,046_o_m_n_a.png,O,m,1487,14,1,2510.600000023842,691633.8000000119,7064,NNB,A,12
13,test,1,0.0,2-Back,1,m,Fri Feb 28 2025 17:26:28 GMT-0600 (Central Standard Time),696492.3000000119,044_o_f_n_a.png,O,m,1325,15,1,2339.5,694152.8000000119,7064,NNB,A,13
14,test,1,1.0,2-Back,1,z,Fri Feb 28 2025 17:26:28 GMT-0600 (Central Standard Time),698942.5,046_o_m_n_a.png,O,z,1432,16,1,2441.199999988079,696501.3000000119,7064,NNB,A,14
15,test,1,0.0,2-Back,1,m,Fri Feb 28 2025 17:26:28 GMT-0600 (Central Standard Time),701306.3000000119,050_m_f_n_a.png,O,m,1334,17,1,2354.100000023842,698952.1999999881,7064,NNB,A,15
16,test,1,0.0,2-Back,1,m,Fri Feb 28 2025 17:26:28 GMT-0600 (Central Standard Time),703323.5,045_m_m_n_a.png,O,m,984,18,1,2008.3999999761581,701315.1000000238,7064,NNB,A,16
0,test,2,0.0,2-Back,,,Fri Feb 28 2025 17:26:28 GMT-0600 (Central Standard Time),703323.5,045_m_m_n_a.png,O,space,3007,1,1,2008.3999999761581,701315.1000000238,7064,NNB,A,0
0,test,2,0.0,2-Back,,,Fri Feb 28 2025 17:26:28 GMT-0600 (Central Standard Time),703323.5,010_y_f_n_a.png,O,space,3007,2,1,2008.3999999761581,701315.1000000238,7064,NNB,A,0
1,test,2,1.0,2-Back,1,z,Fri Feb 28 2025 17:26:28 GMT-0600 (Central Standard Time),713318.9000000358,045_m_m_n_a.png,O,z,878,3,1,1889.6000000238419,711429.3000000119,7064,NNB,A,1
2,test,2,0.0,2-Back,1,m,Fri Feb 28 2025 17:26:28 GMT-0600 (Central Standard Time),715586.4000000358,050_m_f_n_a.png,O,m,1245,4,1,2259.0,713327.4000000358,7064,NNB,A,2
3,test,2,0.0,2-Back,1,m,Fri Feb 28 2025 17:26:28 GMT-0600 (Central Standard Time),717584.9000000358,010_y_f_n_a.png,O,m,976,5,1,1989.4000000357628,715595.5,7064,NNB,A,3
4,test,2,0.0,2-Back,1,m,Fri Feb 28 2025 17:26:28 GMT-0600 (Central Standard Time),719634.6000000238,046_o_m_n_a.png,O,m,1016,6,1,2041.699999988079,717592.9000000358,7064,NNB,A,4
5,test,2,0.0,2-Back,1,m,Fri Feb 28 2025 17:26:28 GMT-0600 (Central Standard Time),721933.3000000119,063_y_f_n_a.png,O,m,1279,7,1,2289.899999976158,719643.4000000358,7064,NNB,A,5
6,test,2,1.0,2-Back,1,z,Fri Feb 28 2025 17:26:28 GMT-0600 (Central Standard Time),723799.1999999881,046_o_m_n_a.png,O,z,846,8,1,1857.699999988079,721941.5,7064,NNB,A,6
7,test,2,0.0,2-Back,1,m,Fri Feb 28 2025 17:26:28 GMT-0600 (Central Standard Time),725768.1999999881,008_y_m_n_a.png,O,m,951,9,1,1959.7999999523163,723808.4000000358,7064,NNB,A,7
7,test,2,0.0,2-Back,0,m,Fri Feb 28 2025 17:26:28 GMT-0600 (Central Standard Time),728799.0,008_y_m_n_a.png,O,None,2016,10,1,3022.0,725777.0,7064,NNB,A,8
8,test,2,0.0,2-Back,1,m,Fri Feb 28 2025 17:26:28 GMT-0600 (Central Standard Time),730930.3000000119,043_m_f_n_a.png,O,m,1110,11,1,2121.600000023842,728808.6999999881,7064,NNB,A,9
9,test,2,0.0,2-Back,1,m,Fri Feb 28 2025 17:26:28 GMT-0600 (Central Standard Time),733711.6999999881,010_y_f_n_a.png,O,m,1753,12,1,2772.599999964237,730939.1000000238,7064,NNB,A,10
10,test,2,1.0,2-Back,1,z,Fri Feb 28 2025 17:26:28 GMT-0600 (Central Standard Time),735362.9000000358,043_m_f_n_a.png,O,z,626,13,1,1642.2000000476837,733720.6999999881,7064,NNB,A,11
11,test,2,0.0,2-Back,1,m,Fri Feb 28 2025 17:26:28 GMT-0600 (Central Standard Time),737229.3000000119,053_o_m_n_a.png,O,m,841,14,1,1857.300000011921,735372.0,7064,NNB,A,12
11,test,2,0.0,2-Back,0,m,Fri Feb 28 2025 17:26:28 GMT-0600 (Central Standard Time),739561.6000000238,053_o_m_n_a.png,O,z,1312,15,1,2323.600000023842,737238.0,7064,NNB,A,13
11,test,2,0.0,2-Back,0,m,Fri Feb 28 2025 17:26:28 GMT-0600 (Central Standard Time),742495.1999999881,044_o_f_n_a.png,O,z,1916,16,1,2924.199999988079,739571.0,7064,NNB,A,14
12,test,2,0.0,2-Back,1,m,Fri Feb 28 2025 17:26:28 GMT-0600 (Central Standard Time),745242.9000000358,058_m_m_n_a.png,O,m,1719,17,1,2739.100000023842,742503.8000000119,7064,NNB,A,15
13,test,2,1.0,2-Back,1,z,Fri Feb 28 2025 17:26:28 GMT-0600 (Central Standard Time),747376.0,044_o_f_n_a.png,O,z,1115,18,1,2123.399999976158,745252.6000000238,7064,NNB,A,16
0,test,3,1.0,2-Back,,,Fri Feb 28 2025 17:26:28 GMT-0600 (Central Standard Time),747376.0,041_y_m_n_a.png,O,space,2308,1,1,2123.399999976158,745252.6000000238,7064,NNB,A,0
0,test,3,1.0,2-Back,,,Fri Feb 28 2025 17:26:28 GMT-0600 (Central Standard Time),747376.0,041_y_m_n_a.png,O,space,2308,2,1,2123.399999976158,745252.6000000238,7064,NNB,A,0
1,test,3,0.0,2-Back,1,m,Fri Feb 28 2025 17:26:28 GMT-0600 (Central Standard Time),756807.5,044_o_f_n_a.png,O,m,1004,3,1,2023.800000011921,754783.6999999881,7064,NNB,A,1
1,test,3,0.0,2-Back,0,m,Fri Feb 28 2025 17:26:28 GMT-0600 (Central Standard Time),759838.0,045_m_m_n_a.png,O,None,2014,4,1,3019.899999976158,756818.1000000238,7064,NNB,A,2
2,test,3,1.0,2-Back,1,z,Fri Feb 28 2025 17:26:28 GMT-0600 (Central Standard Time),762520.3000000119,044_o_f_n_a.png,O,z,1653,5,1,2672.5,759847.8000000119,7064,NNB,A,3
2,test,3,0.0,2-Back,0,m,Fri Feb 28 2025 17:26:28 GMT-0600 (Central Standard Time),765554.4000000358,008_y_m_n_a.png,O,None,2016,6,1,3025.800000011921,762528.6000000238,7064,NNB,A,4
2,test,3,0.0,2-Back,0,m,Fri Feb 28 2025 17:26:28 GMT-0600 (Central Standard Time),768568.9000000358,045_m_m_n_a.png,O,None,2001,7,1,3004.300000011921,765564.6000000238,7064,NNB,A,5
2,test,3,1.0,2-Back,0,z,Fri Feb 28 2025 17:26:28 GMT-0600 (Central Standard Time),771586.0,008_y_m_n_a.png,O,None,2001,8,1,3008.300000011921,768577.6999999881,7064,NNB,A,6
3,test,3,0.0,2-Back,1,m,Fri Feb 28 2025 17:26:28 GMT-0600 (Central Standard Time),774117.4000000358,010_y_f_n_a.png,O,m,1505,9,1,2522.300000011921,771595.1000000238,7064,NNB,A,7
3,test,3,0.0,2-Back,0,m,Fri Feb 28 2025 17:26:28 GMT-0600 (Central Standard Time),777151.1999999881,058_m_m_n_a.png,O,None,2016,10,1,3024.099999964237,774127.1000000238,7064,NNB,A,8
4,test,3,1.0,2-Back,1,z,Fri Feb 28 2025 17:26:28 GMT-0600 (Central Standard Time),779249.3000000119,010_y_f_n_a.png,O,z,1070,11,1,2089.100000023842,777160.1999999881,7064,NNB,A,9
5,test,3,1.0,2-Back,1,z,Fri Feb 28 2025 17:26:28 GMT-0600 (Central Standard Time),781898.9000000358,058_m_m_n_a.png,O,z,1626,12,1,2641.7000000476837,779257.1999999881,7064,NNB,A,10
6,test,3,0.0,2-Back,1,m,Fri Feb 28 2025 17:26:28 GMT-0600 (Central Standard Time),783565.4000000358,044_o_f_n_a.png,O,m,630,13,1,1656.800000011921,781908.6000000238,7064,NNB,A,11
7,test,3,0.0,2-Back,1,m,Fri Feb 28 2025 17:26:28 GMT-0600 (Central Standard Time),785446.6000000238,050_m_f_n_a.png,O,m,854,14,1,1872.199999988079,783574.4000000358,7064,NNB,A,12
7,test,3,0.0,2-Back,0,m,Fri Feb 28 2025 17:26:28 GMT-0600 (Central Standard Time),788065.3000000119,046_o_m_n_a.png,O,z,1586,15,1,2607.699999988079,785457.6000000238,7064,NNB,A,13
7,test,3,1.0,2-Back,0,z,Fri Feb 28 2025 17:26:28 GMT-0600 (Central Standard Time),789981.0,050_m_f_n_a.png,O,m,899,16,1,1908.8999999761581,788072.1000000238,7064,NNB,A,14
8,test,3,0.0,2-Back,1,m,Fri Feb 28 2025 17:26:28 GMT-0600 (Central Standard Time),792028.6999999881,047_o_f_n_a.png,O,m,1023,17,1,2038.0999999642372,789990.6000000238,7064,NNB,A,15
9,test,3,0.0,2-Back,1,m,Fri Feb 28 2025 17:26:28 GMT-0600 (Central Standard Time),794343.8000000119,047_o_f_n_a.png,O,m,1295,18,1,2305.699999988079,792038.1000000238,7064,NNB,A,16
0,test,4,0.0,2-Back,,,Fri Feb 28 2025 17:26:28 GMT-0600 (Central Standard Time),794343.8000000119,053_o_m_n_a.png,O,space,5276,1,1,2305.699999988079,792038.1000000238,7064,NNB,A,0
0,test,4,0.0,2-Back,,,Fri Feb 28 2025 17:26:28 GMT-0600 (Central Standard Time),794343.8000000119,063_y_f_n_a.png,O,space,5276,2,1,2305.699999988079,792038.1000000238,7064,NNB,A,0
0,test,4,1.0,2-Back,0,z,Fri Feb 28 2025 17:26:28 GMT-0600 (Central Standard Time),807756.6999999881,053_o_m_n_a.png,O,None,2016,3,1,3022.099999964237,804734.6000000238,7064,NNB,A,1
0,test,4,1.0,2-Back,0,z,Fri Feb 28 2025 17:26:28 GMT-0600 (Central Standard Time),810789.6000000238,063_y_f_n_a.png,O,None,2015,4,1,3023.199999988079,807766.4000000358,7064,NNB,A,2
1,test,4,0.0,2-Back,1,m,Fri Feb 28 2025 17:26:28 GMT-0600 (Central Standard Time),813572.1000000238,044_o_f_n_a.png,O,m,1751,5,1,2773.699999988079,810798.4000000358,7064,NNB,A,3
1,test,4,0.0,2-Back,0,m,Fri Feb 28 2025 17:26:28 GMT-0600 (Central Standard Time),816387.9000000358,044_o_f_n_a.png,O,z,1784,6,1,2805.600000023842,813582.3000000119,7064,NNB,A,4
2,test,4,0.0,2-Back,1,m,Fri Feb 28 2025 17:26:28 GMT-0600 (Central Standard Time),818502.8000000119,043_m_f_n_a.png,O,m,1088,7,1,2104.100000023842,816398.6999999881,7064,NNB,A,5
2,test,4,0.0,2-Back,0,m,Fri Feb 28 2025 17:26:28 GMT-0600 (Central Standard Time),821319.6000000238,008_y_m_n_a.png,O,z,1788,8,1,2807.400000035763,818512.1999999881,7064,NNB,A,6
3,test,4,1.0,2-Back,1,z,Fri Feb 28 2025 17:26:28 GMT-0600 (Central Standard Time),823668.3000000119,043_m_f_n_a.png,O,z,1317,9,1,2339.100000023842,821329.1999999881,7064,NNB,A,7
4,test,4,0.0,2-Back,1,m,Fri Feb 28 2025 17:26:28 GMT-0600 (Central Standard Time),825917.8000000119,058_m_m_n_a.png,O,m,1222,10,1,2238.100000023842,823679.6999999881,7064,NNB,A,8
4,test,4,0.0,2-Back,0,m,Fri Feb 28 2025 17:26:28 GMT-0600 (Central Standard Time),828499.4000000358,008_y_m_n_a.png,O,z,1559,11,1,2571.5,825927.9000000358,7064,NNB,A,9
5,test,4,0.0,2-Back,1,m,Fri Feb 28 2025 17:26:28 GMT-0600 (Central Standard Time),830717.0,047_o_f_n_a.png,O,m,1189,12,1,2208.199999988079,828508.8000000119,7064,NNB,A,10
6,test,4,0.0,2-Back,1,m,Fri Feb 28 2025 17:26:28 GMT-0600 (Central Standard Time),833331.8000000119,041_y_m_n_a.png,O,m,1592,13,1,2606.0,830725.8000000119,7064,NNB,A,11
7,test,4,1.0,2-Back,1,z,Fri Feb 28 2025 17:26:28 GMT-0600 (Central Standard Time),835413.4000000358,047_o_f_n_a.png,O,z,1065,14,1,2072.0,833341.4000000358,7064,NNB,A,12
8,test,4,1.0,2-Back,1,z,Fri Feb 28 2025 17:26:28 GMT-0600 (Central Standard Time),837696.3000000119,041_y_m_n_a.png,O,z,1262,15,1,2275.300000011921,835421.0,7064,NNB,A,13
9,test,4,0.0,2-Back,1,m,Fri Feb 28 2025 17:26:28 GMT-0600 (Central Standard Time),839763.4000000358,045_m_m_n_a.png,O,m,1043,16,1,2057.600000023842,837705.8000000119,7064,NNB,A,14
10,test,4,0.0,2-Back,1,m,Fri Feb 28 2025 17:26:28 GMT-0600 (Central Standard Time),841612.5,050_m_f_n_a.png,O,m,824,17,1,1840.0999999642372,839772.4000000358,7064,NNB,A,15
10,test,4,1.0,2-Back,0,z,Fri Feb 28 2025 17:26:28 GMT-0600 (Central Standard Time),844377.5,045_m_m_n_a.png,O,m,1743,18,1,2754.5,841623.0,7064,NNB,A,16
0,test,5,1.0,2-Back,,,Fri Feb 28 2025 17:26:28 GMT-0600 (Central Standard Time),844377.5,041_y_m_n_a.png,O,space,2802,1,1,2754.5,841623.0,7064,NNB,A,0
0,test,5,1.0,2-Back,,,Fri Feb 28 2025 17:26:28 GMT-0600 (Central Standard Time),844377.5,050_m_f_n_a.png,O,space,2802,2,1,2754.5,841623.0,7064,NNB,A,0
1,test,5,1.0,2-Back,1,z,Fri Feb 28 2025 17:26:28 GMT-0600 (Central Standard Time),854709.0,041_y_m_n_a.png,O,z,1432,3,1,2458.0,852251.0,7064,NNB,A,1
2,test,5,1.0,2-Back,1,z,Fri Feb 28 2025 17:26:28 GMT-0600 (Central Standard Time),856773.6999999881,050_m_f_n_a.png,O,z,1046,4,1,2054.7999999523163,854718.9000000358,7064,NNB,A,2
3,test,5,0.0,2-Back,1,m,Fri Feb 28 2025 17:26:28 GMT-0600 (Central Standard Time),859439.5,047_o_f_n_a.png,O,m,1646,5,1,2658.300000011921,856781.1999999881,7064,NNB,A,3
3,test,5,0.0,2-Back,0,m,Fri Feb 28 2025 17:26:28 GMT-0600 (Central Standard Time),862021.8000000119,041_y_m_n_a.png,O,z,1555,6,1,2576.300000011921,859445.5,7064,NNB,A,4
4,test,5,0.0,2-Back,1,m,Fri Feb 28 2025 17:26:28 GMT-0600 (Central Standard Time),863990.4000000358,010_y_f_n_a.png,O,m,950,7,1,1958.5,862031.9000000358,7064,NNB,A,5
4,test,5,0.0,2-Back,0,m,Fri Feb 28 2025 17:26:28 GMT-0600 (Central Standard Time),866887.3000000119,047_o_f_n_a.png,O,z,1869,8,1,2888.399999976158,863998.9000000358,7064,NNB,A,6
5,test,5,1.0,2-Back,1,z,Fri Feb 28 2025 17:26:28 GMT-0600 (Central Standard Time),868605.1000000238,010_y_f_n_a.png,O,z,701,9,1,1710.0,866895.1000000238,7064,NNB,A,7
6,test,5,0.0,2-Back,1,m,Fri Feb 28 2025 17:26:28 GMT-0600 (Central Standard Time),870719.6999999881,046_o_m_n_a.png,O,m,1086,10,1,2107.699999988079,868612.0,7064,NNB,A,8
7,test,5,0.0,2-Back,1,m,Fri Feb 28 2025 17:26:28 GMT-0600 (Central Standard Time),873101.6999999881,043_m_f_n_a.png,O,m,1355,11,1,2373.099999964237,870728.6000000238,7064,NNB,A,9
8,test,5,0.0,2-Back,1,m,Fri Feb 28 2025 17:26:28 GMT-0600 (Central Standard Time),875252.9000000358,058_m_m_n_a.png,O,m,1134,12,1,2141.100000023842,873111.8000000119,7064,NNB,A,10
8,test,5,0.0,2-Back,0,m,Fri Feb 28 2025 17:26:28 GMT-0600 (Central Standard Time),877235.0,046_o_m_n_a.png,O,z,959,13,1,1973.3999999761581,875261.6000000238,7064,NNB,A,11
9,test,5,1.0,2-Back,1,z,Fri Feb 28 2025 17:26:28 GMT-0600 (Central Standard Time),879433.9000000358,058_m_m_n_a.png,O,z,1176,14,1,2189.7000000476837,877244.1999999881,7064,NNB,A,12
10,test,5,0.0,2-Back,1,m,Fri Feb 28 2025 17:26:28 GMT-0600 (Central Standard Time),881450.1000000238,063_y_f_n_a.png,O,m,994,15,1,2005.300000011921,879444.8000000119,7064,NNB,A,13
11,test,5,0.0,2-Back,1,m,Fri Feb 28 2025 17:26:28 GMT-0600 (Central Standard Time),884215.3000000119,053_o_m_n_a.png,O,m,1747,16,1,2756.399999976158,881458.9000000358,7064,NNB,A,14
11,test,5,0.0,2-Back,0,m,Fri Feb 28 2025 17:26:28 GMT-0600 (Central Standard Time),887031.1000000238,043_m_f_n_a.png,O,z,1798,17,1,2807.0,884224.1000000238,7064,NNB,A,15
12,test,5,1.0,2-Back,1,z,Fri Feb 28 2025 17:26:28 GMT-0600 (Central Standard Time),889113.1000000238,053_o_m_n_a.png,O,z,1059,18,1,2072.600000023842,887040.5,7064,NNB,A,16
