acc_sum,block,block_c,change,condition,correct,correct_response,datetime,endtime,face,project,response,response_time,row_sel,session_number,start_end,starttime,subject_id,task,task_vers,trial
0,prac,1,,1-Back,,,Thu Oct 24 2024 15:23:05 GMT-0500 (Central Daylight Time),,005_o_f_d_a.png,O,space,10800,1,1,,,7030,VNB,B,0
1,prac,1,0.0,1-Back,1,m,Thu Oct 24 2024 15:23:05 GMT-0500 (Central Daylight Time),138504.09999996424,020_y_f_n_a.png,O,m,1913,2,1,2813.0,135691.09999996424,7030,VNB,B,1
2,prac,1,0.0,1-Back,1,m,Thu Oct 24 2024 15:23:05 GMT-0500 (Central Daylight Time),140753.09999996424,007_m_m_h_a.png,O,m,1281,3,1,2211.5,138541.59999996424,7030,VNB,B,2
3,prac,1,0.0,1-Back,1,m,Thu Oct 24 2024 15:23:05 GMT-0500 (Central Daylight Time),143119.09999996424,016_y_m_d_a.png,O,m,1408,4,1,2330.800000011921,140788.29999995232,7030,VNB,B,3
3,prac,1,0.0,1-Back,0,m,Thu Oct 24 2024 15:23:05 GMT-0500 (Central Daylight Time),145484.79999995232,005_o_f_n_a.png,O,z,1415,5,1,2329.0,143155.79999995232,7030,VNB,B,4
3,prac,1,1.0,1-Back,0,z,Thu Oct 24 2024 15:23:05 GMT-0500 (Central Daylight Time),147883.79999995232,016_y_m_n_a.png,O,m,1387,6,1,2303.2999999523163,145580.5,7030,VNB,B,5
4,prac,1,0.0,1-Back,1,m,Thu Oct 24 2024 15:23:05 GMT-0500 (Central Daylight Time),150299.89999997616,004_o_m_h_a.png,O,m,1476,7,1,2379.0,147920.89999997616,7030,VNB,B,6
4,prac,1,0.0,1-Back,0,m,Thu Oct 24 2024 15:23:05 GMT-0500 (Central Daylight Time),152232.39999997616,011_m_f_d_a.png,O,z,944,8,1,1850.6000000238419,150381.79999995232,7030,VNB,B,7
4,prac,1,1.0,1-Back,0,z,Thu Oct 24 2024 15:23:05 GMT-0500 (Central Daylight Time),154365.0,020_y_f_d_a.png,O,m,1196,9,1,2099.400000035763,152265.59999996424,7030,VNB,B,8
5,prac,1,0.0,1-Back,1,m,Thu Oct 24 2024 15:23:05 GMT-0500 (Central Daylight Time),156648.0,007_m_m_n_a.png,O,m,1285,10,1,2201.300000011921,154446.69999998808,7030,VNB,B,9
6,prac,1,0.0,1-Back,1,m,Thu Oct 24 2024 15:23:05 GMT-0500 (Central Daylight Time),159246.89999997616,005_o_f_h_a.png,O,m,1656,11,1,2567.800000011921,156679.09999996424,7030,VNB,B,10
7,prac,1,0.0,1-Back,1,m,Thu Oct 24 2024 15:23:05 GMT-0500 (Central Daylight Time),161696.29999995232,016_y_m_d_a.png,O,m,1484,12,1,2410.7999999523163,159285.5,7030,VNB,B,11
0,prac,2,0.0,1-Back,,,Thu Oct 24 2024 15:23:05 GMT-0500 (Central Daylight Time),161696.29999995232,005_o_f_d_a.png,O,a,13135,1,1,2410.7999999523163,159285.5,7030,VNB,B,0
1,prac,2,0.0,1-Back,1,m,Thu Oct 24 2024 15:23:05 GMT-0500 (Central Daylight Time),179992.5,020_y_f_n_a.png,O,m,1130,2,1,2014.1000000238419,177978.39999997616,7030,VNB,B,1
2,prac,2,0.0,1-Back,1,m,Thu Oct 24 2024 15:23:05 GMT-0500 (Central Daylight Time),182041.5,007_m_m_h_a.png,O,m,1096,3,1,2018.1000000238419,180023.39999997616,7030,VNB,B,2
3,prac,2,0.0,1-Back,1,m,Thu Oct 24 2024 15:23:05 GMT-0500 (Central Daylight Time),184055.19999998808,016_y_m_d_a.png,O,m,1151,4,1,1923.1000000238419,182132.09999996424,7030,VNB,B,3
3,prac,2,0.0,1-Back,0,m,Thu Oct 24 2024 15:23:05 GMT-0500 (Central Daylight Time),186387.0,005_o_f_n_a.png,O,z,1330,5,1,2241.400000035763,184145.59999996424,7030,VNB,B,4
3,prac,2,1.0,1-Back,0,z,Thu Oct 24 2024 15:23:05 GMT-0500 (Central Daylight Time),189319.69999998808,016_y_m_n_a.png,O,None,2011,6,1,2924.0,186395.69999998808,7030,VNB,B,5
4,prac,2,0.0,1-Back,1,m,Thu Oct 24 2024 15:23:05 GMT-0500 (Central Daylight Time),191335.79999995232,004_o_m_h_a.png,O,m,1108,7,1,1994.0,189341.79999995232,7030,VNB,B,6
5,prac,2,0.0,1-Back,1,m,Thu Oct 24 2024 15:23:05 GMT-0500 (Central Daylight Time),193168.09999996424,011_m_f_d_a.png,O,m,890,8,1,1811.800000011921,191356.29999995232,7030,VNB,B,7
6,prac,2,1.0,1-Back,1,z,Thu Oct 24 2024 15:23:05 GMT-0500 (Central Daylight Time),195418.5,020_y_f_d_a.png,O,z,1337,9,1,2240.800000011921,193177.69999998808,7030,VNB,B,8
7,prac,2,0.0,1-Back,1,m,Thu Oct 24 2024 15:23:05 GMT-0500 (Central Daylight Time),197550.89999997616,007_m_m_n_a.png,O,m,1183,10,1,2110.600000023842,195440.29999995232,7030,VNB,B,9
8,prac,2,0.0,1-Back,1,m,Thu Oct 24 2024 15:23:05 GMT-0500 (Central Daylight Time),199716.79999995232,005_o_f_h_a.png,O,m,1222,11,1,2138.899999976158,197577.89999997616,7030,VNB,B,10
9,prac,2,0.0,1-Back,1,m,Thu Oct 24 2024 15:23:05 GMT-0500 (Central Daylight Time),201682.89999997616,016_y_m_d_a.png,O,m,1010,12,1,1928.800000011921,199754.09999996424,7030,VNB,B,11
0,test,1,0.0,1-Back,,,Thu Oct 24 2024 15:23:05 GMT-0500 (Central Daylight Time),201682.89999997616,020_y_f_d_a.png,O,space,8694,1,1,1928.800000011921,199754.09999996424,7030,VNB,B,0
1,test,1,0.0,1-Back,1,m,Thu Oct 24 2024 15:23:05 GMT-0500 (Central Daylight Time),220325.89999997616,011_m_f_n_a.png,O,m,1211,2,1,2218.899999976158,218107.0,7030,VNB,B,1
2,test,1,0.0,1-Back,1,m,Thu Oct 24 2024 15:23:05 GMT-0500 (Central Daylight Time),222425.09999996424,004_o_m_h_a.png,O,m,1074,3,1,2093.5,220331.59999996424,7030,VNB,B,2
3,test,1,1.0,1-Back,1,z,Thu Oct 24 2024 15:23:05 GMT-0500 (Central Daylight Time),224507.69999998808,007_m_m_h_a.png,O,z,1064,4,1,2077.900000035763,222429.79999995232,7030,VNB,B,3
4,test,1,0.0,1-Back,1,m,Thu Oct 24 2024 15:23:05 GMT-0500 (Central Daylight Time),226490.39999997616,005_o_f_n_a.png,O,m,958,5,1,1977.699999988079,224512.69999998808,7030,VNB,B,4
5,test,1,0.0,1-Back,1,m,Thu Oct 24 2024 15:23:05 GMT-0500 (Central Daylight Time),228689.79999995232,016_y_m_d_a.png,O,m,1167,6,1,2193.0,226496.79999995232,7030,VNB,B,5
6,test,1,1.0,1-Back,1,z,Thu Oct 24 2024 15:23:05 GMT-0500 (Central Daylight Time),230688.89999997616,011_m_f_d_a.png,O,z,969,7,1,1993.8999999761581,228695.0,7030,VNB,B,6
7,test,1,0.0,1-Back,1,m,Thu Oct 24 2024 15:23:05 GMT-0500 (Central Daylight Time),233038.29999995232,020_y_f_h_a.png,O,m,1328,8,1,2344.099999964237,230694.19999998808,7030,VNB,B,7
8,test,1,0.0,1-Back,1,m,Thu Oct 24 2024 15:23:05 GMT-0500 (Central Daylight Time),235137.5,004_o_m_n_a.png,O,m,1067,9,1,2094.300000011921,233043.19999998808,7030,VNB,B,8
9,test,1,0.0,1-Back,1,m,Thu Oct 24 2024 15:23:05 GMT-0500 (Central Daylight Time),237636.79999995232,016_y_m_h_a.png,O,m,1472,10,1,2494.399999976158,235142.39999997616,7030,VNB,B,9
10,test,1,0.0,1-Back,1,m,Thu Oct 24 2024 15:23:05 GMT-0500 (Central Daylight Time),239802.79999995232,004_o_m_d_a.png,O,m,1134,11,1,2156.699999988079,237646.09999996424,7030,VNB,B,10
11,test,1,1.0,1-Back,1,z,Thu Oct 24 2024 15:23:05 GMT-0500 (Central Daylight Time),241786.19999998808,005_o_f_d_a.png,O,z,953,12,1,1978.800000011921,239807.39999997616,7030,VNB,B,11
12,test,1,0.0,1-Back,1,m,Thu Oct 24 2024 15:23:05 GMT-0500 (Central Daylight Time),243901.39999997616,007_m_m_n_a.png,O,m,1079,13,1,2090.300000011921,241811.09999996424,7030,VNB,B,12
12,test,1,1.0,1-Back,0,z,Thu Oct 24 2024 15:23:05 GMT-0500 (Central Daylight Time),246284.0,020_y_f_n_a.png,O,m,1365,14,1,2376.600000023842,243907.39999997616,7030,VNB,B,13
13,test,1,0.0,1-Back,1,m,Thu Oct 24 2024 15:23:05 GMT-0500 (Central Daylight Time),248549.79999995232,011_m_f_h_a.png,O,m,1237,15,1,2254.199999988079,246295.59999996424,7030,VNB,B,14
14,test,1,0.0,1-Back,1,m,Thu Oct 24 2024 15:23:05 GMT-0500 (Central Daylight Time),250749.09999996424,007_m_m_d_a.png,O,m,1180,16,1,2194.199999988079,248554.89999997616,7030,VNB,B,15
14,test,1,0.0,1-Back,0,m,Thu Oct 24 2024 15:23:05 GMT-0500 (Central Daylight Time),252848.5,016_y_m_n_a.png,O,z,1077,17,1,2094.0,250754.5,7030,VNB,B,16
15,test,1,0.0,1-Back,1,m,Thu Oct 24 2024 15:23:05 GMT-0500 (Central Daylight Time),254947.59999996424,005_o_f_h_a.png,O,m,1081,18,1,2093.5,252854.09999996424,7030,VNB,B,17
0,test,2,0.0,1-Back,,,Thu Oct 24 2024 15:23:05 GMT-0500 (Central Daylight Time),254947.59999996424,016_y_m_n_a.png,O,space,2302,1,1,2093.5,252854.09999996424,7030,VNB,B,0
1,test,2,0.0,1-Back,1,m,Thu Oct 24 2024 15:23:05 GMT-0500 (Central Daylight Time),261378.89999997616,020_y_f_h_a.png,O,m,1066,2,1,2091.399999976158,259287.5,7030,VNB,B,1
2,test,2,1.0,1-Back,1,m,Thu Oct 24 2024 15:23:05 GMT-0500 (Central Daylight Time),263545.0,004_o_m_n_a.png,O,m,1142,3,1,2160.100000023842,261384.89999997616,7030,VNB,B,2
2,test,2,0.0,1-Back,0,m,Thu Oct 24 2024 15:23:05 GMT-0500 (Central Daylight Time),265927.59999996424,011_m_f_d_a.png,O,z,1352,4,1,2377.899999976158,263549.6999999881,7030,VNB,B,3
3,test,2,0.0,1-Back,1,z,Thu Oct 24 2024 15:23:05 GMT-0500 (Central Daylight Time),268294.1999999881,007_m_m_d_a.png,O,z,1340,5,1,2361.600000023842,265932.59999996424,7030,VNB,B,4
4,test,2,0.0,1-Back,1,m,Thu Oct 24 2024 15:23:05 GMT-0500 (Central Daylight Time),270676.1999999881,016_y_m_h_a.png,O,m,1332,6,1,2346.699999988079,268329.5,7030,VNB,B,5
5,test,2,1.0,1-Back,1,z,Thu Oct 24 2024 15:23:05 GMT-0500 (Central Daylight Time),272842.1999999881,005_o_f_h_a.png,O,z,1118,7,1,2150.0,270692.1999999881,7030,VNB,B,6
6,test,2,0.0,1-Back,1,m,Thu Oct 24 2024 15:23:05 GMT-0500 (Central Daylight Time),275208.5,011_m_f_n_a.png,O,m,1286,8,1,2350.400000035763,272858.09999996424,7030,VNB,B,7
7,test,2,0.0,1-Back,1,m,Thu Oct 24 2024 15:23:05 GMT-0500 (Central Daylight Time),277624.1999999881,020_y_f_d_a.png,O,m,1378,9,1,2388.900000035763,275235.2999999523,7030,VNB,B,8
8,test,2,0.0,1-Back,1,m,Thu Oct 24 2024 15:23:05 GMT-0500 (Central Daylight Time),280323.5,007_m_m_n_a.png,O,m,1651,10,1,2683.0,277640.5,7030,VNB,B,9
9,test,2,1.0,1-Back,1,m,Thu Oct 24 2024 15:23:05 GMT-0500 (Central Daylight Time),282622.5,011_m_f_h_a.png,O,m,1212,11,1,2279.100000023842,280343.39999997616,7030,VNB,B,10
10,test,2,0.0,1-Back,1,z,Thu Oct 24 2024 15:23:05 GMT-0500 (Central Daylight Time),284522.09999996424,004_o_m_h_a.png,O,z,801,12,1,1878.0999999642372,282644.0,7030,VNB,B,11
11,test,2,0.0,1-Back,1,m,Thu Oct 24 2024 15:23:05 GMT-0500 (Central Daylight Time),286588.1999999881,016_y_m_d_a.png,O,m,958,13,1,2036.699999988079,284551.5,7030,VNB,B,12
12,test,2,0.0,1-Back,1,m,Thu Oct 24 2024 15:23:05 GMT-0500 (Central Daylight Time),289003.89999997616,005_o_f_n_a.png,O,m,1317,14,1,2391.600000023842,286612.2999999523,7030,VNB,B,13
13,test,2,0.0,1-Back,1,z,Thu Oct 24 2024 15:23:05 GMT-0500 (Central Daylight Time),291603.5,020_y_f_n_a.png,O,z,1551,15,1,2573.800000011921,289029.6999999881,7030,VNB,B,14
14,test,2,1.0,1-Back,1,m,Thu Oct 24 2024 15:23:05 GMT-0500 (Central Daylight Time),293735.59999996424,007_m_m_h_a.png,O,m,1020,16,1,2105.199999988079,291630.39999997616,7030,VNB,B,15
15,test,2,0.0,1-Back,1,m,Thu Oct 24 2024 15:23:05 GMT-0500 (Central Daylight Time),296201.5,005_o_f_d_a.png,O,m,1376,17,1,2450.100000023842,293751.39999997616,7030,VNB,B,16
16,test,2,1.0,1-Back,1,z,Thu Oct 24 2024 15:23:05 GMT-0500 (Central Daylight Time),298283.89999997616,004_o_m_d_a.png,O,z,949,18,1,2051.0,296232.89999997616,7030,VNB,B,17
0,test,3,1.0,1-Back,,,Thu Oct 24 2024 15:23:05 GMT-0500 (Central Daylight Time),298283.89999997616,005_o_f_h_a.png,O,space,1806,1,1,2051.0,296232.89999997616,7030,VNB,B,0
1,test,3,0.0,1-Back,1,m,Thu Oct 24 2024 15:23:05 GMT-0500 (Central Daylight Time),304499.0,011_m_f_d_a.png,O,m,1133,2,1,2153.100000023842,302345.89999997616,7030,VNB,B,1
2,test,3,1.0,1-Back,1,m,Thu Oct 24 2024 15:23:05 GMT-0500 (Central Daylight Time),307097.1999999881,007_m_m_n_a.png,O,m,1500,3,1,2517.5,304579.6999999881,7030,VNB,B,2
3,test,3,0.0,1-Back,1,z,Thu Oct 24 2024 15:23:05 GMT-0500 (Central Daylight Time),309147.2999999523,005_o_f_n_a.png,O,z,1025,4,1,2045.0999999642372,307102.1999999881,7030,VNB,B,3
4,test,3,1.0,1-Back,1,m,Thu Oct 24 2024 15:23:05 GMT-0500 (Central Daylight Time),311363.1999999881,004_o_m_d_a.png,O,m,1125,5,1,2194.5,309168.6999999881,7030,VNB,B,4
5,test,3,0.0,1-Back,1,m,Thu Oct 24 2024 15:23:05 GMT-0500 (Central Daylight Time),313479.09999996424,020_y_f_h_a.png,O,m,1071,6,1,2093.5,311385.59999996424,7030,VNB,B,5
6,test,3,0.0,1-Back,1,z,Thu Oct 24 2024 15:23:05 GMT-0500 (Central Daylight Time),315494.7999999523,016_y_m_h_a.png,O,z,911,7,1,1980.8999999761581,313513.89999997616,7030,VNB,B,6
7,test,3,0.0,1-Back,1,m,Thu Oct 24 2024 15:23:05 GMT-0500 (Central Daylight Time),317878.0,011_m_f_n_a.png,O,m,1306,8,1,2367.2000000476837,315510.7999999523,7030,VNB,B,7
8,test,3,0.0,1-Back,1,m,Thu Oct 24 2024 15:23:05 GMT-0500 (Central Daylight Time),320343.39999997616,020_y_f_d_a.png,O,m,1345,9,1,2355.399999976158,317988.0,7030,VNB,B,8
9,test,3,1.0,1-Back,1,m,Thu Oct 24 2024 15:23:05 GMT-0500 (Central Daylight Time),322859.5,004_o_m_n_a.png,O,m,1425,10,1,2496.7000000476837,320362.7999999523,7030,VNB,B,9
10,test,3,0.0,1-Back,1,m,Thu Oct 24 2024 15:23:05 GMT-0500 (Central Daylight Time),325042.1999999881,007_m_m_h_a.png,O,m,1092,11,1,2161.300000011921,322880.89999997616,7030,VNB,B,10
11,test,3,0.0,1-Back,1,z,Thu Oct 24 2024 15:23:05 GMT-0500 (Central Daylight Time),326825.0,011_m_f_h_a.png,O,z,744,12,1,1761.0,325064.0,7030,VNB,B,11
12,test,3,1.0,1-Back,1,m,Thu Oct 24 2024 15:23:05 GMT-0500 (Central Daylight Time),329007.59999996424,005_o_f_d_a.png,O,m,1145,13,1,2157.800000011921,326849.7999999523,7030,VNB,B,12
13,test,3,0.0,1-Back,1,z,Thu Oct 24 2024 15:23:05 GMT-0500 (Central Daylight Time),331473.39999997616,007_m_m_d_a.png,O,z,1377,14,1,2444.5,329028.89999997616,7030,VNB,B,13
14,test,3,0.0,1-Back,1,m,Thu Oct 24 2024 15:23:05 GMT-0500 (Central Daylight Time),333922.6999999881,016_y_m_n_a.png,O,m,1342,15,1,2357.600000023842,331565.09999996424,7030,VNB,B,14
15,test,3,1.0,1-Back,1,m,Thu Oct 24 2024 15:23:05 GMT-0500 (Central Daylight Time),335988.6999999881,004_o_m_h_a.png,O,m,1032,16,1,2044.300000011921,333944.39999997616,7030,VNB,B,15
16,test,3,0.0,1-Back,1,m,Thu Oct 24 2024 15:23:05 GMT-0500 (Central Daylight Time),338271.2999999523,016_y_m_d_a.png,O,m,1246,17,1,2264.099999964237,336007.1999999881,7030,VNB,B,16
17,test,3,1.0,1-Back,1,m,Thu Oct 24 2024 15:23:05 GMT-0500 (Central Daylight Time),340287.1999999881,020_y_f_n_a.png,O,m,929,18,1,1992.4000000357628,338294.7999999523,7030,VNB,B,17
0,test,4,1.0,1-Back,,,Thu Oct 24 2024 15:23:05 GMT-0500 (Central Daylight Time),340287.1999999881,007_m_m_d_a.png,O,space,2019,1,1,1992.4000000357628,338294.7999999523,7030,VNB,B,0
1,test,4,0.0,1-Back,1,z,Thu Oct 24 2024 15:23:05 GMT-0500 (Central Daylight Time),346535.09999996424,004_o_m_d_a.png,O,z,1162,2,1,2178.0,344357.09999996424,7030,VNB,B,1
2,test,4,0.0,1-Back,1,m,Thu Oct 24 2024 15:23:05 GMT-0500 (Central Daylight Time),348651.09999996424,016_y_m_h_a.png,O,m,1067,3,1,2088.800000011921,346562.2999999523,7030,VNB,B,2
3,test,4,0.0,1-Back,1,m,Thu Oct 24 2024 15:23:05 GMT-0500 (Central Daylight Time),351183.6999999881,011_m_f_n_a.png,O,m,1421,4,1,2441.100000023842,348742.59999996424,7030,VNB,B,3
4,test,4,1.0,1-Back,1,m,Thu Oct 24 2024 15:23:05 GMT-0500 (Central Daylight Time),353348.89999997616,005_o_f_h_a.png,O,m,1079,5,1,2138.199999988079,351210.6999999881,7030,VNB,B,4
5,test,4,0.0,1-Back,1,m,Thu Oct 24 2024 15:23:05 GMT-0500 (Central Daylight Time),355382.2999999523,007_m_m_n_a.png,O,m,1014,6,1,2029.0,353353.2999999523,7030,VNB,B,5
6,test,4,0.0,1-Back,1,m,Thu Oct 24 2024 15:23:05 GMT-0500 (Central Daylight Time),357464.7999999523,016_y_m_d_a.png,O,m,1044,7,1,2059.099999964237,355405.6999999881,7030,VNB,B,6
7,test,4,1.0,1-Back,1,z,Thu Oct 24 2024 15:23:05 GMT-0500 (Central Daylight Time),359497.39999997616,020_y_f_d_a.png,O,z,993,8,1,2010.6000000238419,357486.7999999523,7030,VNB,B,7
8,test,4,0.0,1-Back,1,m,Thu Oct 24 2024 15:23:05 GMT-0500 (Central Daylight Time),361396.7999999523,011_m_f_h_a.png,O,m,815,9,1,1875.5,359521.2999999523,7030,VNB,B,8
9,test,4,0.0,1-Back,1,z,Thu Oct 24 2024 15:23:05 GMT-0500 (Central Daylight Time),363612.0,004_o_m_h_a.png,O,z,1105,10,1,2184.400000035763,361427.59999996424,7030,VNB,B,9
10,test,4,1.0,1-Back,1,m,Thu Oct 24 2024 15:23:05 GMT-0500 (Central Daylight Time),365778.6999999881,005_o_f_n_a.png,O,m,1142,11,1,2160.600000023842,363618.09999996424,7030,VNB,B,10
11,test,4,0.0,1-Back,1,m,Thu Oct 24 2024 15:23:05 GMT-0500 (Central Daylight Time),368277.7999999523,011_m_f_d_a.png,O,m,1397,12,1,2471.199999988079,365806.59999996424,7030,VNB,B,11
12,test,4,0.0,1-Back,1,m,Thu Oct 24 2024 15:23:05 GMT-0500 (Central Daylight Time),370927.09999996424,020_y_f_n_a.png,O,m,1521,13,1,2622.399999976158,368304.6999999881,7030,VNB,B,12
13,test,4,0.0,1-Back,1,m,Thu Oct 24 2024 15:23:05 GMT-0500 (Central Daylight Time),373209.6999999881,005_o_f_d_a.png,O,m,1185,14,1,2257.300000011921,370952.39999997616,7030,VNB,B,13
14,test,4,0.0,1-Back,1,m,Thu Oct 24 2024 15:23:05 GMT-0500 (Central Daylight Time),375508.6999999881,020_y_f_h_a.png,O,m,1214,15,1,2276.199999988079,373232.5,7030,VNB,B,14
15,test,4,1.0,1-Back,1,z,Thu Oct 24 2024 15:23:05 GMT-0500 (Central Daylight Time),377508.1999999881,007_m_m_h_a.png,O,z,891,16,1,1972.0,375536.1999999881,7030,VNB,B,15
16,test,4,0.0,1-Back,1,m,Thu Oct 24 2024 15:23:05 GMT-0500 (Central Daylight Time),379491.0,004_o_m_n_a.png,O,m,892,17,1,1963.7000000476837,377527.2999999523,7030,VNB,B,16
17,test,4,1.0,1-Back,1,z,Thu Oct 24 2024 15:23:05 GMT-0500 (Central Daylight Time),381592.5,016_y_m_n_a.png,O,z,1001,18,1,2069.2000000476837,379523.2999999523,7030,VNB,B,17
0,test,5,1.0,1-Back,,,Thu Oct 24 2024 15:23:05 GMT-0500 (Central Daylight Time),381592.5,004_o_m_n_a.png,O,space,2090,1,1,2069.2000000476837,379523.2999999523,7030,VNB,B,0
1,test,5,1.0,1-Back,1,m,Thu Oct 24 2024 15:23:05 GMT-0500 (Central Daylight Time),387705.0,005_o_f_h_a.png,O,m,936,2,1,1963.300000011921,385741.6999999881,7030,VNB,B,1
2,test,5,0.0,1-Back,1,m,Thu Oct 24 2024 15:23:05 GMT-0500 (Central Daylight Time),390295.2999999523,016_y_m_d_a.png,O,m,1514,3,1,2567.199999988079,387728.09999996424,7030,VNB,B,2
3,test,5,0.0,1-Back,1,z,Thu Oct 24 2024 15:23:05 GMT-0500 (Central Daylight Time),392287.0,004_o_m_d_a.png,O,z,930,4,1,1983.4000000357628,390303.59999996424,7030,VNB,B,3
4,test,5,0.0,1-Back,1,m,Thu Oct 24 2024 15:23:05 GMT-0500 (Central Daylight Time),394086.09999996424,011_m_f_h_a.png,O,m,714,5,1,1721.0,392365.09999996424,7030,VNB,B,4
5,test,5,0.0,1-Back,1,m,Thu Oct 24 2024 15:23:05 GMT-0500 (Central Daylight Time),396218.0,020_y_f_n_a.png,O,m,1084,6,1,2107.600000023842,394110.39999997616,7030,VNB,B,5
6,test,5,1.0,1-Back,1,z,Thu Oct 24 2024 15:23:05 GMT-0500 (Central Daylight Time),398851.09999996424,005_o_f_n_a.png,O,z,1550,7,1,2625.899999976158,396225.1999999881,7030,VNB,B,6
7,test,5,0.0,1-Back,1,m,Thu Oct 24 2024 15:23:05 GMT-0500 (Central Daylight Time),401250.39999997616,011_m_f_d_a.png,O,m,1351,8,1,2378.399999976158,398872.0,7030,VNB,B,7
8,test,5,0.0,1-Back,1,m,Thu Oct 24 2024 15:23:05 GMT-0500 (Central Daylight Time),403449.59999996424,016_y_m_h_a.png,O,m,1102,9,1,2172.5,401277.09999996424,7030,VNB,B,8
9,test,5,0.0,1-Back,1,m,Thu Oct 24 2024 15:23:05 GMT-0500 (Central Daylight Time),405799.0,020_y_f_d_a.png,O,m,1263,10,1,2274.300000011921,403524.6999999881,7030,VNB,B,9
9,test,5,0.0,1-Back,0,m,Thu Oct 24 2024 15:23:05 GMT-0500 (Central Daylight Time),408414.7999999523,007_m_m_n_a.png,O,z,1523,11,1,2586.899999976158,405827.89999997616,7030,VNB,B,10
10,test,5,1.0,1-Back,1,z,Thu Oct 24 2024 15:23:05 GMT-0500 (Central Daylight Time),410764.1999999881,011_m_f_n_a.png,O,z,1233,12,1,2321.199999988079,408443.0,7030,VNB,B,11
11,test,5,0.0,1-Back,1,m,Thu Oct 24 2024 15:23:05 GMT-0500 (Central Daylight Time),413096.59999996424,004_o_m_h_a.png,O,m,1228,13,1,2305.099999964237,410791.5,7030,VNB,B,12
11,test,5,0.0,1-Back,0,z,Thu Oct 24 2024 15:23:05 GMT-0500 (Central Daylight Time),415212.59999996424,007_m_m_h_a.png,O,m,1082,14,1,2094.5,413118.09999996424,7030,VNB,B,13
11,test,5,1.0,1-Back,0,m,Thu Oct 24 2024 15:23:05 GMT-0500 (Central Daylight Time),418261.6999999881,005_o_f_d_a.png,O,None,2015,15,1,3021.199999988079,415240.5,7030,VNB,B,14
12,test,5,0.0,1-Back,1,m,Thu Oct 24 2024 15:23:05 GMT-0500 (Central Daylight Time),420794.5,016_y_m_n_a.png,O,m,1485,16,1,2512.400000035763,418282.09999996424,7030,VNB,B,15
13,test,5,0.0,1-Back,1,m,Thu Oct 24 2024 15:23:05 GMT-0500 (Central Daylight Time),422959.89999997616,020_y_f_h_a.png,O,m,1128,17,1,2135.300000011921,420824.59999996424,7030,VNB,B,16
14,test,5,0.0,1-Back,1,m,Thu Oct 24 2024 15:23:05 GMT-0500 (Central Daylight Time),425142.59999996424,007_m_m_d_a.png,O,m,1138,18,1,2155.300000011921,422987.2999999523,7030,VNB,B,17
0,prac,1,0.0,2-Back,,,Thu Oct 24 2024 15:23:05 GMT-0500 (Central Daylight Time),425142.59999996424,011_m_f_n_a.png,O,space,9730,1,1,2155.300000011921,422987.2999999523,7030,VNB,B,0
0,prac,1,0.0,2-Back,,,Thu Oct 24 2024 15:23:05 GMT-0500 (Central Daylight Time),425142.59999996424,005_o_f_h_a.png,O,space,9730,2,1,2155.300000011921,422987.2999999523,7030,VNB,B,0
1,prac,1,0.0,2-Back,1,m,Thu Oct 24 2024 15:23:05 GMT-0500 (Central Daylight Time),525860.0999999642,004_o_m_d_a.png,O,m,1494,3,1,2472.599999964237,523387.5,7030,VNB,B,1
2,prac,1,1.0,2-Back,1,z,Thu Oct 24 2024 15:23:05 GMT-0500 (Central Daylight Time),528425.0999999642,007_m_m_h_a.png,O,z,1573,4,1,2519.599999964237,525905.5,7030,VNB,B,2
3,prac,1,0.0,2-Back,1,m,Thu Oct 24 2024 15:23:05 GMT-0500 (Central Daylight Time),530890.2999999523,020_y_f_n_a.png,O,m,1500,5,1,2401.899999976158,528488.3999999762,7030,VNB,B,3
4,prac,1,1.0,2-Back,1,z,Thu Oct 24 2024 15:23:05 GMT-0500 (Central Daylight Time),533541.6999999881,004_o_m_h_a.png,O,z,1527,6,1,2641.100000023842,530900.5999999642,7030,VNB,B,4
5,prac,1,1.0,2-Back,1,z,Thu Oct 24 2024 15:23:05 GMT-0500 (Central Daylight Time),535988.6999999881,016_y_m_n_a.png,O,z,1505,7,1,2437.300000011921,533551.3999999762,7030,VNB,B,5
6,prac,1,0.0,2-Back,1,m,Thu Oct 24 2024 15:23:05 GMT-0500 (Central Daylight Time),538338.8999999762,011_m_f_d_a.png,O,m,1413,8,1,2336.699999988079,536002.1999999881,7030,VNB,B,6
7,prac,1,0.0,2-Back,1,m,Thu Oct 24 2024 15:23:05 GMT-0500 (Central Daylight Time),540755.0,005_o_f_d_a.png,O,m,1456,9,1,2377.900000035763,538377.0999999642,7030,VNB,B,7
8,prac,1,0.0,2-Back,1,m,Thu Oct 24 2024 15:23:05 GMT-0500 (Central Daylight Time),543603.6999999881,007_m_m_h_a.png,O,m,1874,10,1,2810.0,540793.6999999881,7030,VNB,B,8
8,prac,1,1.0,2-Back,0,z,Thu Oct 24 2024 15:23:05 GMT-0500 (Central Daylight Time),546169.5,020_y_f_d_a.png,O,m,1557,11,1,2465.900000035763,543703.5999999642,7030,VNB,B,9
8,prac,1,0.0,2-Back,0,m,Thu Oct 24 2024 15:23:05 GMT-0500 (Central Daylight Time),548784.3999999762,004_o_m_n_a.png,O,z,1633,12,1,2525.800000011921,546258.5999999642,7030,VNB,B,10
0,test,1,0.0,2-Back,,,Thu Oct 24 2024 15:23:05 GMT-0500 (Central Daylight Time),548784.3999999762,016_y_m_h_a.png,O,space,14225,1,1,2525.800000011921,546258.5999999642,7030,VNB,B,0
0,test,1,0.0,2-Back,,,Thu Oct 24 2024 15:23:05 GMT-0500 (Central Daylight Time),548784.3999999762,005_o_f_n_a.png,O,space,14225,2,1,2525.800000011921,546258.5999999642,7030,VNB,B,0
1,test,1,0.0,2-Back,1,z,Thu Oct 24 2024 15:23:05 GMT-0500 (Central Daylight Time),578492.2999999523,004_o_m_h_a.png,O,z,783,3,1,1807.2999999523163,576685.0,7030,VNB,B,1
2,test,1,0.0,2-Back,1,m,Thu Oct 24 2024 15:23:05 GMT-0500 (Central Daylight Time),581041.6999999881,011_m_f_d_a.png,O,m,1502,4,1,2526.100000023842,578515.5999999642,7030,VNB,B,2
2,test,1,1.0,2-Back,0,m,Thu Oct 24 2024 15:23:05 GMT-0500 (Central Daylight Time),584091.0999999642,016_y_m_n_a.png,O,None,2014,5,1,3021.0,581070.0999999642,7030,VNB,B,3
3,test,1,0.0,2-Back,1,z,Thu Oct 24 2024 15:23:05 GMT-0500 (Central Daylight Time),586706.0999999642,020_y_f_d_a.png,O,z,1576,6,1,2588.300000011921,584117.7999999523,7030,VNB,B,4
4,test,1,0.0,2-Back,1,m,Thu Oct 24 2024 15:23:05 GMT-0500 (Central Daylight Time),588922.0,007_m_m_h_a.png,O,m,1101,7,1,2180.100000023842,586741.8999999762,7030,VNB,B,5
5,test,1,1.0,2-Back,1,m,Thu Oct 24 2024 15:23:05 GMT-0500 (Central Daylight Time),591171.3999999762,020_y_f_n_a.png,O,m,1134,8,1,2225.300000011921,588946.0999999642,7030,VNB,B,6
6,test,1,0.0,2-Back,1,z,Thu Oct 24 2024 15:23:05 GMT-0500 (Central Daylight Time),594036.7999999523,005_o_f_h_a.png,O,z,1781,9,1,2841.199999988079,591195.5999999642,7030,VNB,B,7
7,test,1,0.0,2-Back,1,m,Thu Oct 24 2024 15:23:05 GMT-0500 (Central Daylight Time),596518.6999999881,004_o_m_d_a.png,O,m,1437,10,1,2459.400000035763,594059.2999999523,7030,VNB,B,8
7,test,1,1.0,2-Back,0,m,Thu Oct 24 2024 15:23:05 GMT-0500 (Central Daylight Time),599468.6999999881,007_m_m_d_a.png,O,z,1932,11,1,2944.5,596524.1999999881,7030,VNB,B,9
8,test,1,0.0,2-Back,1,m,Thu Oct 24 2024 15:23:05 GMT-0500 (Central Daylight Time),601884.5,011_m_f_n_a.png,O,m,1366,12,1,2390.800000011921,599493.6999999881,7030,VNB,B,10
8,test,1,0.0,2-Back,0,m,Thu Oct 24 2024 15:23:05 GMT-0500 (Central Daylight Time),604983.5999999642,020_y_f_h_a.png,O,None,2014,13,1,3070.0,601913.5999999642,7030,VNB,B,11
8,test,1,0.0,2-Back,0,z,Thu Oct 24 2024 15:23:05 GMT-0500 (Central Daylight Time),607482.5999999642,007_m_m_n_a.png,O,m,1401,14,1,2472.699999988079,605009.8999999762,7030,VNB,B,12
9,test,1,0.0,2-Back,1,m,Thu Oct 24 2024 15:23:05 GMT-0500 (Central Daylight Time),609681.7999999523,016_y_m_d_a.png,O,m,1086,15,1,2169.7999999523163,607512.0,7030,VNB,B,13
10,test,1,1.0,2-Back,1,m,Thu Oct 24 2024 15:23:05 GMT-0500 (Central Daylight Time),612730.7999999523,011_m_f_h_a.png,O,m,1958,16,1,3023.2999999523163,609707.5,7030,VNB,B,14
11,test,1,0.0,2-Back,1,z,Thu Oct 24 2024 15:23:05 GMT-0500 (Central Daylight Time),615746.0999999642,005_o_f_d_a.png,O,z,1908,17,1,2932.5,612813.5999999642,7030,VNB,B,15
12,test,1,0.0,2-Back,1,m,Thu Oct 24 2024 15:23:05 GMT-0500 (Central Daylight Time),618395.6999999881,004_o_m_n_a.png,O,m,1574,18,1,2634.699999988079,615761.0,7030,VNB,B,16
0,test,2,0.0,2-Back,,,Thu Oct 24 2024 15:23:05 GMT-0500 (Central Daylight Time),618395.6999999881,007_m_m_h_a.png,O,space,3246,1,1,2634.699999988079,615761.0,7030,VNB,B,0
0,test,2,0.0,2-Back,,,Thu Oct 24 2024 15:23:05 GMT-0500 (Central Daylight Time),618395.6999999881,020_y_f_n_a.png,O,space,3246,2,1,2634.699999988079,615761.0,7030,VNB,B,0
1,test,2,1.0,2-Back,1,z,Thu Oct 24 2024 15:23:05 GMT-0500 (Central Daylight Time),629275.5,005_o_f_h_a.png,O,z,1225,3,1,2236.400000035763,627039.0999999642,7030,VNB,B,1
2,test,2,0.0,2-Back,1,m,Thu Oct 24 2024 15:23:05 GMT-0500 (Central Daylight Time),631409.6999999881,004_o_m_d_a.png,O,m,1081,4,1,2104.0,629305.6999999881,7030,VNB,B,2
3,test,2,0.0,2-Back,1,m,Thu Oct 24 2024 15:23:05 GMT-0500 (Central Daylight Time),634057.0999999642,011_m_f_d_a.png,O,m,1620,5,1,2639.0,631418.0999999642,7030,VNB,B,3
4,test,2,0.0,2-Back,1,m,Thu Oct 24 2024 15:23:05 GMT-0500 (Central Daylight Time),636440.0,016_y_m_h_a.png,O,m,1270,6,1,2293.0,634147.0,7030,VNB,B,4
5,test,2,0.0,2-Back,1,m,Thu Oct 24 2024 15:23:05 GMT-0500 (Central Daylight Time),639022.0999999642,005_o_f_n_a.png,O,m,1546,7,1,2555.899999976158,636466.1999999881,7030,VNB,B,5
5,test,2,1.0,2-Back,0,z,Thu Oct 24 2024 15:23:05 GMT-0500 (Central Daylight Time),641604.7999999523,004_o_m_h_a.png,O,m,1482,8,1,2558.599999964237,639046.1999999881,7030,VNB,B,6
6,test,2,0.0,2-Back,1,m,Thu Oct 24 2024 15:23:05 GMT-0500 (Central Daylight Time),644087.2999999523,020_y_f_d_a.png,O,m,1371,9,1,2452.2999999523163,641635.0,7030,VNB,B,7
7,test,2,0.0,2-Back,1,m,Thu Oct 24 2024 15:23:05 GMT-0500 (Central Daylight Time),646836.6999999881,016_y_m_d_a.png,O,m,1648,10,1,2658.5,644178.1999999881,7030,VNB,B,8
7,test,2,0.0,2-Back,0,m,Thu Oct 24 2024 15:23:05 GMT-0500 (Central Daylight Time),649935.5,007_m_m_n_a.png,O,None,2015,11,1,3021.0,646914.5,7030,VNB,B,9
8,test,2,0.0,2-Back,1,m,Thu Oct 24 2024 15:23:05 GMT-0500 (Central Daylight Time),652134.3999999762,011_m_f_h_a.png,O,m,1096,12,1,2170.899999976158,649963.5,7030,VNB,B,10
9,test,2,1.0,2-Back,1,z,Thu Oct 24 2024 15:23:05 GMT-0500 (Central Daylight Time),654683.7999999523,004_o_m_n_a.png,O,z,1500,13,1,2525.7999999523163,652158.0,7030,VNB,B,11
9,test,2,0.0,2-Back,0,m,Thu Oct 24 2024 15:23:05 GMT-0500 (Central Daylight Time),656933.0999999642,005_o_f_d_a.png,O,z,1157,14,1,2225.099999964237,654708.0,7030,VNB,B,12
10,test,2,0.0,2-Back,1,m,Thu Oct 24 2024 15:23:05 GMT-0500 (Central Daylight Time),659515.5,020_y_f_h_a.png,O,m,1469,15,1,2494.900000035763,657020.5999999642,7030,VNB,B,13
10,test,2,0.0,2-Back,0,z,Thu Oct 24 2024 15:23:05 GMT-0500 (Central Daylight Time),662614.6999999881,007_m_m_d_a.png,O,None,2015,16,1,3074.199999988079,659540.5,7030,VNB,B,14
11,test,2,0.0,2-Back,1,m,Thu Oct 24 2024 15:23:05 GMT-0500 (Central Daylight Time),665496.7999999523,016_y_m_n_a.png,O,m,1777,17,1,2789.599999964237,662707.1999999881,7030,VNB,B,15
11,test,2,1.0,2-Back,0,m,Thu Oct 24 2024 15:23:05 GMT-0500 (Central Daylight Time),668479.1999999881,011_m_f_n_a.png,O,z,1896,18,1,2902.800000011921,665576.3999999762,7030,VNB,B,16
0,test,3,1.0,2-Back,,,Thu Oct 24 2024 15:23:05 GMT-0500 (Central Daylight Time),668479.1999999881,004_o_m_n_a.png,O,space,2866,1,1,2902.800000011921,665576.3999999762,7030,VNB,B,0
0,test,3,1.0,2-Back,,,Thu Oct 24 2024 15:23:05 GMT-0500 (Central Daylight Time),668479.1999999881,005_o_f_d_a.png,O,space,2866,2,1,2902.800000011921,665576.3999999762,7030,VNB,B,0
1,test,3,0.0,2-Back,1,m,Thu Oct 24 2024 15:23:05 GMT-0500 (Central Daylight Time),679008.6999999881,020_y_f_h_a.png,O,m,1268,3,1,2292.199999988079,676716.5,7030,VNB,B,1
2,test,3,0.0,2-Back,1,z,Thu Oct 24 2024 15:23:05 GMT-0500 (Central Daylight Time),681508.2999999523,011_m_f_d_a.png,O,z,1390,4,1,2409.199999988079,679099.0999999642,7030,VNB,B,2
2,test,3,1.0,2-Back,0,m,Thu Oct 24 2024 15:23:05 GMT-0500 (Central Daylight Time),684490.0,016_y_m_n_a.png,O,z,1866,5,1,2894.5,681595.5,7030,VNB,B,3
3,test,3,0.0,2-Back,1,m,Thu Oct 24 2024 15:23:05 GMT-0500 (Central Daylight Time),686906.5999999642,004_o_m_h_a.png,O,m,1392,6,1,2406.599999964237,684500.0,7030,VNB,B,4
4,test,3,0.0,2-Back,1,z,Thu Oct 24 2024 15:23:05 GMT-0500 (Central Daylight Time),689339.0,020_y_f_n_a.png,O,z,1325,7,1,2402.0,686937.0,7030,VNB,B,5
5,test,3,1.0,2-Back,1,m,Thu Oct 24 2024 15:23:05 GMT-0500 (Central Daylight Time),692387.5999999642,007_m_m_d_a.png,O,m,1940,8,1,3017.699999988079,689369.8999999762,7030,VNB,B,6
6,test,3,0.0,2-Back,1,m,Thu Oct 24 2024 15:23:05 GMT-0500 (Central Daylight Time),694869.8999999762,016_y_m_d_a.png,O,m,1405,9,1,2466.600000023842,692403.2999999523,7030,VNB,B,7
6,test,3,0.0,2-Back,0,m,Thu Oct 24 2024 15:23:05 GMT-0500 (Central Daylight Time),697953.0,005_o_f_h_a.png,O,None,2015,10,1,3069.5,694883.5,7030,VNB,B,8
7,test,3,1.0,2-Back,1,m,Thu Oct 24 2024 15:23:05 GMT-0500 (Central Daylight Time),700619.0,011_m_f_n_a.png,O,m,1551,11,1,2635.7000000476837,697983.2999999523,7030,VNB,B,9
8,test,3,1.0,2-Back,1,z,Thu Oct 24 2024 15:23:05 GMT-0500 (Central Daylight Time),702701.0999999642,007_m_m_h_a.png,O,z,999,12,1,2057.699999988079,700643.3999999762,7030,VNB,B,10
9,test,3,0.0,2-Back,1,m,Thu Oct 24 2024 15:23:05 GMT-0500 (Central Daylight Time),704867.5,020_y_f_d_a.png,O,m,1117,13,1,2142.5,702725.0,7030,VNB,B,11
10,test,3,0.0,2-Back,1,m,Thu Oct 24 2024 15:23:05 GMT-0500 (Central Daylight Time),706949.5999999642,005_o_f_n_a.png,O,m,998,14,1,2053.5,704896.0999999642,7030,VNB,B,12
10,test,3,0.0,2-Back,0,z,Thu Oct 24 2024 15:23:05 GMT-0500 (Central Daylight Time),709365.5999999642,004_o_m_d_a.png,O,m,1322,15,1,2391.399999976158,706974.1999999881,7030,VNB,B,13
11,test,3,1.0,2-Back,1,m,Thu Oct 24 2024 15:23:05 GMT-0500 (Central Daylight Time),711981.1999999881,011_m_f_h_a.png,O,m,1512,16,1,2579.100000023842,709402.0999999642,7030,VNB,B,14
11,test,3,0.0,2-Back,0,m,Thu Oct 24 2024 15:23:05 GMT-0500 (Central Daylight Time),715081.6999999881,007_m_m_n_a.png,O,None,2016,17,1,3072.900000035763,712008.7999999523,7030,VNB,B,15
11,test,3,0.0,2-Back,0,z,Thu Oct 24 2024 15:23:05 GMT-0500 (Central Daylight Time),717796.3999999762,016_y_m_h_a.png,O,m,1616,18,1,2693.5,715102.8999999762,7030,VNB,B,16
0,test,4,0.0,2-Back,,,Thu Oct 24 2024 15:23:05 GMT-0500 (Central Daylight Time),717796.3999999762,011_m_f_n_a.png,O,space,1998,1,1,2693.5,715102.8999999762,7030,VNB,B,0
0,test,4,0.0,2-Back,,,Thu Oct 24 2024 15:23:05 GMT-0500 (Central Daylight Time),717796.3999999762,004_o_m_n_a.png,O,space,1998,2,1,2693.5,715102.8999999762,7030,VNB,B,0
1,test,4,1.0,2-Back,1,m,Thu Oct 24 2024 15:23:05 GMT-0500 (Central Daylight Time),727410.0999999642,016_y_m_h_a.png,O,m,1218,3,1,2237.5,725172.5999999642,7030,VNB,B,1
2,test,4,1.0,2-Back,1,m,Thu Oct 24 2024 15:23:05 GMT-0500 (Central Daylight Time),729575.5,005_o_f_d_a.png,O,m,1128,4,1,2143.0,727432.5,7030,VNB,B,2
2,test,4,0.0,2-Back,0,z,Thu Oct 24 2024 15:23:05 GMT-0500 (Central Daylight Time),732124.7999999523,004_o_m_h_a.png,O,m,1506,5,1,2529.7999999523163,729595.0,7030,VNB,B,3
3,test,4,0.0,2-Back,1,m,Thu Oct 24 2024 15:23:05 GMT-0500 (Central Daylight Time),734624.0999999642,007_m_m_n_a.png,O,m,1445,6,1,2474.599999964237,732149.5,7030,VNB,B,4
3,test,4,0.0,2-Back,0,m,Thu Oct 24 2024 15:23:05 GMT-0500 (Central Daylight Time),737223.3999999762,011_m_f_d_a.png,O,z,1554,7,1,2575.300000011921,734648.0999999642,7030,VNB,B,5
3,test,4,0.0,2-Back,0,z,Thu Oct 24 2024 15:23:05 GMT-0500 (Central Daylight Time),739573.0,020_y_f_n_a.png,O,m,1315,8,1,2325.7000000476837,737247.2999999523,7030,VNB,B,6
4,test,4,1.0,2-Back,1,m,Thu Oct 24 2024 15:23:05 GMT-0500 (Central Daylight Time),742021.5999999642,005_o_f_h_a.png,O,m,1356,9,1,2373.0,739648.5999999642,7030,VNB,B,7
5,test,4,0.0,2-Back,1,m,Thu Oct 24 2024 15:23:05 GMT-0500 (Central Daylight Time),744221.0,007_m_m_h_a.png,O,m,1098,10,1,2115.2000000476837,742105.7999999523,7030,VNB,B,8
6,test,4,0.0,2-Back,1,m,Thu Oct 24 2024 15:23:05 GMT-0500 (Central Daylight Time),746403.1999999881,020_y_f_d_a.png,O,m,1090,11,1,2156.600000023842,744246.5999999642,7030,VNB,B,9
7,test,4,0.0,2-Back,1,m,Thu Oct 24 2024 15:23:05 GMT-0500 (Central Daylight Time),748769.3999999762,016_y_m_n_a.png,O,m,1335,12,1,2354.199999988079,746415.1999999881,7030,VNB,B,10
7,test,4,0.0,2-Back,0,z,Thu Oct 24 2024 15:23:05 GMT-0500 (Central Daylight Time),751835.2999999523,004_o_m_d_a.png,O,None,2015,13,1,3034.099999964237,748801.1999999881,7030,VNB,B,11
8,test,4,1.0,2-Back,1,m,Thu Oct 24 2024 15:23:05 GMT-0500 (Central Daylight Time),754317.5999999642,011_m_f_h_a.png,O,m,1439,14,1,2456.800000011921,751860.7999999523,7030,VNB,B,12
9,test,4,1.0,2-Back,1,m,Thu Oct 24 2024 15:23:05 GMT-0500 (Central Daylight Time),757200.0,020_y_f_h_a.png,O,m,1770,15,1,2853.800000011921,754346.1999999881,7030,VNB,B,13
10,test,4,0.0,2-Back,1,m,Thu Oct 24 2024 15:23:05 GMT-0500 (Central Daylight Time),759432.6999999881,005_o_f_n_a.png,O,m,1120,16,1,2147.800000011921,757284.8999999762,7030,VNB,B,14
11,test,4,0.0,2-Back,1,m,Thu Oct 24 2024 15:23:05 GMT-0500 (Central Daylight Time),761765.0,016_y_m_d_a.png,O,m,1231,17,1,2306.600000023842,759458.3999999762,7030,VNB,B,15
12,test,4,1.0,2-Back,1,m,Thu Oct 24 2024 15:23:05 GMT-0500 (Central Daylight Time),764147.6999999881,007_m_m_d_a.png,O,m,1342,18,1,2363.400000035763,761784.2999999523,7030,VNB,B,16
0,test,5,1.0,2-Back,,,Thu Oct 24 2024 15:23:05 GMT-0500 (Central Daylight Time),764147.6999999881,020_y_f_d_a.png,O,space,1414,1,1,2363.400000035763,761784.2999999523,7030,VNB,B,0
0,test,5,1.0,2-Back,,,Thu Oct 24 2024 15:23:05 GMT-0500 (Central Daylight Time),764147.6999999881,005_o_f_h_a.png,O,space,1414,2,1,2363.400000035763,761784.2999999523,7030,VNB,B,0
1,test,5,1.0,2-Back,1,z,Thu Oct 24 2024 15:23:05 GMT-0500 (Central Daylight Time),773161.5999999642,004_o_m_d_a.png,O,z,1191,3,1,2209.399999976158,770952.1999999881,7030,VNB,B,1
2,test,5,1.0,2-Back,1,m,Thu Oct 24 2024 15:23:05 GMT-0500 (Central Daylight Time),775460.6999999881,011_m_f_n_a.png,O,m,1257,4,1,2274.800000011921,773185.8999999762,7030,VNB,B,2
3,test,5,0.0,2-Back,1,m,Thu Oct 24 2024 15:23:05 GMT-0500 (Central Daylight Time),777776.5999999642,007_m_m_h_a.png,O,m,1219,5,1,2241.099999964237,775535.5,7030,VNB,B,3
3,test,5,0.0,2-Back,0,z,Thu Oct 24 2024 15:23:05 GMT-0500 (Central Daylight Time),780525.5999999642,020_y_f_n_a.png,O,m,1638,6,1,2719.300000011921,777806.2999999523,7030,VNB,B,4
3,test,5,0.0,2-Back,0,m,Thu Oct 24 2024 15:23:05 GMT-0500 (Central Daylight Time),783624.8999999762,005_o_f_d_a.png,O,None,2016,7,1,3073.800000011921,780551.0999999642,7030,VNB,B,5
3,test,5,0.0,2-Back,0,m,Thu Oct 24 2024 15:23:05 GMT-0500 (Central Daylight Time),786240.3999999762,004_o_m_h_a.png,O,z,1511,8,1,2523.5,783716.8999999762,7030,VNB,B,6
3,test,5,1.0,2-Back,0,z,Thu Oct 24 2024 15:23:05 GMT-0500 (Central Daylight Time),788939.5,011_m_f_d_a.png,O,m,1658,9,1,2677.600000023842,786261.8999999762,7030,VNB,B,7
3,test,5,0.0,2-Back,0,m,Thu Oct 24 2024 15:23:05 GMT-0500 (Central Daylight Time),791988.7999999523,016_y_m_n_a.png,O,None,2015,10,1,3024.5,788964.2999999523,7030,VNB,B,8
4,test,5,0.0,2-Back,1,m,Thu Oct 24 2024 15:23:05 GMT-0500 (Central Daylight Time),794336.8999999762,007_m_m_n_a.png,O,m,1226,11,1,2248.699999988079,792088.1999999881,7030,VNB,B,9
5,test,5,0.0,2-Back,1,m,Thu Oct 24 2024 15:23:05 GMT-0500 (Central Daylight Time),796353.8999999762,020_y_f_h_a.png,O,m,995,12,1,2012.199999988079,794341.6999999881,7030,VNB,B,10
6,test,5,0.0,2-Back,1,m,Thu Oct 24 2024 15:23:05 GMT-0500 (Central Daylight Time),798836.2999999523,016_y_m_d_a.png,O,m,1383,13,1,2402.099999964237,796434.1999999881,7030,VNB,B,11
6,test,5,1.0,2-Back,0,z,Thu Oct 24 2024 15:23:05 GMT-0500 (Central Daylight Time),801818.5999999642,011_m_f_h_a.png,O,m,1866,14,1,2891.699999988079,798926.8999999762,7030,VNB,B,12
6,test,5,0.0,2-Back,0,m,Thu Oct 24 2024 15:23:05 GMT-0500 (Central Daylight Time),804800.7999999523,004_o_m_n_a.png,O,z,1886,15,1,2901.099999964237,801899.6999999881,7030,VNB,B,13
7,test,5,0.0,2-Back,1,m,Thu Oct 24 2024 15:23:05 GMT-0500 (Central Daylight Time),807183.5999999642,007_m_m_d_a.png,O,m,1345,16,1,2355.300000011921,804828.2999999523,7030,VNB,B,14
8,test,5,0.0,2-Back,1,z,Thu Oct 24 2024 15:23:05 GMT-0500 (Central Daylight Time),809815.8999999762,005_o_f_n_a.png,O,z,1520,17,1,2543.5,807272.3999999762,7030,VNB,B,15
9,test,5,1.0,2-Back,1,m,Thu Oct 24 2024 15:23:05 GMT-0500 (Central Daylight Time),811998.1999999881,016_y_m_h_a.png,O,m,1079,18,1,2094.0,809904.1999999881,7030,VNB,B,16
