acc_sum,block,block_c,change,condition,correct,correct_response,datetime,endtime,face,project,response,response_time,row_sel,session_number,start_end,starttime,subject_id,task,task_vers,trial
0,prac,1,,1-Back,,,Thu Jan 23 2025 14:54:01 GMT-0600 (Central Standard Time),,124_o_f_d_a.png,I,space,6046,1,1,,,8017,VNB,A,0
1,prac,1,0.0,1-Back,1,m,Thu Jan 23 2025 14:54:01 GMT-0600 (Central Standard Time),102371.60000000149,071_y_f_n_a.png,I,m,1043,2,1,1840.7000000029802,100530.89999999851,8017,VNB,A,1
2,prac,1,0.0,1-Back,1,m,Thu Jan 23 2025 14:54:01 GMT-0600 (Central Standard Time),104204.5,165_m_m_h_a.png,I,m,1027,3,1,1824.2999999970198,102380.20000000298,8017,VNB,A,2
3,prac,1,0.0,1-Back,1,m,Thu Jan 23 2025 14:54:01 GMT-0600 (Central Standard Time),105787.39999999851,109_y_m_d_a.png,I,m,765,4,1,1574.6000000014901,104212.79999999702,8017,VNB,A,3
4,prac,1,0.0,1-Back,1,m,Thu Jan 23 2025 14:54:01 GMT-0600 (Central Standard Time),107319.89999999851,124_o_f_n_a.png,I,m,685,5,1,1524.1999999955297,105795.70000000298,8017,VNB,A,4
5,prac,1,1.0,1-Back,1,z,Thu Jan 23 2025 14:54:01 GMT-0600 (Central Standard Time),108919.60000000149,109_y_m_n_a.png,I,z,780,6,1,1589.5,107330.10000000149,8017,VNB,A,5
6,prac,1,0.0,1-Back,1,m,Thu Jan 23 2025 14:54:01 GMT-0600 (Central Standard Time),110418.70000000298,039_o_m_h_a.png,I,m,697,7,1,1490.9000000059605,108927.79999999702,8017,VNB,A,6
7,prac,1,0.0,1-Back,1,m,Thu Jan 23 2025 14:54:01 GMT-0600 (Central Standard Time),111985.0,139_m_f_d_a.png,I,m,748,8,1,1558.1000000014901,110426.89999999851,8017,VNB,A,7
8,prac,1,1.0,1-Back,1,z,Thu Jan 23 2025 14:54:01 GMT-0600 (Central Standard Time),113834.39999999851,071_y_f_d_a.png,I,z,1036,9,1,1840.6000000014901,111993.79999999702,8017,VNB,A,8
9,prac,1,0.0,1-Back,1,m,Thu Jan 23 2025 14:54:01 GMT-0600 (Central Standard Time),115300.70000000298,165_m_m_n_a.png,I,m,656,10,1,1456.2000000029802,113844.5,8017,VNB,A,9
10,prac,1,0.0,1-Back,1,m,Thu Jan 23 2025 14:54:01 GMT-0600 (Central Standard Time),116733.70000000298,124_o_f_h_a.png,I,m,596,11,1,1424.4000000059605,115309.29999999702,8017,VNB,A,10
11,prac,1,0.0,1-Back,1,m,Thu Jan 23 2025 14:54:01 GMT-0600 (Central Standard Time),118174.29999999702,109_y_m_d_a.png,I,m,658,12,1,1431.5999999940395,116742.70000000298,8017,VNB,A,11
0,test,1,0.0,1-Back,,,Thu Jan 23 2025 14:54:01 GMT-0600 (Central Standard Time),118174.29999999702,071_y_f_d_a.png,I,space,5307,1,1,1431.5999999940395,116742.70000000298,8017,VNB,A,0
1,test,1,0.0,1-Back,1,m,Thu Jan 23 2025 14:54:01 GMT-0600 (Central Standard Time),133778.20000000298,139_m_f_n_a.png,I,m,856,2,1,1873.9000000059605,131904.29999999702,8017,VNB,A,1
2,test,1,0.0,1-Back,1,m,Thu Jan 23 2025 14:54:01 GMT-0600 (Central Standard Time),135444.29999999702,039_o_m_h_a.png,I,m,646,3,1,1658.2999999970198,133786.0,8017,VNB,A,2
3,test,1,1.0,1-Back,1,z,Thu Jan 23 2025 14:54:01 GMT-0600 (Central Standard Time),137177.1000000015,165_m_m_h_a.png,I,z,700,4,1,1724.3999999985099,135452.70000000298,8017,VNB,A,3
4,test,1,0.0,1-Back,1,m,Thu Jan 23 2025 14:54:01 GMT-0600 (Central Standard Time),138859.79999999702,124_o_f_n_a.png,I,m,655,5,1,1674.6999999955297,137185.1000000015,8017,VNB,A,4
5,test,1,0.0,1-Back,1,m,Thu Jan 23 2025 14:54:01 GMT-0600 (Central Standard Time),141042.5,109_y_m_d_a.png,I,m,1165,6,1,2175.10000000149,138867.3999999985,8017,VNB,A,5
6,test,1,1.0,1-Back,1,z,Thu Jan 23 2025 14:54:01 GMT-0600 (Central Standard Time),142741.8999999985,139_m_f_d_a.png,I,z,601,7,1,1692.0,141049.8999999985,8017,VNB,A,6
7,test,1,0.0,1-Back,1,m,Thu Jan 23 2025 14:54:01 GMT-0600 (Central Standard Time),144208.20000000298,071_y_f_h_a.png,I,m,434,8,1,1458.6000000014901,142749.6000000015,8017,VNB,A,7
8,test,1,0.0,1-Back,1,m,Thu Jan 23 2025 14:54:01 GMT-0600 (Central Standard Time),145824.5,039_o_m_n_a.png,I,m,584,9,1,1608.8999999985099,144215.6000000015,8017,VNB,A,8
9,test,1,0.0,1-Back,1,m,Thu Jan 23 2025 14:54:01 GMT-0600 (Central Standard Time),147623.79999999702,109_y_m_h_a.png,I,m,768,10,1,1792.2999999970198,145831.5,8017,VNB,A,9
10,test,1,0.0,1-Back,1,m,Thu Jan 23 2025 14:54:01 GMT-0600 (Central Standard Time),149290.0,039_o_m_d_a.png,I,m,632,11,1,1658.7000000029802,147631.29999999702,8017,VNB,A,10
11,test,1,1.0,1-Back,1,z,Thu Jan 23 2025 14:54:01 GMT-0600 (Central Standard Time),151089.3999999985,124_o_f_d_a.png,I,z,774,12,1,1791.1999999955297,149298.20000000298,8017,VNB,A,11
12,test,1,0.0,1-Back,1,m,Thu Jan 23 2025 14:54:01 GMT-0600 (Central Standard Time),152855.5,165_m_m_n_a.png,I,m,735,13,1,1758.5,151097.0,8017,VNB,A,12
13,test,1,1.0,1-Back,1,z,Thu Jan 23 2025 14:54:01 GMT-0600 (Central Standard Time),155788.0,071_y_f_n_a.png,I,z,1905,14,1,2924.7999999970198,152863.20000000298,8017,VNB,A,13
14,test,1,0.0,1-Back,1,m,Thu Jan 23 2025 14:54:01 GMT-0600 (Central Standard Time),157520.6000000015,139_m_f_h_a.png,I,m,700,15,1,1724.1000000014901,155796.5,8017,VNB,A,14
15,test,1,0.0,1-Back,1,m,Thu Jan 23 2025 14:54:01 GMT-0600 (Central Standard Time),159220.0,165_m_m_d_a.png,I,m,672,16,1,1691.6000000014901,157528.3999999985,8017,VNB,A,15
16,test,1,0.0,1-Back,1,m,Thu Jan 23 2025 14:54:01 GMT-0600 (Central Standard Time),161136.29999999702,109_y_m_n_a.png,I,m,892,17,1,1908.7999999970198,159227.5,8017,VNB,A,16
17,test,1,0.0,1-Back,1,m,Thu Jan 23 2025 14:54:01 GMT-0600 (Central Standard Time),162869.29999999702,124_o_f_h_a.png,I,m,703,18,1,1726.0999999940395,161143.20000000298,8017,VNB,A,17
0,test,2,0.0,1-Back,,,Thu Jan 23 2025 14:54:01 GMT-0600 (Central Standard Time),162869.29999999702,109_y_m_n_a.png,I,space,1557,1,1,1726.0999999940395,161143.20000000298,8017,VNB,A,0
1,test,2,0.0,1-Back,1,m,Thu Jan 23 2025 14:54:01 GMT-0600 (Central Standard Time),168184.20000000298,071_y_f_h_a.png,I,m,709,2,1,1726.0,166458.20000000298,8017,VNB,A,1
2,test,2,1.0,1-Back,1,m,Thu Jan 23 2025 14:54:01 GMT-0600 (Central Standard Time),169851.5,039_o_m_n_a.png,I,m,633,3,1,1660.7000000029802,168190.79999999702,8017,VNB,A,2
2,test,2,0.0,1-Back,0,m,Thu Jan 23 2025 14:54:01 GMT-0600 (Central Standard Time),171816.3999999985,139_m_f_d_a.png,I,z,933,4,1,1957.3999999985099,169859.0,8017,VNB,A,3
3,test,2,0.0,1-Back,1,z,Thu Jan 23 2025 14:54:01 GMT-0600 (Central Standard Time),173649.20000000298,165_m_m_d_a.png,I,z,807,5,1,1826.1000000014901,171823.1000000015,8017,VNB,A,4
4,test,2,0.0,1-Back,1,m,Thu Jan 23 2025 14:54:01 GMT-0600 (Central Standard Time),175198.6000000015,109_y_m_h_a.png,I,m,527,6,1,1542.3999999985099,173656.20000000298,8017,VNB,A,5
5,test,2,1.0,1-Back,1,z,Thu Jan 23 2025 14:54:01 GMT-0600 (Central Standard Time),177098.20000000298,124_o_f_h_a.png,I,z,865,7,1,1892.6000000014901,175205.6000000015,8017,VNB,A,6
6,test,2,0.0,1-Back,1,m,Thu Jan 23 2025 14:54:01 GMT-0600 (Central Standard Time),178614.5,139_m_f_n_a.png,I,m,494,8,1,1509.5,177105.0,8017,VNB,A,7
7,test,2,0.0,1-Back,1,m,Thu Jan 23 2025 14:54:01 GMT-0600 (Central Standard Time),180413.70000000298,071_y_f_d_a.png,I,m,778,9,1,1792.0,178621.70000000298,8017,VNB,A,8
8,test,2,0.0,1-Back,1,m,Thu Jan 23 2025 14:54:01 GMT-0600 (Central Standard Time),182463.1000000015,165_m_m_n_a.png,I,m,1026,10,1,2042.6000000014901,180420.5,8017,VNB,A,9
9,test,2,1.0,1-Back,1,m,Thu Jan 23 2025 14:54:01 GMT-0600 (Central Standard Time),184362.3999999985,139_m_f_h_a.png,I,m,881,11,1,1892.2999999970198,182470.1000000015,8017,VNB,A,10
10,test,2,0.0,1-Back,1,z,Thu Jan 23 2025 14:54:01 GMT-0600 (Central Standard Time),185878.6000000015,039_o_m_h_a.png,I,z,486,12,1,1507.6000000014901,184371.0,8017,VNB,A,11
11,test,2,0.0,1-Back,1,m,Thu Jan 23 2025 14:54:01 GMT-0600 (Central Standard Time),187495.0,109_y_m_d_a.png,I,m,593,13,1,1609.3999999985099,185885.6000000015,8017,VNB,A,12
12,test,2,0.0,1-Back,1,m,Thu Jan 23 2025 14:54:01 GMT-0600 (Central Standard Time),189110.8999999985,124_o_f_n_a.png,I,m,596,14,1,1609.1999999955297,187501.70000000298,8017,VNB,A,13
13,test,2,0.0,1-Back,1,z,Thu Jan 23 2025 14:54:01 GMT-0600 (Central Standard Time),190793.70000000298,071_y_f_n_a.png,I,z,657,15,1,1675.6000000014901,189118.1000000015,8017,VNB,A,14
14,test,2,1.0,1-Back,1,m,Thu Jan 23 2025 14:54:01 GMT-0600 (Central Standard Time),192493.29999999702,165_m_m_h_a.png,I,m,678,16,1,1691.6999999955297,190801.6000000015,8017,VNB,A,15
15,test,2,0.0,1-Back,1,m,Thu Jan 23 2025 14:54:01 GMT-0600 (Central Standard Time),194142.70000000298,124_o_f_d_a.png,I,m,619,17,1,1642.2000000029802,192500.5,8017,VNB,A,16
16,test,2,1.0,1-Back,1,z,Thu Jan 23 2025 14:54:01 GMT-0600 (Central Standard Time),195892.1000000015,039_o_m_d_a.png,I,z,729,18,1,1742.3999999985099,194149.70000000298,8017,VNB,A,17
0,test,3,1.0,1-Back,,,Thu Jan 23 2025 14:54:01 GMT-0600 (Central Standard Time),195892.1000000015,124_o_f_h_a.png,I,space,1389,1,1,1742.3999999985099,194149.70000000298,8017,VNB,A,0
1,test,3,0.0,1-Back,1,m,Thu Jan 23 2025 14:54:01 GMT-0600 (Central Standard Time),200940.79999999702,139_m_f_d_a.png,I,m,580,2,1,1593.0,199347.79999999702,8017,VNB,A,1
2,test,3,1.0,1-Back,1,m,Thu Jan 23 2025 14:54:01 GMT-0600 (Central Standard Time),202606.79999999702,165_m_m_n_a.png,I,m,635,3,1,1659.0999999940395,200947.70000000298,8017,VNB,A,2
3,test,3,0.0,1-Back,1,z,Thu Jan 23 2025 14:54:01 GMT-0600 (Central Standard Time),204389.70000000298,124_o_f_n_a.png,I,z,753,4,1,1775.9000000059605,202613.79999999702,8017,VNB,A,3
4,test,3,1.0,1-Back,1,m,Thu Jan 23 2025 14:54:01 GMT-0600 (Central Standard Time),206089.1000000015,039_o_m_d_a.png,I,m,674,5,1,1692.1000000014901,204397.0,8017,VNB,A,4
5,test,3,0.0,1-Back,1,m,Thu Jan 23 2025 14:54:01 GMT-0600 (Central Standard Time),208121.8999999985,071_y_f_h_a.png,I,m,999,6,1,2025.6000000014901,206096.29999999702,8017,VNB,A,5
6,test,3,0.0,1-Back,1,z,Thu Jan 23 2025 14:54:01 GMT-0600 (Central Standard Time),209937.79999999702,109_y_m_h_a.png,I,z,782,7,1,1808.0999999940395,208129.70000000298,8017,VNB,A,6
7,test,3,0.0,1-Back,1,m,Thu Jan 23 2025 14:54:01 GMT-0600 (Central Standard Time),211453.79999999702,139_m_f_n_a.png,I,m,494,8,1,1509.1999999955297,209944.6000000015,8017,VNB,A,7
8,test,3,0.0,1-Back,1,m,Thu Jan 23 2025 14:54:01 GMT-0600 (Central Standard Time),213070.29999999702,071_y_f_d_a.png,I,m,586,9,1,1609.0,211461.29999999702,8017,VNB,A,8
9,test,3,1.0,1-Back,1,m,Thu Jan 23 2025 14:54:01 GMT-0600 (Central Standard Time),214936.3999999985,039_o_m_n_a.png,I,m,842,10,1,1859.5,213076.8999999985,8017,VNB,A,9
10,test,3,0.0,1-Back,1,m,Thu Jan 23 2025 14:54:01 GMT-0600 (Central Standard Time),216752.3999999985,165_m_m_h_a.png,I,m,792,11,1,1807.8999999985099,214944.5,8017,VNB,A,10
11,test,3,0.0,1-Back,1,z,Thu Jan 23 2025 14:54:01 GMT-0600 (Central Standard Time),218551.70000000298,139_m_f_h_a.png,I,z,767,12,1,1792.5,216759.20000000298,8017,VNB,A,11
12,test,3,1.0,1-Back,1,m,Thu Jan 23 2025 14:54:01 GMT-0600 (Central Standard Time),220034.5,124_o_f_d_a.png,I,m,464,13,1,1476.0,218558.5,8017,VNB,A,12
13,test,3,0.0,1-Back,1,z,Thu Jan 23 2025 14:54:01 GMT-0600 (Central Standard Time),221717.3999999985,165_m_m_d_a.png,I,z,653,14,1,1676.2999999970198,220041.1000000015,8017,VNB,A,13
14,test,3,0.0,1-Back,1,m,Thu Jan 23 2025 14:54:01 GMT-0600 (Central Standard Time),223333.6000000015,109_y_m_n_a.png,I,m,586,15,1,1609.3999999985099,221724.20000000298,8017,VNB,A,14
15,test,3,1.0,1-Back,1,m,Thu Jan 23 2025 14:54:01 GMT-0600 (Central Standard Time),225099.6000000015,039_o_m_h_a.png,I,m,746,16,1,1759.3999999985099,223340.20000000298,8017,VNB,A,15
16,test,3,0.0,1-Back,1,m,Thu Jan 23 2025 14:54:01 GMT-0600 (Central Standard Time),226732.3999999985,109_y_m_d_a.png,I,m,604,17,1,1626.0,225106.3999999985,8017,VNB,A,16
17,test,3,1.0,1-Back,1,m,Thu Jan 23 2025 14:54:01 GMT-0600 (Central Standard Time),228515.29999999702,071_y_f_n_a.png,I,m,755,18,1,1776.3999999985099,226738.8999999985,8017,VNB,A,17
0,test,4,1.0,1-Back,,,Thu Jan 23 2025 14:54:01 GMT-0600 (Central Standard Time),228515.29999999702,165_m_m_d_a.png,I,space,1477,1,1,1776.3999999985099,226738.8999999985,8017,VNB,A,0
1,test,4,0.0,1-Back,1,z,Thu Jan 23 2025 14:54:01 GMT-0600 (Central Standard Time),233747.0,039_o_m_d_a.png,I,z,706,2,1,1725.8999999985099,232021.1000000015,8017,VNB,A,1
2,test,4,0.0,1-Back,1,m,Thu Jan 23 2025 14:54:01 GMT-0600 (Central Standard Time),235213.3999999985,109_y_m_h_a.png,I,m,443,3,1,1459.2999999970198,233754.1000000015,8017,VNB,A,2
3,test,4,0.0,1-Back,1,m,Thu Jan 23 2025 14:54:01 GMT-0600 (Central Standard Time),236846.20000000298,139_m_f_n_a.png,I,m,513,4,1,1626.0,235220.20000000298,8017,VNB,A,3
4,test,4,1.0,1-Back,1,m,Thu Jan 23 2025 14:54:01 GMT-0600 (Central Standard Time),238395.29999999702,124_o_f_h_a.png,I,m,530,5,1,1542.5,236852.79999999702,8017,VNB,A,4
5,test,4,0.0,1-Back,1,m,Thu Jan 23 2025 14:54:01 GMT-0600 (Central Standard Time),240011.6000000015,165_m_m_n_a.png,I,m,588,6,1,1609.7000000029802,238401.8999999985,8017,VNB,A,5
6,test,4,0.0,1-Back,1,m,Thu Jan 23 2025 14:54:01 GMT-0600 (Central Standard Time),241644.70000000298,109_y_m_d_a.png,I,m,612,7,1,1626.1000000014901,240018.6000000015,8017,VNB,A,6
7,test,4,1.0,1-Back,1,z,Thu Jan 23 2025 14:54:01 GMT-0600 (Central Standard Time),243443.70000000298,071_y_f_d_a.png,I,z,771,8,1,1792.2000000029802,241651.5,8017,VNB,A,7
8,test,4,0.0,1-Back,1,m,Thu Jan 23 2025 14:54:01 GMT-0600 (Central Standard Time),245027.0,139_m_f_h_a.png,I,m,556,9,1,1575.8999999985099,243451.1000000015,8017,VNB,A,8
9,test,4,0.0,1-Back,1,z,Thu Jan 23 2025 14:54:01 GMT-0600 (Central Standard Time),246709.6000000015,039_o_m_h_a.png,I,z,661,10,1,1674.8999999985099,245034.70000000298,8017,VNB,A,9
10,test,4,1.0,1-Back,1,m,Thu Jan 23 2025 14:54:01 GMT-0600 (Central Standard Time),248309.20000000298,124_o_f_n_a.png,I,m,579,11,1,1592.1000000014901,246717.1000000015,8017,VNB,A,10
11,test,4,0.0,1-Back,1,m,Thu Jan 23 2025 14:54:01 GMT-0600 (Central Standard Time),250641.70000000298,139_m_f_d_a.png,I,m,1307,12,1,2325.5,248316.20000000298,8017,VNB,A,11
12,test,4,0.0,1-Back,1,m,Thu Jan 23 2025 14:54:01 GMT-0600 (Central Standard Time),253141.0,071_y_f_n_a.png,I,m,1470,13,1,2492.39999999851,250648.6000000015,8017,VNB,A,12
13,test,4,0.0,1-Back,1,m,Thu Jan 23 2025 14:54:01 GMT-0600 (Central Standard Time),255423.6000000015,124_o_f_d_a.png,I,m,1259,14,1,2275.60000000149,253148.0,8017,VNB,A,13
14,test,4,0.0,1-Back,1,m,Thu Jan 23 2025 14:54:01 GMT-0600 (Central Standard Time),257506.5,071_y_f_h_a.png,I,m,1056,15,1,2075.60000000149,255430.8999999985,8017,VNB,A,14
15,test,4,1.0,1-Back,1,z,Thu Jan 23 2025 14:54:01 GMT-0600 (Central Standard Time),259338.8999999985,165_m_m_h_a.png,I,z,814,16,1,1825.7999999970198,257513.1000000015,8017,VNB,A,15
16,test,4,0.0,1-Back,1,m,Thu Jan 23 2025 14:54:01 GMT-0600 (Central Standard Time),260871.8999999985,039_o_m_n_a.png,I,m,509,17,1,1526.3999999985099,259345.5,8017,VNB,A,16
17,test,4,1.0,1-Back,1,z,Thu Jan 23 2025 14:54:01 GMT-0600 (Central Standard Time),263404.799999997,109_y_m_n_a.png,I,z,1504,18,1,2525.7999999970198,260879.0,8017,VNB,A,17
0,test,5,1.0,1-Back,,,Thu Jan 23 2025 14:54:01 GMT-0600 (Central Standard Time),263404.799999997,039_o_m_n_a.png,I,space,1572,1,1,2525.7999999970198,260879.0,8017,VNB,A,0
1,test,5,1.0,1-Back,1,m,Thu Jan 23 2025 14:54:01 GMT-0600 (Central Standard Time),268936.1000000015,124_o_f_h_a.png,I,m,901,2,1,1926.1000000014901,267010.0,8017,VNB,A,1
2,test,5,0.0,1-Back,1,m,Thu Jan 23 2025 14:54:01 GMT-0600 (Central Standard Time),270735.3999999985,109_y_m_d_a.png,I,m,768,3,1,1792.1000000014901,268943.299999997,8017,VNB,A,2
3,test,5,0.0,1-Back,1,z,Thu Jan 23 2025 14:54:01 GMT-0600 (Central Standard Time),272401.5,039_o_m_d_a.png,I,z,641,4,1,1659.1000000014901,270742.3999999985,8017,VNB,A,3
4,test,5,0.0,1-Back,1,m,Thu Jan 23 2025 14:54:01 GMT-0600 (Central Standard Time),274668.6000000015,139_m_f_h_a.png,I,m,1246,5,1,2260.0,272408.6000000015,8017,VNB,A,4
5,test,5,0.0,1-Back,1,m,Thu Jan 23 2025 14:54:01 GMT-0600 (Central Standard Time),276783.5,071_y_f_n_a.png,I,m,1084,6,1,2107.5,274676.0,8017,VNB,A,5
6,test,5,1.0,1-Back,1,z,Thu Jan 23 2025 14:54:01 GMT-0600 (Central Standard Time),278549.6000000015,124_o_f_n_a.png,I,z,736,7,1,1759.2000000029802,276790.3999999985,8017,VNB,A,6
7,test,5,0.0,1-Back,1,m,Thu Jan 23 2025 14:54:01 GMT-0600 (Central Standard Time),280248.8999999985,139_m_f_d_a.png,I,m,674,8,1,1692.6999999955297,278556.200000003,8017,VNB,A,7
8,test,5,0.0,1-Back,1,m,Thu Jan 23 2025 14:54:01 GMT-0600 (Central Standard Time),281982.0,109_y_m_h_a.png,I,m,711,9,1,1725.2999999970198,280256.700000003,8017,VNB,A,8
9,test,5,0.0,1-Back,1,m,Thu Jan 23 2025 14:54:01 GMT-0600 (Central Standard Time),283748.200000003,071_y_f_d_a.png,I,m,738,10,1,1758.9000000059605,281989.299999997,8017,VNB,A,9
10,test,5,0.0,1-Back,1,m,Thu Jan 23 2025 14:54:01 GMT-0600 (Central Standard Time),285814.1000000015,165_m_m_n_a.png,I,m,1044,11,1,2058.10000000149,283756.0,8017,VNB,A,10
10,test,5,1.0,1-Back,0,z,Thu Jan 23 2025 14:54:01 GMT-0600 (Central Standard Time),287513.700000003,139_m_f_n_a.png,I,m,674,12,1,1692.3000000044703,285821.3999999985,8017,VNB,A,11
11,test,5,0.0,1-Back,1,m,Thu Jan 23 2025 14:54:01 GMT-0600 (Central Standard Time),289379.6000000015,039_o_m_h_a.png,I,m,846,13,1,1858.8999999985099,287520.700000003,8017,VNB,A,12
12,test,5,0.0,1-Back,1,z,Thu Jan 23 2025 14:54:01 GMT-0600 (Central Standard Time),291212.5,165_m_m_h_a.png,I,z,804,14,1,1825.7000000029802,289386.799999997,8017,VNB,A,13
13,test,5,1.0,1-Back,1,m,Thu Jan 23 2025 14:54:01 GMT-0600 (Central Standard Time),292761.6000000015,124_o_f_d_a.png,I,m,524,15,1,1542.6000000014901,291219.0,8017,VNB,A,14
14,test,5,0.0,1-Back,1,m,Thu Jan 23 2025 14:54:01 GMT-0600 (Central Standard Time),294394.8999999985,109_y_m_n_a.png,I,m,605,16,1,1624.1000000014901,292770.799999997,8017,VNB,A,15
15,test,5,0.0,1-Back,1,m,Thu Jan 23 2025 14:54:01 GMT-0600 (Central Standard Time),296510.799999997,071_y_f_h_a.png,I,m,1085,17,1,2108.5999999940395,294402.200000003,8017,VNB,A,16
16,test,5,0.0,1-Back,1,m,Thu Jan 23 2025 14:54:01 GMT-0600 (Central Standard Time),298076.700000003,165_m_m_d_a.png,I,m,537,18,1,1558.3000000044703,296518.3999999985,8017,VNB,A,17
0,prac,1,0.0,2-Back,,,Thu Jan 23 2025 14:54:01 GMT-0600 (Central Standard Time),298076.700000003,139_m_f_n_a.png,I,space,5991,1,1,1558.3000000044703,296518.3999999985,8017,VNB,A,0
0,prac,1,0.0,2-Back,,,Thu Jan 23 2025 14:54:01 GMT-0600 (Central Standard Time),298076.700000003,124_o_f_h_a.png,I,space,5991,2,1,1558.3000000044703,296518.3999999985,8017,VNB,A,0
1,prac,1,0.0,2-Back,1,m,Thu Jan 23 2025 14:54:01 GMT-0600 (Central Standard Time),392497.6000000015,039_o_m_d_a.png,I,m,1216,3,1,2008.3000000044703,390489.299999997,8017,VNB,A,1
2,prac,1,1.0,2-Back,1,z,Thu Jan 23 2025 14:54:01 GMT-0600 (Central Standard Time),394064.700000003,165_m_m_h_a.png,I,z,749,4,1,1559.2000000029802,392505.5,8017,VNB,A,2
3,prac,1,0.0,2-Back,1,m,Thu Jan 23 2025 14:54:01 GMT-0600 (Central Standard Time),395496.5,071_y_f_n_a.png,I,m,612,5,1,1421.5,394075.0,8017,VNB,A,3
3,prac,1,1.0,2-Back,0,z,Thu Jan 23 2025 14:54:01 GMT-0600 (Central Standard Time),397562.3999999985,039_o_m_h_a.png,I,m,1256,6,1,2057.39999999851,395505.0,8017,VNB,A,4
3,prac,1,1.0,2-Back,0,z,Thu Jan 23 2025 14:54:01 GMT-0600 (Central Standard Time),399545.3999999985,109_y_m_n_a.png,I,m,1167,7,1,1974.6000000014901,397570.799999997,8017,VNB,A,5
4,prac,1,0.0,2-Back,1,m,Thu Jan 23 2025 14:54:01 GMT-0600 (Central Standard Time),401544.700000003,139_m_f_d_a.png,I,m,1182,8,1,1991.4000000059605,399553.299999997,8017,VNB,A,6
5,prac,1,0.0,2-Back,1,m,Thu Jan 23 2025 14:54:01 GMT-0600 (Central Standard Time),404010.299999997,124_o_f_d_a.png,I,m,1624,9,1,2457.0999999940395,401553.200000003,8017,VNB,A,7
6,prac,1,0.0,2-Back,1,m,Thu Jan 23 2025 14:54:01 GMT-0600 (Central Standard Time),405410.1000000015,165_m_m_h_a.png,I,m,622,10,1,1391.7000000029802,404018.3999999985,8017,VNB,A,8
6,prac,1,1.0,2-Back,0,z,Thu Jan 23 2025 14:54:01 GMT-0600 (Central Standard Time),407292.799999997,071_y_f_d_a.png,I,m,1078,11,1,1874.7999999970198,405418.0,8017,VNB,A,9
7,prac,1,0.0,2-Back,1,m,Thu Jan 23 2025 14:54:01 GMT-0600 (Central Standard Time),409325.5,039_o_m_n_a.png,I,m,1228,12,1,2024.2999999970198,407301.200000003,8017,VNB,A,10
0,test,1,0.0,2-Back,,,Thu Jan 23 2025 14:54:01 GMT-0600 (Central Standard Time),409325.5,109_y_m_h_a.png,I,space,5141,1,1,2024.2999999970198,407301.200000003,8017,VNB,A,0
0,test,1,0.0,2-Back,,,Thu Jan 23 2025 14:54:01 GMT-0600 (Central Standard Time),409325.5,124_o_f_n_a.png,I,space,5141,2,1,2024.2999999970198,407301.200000003,8017,VNB,A,0
1,test,1,0.0,2-Back,1,z,Thu Jan 23 2025 14:54:01 GMT-0600 (Central Standard Time),427403.1000000015,039_o_m_h_a.png,I,z,772,3,1,1792.8000000044703,425610.299999997,8017,VNB,A,1
2,test,1,0.0,2-Back,1,m,Thu Jan 23 2025 14:54:01 GMT-0600 (Central Standard Time),429169.200000003,139_m_f_d_a.png,I,m,741,4,1,1758.9000000059605,427410.299999997,8017,VNB,A,2
2,test,1,1.0,2-Back,0,m,Thu Jan 23 2025 14:54:01 GMT-0600 (Central Standard Time),431418.5,109_y_m_n_a.png,I,z,1231,5,1,2242.2000000029802,429176.299999997,8017,VNB,A,3
2,test,1,0.0,2-Back,0,z,Thu Jan 23 2025 14:54:01 GMT-0600 (Central Standard Time),433002.5,071_y_f_d_a.png,I,m,550,6,1,1576.5,431426.0,8017,VNB,A,4
2,test,1,0.0,2-Back,0,m,Thu Jan 23 2025 14:54:01 GMT-0600 (Central Standard Time),434617.299999997,165_m_m_h_a.png,I,z,583,7,1,1607.6999999955297,433009.6000000015,8017,VNB,A,5
3,test,1,1.0,2-Back,1,m,Thu Jan 23 2025 14:54:01 GMT-0600 (Central Standard Time),436466.799999997,071_y_f_n_a.png,I,m,823,8,1,1842.0999999940395,434624.700000003,8017,VNB,A,6
3,test,1,0.0,2-Back,0,z,Thu Jan 23 2025 14:54:01 GMT-0600 (Central Standard Time),438499.3999999985,124_o_f_h_a.png,I,m,1005,9,1,2025.6000000014901,436473.799999997,8017,VNB,A,7
4,test,1,0.0,2-Back,1,m,Thu Jan 23 2025 14:54:01 GMT-0600 (Central Standard Time),440315.5,039_o_m_d_a.png,I,m,796,10,1,1808.7000000029802,438506.799999997,8017,VNB,A,8
4,test,1,1.0,2-Back,0,m,Thu Jan 23 2025 14:54:01 GMT-0600 (Central Standard Time),442181.799999997,165_m_m_d_a.png,I,z,836,11,1,1859.3999999985099,440322.3999999985,8017,VNB,A,9
5,test,1,0.0,2-Back,1,m,Thu Jan 23 2025 14:54:01 GMT-0600 (Central Standard Time),443947.8999999985,139_m_f_n_a.png,I,m,746,12,1,1759.2999999970198,442188.6000000015,8017,VNB,A,10
6,test,1,0.0,2-Back,1,m,Thu Jan 23 2025 14:54:01 GMT-0600 (Central Standard Time),446146.8999999985,071_y_f_h_a.png,I,m,1172,13,1,2191.7999999970198,443955.1000000015,8017,VNB,A,11
7,test,1,0.0,2-Back,1,z,Thu Jan 23 2025 14:54:01 GMT-0600 (Central Standard Time),448229.5,165_m_m_n_a.png,I,z,1063,14,1,2075.60000000149,446153.8999999985,8017,VNB,A,12
8,test,1,0.0,2-Back,1,m,Thu Jan 23 2025 14:54:01 GMT-0600 (Central Standard Time),450229.299999997,109_y_m_d_a.png,I,m,978,15,1,1992.0,448237.299999997,8017,VNB,A,13
8,test,1,1.0,2-Back,0,m,Thu Jan 23 2025 14:54:01 GMT-0600 (Central Standard Time),452695.200000003,139_m_f_h_a.png,I,z,1443,16,1,2459.0,450236.200000003,8017,VNB,A,14
9,test,1,0.0,2-Back,1,z,Thu Jan 23 2025 14:54:01 GMT-0600 (Central Standard Time),454994.5,124_o_f_d_a.png,I,z,1281,17,1,2291.7000000029802,452702.799999997,8017,VNB,A,15
10,test,1,0.0,2-Back,1,m,Thu Jan 23 2025 14:54:01 GMT-0600 (Central Standard Time),457143.6000000015,039_o_m_n_a.png,I,m,1126,18,1,2141.5,455002.1000000015,8017,VNB,A,16
0,test,2,0.0,2-Back,,,Thu Jan 23 2025 14:54:01 GMT-0600 (Central Standard Time),457143.6000000015,165_m_m_h_a.png,I,space,2065,1,1,2141.5,455002.1000000015,8017,VNB,A,0
0,test,2,0.0,2-Back,,,Thu Jan 23 2025 14:54:01 GMT-0600 (Central Standard Time),457143.6000000015,071_y_f_n_a.png,I,space,2065,2,1,2141.5,455002.1000000015,8017,VNB,A,0
1,test,2,1.0,2-Back,1,z,Thu Jan 23 2025 14:54:01 GMT-0600 (Central Standard Time),466241.1000000015,124_o_f_h_a.png,I,z,891,3,1,1909.1000000014901,464332.0,8017,VNB,A,1
2,test,2,0.0,2-Back,1,m,Thu Jan 23 2025 14:54:01 GMT-0600 (Central Standard Time),468740.1000000015,039_o_m_d_a.png,I,m,1479,4,1,2491.8000000044703,466248.299999997,8017,VNB,A,2
3,test,2,0.0,2-Back,1,m,Thu Jan 23 2025 14:54:01 GMT-0600 (Central Standard Time),470772.700000003,139_m_f_d_a.png,I,m,1004,5,1,2024.9000000059605,468747.799999997,8017,VNB,A,3
3,test,2,0.0,2-Back,0,m,Thu Jan 23 2025 14:54:01 GMT-0600 (Central Standard Time),472655.700000003,109_y_m_h_a.png,I,z,852,6,1,1875.6000000014901,470780.1000000015,8017,VNB,A,4
4,test,2,0.0,2-Back,1,m,Thu Jan 23 2025 14:54:01 GMT-0600 (Central Standard Time),474388.299999997,124_o_f_n_a.png,I,m,704,7,1,1725.7999999970198,472662.5,8017,VNB,A,5
5,test,2,1.0,2-Back,1,z,Thu Jan 23 2025 14:54:01 GMT-0600 (Central Standard Time),476487.700000003,039_o_m_h_a.png,I,z,1068,8,1,2092.0,474395.700000003,8017,VNB,A,6
6,test,2,0.0,2-Back,1,m,Thu Jan 23 2025 14:54:01 GMT-0600 (Central Standard Time),478370.6000000015,071_y_f_d_a.png,I,m,848,9,1,1875.2000000029802,476495.3999999985,8017,VNB,A,7
7,test,2,0.0,2-Back,1,m,Thu Jan 23 2025 14:54:01 GMT-0600 (Central Standard Time),481086.299999997,109_y_m_d_a.png,I,m,1686,10,1,2708.5999999940395,478377.700000003,8017,VNB,A,8
8,test,2,0.0,2-Back,1,m,Thu Jan 23 2025 14:54:01 GMT-0600 (Central Standard Time),484002.1000000015,165_m_m_n_a.png,I,m,1890,11,1,2908.60000000149,481093.5,8017,VNB,A,9
9,test,2,0.0,2-Back,1,m,Thu Jan 23 2025 14:54:01 GMT-0600 (Central Standard Time),486085.8999999985,139_m_f_h_a.png,I,m,1054,12,1,2077.0,484008.8999999985,8017,VNB,A,10
10,test,2,1.0,2-Back,1,z,Thu Jan 23 2025 14:54:01 GMT-0600 (Central Standard Time),488117.5,039_o_m_n_a.png,I,z,1012,13,1,2024.0,486093.5,8017,VNB,A,11
11,test,2,0.0,2-Back,1,m,Thu Jan 23 2025 14:54:01 GMT-0600 (Central Standard Time),490033.5,124_o_f_d_a.png,I,m,891,14,1,1908.8999999985099,488124.6000000015,8017,VNB,A,12
12,test,2,0.0,2-Back,1,m,Thu Jan 23 2025 14:54:01 GMT-0600 (Central Standard Time),492599.3999999985,071_y_f_h_a.png,I,m,1542,15,1,2558.6999999955297,490040.700000003,8017,VNB,A,13
13,test,2,0.0,2-Back,1,z,Thu Jan 23 2025 14:54:01 GMT-0600 (Central Standard Time),494598.6000000015,165_m_m_d_a.png,I,z,977,16,1,1991.5,492607.1000000015,8017,VNB,A,14
14,test,2,0.0,2-Back,1,m,Thu Jan 23 2025 14:54:01 GMT-0600 (Central Standard Time),496831.1000000015,109_y_m_n_a.png,I,m,1209,17,1,2225.5,494605.6000000015,8017,VNB,A,15
15,test,2,1.0,2-Back,1,m,Thu Jan 23 2025 14:54:01 GMT-0600 (Central Standard Time),498714.200000003,139_m_f_n_a.png,I,m,858,18,1,1876.0,496838.200000003,8017,VNB,A,16
0,test,3,1.0,2-Back,,,Thu Jan 23 2025 14:54:01 GMT-0600 (Central Standard Time),498714.200000003,039_o_m_n_a.png,I,space,1455,1,1,1876.0,496838.200000003,8017,VNB,A,0
0,test,3,1.0,2-Back,,,Thu Jan 23 2025 14:54:01 GMT-0600 (Central Standard Time),498714.200000003,124_o_f_d_a.png,I,space,1455,2,1,1876.0,496838.200000003,8017,VNB,A,0
1,test,3,0.0,2-Back,1,m,Thu Jan 23 2025 14:54:01 GMT-0600 (Central Standard Time),507044.799999997,071_y_f_h_a.png,I,m,795,3,1,1809.2999999970198,505235.5,8017,VNB,A,1
2,test,3,0.0,2-Back,1,z,Thu Jan 23 2025 14:54:01 GMT-0600 (Central Standard Time),509327.5,139_m_f_d_a.png,I,z,1259,4,1,2275.5,507052.0,8017,VNB,A,2
2,test,3,1.0,2-Back,0,m,Thu Jan 23 2025 14:54:01 GMT-0600 (Central Standard Time),512359.6000000015,109_y_m_n_a.png,I,None,2013,5,1,3025.39999999851,509334.200000003,8017,VNB,A,3
3,test,3,0.0,2-Back,1,m,Thu Jan 23 2025 14:54:01 GMT-0600 (Central Standard Time),514192.3999999985,039_o_m_h_a.png,I,m,808,6,1,1825.6000000014901,512366.799999997,8017,VNB,A,4
4,test,3,0.0,2-Back,1,z,Thu Jan 23 2025 14:54:01 GMT-0600 (Central Standard Time),516225.1000000015,071_y_f_n_a.png,I,z,1008,7,1,2025.7000000029802,514199.3999999985,8017,VNB,A,5
4,test,3,1.0,2-Back,0,m,Thu Jan 23 2025 14:54:01 GMT-0600 (Central Standard Time),518307.8999999985,165_m_m_d_a.png,I,z,1055,8,1,2075.60000000149,516232.299999997,8017,VNB,A,6
5,test,3,0.0,2-Back,1,m,Thu Jan 23 2025 14:54:01 GMT-0600 (Central Standard Time),520107.5,109_y_m_d_a.png,I,m,772,9,1,1792.5,518315.0,8017,VNB,A,7
6,test,3,0.0,2-Back,1,m,Thu Jan 23 2025 14:54:01 GMT-0600 (Central Standard Time),521956.799999997,124_o_f_h_a.png,I,m,821,10,1,1841.7999999970198,520115.0,8017,VNB,A,8
7,test,3,1.0,2-Back,1,m,Thu Jan 23 2025 14:54:01 GMT-0600 (Central Standard Time),524222.8999999985,139_m_f_n_a.png,I,m,1235,11,1,2259.39999999851,521963.5,8017,VNB,A,9
8,test,3,1.0,2-Back,1,z,Thu Jan 23 2025 14:54:01 GMT-0600 (Central Standard Time),525788.8999999985,165_m_m_h_a.png,I,z,545,12,1,1558.7999999970198,524230.1000000015,8017,VNB,A,10
8,test,3,0.0,2-Back,0,m,Thu Jan 23 2025 14:54:01 GMT-0600 (Central Standard Time),527938.3999999985,071_y_f_d_a.png,I,z,1115,13,1,2142.1999999955297,525796.200000003,8017,VNB,A,11
9,test,3,0.0,2-Back,1,m,Thu Jan 23 2025 14:54:01 GMT-0600 (Central Standard Time),530054.200000003,124_o_f_n_a.png,I,m,1086,14,1,2108.0,527946.200000003,8017,VNB,A,12
10,test,3,0.0,2-Back,1,z,Thu Jan 23 2025 14:54:01 GMT-0600 (Central Standard Time),532353.799999997,039_o_m_d_a.png,I,z,1266,15,1,2292.6999999955297,530061.1000000015,8017,VNB,A,13
11,test,3,1.0,2-Back,1,m,Thu Jan 23 2025 14:54:01 GMT-0600 (Central Standard Time),533969.799999997,139_m_f_h_a.png,I,m,582,16,1,1608.6999999955297,532361.1000000015,8017,VNB,A,14
11,test,3,0.0,2-Back,0,m,Thu Jan 23 2025 14:54:01 GMT-0600 (Central Standard Time),535902.3999999985,165_m_m_n_a.png,I,z,902,17,1,1925.5,533976.8999999985,8017,VNB,A,15
12,test,3,0.0,2-Back,1,z,Thu Jan 23 2025 14:54:01 GMT-0600 (Central Standard Time),537685.200000003,109_y_m_h_a.png,I,z,754,18,1,1775.3000000044703,535909.8999999985,8017,VNB,A,16
0,test,4,0.0,2-Back,,,Thu Jan 23 2025 14:54:01 GMT-0600 (Central Standard Time),537685.200000003,139_m_f_n_a.png,I,space,1093,1,1,1775.3000000044703,535909.8999999985,8017,VNB,A,0
0,test,4,0.0,2-Back,,,Thu Jan 23 2025 14:54:01 GMT-0600 (Central Standard Time),537685.200000003,039_o_m_n_a.png,I,space,1093,2,1,1775.3000000044703,535909.8999999985,8017,VNB,A,0
1,test,4,1.0,2-Back,1,m,Thu Jan 23 2025 14:54:01 GMT-0600 (Central Standard Time),545566.1000000015,109_y_m_h_a.png,I,m,669,3,1,1692.6000000014901,543873.5,8017,VNB,A,1
2,test,4,1.0,2-Back,1,m,Thu Jan 23 2025 14:54:01 GMT-0600 (Central Standard Time),547632.0,124_o_f_d_a.png,I,m,1042,4,1,2058.39999999851,545573.6000000015,8017,VNB,A,2
3,test,4,0.0,2-Back,1,z,Thu Jan 23 2025 14:54:01 GMT-0600 (Central Standard Time),549614.799999997,039_o_m_h_a.png,I,z,960,5,1,1975.6999999955297,547639.1000000015,8017,VNB,A,3
4,test,4,0.0,2-Back,1,m,Thu Jan 23 2025 14:54:01 GMT-0600 (Central Standard Time),551764.1000000015,165_m_m_n_a.png,I,m,1121,6,1,2142.0,549622.1000000015,8017,VNB,A,4
5,test,4,0.0,2-Back,1,m,Thu Jan 23 2025 14:54:01 GMT-0600 (Central Standard Time),553796.799999997,139_m_f_d_a.png,I,m,1012,7,1,2026.2999999970198,551770.5,8017,VNB,A,5
6,test,4,0.0,2-Back,1,z,Thu Jan 23 2025 14:54:01 GMT-0600 (Central Standard Time),555812.8999999985,071_y_f_n_a.png,I,z,987,8,1,2009.1999999955297,553803.700000003,8017,VNB,A,6
7,test,4,1.0,2-Back,1,m,Thu Jan 23 2025 14:54:01 GMT-0600 (Central Standard Time),557778.8999999985,124_o_f_h_a.png,I,m,939,9,1,1958.5,555820.3999999985,8017,VNB,A,7
7,test,4,0.0,2-Back,0,m,Thu Jan 23 2025 14:54:01 GMT-0600 (Central Standard Time),560161.3999999985,165_m_m_h_a.png,I,z,1357,10,1,2375.39999999851,557786.0,8017,VNB,A,8
8,test,4,0.0,2-Back,1,m,Thu Jan 23 2025 14:54:01 GMT-0600 (Central Standard Time),562344.299999997,071_y_f_d_a.png,I,m,1150,11,1,2175.39999999851,560168.8999999985,8017,VNB,A,9
9,test,4,0.0,2-Back,1,m,Thu Jan 23 2025 14:54:01 GMT-0600 (Central Standard Time),564043.3999999985,109_y_m_n_a.png,I,m,672,12,1,1691.8999999985099,562351.5,8017,VNB,A,10
9,test,4,0.0,2-Back,0,z,Thu Jan 23 2025 14:54:01 GMT-0600 (Central Standard Time),566527.200000003,039_o_m_d_a.png,I,m,1452,13,1,2476.8000000044703,564050.3999999985,8017,VNB,A,11
10,test,4,1.0,2-Back,1,m,Thu Jan 23 2025 14:54:01 GMT-0600 (Central Standard Time),568359.0,139_m_f_h_a.png,I,m,810,14,1,1824.5,566534.5,8017,VNB,A,12
10,test,4,1.0,2-Back,0,m,Thu Jan 23 2025 14:54:01 GMT-0600 (Central Standard Time),570774.8999999985,071_y_f_h_a.png,I,z,1393,15,1,2408.7999999970198,568366.1000000015,8017,VNB,A,13
11,test,4,0.0,2-Back,1,m,Thu Jan 23 2025 14:54:01 GMT-0600 (Central Standard Time),573340.6000000015,124_o_f_n_a.png,I,m,1537,16,1,2559.0,570781.6000000015,8017,VNB,A,14
11,test,4,0.0,2-Back,0,m,Thu Jan 23 2025 14:54:01 GMT-0600 (Central Standard Time),575273.3999999985,109_y_m_d_a.png,I,z,907,17,1,1925.2999999970198,573348.1000000015,8017,VNB,A,15
12,test,4,1.0,2-Back,1,m,Thu Jan 23 2025 14:54:01 GMT-0600 (Central Standard Time),577456.200000003,165_m_m_d_a.png,I,m,1151,18,1,2175.60000000149,575280.6000000015,8017,VNB,A,16
0,test,5,1.0,2-Back,,,Thu Jan 23 2025 14:54:01 GMT-0600 (Central Standard Time),577456.200000003,071_y_f_d_a.png,I,space,1913,1,1,2175.60000000149,575280.6000000015,8017,VNB,A,0
0,test,5,1.0,2-Back,,,Thu Jan 23 2025 14:54:01 GMT-0600 (Central Standard Time),577456.200000003,124_o_f_h_a.png,I,space,1913,2,1,2175.60000000149,575280.6000000015,8017,VNB,A,0
1,test,5,1.0,2-Back,1,z,Thu Jan 23 2025 14:54:01 GMT-0600 (Central Standard Time),586819.799999997,039_o_m_d_a.png,I,z,1338,3,1,2359.1999999955297,584460.6000000015,8017,VNB,A,1
2,test,5,1.0,2-Back,1,m,Thu Jan 23 2025 14:54:01 GMT-0600 (Central Standard Time),588569.3999999985,139_m_f_n_a.png,I,m,716,4,1,1742.5,586826.8999999985,8017,VNB,A,2
3,test,5,0.0,2-Back,1,m,Thu Jan 23 2025 14:54:01 GMT-0600 (Central Standard Time),590368.799999997,165_m_m_h_a.png,I,m,767,5,1,1791.6999999955297,588577.1000000015,8017,VNB,A,3
4,test,5,0.0,2-Back,1,z,Thu Jan 23 2025 14:54:01 GMT-0600 (Central Standard Time),592301.3999999985,071_y_f_n_a.png,I,z,911,6,1,1925.6000000014901,590375.799999997,8017,VNB,A,4
5,test,5,0.0,2-Back,1,m,Thu Jan 23 2025 14:54:01 GMT-0600 (Central Standard Time),594384.200000003,124_o_f_d_a.png,I,m,1051,7,1,2075.9000000059605,592308.299999997,8017,VNB,A,5
6,test,5,0.0,2-Back,1,m,Thu Jan 23 2025 14:54:01 GMT-0600 (Central Standard Time),596318.0,039_o_m_h_a.png,I,m,912,8,1,1926.2000000029802,594391.799999997,8017,VNB,A,6
7,test,5,1.0,2-Back,1,z,Thu Jan 23 2025 14:54:01 GMT-0600 (Central Standard Time),598182.8999999985,139_m_f_d_a.png,I,z,843,9,1,1857.6999999955297,596325.200000003,8017,VNB,A,7
8,test,5,0.0,2-Back,1,m,Thu Jan 23 2025 14:54:01 GMT-0600 (Central Standard Time),600816.5,109_y_m_n_a.png,I,m,1601,10,1,2626.0,598190.5,8017,VNB,A,8
9,test,5,0.0,2-Back,1,m,Thu Jan 23 2025 14:54:01 GMT-0600 (Central Standard Time),602964.799999997,165_m_m_n_a.png,I,m,1128,11,1,2140.6999999955297,600824.1000000015,8017,VNB,A,9
10,test,5,0.0,2-Back,1,m,Thu Jan 23 2025 14:54:01 GMT-0600 (Central Standard Time),604663.799999997,071_y_f_h_a.png,I,m,675,12,1,1691.8999999985099,602971.8999999985,8017,VNB,A,10
11,test,5,0.0,2-Back,1,m,Thu Jan 23 2025 14:54:01 GMT-0600 (Central Standard Time),606713.6000000015,109_y_m_d_a.png,I,m,1016,13,1,2042.5,604671.1000000015,8017,VNB,A,11
12,test,5,1.0,2-Back,1,z,Thu Jan 23 2025 14:54:01 GMT-0600 (Central Standard Time),608513.1000000015,139_m_f_h_a.png,I,z,775,14,1,1792.3999999985099,606720.700000003,8017,VNB,A,12
12,test,5,0.0,2-Back,0,m,Thu Jan 23 2025 14:54:01 GMT-0600 (Central Standard Time),610595.5,039_o_m_n_a.png,I,z,1063,15,1,2074.60000000149,608520.8999999985,8017,VNB,A,13
13,test,5,0.0,2-Back,1,m,Thu Jan 23 2025 14:54:01 GMT-0600 (Central Standard Time),612228.6000000015,165_m_m_d_a.png,I,m,612,16,1,1625.8000000044703,610602.799999997,8017,VNB,A,14
13,test,5,0.0,2-Back,0,z,Thu Jan 23 2025 14:54:01 GMT-0600 (Central Standard Time),614461.3999999985,124_o_f_n_a.png,I,m,1204,17,1,2225.5,612235.8999999985,8017,VNB,A,15
14,test,5,1.0,2-Back,1,m,Thu Jan 23 2025 14:54:01 GMT-0600 (Central Standard Time),616110.700000003,109_y_m_h_a.png,I,m,619,18,1,1642.3000000044703,614468.3999999985,8017,VNB,A,16
