acc_sum,block,block_c,change,condition,correct,correct_response,datetime,endtime,face,project,response,response_time,row_sel,session_number,start_end,starttime,subject_id,task,task_vers,trial
0,prac,1,,1-Back,,,Tue Apr 08 2025 14:53:34 GMT-0500 (Central Daylight Time),,005_o_f_d_a.png,I,space,3120,1,2,,,8017,VNB,B,0
1,prac,1,0.0,1-Back,1,m,Tue Apr 08 2025 14:53:34 GMT-0500 (Central Daylight Time),134715.39999997616,020_y_f_n_a.png,I,m,1448,2,2,2297.2999999523163,132418.10000002384,8017,VNB,B,1
2,prac,1,0.0,1-Back,1,m,Tue Apr 08 2025 14:53:34 GMT-0500 (Central Daylight Time),136429.60000002384,007_m_m_h_a.png,I,m,827,3,2,1706.0,134723.60000002384,8017,VNB,B,2
3,prac,1,0.0,1-Back,1,m,Tue Apr 08 2025 14:53:34 GMT-0500 (Central Daylight Time),137946.0,016_y_m_d_a.png,I,m,620,4,2,1507.3999999761581,136438.60000002384,8017,VNB,B,3
4,prac,1,0.0,1-Back,1,m,Tue Apr 08 2025 14:53:34 GMT-0500 (Central Daylight Time),139726.39999997616,005_o_f_n_a.png,I,m,884,5,2,1772.8999999761581,137953.5,8017,VNB,B,4
5,prac,1,1.0,1-Back,1,z,Tue Apr 08 2025 14:53:34 GMT-0500 (Central Daylight Time),141244.80000001192,016_y_m_n_a.png,I,z,640,6,2,1512.4000000357628,139732.39999997616,8017,VNB,B,5
6,prac,1,0.0,1-Back,1,m,Tue Apr 08 2025 14:53:34 GMT-0500 (Central Daylight Time),142610.69999998808,004_o_m_h_a.png,I,m,523,7,2,1357.0,141253.69999998808,8017,VNB,B,6
7,prac,1,0.0,1-Back,1,m,Tue Apr 08 2025 14:53:34 GMT-0500 (Central Daylight Time),144044.69999998808,011_m_f_d_a.png,I,m,562,8,2,1425.699999988079,142619.0,8017,VNB,B,7
8,prac,1,1.0,1-Back,1,z,Tue Apr 08 2025 14:53:34 GMT-0500 (Central Daylight Time),145826.60000002384,020_y_f_d_a.png,I,z,918,9,2,1774.300000011921,144052.30000001192,8017,VNB,B,8
9,prac,1,0.0,1-Back,1,m,Tue Apr 08 2025 14:53:34 GMT-0500 (Central Daylight Time),147724.69999998808,007_m_m_n_a.png,I,m,1003,10,2,1888.300000011921,145836.39999997616,8017,VNB,B,9
10,prac,1,0.0,1-Back,1,m,Tue Apr 08 2025 14:53:34 GMT-0500 (Central Daylight Time),149524.89999997616,005_o_f_h_a.png,I,m,911,11,2,1790.5999999642372,147734.30000001192,8017,VNB,B,10
11,prac,1,0.0,1-Back,1,m,Tue Apr 08 2025 14:53:34 GMT-0500 (Central Daylight Time),151008.89999997616,016_y_m_d_a.png,I,m,607,12,2,1476.199999988079,149532.69999998808,8017,VNB,B,11
0,test,1,0.0,1-Back,,,Tue Apr 08 2025 14:53:34 GMT-0500 (Central Daylight Time),151008.89999997616,020_y_f_d_a.png,I,space,3196,1,2,1476.199999988079,149532.69999998808,8017,VNB,B,0
0,test,1,0.0,1-Back,0,m,Tue Apr 08 2025 14:53:34 GMT-0500 (Central Daylight Time),163953.60000002384,011_m_f_n_a.png,I,z,1125,2,2,2141.5,161812.10000002384,8017,VNB,B,1
0,test,1,0.0,1-Back,0,m,Tue Apr 08 2025 14:53:34 GMT-0500 (Central Daylight Time),165787.30000001192,004_o_m_h_a.png,I,z,807,3,2,1825.4000000357628,163961.89999997616,8017,VNB,B,2
0,test,1,1.0,1-Back,0,z,Tue Apr 08 2025 14:53:34 GMT-0500 (Central Daylight Time),168435.10000002384,007_m_m_h_a.png,I,m,1620,4,2,2640.2000000476837,165794.89999997616,8017,VNB,B,3
1,test,1,0.0,1-Back,1,m,Tue Apr 08 2025 14:53:34 GMT-0500 (Central Daylight Time),170402.60000002384,005_o_f_n_a.png,I,m,933,5,2,1959.9000000357628,168442.69999998808,8017,VNB,B,4
2,test,1,0.0,1-Back,1,m,Tue Apr 08 2025 14:53:34 GMT-0500 (Central Daylight Time),172500.10000002384,016_y_m_d_a.png,I,m,1069,6,2,2089.5,170410.60000002384,8017,VNB,B,5
3,test,1,1.0,1-Back,1,z,Tue Apr 08 2025 14:53:34 GMT-0500 (Central Daylight Time),174768.10000002384,011_m_f_d_a.png,I,z,1244,7,2,2261.100000023842,172507.0,8017,VNB,B,6
4,test,1,0.0,1-Back,1,m,Tue Apr 08 2025 14:53:34 GMT-0500 (Central Daylight Time),176448.89999997616,020_y_f_h_a.png,I,m,649,8,2,1678.199999988079,174770.69999998808,8017,VNB,B,7
5,test,1,0.0,1-Back,1,m,Tue Apr 08 2025 14:53:34 GMT-0500 (Central Daylight Time),178016.19999998808,004_o_m_n_a.png,I,m,534,9,2,1558.3999999761581,176457.80000001192,8017,VNB,B,8
6,test,1,0.0,1-Back,1,m,Tue Apr 08 2025 14:53:34 GMT-0500 (Central Daylight Time),179981.19999998808,016_y_m_h_a.png,I,m,945,10,2,1956.699999988079,178024.5,8017,VNB,B,9
7,test,1,0.0,1-Back,1,m,Tue Apr 08 2025 14:53:34 GMT-0500 (Central Daylight Time),181881.30000001192,004_o_m_d_a.png,I,m,875,11,2,1892.5,179988.80000001192,8017,VNB,B,10
8,test,1,1.0,1-Back,1,z,Tue Apr 08 2025 14:53:34 GMT-0500 (Central Daylight Time),183564.19999998808,005_o_f_d_a.png,I,z,663,12,2,1677.0999999642372,181887.10000002384,8017,VNB,B,11
9,test,1,0.0,1-Back,1,m,Tue Apr 08 2025 14:53:34 GMT-0500 (Central Daylight Time),185096.80000001192,007_m_m_n_a.png,I,m,507,13,2,1523.300000011921,183573.5,8017,VNB,B,12
10,test,1,1.0,1-Back,1,z,Tue Apr 08 2025 14:53:34 GMT-0500 (Central Daylight Time),187280.0,020_y_f_n_a.png,I,z,1158,14,2,2174.600000023842,185105.39999997616,8017,VNB,B,13
11,test,1,0.0,1-Back,1,m,Tue Apr 08 2025 14:53:34 GMT-0500 (Central Daylight Time),189114.10000002384,011_m_f_h_a.png,I,m,817,15,2,1825.4000000357628,187288.69999998808,8017,VNB,B,14
12,test,1,0.0,1-Back,1,m,Tue Apr 08 2025 14:53:34 GMT-0500 (Central Daylight Time),191130.30000001192,007_m_m_d_a.png,I,m,991,16,2,2007.6000000238419,189122.69999998808,8017,VNB,B,15
13,test,1,0.0,1-Back,1,m,Tue Apr 08 2025 14:53:34 GMT-0500 (Central Daylight Time),193127.89999997616,016_y_m_n_a.png,I,m,979,17,2,1989.7999999523163,191138.10000002384,8017,VNB,B,16
14,test,1,0.0,1-Back,1,m,Tue Apr 08 2025 14:53:34 GMT-0500 (Central Daylight Time),195626.5,005_o_f_h_a.png,I,m,1482,18,2,2489.100000023842,193137.39999997616,8017,VNB,B,17
0,test,2,0.0,1-Back,,,Tue Apr 08 2025 14:53:34 GMT-0500 (Central Daylight Time),195626.5,016_y_m_n_a.png,I,space,972,1,2,2489.100000023842,193137.39999997616,8017,VNB,B,0
1,test,2,0.0,1-Back,1,m,Tue Apr 08 2025 14:53:34 GMT-0500 (Central Daylight Time),200843.89999997616,020_y_f_h_a.png,I,m,1201,2,2,2208.0,198635.89999997616,8017,VNB,B,1
2,test,2,1.0,1-Back,1,m,Tue Apr 08 2025 14:53:34 GMT-0500 (Central Daylight Time),202426.10000002384,004_o_m_n_a.png,I,m,566,3,2,1573.300000011921,200852.80000001192,8017,VNB,B,2
2,test,2,0.0,1-Back,0,m,Tue Apr 08 2025 14:53:34 GMT-0500 (Central Daylight Time),204424.10000002384,011_m_f_d_a.png,I,z,976,4,2,1989.0,202435.10000002384,8017,VNB,B,3
3,test,2,0.0,1-Back,1,z,Tue Apr 08 2025 14:53:34 GMT-0500 (Central Daylight Time),206322.69999998808,007_m_m_d_a.png,I,z,879,5,2,1890.199999988079,204432.5,8017,VNB,B,4
4,test,2,0.0,1-Back,1,m,Tue Apr 08 2025 14:53:34 GMT-0500 (Central Daylight Time),207991.30000001192,016_y_m_h_a.png,I,m,646,6,2,1662.0,206329.30000001192,8017,VNB,B,5
4,test,2,1.0,1-Back,0,z,Tue Apr 08 2025 14:53:34 GMT-0500 (Central Daylight Time),210422.0,005_o_f_h_a.png,I,m,1409,7,2,2422.100000023842,207999.89999997616,8017,VNB,B,6
5,test,2,0.0,1-Back,1,m,Tue Apr 08 2025 14:53:34 GMT-0500 (Central Daylight Time),212738.5,011_m_f_n_a.png,I,m,1283,8,2,2307.399999976158,210431.10000002384,8017,VNB,B,7
6,test,2,0.0,1-Back,1,m,Tue Apr 08 2025 14:53:34 GMT-0500 (Central Daylight Time),214636.69999998808,020_y_f_d_a.png,I,m,870,9,2,1890.3999999761581,212746.30000001192,8017,VNB,B,8
7,test,2,0.0,1-Back,1,m,Tue Apr 08 2025 14:53:34 GMT-0500 (Central Daylight Time),216820.39999997616,007_m_m_n_a.png,I,m,1154,10,2,2175.899999976158,214644.5,8017,VNB,B,9
8,test,2,1.0,1-Back,1,m,Tue Apr 08 2025 14:53:34 GMT-0500 (Central Daylight Time),218937.69999998808,011_m_f_h_a.png,I,m,1100,11,2,2111.0,216826.69999998808,8017,VNB,B,10
9,test,2,0.0,1-Back,1,z,Tue Apr 08 2025 14:53:34 GMT-0500 (Central Daylight Time),220570.39999997616,004_o_m_h_a.png,I,z,616,12,2,1623.0999999642372,218947.30000001192,8017,VNB,B,11
10,test,2,0.0,1-Back,1,m,Tue Apr 08 2025 14:53:34 GMT-0500 (Central Daylight Time),222369.30000001192,016_y_m_d_a.png,I,m,766,13,2,1789.9000000357628,220579.39999997616,8017,VNB,B,12
11,test,2,0.0,1-Back,1,m,Tue Apr 08 2025 14:53:34 GMT-0500 (Central Daylight Time),224101.0,005_o_f_n_a.png,I,m,712,14,2,1724.5,222376.5,8017,VNB,B,13
12,test,2,0.0,1-Back,1,z,Tue Apr 08 2025 14:53:34 GMT-0500 (Central Daylight Time),225932.0,020_y_f_n_a.png,I,z,811,15,2,1822.199999988079,224109.80000001192,8017,VNB,B,14
13,test,2,1.0,1-Back,1,m,Tue Apr 08 2025 14:53:34 GMT-0500 (Central Daylight Time),227616.39999997616,007_m_m_h_a.png,I,m,658,16,2,1676.699999988079,225939.69999998808,8017,VNB,B,15
14,test,2,0.0,1-Back,1,m,Tue Apr 08 2025 14:53:34 GMT-0500 (Central Daylight Time),229268.19999998808,005_o_f_d_a.png,I,m,633,17,2,1642.0,227626.19999998808,8017,VNB,B,16
15,test,2,1.0,1-Back,1,z,Tue Apr 08 2025 14:53:34 GMT-0500 (Central Daylight Time),231231.39999997616,004_o_m_d_a.png,I,z,940,18,2,1954.0999999642372,229277.30000001192,8017,VNB,B,17
0,test,3,1.0,1-Back,,,Tue Apr 08 2025 14:53:34 GMT-0500 (Central Daylight Time),231231.39999997616,005_o_f_h_a.png,I,space,769,1,2,1954.0999999642372,229277.30000001192,8017,VNB,B,0
1,test,3,0.0,1-Back,1,m,Tue Apr 08 2025 14:53:34 GMT-0500 (Central Daylight Time),235864.10000002384,011_m_f_d_a.png,I,m,701,2,2,1724.800000011921,234139.30000001192,8017,VNB,B,1
2,test,3,1.0,1-Back,1,m,Tue Apr 08 2025 14:53:34 GMT-0500 (Central Daylight Time),237829.69999998808,007_m_m_n_a.png,I,m,942,3,2,1959.0999999642372,235870.60000002384,8017,VNB,B,2
3,test,3,0.0,1-Back,1,z,Tue Apr 08 2025 14:53:34 GMT-0500 (Central Daylight Time),239613.30000001192,005_o_f_n_a.png,I,z,766,4,2,1777.0,237836.30000001192,8017,VNB,B,3
4,test,3,1.0,1-Back,1,m,Tue Apr 08 2025 14:53:34 GMT-0500 (Central Daylight Time),241212.80000001192,004_o_m_d_a.png,I,m,571,5,2,1591.6000000238419,239621.19999998808,8017,VNB,B,4
5,test,3,0.0,1-Back,1,m,Tue Apr 08 2025 14:53:34 GMT-0500 (Central Daylight Time),242727.60000002384,020_y_f_h_a.png,I,m,493,6,2,1507.4000000357628,241220.19999998808,8017,VNB,B,5
6,test,3,0.0,1-Back,1,z,Tue Apr 08 2025 14:53:34 GMT-0500 (Central Daylight Time),244346.30000001192,016_y_m_h_a.png,I,z,600,7,2,1615.9000000357628,242730.39999997616,8017,VNB,B,6
7,test,3,0.0,1-Back,1,m,Tue Apr 08 2025 14:53:34 GMT-0500 (Central Daylight Time),245845.69999998808,011_m_f_n_a.png,I,m,482,8,2,1493.8999999761581,244351.80000001192,8017,VNB,B,7
8,test,3,0.0,1-Back,1,m,Tue Apr 08 2025 14:53:34 GMT-0500 (Central Daylight Time),247543.80000001192,020_y_f_d_a.png,I,m,675,9,2,1689.6000000238419,245854.19999998808,8017,VNB,B,8
9,test,3,1.0,1-Back,1,m,Tue Apr 08 2025 14:53:34 GMT-0500 (Central Daylight Time),249176.60000002384,004_o_m_n_a.png,I,m,600,10,2,1625.7000000476837,247550.89999997616,8017,VNB,B,9
10,test,3,0.0,1-Back,1,m,Tue Apr 08 2025 14:53:34 GMT-0500 (Central Daylight Time),251625.0,007_m_m_h_a.png,I,m,1425,11,2,2439.800000011921,249185.19999998808,8017,VNB,B,10
10,test,3,0.0,1-Back,0,z,Tue Apr 08 2025 14:53:34 GMT-0500 (Central Daylight Time),253692.10000002384,011_m_f_h_a.png,I,m,1039,12,2,2060.0,251632.10000002384,8017,VNB,B,11
11,test,3,1.0,1-Back,1,m,Tue Apr 08 2025 14:53:34 GMT-0500 (Central Daylight Time),255275.89999997616,005_o_f_d_a.png,I,m,566,13,2,1569.699999988079,253706.19999998808,8017,VNB,B,12
12,test,3,0.0,1-Back,1,z,Tue Apr 08 2025 14:53:34 GMT-0500 (Central Daylight Time),257040.60000002384,007_m_m_d_a.png,I,z,742,14,2,1756.4000000357628,255284.19999998808,8017,VNB,B,13
13,test,3,0.0,1-Back,1,m,Tue Apr 08 2025 14:53:34 GMT-0500 (Central Daylight Time),258756.30000001192,016_y_m_n_a.png,I,m,682,15,2,1709.9000000357628,257046.39999997616,8017,VNB,B,14
14,test,3,1.0,1-Back,1,m,Tue Apr 08 2025 14:53:34 GMT-0500 (Central Daylight Time),260474.10000002384,004_o_m_h_a.png,I,m,691,16,2,1711.6000000238419,258762.5,8017,VNB,B,15
15,test,3,0.0,1-Back,1,m,Tue Apr 08 2025 14:53:34 GMT-0500 (Central Daylight Time),262156.5,016_y_m_d_a.png,I,m,665,17,2,1674.199999988079,260482.30000001192,8017,VNB,B,16
16,test,3,1.0,1-Back,1,m,Tue Apr 08 2025 14:53:34 GMT-0500 (Central Daylight Time),263805.3000000119,020_y_f_n_a.png,I,m,621,18,2,1640.6000000238419,262164.6999999881,8017,VNB,B,17
0,test,4,1.0,1-Back,,,Tue Apr 08 2025 14:53:34 GMT-0500 (Central Daylight Time),263805.3000000119,007_m_m_d_a.png,I,space,1155,1,2,1640.6000000238419,262164.6999999881,8017,VNB,B,0
1,test,4,0.0,1-Back,1,z,Tue Apr 08 2025 14:53:34 GMT-0500 (Central Daylight Time),268753.89999997616,004_o_m_d_a.png,I,z,742,2,2,1755.5,266998.39999997616,8017,VNB,B,1
2,test,4,0.0,1-Back,1,m,Tue Apr 08 2025 14:53:34 GMT-0500 (Central Daylight Time),270270.0,016_y_m_h_a.png,I,m,495,3,2,1509.300000011921,268760.6999999881,8017,VNB,B,2
3,test,4,0.0,1-Back,1,m,Tue Apr 08 2025 14:53:34 GMT-0500 (Central Daylight Time),271869.6999999881,011_m_f_n_a.png,I,m,581,4,2,1592.300000011921,270277.39999997616,8017,VNB,B,3
4,test,4,1.0,1-Back,1,m,Tue Apr 08 2025 14:53:34 GMT-0500 (Central Daylight Time),273534.39999997616,005_o_f_h_a.png,I,m,635,5,2,1655.8999999761581,271878.5,8017,VNB,B,4
5,test,4,0.0,1-Back,1,m,Tue Apr 08 2025 14:53:34 GMT-0500 (Central Daylight Time),275051.8000000119,007_m_m_n_a.png,I,m,496,6,2,1508.4000000357628,273543.39999997616,8017,VNB,B,5
6,test,4,0.0,1-Back,1,m,Tue Apr 08 2025 14:53:34 GMT-0500 (Central Daylight Time),276819.5,016_y_m_d_a.png,I,m,749,7,2,1763.300000011921,275056.1999999881,8017,VNB,B,6
7,test,4,1.0,1-Back,1,z,Tue Apr 08 2025 14:53:34 GMT-0500 (Central Daylight Time),278635.10000002384,020_y_f_d_a.png,I,z,783,8,2,1805.7000000476837,276829.39999997616,8017,VNB,B,7
8,test,4,0.0,1-Back,1,m,Tue Apr 08 2025 14:53:34 GMT-0500 (Central Daylight Time),280199.39999997616,011_m_f_h_a.png,I,m,543,9,2,1555.5,278643.89999997616,8017,VNB,B,8
9,test,4,0.0,1-Back,1,z,Tue Apr 08 2025 14:53:34 GMT-0500 (Central Daylight Time),281983.1999999881,004_o_m_h_a.png,I,z,752,10,2,1777.5999999642372,280205.60000002384,8017,VNB,B,9
10,test,4,1.0,1-Back,1,m,Tue Apr 08 2025 14:53:34 GMT-0500 (Central Daylight Time),283615.89999997616,005_o_f_n_a.png,I,m,601,11,2,1624.5999999642372,281991.3000000119,8017,VNB,B,10
10,test,4,0.0,1-Back,0,m,Tue Apr 08 2025 14:53:34 GMT-0500 (Central Daylight Time),286031.89999997616,011_m_f_d_a.png,I,z,1384,12,2,2406.699999988079,283625.1999999881,8017,VNB,B,11
10,test,4,0.0,1-Back,0,m,Tue Apr 08 2025 14:53:34 GMT-0500 (Central Daylight Time),288231.0,020_y_f_n_a.png,I,z,1169,13,2,2192.100000023842,286038.89999997616,8017,VNB,B,12
11,test,4,0.0,1-Back,1,m,Tue Apr 08 2025 14:53:34 GMT-0500 (Central Daylight Time),289995.89999997616,005_o_f_d_a.png,I,m,737,14,2,1759.5,288236.39999997616,8017,VNB,B,13
12,test,4,0.0,1-Back,1,m,Tue Apr 08 2025 14:53:34 GMT-0500 (Central Daylight Time),291796.3000000119,020_y_f_h_a.png,I,m,771,15,2,1793.199999988079,290003.10000002384,8017,VNB,B,14
13,test,4,1.0,1-Back,1,z,Tue Apr 08 2025 14:53:34 GMT-0500 (Central Daylight Time),293296.1999999881,007_m_m_h_a.png,I,z,468,16,2,1491.5999999642372,291804.60000002384,8017,VNB,B,15
14,test,4,0.0,1-Back,1,m,Tue Apr 08 2025 14:53:34 GMT-0500 (Central Daylight Time),294979.89999997616,004_o_m_n_a.png,I,m,668,17,2,1677.0,293302.89999997616,8017,VNB,B,16
15,test,4,1.0,1-Back,1,z,Tue Apr 08 2025 14:53:34 GMT-0500 (Central Daylight Time),296677.3000000119,016_y_m_n_a.png,I,z,677,18,2,1689.0,294988.3000000119,8017,VNB,B,17
0,test,5,1.0,1-Back,,,Tue Apr 08 2025 14:53:34 GMT-0500 (Central Daylight Time),296677.3000000119,004_o_m_n_a.png,I,space,939,1,2,1689.0,294988.3000000119,8017,VNB,B,0
0,test,5,1.0,1-Back,0,m,Tue Apr 08 2025 14:53:34 GMT-0500 (Central Daylight Time),301893.60000002384,005_o_f_h_a.png,I,z,1220,2,2,2242.800000011921,299650.8000000119,8017,VNB,B,1
1,test,5,0.0,1-Back,1,m,Tue Apr 08 2025 14:53:34 GMT-0500 (Central Daylight Time),303675.0,016_y_m_d_a.png,I,m,764,3,2,1772.8999999761581,301902.10000002384,8017,VNB,B,2
1,test,5,0.0,1-Back,0,z,Tue Apr 08 2025 14:53:34 GMT-0500 (Central Daylight Time),305874.39999997616,004_o_m_d_a.png,I,m,1172,4,2,2193.0,303681.39999997616,8017,VNB,B,3
2,test,5,0.0,1-Back,1,m,Tue Apr 08 2025 14:53:34 GMT-0500 (Central Daylight Time),307609.3000000119,011_m_f_h_a.png,I,m,700,5,2,1724.9000000357628,305884.39999997616,8017,VNB,B,4
3,test,5,0.0,1-Back,1,m,Tue Apr 08 2025 14:53:34 GMT-0500 (Central Daylight Time),309191.5,020_y_f_n_a.png,I,m,550,6,2,1574.5,307617.0,8017,VNB,B,5
4,test,5,1.0,1-Back,1,z,Tue Apr 08 2025 14:53:34 GMT-0500 (Central Daylight Time),310891.5,005_o_f_n_a.png,I,z,683,7,2,1692.699999988079,309198.8000000119,8017,VNB,B,6
5,test,5,0.0,1-Back,1,m,Tue Apr 08 2025 14:53:34 GMT-0500 (Central Daylight Time),312923.8000000119,011_m_f_d_a.png,I,m,1006,8,2,2022.5,310901.3000000119,8017,VNB,B,7
6,test,5,0.0,1-Back,1,m,Tue Apr 08 2025 14:53:34 GMT-0500 (Central Daylight Time),314572.0,016_y_m_h_a.png,I,m,630,9,2,1639.3999999761581,312932.60000002384,8017,VNB,B,8
7,test,5,0.0,1-Back,1,m,Tue Apr 08 2025 14:53:34 GMT-0500 (Central Daylight Time),316256.39999997616,020_y_f_d_a.png,I,m,651,10,2,1675.5,314580.89999997616,8017,VNB,B,9
8,test,5,0.0,1-Back,1,m,Tue Apr 08 2025 14:53:34 GMT-0500 (Central Daylight Time),317838.10000002384,007_m_m_n_a.png,I,m,559,11,2,1574.2000000476837,316263.89999997616,8017,VNB,B,10
9,test,5,1.0,1-Back,1,z,Tue Apr 08 2025 14:53:34 GMT-0500 (Central Daylight Time),319670.6999999881,011_m_f_n_a.png,I,z,810,12,2,1826.0,317844.6999999881,8017,VNB,B,11
10,test,5,0.0,1-Back,1,m,Tue Apr 08 2025 14:53:34 GMT-0500 (Central Daylight Time),321186.6999999881,004_o_m_h_a.png,I,m,489,13,2,1508.0999999642372,319678.60000002384,8017,VNB,B,12
11,test,5,0.0,1-Back,1,z,Tue Apr 08 2025 14:53:34 GMT-0500 (Central Daylight Time),322703.3000000119,007_m_m_h_a.png,I,z,493,14,2,1507.6000000238419,321195.6999999881,8017,VNB,B,13
12,test,5,1.0,1-Back,1,m,Tue Apr 08 2025 14:53:34 GMT-0500 (Central Daylight Time),324235.60000002384,005_o_f_d_a.png,I,m,503,15,2,1522.6000000238419,322713.0,8017,VNB,B,14
13,test,5,0.0,1-Back,1,m,Tue Apr 08 2025 14:53:34 GMT-0500 (Central Daylight Time),325869.10000002384,016_y_m_n_a.png,I,m,604,16,2,1627.1000000238419,324242.0,8017,VNB,B,15
14,test,5,0.0,1-Back,1,m,Tue Apr 08 2025 14:53:34 GMT-0500 (Central Daylight Time),327484.60000002384,020_y_f_h_a.png,I,m,594,17,2,1607.6000000238419,325877.0,8017,VNB,B,16
15,test,5,0.0,1-Back,1,m,Tue Apr 08 2025 14:53:34 GMT-0500 (Central Daylight Time),329068.39999997616,007_m_m_d_a.png,I,m,563,18,2,1572.3999999761581,327496.0,8017,VNB,B,17
0,prac,1,0.0,2-Back,,,Tue Apr 08 2025 14:53:34 GMT-0500 (Central Daylight Time),329068.39999997616,011_m_f_n_a.png,I,space,3582,1,2,1572.3999999761581,327496.0,8017,VNB,B,0
0,prac,1,0.0,2-Back,,,Tue Apr 08 2025 14:53:34 GMT-0500 (Central Daylight Time),329068.39999997616,005_o_f_h_a.png,I,space,3582,2,2,1572.3999999761581,327496.0,8017,VNB,B,0
0,prac,1,0.0,2-Back,0,m,Tue Apr 08 2025 14:53:34 GMT-0500 (Central Daylight Time),407077.8000000119,004_o_m_d_a.png,I,None,2003,3,2,2840.100000023842,404237.6999999881,8017,VNB,B,1
0,prac,1,1.0,2-Back,0,z,Tue Apr 08 2025 14:53:34 GMT-0500 (Central Daylight Time),409576.89999997616,007_m_m_h_a.png,I,m,1624,4,2,2488.599999964237,407088.3000000119,8017,VNB,B,2
1,prac,1,0.0,2-Back,1,m,Tue Apr 08 2025 14:53:34 GMT-0500 (Central Daylight Time),411758.39999997616,020_y_f_n_a.png,I,m,1307,5,2,2172.599999964237,409585.8000000119,8017,VNB,B,3
1,prac,1,1.0,2-Back,0,z,Tue Apr 08 2025 14:53:34 GMT-0500 (Central Daylight Time),413575.10000002384,004_o_m_h_a.png,I,m,950,6,2,1806.0,411769.10000002384,8017,VNB,B,4
2,prac,1,1.0,2-Back,1,z,Tue Apr 08 2025 14:53:34 GMT-0500 (Central Daylight Time),415656.10000002384,016_y_m_n_a.png,I,z,1188,7,2,2071.300000011921,413584.8000000119,8017,VNB,B,5
3,prac,1,0.0,2-Back,1,m,Tue Apr 08 2025 14:53:34 GMT-0500 (Central Daylight Time),417489.8000000119,011_m_f_d_a.png,I,m,959,8,2,1826.199999988079,415663.60000002384,8017,VNB,B,6
4,prac,1,0.0,2-Back,1,m,Tue Apr 08 2025 14:53:34 GMT-0500 (Central Daylight Time),419689.10000002384,005_o_f_d_a.png,I,m,1315,9,2,2186.900000035763,417502.1999999881,8017,VNB,B,7
5,prac,1,0.0,2-Back,1,m,Tue Apr 08 2025 14:53:34 GMT-0500 (Central Daylight Time),421572.10000002384,007_m_m_h_a.png,I,m,1091,10,2,1873.300000011921,419698.8000000119,8017,VNB,B,8
5,prac,1,1.0,2-Back,0,z,Tue Apr 08 2025 14:53:34 GMT-0500 (Central Daylight Time),423187.6999999881,020_y_f_d_a.png,I,m,742,11,2,1607.800000011921,421579.89999997616,8017,VNB,B,9
6,prac,1,0.0,2-Back,1,m,Tue Apr 08 2025 14:53:34 GMT-0500 (Central Daylight Time),425637.8000000119,004_o_m_n_a.png,I,m,1588,12,2,2441.300000011921,423196.5,8017,VNB,B,10
0,prac,2,0.0,2-Back,,,Tue Apr 08 2025 14:53:34 GMT-0500 (Central Daylight Time),425637.8000000119,011_m_f_n_a.png,I,a,6646,1,2,2441.300000011921,423196.5,8017,VNB,B,0
0,prac,2,0.0,2-Back,,,Tue Apr 08 2025 14:53:34 GMT-0500 (Central Daylight Time),425637.8000000119,005_o_f_h_a.png,I,a,6646,2,2,2441.300000011921,423196.5,8017,VNB,B,0
1,prac,2,0.0,2-Back,1,m,Tue Apr 08 2025 14:53:34 GMT-0500 (Central Daylight Time),440067.1999999881,004_o_m_d_a.png,I,m,1684,3,2,2527.899999976158,437539.3000000119,8017,VNB,B,1
1,prac,2,1.0,2-Back,0,z,Tue Apr 08 2025 14:53:34 GMT-0500 (Central Daylight Time),442833.8000000119,007_m_m_h_a.png,I,None,2005,4,2,2757.199999988079,440076.60000002384,8017,VNB,B,2
2,prac,2,0.0,2-Back,1,m,Tue Apr 08 2025 14:53:34 GMT-0500 (Central Daylight Time),445414.60000002384,020_y_f_n_a.png,I,m,1704,5,2,2572.7000000476837,442841.89999997616,8017,VNB,B,3
3,prac,2,1.0,2-Back,1,z,Tue Apr 08 2025 14:53:34 GMT-0500 (Central Daylight Time),447415.10000002384,004_o_m_h_a.png,I,z,1134,6,2,1992.2000000476837,445422.89999997616,8017,VNB,B,4
3,prac,2,1.0,2-Back,0,z,Tue Apr 08 2025 14:53:34 GMT-0500 (Central Daylight Time),449496.1999999881,016_y_m_n_a.png,I,m,1185,7,2,2069.300000011921,447426.89999997616,8017,VNB,B,5
4,prac,2,0.0,2-Back,1,m,Tue Apr 08 2025 14:53:34 GMT-0500 (Central Daylight Time),451897.0,011_m_f_d_a.png,I,m,1512,8,2,2394.300000011921,449502.6999999881,8017,VNB,B,6
5,prac,2,0.0,2-Back,1,m,Tue Apr 08 2025 14:53:34 GMT-0500 (Central Daylight Time),454629.10000002384,005_o_f_d_a.png,I,m,1845,9,2,2723.300000011921,451905.8000000119,8017,VNB,B,7
6,prac,2,0.0,2-Back,1,m,Tue Apr 08 2025 14:53:34 GMT-0500 (Central Daylight Time),456480.5,007_m_m_h_a.png,I,m,1075,10,2,1842.5,454638.0,8017,VNB,B,8
7,prac,2,1.0,2-Back,1,z,Tue Apr 08 2025 14:53:34 GMT-0500 (Central Daylight Time),458226.6999999881,020_y_f_d_a.png,I,z,883,11,2,1737.5,456489.1999999881,8017,VNB,B,9
8,prac,2,0.0,2-Back,1,m,Tue Apr 08 2025 14:53:34 GMT-0500 (Central Daylight Time),459875.60000002384,004_o_m_n_a.png,I,m,775,12,2,1639.800000011921,458235.8000000119,8017,VNB,B,10
0,test,1,0.0,2-Back,,,Tue Apr 08 2025 14:53:34 GMT-0500 (Central Daylight Time),459875.60000002384,016_y_m_h_a.png,I,space,3660,1,2,1639.800000011921,458235.8000000119,8017,VNB,B,0
0,test,1,0.0,2-Back,,,Tue Apr 08 2025 14:53:34 GMT-0500 (Central Daylight Time),459875.60000002384,005_o_f_n_a.png,I,space,3660,2,2,1639.800000011921,458235.8000000119,8017,VNB,B,0
1,test,1,0.0,2-Back,1,z,Tue Apr 08 2025 14:53:34 GMT-0500 (Central Daylight Time),476886.8000000119,004_o_m_h_a.png,I,z,1574,3,2,2588.5,474298.3000000119,8017,VNB,B,1
2,test,1,0.0,2-Back,1,m,Tue Apr 08 2025 14:53:34 GMT-0500 (Central Daylight Time),479436.89999997616,011_m_f_d_a.png,I,m,1521,4,2,2542.7999999523163,476894.10000002384,8017,VNB,B,2
3,test,1,1.0,2-Back,1,m,Tue Apr 08 2025 14:53:34 GMT-0500 (Central Daylight Time),481719.0,016_y_m_n_a.png,I,m,1259,5,2,2274.5,479444.5,8017,VNB,B,3
3,test,1,0.0,2-Back,0,z,Tue Apr 08 2025 14:53:34 GMT-0500 (Central Daylight Time),484751.8000000119,020_y_f_d_a.png,I,None,2014,6,2,3025.100000023842,481726.6999999881,8017,VNB,B,4
4,test,1,0.0,2-Back,1,m,Tue Apr 08 2025 14:53:34 GMT-0500 (Central Daylight Time),487051.3000000119,007_m_m_h_a.png,I,m,1273,7,2,2289.800000011921,484761.5,8017,VNB,B,5
5,test,1,1.0,2-Back,1,m,Tue Apr 08 2025 14:53:34 GMT-0500 (Central Daylight Time),488934.60000002384,020_y_f_n_a.png,I,m,862,8,2,1877.5,487057.10000002384,8017,VNB,B,6
6,test,1,0.0,2-Back,1,z,Tue Apr 08 2025 14:53:34 GMT-0500 (Central Daylight Time),490467.60000002384,005_o_f_h_a.png,I,z,506,9,2,1525.5,488942.10000002384,8017,VNB,B,7
7,test,1,0.0,2-Back,1,m,Tue Apr 08 2025 14:53:34 GMT-0500 (Central Daylight Time),492483.5,004_o_m_d_a.png,I,m,983,10,2,2009.6000000238419,490473.89999997616,8017,VNB,B,8
8,test,1,1.0,2-Back,1,m,Tue Apr 08 2025 14:53:34 GMT-0500 (Central Daylight Time),494248.10000002384,007_m_m_d_a.png,I,m,740,11,2,1760.0,492488.10000002384,8017,VNB,B,9
9,test,1,0.0,2-Back,1,m,Tue Apr 08 2025 14:53:34 GMT-0500 (Central Daylight Time),496465.39999997616,011_m_f_n_a.png,I,m,1182,12,2,2209.5,494255.89999997616,8017,VNB,B,10
10,test,1,0.0,2-Back,1,m,Tue Apr 08 2025 14:53:34 GMT-0500 (Central Daylight Time),498315.6999999881,020_y_f_h_a.png,I,m,833,13,2,1843.5,496472.1999999881,8017,VNB,B,11
11,test,1,0.0,2-Back,1,z,Tue Apr 08 2025 14:53:34 GMT-0500 (Central Daylight Time),500165.8000000119,007_m_m_n_a.png,I,z,833,14,2,1843.0,498322.8000000119,8017,VNB,B,12
12,test,1,0.0,2-Back,1,m,Tue Apr 08 2025 14:53:34 GMT-0500 (Central Daylight Time),501880.0,016_y_m_d_a.png,I,m,691,15,2,1707.800000011921,500172.1999999881,8017,VNB,B,13
13,test,1,1.0,2-Back,1,m,Tue Apr 08 2025 14:53:34 GMT-0500 (Central Daylight Time),503795.60000002384,011_m_f_h_a.png,I,m,887,16,2,1908.9000000357628,501886.6999999881,8017,VNB,B,14
13,test,1,0.0,2-Back,0,z,Tue Apr 08 2025 14:53:34 GMT-0500 (Central Daylight Time),505811.60000002384,005_o_f_d_a.png,I,m,987,17,2,2009.4000000357628,503802.1999999881,8017,VNB,B,15
14,test,1,0.0,2-Back,1,m,Tue Apr 08 2025 14:53:34 GMT-0500 (Central Daylight Time),507944.3000000119,004_o_m_n_a.png,I,m,1108,18,2,2125.300000011921,505819.0,8017,VNB,B,16
0,test,2,0.0,2-Back,,,Tue Apr 08 2025 14:53:34 GMT-0500 (Central Daylight Time),507944.3000000119,007_m_m_h_a.png,I,space,1353,1,2,2125.300000011921,505819.0,8017,VNB,B,0
0,test,2,0.0,2-Back,,,Tue Apr 08 2025 14:53:34 GMT-0500 (Central Daylight Time),507944.3000000119,020_y_f_n_a.png,I,space,1353,2,2,2125.300000011921,505819.0,8017,VNB,B,0
1,test,2,1.0,2-Back,1,z,Tue Apr 08 2025 14:53:34 GMT-0500 (Central Daylight Time),517492.6999999881,005_o_f_h_a.png,I,z,1933,3,2,2943.0,514549.6999999881,8017,VNB,B,1
2,test,2,0.0,2-Back,1,m,Tue Apr 08 2025 14:53:34 GMT-0500 (Central Daylight Time),519458.6999999881,004_o_m_d_a.png,I,m,942,4,2,1958.800000011921,517499.89999997616,8017,VNB,B,2
3,test,2,0.0,2-Back,1,m,Tue Apr 08 2025 14:53:34 GMT-0500 (Central Daylight Time),521340.39999997616,011_m_f_d_a.png,I,m,865,5,2,1873.7999999523163,519466.60000002384,8017,VNB,B,3
4,test,2,0.0,2-Back,1,m,Tue Apr 08 2025 14:53:34 GMT-0500 (Central Daylight Time),522989.5,016_y_m_h_a.png,I,m,629,6,2,1640.699999988079,521348.8000000119,8017,VNB,B,4
5,test,2,0.0,2-Back,1,m,Tue Apr 08 2025 14:53:34 GMT-0500 (Central Daylight Time),525388.3000000119,005_o_f_n_a.png,I,m,1372,7,2,2392.199999988079,522996.10000002384,8017,VNB,B,5
5,test,2,1.0,2-Back,0,z,Tue Apr 08 2025 14:53:34 GMT-0500 (Central Daylight Time),528222.3000000119,004_o_m_h_a.png,I,m,1798,8,2,2826.5,525395.8000000119,8017,VNB,B,6
6,test,2,0.0,2-Back,1,m,Tue Apr 08 2025 14:53:34 GMT-0500 (Central Daylight Time),530189.1000000238,020_y_f_d_a.png,I,m,951,9,2,1959.800000011921,528229.3000000119,8017,VNB,B,7
6,test,2,0.0,2-Back,0,m,Tue Apr 08 2025 14:53:34 GMT-0500 (Central Daylight Time),532121.5,016_y_m_d_a.png,I,z,909,10,2,1923.800000011921,530197.6999999881,8017,VNB,B,8
7,test,2,0.0,2-Back,1,m,Tue Apr 08 2025 14:53:34 GMT-0500 (Central Daylight Time),533953.1000000238,007_m_m_n_a.png,I,m,810,11,2,1825.2000000476837,532127.8999999762,8017,VNB,B,9
8,test,2,0.0,2-Back,1,m,Tue Apr 08 2025 14:53:34 GMT-0500 (Central Daylight Time),535786.1000000238,011_m_f_h_a.png,I,m,806,12,2,1826.4000000357628,533959.6999999881,8017,VNB,B,10
8,test,2,1.0,2-Back,0,z,Tue Apr 08 2025 14:53:34 GMT-0500 (Central Daylight Time),538019.1000000238,004_o_m_n_a.png,I,m,1216,13,2,2227.0,535792.1000000238,8017,VNB,B,11
9,test,2,0.0,2-Back,1,m,Tue Apr 08 2025 14:53:34 GMT-0500 (Central Daylight Time),539700.3000000119,005_o_f_d_a.png,I,m,662,14,2,1673.9000000357628,538026.3999999762,8017,VNB,B,12
10,test,2,0.0,2-Back,1,m,Tue Apr 08 2025 14:53:34 GMT-0500 (Central Daylight Time),541366.6000000238,020_y_f_h_a.png,I,m,645,15,2,1659.5,539707.1000000238,8017,VNB,B,13
11,test,2,0.0,2-Back,1,z,Tue Apr 08 2025 14:53:34 GMT-0500 (Central Daylight Time),543650.1000000238,007_m_m_d_a.png,I,z,1259,16,2,2275.300000011921,541374.8000000119,8017,VNB,B,14
12,test,2,0.0,2-Back,1,m,Tue Apr 08 2025 14:53:34 GMT-0500 (Central Daylight Time),545582.3000000119,016_y_m_n_a.png,I,m,909,17,2,1924.800000011921,543657.5,8017,VNB,B,15
13,test,2,1.0,2-Back,1,m,Tue Apr 08 2025 14:53:34 GMT-0500 (Central Daylight Time),548197.8999999762,011_m_f_n_a.png,I,m,1595,18,2,2608.0,545589.8999999762,8017,VNB,B,16
0,test,3,1.0,2-Back,,,Tue Apr 08 2025 14:53:34 GMT-0500 (Central Daylight Time),548197.8999999762,004_o_m_n_a.png,I,space,1474,1,2,2608.0,545589.8999999762,8017,VNB,B,0
0,test,3,1.0,2-Back,,,Tue Apr 08 2025 14:53:34 GMT-0500 (Central Daylight Time),548197.8999999762,005_o_f_d_a.png,I,space,1474,2,2,2608.0,545589.8999999762,8017,VNB,B,0
1,test,3,0.0,2-Back,1,m,Tue Apr 08 2025 14:53:34 GMT-0500 (Central Daylight Time),556980.3000000119,020_y_f_h_a.png,I,m,1223,3,2,2249.5,554730.8000000119,8017,VNB,B,1
2,test,3,0.0,2-Back,1,z,Tue Apr 08 2025 14:53:34 GMT-0500 (Central Daylight Time),559195.8000000119,011_m_f_d_a.png,I,z,1199,4,2,2206.5,556989.3000000119,8017,VNB,B,2
3,test,3,1.0,2-Back,1,m,Tue Apr 08 2025 14:53:34 GMT-0500 (Central Daylight Time),561143.8000000119,016_y_m_n_a.png,I,m,925,5,2,1939.699999988079,559204.1000000238,8017,VNB,B,3
3,test,3,0.0,2-Back,0,m,Tue Apr 08 2025 14:53:34 GMT-0500 (Central Daylight Time),563010.6999999881,004_o_m_h_a.png,I,z,849,6,2,1859.5999999642372,561151.1000000238,8017,VNB,B,4
4,test,3,0.0,2-Back,1,z,Tue Apr 08 2025 14:53:34 GMT-0500 (Central Daylight Time),565427.1999999881,020_y_f_n_a.png,I,z,1390,7,2,2407.199999988079,563020.0,8017,VNB,B,5
5,test,3,1.0,2-Back,1,m,Tue Apr 08 2025 14:53:34 GMT-0500 (Central Daylight Time),567176.6999999881,007_m_m_d_a.png,I,m,726,8,2,1739.0,565437.6999999881,8017,VNB,B,6
6,test,3,0.0,2-Back,1,m,Tue Apr 08 2025 14:53:34 GMT-0500 (Central Daylight Time),568926.3000000119,016_y_m_d_a.png,I,m,720,9,2,1742.0,567184.3000000119,8017,VNB,B,7
7,test,3,0.0,2-Back,1,m,Tue Apr 08 2025 14:53:34 GMT-0500 (Central Daylight Time),570908.6000000238,005_o_f_h_a.png,I,m,953,10,2,1972.9000000357628,568935.6999999881,8017,VNB,B,8
7,test,3,1.0,2-Back,0,m,Tue Apr 08 2025 14:53:34 GMT-0500 (Central Daylight Time),573825.1999999881,011_m_f_n_a.png,I,z,1885,11,2,2909.0,570916.1999999881,8017,VNB,B,9
8,test,3,1.0,2-Back,1,z,Tue Apr 08 2025 14:53:34 GMT-0500 (Central Daylight Time),575356.3000000119,007_m_m_h_a.png,I,z,503,12,2,1522.1000000238419,573834.1999999881,8017,VNB,B,10
9,test,3,0.0,2-Back,1,m,Tue Apr 08 2025 14:53:34 GMT-0500 (Central Daylight Time),577140.0,020_y_f_d_a.png,I,m,766,13,2,1776.699999988079,575363.3000000119,8017,VNB,B,11
10,test,3,0.0,2-Back,1,m,Tue Apr 08 2025 14:53:34 GMT-0500 (Central Daylight Time),578838.6000000238,005_o_f_n_a.png,I,m,677,14,2,1689.300000011921,577149.3000000119,8017,VNB,B,12
11,test,3,0.0,2-Back,1,z,Tue Apr 08 2025 14:53:34 GMT-0500 (Central Daylight Time),581087.3000000119,004_o_m_d_a.png,I,z,1225,15,2,2239.300000011921,578848.0,8017,VNB,B,13
12,test,3,1.0,2-Back,1,m,Tue Apr 08 2025 14:53:34 GMT-0500 (Central Daylight Time),582803.3000000119,011_m_f_h_a.png,I,m,689,16,2,1710.6000000238419,581092.6999999881,8017,VNB,B,14
12,test,3,0.0,2-Back,0,m,Tue Apr 08 2025 14:53:34 GMT-0500 (Central Daylight Time),585169.1000000238,007_m_m_n_a.png,I,z,1333,17,2,2359.300000011921,582809.8000000119,8017,VNB,B,15
13,test,3,0.0,2-Back,1,z,Tue Apr 08 2025 14:53:34 GMT-0500 (Central Daylight Time),586869.1000000238,016_y_m_h_a.png,I,z,677,18,2,1690.7000000476837,585178.3999999762,8017,VNB,B,16
0,test,4,0.0,2-Back,,,Tue Apr 08 2025 14:53:34 GMT-0500 (Central Daylight Time),586869.1000000238,011_m_f_n_a.png,I,space,1307,1,2,1690.7000000476837,585178.3999999762,8017,VNB,B,0
0,test,4,0.0,2-Back,,,Tue Apr 08 2025 14:53:34 GMT-0500 (Central Daylight Time),586869.1000000238,004_o_m_n_a.png,I,space,1307,2,2,1690.7000000476837,585178.3999999762,8017,VNB,B,0
1,test,4,1.0,2-Back,1,m,Tue Apr 08 2025 14:53:34 GMT-0500 (Central Daylight Time),595550.6000000238,016_y_m_h_a.png,I,m,1098,3,2,2123.400000035763,593427.1999999881,8017,VNB,B,1
2,test,4,1.0,2-Back,1,m,Tue Apr 08 2025 14:53:34 GMT-0500 (Central Daylight Time),597835.3999999762,005_o_f_d_a.png,I,m,1253,4,2,2275.7999999523163,595559.6000000238,8017,VNB,B,2
3,test,4,0.0,2-Back,1,z,Tue Apr 08 2025 14:53:34 GMT-0500 (Central Daylight Time),599850.6999999881,004_o_m_h_a.png,I,z,1000,5,2,2009.0,597841.6999999881,8017,VNB,B,3
4,test,4,0.0,2-Back,1,m,Tue Apr 08 2025 14:53:34 GMT-0500 (Central Daylight Time),601581.3999999762,007_m_m_n_a.png,I,m,706,6,2,1724.0999999642372,599857.3000000119,8017,VNB,B,4
5,test,4,0.0,2-Back,1,m,Tue Apr 08 2025 14:53:34 GMT-0500 (Central Daylight Time),603565.0,011_m_f_d_a.png,I,m,966,7,2,1976.199999988079,601588.8000000119,8017,VNB,B,5
6,test,4,0.0,2-Back,1,z,Tue Apr 08 2025 14:53:34 GMT-0500 (Central Daylight Time),605796.1999999881,020_y_f_n_a.png,I,z,1204,8,2,2223.199999988079,603573.0,8017,VNB,B,6
7,test,4,1.0,2-Back,1,m,Tue Apr 08 2025 14:53:34 GMT-0500 (Central Daylight Time),607731.3000000119,005_o_f_h_a.png,I,m,917,9,2,1926.9000000357628,605804.3999999762,8017,VNB,B,7
8,test,4,0.0,2-Back,1,m,Tue Apr 08 2025 14:53:34 GMT-0500 (Central Daylight Time),609479.0,007_m_m_h_a.png,I,m,728,10,2,1742.0,607737.0,8017,VNB,B,8
9,test,4,0.0,2-Back,1,m,Tue Apr 08 2025 14:53:34 GMT-0500 (Central Daylight Time),611363.0,020_y_f_d_a.png,I,m,866,11,2,1876.300000011921,609486.6999999881,8017,VNB,B,9
9,test,4,0.0,2-Back,0,m,Tue Apr 08 2025 14:53:34 GMT-0500 (Central Daylight Time),614010.6999999881,016_y_m_n_a.png,I,z,1622,12,2,2639.199999988079,611371.5,8017,VNB,B,10
10,test,4,0.0,2-Back,1,z,Tue Apr 08 2025 14:53:34 GMT-0500 (Central Daylight Time),616976.8000000119,004_o_m_d_a.png,I,z,1935,13,2,2957.800000011921,614019.0,8017,VNB,B,11
11,test,4,1.0,2-Back,1,m,Tue Apr 08 2025 14:53:34 GMT-0500 (Central Daylight Time),618976.0,011_m_f_h_a.png,I,m,967,14,2,1992.5,616983.5,8017,VNB,B,12
12,test,4,1.0,2-Back,1,m,Tue Apr 08 2025 14:53:34 GMT-0500 (Central Daylight Time),620924.5,020_y_f_h_a.png,I,m,928,15,2,1941.8999999761581,618982.6000000238,8017,VNB,B,13
13,test,4,0.0,2-Back,1,m,Tue Apr 08 2025 14:53:34 GMT-0500 (Central Daylight Time),623173.8000000119,005_o_f_n_a.png,I,m,1217,16,2,2241.300000011921,620932.5,8017,VNB,B,14
14,test,4,0.0,2-Back,1,m,Tue Apr 08 2025 14:53:34 GMT-0500 (Central Daylight Time),624923.5,016_y_m_d_a.png,I,m,722,17,2,1744.199999988079,623179.3000000119,8017,VNB,B,15
14,test,4,1.0,2-Back,0,m,Tue Apr 08 2025 14:53:34 GMT-0500 (Central Daylight Time),626623.0,007_m_m_d_a.png,I,z,678,18,2,1692.1000000238419,624930.8999999762,8017,VNB,B,16
0,test,5,1.0,2-Back,,,Tue Apr 08 2025 14:53:34 GMT-0500 (Central Daylight Time),626623.0,020_y_f_d_a.png,I,space,1516,1,2,1692.1000000238419,624930.8999999762,8017,VNB,B,0
0,test,5,1.0,2-Back,,,Tue Apr 08 2025 14:53:34 GMT-0500 (Central Daylight Time),626623.0,005_o_f_h_a.png,I,space,1516,2,2,1692.1000000238419,624930.8999999762,8017,VNB,B,0
1,test,5,1.0,2-Back,1,z,Tue Apr 08 2025 14:53:34 GMT-0500 (Central Daylight Time),635487.8000000119,004_o_m_d_a.png,I,z,1092,3,2,2107.5,633380.3000000119,8017,VNB,B,1
2,test,5,1.0,2-Back,1,m,Tue Apr 08 2025 14:53:34 GMT-0500 (Central Daylight Time),637304.1000000238,011_m_f_n_a.png,I,m,783,4,2,1809.1000000238419,635495.0,8017,VNB,B,2
3,test,5,0.0,2-Back,1,m,Tue Apr 08 2025 14:53:34 GMT-0500 (Central Daylight Time),639535.3999999762,007_m_m_h_a.png,I,m,1209,5,2,2222.5,637312.8999999762,8017,VNB,B,3
4,test,5,0.0,2-Back,1,z,Tue Apr 08 2025 14:53:34 GMT-0500 (Central Daylight Time),641419.1999999881,020_y_f_n_a.png,I,z,855,6,2,1876.699999988079,639542.5,8017,VNB,B,4
4,test,5,0.0,2-Back,0,m,Tue Apr 08 2025 14:53:34 GMT-0500 (Central Daylight Time),643468.3000000119,005_o_f_d_a.png,I,z,1020,7,2,2041.6000000238419,641426.6999999881,8017,VNB,B,5
5,test,5,0.0,2-Back,1,m,Tue Apr 08 2025 14:53:34 GMT-0500 (Central Daylight Time),645084.8000000119,004_o_m_h_a.png,I,m,590,8,2,1608.1000000238419,643476.6999999881,8017,VNB,B,6
5,test,5,1.0,2-Back,0,z,Tue Apr 08 2025 14:53:34 GMT-0500 (Central Daylight Time),647434.5,011_m_f_d_a.png,I,m,1333,9,2,2342.100000023842,645092.3999999762,8017,VNB,B,7
6,test,5,0.0,2-Back,1,m,Tue Apr 08 2025 14:53:34 GMT-0500 (Central Daylight Time),649799.3000000119,016_y_m_n_a.png,I,m,1343,10,2,2357.600000023842,647441.6999999881,8017,VNB,B,8
7,test,5,0.0,2-Back,1,m,Tue Apr 08 2025 14:53:34 GMT-0500 (Central Daylight Time),651598.3000000119,007_m_m_n_a.png,I,m,777,11,2,1791.800000011921,649806.5,8017,VNB,B,9
7,test,5,0.0,2-Back,0,m,Tue Apr 08 2025 14:53:34 GMT-0500 (Central Daylight Time),653848.1999999881,020_y_f_h_a.png,I,z,1224,12,2,2242.699999988079,651605.5,8017,VNB,B,10
8,test,5,0.0,2-Back,1,m,Tue Apr 08 2025 14:53:34 GMT-0500 (Central Daylight Time),655780.8999999762,016_y_m_d_a.png,I,m,905,13,2,1926.8999999761581,653854.0,8017,VNB,B,11
9,test,5,1.0,2-Back,1,z,Tue Apr 08 2025 14:53:34 GMT-0500 (Central Daylight Time),657531.3000000119,011_m_f_h_a.png,I,z,732,14,2,1744.199999988079,655787.1000000238,8017,VNB,B,12
10,test,5,0.0,2-Back,1,m,Tue Apr 08 2025 14:53:34 GMT-0500 (Central Daylight Time),659548.0,004_o_m_n_a.png,I,m,1000,15,2,2008.5,657539.5,8017,VNB,B,13
11,test,5,0.0,2-Back,1,m,Tue Apr 08 2025 14:53:34 GMT-0500 (Central Daylight Time),661211.8999999762,007_m_m_d_a.png,I,m,646,16,2,1658.5999999642372,659553.3000000119,8017,VNB,B,14
12,test,5,0.0,2-Back,1,z,Tue Apr 08 2025 14:53:34 GMT-0500 (Central Daylight Time),663096.6999999881,005_o_f_n_a.png,I,z,859,17,2,1876.199999988079,661220.5,8017,VNB,B,15
13,test,5,1.0,2-Back,1,m,Tue Apr 08 2025 14:53:34 GMT-0500 (Central Daylight Time),664878.8999999762,016_y_m_h_a.png,I,m,754,18,2,1775.5,663103.3999999762,8017,VNB,B,16
