Number,acc_sum,block,block_c,block_cond,con_img,correct,correct_response,datetime,endtime,jitter,project,response,response_time,row_sel,session_number,start_end,starttime,subject_id,task,task_vers,trial
6,0,prac,1,A,circle.png,0,m,Wed Mar 26 2025 15:00:40 GMT-0500 (Central Daylight Time),58441.5,1900,O,None,1515,5,1,4189.899999976158,54251.60000002384,7091,NTS,B,1
4,1,prac,1,A,circle.png,1,z,Wed Mar 26 2025 15:00:40 GMT-0500 (Central Daylight Time),61607.69999998808,1400,O,z,968,4,1,3157.5,58450.19999998808,7091,NTS,B,2
8,2,prac,1,A,circle.png,1,m,Wed Mar 26 2025 15:00:40 GMT-0500 (Central Daylight Time),64874.10000002384,1600,O,m,846,7,1,3249.100000023842,61625.0,7091,NTS,B,3
6,3,prac,1,A,circle.png,1,m,Wed Mar 26 2025 15:00:40 GMT-0500 (Central Daylight Time),68655.80000001192,1900,O,m,1058,5,1,3751.899999976158,64903.90000003576,7091,NTS,B,4
9,4,prac,1,A,circle.png,1,m,Wed Mar 26 2025 15:00:40 GMT-0500 (Central Daylight Time),71604.80000001192,1500,O,m,619,8,1,2918.300000011921,68686.5,7091,NTS,B,5
1,5,prac,1,A,circle.png,1,z,Wed Mar 26 2025 15:00:40 GMT-0500 (Central Daylight Time),73904.10000002384,1000,O,z,491,1,1,2271.699999988079,71632.40000003576,7091,NTS,B,6
4,6,prac,1,A,circle.png,1,z,Wed Mar 26 2025 15:00:40 GMT-0500 (Central Daylight Time),76719.80000001192,1400,O,z,601,4,1,2785.699999988079,73934.10000002384,7091,NTS,B,7
7,7,prac,1,A,circle.png,1,m,Wed Mar 26 2025 15:00:40 GMT-0500 (Central Daylight Time),79885.60000002384,1700,O,m,653,6,1,3136.199999988079,76749.40000003576,7091,NTS,B,8
7,8,prac,1,A,circle.png,1,m,Wed Mar 26 2025 15:00:40 GMT-0500 (Central Daylight Time),83034.30000001192,1700,O,m,647,6,1,3122.399999976158,79911.90000003576,7091,NTS,B,9
8,9,prac,1,A,circle.png,1,m,Wed Mar 26 2025 15:00:40 GMT-0500 (Central Daylight Time),86066.69999998808,1600,O,m,630,7,1,3006.899999976158,83059.80000001192,7091,NTS,B,10
3,10,prac,1,A,circle.png,1,z,Wed Mar 26 2025 15:00:40 GMT-0500 (Central Daylight Time),89132.5,1200,O,z,1054,3,1,3040.199999988079,86092.30000001192,7091,NTS,B,11
2,11,prac,1,A,circle.png,1,z,Wed Mar 26 2025 15:00:40 GMT-0500 (Central Daylight Time),92614.69999998808,2000,O,z,669,2,1,3461.599999964237,89153.10000002384,7091,NTS,B,12
1,1,prac,1,B,triangle.png,1,z,Wed Mar 26 2025 15:00:40 GMT-0500 (Central Daylight Time),169822.69999998808,1900,O,z,995,1,1,3672.399999976158,166150.30000001192,7091,NTS,B,1
4,2,prac,1,B,triangle.png,1,m,Wed Mar 26 2025 15:00:40 GMT-0500 (Central Daylight Time),172604.80000001192,1500,O,m,479,4,1,2753.800000011921,169851.0,7091,NTS,B,2
7,3,prac,1,B,triangle.png,1,z,Wed Mar 26 2025 15:00:40 GMT-0500 (Central Daylight Time),175904.80000001192,2000,O,z,476,6,1,3270.600000023842,172634.19999998808,7091,NTS,B,3
6,4,prac,1,B,triangle.png,1,m,Wed Mar 26 2025 15:00:40 GMT-0500 (Central Daylight Time),178352.80000001192,1000,O,m,642,5,1,2419.699999988079,175933.10000002384,7091,NTS,B,4
3,5,prac,1,B,triangle.png,1,z,Wed Mar 26 2025 15:00:40 GMT-0500 (Central Daylight Time),181402.0,1600,O,z,641,3,1,3024.699999988079,178377.30000001192,7091,NTS,B,5
6,6,prac,1,B,triangle.png,1,m,Wed Mar 26 2025 15:00:40 GMT-0500 (Central Daylight Time),183951.30000001192,1000,O,m,743,5,1,2521.899999976158,181429.40000003576,7091,NTS,B,6
1,7,prac,1,B,triangle.png,1,z,Wed Mar 26 2025 15:00:40 GMT-0500 (Central Daylight Time),187300.0,1900,O,z,646,1,1,3321.199999988079,183978.80000001192,7091,NTS,B,7
8,8,prac,1,B,triangle.png,1,m,Wed Mar 26 2025 15:00:40 GMT-0500 (Central Daylight Time),189949.0,1200,O,m,645,7,1,2621.699999988079,187327.30000001192,7091,NTS,B,8
4,9,prac,1,B,triangle.png,1,m,Wed Mar 26 2025 15:00:40 GMT-0500 (Central Daylight Time),193164.80000001192,1500,O,m,904,4,1,3187.100000023842,189977.69999998808,7091,NTS,B,9
9,10,prac,1,B,triangle.png,1,z,Wed Mar 26 2025 15:00:40 GMT-0500 (Central Daylight Time),196130.60000002384,1400,O,z,749,8,1,2941.300000011921,193189.30000001192,7091,NTS,B,10
2,10,prac,1,B,triangle.png,0,m,Wed Mar 26 2025 15:00:40 GMT-0500 (Central Daylight Time),200145.69999998808,1700,O,None,1516,2,1,3987.7999999523163,196157.90000003576,7091,NTS,B,11
9,11,prac,1,B,triangle.png,1,z,Wed Mar 26 2025 15:00:40 GMT-0500 (Central Daylight Time),203794.69999998808,1400,O,z,1440,8,1,3622.399999976158,200172.30000001192,7091,NTS,B,12
1,1,test,1,A,circle.png,1,z,Wed Mar 26 2025 15:00:40 GMT-0500 (Central Daylight Time),232585.40000003576,1000,O,z,834,1,1,1857.5,230727.90000003576,7091,NTS,B,1
6,2,test,1,A,circle.png,1,m,Wed Mar 26 2025 15:00:40 GMT-0500 (Central Daylight Time),235267.60000002384,1900,O,m,740,5,1,2661.0,232606.60000002384,7091,NTS,B,2
2,3,test,1,A,circle.png,1,z,Wed Mar 26 2025 15:00:40 GMT-0500 (Central Daylight Time),238083.19999998808,2000,O,z,763,2,1,2796.5,235286.69999998808,7091,NTS,B,3
9,4,test,1,A,circle.png,1,m,Wed Mar 26 2025 15:00:40 GMT-0500 (Central Daylight Time),240365.40000003576,1500,O,m,744,8,1,2263.5,238101.90000003576,7091,NTS,B,4
4,5,test,1,A,circle.png,1,z,Wed Mar 26 2025 15:00:40 GMT-0500 (Central Daylight Time),242581.60000002384,1400,O,z,794,4,1,2205.199999988079,240376.40000003576,7091,NTS,B,5
1,6,test,1,A,circle.png,1,z,Wed Mar 26 2025 15:00:40 GMT-0500 (Central Daylight Time),244148.90000003576,1000,O,z,533,1,1,1550.300000011921,242598.60000002384,7091,NTS,B,6
7,7,test,1,A,circle.png,1,m,Wed Mar 26 2025 15:00:40 GMT-0500 (Central Daylight Time),246463.60000002384,1700,O,m,576,6,1,2294.100000023842,244169.5,7091,NTS,B,7
2,8,test,1,A,circle.png,1,z,Wed Mar 26 2025 15:00:40 GMT-0500 (Central Daylight Time),249113.10000002384,2000,O,z,618,2,1,2639.600000023842,246473.5,7091,NTS,B,8
6,9,test,1,A,circle.png,1,m,Wed Mar 26 2025 15:00:40 GMT-0500 (Central Daylight Time),251661.90000003576,1900,O,m,612,5,1,2530.2000000476837,249131.69999998808,7091,NTS,B,9
4,10,test,1,A,circle.png,1,z,Wed Mar 26 2025 15:00:40 GMT-0500 (Central Daylight Time),253893.80000001192,1400,O,z,795,4,1,2211.699999988079,251682.10000002384,7091,NTS,B,10
6,11,test,1,A,circle.png,1,m,Wed Mar 26 2025 15:00:40 GMT-0500 (Central Daylight Time),256394.10000002384,1900,O,m,567,5,1,2494.600000023842,253899.5,7091,NTS,B,11
9,12,test,1,A,circle.png,1,m,Wed Mar 26 2025 15:00:40 GMT-0500 (Central Daylight Time),258693.40000003576,1500,O,m,763,8,1,2277.300000011921,256416.10000002384,7091,NTS,B,12
1,13,test,1,A,circle.png,1,z,Wed Mar 26 2025 15:00:40 GMT-0500 (Central Daylight Time),260309.5,1000,O,z,580,1,1,1596.0999999642372,258713.40000003576,7091,NTS,B,13
9,14,test,1,A,circle.png,1,m,Wed Mar 26 2025 15:00:40 GMT-0500 (Central Daylight Time),262391.90000003576,1500,O,m,544,8,1,2064.400000035763,260327.5,7091,NTS,B,14
8,15,test,1,A,circle.png,1,m,Wed Mar 26 2025 15:00:40 GMT-0500 (Central Daylight Time),264841.1999999881,1600,O,m,802,7,1,2430.199999988079,262411.0,7091,NTS,B,15
3,16,test,1,A,circle.png,1,z,Wed Mar 26 2025 15:00:40 GMT-0500 (Central Daylight Time),266724.0,1200,O,z,631,3,1,1862.0,264862.0,7091,NTS,B,16
2,17,test,1,A,circle.png,1,z,Wed Mar 26 2025 15:00:40 GMT-0500 (Central Daylight Time),269339.90000003576,2000,O,z,567,2,1,2595.800000011921,266744.10000002384,7091,NTS,B,17
9,18,test,1,A,circle.png,1,m,Wed Mar 26 2025 15:00:40 GMT-0500 (Central Daylight Time),271438.8000000119,1500,O,m,561,8,1,2079.600000023842,269359.1999999881,7091,NTS,B,18
8,19,test,1,A,circle.png,1,m,Wed Mar 26 2025 15:00:40 GMT-0500 (Central Daylight Time),273705.0,1600,O,m,625,7,1,2247.199999988079,271457.8000000119,7091,NTS,B,19
7,20,test,1,A,circle.png,1,m,Wed Mar 26 2025 15:00:40 GMT-0500 (Central Daylight Time),276170.10000002384,1700,O,m,717,6,1,2446.600000023842,273723.5,7091,NTS,B,20
4,21,test,1,A,circle.png,1,z,Wed Mar 26 2025 15:00:40 GMT-0500 (Central Daylight Time),278469.8000000119,1400,O,z,877,4,1,2294.600000023842,276175.1999999881,7091,NTS,B,21
8,22,test,1,A,circle.png,1,m,Wed Mar 26 2025 15:00:40 GMT-0500 (Central Daylight Time),280801.8000000119,1600,O,m,682,7,1,2312.5,278489.3000000119,7091,NTS,B,22
3,23,test,1,A,circle.png,1,z,Wed Mar 26 2025 15:00:40 GMT-0500 (Central Daylight Time),282685.10000002384,1200,O,z,663,3,1,1877.800000011921,280807.3000000119,7091,NTS,B,23
3,24,test,1,A,circle.png,1,z,Wed Mar 26 2025 15:00:40 GMT-0500 (Central Daylight Time),284551.3000000119,1200,O,z,619,3,1,1847.300000011921,282704.0,7091,NTS,B,24
3,1,test,1,B,triangle.png,1,z,Wed Mar 26 2025 15:00:40 GMT-0500 (Central Daylight Time),300413.1999999881,2000,O,z,1430,11,1,3448.099999964237,296965.10000002384,7091,NTS,B,1
3,2,test,1,B,triangle.png,1,z,Wed Mar 26 2025 15:00:40 GMT-0500 (Central Daylight Time),303195.1999999881,2000,O,z,733,11,1,2762.0,300433.1999999881,7091,NTS,B,2
1,3,test,1,B,triangle.png,1,z,Wed Mar 26 2025 15:00:40 GMT-0500 (Central Daylight Time),305794.5,1900,O,z,658,1,1,2579.399999976158,303215.10000002384,7091,NTS,B,3
2,4,test,1,B,triangle.png,1,m,Wed Mar 26 2025 15:00:40 GMT-0500 (Central Daylight Time),308176.90000003576,1700,O,m,644,2,1,2362.300000011921,305814.60000002384,7091,NTS,B,4
8,5,test,1,B,triangle.png,1,m,Wed Mar 26 2025 15:00:40 GMT-0500 (Central Daylight Time),310059.60000002384,1200,O,m,641,7,1,1864.300000011921,308195.3000000119,7091,NTS,B,5
8,6,test,1,B,triangle.png,1,m,Wed Mar 26 2025 15:00:40 GMT-0500 (Central Daylight Time),312293.0,1700,O,m,498,15,1,2212.800000011921,310080.1999999881,7091,NTS,B,6
1,7,test,1,B,triangle.png,1,z,Wed Mar 26 2025 15:00:40 GMT-0500 (Central Daylight Time),314891.8000000119,1900,O,z,649,1,1,2578.800000011921,312313.0,7091,NTS,B,7
2,8,test,1,B,triangle.png,1,m,Wed Mar 26 2025 15:00:40 GMT-0500 (Central Daylight Time),316840.8000000119,1200,O,m,710,10,1,1927.800000011921,314913.0,7091,NTS,B,8
1,9,test,1,B,triangle.png,1,z,Wed Mar 26 2025 15:00:40 GMT-0500 (Central Daylight Time),319323.1999999881,1400,O,z,1041,9,1,2463.5,316859.6999999881,7091,NTS,B,9
3,10,test,1,B,triangle.png,1,z,Wed Mar 26 2025 15:00:40 GMT-0500 (Central Daylight Time),321705.90000003576,1600,O,z,742,3,1,2361.7000000476837,319344.1999999881,7091,NTS,B,10
7,11,test,1,B,triangle.png,1,z,Wed Mar 26 2025 15:00:40 GMT-0500 (Central Daylight Time),324338.3000000119,1600,O,z,984,14,1,2612.600000023842,321725.6999999881,7091,NTS,B,11
6,12,test,1,B,triangle.png,1,m,Wed Mar 26 2025 15:00:40 GMT-0500 (Central Daylight Time),326570.8000000119,1500,O,m,691,13,1,2213.100000023842,324357.6999999881,7091,NTS,B,12
7,13,test,1,B,triangle.png,1,z,Wed Mar 26 2025 15:00:40 GMT-0500 (Central Daylight Time),329419.8000000119,2000,O,z,807,6,1,2829.899999976158,326589.90000003576,7091,NTS,B,13
9,14,test,1,B,triangle.png,1,z,Wed Mar 26 2025 15:00:40 GMT-0500 (Central Daylight Time),332102.60000002384,1400,O,z,1238,8,1,2666.5,329436.10000002384,7091,NTS,B,14
4,15,test,1,B,triangle.png,1,m,Wed Mar 26 2025 15:00:40 GMT-0500 (Central Daylight Time),334318.1999999881,1500,O,m,671,4,1,2198.599999964237,332119.60000002384,7091,NTS,B,15
8,16,test,1,B,triangle.png,1,m,Wed Mar 26 2025 15:00:40 GMT-0500 (Central Daylight Time),336800.90000003576,1700,O,m,736,15,1,2464.2000000476837,334336.6999999881,7091,NTS,B,16
9,17,test,1,B,triangle.png,1,z,Wed Mar 26 2025 15:00:40 GMT-0500 (Central Daylight Time),339717.10000002384,1900,O,z,982,16,1,2895.800000011921,336821.3000000119,7091,NTS,B,17
4,18,test,1,B,triangle.png,1,m,Wed Mar 26 2025 15:00:40 GMT-0500 (Central Daylight Time),341933.1999999881,1000,O,m,1182,12,1,2197.699999988079,339735.5,7091,NTS,B,18
7,19,test,1,B,triangle.png,1,z,Wed Mar 26 2025 15:00:40 GMT-0500 (Central Daylight Time),344748.3000000119,1600,O,z,1173,14,1,2796.399999976158,341951.90000003576,7091,NTS,B,19
4,20,test,1,B,triangle.png,1,m,Wed Mar 26 2025 15:00:40 GMT-0500 (Central Daylight Time),346697.60000002384,1000,O,m,901,12,1,1928.699999988079,344768.90000003576,7091,NTS,B,20
6,21,test,1,B,triangle.png,1,m,Wed Mar 26 2025 15:00:40 GMT-0500 (Central Daylight Time),348630.3000000119,1000,O,m,888,5,1,1912.8999999761581,346717.40000003576,7091,NTS,B,21
9,22,test,1,B,triangle.png,1,z,Wed Mar 26 2025 15:00:40 GMT-0500 (Central Daylight Time),350712.8000000119,1400,O,z,644,8,1,2064.0,348648.8000000119,7091,NTS,B,22
2,23,test,1,B,triangle.png,1,m,Wed Mar 26 2025 15:00:40 GMT-0500 (Central Daylight Time),353012.90000003576,1200,O,m,1065,10,1,2281.5,350731.40000003576,7091,NTS,B,23
1,24,test,1,B,triangle.png,1,z,Wed Mar 26 2025 15:00:40 GMT-0500 (Central Daylight Time),355077.90000003576,1400,O,z,631,9,1,2048.300000011921,353029.60000002384,7091,NTS,B,24
6,0,prac,1,C,circle.png,0,m,Wed Mar 26 2025 15:00:40 GMT-0500 (Central Daylight Time),395115.10000002384,2000,O,None,1514,5,1,4288.0,390827.10000002384,7091,NTS,B,1
4,1,prac,1,C,circle.png,1,z,Wed Mar 26 2025 15:00:40 GMT-0500 (Central Daylight Time),397780.6999999881,1000,O,z,862,4,1,2637.099999964237,395143.60000002384,7091,NTS,B,2
1,2,prac,1,C,circle.png,1,z,Wed Mar 26 2025 15:00:40 GMT-0500 (Central Daylight Time),401179.10000002384,1700,O,z,889,1,1,3370.699999988079,397808.40000003576,7091,NTS,B,3
7,2,prac,1,C,triangle.png,0,z,Wed Mar 26 2025 15:00:40 GMT-0500 (Central Daylight Time),404361.90000003576,1200,O,m,1166,6,1,3167.100000023842,401194.8000000119,7091,NTS,B,4
1,3,prac,1,C,circle.png,1,z,Wed Mar 26 2025 15:00:40 GMT-0500 (Central Daylight Time),407810.8000000119,1700,O,z,939,1,1,3423.0,404387.8000000119,7091,NTS,B,5
8,4,prac,1,C,triangle.png,1,m,Wed Mar 26 2025 15:00:40 GMT-0500 (Central Daylight Time),411343.40000003576,1400,O,m,1319,7,1,3505.800000011921,407837.60000002384,7091,NTS,B,6
6,5,prac,1,C,circle.png,1,m,Wed Mar 26 2025 15:00:40 GMT-0500 (Central Daylight Time),415341.60000002384,2000,O,m,1187,5,1,3970.699999988079,411370.90000003576,7091,NTS,B,7
3,6,prac,1,C,triangle.png,1,z,Wed Mar 26 2025 15:00:40 GMT-0500 (Central Daylight Time),418390.3000000119,1500,O,z,744,3,1,3022.0,415368.3000000119,7091,NTS,B,8
9,6,prac,1,C,circle.png,0,m,Wed Mar 26 2025 15:00:40 GMT-0500 (Central Daylight Time),422605.8000000119,1900,O,None,1514,8,1,4199.699999988079,418406.10000002384,7091,NTS,B,9
2,6,prac,1,C,triangle.png,0,m,Wed Mar 26 2025 15:00:40 GMT-0500 (Central Daylight Time),426138.10000002384,1600,O,z,1124,2,1,3508.800000011921,422629.3000000119,7091,NTS,B,10
4,7,prac,1,C,circle.png,1,z,Wed Mar 26 2025 15:00:40 GMT-0500 (Central Daylight Time),429270.40000003576,1000,O,z,1328,4,1,3103.5,426166.90000003576,7091,NTS,B,11
8,8,prac,1,C,triangle.png,1,m,Wed Mar 26 2025 15:00:40 GMT-0500 (Central Daylight Time),432369.40000003576,1400,O,m,891,7,1,3078.100000023842,429291.3000000119,7091,NTS,B,12
6,1,test,1,C,triangle.png,1,m,Wed Mar 26 2025 15:00:40 GMT-0500 (Central Daylight Time),459327.1999999881,1000,O,m,1178,13,1,2199.0,457128.1999999881,7091,NTS,B,1
4,1,test,1,C,triangle.png,0,m,Wed Mar 26 2025 15:00:40 GMT-0500 (Central Daylight Time),462376.3000000119,1500,O,None,1515,20,1,3028.0,459348.3000000119,7091,NTS,B,2
9,2,test,1,C,circle.png,1,m,Wed Mar 26 2025 15:00:40 GMT-0500 (Central Daylight Time),465125.3000000119,1500,O,m,1214,24,1,2729.399999976158,462395.90000003576,7091,NTS,B,3
8,3,test,1,C,triangle.png,1,m,Wed Mar 26 2025 15:00:40 GMT-0500 (Central Daylight Time),468007.6999999881,1600,O,m,1236,7,1,2863.399999976158,465144.3000000119,7091,NTS,B,4
8,4,test,1,C,triangle.png,1,m,Wed Mar 26 2025 15:00:40 GMT-0500 (Central Daylight Time),470490.40000003576,1600,O,m,834,23,1,2462.800000011921,468027.60000002384,7091,NTS,B,5
1,4,test,1,C,triangle.png,0,z,Wed Mar 26 2025 15:00:40 GMT-0500 (Central Daylight Time),473939.0,1900,O,None,1514,17,1,3427.899999976158,470511.10000002384,7091,NTS,B,6
1,5,test,1,C,circle.png,1,z,Wed Mar 26 2025 15:00:40 GMT-0500 (Central Daylight Time),476105.10000002384,1000,O,z,1126,1,1,2147.100000023842,473958.0,7091,NTS,B,7
3,6,test,1,C,circle.png,1,z,Wed Mar 26 2025 15:00:40 GMT-0500 (Central Daylight Time),478837.60000002384,1600,O,z,1089,19,1,2709.600000023842,476128.0,7091,NTS,B,8
1,7,test,1,C,triangle.png,1,z,Wed Mar 26 2025 15:00:40 GMT-0500 (Central Daylight Time),481819.60000002384,1900,O,z,1047,9,1,2961.300000011921,478858.3000000119,7091,NTS,B,9
2,8,test,1,C,circle.png,1,z,Wed Mar 26 2025 15:00:40 GMT-0500 (Central Daylight Time),484485.6999999881,1700,O,z,939,18,1,2655.199999988079,481830.5,7091,NTS,B,10
7,9,test,1,C,circle.png,1,m,Wed Mar 26 2025 15:00:40 GMT-0500 (Central Daylight Time),487618.0,2000,O,m,1092,14,1,3111.800000011921,484506.1999999881,7091,NTS,B,11
3,9,test,1,C,triangle.png,0,z,Wed Mar 26 2025 15:00:40 GMT-0500 (Central Daylight Time),490367.0,1200,O,None,1515,3,1,2729.5,487637.5,7091,NTS,B,12
9,9,test,1,C,circle.png,0,m,Wed Mar 26 2025 15:00:40 GMT-0500 (Central Daylight Time),493416.0,1500,O,None,1515,8,1,3028.300000011921,490387.6999999881,7091,NTS,B,13
6,10,test,1,C,circle.png,1,m,Wed Mar 26 2025 15:00:40 GMT-0500 (Central Daylight Time),496298.10000002384,1900,O,m,934,21,1,2862.699999988079,493435.40000003576,7091,NTS,B,14
7,11,test,1,C,triangle.png,1,z,Wed Mar 26 2025 15:00:40 GMT-0500 (Central Daylight Time),499430.5,1700,O,z,1395,6,1,3113.099999964237,496317.40000003576,7091,NTS,B,15
8,12,test,1,C,circle.png,1,m,Wed Mar 26 2025 15:00:40 GMT-0500 (Central Daylight Time),501896.60000002384,1200,O,m,1228,15,1,2440.699999988079,499455.90000003576,7091,NTS,B,16
3,13,test,1,C,circle.png,1,z,Wed Mar 26 2025 15:00:40 GMT-0500 (Central Daylight Time),504445.5,1600,O,z,913,11,1,2528.5,501917.0,7091,NTS,B,17
4,14,test,1,C,circle.png,1,z,Wed Mar 26 2025 15:00:40 GMT-0500 (Central Daylight Time),506794.60000002384,1400,O,z,902,4,1,2329.400000035763,504465.1999999881,7091,NTS,B,18
2,15,test,1,C,triangle.png,1,m,Wed Mar 26 2025 15:00:40 GMT-0500 (Central Daylight Time),510193.8000000119,2000,O,m,1359,2,1,3383.699999988079,506810.10000002384,7091,NTS,B,19
4,16,test,1,C,triangle.png,1,m,Wed Mar 26 2025 15:00:40 GMT-0500 (Central Daylight Time),512393.10000002384,1500,O,m,661,12,1,2178.699999988079,510214.40000003576,7091,NTS,B,20
6,17,test,1,C,circle.png,1,m,Wed Mar 26 2025 15:00:40 GMT-0500 (Central Daylight Time),515342.1999999881,1900,O,m,1005,5,1,2928.0,512414.1999999881,7091,NTS,B,21
2,17,test,1,C,circle.png,0,z,Wed Mar 26 2025 15:00:40 GMT-0500 (Central Daylight Time),518591.1999999881,1700,O,None,1514,10,1,3229.899999976158,515361.3000000119,7091,NTS,B,22
7,17,test,1,C,triangle.png,0,z,Wed Mar 26 2025 15:00:40 GMT-0500 (Central Daylight Time),521173.40000003576,1700,O,m,847,22,1,2563.400000035763,518610.0,7091,NTS,B,23
9,18,test,1,C,triangle.png,1,z,Wed Mar 26 2025 15:00:40 GMT-0500 (Central Daylight Time),523839.3000000119,1400,O,z,1229,16,1,2646.699999988079,521192.60000002384,7091,NTS,B,24
4,1,test,2,C,circle.png,1,z,Wed Mar 26 2025 15:00:40 GMT-0500 (Central Daylight Time),534652.6999999881,1400,O,z,1006,4,1,2430.5,532222.1999999881,7091,NTS,B,1
6,2,test,2,C,triangle.png,1,m,Wed Mar 26 2025 15:00:40 GMT-0500 (Central Daylight Time),536751.9000000358,1000,O,m,1061,13,1,2079.0,534672.9000000358,7091,NTS,B,2
4,3,test,2,C,triangle.png,1,m,Wed Mar 26 2025 15:00:40 GMT-0500 (Central Daylight Time),539184.4000000358,1500,O,m,894,12,1,2412.800000011921,536771.6000000238,7091,NTS,B,3
9,4,test,2,C,triangle.png,1,z,Wed Mar 26 2025 15:00:40 GMT-0500 (Central Daylight Time),541567.0,1400,O,z,939,16,1,2361.5,539205.5,7091,NTS,B,4
2,4,test,2,C,triangle.png,0,m,Wed Mar 26 2025 15:00:40 GMT-0500 (Central Daylight Time),544616.1000000238,2000,O,z,1003,2,1,3030.400000035763,541585.6999999881,7091,NTS,B,5
1,5,test,2,C,circle.png,1,z,Wed Mar 26 2025 15:00:40 GMT-0500 (Central Daylight Time),546565.3000000119,1000,O,z,905,1,1,1928.6000000238419,544636.6999999881,7091,NTS,B,6
8,5,test,2,C,circle.png,0,m,Wed Mar 26 2025 15:00:40 GMT-0500 (Central Daylight Time),549314.1000000238,1200,O,None,1514,23,1,2728.600000023842,546585.5,7091,NTS,B,7
2,6,test,2,C,circle.png,1,z,Wed Mar 26 2025 15:00:40 GMT-0500 (Central Daylight Time),551830.0,1700,O,z,796,10,1,2505.800000011921,549324.1999999881,7091,NTS,B,8
7,7,test,2,C,triangle.png,1,z,Wed Mar 26 2025 15:00:40 GMT-0500 (Central Daylight Time),554813.0,1700,O,z,1231,6,1,2958.0,551855.0,7091,NTS,B,9
9,8,test,2,C,triangle.png,1,z,Wed Mar 26 2025 15:00:40 GMT-0500 (Central Daylight Time),556862.6000000238,1400,O,z,615,24,1,2029.4000000357628,554833.1999999881,7091,NTS,B,10
1,9,test,2,C,triangle.png,1,z,Wed Mar 26 2025 15:00:40 GMT-0500 (Central Daylight Time),559544.3000000119,1900,O,z,744,9,1,2665.100000023842,556879.1999999881,7091,NTS,B,11
9,10,test,2,C,circle.png,1,m,Wed Mar 26 2025 15:00:40 GMT-0500 (Central Daylight Time),561926.8000000119,1500,O,m,837,8,1,2363.399999976158,559563.4000000358,7091,NTS,B,12
8,11,test,2,C,circle.png,1,m,Wed Mar 26 2025 15:00:40 GMT-0500 (Central Daylight Time),564442.9000000358,1200,O,m,1266,15,1,2496.0,561946.9000000358,7091,NTS,B,13
6,11,test,2,C,triangle.png,0,m,Wed Mar 26 2025 15:00:40 GMT-0500 (Central Daylight Time),566992.0,1000,O,None,1515,21,1,2529.0,564463.0,7091,NTS,B,14
2,12,test,2,C,circle.png,1,z,Wed Mar 26 2025 15:00:40 GMT-0500 (Central Daylight Time),570074.1000000238,1700,O,z,1342,18,1,3062.199999988079,567011.9000000358,7091,NTS,B,15
3,13,test,2,C,circle.png,1,z,Wed Mar 26 2025 15:00:40 GMT-0500 (Central Daylight Time),572639.9000000358,1600,O,z,927,11,1,2547.0,570092.9000000358,7091,NTS,B,16
7,14,test,2,C,circle.png,1,m,Wed Mar 26 2025 15:00:40 GMT-0500 (Central Daylight Time),575555.6000000238,2000,O,m,874,22,1,2896.5,572659.1000000238,7091,NTS,B,17
7,15,test,2,C,circle.png,1,m,Wed Mar 26 2025 15:00:40 GMT-0500 (Central Daylight Time),578354.5,2000,O,m,758,14,1,2779.300000011921,575575.1999999881,7091,NTS,B,18
3,16,test,2,C,triangle.png,1,z,Wed Mar 26 2025 15:00:40 GMT-0500 (Central Daylight Time),580987.4000000358,1200,O,z,1407,3,1,2620.300000011921,578367.1000000238,7091,NTS,B,19
3,17,test,2,C,circle.png,1,z,Wed Mar 26 2025 15:00:40 GMT-0500 (Central Daylight Time),583519.6999999881,1600,O,z,894,19,1,2513.399999976158,581006.3000000119,7091,NTS,B,20
6,18,test,2,C,circle.png,1,m,Wed Mar 26 2025 15:00:40 GMT-0500 (Central Daylight Time),586318.6000000238,1900,O,m,862,5,1,2779.0,583539.6000000238,7091,NTS,B,21
4,19,test,2,C,triangle.png,1,m,Wed Mar 26 2025 15:00:40 GMT-0500 (Central Daylight Time),589101.3000000119,1500,O,m,1239,20,1,2763.100000023842,586338.1999999881,7091,NTS,B,22
1,20,test,2,C,triangle.png,1,z,Wed Mar 26 2025 15:00:40 GMT-0500 (Central Daylight Time),591933.6000000238,1900,O,z,888,17,1,2811.0,589122.6000000238,7091,NTS,B,23
8,21,test,2,C,triangle.png,1,m,Wed Mar 26 2025 15:00:40 GMT-0500 (Central Daylight Time),594782.5,1600,O,m,1212,7,1,2829.699999988079,591952.8000000119,7091,NTS,B,24
1,1,test,3,C,triangle.png,1,z,Wed Mar 26 2025 15:00:40 GMT-0500 (Central Daylight Time),602180.6000000238,1900,O,z,816,9,1,2748.100000023842,599432.5,7091,NTS,B,1
4,2,test,3,C,circle.png,1,z,Wed Mar 26 2025 15:00:40 GMT-0500 (Central Daylight Time),604679.6999999881,1400,O,z,1061,20,1,2473.7999999523163,602205.9000000358,7091,NTS,B,2
3,3,test,3,C,triangle.png,1,z,Wed Mar 26 2025 15:00:40 GMT-0500 (Central Daylight Time),606795.5,1200,O,z,874,3,1,2097.199999988079,604698.3000000119,7091,NTS,B,3
1,4,test,3,C,circle.png,1,z,Wed Mar 26 2025 15:00:40 GMT-0500 (Central Daylight Time),608877.9000000358,1000,O,z,1038,17,1,2063.100000023842,606814.8000000119,7091,NTS,B,4
6,5,test,3,C,circle.png,1,m,Wed Mar 26 2025 15:00:40 GMT-0500 (Central Daylight Time),611827.1000000238,1900,O,m,1008,21,1,2929.900000035763,608897.1999999881,7091,NTS,B,5
9,6,test,3,C,triangle.png,1,z,Wed Mar 26 2025 15:00:40 GMT-0500 (Central Daylight Time),614409.5,1400,O,z,1143,16,1,2562.300000011921,611847.1999999881,7091,NTS,B,6
8,7,test,3,C,triangle.png,1,m,Wed Mar 26 2025 15:00:40 GMT-0500 (Central Daylight Time),617225.5,1600,O,m,1169,23,1,2795.899999976158,614429.6000000238,7091,NTS,B,7
9,7,test,3,C,circle.png,0,m,Wed Mar 26 2025 15:00:40 GMT-0500 (Central Daylight Time),619607.6999999881,1500,O,z,844,8,1,2362.199999988079,617245.5,7091,NTS,B,8
7,7,test,3,C,triangle.png,0,z,Wed Mar 26 2025 15:00:40 GMT-0500 (Central Daylight Time),622857.8000000119,1700,O,None,1516,6,1,3230.5,619627.3000000119,7091,NTS,B,9
8,8,test,3,C,circle.png,1,m,Wed Mar 26 2025 15:00:40 GMT-0500 (Central Daylight Time),624756.9000000358,1200,O,m,665,15,1,1879.800000011921,622877.1000000238,7091,NTS,B,10
2,8,test,3,C,triangle.png,0,m,Wed Mar 26 2025 15:00:40 GMT-0500 (Central Daylight Time),628238.1999999881,2000,O,z,1446,18,1,3458.0,624780.1999999881,7091,NTS,B,11
1,9,test,3,C,circle.png,1,z,Wed Mar 26 2025 15:00:40 GMT-0500 (Central Daylight Time),630437.5,1000,O,z,1155,1,1,2180.0,628257.5,7091,NTS,B,12
4,10,test,3,C,triangle.png,1,m,Wed Mar 26 2025 15:00:40 GMT-0500 (Central Daylight Time),633086.8000000119,1500,O,m,1105,12,1,2630.5,630456.3000000119,7091,NTS,B,13
6,11,test,3,C,circle.png,1,m,Wed Mar 26 2025 15:00:40 GMT-0500 (Central Daylight Time),636469.3000000119,1900,O,m,1448,5,1,3363.699999988079,633105.6000000238,7091,NTS,B,14
6,12,test,3,C,triangle.png,1,m,Wed Mar 26 2025 15:00:40 GMT-0500 (Central Daylight Time),638734.8000000119,1000,O,m,1229,13,1,2245.399999976158,636489.4000000358,7091,NTS,B,15
9,12,test,3,C,circle.png,0,m,Wed Mar 26 2025 15:00:40 GMT-0500 (Central Daylight Time),641784.1000000238,1500,O,None,1515,24,1,3029.600000023842,638754.5,7091,NTS,B,16
7,13,test,3,C,circle.png,1,m,Wed Mar 26 2025 15:00:40 GMT-0500 (Central Daylight Time),644699.5,2000,O,m,866,14,1,2895.199999988079,641804.3000000119,7091,NTS,B,17
4,14,test,3,C,circle.png,1,z,Wed Mar 26 2025 15:00:40 GMT-0500 (Central Daylight Time),647098.8000000119,1400,O,z,958,4,1,2380.5,644718.3000000119,7091,NTS,B,18
8,15,test,3,C,triangle.png,1,m,Wed Mar 26 2025 15:00:40 GMT-0500 (Central Daylight Time),650231.1000000238,1600,O,m,1495,7,1,3112.600000023842,647118.5,7091,NTS,B,19
7,16,test,3,C,triangle.png,1,z,Wed Mar 26 2025 15:00:40 GMT-0500 (Central Daylight Time),652830.0,1700,O,z,863,22,1,2579.899999976158,650250.1000000238,7091,NTS,B,20
2,16,test,3,C,triangle.png,0,m,Wed Mar 26 2025 15:00:40 GMT-0500 (Central Daylight Time),656112.5,2000,O,z,1238,2,1,3264.099999964237,652848.4000000358,7091,NTS,B,21
3,17,test,3,C,circle.png,1,z,Wed Mar 26 2025 15:00:40 GMT-0500 (Central Daylight Time),659095.0,1600,O,z,1345,11,1,2963.5,656131.5,7091,NTS,B,22
2,17,test,3,C,circle.png,0,z,Wed Mar 26 2025 15:00:40 GMT-0500 (Central Daylight Time),662343.9000000358,1700,O,None,1515,10,1,3229.900000035763,659114.0,7091,NTS,B,23
3,18,test,3,C,triangle.png,1,z,Wed Mar 26 2025 15:00:40 GMT-0500 (Central Daylight Time),665026.0,1200,O,z,1442,19,1,2662.199999988079,662363.8000000119,7091,NTS,B,24
2,1,test,4,C,triangle.png,1,m,Wed Mar 26 2025 15:00:40 GMT-0500 (Central Daylight Time),672540.8000000119,2000,O,m,1422,2,1,3439.0,669101.8000000119,7091,NTS,B,1
7,2,test,4,C,triangle.png,1,z,Wed Mar 26 2025 15:00:40 GMT-0500 (Central Daylight Time),675357.1999999881,1700,O,z,1081,22,1,2797.599999964237,672559.6000000238,7091,NTS,B,2
9,3,test,4,C,circle.png,1,m,Wed Mar 26 2025 15:00:40 GMT-0500 (Central Daylight Time),677955.4000000358,1500,O,m,1057,8,1,2579.600000023842,675375.8000000119,7091,NTS,B,3
3,3,test,4,C,triangle.png,0,z,Wed Mar 26 2025 15:00:40 GMT-0500 (Central Daylight Time),680704.6000000238,1200,O,None,1514,3,1,2729.300000011921,677975.3000000119,7091,NTS,B,4
4,4,test,4,C,circle.png,1,z,Wed Mar 26 2025 15:00:40 GMT-0500 (Central Daylight Time),683436.8000000119,1400,O,z,1289,20,1,2713.699999988079,680723.1000000238,7091,NTS,B,5
2,5,test,4,C,triangle.png,1,m,Wed Mar 26 2025 15:00:40 GMT-0500 (Central Daylight Time),686636.1000000238,2000,O,m,1149,18,1,3180.800000011921,683455.3000000119,7091,NTS,B,6
4,6,test,4,C,circle.png,1,z,Wed Mar 26 2025 15:00:40 GMT-0500 (Central Daylight Time),689035.1999999881,1400,O,z,950,4,1,2380.5,686654.6999999881,7091,NTS,B,7
7,6,test,4,C,circle.png,0,m,Wed Mar 26 2025 15:00:40 GMT-0500 (Central Daylight Time),692483.6999999881,2000,O,z,1408,14,1,3429.0,689054.6999999881,7091,NTS,B,8
4,6,test,4,C,triangle.png,0,m,Wed Mar 26 2025 15:00:40 GMT-0500 (Central Daylight Time),695532.8000000119,1500,O,None,1515,12,1,3030.600000023842,692502.1999999881,7091,NTS,B,9
1,7,test,4,C,circle.png,1,z,Wed Mar 26 2025 15:00:40 GMT-0500 (Central Daylight Time),697415.6000000238,1000,O,z,837,17,1,1862.5,695553.1000000238,7091,NTS,B,10
6,7,test,4,C,triangle.png,0,m,Wed Mar 26 2025 15:00:40 GMT-0500 (Central Daylight Time),699964.9000000358,1000,O,None,1515,13,1,2529.800000011921,697435.1000000238,7091,NTS,B,11
3,8,test,4,C,triangle.png,1,z,Wed Mar 26 2025 15:00:40 GMT-0500 (Central Daylight Time),702497.3000000119,1200,O,z,1286,19,1,2511.699999988079,699985.6000000238,7091,NTS,B,12
3,9,test,4,C,circle.png,1,z,Wed Mar 26 2025 15:00:40 GMT-0500 (Central Daylight Time),704996.6000000238,1600,O,z,856,11,1,2477.600000023842,702519.0,7091,NTS,B,13
8,10,test,4,C,triangle.png,1,m,Wed Mar 26 2025 15:00:40 GMT-0500 (Central Daylight Time),707529.0,1600,O,m,893,23,1,2511.599999964237,705017.4000000358,7091,NTS,B,14
6,11,test,4,C,circle.png,1,m,Wed Mar 26 2025 15:00:40 GMT-0500 (Central Daylight Time),710294.6999999881,1900,O,m,829,21,1,2746.2999999523163,707548.4000000358,7091,NTS,B,15
7,12,test,4,C,triangle.png,1,z,Wed Mar 26 2025 15:00:40 GMT-0500 (Central Daylight Time),713427.1999999881,1700,O,z,1383,6,1,3112.899999976158,710314.3000000119,7091,NTS,B,16
8,13,test,4,C,triangle.png,1,m,Wed Mar 26 2025 15:00:40 GMT-0500 (Central Daylight Time),716409.5,1600,O,m,1335,7,1,2963.0,713446.5,7091,NTS,B,17
2,14,test,4,C,circle.png,1,z,Wed Mar 26 2025 15:00:40 GMT-0500 (Central Daylight Time),719091.8000000119,1700,O,z,940,10,1,2662.899999976158,716428.9000000358,7091,NTS,B,18
1,15,test,4,C,circle.png,1,z,Wed Mar 26 2025 15:00:40 GMT-0500 (Central Daylight Time),720774.6999999881,1000,O,z,645,1,1,1664.199999988079,719110.5,7091,NTS,B,19
9,16,test,4,C,circle.png,1,m,Wed Mar 26 2025 15:00:40 GMT-0500 (Central Daylight Time),723440.5,1500,O,m,1128,24,1,2646.800000011921,720793.6999999881,7091,NTS,B,20
9,17,test,4,C,triangle.png,1,z,Wed Mar 26 2025 15:00:40 GMT-0500 (Central Daylight Time),726056.3000000119,1400,O,z,1169,16,1,2595.899999976158,723460.4000000358,7091,NTS,B,21
8,18,test,4,C,circle.png,1,m,Wed Mar 26 2025 15:00:40 GMT-0500 (Central Daylight Time),728505.6000000238,1200,O,m,1201,15,1,2430.300000011921,726075.3000000119,7091,NTS,B,22
6,19,test,4,C,circle.png,1,m,Wed Mar 26 2025 15:00:40 GMT-0500 (Central Daylight Time),731487.8000000119,1900,O,m,1044,5,1,2961.199999988079,728526.6000000238,7091,NTS,B,23
1,20,test,4,C,triangle.png,1,z,Wed Mar 26 2025 15:00:40 GMT-0500 (Central Daylight Time),734637.4000000358,1900,O,z,1215,9,1,3129.7000000476837,731507.6999999881,7091,NTS,B,24
