acc_sum,block,block_c,change,condition,correct,correct_response,datetime,endtime,face,project,response,response_time,row_sel,session_number,start_end,starttime,subject_id,task,task_vers,trial
0,prac,1,,1-Back,,,Fri Apr 11 2025 09:24:48 GMT-0400 (Eastern Daylight Time),,050_m_f_n_a.png,I,space,5636,1,1,,,9011,NNB,A,0
1,prac,1,0.0,1-Back,1,m,Fri Apr 11 2025 09:24:48 GMT-0400 (Eastern Daylight Time),109976.5,063_y_f_n_a.png,I,m,843,2,1,1665.5,108311.0,9011,NNB,A,1
2,prac,1,1.0,1-Back,1,z,Fri Apr 11 2025 09:24:48 GMT-0400 (Eastern Daylight Time),111943.19999980927,063_y_f_n_a.png,I,z,1169,3,1,1952.1999998092651,109991.0,9011,NNB,A,2
3,prac,1,0.0,1-Back,1,m,Fri Apr 11 2025 09:24:48 GMT-0400 (Eastern Daylight Time),113493.19999980927,053_o_m_n_a.png,I,m,713,4,1,1536.0,111957.19999980927,9011,NNB,A,3
4,prac,1,0.0,1-Back,1,m,Fri Apr 11 2025 09:24:48 GMT-0400 (Eastern Daylight Time),115276.4000005722,058_m_m_n_a.png,I,m,955,5,1,1770.0,113506.4000005722,9011,NNB,A,4
5,prac,1,1.0,1-Back,1,z,Fri Apr 11 2025 09:24:48 GMT-0400 (Eastern Daylight Time),116792.9000005722,058_m_m_n_a.png,I,z,735,6,1,1503.0,115289.9000005722,9011,NNB,A,5
6,prac,1,0.0,1-Back,1,m,Fri Apr 11 2025 09:24:48 GMT-0400 (Eastern Daylight Time),118142.9000005722,047_o_f_n_a.png,I,m,559,7,1,1335.6000003814697,116807.30000019073,9011,NNB,A,6
7,prac,1,0.0,1-Back,1,m,Fri Apr 11 2025 09:24:48 GMT-0400 (Eastern Daylight Time),119609.60000038147,045_m_m_n_a.png,I,m,684,8,1,1452.8000001907349,118156.80000019073,9011,NNB,A,7
8,prac,1,0.0,1-Back,1,m,Fri Apr 11 2025 09:24:48 GMT-0400 (Eastern Daylight Time),121059.5,050_m_f_n_a.png,I,m,658,9,1,1436.8000001907349,119622.69999980927,9011,NNB,A,8
9,prac,1,1.0,1-Back,1,z,Fri Apr 11 2025 09:24:48 GMT-0400 (Eastern Daylight Time),122559.69999980927,050_m_f_n_a.png,I,z,708,10,1,1483.2999992370605,121076.4000005722,9011,NNB,A,9
10,prac,1,0.0,1-Back,1,m,Fri Apr 11 2025 09:24:48 GMT-0400 (Eastern Daylight Time),124026.5,053_o_m_n_a.png,I,m,682,11,1,1451.8000001907349,122574.69999980927,9011,NNB,A,10
11,prac,1,0.0,1-Back,1,m,Fri Apr 11 2025 09:24:48 GMT-0400 (Eastern Daylight Time),125709.5,010_y_f_n_a.png,I,m,812,12,1,1669.1999998092651,124040.30000019073,9011,NNB,A,11
0,test,1,0.0,1-Back,,,Fri Apr 11 2025 09:24:48 GMT-0400 (Eastern Daylight Time),125709.5,063_y_f_n_a.png,I,space,14772,1,1,1669.1999998092651,124040.30000019073,9011,NNB,A,0
1,test,1,0.0,1-Back,1,m,Fri Apr 11 2025 09:24:48 GMT-0400 (Eastern Daylight Time),149108.9000005722,043_m_f_n_a.png,I,m,820,2,1,1837.7000007629395,147271.19999980927,9011,NNB,A,1
2,test,1,0.0,1-Back,1,m,Fri Apr 11 2025 09:24:48 GMT-0400 (Eastern Daylight Time),151409.5,010_y_f_n_a.png,I,m,1273,3,1,2291.300000190735,149118.19999980927,9011,NNB,A,2
3,test,1,1.0,1-Back,1,z,Fri Apr 11 2025 09:24:48 GMT-0400 (Eastern Daylight Time),153242.69999980927,010_y_f_n_a.png,I,z,814,4,1,1818.1999998092651,151424.5,9011,NNB,A,3
4,test,1,0.0,1-Back,1,m,Fri Apr 11 2025 09:24:48 GMT-0400 (Eastern Daylight Time),154859.30000019073,043_m_f_n_a.png,I,m,596,5,1,1602.1000003814697,153257.19999980927,9011,NNB,A,4
5,test,1,0.0,1-Back,1,m,Fri Apr 11 2025 09:24:48 GMT-0400 (Eastern Daylight Time),156609.30000019073,053_o_m_n_a.png,I,m,724,6,1,1737.1999998092651,154872.10000038147,9011,NNB,A,5
6,test,1,1.0,1-Back,1,z,Fri Apr 11 2025 09:24:48 GMT-0400 (Eastern Daylight Time),158259.30000019073,053_o_m_n_a.png,I,z,622,7,1,1637.3000001907349,156622.0,9011,NNB,A,6
7,test,1,0.0,1-Back,1,m,Fri Apr 11 2025 09:24:48 GMT-0400 (Eastern Daylight Time),159976.19999980927,058_m_m_n_a.png,I,m,684,8,1,1704.5999994277954,158271.60000038147,9011,NNB,A,7
8,test,1,0.0,1-Back,1,m,Fri Apr 11 2025 09:24:48 GMT-0400 (Eastern Daylight Time),161609.69999980927,047_o_f_n_a.png,I,m,615,9,1,1621.0999994277954,159988.60000038147,9011,NNB,A,8
9,test,1,0.0,1-Back,1,m,Fri Apr 11 2025 09:24:48 GMT-0400 (Eastern Daylight Time),163559.5,058_m_m_n_a.png,I,m,918,10,1,1938.5999994277954,161620.9000005722,9011,NNB,A,9
10,test,1,0.0,1-Back,1,m,Fri Apr 11 2025 09:24:48 GMT-0400 (Eastern Daylight Time),165209.30000019073,041_y_m_n_a.png,I,m,616,11,1,1637.3000001907349,163572.0,9011,NNB,A,10
11,test,1,1.0,1-Back,1,z,Fri Apr 11 2025 09:24:48 GMT-0400 (Eastern Daylight Time),166826.0,041_y_m_n_a.png,I,z,583,12,1,1605.0999994277954,165220.9000005722,9011,NNB,A,11
12,test,1,0.0,1-Back,1,m,Fri Apr 11 2025 09:24:48 GMT-0400 (Eastern Daylight Time),168292.69999980927,044_o_f_n_a.png,I,m,437,13,1,1454.1999998092651,166838.5,9011,NNB,A,12
13,test,1,1.0,1-Back,1,z,Fri Apr 11 2025 09:24:48 GMT-0400 (Eastern Daylight Time),170076.0,044_o_f_n_a.png,I,z,762,14,1,1771.3000001907349,168304.69999980927,9011,NNB,A,13
14,test,1,0.0,1-Back,1,m,Fri Apr 11 2025 09:24:48 GMT-0400 (Eastern Daylight Time),171609.60000038147,008_y_m_n_a.png,I,m,515,15,1,1521.9000005722046,170087.69999980927,9011,NNB,A,14
15,test,1,0.0,1-Back,1,m,Fri Apr 11 2025 09:24:48 GMT-0400 (Eastern Daylight Time),173142.69999980927,050_m_f_n_a.png,I,m,502,16,1,1520.1999998092651,171622.5,9011,NNB,A,15
16,test,1,0.0,1-Back,1,m,Fri Apr 11 2025 09:24:48 GMT-0400 (Eastern Daylight Time),174776.0,046_o_m_n_a.png,I,m,600,17,1,1620.6999998092651,173155.30000019073,9011,NNB,A,16
17,test,1,0.0,1-Back,1,m,Fri Apr 11 2025 09:24:48 GMT-0400 (Eastern Daylight Time),176342.69999980927,050_m_f_n_a.png,I,m,535,18,1,1555.0,174787.69999980927,9011,NNB,A,17
0,test,2,0.0,1-Back,,,Fri Apr 11 2025 09:24:48 GMT-0400 (Eastern Daylight Time),176342.69999980927,058_m_m_n_a.png,I,space,2049,1,1,1555.0,174787.69999980927,9011,NNB,A,0
1,test,2,0.0,1-Back,1,m,Fri Apr 11 2025 09:24:48 GMT-0400 (Eastern Daylight Time),182326.19999980927,043_m_f_n_a.png,I,m,869,2,1,1888.0999994277954,180438.10000038147,9011,NNB,A,1
2,test,2,1.0,1-Back,1,z,Fri Apr 11 2025 09:24:48 GMT-0400 (Eastern Daylight Time),183959.5,043_m_f_n_a.png,I,z,601,3,1,1620.3000001907349,182339.19999980927,9011,NNB,A,2
3,test,2,0.0,1-Back,1,m,Fri Apr 11 2025 09:24:48 GMT-0400 (Eastern Daylight Time),185492.69999980927,058_m_m_n_a.png,I,m,504,4,1,1521.5999994277954,183971.10000038147,9011,NNB,A,3
4,test,2,0.0,1-Back,1,m,Fri Apr 11 2025 09:24:48 GMT-0400 (Eastern Daylight Time),187242.4000005722,041_y_m_n_a.png,I,m,731,5,1,1737.0,185505.4000005722,9011,NNB,A,4
5,test,2,0.0,1-Back,1,m,Fri Apr 11 2025 09:24:48 GMT-0400 (Eastern Daylight Time),189009.19999980927,063_y_f_n_a.png,I,m,741,6,1,1753.7999992370605,187255.4000005722,9011,NNB,A,5
6,test,2,1.0,1-Back,1,z,Fri Apr 11 2025 09:24:48 GMT-0400 (Eastern Daylight Time),190609.5,063_y_f_n_a.png,I,z,574,7,1,1587.3000001907349,189022.19999980927,9011,NNB,A,6
7,test,2,0.0,1-Back,1,m,Fri Apr 11 2025 09:24:48 GMT-0400 (Eastern Daylight Time),192092.69999980927,041_y_m_n_a.png,I,m,462,8,1,1471.0,190621.69999980927,9011,NNB,A,7
8,test,2,0.0,1-Back,1,m,Fri Apr 11 2025 09:24:48 GMT-0400 (Eastern Daylight Time),193692.69999980927,044_o_f_n_a.png,I,m,578,9,1,1588.1999998092651,192104.5,9011,NNB,A,8
9,test,2,0.0,1-Back,1,m,Fri Apr 11 2025 09:24:48 GMT-0400 (Eastern Daylight Time),195275.60000038147,045_m_m_n_a.png,I,m,561,10,1,1569.9000005722046,193705.69999980927,9011,NNB,A,9
10,test,2,1.0,1-Back,1,z,Fri Apr 11 2025 09:24:48 GMT-0400 (Eastern Daylight Time),197059.4000005722,045_m_m_n_a.png,I,z,755,11,1,1774.2000007629395,195285.19999980927,9011,NNB,A,10
11,test,2,0.0,1-Back,1,m,Fri Apr 11 2025 09:24:48 GMT-0400 (Eastern Daylight Time),198642.69999980927,044_o_f_n_a.png,I,m,556,12,1,1570.6999998092651,197072.0,9011,NNB,A,11
12,test,2,0.0,1-Back,1,m,Fri Apr 11 2025 09:24:48 GMT-0400 (Eastern Daylight Time),200292.9000005722,047_o_f_n_a.png,I,m,622,13,1,1638.2000007629395,198654.69999980927,9011,NNB,A,12
13,test,2,0.0,1-Back,1,m,Fri Apr 11 2025 09:24:48 GMT-0400 (Eastern Daylight Time),201992.69999980927,053_o_m_n_a.png,I,m,667,14,1,1686.7999992370605,200305.9000005722,9011,NNB,A,13
14,test,2,0.0,1-Back,1,m,Fri Apr 11 2025 09:24:48 GMT-0400 (Eastern Daylight Time),203609.30000019073,046_o_m_n_a.png,I,m,582,15,1,1604.3999996185303,202004.9000005722,9011,NNB,A,14
15,test,2,1.0,1-Back,1,z,Fri Apr 11 2025 09:24:48 GMT-0400 (Eastern Daylight Time),205225.9000005722,046_o_m_n_a.png,I,z,598,16,1,1605.1000003814697,203620.80000019073,9011,NNB,A,15
16,test,2,0.0,1-Back,1,m,Fri Apr 11 2025 09:24:48 GMT-0400 (Eastern Daylight Time),206892.60000038147,008_y_m_n_a.png,I,m,646,17,1,1655.8000001907349,205236.80000019073,9011,NNB,A,16
17,test,2,1.0,1-Back,1,z,Fri Apr 11 2025 09:24:48 GMT-0400 (Eastern Daylight Time),208542.69999980927,008_y_m_n_a.png,I,z,627,18,1,1637.3999996185303,206905.30000019073,9011,NNB,A,17
0,test,3,1.0,1-Back,,,Fri Apr 11 2025 09:24:48 GMT-0400 (Eastern Daylight Time),208542.69999980927,010_y_f_n_a.png,I,space,2905,1,1,1637.3999996185303,206905.30000019073,9011,NNB,A,0
1,test,3,0.0,1-Back,1,m,Fri Apr 11 2025 09:24:48 GMT-0400 (Eastern Daylight Time),215826.19999980927,046_o_m_n_a.png,I,m,1240,2,1,2254.699999809265,213571.5,9011,NNB,A,1
2,test,3,1.0,1-Back,1,z,Fri Apr 11 2025 09:24:48 GMT-0400 (Eastern Daylight Time),217459.30000019073,046_o_m_n_a.png,I,z,605,3,1,1620.3000001907349,215839.0,9011,NNB,A,2
3,test,3,0.0,1-Back,1,m,Fri Apr 11 2025 09:24:48 GMT-0400 (Eastern Daylight Time),218992.60000038147,050_m_f_n_a.png,I,m,508,4,1,1520.8000001907349,217471.80000019073,9011,NNB,A,3
4,test,3,1.0,1-Back,1,z,Fri Apr 11 2025 09:24:48 GMT-0400 (Eastern Daylight Time),220692.60000038147,050_m_f_n_a.png,I,z,670,5,1,1687.5,219005.10000038147,9011,NNB,A,4
5,test,3,0.0,1-Back,1,m,Fri Apr 11 2025 09:24:48 GMT-0400 (Eastern Daylight Time),222225.9000005722,044_o_f_n_a.png,I,m,506,6,1,1520.8000001907349,220705.10000038147,9011,NNB,A,5
6,test,3,0.0,1-Back,1,m,Fri Apr 11 2025 09:24:48 GMT-0400 (Eastern Daylight Time),223942.80000019073,041_y_m_n_a.png,I,m,685,7,1,1705.3999996185303,222237.4000005722,9011,NNB,A,6
7,test,3,0.0,1-Back,1,m,Fri Apr 11 2025 09:24:48 GMT-0400 (Eastern Daylight Time),225509.30000019073,044_o_f_n_a.png,I,m,537,8,1,1553.5,223955.80000019073,9011,NNB,A,7
8,test,3,0.0,1-Back,1,m,Fri Apr 11 2025 09:24:48 GMT-0400 (Eastern Daylight Time),227142.69999980927,008_y_m_n_a.png,I,m,602,9,1,1620.8999996185303,225521.80000019073,9011,NNB,A,8
9,test,3,1.0,1-Back,1,z,Fri Apr 11 2025 09:24:48 GMT-0400 (Eastern Daylight Time),228842.30000019073,008_y_m_n_a.png,I,z,682,10,1,1687.3000001907349,227155.0,9011,NNB,A,9
10,test,3,0.0,1-Back,1,m,Fri Apr 11 2025 09:24:48 GMT-0400 (Eastern Daylight Time),230359.30000019073,043_m_f_n_a.png,I,m,485,11,1,1504.8000001907349,228854.5,9011,NNB,A,10
11,test,3,0.0,1-Back,1,m,Fri Apr 11 2025 09:24:48 GMT-0400 (Eastern Daylight Time),231892.60000038147,063_y_f_n_a.png,I,m,504,12,1,1520.6000003814697,230372.0,9011,NNB,A,11
12,test,3,1.0,1-Back,1,z,Fri Apr 11 2025 09:24:48 GMT-0400 (Eastern Daylight Time),233610.19999980927,063_y_f_n_a.png,I,z,699,13,1,1705.5,231904.69999980927,9011,NNB,A,12
13,test,3,0.0,1-Back,1,m,Fri Apr 11 2025 09:24:48 GMT-0400 (Eastern Daylight Time),235092.69999980927,043_m_f_n_a.png,I,m,454,14,1,1471.8999996185303,233620.80000019073,9011,NNB,A,13
14,test,3,0.0,1-Back,1,m,Fri Apr 11 2025 09:24:48 GMT-0400 (Eastern Daylight Time),236709.30000019073,058_m_m_n_a.png,I,m,570,15,1,1600.6000003814697,235108.69999980927,9011,NNB,A,14
15,test,3,1.0,1-Back,1,z,Fri Apr 11 2025 09:24:48 GMT-0400 (Eastern Daylight Time),238375.9000005722,058_m_m_n_a.png,I,z,634,16,1,1651.5,236724.4000005722,9011,NNB,A,15
16,test,3,0.0,1-Back,1,m,Fri Apr 11 2025 09:24:48 GMT-0400 (Eastern Daylight Time),239959.19999980927,047_o_f_n_a.png,I,m,535,17,1,1568.1999998092651,238391.0,9011,NNB,A,16
17,test,3,1.0,1-Back,1,z,Fri Apr 11 2025 09:24:48 GMT-0400 (Eastern Daylight Time),241709.19999980927,047_o_f_n_a.png,I,z,728,18,1,1737.2999992370605,239971.9000005722,9011,NNB,A,17
0,test,4,1.0,1-Back,,,Fri Apr 11 2025 09:24:48 GMT-0400 (Eastern Daylight Time),241709.19999980927,050_m_f_n_a.png,I,space,2026,1,1,1737.2999992370605,239971.9000005722,9011,NNB,A,0
1,test,4,0.0,1-Back,1,m,Fri Apr 11 2025 09:24:48 GMT-0400 (Eastern Daylight Time),247575.9000005722,046_o_m_n_a.png,I,m,784,2,1,1804.6000003814697,245771.30000019073,9011,NNB,A,1
2,test,4,0.0,1-Back,1,m,Fri Apr 11 2025 09:24:48 GMT-0400 (Eastern Daylight Time),249259.0,050_m_f_n_a.png,I,m,663,3,1,1671.0999994277954,247587.9000005722,9011,NNB,A,2
3,test,4,0.0,1-Back,1,m,Fri Apr 11 2025 09:24:48 GMT-0400 (Eastern Daylight Time),250942.4000005722,044_o_f_n_a.png,I,m,659,4,1,1671.2000007629395,249271.19999980927,9011,NNB,A,3
4,test,4,1.0,1-Back,1,z,Fri Apr 11 2025 09:24:48 GMT-0400 (Eastern Daylight Time),252575.9000005722,044_o_f_n_a.png,I,z,608,5,1,1622.6000003814697,250953.30000019073,9011,NNB,A,4
5,test,4,0.0,1-Back,1,m,Fri Apr 11 2025 09:24:48 GMT-0400 (Eastern Daylight Time),254626.19999980927,063_y_f_n_a.png,I,m,1023,6,1,2035.3999996185303,252590.80000019073,9011,NNB,A,5
6,test,4,0.0,1-Back,1,m,Fri Apr 11 2025 09:24:48 GMT-0400 (Eastern Daylight Time),256292.5,041_y_m_n_a.png,I,m,637,7,1,1651.3999996185303,254641.10000038147,9011,NNB,A,6
7,test,4,1.0,1-Back,1,z,Fri Apr 11 2025 09:24:48 GMT-0400 (Eastern Daylight Time),258025.80000019073,041_y_m_n_a.png,I,z,698,8,1,1717.3999996185303,256308.4000005722,9011,NNB,A,7
8,test,4,0.0,1-Back,1,m,Fri Apr 11 2025 09:24:48 GMT-0400 (Eastern Daylight Time),259725.30000019073,063_y_f_n_a.png,I,m,676,9,1,1688.6000003814697,258036.69999980927,9011,NNB,A,8
9,test,4,0.0,1-Back,1,m,Fri Apr 11 2025 09:24:48 GMT-0400 (Eastern Daylight Time),261375.9000005722,045_m_m_n_a.png,I,m,625,10,1,1640.0,259735.9000005722,9011,NNB,A,9
10,test,4,1.0,1-Back,1,z,Fri Apr 11 2025 09:24:48 GMT-0400 (Eastern Daylight Time),263126.0,045_m_m_n_a.png,I,z,719,11,1,1737.3999996185303,261388.60000038147,9011,NNB,A,10
11,test,4,0.0,1-Back,1,m,Fri Apr 11 2025 09:24:48 GMT-0400 (Eastern Daylight Time),264709.30000019073,047_o_f_n_a.png,I,m,553,12,1,1570.3000001907349,263139.0,9011,NNB,A,11
12,test,4,0.0,1-Back,1,m,Fri Apr 11 2025 09:24:48 GMT-0400 (Eastern Daylight Time),266375.9000005722,053_o_m_n_a.png,I,m,634,13,1,1653.0,264722.9000005722,9011,NNB,A,12
13,test,4,0.0,1-Back,1,m,Fri Apr 11 2025 09:24:48 GMT-0400 (Eastern Daylight Time),268009.0,047_o_f_n_a.png,I,m,599,14,1,1620.0999994277954,266388.9000005722,9011,NNB,A,13
14,test,4,0.0,1-Back,1,m,Fri Apr 11 2025 09:24:48 GMT-0400 (Eastern Daylight Time),269609.69999980927,010_y_f_n_a.png,I,m,582,15,1,1588.0999994277954,268021.60000038147,9011,NNB,A,14
15,test,4,1.0,1-Back,1,z,Fri Apr 11 2025 09:24:48 GMT-0400 (Eastern Daylight Time),271426.10000038147,010_y_f_n_a.png,I,z,773,16,1,1793.8000001907349,269632.30000019073,9011,NNB,A,15
16,test,4,0.0,1-Back,1,m,Fri Apr 11 2025 09:24:48 GMT-0400 (Eastern Daylight Time),272959.19999980927,043_m_f_n_a.png,I,m,509,17,1,1520.2999992370605,271438.9000005722,9011,NNB,A,16
17,test,4,1.0,1-Back,1,z,Fri Apr 11 2025 09:24:48 GMT-0400 (Eastern Daylight Time),274792.80000019073,043_m_f_n_a.png,I,z,800,18,1,1821.3999996185303,272971.4000005722,9011,NNB,A,17
0,test,5,1.0,1-Back,,,Fri Apr 11 2025 09:24:48 GMT-0400 (Eastern Daylight Time),274792.80000019073,053_o_m_n_a.png,I,space,2846,1,1,1821.3999996185303,272971.4000005722,9011,NNB,A,0
1,test,5,1.0,1-Back,1,z,Fri Apr 11 2025 09:24:48 GMT-0400 (Eastern Daylight Time),281675.9000005722,053_o_m_n_a.png,I,z,996,2,1,2002.1000003814697,279673.80000019073,9011,NNB,A,1
2,test,5,0.0,1-Back,1,m,Fri Apr 11 2025 09:24:48 GMT-0400 (Eastern Daylight Time),283159.30000019073,063_y_f_n_a.png,I,m,452,3,1,1471.1999998092651,281688.10000038147,9011,NNB,A,2
3,test,5,0.0,1-Back,1,m,Fri Apr 11 2025 09:24:48 GMT-0400 (Eastern Daylight Time),285142.5,041_y_m_n_a.png,I,m,952,4,1,1970.6999998092651,283171.80000019073,9011,NNB,A,3
4,test,5,0.0,1-Back,1,m,Fri Apr 11 2025 09:24:48 GMT-0400 (Eastern Daylight Time),286742.5,063_y_f_n_a.png,I,m,569,5,1,1586.8999996185303,285155.60000038147,9011,NNB,A,4
5,test,5,0.0,1-Back,1,m,Fri Apr 11 2025 09:24:48 GMT-0400 (Eastern Daylight Time),288409.60000038147,058_m_m_n_a.png,I,m,649,6,1,1654.1999998092651,286755.4000005722,9011,NNB,A,5
6,test,5,1.0,1-Back,1,z,Fri Apr 11 2025 09:24:48 GMT-0400 (Eastern Daylight Time),290059.0,058_m_m_n_a.png,I,z,630,7,1,1637.5999994277954,288421.4000005722,9011,NNB,A,6
7,test,5,0.0,1-Back,1,m,Fri Apr 11 2025 09:24:48 GMT-0400 (Eastern Daylight Time),291676.0,010_y_f_n_a.png,I,m,596,8,1,1604.6999998092651,290071.30000019073,9011,NNB,A,7
8,test,5,0.0,1-Back,1,m,Fri Apr 11 2025 09:24:48 GMT-0400 (Eastern Daylight Time),293275.80000019073,008_y_m_n_a.png,I,m,579,9,1,1588.0,291687.80000019073,9011,NNB,A,8
9,test,5,0.0,1-Back,1,m,Fri Apr 11 2025 09:24:48 GMT-0400 (Eastern Daylight Time),295675.9000005722,010_y_f_n_a.png,I,m,1380,10,1,2387.7000007629395,293288.19999980927,9011,NNB,A,9
10,test,5,0.0,1-Back,1,m,Fri Apr 11 2025 09:24:48 GMT-0400 (Eastern Daylight Time),297309.19999980927,047_o_f_n_a.png,I,m,612,11,1,1621.3999996185303,295687.80000019073,9011,NNB,A,10
11,test,5,1.0,1-Back,1,z,Fri Apr 11 2025 09:24:48 GMT-0400 (Eastern Daylight Time),299092.5,047_o_f_n_a.png,I,z,754,12,1,1771.0999994277954,297321.4000005722,9011,NNB,A,11
12,test,5,0.0,1-Back,1,m,Fri Apr 11 2025 09:24:48 GMT-0400 (Eastern Daylight Time),300759.30000019073,046_o_m_n_a.png,I,m,635,13,1,1653.8999996185303,299105.4000005722,9011,NNB,A,12
13,test,5,0.0,1-Back,1,m,Fri Apr 11 2025 09:24:48 GMT-0400 (Eastern Daylight Time),302458.9000005722,050_m_f_n_a.png,I,m,680,14,1,1686.5,300772.4000005722,9011,NNB,A,13
14,test,5,1.0,1-Back,1,z,Fri Apr 11 2025 09:24:48 GMT-0400 (Eastern Daylight Time),304042.19999980927,050_m_f_n_a.png,I,z,564,15,1,1571.0,302471.19999980927,9011,NNB,A,14
15,test,5,0.0,1-Back,1,m,Fri Apr 11 2025 09:24:48 GMT-0400 (Eastern Daylight Time),305609.19999980927,046_o_m_n_a.png,I,m,533,16,1,1554.6999998092651,304054.5,9011,NNB,A,15
16,test,5,0.0,1-Back,1,m,Fri Apr 11 2025 09:24:48 GMT-0400 (Eastern Daylight Time),307209.10000038147,043_m_f_n_a.png,I,m,566,17,1,1587.6999998092651,305621.4000005722,9011,NNB,A,16
17,test,5,0.0,1-Back,1,m,Fri Apr 11 2025 09:24:48 GMT-0400 (Eastern Daylight Time),308759.4000005722,045_m_m_n_a.png,I,m,518,18,1,1537.3000001907349,307222.10000038147,9011,NNB,A,17
0,prac,1,0.0,2-Back,,,Fri Apr 11 2025 09:24:48 GMT-0400 (Eastern Daylight Time),308759.4000005722,008_y_m_n_a.png,I,space,16094,1,1,1537.3000001907349,307222.10000038147,9011,NNB,A,0
0,prac,1,0.0,2-Back,,,Fri Apr 11 2025 09:24:48 GMT-0400 (Eastern Daylight Time),308759.4000005722,043_m_f_n_a.png,I,space,16094,2,1,1537.3000001907349,307222.10000038147,9011,NNB,A,0
1,prac,1,1.0,2-Back,1,m,Fri Apr 11 2025 09:24:48 GMT-0400 (Eastern Daylight Time),441375.9000005722,046_o_m_n_a.png,I,m,867,3,1,1702.9000005722046,439673.0,9011,NNB,A,1
1,prac,1,0.0,2-Back,0,m,Fri Apr 11 2025 09:24:48 GMT-0400 (Eastern Daylight Time),443859.19999980927,047_o_f_n_a.png,I,z,1554,4,1,2469.5999994277954,441389.60000038147,9011,NNB,A,2
1,prac,1,0.0,2-Back,0,z,Fri Apr 11 2025 09:24:48 GMT-0400 (Eastern Daylight Time),446659.0,046_o_m_n_a.png,I,None,2016,5,1,2784.8999996185303,443874.10000038147,9011,NNB,A,3
2,prac,1,1.0,2-Back,1,z,Fri Apr 11 2025 09:24:48 GMT-0400 (Eastern Daylight Time),448791.80000019073,047_o_f_n_a.png,I,z,1350,6,1,2118.800000190735,446673.0,9011,NNB,A,4
3,prac,1,0.0,2-Back,1,m,Fri Apr 11 2025 09:24:48 GMT-0400 (Eastern Daylight Time),450941.69999980927,045_m_m_n_a.png,I,m,1305,7,1,2138.3999996185303,448803.30000019073,9011,NNB,A,5
4,prac,1,0.0,2-Back,1,m,Fri Apr 11 2025 09:24:48 GMT-0400 (Eastern Daylight Time),453292.4000005722,053_o_m_n_a.png,I,m,1492,8,1,2335.6000003814697,450956.80000019073,9011,NNB,A,6
5,prac,1,0.0,2-Back,1,m,Fri Apr 11 2025 09:24:48 GMT-0400 (Eastern Daylight Time),455409.10000038147,010_y_f_n_a.png,I,m,1127,9,1,2102.9000005722046,453306.19999980927,9011,NNB,A,7
6,prac,1,1.0,2-Back,1,z,Fri Apr 11 2025 09:24:48 GMT-0400 (Eastern Daylight Time),457175.69999980927,053_o_m_n_a.png,I,z,985,10,1,1752.6999998092651,455423.0,9011,NNB,A,8
7,prac,1,0.0,2-Back,1,m,Fri Apr 11 2025 09:24:48 GMT-0400 (Eastern Daylight Time),459892.30000019073,063_y_f_n_a.png,I,m,1004,11,1,2698.5,457193.80000019073,9011,NNB,A,9
8,prac,1,0.0,2-Back,1,m,Fri Apr 11 2025 09:24:48 GMT-0400 (Eastern Daylight Time),461842.30000019073,045_m_m_n_a.png,I,m,1158,12,1,1935.3999996185303,459906.9000005722,9011,NNB,A,10
0,test,1,0.0,2-Back,,,Fri Apr 11 2025 09:24:48 GMT-0400 (Eastern Daylight Time),461842.30000019073,041_y_m_n_a.png,I,space,47914,1,1,1935.3999996185303,459906.9000005722,9011,NNB,A,0
0,test,1,0.0,2-Back,,,Fri Apr 11 2025 09:24:48 GMT-0400 (Eastern Daylight Time),461842.30000019073,041_y_m_n_a.png,I,space,47914,2,1,1935.3999996185303,459906.9000005722,9011,NNB,A,0
1,test,1,0.0,2-Back,1,m,Fri Apr 11 2025 09:24:48 GMT-0400 (Eastern Daylight Time),590659.1999998093,047_o_f_n_a.png,I,m,1239,3,1,2267.699999809265,588391.5,9011,NNB,A,1
2,test,1,0.0,2-Back,1,m,Fri Apr 11 2025 09:24:48 GMT-0400 (Eastern Daylight Time),592492.3000001907,058_m_m_n_a.png,I,m,795,4,1,1817.6999998092651,590674.6000003815,9011,NNB,A,2
3,test,1,1.0,2-Back,1,z,Fri Apr 11 2025 09:24:48 GMT-0400 (Eastern Daylight Time),594292.0,047_o_f_n_a.png,I,z,771,5,1,1786.3000001907349,592505.6999998093,9011,NNB,A,3
4,test,1,0.0,2-Back,1,m,Fri Apr 11 2025 09:24:48 GMT-0400 (Eastern Daylight Time),596208.6999998093,063_y_f_n_a.png,I,m,890,6,1,1903.2999992370605,594305.4000005722,9011,NNB,A,4
5,test,1,0.0,2-Back,1,m,Fri Apr 11 2025 09:24:48 GMT-0400 (Eastern Daylight Time),598258.8000001907,058_m_m_n_a.png,I,m,1021,7,1,2036.6000003814697,596222.1999998093,9011,NNB,A,5
6,test,1,1.0,2-Back,1,z,Fri Apr 11 2025 09:24:48 GMT-0400 (Eastern Daylight Time),600292.1999998093,063_y_f_n_a.png,I,z,1004,8,1,2020.8999996185303,598271.3000001907,9011,NNB,A,6
7,test,1,0.0,2-Back,1,m,Fri Apr 11 2025 09:24:48 GMT-0400 (Eastern Daylight Time),602275.1999998093,008_y_m_n_a.png,I,m,955,9,1,1970.1999998092651,600305.0,9011,NNB,A,7
8,test,1,0.0,2-Back,1,m,Fri Apr 11 2025 09:24:48 GMT-0400 (Eastern Daylight Time),604075.3000001907,044_o_f_n_a.png,I,m,780,10,1,1785.5,602289.8000001907,9011,NNB,A,8
9,test,1,1.0,2-Back,1,z,Fri Apr 11 2025 09:24:48 GMT-0400 (Eastern Daylight Time),605925.3000001907,008_y_m_n_a.png,I,z,820,11,1,1837.6000003814697,604087.6999998093,9011,NNB,A,9
10,test,1,0.0,2-Back,1,m,Fri Apr 11 2025 09:24:48 GMT-0400 (Eastern Daylight Time),607841.6000003815,043_m_f_n_a.png,I,m,889,12,1,1904.1000003814697,605937.5,9011,NNB,A,10
11,test,1,0.0,2-Back,1,m,Fri Apr 11 2025 09:24:48 GMT-0400 (Eastern Daylight Time),610242.1000003815,043_m_f_n_a.png,I,m,1372,13,1,2390.300000190735,607851.8000001907,9011,NNB,A,11
12,test,1,0.0,2-Back,1,m,Fri Apr 11 2025 09:24:48 GMT-0400 (Eastern Daylight Time),612408.5,046_o_m_n_a.png,I,m,1133,14,1,2153.5,610255.0,9011,NNB,A,12
13,test,1,0.0,2-Back,1,m,Fri Apr 11 2025 09:24:48 GMT-0400 (Eastern Daylight Time),614475.4000005722,044_o_f_n_a.png,I,m,1046,15,1,2053.7000007629395,612421.6999998093,9011,NNB,A,13
13,test,1,1.0,2-Back,0,z,Fri Apr 11 2025 09:24:48 GMT-0400 (Eastern Daylight Time),617475.5,046_o_m_n_a.png,I,m,1972,16,1,2986.8999996185303,614488.6000003815,9011,NNB,A,14
14,test,1,0.0,2-Back,1,m,Fri Apr 11 2025 09:24:48 GMT-0400 (Eastern Daylight Time),619724.8000001907,050_m_f_n_a.png,I,m,1227,17,1,2236.3999996185303,617488.4000005722,9011,NNB,A,15
15,test,1,0.0,2-Back,1,m,Fri Apr 11 2025 09:24:48 GMT-0400 (Eastern Daylight Time),621609.1999998093,045_m_m_n_a.png,I,m,866,18,1,1874.1999998092651,619735.0,9011,NNB,A,16
0,test,2,0.0,2-Back,,,Fri Apr 11 2025 09:24:48 GMT-0400 (Eastern Daylight Time),621609.1999998093,045_m_m_n_a.png,I,space,9374,1,1,1874.1999998092651,619735.0,9011,NNB,A,0
0,test,2,0.0,2-Back,,,Fri Apr 11 2025 09:24:48 GMT-0400 (Eastern Daylight Time),621609.1999998093,010_y_f_n_a.png,I,space,9374,2,1,1874.1999998092651,619735.0,9011,NNB,A,0
1,test,2,1.0,2-Back,1,z,Fri Apr 11 2025 09:24:48 GMT-0400 (Eastern Daylight Time),638175.4000005722,045_m_m_n_a.png,I,z,1026,3,1,2037.6000003814697,636137.8000001907,9011,NNB,A,1
2,test,2,0.0,2-Back,1,m,Fri Apr 11 2025 09:24:48 GMT-0400 (Eastern Daylight Time),639958.8000001907,050_m_f_n_a.png,I,m,753,4,1,1770.8000001907349,638188.0,9011,NNB,A,2
2,test,2,0.0,2-Back,0,m,Fri Apr 11 2025 09:24:48 GMT-0400 (Eastern Daylight Time),642992.3000001907,010_y_f_n_a.png,I,None,2016,5,1,3019.6000003814697,639972.6999998093,9011,NNB,A,3
3,test,2,0.0,2-Back,1,m,Fri Apr 11 2025 09:24:48 GMT-0400 (Eastern Daylight Time),645575.4000005722,046_o_m_n_a.png,I,m,1550,6,1,2570.800000190735,643004.6000003815,9011,NNB,A,4
4,test,2,0.0,2-Back,1,m,Fri Apr 11 2025 09:24:48 GMT-0400 (Eastern Daylight Time),647558.6000003815,063_y_f_n_a.png,I,m,952,7,1,1969.9000005722046,645588.6999998093,9011,NNB,A,5
5,test,2,1.0,2-Back,1,z,Fri Apr 11 2025 09:24:48 GMT-0400 (Eastern Daylight Time),649358.6000003815,046_o_m_n_a.png,I,z,776,8,1,1786.6000003814697,647572.0,9011,NNB,A,6
6,test,2,0.0,2-Back,1,m,Fri Apr 11 2025 09:24:48 GMT-0400 (Eastern Daylight Time),651175.3000001907,008_y_m_n_a.png,I,m,784,9,1,1804.0,649371.3000001907,9011,NNB,A,7
7,test,2,0.0,2-Back,1,m,Fri Apr 11 2025 09:24:48 GMT-0400 (Eastern Daylight Time),653192.1000003815,008_y_m_n_a.png,I,m,984,10,1,2004.1999998092651,651187.9000005722,9011,NNB,A,8
8,test,2,0.0,2-Back,1,m,Fri Apr 11 2025 09:24:48 GMT-0400 (Eastern Daylight Time),655092.1000003815,043_m_f_n_a.png,I,m,871,11,1,1886.5,653205.6000003815,9011,NNB,A,9
9,test,2,0.0,2-Back,1,m,Fri Apr 11 2025 09:24:48 GMT-0400 (Eastern Daylight Time),657558.6999998093,010_y_f_n_a.png,I,m,1434,12,1,2453.3999996185303,655105.3000001907,9011,NNB,A,10
10,test,2,1.0,2-Back,1,z,Fri Apr 11 2025 09:24:48 GMT-0400 (Eastern Daylight Time),659475.3000001907,043_m_f_n_a.png,I,z,887,13,1,1903.8999996185303,657571.4000005722,9011,NNB,A,11
11,test,2,0.0,2-Back,1,m,Fri Apr 11 2025 09:24:48 GMT-0400 (Eastern Daylight Time),661408.6000003815,053_o_m_n_a.png,I,m,908,14,1,1921.1999998092651,659487.4000005722,9011,NNB,A,12
12,test,2,0.0,2-Back,1,m,Fri Apr 11 2025 09:24:48 GMT-0400 (Eastern Daylight Time),663675.1999998093,053_o_m_n_a.png,I,m,1247,15,1,2252.699999809265,661422.5,9011,NNB,A,13
13,test,2,0.0,2-Back,1,m,Fri Apr 11 2025 09:24:48 GMT-0400 (Eastern Daylight Time),666208.6999998093,044_o_f_n_a.png,I,m,1507,16,1,2520.199999809265,663688.5,9011,NNB,A,14
14,test,2,0.0,2-Back,1,m,Fri Apr 11 2025 09:24:48 GMT-0400 (Eastern Daylight Time),668342.1000003815,058_m_m_n_a.png,I,m,1102,17,1,2121.1000003814697,666221.0,9011,NNB,A,15
15,test,2,1.0,2-Back,1,z,Fri Apr 11 2025 09:24:48 GMT-0400 (Eastern Daylight Time),670292.0,044_o_f_n_a.png,I,z,920,18,1,1936.8000001907349,668355.1999998093,9011,NNB,A,16
0,test,3,1.0,2-Back,,,Fri Apr 11 2025 09:24:48 GMT-0400 (Eastern Daylight Time),670292.0,041_y_m_n_a.png,I,space,2098,1,1,1936.8000001907349,668355.1999998093,9011,NNB,A,0
0,test,3,1.0,2-Back,,,Fri Apr 11 2025 09:24:48 GMT-0400 (Eastern Daylight Time),670292.0,041_y_m_n_a.png,I,space,2098,2,1,1936.8000001907349,668355.1999998093,9011,NNB,A,0
1,test,3,0.0,2-Back,1,m,Fri Apr 11 2025 09:24:48 GMT-0400 (Eastern Daylight Time),679325.3000001907,044_o_f_n_a.png,I,m,795,3,1,1803.8999996185303,677521.4000005722,9011,NNB,A,1
2,test,3,0.0,2-Back,1,m,Fri Apr 11 2025 09:24:48 GMT-0400 (Eastern Daylight Time),681108.0,045_m_m_n_a.png,I,m,753,4,1,1769.8000001907349,679338.1999998093,9011,NNB,A,2
3,test,3,1.0,2-Back,1,z,Fri Apr 11 2025 09:24:48 GMT-0400 (Eastern Daylight Time),682841.4000005722,044_o_f_n_a.png,I,z,714,5,1,1722.6000003814697,681118.8000001907,9011,NNB,A,3
4,test,3,0.0,2-Back,1,m,Fri Apr 11 2025 09:24:48 GMT-0400 (Eastern Daylight Time),684708.6000003815,008_y_m_n_a.png,I,m,838,6,1,1857.6000003814697,682851.0,9011,NNB,A,4
5,test,3,0.0,2-Back,1,m,Fri Apr 11 2025 09:24:48 GMT-0400 (Eastern Daylight Time),687608.5,045_m_m_n_a.png,I,m,1865,7,1,2887.0,684721.5,9011,NNB,A,5
6,test,3,1.0,2-Back,1,z,Fri Apr 11 2025 09:24:48 GMT-0400 (Eastern Daylight Time),689658.4000005722,008_y_m_n_a.png,I,z,1031,8,1,2037.6000003814697,687620.8000001907,9011,NNB,A,6
7,test,3,0.0,2-Back,1,m,Fri Apr 11 2025 09:24:48 GMT-0400 (Eastern Daylight Time),691541.8000001907,010_y_f_n_a.png,I,m,852,9,1,1870.5,689671.3000001907,9011,NNB,A,7
8,test,3,0.0,2-Back,1,m,Fri Apr 11 2025 09:24:48 GMT-0400 (Eastern Daylight Time),693292.0,058_m_m_n_a.png,I,m,728,10,1,1736.6999998092651,691555.3000001907,9011,NNB,A,8
9,test,3,1.0,2-Back,1,z,Fri Apr 11 2025 09:24:48 GMT-0400 (Eastern Daylight Time),695125.3000001907,010_y_f_n_a.png,I,z,802,11,1,1820.8000001907349,693304.5,9011,NNB,A,9
10,test,3,1.0,2-Back,1,z,Fri Apr 11 2025 09:24:48 GMT-0400 (Eastern Daylight Time),697091.9000005722,058_m_m_n_a.png,I,z,937,12,1,1953.7000007629395,695138.1999998093,9011,NNB,A,10
11,test,3,0.0,2-Back,1,m,Fri Apr 11 2025 09:24:48 GMT-0400 (Eastern Daylight Time),698841.6000003815,044_o_f_n_a.png,I,m,730,13,1,1736.6999998092651,697104.9000005722,9011,NNB,A,11
12,test,3,0.0,2-Back,1,m,Fri Apr 11 2025 09:24:48 GMT-0400 (Eastern Daylight Time),700725.3000001907,050_m_f_n_a.png,I,m,854,14,1,1871.3000001907349,698854.0,9011,NNB,A,12
13,test,3,0.0,2-Back,1,m,Fri Apr 11 2025 09:24:48 GMT-0400 (Eastern Daylight Time),702458.3000001907,046_o_m_n_a.png,I,m,713,15,1,1719.8000001907349,700738.5,9011,NNB,A,13
14,test,3,1.0,2-Back,1,z,Fri Apr 11 2025 09:24:48 GMT-0400 (Eastern Daylight Time),704342.1000003815,050_m_f_n_a.png,I,z,852,16,1,1871.3000001907349,702470.8000001907,9011,NNB,A,14
15,test,3,0.0,2-Back,1,m,Fri Apr 11 2025 09:24:48 GMT-0400 (Eastern Daylight Time),706291.9000005722,047_o_f_n_a.png,I,m,920,17,1,1937.3000001907349,704354.6000003815,9011,NNB,A,15
16,test,3,0.0,2-Back,1,m,Fri Apr 11 2025 09:24:48 GMT-0400 (Eastern Daylight Time),708208.5,047_o_f_n_a.png,I,m,890,18,1,1903.3000001907349,706305.1999998093,9011,NNB,A,16
0,test,4,0.0,2-Back,,,Fri Apr 11 2025 09:24:48 GMT-0400 (Eastern Daylight Time),708208.5,053_o_m_n_a.png,I,space,1925,1,1,1903.3000001907349,706305.1999998093,9011,NNB,A,0
0,test,4,0.0,2-Back,,,Fri Apr 11 2025 09:24:48 GMT-0400 (Eastern Daylight Time),708208.5,063_y_f_n_a.png,I,space,1925,2,1,1903.3000001907349,706305.1999998093,9011,NNB,A,0
1,test,4,1.0,2-Back,1,z,Fri Apr 11 2025 09:24:48 GMT-0400 (Eastern Daylight Time),717208.1000003815,053_o_m_n_a.png,I,z,882,3,1,1903.8000001907349,715304.3000001907,9011,NNB,A,1
2,test,4,1.0,2-Back,1,z,Fri Apr 11 2025 09:24:48 GMT-0400 (Eastern Daylight Time),719158.9000005722,063_y_f_n_a.png,I,z,920,4,1,1941.4000005722046,717217.5,9011,NNB,A,2
3,test,4,0.0,2-Back,1,m,Fri Apr 11 2025 09:24:48 GMT-0400 (Eastern Daylight Time),721058.5,044_o_f_n_a.png,I,m,872,5,1,1885.0999994277954,719173.4000005722,9011,NNB,A,3
4,test,4,0.0,2-Back,1,m,Fri Apr 11 2025 09:24:48 GMT-0400 (Eastern Daylight Time),723392.0,044_o_f_n_a.png,I,m,1308,6,1,2321.0,721071.0,9011,NNB,A,4
5,test,4,0.0,2-Back,1,m,Fri Apr 11 2025 09:24:48 GMT-0400 (Eastern Daylight Time),725291.9000005722,043_m_f_n_a.png,I,m,878,7,1,1886.2000007629395,723405.6999998093,9011,NNB,A,5
6,test,4,0.0,2-Back,1,m,Fri Apr 11 2025 09:24:48 GMT-0400 (Eastern Daylight Time),727075.1999998093,008_y_m_n_a.png,I,m,755,8,1,1770.8999996185303,725304.3000001907,9011,NNB,A,6
7,test,4,1.0,2-Back,1,z,Fri Apr 11 2025 09:24:48 GMT-0400 (Eastern Daylight Time),728975.3000001907,043_m_f_n_a.png,I,z,876,9,1,1887.3000001907349,727088.0,9011,NNB,A,7
8,test,4,0.0,2-Back,1,m,Fri Apr 11 2025 09:24:48 GMT-0400 (Eastern Daylight Time),730809.3000001907,058_m_m_n_a.png,I,m,816,10,1,1820.6999998092651,728988.6000003815,9011,NNB,A,8
9,test,4,0.0,2-Back,1,m,Fri Apr 11 2025 09:24:48 GMT-0400 (Eastern Daylight Time),733125.1999998093,008_y_m_n_a.png,I,m,1286,11,1,2305.0999994277954,730820.1000003815,9011,NNB,A,9
10,test,4,0.0,2-Back,1,m,Fri Apr 11 2025 09:24:48 GMT-0400 (Eastern Daylight Time),735341.6999998093,047_o_f_n_a.png,I,m,1193,12,1,2203.7999992370605,733137.9000005722,9011,NNB,A,10
11,test,4,0.0,2-Back,1,m,Fri Apr 11 2025 09:24:48 GMT-0400 (Eastern Daylight Time),737258.4000005722,041_y_m_n_a.png,I,m,896,13,1,1902.1000003814697,735356.3000001907,9011,NNB,A,11
12,test,4,1.0,2-Back,1,z,Fri Apr 11 2025 09:24:48 GMT-0400 (Eastern Daylight Time),739325.1999998093,047_o_f_n_a.png,I,z,1045,14,1,2054.2999992370605,737270.9000005722,9011,NNB,A,12
13,test,4,1.0,2-Back,1,z,Fri Apr 11 2025 09:24:48 GMT-0400 (Eastern Daylight Time),741741.8000001907,041_y_m_n_a.png,I,z,1393,15,1,2403.1000003814697,739338.6999998093,9011,NNB,A,13
14,test,4,0.0,2-Back,1,m,Fri Apr 11 2025 09:24:48 GMT-0400 (Eastern Daylight Time),743508.5,045_m_m_n_a.png,I,m,720,16,1,1749.1999998092651,741759.3000001907,9011,NNB,A,14
15,test,4,0.0,2-Back,1,m,Fri Apr 11 2025 09:24:48 GMT-0400 (Eastern Daylight Time),745208.6000003815,050_m_f_n_a.png,I,m,649,17,1,1684.3000001907349,743524.3000001907,9011,NNB,A,15
16,test,4,1.0,2-Back,1,z,Fri Apr 11 2025 09:24:48 GMT-0400 (Eastern Daylight Time),747008.3000001907,045_m_m_n_a.png,I,z,774,18,1,1785.1000003814697,745223.1999998093,9011,NNB,A,16
0,test,5,1.0,2-Back,,,Fri Apr 11 2025 09:24:48 GMT-0400 (Eastern Daylight Time),747008.3000001907,041_y_m_n_a.png,I,space,1687,1,1,1785.1000003814697,745223.1999998093,9011,NNB,A,0
0,test,5,1.0,2-Back,,,Fri Apr 11 2025 09:24:48 GMT-0400 (Eastern Daylight Time),747008.3000001907,050_m_f_n_a.png,I,space,1687,2,1,1785.1000003814697,745223.1999998093,9011,NNB,A,0
1,test,5,1.0,2-Back,1,z,Fri Apr 11 2025 09:24:48 GMT-0400 (Eastern Daylight Time),755891.8000001907,041_y_m_n_a.png,I,z,1005,3,1,2070.300000190735,753821.5,9011,NNB,A,1
2,test,5,1.0,2-Back,1,z,Fri Apr 11 2025 09:24:48 GMT-0400 (Eastern Daylight Time),757775.3000001907,050_m_f_n_a.png,I,z,858,4,1,1870.8999996185303,755904.4000005722,9011,NNB,A,2
3,test,5,0.0,2-Back,1,m,Fri Apr 11 2025 09:24:48 GMT-0400 (Eastern Daylight Time),759741.9000005722,047_o_f_n_a.png,I,m,944,5,1,1953.3000001907349,757788.6000003815,9011,NNB,A,3
4,test,5,0.0,2-Back,1,m,Fri Apr 11 2025 09:24:48 GMT-0400 (Eastern Daylight Time),761908.5,041_y_m_n_a.png,I,m,1136,6,1,2153.5,759755.0,9011,NNB,A,4
5,test,5,0.0,2-Back,1,m,Fri Apr 11 2025 09:24:48 GMT-0400 (Eastern Daylight Time),763941.6999998093,010_y_f_n_a.png,I,m,1004,7,1,2020.7999992370605,761920.9000005722,9011,NNB,A,5
6,test,5,0.0,2-Back,1,m,Fri Apr 11 2025 09:24:48 GMT-0400 (Eastern Daylight Time),766125.1999998093,047_o_f_n_a.png,I,m,1161,8,1,2171.5,763953.6999998093,9011,NNB,A,6
7,test,5,1.0,2-Back,1,z,Fri Apr 11 2025 09:24:48 GMT-0400 (Eastern Daylight Time),768091.5,010_y_f_n_a.png,I,z,945,9,1,1953.3999996185303,766138.1000003815,9011,NNB,A,7
8,test,5,0.0,2-Back,1,m,Fri Apr 11 2025 09:24:48 GMT-0400 (Eastern Daylight Time),769791.8000001907,046_o_m_n_a.png,I,m,674,10,1,1690.0,768101.8000001907,9011,NNB,A,8
9,test,5,0.0,2-Back,1,m,Fri Apr 11 2025 09:24:48 GMT-0400 (Eastern Daylight Time),771675.1000003815,043_m_f_n_a.png,I,m,863,11,1,1870.8000001907349,769804.3000001907,9011,NNB,A,9
10,test,5,0.0,2-Back,1,m,Fri Apr 11 2025 09:24:48 GMT-0400 (Eastern Daylight Time),773525.1999998093,058_m_m_n_a.png,I,m,819,12,1,1834.0,771691.1999998093,9011,NNB,A,10
11,test,5,0.0,2-Back,1,m,Fri Apr 11 2025 09:24:48 GMT-0400 (Eastern Daylight Time),775675.1000003815,046_o_m_n_a.png,I,m,1129,13,1,2134.1000003814697,773541.0,9011,NNB,A,11
12,test,5,1.0,2-Back,1,z,Fri Apr 11 2025 09:24:48 GMT-0400 (Eastern Daylight Time),777975.1000003815,058_m_m_n_a.png,I,z,1267,14,1,2285.4000005722046,775689.6999998093,9011,NNB,A,12
13,test,5,0.0,2-Back,1,m,Fri Apr 11 2025 09:24:48 GMT-0400 (Eastern Daylight Time),779891.4000005722,063_y_f_n_a.png,I,m,888,15,1,1902.6000003814697,777988.8000001907,9011,NNB,A,13
14,test,5,0.0,2-Back,1,m,Fri Apr 11 2025 09:24:48 GMT-0400 (Eastern Daylight Time),781825.3000001907,053_o_m_n_a.png,I,m,907,16,1,1922.8000001907349,779902.5,9011,NNB,A,14
15,test,5,0.0,2-Back,1,m,Fri Apr 11 2025 09:24:48 GMT-0400 (Eastern Daylight Time),783491.9000005722,043_m_f_n_a.png,I,m,637,17,1,1653.9000005722046,781838.0,9011,NNB,A,15
16,test,5,1.0,2-Back,1,z,Fri Apr 11 2025 09:24:48 GMT-0400 (Eastern Daylight Time),785541.6999998093,053_o_m_n_a.png,I,z,1018,18,1,2037.3999996185303,783504.3000001907,9011,NNB,A,16
