acc_sum,block,block_c,condition,correct,correct_response,datetime,endtime,flanker,jitter,project,response,response_test_buffer_response,response_test_target_response,response_time,response_time_test_buffer_response,response_time_test_target_response,row_sel,session_number,start_end,starttime,subject_id,target,task,task_vers,time_test_buffer,time_test_buffer_response,time_test_constants,time_test_flanker,time_test_jitter,time_test_logger,time_test_target,time_test_target_response,time_test_variables,trial
0,prac,1,inc,0,z,Tue Mar 18 2025 15:31:51 GMT-0500 (Central Daylight Time),128313.59999999998,lead,1100,I,None,,,1799,,,8,1,5160.699999999953,123152.90000000002,8035,plum,NF,C,,,,,,,,,,1
0,prac,1,inc,0,m,Tue Mar 18 2025 15:31:51 GMT-0500 (Central Daylight Time),131279.29999999993,raisin,1100,I,z,,,466,,,12,1,2960.5999999999767,128318.69999999995,8035,cobalt,NF,C,,,,,,,,,,2
0,prac,1,inc,0,m,Tue Mar 18 2025 15:31:51 GMT-0500 (Central Daylight Time),133761.79999999993,cherry,900,I,z,,,281,,,10,1,2478.0999999999767,131283.69999999995,8035,copper,NF,C,,,,,,,,,,3
0,prac,1,inc,0,z,Tue Mar 18 2025 15:31:51 GMT-0500 (Central Daylight Time),136311.0,cobalt,1100,I,m,,,135,,,4,1,2543.9000000000233,133767.09999999998,8035,raisin,NF,C,,,,,,,,,,4
1,prac,1,con,1,z,Tue Mar 18 2025 15:31:51 GMT-0500 (Central Daylight Time),138793.79999999993,orange,1000,I,z,,,181,,,3,1,2478.29999999993,136315.5,8035,orange,NF,C,,,,,,,,,,5
1,prac,1,inc,0,z,Tue Mar 18 2025 15:31:51 GMT-0500 (Central Daylight Time),141092.69999999995,copper,900,I,m,,,87,,,2,1,2294.5,138798.19999999995,8035,cherry,NF,C,,,,,,,,,,6
2,prac,1,con,1,z,Tue Mar 18 2025 15:31:51 GMT-0500 (Central Daylight Time),143241.79999999993,lime,800,I,z,,,48,,,5,1,2144.5999999999767,141097.19999999995,8035,lime,NF,C,,,,,,,,,,7
3,prac,1,con,1,z,Tue Mar 18 2025 15:31:51 GMT-0500 (Central Daylight Time),145524.69999999995,banana,800,I,z,,,170,,,1,1,2278.5999999999767,143246.09999999998,8035,banana,NF,C,,,,,,,,,,8
4,prac,1,con,1,z,Tue Mar 18 2025 15:31:51 GMT-0500 (Central Daylight Time),147891.79999999993,kiwi,1000,I,z,,,56,,,7,1,2362.79999999993,145529.0,8035,kiwi,NF,C,,,,,,,,,,9
5,prac,1,con,1,m,Tue Mar 18 2025 15:31:51 GMT-0500 (Central Daylight Time),150339.69999999995,silver,1000,I,m,,,145,,,11,1,2443.0,147896.69999999995,8035,silver,NF,C,,,,,,,,,,10
5,prac,1,inc,0,m,Tue Mar 18 2025 15:31:51 GMT-0500 (Central Daylight Time),152638.90000000002,pear,900,I,z,,,84,,,14,1,2293.8000000000466,150345.09999999998,8035,iron,NF,C,,,,,,,,,,11
6,prac,1,con,1,m,Tue Mar 18 2025 15:31:51 GMT-0500 (Central Daylight Time),154788.40000000002,bronze,800,I,m,,,37,,,9,1,2145.4000000000233,152643.0,8035,bronze,NF,C,,,,,,,,,,12
6,prac,1,con,0,m,Tue Mar 18 2025 15:31:51 GMT-0500 (Central Daylight Time),157120.90000000002,zinc,1000,I,z,,,23,,,15,1,2326.9000000000233,154794.0,8035,zinc,NF,C,,,,,,,,,,13
6,prac,1,inc,0,z,Tue Mar 18 2025 15:31:51 GMT-0500 (Central Daylight Time),159686.90000000002,iron,900,I,m,,,359,,,6,1,2561.70000000007,157125.19999999995,8035,pear,NF,C,,,,,,,,,,14
7,prac,1,con,1,m,Tue Mar 18 2025 15:31:51 GMT-0500 (Central Daylight Time),161936.09999999998,gold,800,I,m,,,134,,,13,1,2244.0999999999767,159692.0,8035,gold,NF,C,,,,,,,,,,15
7,prac,1,inc,0,m,Tue Mar 18 2025 15:31:51 GMT-0500 (Central Daylight Time),167101.19999999995,plum,1100,I,None,,,1799,,,16,1,5161.099999999977,161940.09999999998,8035,lead,NF,C,,,,,,,,,,16
0,prac,2,inc,0,z,Tue Mar 18 2025 15:31:51 GMT-0500 (Central Daylight Time),175781.79999999993,lead,1100,I,m,,,311,,,8,1,2711.6999999999534,173070.09999999998,8035,plum,NF,C,,,,,,,,,,1
1,prac,2,con,1,m,Tue Mar 18 2025 15:31:51 GMT-0500 (Central Daylight Time),178247.79999999993,zinc,1000,I,m,,,159,,,15,1,2460.6999999999534,175787.09999999998,8035,zinc,NF,C,,,,,,,,,,2
2,prac,2,con,1,z,Tue Mar 18 2025 15:31:51 GMT-0500 (Central Daylight Time),180430.40000000002,lime,800,I,z,,,68,,,5,1,2177.5,178252.90000000002,8035,lime,NF,C,,,,,,,,,,3
2,prac,2,inc,0,m,Tue Mar 18 2025 15:31:51 GMT-0500 (Central Daylight Time),182896.29999999993,plum,1100,I,z,,,57,,,16,1,2461.29999999993,180435.0,8035,lead,NF,C,,,,,,,,,,4
2,prac,2,inc,0,m,Tue Mar 18 2025 15:31:51 GMT-0500 (Central Daylight Time),185345.59999999998,raisin,1100,I,z,,,48,,,12,1,2443.9000000000233,182901.69999999995,8035,cobalt,NF,C,,,,,,,,,,5
2,prac,2,con,0,z,Tue Mar 18 2025 15:31:51 GMT-0500 (Central Daylight Time),190410.59999999998,kiwi,1000,I,None,,,1800,,,7,1,5059.900000000023,185350.69999999995,8035,kiwi,NF,C,,,,,,,,,,6
3,prac,2,con,1,m,Tue Mar 18 2025 15:31:51 GMT-0500 (Central Daylight Time),193193.09999999998,gold,800,I,m,,,681,,,13,1,2777.4000000000233,190415.69999999995,8035,gold,NF,C,,,,,,,,,,7
4,prac,2,con,1,m,Tue Mar 18 2025 15:31:51 GMT-0500 (Central Daylight Time),195825.59999999998,silver,1000,I,m,,,324,,,11,1,2628.0999999999767,193197.5,8035,silver,NF,C,,,,,,,,,,8
5,prac,2,inc,1,m,Tue Mar 18 2025 15:31:51 GMT-0500 (Central Daylight Time),199174.5,cherry,900,I,m,,,1134,,,10,1,3343.5999999999767,195830.90000000002,8035,copper,NF,C,,,,,,,,,,9
6,prac,2,inc,1,m,Tue Mar 18 2025 15:31:51 GMT-0500 (Central Daylight Time),202107.0,pear,900,I,m,,,621,,,14,1,2927.20000000007,199179.79999999993,8035,iron,NF,C,,,,,,,,,,10
7,prac,2,inc,1,z,Tue Mar 18 2025 15:31:51 GMT-0500 (Central Daylight Time),204939.19999999995,copper,900,I,z,,,622,,,2,1,2827.5,202111.69999999995,8035,cherry,NF,C,,,,,,,,,,11
8,prac,2,inc,1,z,Tue Mar 18 2025 15:31:51 GMT-0500 (Central Daylight Time),208021.69999999995,cobalt,1100,I,z,,,670,,,4,1,3078.29999999993,204943.40000000002,8035,raisin,NF,C,,,,,,,,,,12
9,prac,2,con,1,m,Tue Mar 18 2025 15:31:51 GMT-0500 (Central Daylight Time),210837.5,bronze,800,I,m,,,703,,,9,1,2811.0,208026.5,8035,bronze,NF,C,,,,,,,,,,13
10,prac,2,con,1,z,Tue Mar 18 2025 15:31:51 GMT-0500 (Central Daylight Time),213803.09999999998,orange,1000,I,z,,,663,,,3,1,2960.3000000000466,210842.79999999993,8035,orange,NF,C,,,,,,,,,,14
11,prac,2,inc,1,z,Tue Mar 18 2025 15:31:51 GMT-0500 (Central Daylight Time),216669.0,iron,900,I,z,,,661,,,6,1,2861.0999999999767,213807.90000000002,8035,pear,NF,C,,,,,,,,,,15
12,prac,2,con,1,z,Tue Mar 18 2025 15:31:51 GMT-0500 (Central Daylight Time),219484.69999999995,banana,800,I,z,,,712,,,1,1,2811.5,216673.19999999995,8035,banana,NF,C,,,,,,,,,,16
1,test,1,con,1,m,Tue Mar 18 2025 15:31:51 GMT-0500 (Central Daylight Time),237345.79999999993,lead,1100,I,m,m,None,707,508.0,199.0,124,1,2345.5999999999767,235000.19999999995,8035,lead,NF,C,232923,232923,231093,232206,231094,233439,232723,232723,233439,1
2,test,1,inc,1,m,Tue Mar 18 2025 15:31:51 GMT-0500 (Central Daylight Time),239278.59999999998,lime,800,I,m,m,None,586,386.0,200.0,109,1,1927.9000000000233,237350.69999999995,8035,iron,NF,C,234972,234972,233444,234256,233444,235372,234772,234772,235372,2
3,test,1,inc,1,z,Tue Mar 18 2025 15:31:51 GMT-0500 (Central Daylight Time),241127.90000000002,bronze,800,I,z,z,None,509,310.0,199.0,21,1,1843.5,239284.40000000002,8035,orange,NF,C,236905,236905,235377,236189,235378,237221,236705,236705,237221,3
4,test,1,inc,1,m,Tue Mar 18 2025 15:31:51 GMT-0500 (Central Daylight Time),243227.29999999993,pear,900,I,m,m,None,657,457.0,200.0,102,1,2095.1999999999534,241132.09999999998,8035,gold,NF,C,238854,238854,237225,238138,237225,239320,238654,238654,239320,4
5,test,1,con,1,m,Tue Mar 18 2025 15:31:51 GMT-0500 (Central Daylight Time),245560.0,bronze,900,I,m,m,None,892,693.0,199.0,66,1,2328.5999999999767,243231.40000000002,8035,bronze,NF,C,240954,240954,239324,240239,239325,241653,240754,240754,241653,5
6,test,1,con,1,z,Tue Mar 18 2025 15:31:51 GMT-0500 (Central Daylight Time),247959.19999999995,orange,1100,I,z,z,None,659,453.0,206.0,20,1,2394.6999999999534,245564.5,8035,orange,NF,C,243586,243586,241658,242770,241658,244052,243380,243380,244052,6
7,test,1,inc,1,z,Tue Mar 18 2025 15:31:51 GMT-0500 (Central Daylight Time),250642.0,lead,1100,I,z,z,None,1050,850.0,200.0,56,1,2678.5999999999767,247963.40000000002,8035,kiwi,NF,C,245885,245885,244056,245169,244057,246735,245685,245685,246735,7
8,test,1,inc,1,m,Tue Mar 18 2025 15:31:51 GMT-0500 (Central Daylight Time),253074.40000000002,orange,1000,I,m,m,None,891,691.0,200.0,87,1,2428.3000000000466,250646.09999999998,8035,silver,NF,C,248468,248468,246739,247751,246740,249167,248268,248268,249167,8
9,test,1,con,1,z,Tue Mar 18 2025 15:31:51 GMT-0500 (Central Daylight Time),255190.40000000002,cherry,900,I,z,z,None,670,470.0,200.0,10,1,2112.100000000093,253078.29999999993,8035,cherry,NF,C,250801,250801,249171,250084,249172,251284,250600,250600,251283,9
10,test,1,con,1,m,Tue Mar 18 2025 15:31:51 GMT-0500 (Central Daylight Time),257373.09999999998,lead,900,I,m,m,None,746,547.0,199.0,122,1,2178.8000000000466,255194.29999999993,8035,lead,NF,C,252916,252916,251287,252200,251288,253466,252717,252717,253466,10
11,test,1,inc,1,m,Tue Mar 18 2025 15:31:51 GMT-0500 (Central Daylight Time),259655.5,pear,900,I,m,m,None,844,644.0,200.0,118,1,2278.5,257377.0,8035,zinc,NF,C,255099,255099,253470,254383,253470,255749,254899,254899,255749,11
12,test,1,con,1,m,Tue Mar 18 2025 15:31:51 GMT-0500 (Central Daylight Time),261521.90000000002,cobalt,900,I,m,m,None,424,225.0,199.0,90,1,1862.2000000000698,259659.69999999995,8035,cobalt,NF,C,257382,257382,255753,256665,255753,257615,257182,257182,257615,12
13,test,1,con,1,z,Tue Mar 18 2025 15:31:51 GMT-0500 (Central Daylight Time),263687.79999999993,raisin,1000,I,z,z,None,618,419.0,199.0,27,1,2162.3000000000466,261525.49999999988,8035,raisin,NF,C,259348,259348,257618,258631,257619,259781,259148,259148,259781,13
14,test,1,inc,1,z,Tue Mar 18 2025 15:31:51 GMT-0500 (Central Daylight Time),266220.29999999993,zinc,1000,I,z,z,None,989,789.0,200.0,63,1,2528.8000000000466,263691.4999999999,8035,plum,NF,C,261514,261514,259784,260797,259785,262313,261314,261314,262313,14
15,test,1,con,1,z,Tue Mar 18 2025 15:31:51 GMT-0500 (Central Daylight Time),268586.20000000007,raisin,1100,I,z,z,None,717,517.0,200.0,28,1,2362.0,266224.20000000007,8035,raisin,NF,C,264146,264146,262317,263430,262317,264679,263946,263946,264679,15
16,test,1,con,1,z,Tue Mar 18 2025 15:31:51 GMT-0500 (Central Daylight Time),271018.70000000007,pear,1100,I,z,z,None,799,599.0,200.0,44,1,2428.5,268590.20000000007,8035,pear,NF,C,266512,266512,264683,265796,264684,267112,266312,266312,267112,16
17,test,1,con,1,m,Tue Mar 18 2025 15:31:51 GMT-0500 (Central Daylight Time),273401.4,iron,1000,I,m,m,None,850,651.0,199.0,107,1,2378.600000000093,271022.79999999993,8035,iron,NF,C,268828,268828,267116,268128,267116,269494,268629,268629,269494,17
18,test,1,con,1,m,Tue Mar 18 2025 15:31:51 GMT-0500 (Central Daylight Time),275650.6,gold,1000,I,m,m,None,707,508.0,199.0,99,1,2245.3000000000466,273405.29999999993,8035,gold,NF,C,271227,271227,269498,270511,269499,271744,271028,271028,271744,18
19,test,1,inc,1,z,Tue Mar 18 2025 15:31:51 GMT-0500 (Central Daylight Time),277866.4999999999,iron,900,I,z,z,None,782,583.0,199.0,38,1,2212.0999999998603,275654.4,8035,lime,NF,C,273376,273376,271747,272660,271748,273959,273177,273177,273959,19
20,test,1,inc,1,z,Tue Mar 18 2025 15:31:51 GMT-0500 (Central Daylight Time),280398.9999999999,lead,1100,I,z,z,None,886,687.0,199.0,40,1,2528.899999999907,277870.1,8035,lime,NF,C,275792,275792,273963,275076,273963,276492,275593,275593,276492,20
21,test,1,inc,1,z,Tue Mar 18 2025 15:31:51 GMT-0500 (Central Daylight Time),282764.9999999999,cobalt,1100,I,z,z,None,722,522.0,200.0,32,1,2360.899999999907,280404.1,8035,raisin,NF,C,278325,278325,276497,277608,276497,278858,278125,278125,278858,21
22,test,1,con,1,z,Tue Mar 18 2025 15:31:51 GMT-0500 (Central Daylight Time),285048.79999999993,pear,900,I,z,z,None,835,636.0,199.0,42,1,2280.1999999999534,282768.6,8035,pear,NF,C,280491,280491,278862,279775,278862,281142,280292,280292,281142,22
23,test,1,inc,1,z,Tue Mar 18 2025 15:31:51 GMT-0500 (Central Daylight Time),287097.29999999993,bronze,800,I,z,z,None,700,500.0,200.0,5,1,2044.5,285052.79999999993,8035,banana,NF,C,282674,282674,281146,281958,281146,283190,282474,282474,283190,23
24,test,1,inc,1,m,Tue Mar 18 2025 15:31:51 GMT-0500 (Central Daylight Time),289229.9,cherry,900,I,m,m,None,696,496.0,200.0,86,1,2129.0,287100.9,8035,silver,NF,C,284823,284823,283194,284107,283194,285323,284623,284623,285323,24
25,test,1,con,1,z,Tue Mar 18 2025 15:31:51 GMT-0500 (Central Daylight Time),291628.9999999999,lime,800,I,z,z,None,1063,863.0,200.0,33,1,2395.399999999907,289233.6,8035,lime,NF,C,286856,286856,285327,286139,285327,287722,286656,286656,287722,25
26,test,1,con,1,m,Tue Mar 18 2025 15:31:51 GMT-0500 (Central Daylight Time),293861.4,zinc,900,I,m,m,None,796,596.0,200.0,114,1,2228.4000000001397,291632.9999999999,8035,zinc,NF,C,289355,289355,287726,288639,287726,289954,289155,289155,289954,26
27,test,1,inc,1,z,Tue Mar 18 2025 15:31:51 GMT-0500 (Central Daylight Time),295794.29999999993,gold,800,I,z,z,None,590,391.0,199.0,45,1,1929.0999999998603,293865.20000000007,8035,pear,NF,C,291488,291488,289958,290771,289959,291887,291288,291288,291887,27
28,test,1,inc,1,m,Tue Mar 18 2025 15:31:51 GMT-0500 (Central Daylight Time),298043.6,raisin,1100,I,m,m,None,607,407.0,200.0,80,1,2245.399999999907,295798.20000000007,8035,copper,NF,C,293720,293720,291891,293004,291892,294137,293520,293520,294137,28
29,test,1,inc,1,z,Tue Mar 18 2025 15:31:51 GMT-0500 (Central Daylight Time),300094.1,iron,900,I,z,z,None,604,405.0,199.0,46,1,2046.6999999999534,298047.4,8035,pear,NF,C,295770,295770,294140,295053,294141,296187,295570,295570,296187,29
30,test,1,inc,1,z,Tue Mar 18 2025 15:31:51 GMT-0500 (Central Daylight Time),302075.70000000007,gold,800,I,z,z,None,640,440.0,200.0,53,1,1977.7000000001863,300097.9999999999,8035,kiwi,NF,C,297719,297719,296191,297003,296191,298169,297519,297519,298169,30
31,test,1,inc,1,m,Tue Mar 18 2025 15:31:51 GMT-0500 (Central Daylight Time),304424.9999999999,plum,1100,I,m,m,None,708,509.0,199.0,128,1,2345.399999999907,302079.6,8035,lead,NF,C,300002,300002,298173,299286,298173,300518,299802,299802,300518,31
32,test,1,con,1,m,Tue Mar 18 2025 15:31:51 GMT-0500 (Central Daylight Time),306790.9,copper,1000,I,m,m,None,820,620.0,200.0,75,1,2362.0,304428.9,8035,copper,NF,C,302251,302251,300522,301534,300522,302884,302051,302051,302884,32
33,test,1,inc,1,z,Tue Mar 18 2025 15:31:51 GMT-0500 (Central Daylight Time),308956.9999999999,copper,900,I,z,z,None,730,530.0,200.0,6,1,2162.2999999998137,306794.70000000007,8035,banana,NF,C,304517,304517,302888,303800,302888,305050,304317,304317,305050,33
34,test,1,con,1,m,Tue Mar 18 2025 15:31:51 GMT-0500 (Central Daylight Time),311157.29999999993,bronze,800,I,m,m,None,856,656.0,200.0,65,1,2196.5,308960.79999999993,8035,bronze,NF,C,306583,306583,305054,305866,305054,307250,306383,306383,307250,34
35,test,1,con,1,z,Tue Mar 18 2025 15:31:51 GMT-0500 (Central Daylight Time),314205.20000000007,lime,1000,I,z,z,None,1504,1305.0,199.0,35,1,3043.7000000001863,311161.4999999999,8035,lime,NF,C,308982,308982,307254,308266,307255,310298,308783,308783,310298,35
36,test,1,con,1,m,Tue Mar 18 2025 15:31:51 GMT-0500 (Central Daylight Time),316371.1,bronze,1000,I,m,m,None,632,432.0,200.0,67,1,2162.399999999907,314208.70000000007,8035,bronze,NF,C,312031,312031,310302,311315,310302,312464,311831,311831,312464,36
37,test,1,inc,1,z,Tue Mar 18 2025 15:31:51 GMT-0500 (Central Daylight Time),318420.70000000007,gold,800,I,z,z,None,682,480.0,202.0,37,1,2045.8000000000466,316374.9,8035,lime,NF,C,314031,314031,312468,313281,312468,314514,313829,313829,314514,37
38,test,1,inc,1,m,Tue Mar 18 2025 15:31:51 GMT-0500 (Central Daylight Time),320553.4,lime,800,I,m,m,None,791,592.0,199.0,117,1,2128.8000000000466,318424.6,8035,zinc,NF,C,316047,316047,314518,315330,314518,316646,315847,315847,316646,38
39,test,1,con,1,m,Tue Mar 18 2025 15:31:51 GMT-0500 (Central Daylight Time),323219.1,cobalt,1100,I,m,m,None,1024,824.0,200.0,92,1,2662.100000000093,320556.9999999999,8035,cobalt,NF,C,318479,318479,316650,317763,316650,319312,318279,318279,319312,39
40,test,1,inc,1,z,Tue Mar 18 2025 15:31:51 GMT-0500 (Central Daylight Time),325401.79999999993,silver,1000,I,z,z,None,642,442.0,200.0,31,1,2179.0,323222.79999999993,8035,raisin,NF,C,321045,321045,319316,320329,319316,321495,320845,320845,321495,40
41,test,1,con,1,z,Tue Mar 18 2025 15:31:51 GMT-0500 (Central Daylight Time),328067.79999999993,kiwi,1100,I,z,z,None,1023,823.0,200.0,52,1,2661.8000000000466,325405.9999999999,8035,kiwi,NF,C,323328,323328,321499,322611,321499,324161,323128,323128,324161,41
42,test,1,con,1,z,Tue Mar 18 2025 15:31:51 GMT-0500 (Central Daylight Time),330250.1,plum,800,I,z,z,None,833,634.0,199.0,57,1,2178.399999999907,328071.70000000007,8035,plum,NF,C,325693,325693,324165,324977,324165,326343,325494,325494,326343,42
43,test,1,inc,1,z,Tue Mar 18 2025 15:31:51 GMT-0500 (Central Daylight Time),332882.6,iron,900,I,z,z,None,1190,991.0,199.0,54,1,2628.8000000000466,330253.79999999993,8035,kiwi,NF,C,327976,327976,326347,327260,326347,328976,327777,327777,328976,43
44,test,1,con,1,m,Tue Mar 18 2025 15:31:51 GMT-0500 (Central Daylight Time),335598.4999999999,gold,1100,I,m,m,None,1078,878.0,200.0,100,1,2712.0999999998603,332886.4,8035,gold,NF,C,330809,330809,328979,330092,328980,331692,330609,330609,331691,44
45,test,1,con,1,z,Tue Mar 18 2025 15:31:51 GMT-0500 (Central Daylight Time),337997.79999999993,pear,800,I,z,z,None,1061,862.0,199.0,41,1,2395.399999999907,335602.4,8035,pear,NF,C,333225,333225,331695,332508,331696,334091,333025,333025,334091,45
46,test,1,inc,1,z,Tue Mar 18 2025 15:31:51 GMT-0500 (Central Daylight Time),340180.4,copper,900,I,z,z,None,738,539.0,199.0,30,1,2179.0,338001.4,8035,raisin,NF,C,335724,335724,334094,335008,334095,336273,335524,335524,336273,46
47,test,1,inc,1,m,Tue Mar 18 2025 15:31:51 GMT-0500 (Central Daylight Time),342362.9,lime,800,I,m,m,None,856,657.0,199.0,101,1,2178.8000000000466,340184.1,8035,gold,NF,C,337790,337790,336277,337090,336277,338456,337591,337591,338456,47
48,test,1,con,1,z,Tue Mar 18 2025 15:31:51 GMT-0500 (Central Daylight Time),344495.79999999993,banana,1000,I,z,z,None,594,394.0,200.0,3,1,2129.0,342366.79999999993,8035,banana,NF,C,340189,340189,338460,339474,338460,340589,339989,339989,340589,48
49,test,1,con,1,z,Tue Mar 18 2025 15:31:51 GMT-0500 (Central Daylight Time),346678.29999999993,cherry,800,I,z,z,None,860,645.0,215.0,9,1,2178.5999999998603,344499.70000000007,8035,cherry,NF,C,342122,342122,340593,341405,340593,342771,341907,341907,342771,49
50,test,1,con,1,z,Tue Mar 18 2025 15:31:51 GMT-0500 (Central Daylight Time),348894.29999999993,kiwi,1000,I,z,z,None,671,471.0,200.0,51,1,2212.1999999999534,346682.1,8035,kiwi,NF,C,344504,344504,342775,343788,342775,344987,344304,344304,344987,50
51,test,1,inc,1,z,Tue Mar 18 2025 15:31:51 GMT-0500 (Central Daylight Time),351193.6,zinc,1000,I,z,z,None,758,557.0,201.0,55,1,2295.399999999907,348898.20000000007,8035,kiwi,NF,C,346721,346722,344991,346004,344992,347287,346520,346520,347287,51
52,test,1,con,1,m,Tue Mar 18 2025 15:31:51 GMT-0500 (Central Daylight Time),353609.6,zinc,1100,I,m,m,None,767,567.0,200.0,116,1,2412.0,351197.6,8035,zinc,NF,C,349120,349120,347291,348403,347291,349703,348919,348919,349703,52
53,test,1,con,1,m,Tue Mar 18 2025 15:31:51 GMT-0500 (Central Daylight Time),355975.4999999999,silver,1000,I,m,m,None,827,628.0,199.0,83,1,2362.0999999998603,353613.4,8035,silver,NF,C,351435,351435,349706,350719,349707,352068,351236,351236,352068,53
54,test,1,inc,1,z,Tue Mar 18 2025 15:31:51 GMT-0500 (Central Daylight Time),358557.9,silver,1000,I,z,z,None,1036,837.0,199.0,23,1,2578.8000000000466,355979.1,8035,orange,NF,C,353802,353802,352072,353085,352072,354651,353602,353602,354651,54
55,test,1,inc,1,z,Tue Mar 18 2025 15:31:51 GMT-0500 (Central Daylight Time),360824.20000000007,copper,900,I,z,z,None,818,619.0,199.0,22,1,2262.5,358561.70000000007,8035,orange,NF,C,356284,356284,354655,355568,354655,356917,356084,356085,356917,55
56,test,1,con,1,z,Tue Mar 18 2025 15:31:51 GMT-0500 (Central Daylight Time),362973.20000000007,plum,900,I,z,z,None,713,513.0,200.0,58,1,2145.4000000001397,360827.79999999993,8035,plum,NF,C,358550,358550,356921,357834,356921,359066,358350,358350,359066,56
57,test,1,con,1,m,Tue Mar 18 2025 15:31:51 GMT-0500 (Central Daylight Time),365389.4,cobalt,1000,I,m,m,None,871,575.0,296.0,91,1,2412.3000000000466,362977.1,8035,cobalt,NF,C,360896,360896,359070,360083,359070,361482,360600,360600,361482,57
58,test,1,inc,1,m,Tue Mar 18 2025 15:31:51 GMT-0500 (Central Daylight Time),367505.20000000007,cherry,900,I,m,m,None,668,468.0,200.0,94,1,2112.100000000093,365393.1,8035,cobalt,NF,C,363115,363115,361486,362399,361486,363598,362915,362915,363598,58
59,test,1,con,1,z,Tue Mar 18 2025 15:31:51 GMT-0500 (Central Daylight Time),370070.9,orange,1000,I,z,z,None,1020,820.0,200.0,19,1,2562.0,367508.9,8035,orange,NF,C,365331,365331,363602,364615,363602,366164,365131,365131,366164,59
60,test,1,inc,1,z,Tue Mar 18 2025 15:31:51 GMT-0500 (Central Daylight Time),372303.70000000007,silver,1000,I,z,z,None,686,486.0,200.0,7,1,2229.0,370074.70000000007,8035,banana,NF,C,367897,367897,366168,367181,366168,368397,367697,367697,368397,60
61,test,1,inc,1,z,Tue Mar 18 2025 15:31:51 GMT-0500 (Central Daylight Time),374869.6,bronze,800,I,z,z,None,1221,1020.0,201.0,29,1,2562.3000000000466,372307.29999999993,8035,raisin,NF,C,369931,369931,368400,369213,368401,370963,369730,369730,370962,61
62,test,1,inc,1,m,Tue Mar 18 2025 15:31:51 GMT-0500 (Central Daylight Time),377185.4,plum,1100,I,m,m,None,674,475.0,199.0,112,1,2311.600000000093,374873.79999999993,8035,iron,NF,C,372796,372796,370967,372079,370967,373278,372596,372596,373278,62
63,test,1,con,1,z,Tue Mar 18 2025 15:31:51 GMT-0500 (Central Daylight Time),379284.9,banana,800,I,z,z,None,762,563.0,199.0,1,1,2095.5,377189.4,8035,banana,NF,C,374812,374812,373282,374095,373283,375378,374612,374612,375378,63
64,test,1,inc,1,m,Tue Mar 18 2025 15:31:51 GMT-0500 (Central Daylight Time),381534.1,orange,1000,I,m,m,None,703,504.0,199.0,71,1,2245.5,379288.6,8035,bronze,NF,C,377111,377111,375382,376395,375382,377627,376911,376911,377627,64
65,test,1,inc,1,z,Tue Mar 18 2025 15:31:51 GMT-0500 (Central Daylight Time),383666.9999999999,zinc,1000,I,z,z,None,591,391.0,200.0,39,1,2129.0999999998603,381537.9,8035,lime,NF,C,379360,379360,377631,378644,377631,379760,379160,379160,379760,65
66,test,1,con,1,z,Tue Mar 18 2025 15:31:51 GMT-0500 (Central Daylight Time),385749.4999999999,orange,900,I,z,z,None,638,438.0,200.0,18,1,2078.5999999998603,383670.9,8035,orange,NF,C,381393,381393,379764,380678,379764,381842,381193,381193,381842,66
67,test,1,con,1,m,Tue Mar 18 2025 15:31:51 GMT-0500 (Central Daylight Time),387798.79999999993,cobalt,800,I,m,m,None,703,504.0,199.0,89,1,2045.3000000000466,385753.4999999999,8035,cobalt,NF,C,383375,383375,381846,382659,381847,383892,383176,383176,383892,67
68,test,1,inc,1,m,Tue Mar 18 2025 15:31:51 GMT-0500 (Central Daylight Time),389831.4999999999,banana,800,I,m,m,None,694,494.0,200.0,77,1,2028.6999999999534,387802.79999999993,8035,copper,NF,C,385425,385425,383896,384708,383896,385925,385225,385225,385924,68
69,test,1,inc,1,m,Tue Mar 18 2025 15:31:51 GMT-0500 (Central Daylight Time),391997.4999999999,raisin,1100,I,m,m,None,521,322.0,199.0,72,1,2162.399999999907,389835.1,8035,bronze,NF,C,387757,387757,385928,387041,385928,388090,387557,387558,388090,69
70,test,1,inc,1,m,Tue Mar 18 2025 15:31:51 GMT-0500 (Central Daylight Time),393997.9999999999,banana,800,I,m,m,None,662,463.0,199.0,85,1,1996.5999999998603,392001.4,8035,silver,NF,C,389624,389624,388094,388907,388095,390091,389424,389424,390091,70
71,test,1,inc,1,z,Tue Mar 18 2025 15:31:51 GMT-0500 (Central Daylight Time),396562.4999999999,lead,1100,I,z,z,None,931,732.0,199.0,48,1,2560.6999999999534,394001.79999999993,8035,pear,NF,C,391923,391923,390095,391206,390095,392655,391723,391723,392655,71
72,test,1,con,1,m,Tue Mar 18 2025 15:31:51 GMT-0500 (Central Daylight Time),398695.4,iron,900,I,m,m,None,685,486.0,199.0,106,1,2129.1999999999534,396566.20000000007,8035,iron,NF,C,394289,394289,392659,393572,392659,394788,394089,394089,394788,72
73,test,1,con,1,m,Tue Mar 18 2025 15:31:51 GMT-0500 (Central Daylight Time),401027.9999999999,iron,1100,I,m,m,None,688,489.0,199.0,108,1,2328.6999999999534,398699.29999999993,8035,iron,NF,C,396622,396622,394792,395905,394793,397121,396423,396423,397121,73
74,test,1,inc,1,z,Tue Mar 18 2025 15:31:51 GMT-0500 (Central Daylight Time),403293.9999999999,copper,900,I,z,z,None,829,629.0,200.0,14,1,2262.1999999999534,401031.79999999993,8035,cherry,NF,C,398754,398754,397125,398038,397125,399387,398554,398554,399387,74
75,test,1,con,1,m,Tue Mar 18 2025 15:31:51 GMT-0500 (Central Daylight Time),405893.1,silver,800,I,m,m,None,1263,1063.0,200.0,81,1,2595.5,403297.6,8035,silver,NF,C,400920,400920,399391,400204,399391,401986,400720,400720,401986,75
76,test,1,con,1,m,Tue Mar 18 2025 15:31:51 GMT-0500 (Central Daylight Time),408108.9999999999,lead,1000,I,m,m,None,680,480.0,200.0,123,1,2211.899999999907,405897.1,8035,lead,NF,C,403719,403719,401990,403004,401991,404202,403519,403519,404202,76
77,test,1,con,1,m,Tue Mar 18 2025 15:31:51 GMT-0500 (Central Daylight Time),410258.70000000007,zinc,800,I,m,m,None,808,608.0,200.0,113,1,2145.4000000001397,408113.29999999993,8035,zinc,NF,C,405735,405735,404206,405019,404207,406352,405535,405535,406352,77
78,test,1,inc,1,z,Tue Mar 18 2025 15:31:51 GMT-0500 (Central Daylight Time),412524.4,lead,1100,I,z,z,None,637,431.0,206.0,64,1,2261.9000000001397,410262.4999999999,8035,plum,NF,C,408184,408184,406355,407468,406356,408617,407978,407978,408617,78
79,test,1,con,1,m,Tue Mar 18 2025 15:31:51 GMT-0500 (Central Daylight Time),415373.4999999999,zinc,1000,I,m,m,None,1312,1113.0,199.0,115,1,2845.5999999998603,412527.9,8035,zinc,NF,C,410350,410350,408621,409634,408621,411466,410151,410151,411466,79
80,test,1,inc,1,m,Tue Mar 18 2025 15:31:51 GMT-0500 (Central Daylight Time),417589.4,orange,1000,I,m,m,None,670,471.0,199.0,79,1,2212.100000000093,415377.29999999993,8035,copper,NF,C,413200,413200,411470,412483,411471,413682,413000,413000,413682,80
81,test,1,inc,1,m,Tue Mar 18 2025 15:31:51 GMT-0500 (Central Daylight Time),419922.20000000007,plum,1100,I,m,m,None,683,484.0,199.0,104,1,2329.0,417593.20000000007,8035,gold,NF,C,415515,415515,413686,414799,413686,416015,415316,415316,416015,81
82,test,1,inc,1,z,Tue Mar 18 2025 15:31:51 GMT-0500 (Central Daylight Time),422287.9999999999,cobalt,1100,I,z,z,None,726,527.0,199.0,24,1,2361.7999999998137,419926.20000000007,8035,orange,NF,C,417848,417848,416019,417132,416020,418381,417649,417649,418381,82
83,test,1,inc,1,m,Tue Mar 18 2025 15:31:51 GMT-0500 (Central Daylight Time),424753.70000000007,pear,900,I,m,m,None,1025,825.0,200.0,110,1,2462.0,422291.70000000007,8035,iron,NF,C,420014,420014,418385,419298,418385,420847,419814,419814,420847,83
84,test,1,con,1,m,Tue Mar 18 2025 15:31:51 GMT-0500 (Central Daylight Time),426686.70000000007,iron,800,I,m,m,None,587,386.0,201.0,105,1,1929.0,424757.70000000007,8035,iron,NF,C,422381,422381,420851,421664,420851,422780,422180,422180,422780,84
85,test,1,inc,1,z,Tue Mar 18 2025 15:31:51 GMT-0500 (Central Daylight Time),429352.4999999999,cobalt,1100,I,z,z,None,1025,825.0,200.0,8,1,2661.899999999907,426690.6,8035,banana,NF,C,424614,424614,422784,423896,422784,425445,424413,424413,425445,85
86,test,1,con,1,z,Tue Mar 18 2025 15:31:51 GMT-0500 (Central Daylight Time),432234.9999999999,pear,1000,I,z,z,None,1340,1141.0,199.0,43,1,2878.899999999907,429356.1,8035,pear,NF,C,427178,427178,425449,426462,425449,428328,426979,426979,428328,86
87,test,1,inc,1,m,Tue Mar 18 2025 15:31:51 GMT-0500 (Central Daylight Time),434368.79999999993,pear,900,I,m,m,None,693,494.0,199.0,126,1,2129.899999999907,432238.9,8035,lead,NF,C,429960,429961,428332,429244,428332,430462,429761,429761,430462,87
88,test,1,inc,1,z,Tue Mar 18 2025 15:31:51 GMT-0500 (Central Daylight Time),436650.20000000007,iron,900,I,z,z,None,724,525.0,199.0,62,1,2277.5,434372.70000000007,8035,plum,NF,C,432210,432210,430466,431506,430466,432743,432011,432011,432743,88
89,test,1,inc,1,z,Tue Mar 18 2025 15:31:51 GMT-0500 (Central Daylight Time),438482.70000000007,gold,800,I,z,z,None,498,299.0,199.0,61,1,1828.9000000001397,436653.79999999993,8035,plum,NF,C,434276,434276,432747,433560,432747,434576,434076,434077,434576,89
90,test,1,con,1,m,Tue Mar 18 2025 15:31:51 GMT-0500 (Central Daylight Time),440632.4,silver,900,I,m,m,None,702,502.0,200.0,82,1,2145.6999999999534,438486.70000000007,8035,silver,NF,C,436209,436209,434580,435492,434580,436725,436009,436009,436725,90
91,test,1,inc,1,z,Tue Mar 18 2025 15:31:51 GMT-0500 (Central Daylight Time),442814.79999999993,zinc,1000,I,z,z,None,637,437.0,200.0,47,1,2178.5999999998603,440636.20000000007,8035,pear,NF,C,438458,438458,436729,437742,436730,438908,438258,438258,438908,91
92,test,1,inc,1,m,Tue Mar 18 2025 15:31:51 GMT-0500 (Central Daylight Time),445597.6,raisin,1100,I,m,m,None,1145,946.0,199.0,88,1,2778.6999999999534,442818.9,8035,silver,NF,C,440741,440741,438912,440024,438912,441691,440541,440541,441691,92
93,test,1,con,1,z,Tue Mar 18 2025 15:31:51 GMT-0500 (Central Daylight Time),447630.1,banana,900,I,z,z,None,587,388.0,199.0,2,1,2028.6999999999534,445601.4,8035,banana,NF,C,443323,443323,441694,442607,441695,443723,443124,443124,443723,93
94,test,1,con,1,m,Tue Mar 18 2025 15:31:51 GMT-0500 (Central Daylight Time),449812.79999999993,bronze,1100,I,m,m,None,547,347.0,200.0,68,1,2178.899999999907,447633.9,8035,bronze,NF,C,445556,445556,443727,444840,443727,445906,445356,445356,445906,94
95,test,1,inc,1,m,Tue Mar 18 2025 15:31:51 GMT-0500 (Central Daylight Time),452045.6,orange,1000,I,m,m,None,688,488.0,200.0,95,1,2228.6999999999534,449816.9,8035,cobalt,NF,C,447639,447639,445910,446922,445910,448139,447439,447439,448139,95
96,test,1,con,1,m,Tue Mar 18 2025 15:31:51 GMT-0500 (Central Daylight Time),454477.9999999999,lead,800,I,m,m,None,1087,888.0,199.0,121,1,2428.5999999998603,452049.4,8035,lead,NF,C,449671,449671,448142,448955,448143,450571,449472,449472,450571,96
97,test,1,con,1,z,Tue Mar 18 2025 15:31:51 GMT-0500 (Central Daylight Time),456527.20000000007,raisin,800,I,z,z,None,703,503.0,200.0,25,1,2045.2000000001863,454481.9999999999,8035,raisin,NF,C,452104,452104,450575,451388,450575,452620,451904,451904,452620,97
98,test,1,inc,1,m,Tue Mar 18 2025 15:31:51 GMT-0500 (Central Daylight Time),458476.70000000007,banana,800,I,m,m,None,604,405.0,199.0,69,1,1945.7000000001863,456530.9999999999,8035,bronze,NF,C,454154,454154,452624,453437,452624,454570,453954,453954,454570,98
99,test,1,inc,1,z,Tue Mar 18 2025 15:31:51 GMT-0500 (Central Daylight Time),461159.4,silver,1000,I,z,z,None,1143,944.0,199.0,15,1,2678.9000000001397,458480.4999999999,8035,cherry,NF,C,456302,456303,454573,455586,454574,457252,456103,456103,457252,99
100,test,1,inc,1,m,Tue Mar 18 2025 15:31:51 GMT-0500 (Central Daylight Time),463408.4,cherry,900,I,m,m,None,808,593.0,215.0,70,1,2245.1999999999534,461163.20000000007,8035,bronze,NF,C,458902,458902,457256,458169,457256,459501,458687,458687,459501,100
100,test,1,inc,0,z,Tue Mar 18 2025 15:31:51 GMT-0500 (Central Daylight Time),466740.9999999999,bronze,800,I,None,None,None,1799,1799.0,199.0,13,1,3329.0,463411.9999999999,8035,cherry,NF,C,461035,461035,459505,460318,459505,462834,460835,460835,462834,101
101,test,1,con,1,z,Tue Mar 18 2025 15:31:51 GMT-0500 (Central Daylight Time),469023.29999999993,banana,1100,I,z,z,None,635,436.0,199.0,4,1,2278.8000000000466,466744.4999999999,8035,banana,NF,C,464667,464667,462837,463950,462838,465116,464467,464467,465116,102
102,test,1,con,1,z,Tue Mar 18 2025 15:31:51 GMT-0500 (Central Daylight Time),471206.1,plum,1000,I,z,z,None,638,438.0,200.0,59,1,2178.899999999907,469027.20000000007,8035,plum,NF,C,466849,466849,465120,466133,465120,467299,466649,466649,467299,103
103,test,1,con,1,m,Tue Mar 18 2025 15:31:51 GMT-0500 (Central Daylight Time),473405.4999999999,copper,1100,I,m,m,None,563,363.0,200.0,76,1,2195.7999999998137,471209.70000000007,8035,copper,NF,C,469132,469132,467303,468415,467303,469499,468932,468932,469498,104
104,test,1,con,1,m,Tue Mar 18 2025 15:31:51 GMT-0500 (Central Daylight Time),475337.9999999999,copper,800,I,m,m,None,592,392.0,200.0,73,1,1929.0,473408.9999999999,8035,copper,NF,C,471031,471031,469502,470315,469502,471431,470831,470831,471431,105
105,test,1,con,1,z,Tue Mar 18 2025 15:31:51 GMT-0500 (Central Daylight Time),477704.1,lime,1100,I,z,z,None,719,519.0,200.0,36,1,2362.5,475341.6,8035,lime,NF,C,473264,473264,471435,472548,471435,473797,473064,473064,473797,106
106,test,1,con,1,z,Tue Mar 18 2025 15:31:51 GMT-0500 (Central Daylight Time),480069.9999999999,plum,1100,I,z,z,None,721,521.0,200.0,60,1,2362.0999999998603,477707.9,8035,plum,NF,C,475630,475630,473801,474913,473801,476163,475430,475430,476163,107
107,test,1,con,1,z,Tue Mar 18 2025 15:31:51 GMT-0500 (Central Daylight Time),482169.20000000007,cherry,1100,I,z,z,None,459,259.0,200.0,12,1,2095.7000000001863,480073.4999999999,8035,cherry,NF,C,477996,477996,476166,477279,476167,478262,477796,477796,478262,108
108,test,1,con,1,z,Tue Mar 18 2025 15:31:51 GMT-0500 (Central Daylight Time),484001.9999999999,lime,900,I,z,z,None,392,192.0,200.0,34,1,1829.2999999998137,482172.70000000007,8035,lime,NF,C,479895,479895,478266,479179,478266,480095,479695,479695,480095,109
109,test,1,inc,1,m,Tue Mar 18 2025 15:31:51 GMT-0500 (Central Daylight Time),486234.70000000007,plum,1100,I,m,m,None,591,391.0,200.0,120,1,2228.9000000001397,484005.79999999993,8035,zinc,NF,C,481928,481928,480099,481212,480099,482328,481728,481728,482328,110
110,test,1,inc,1,m,Tue Mar 18 2025 15:31:51 GMT-0500 (Central Daylight Time),488583.9,raisin,1100,I,m,m,None,709,510.0,199.0,96,1,2345.5,486238.4,8035,cobalt,NF,C,484161,484161,482331,483444,482332,484677,483961,483961,484677,111
111,test,1,inc,1,m,Tue Mar 18 2025 15:31:51 GMT-0500 (Central Daylight Time),490884.1,kiwi,1000,I,m,m,None,764,565.0,199.0,103,1,2296.1999999999534,488587.9,8035,gold,NF,C,486410,486410,484681,485695,484681,486977,486210,486210,486977,112
112,test,1,inc,1,m,Tue Mar 18 2025 15:31:51 GMT-0500 (Central Daylight Time),492799.20000000007,cherry,900,I,m,m,None,470,270.0,200.0,78,1,1911.4000000001397,490887.79999999993,8035,copper,NF,C,488609,488609,486981,487894,486981,488892,488409,488409,488892,113
112,test,1,con,0,z,Tue Mar 18 2025 15:31:51 GMT-0500 (Central Daylight Time),494598.4,kiwi,800,I,m,m,None,462,262.0,200.0,49,1,1795.3000000000466,492803.1,8035,kiwi,NF,C,490425,490425,488896,489708,488896,490691,490225,490225,490691,114
113,test,1,con,1,z,Tue Mar 18 2025 15:31:51 GMT-0500 (Central Daylight Time),496614.79999999993,raisin,900,I,z,z,None,577,378.0,199.0,26,1,2012.6999999999534,494602.1,8035,raisin,NF,C,492324,492325,490695,491608,490695,492708,492125,492125,492708,115
114,test,1,con,1,z,Tue Mar 18 2025 15:31:51 GMT-0500 (Central Daylight Time),498797.4,cherry,1000,I,z,z,None,637,438.0,199.0,11,1,2179.0,496618.4,8035,cherry,NF,C,494441,494441,492711,493724,492712,494890,494241,494241,494890,116
115,test,1,con,1,m,Tue Mar 18 2025 15:31:51 GMT-0500 (Central Daylight Time),500946.9,copper,900,I,m,m,None,699,500.0,199.0,74,1,2145.4000000001397,498801.4999999999,8035,copper,NF,C,496523,496523,494894,495807,494895,497040,496324,496324,497040,117
116,test,1,inc,1,m,Tue Mar 18 2025 15:31:51 GMT-0500 (Central Daylight Time),502996.4,lime,800,I,m,m,None,705,506.0,199.0,125,1,2045.5,500950.9,8035,lead,NF,C,498573,498573,497044,497856,497044,499089,498373,498373,499089,118
117,test,1,con,1,m,Tue Mar 18 2025 15:31:51 GMT-0500 (Central Daylight Time),505478.6,silver,1100,I,m,m,None,845,645.0,200.0,84,1,2478.600000000093,502999.9999999999,8035,silver,NF,C,500922,500922,499093,500206,499093,501572,500722,500722,501572,119
118,test,1,inc,1,m,Tue Mar 18 2025 15:31:51 GMT-0500 (Central Daylight Time),507727.9,kiwi,1000,I,m,m,None,709,510.0,199.0,127,1,2245.600000000093,505482.29999999993,8035,lead,NF,C,503305,503305,501575,502588,501575,503821,503105,503105,503821,120
119,test,1,inc,1,m,Tue Mar 18 2025 15:31:51 GMT-0500 (Central Daylight Time),509743.9,kiwi,1000,I,m,m,None,477,277.0,200.0,119,1,2012.1999999999534,507731.70000000007,8035,zinc,NF,C,505554,505554,503825,504837,503825,505837,505354,505354,505837,121
120,test,1,con,1,m,Tue Mar 18 2025 15:31:51 GMT-0500 (Central Daylight Time),511743.20000000007,gold,800,I,m,m,None,660,461.0,199.0,97,1,1995.3000000000466,509747.9,8035,gold,NF,C,507370,507370,505841,506654,505841,507836,507170,507170,507836,122
121,test,1,con,1,m,Tue Mar 18 2025 15:31:51 GMT-0500 (Central Daylight Time),513892.6,gold,900,I,m,m,None,714,514.0,200.0,98,1,2145.899999999907,511746.70000000007,8035,gold,NF,C,509469,509469,507840,508754,507840,509986,509269,509269,509986,123
122,test,1,inc,1,z,Tue Mar 18 2025 15:31:51 GMT-0500 (Central Daylight Time),516142.1,cobalt,1100,I,z,z,None,611,412.0,199.0,16,1,2245.8000000000466,513896.29999999993,8035,cherry,NF,C,511818,511819,509989,511102,509989,512235,511619,511619,512235,124
123,test,1,con,1,z,Tue Mar 18 2025 15:31:51 GMT-0500 (Central Daylight Time),517974.70000000007,orange,800,I,z,z,None,495,295.0,200.0,17,1,1829.0,516145.70000000007,8035,orange,NF,C,513768,513768,512239,513052,512239,514068,513568,513568,514068,125
124,test,1,inc,1,m,Tue Mar 18 2025 15:31:51 GMT-0500 (Central Daylight Time),520124.1,kiwi,1000,I,m,m,None,606,406.0,200.0,111,1,2145.600000000093,517978.4999999999,8035,iron,NF,C,515801,515801,514071,515084,514072,516217,515601,515601,516217,126
125,test,1,inc,1,m,Tue Mar 18 2025 15:31:51 GMT-0500 (Central Daylight Time),522073.4999999999,banana,800,I,m,m,None,616,401.0,215.0,93,1,1944.8999999999069,520128.6,8035,cobalt,NF,C,517750,517750,516222,517033,516222,518166,517535,517535,518166,127
126,test,1,con,1,z,Tue Mar 18 2025 15:31:51 GMT-0500 (Central Daylight Time),524056.1,kiwi,900,I,z,z,None,535,336.0,199.0,50,1,1978.8999999999069,522077.20000000007,8035,kiwi,NF,C,519799,519799,518170,519083,518170,520149,519600,519600,520149,128
