block_c,block_dur,condition,countdown,datetime,endtime,list,multichar_response,project,response,response_time,session_number,start_end,starttime,subject_id,task,task_vers,trial
,,,,Wed Nov 06 2024 14:43:38 GMT-0600 (Central Standard Time),,,,O,space,366,1,,,7033,WL,C,
prac,,0,,Wed Nov 06 2024 14:43:38 GMT-0600 (Central Standard Time),,NA,b,O,b,3345,1,,,7033,WL,C,1.0
prac,,0,,Wed Nov 06 2024 14:43:38 GMT-0600 (Central Standard Time),,NA,bo,O,o,249,1,,,7033,WL,C,1.0
prac,,0,,Wed Nov 06 2024 14:43:38 GMT-0600 (Central Standard Time),,NA,boo,O,o,121,1,,,7033,WL,C,1.0
prac,,0,,Wed Nov 06 2024 14:43:38 GMT-0600 (Central Standard Time),,NA,booa,O,a,133,1,,,7033,WL,C,1.0
prac,,0,,Wed Nov 06 2024 14:43:38 GMT-0600 (Central Standard Time),,NA,booat,O,t,222,1,,,7033,WL,C,1.0
prac,,0,,Wed Nov 06 2024 14:43:38 GMT-0600 (Central Standard Time),,NA,booatr,O,r,2,1,,,7033,WL,C,1.0
prac,,0,,Wed Nov 06 2024 14:43:38 GMT-0600 (Central Standard Time),,NA,booat,O,backspace,495,1,,,7033,WL,C,1.0
prac,,0,,Wed Nov 06 2024 14:43:38 GMT-0600 (Central Standard Time),,NA,booa,O,backspace,182,1,,,7033,WL,C,1.0
prac,,0,,Wed Nov 06 2024 14:43:38 GMT-0600 (Central Standard Time),,NA,boo,O,backspace,352,1,,,7033,WL,C,1.0
prac,,0,,Wed Nov 06 2024 14:43:38 GMT-0600 (Central Standard Time),,NA,booa,O,a,235,1,,,7033,WL,C,1.0
prac,,0,,Wed Nov 06 2024 14:43:38 GMT-0600 (Central Standard Time),,NA,boo,O,backspace,710,1,,,7033,WL,C,1.0
prac,,0,,Wed Nov 06 2024 14:43:38 GMT-0600 (Central Standard Time),,NA,boos,O,s,926,1,,,7033,WL,C,1.0
prac,,0,,Wed Nov 06 2024 14:43:38 GMT-0600 (Central Standard Time),,NA,boost,O,t,714,1,,,7033,WL,C,1.0
prac,,0,,Wed Nov 06 2024 14:43:38 GMT-0600 (Central Standard Time),,NA,boostenter,O,enter,722,1,,,7033,WL,C,1.0
1,2.5160000324249268,learn,57483.99996757507,Wed Nov 06 2024 14:43:38 GMT-0600 (Central Standard Time),154745.70000004768,A,t,O,t,2498,1,2515.399999856949,152230.30000019073,7033,WL,C,1.0
1,2.7170000076293945,learn,57282.999992370605,Wed Nov 06 2024 14:43:38 GMT-0600 (Central Standard Time),154946.90000009537,A,to,O,o,180,1,2716.5999999046326,152230.30000019073,7033,WL,C,1.0
1,2.882999897003174,learn,57117.000102996826,Wed Nov 06 2024 14:43:38 GMT-0600 (Central Standard Time),155113.0,A,tow,O,w,134,1,2882.699999809265,152230.30000019073,7033,WL,C,1.0
1,3.049999952316284,learn,56950.000047683716,Wed Nov 06 2024 14:43:38 GMT-0600 (Central Standard Time),155279.80000019073,A,towe,O,e,127,1,3049.5,152230.30000019073,7033,WL,C,1.0
1,3.2149999141693115,learn,56785.00008583069,Wed Nov 06 2024 14:43:38 GMT-0600 (Central Standard Time),155445.0,A,tower,O,r,129,1,3214.699999809265,152230.30000019073,7033,WL,C,1.0
1,5.547999858856201,learn,54452.0001411438,Wed Nov 06 2024 14:43:38 GMT-0600 (Central Standard Time),157777.60000014305,A,towerenter,O,enter,2310,1,5547.299999952316,152230.30000019073,7033,WL,C,1.0
1,6.148000001907349,learn,53851.99999809265,Wed Nov 06 2024 14:43:38 GMT-0600 (Central Standard Time),158377.60000014305,A,w,O,w,577,1,599.6000001430511,157778.0,7033,WL,C,2.0
1,6.582000017166138,learn,53417.99998283386,Wed Nov 06 2024 14:43:38 GMT-0600 (Central Standard Time),158811.90000009537,A,wh,O,h,411,1,1033.9000000953674,157778.0,7033,WL,C,2.0
1,6.846999883651733,learn,53153.00011634827,Wed Nov 06 2024 14:43:38 GMT-0600 (Central Standard Time),159077.20000004768,A,whe,O,e,228,1,1299.2000000476837,157778.0,7033,WL,C,2.0
1,6.96399998664856,learn,53036.00001335144,Wed Nov 06 2024 14:43:38 GMT-0600 (Central Standard Time),159193.80000019073,A,whea,O,a,94,1,1415.8000001907349,157778.0,7033,WL,C,2.0
1,7.047999858856201,learn,52952.0001411438,Wed Nov 06 2024 14:43:38 GMT-0600 (Central Standard Time),159278.40000009537,A,wheat,O,t,75,1,1500.4000000953674,157778.0,7033,WL,C,2.0
1,8.19700002670288,learn,51802.99997329712,Wed Nov 06 2024 14:43:38 GMT-0600 (Central Standard Time),160426.80000019073,A,wheatenter,O,enter,1113,1,2648.800000190735,157778.0,7033,WL,C,2.0
1,8.829999923706055,learn,51170.000076293945,Wed Nov 06 2024 14:43:38 GMT-0600 (Central Standard Time),161059.90000009537,A,f,O,f,616,1,632.5999999046326,160427.30000019073,7033,WL,C,3.0
1,9.080999851226807,learn,50919.00014877319,Wed Nov 06 2024 14:43:38 GMT-0600 (Central Standard Time),161311.0,A,fl,O,l,233,1,883.6999998092651,160427.30000019073,7033,WL,C,3.0
1,9.21399998664856,learn,50786.00001335144,Wed Nov 06 2024 14:43:38 GMT-0600 (Central Standard Time),161444.20000004768,A,fla,O,a,102,1,1016.8999998569489,160427.30000019073,7033,WL,C,3.0
1,9.430999994277954,learn,50569.000005722046,Wed Nov 06 2024 14:43:38 GMT-0600 (Central Standard Time),161661.10000014305,A,flag,O,g,189,1,1233.7999999523163,160427.30000019073,7033,WL,C,3.0
1,10.246000051498413,learn,49753.99994850159,Wed Nov 06 2024 14:43:38 GMT-0600 (Central Standard Time),162476.10000014305,A,flagenter,O,enter,788,1,2048.7999999523163,160427.30000019073,7033,WL,C,3.0
1,10.963000059127808,learn,49036.99994087219,Wed Nov 06 2024 14:43:38 GMT-0600 (Central Standard Time),163193.0,A,b,O,b,705,1,716.5,162476.5,7033,WL,C,4.0
1,11.180000066757202,learn,48819.9999332428,Wed Nov 06 2024 14:43:38 GMT-0600 (Central Standard Time),163410.5,A,bo,O,o,187,1,934.0,162476.5,7033,WL,C,4.0
1,11.44700002670288,learn,48552.99997329712,Wed Nov 06 2024 14:43:38 GMT-0600 (Central Standard Time),163677.0,A,boy,O,y,241,1,1200.5,162476.5,7033,WL,C,4.0
1,11.961999893188477,learn,48038.00010681152,Wed Nov 06 2024 14:43:38 GMT-0600 (Central Standard Time),164192.20000004768,A,boyenter,O,enter,476,1,1715.7000000476837,162476.5,7033,WL,C,4.0
1,12.496000051498413,learn,47503.99994850159,Wed Nov 06 2024 14:43:38 GMT-0600 (Central Standard Time),164726.20000004768,A,q,O,q,516,1,533.5999999046326,164192.60000014305,7033,WL,C,5.0
1,12.746000051498413,learn,47253.99994850159,Wed Nov 06 2024 14:43:38 GMT-0600 (Central Standard Time),164976.30000019073,A,qu,O,u,212,1,783.7000000476837,164192.60000014305,7033,WL,C,5.0
1,12.912999868392944,learn,47087.000131607056,Wed Nov 06 2024 14:43:38 GMT-0600 (Central Standard Time),165143.30000019073,A,que,O,e,128,1,950.7000000476837,164192.60000014305,7033,WL,C,5.0
1,13.04699993133545,learn,46953.00006866455,Wed Nov 06 2024 14:43:38 GMT-0600 (Central Standard Time),165276.80000019073,A,quee,O,e,106,1,1084.2000000476837,164192.60000014305,7033,WL,C,5.0
1,13.895999908447266,learn,46104.000091552734,Wed Nov 06 2024 14:43:38 GMT-0600 (Central Standard Time),166125.60000014305,A,queen,O,n,827,1,1933.0,164192.60000014305,7033,WL,C,5.0
1,14.227999925613403,learn,45772.0000743866,Wed Nov 06 2024 14:43:38 GMT-0600 (Central Standard Time),166458.10000014305,A,queenenter,O,enter,307,1,2265.5,164192.60000014305,7033,WL,C,5.0
1,14.546000003814697,learn,45453.9999961853,Wed Nov 06 2024 14:43:38 GMT-0600 (Central Standard Time),166775.70000004768,A,d,O,d,299,1,317.2000000476837,166458.5,7033,WL,C,6.0
1,14.928999900817871,learn,45071.00009918213,Wed Nov 06 2024 14:43:38 GMT-0600 (Central Standard Time),167158.80000019073,A,dc,O,c,345,1,700.3000001907349,166458.5,7033,WL,C,6.0
1,15.59500002861023,learn,44404.99997138977,Wed Nov 06 2024 14:43:38 GMT-0600 (Central Standard Time),167825.5,A,d,O,backspace,628,1,1367.0,166458.5,7033,WL,C,6.0
1,15.977999925613403,learn,44022.0000743866,Wed Nov 06 2024 14:43:38 GMT-0600 (Central Standard Time),168208.30000019073,A,do,O,o,350,1,1749.8000001907349,166458.5,7033,WL,C,6.0
1,16.17799997329712,learn,43822.00002670288,Wed Nov 06 2024 14:43:38 GMT-0600 (Central Standard Time),168408.40000009537,A,doc,O,c,172,1,1949.9000000953674,166458.5,7033,WL,C,6.0
1,16.59500002861023,learn,43404.99997138977,Wed Nov 06 2024 14:43:38 GMT-0600 (Central Standard Time),168825.40000009537,A,doct,O,t,379,1,2366.9000000953674,166458.5,7033,WL,C,6.0
1,16.777999877929688,learn,43222.00012207031,Wed Nov 06 2024 14:43:38 GMT-0600 (Central Standard Time),169008.30000019073,A,docto,O,o,153,1,2549.800000190735,166458.5,7033,WL,C,6.0
1,17.01199984550476,learn,42988.00015449524,Wed Nov 06 2024 14:43:38 GMT-0600 (Central Standard Time),169241.60000014305,A,doctor,O,r,193,1,2783.100000143051,166458.5,7033,WL,C,6.0
1,17.626999855041504,learn,42373.000144958496,Wed Nov 06 2024 14:43:38 GMT-0600 (Central Standard Time),169857.0,A,doctorenter,O,enter,583,1,3398.5,166458.5,7033,WL,C,6.0
1,18.16100001335144,learn,41838.99998664856,Wed Nov 06 2024 14:43:38 GMT-0600 (Central Standard Time),170390.80000019073,A,c,O,c,516,1,533.5,169857.30000019073,7033,WL,C,7.0
1,18.276999950408936,learn,41723.000049591064,Wed Nov 06 2024 14:43:38 GMT-0600 (Central Standard Time),170507.0,A,ca,O,a,79,1,649.6999998092651,169857.30000019073,7033,WL,C,7.0
1,18.49399995803833,learn,41506.00004196167,Wed Nov 06 2024 14:43:38 GMT-0600 (Central Standard Time),170723.5,A,cat,O,t,197,1,866.1999998092651,169857.30000019073,7033,WL,C,7.0
1,18.626999855041504,learn,41373.000144958496,Wed Nov 06 2024 14:43:38 GMT-0600 (Central Standard Time),170856.70000004768,A,catt,O,t,118,1,999.3999998569489,169857.30000019073,7033,WL,C,7.0
1,18.776999950408936,learn,41223.000049591064,Wed Nov 06 2024 14:43:38 GMT-0600 (Central Standard Time),171006.70000004768,A,cattl,O,l,139,1,1149.3999998569489,169857.30000019073,7033,WL,C,7.0
1,18.927000045776367,learn,41072.99995422363,Wed Nov 06 2024 14:43:38 GMT-0600 (Central Standard Time),171156.70000004768,A,cattle,O,e,134,1,1299.3999998569489,169857.30000019073,7033,WL,C,7.0
1,19.425999879837036,learn,40574.000120162964,Wed Nov 06 2024 14:43:38 GMT-0600 (Central Standard Time),171656.40000009537,A,cattleenter,O,enter,488,1,1799.0999999046326,169857.30000019073,7033,WL,C,7.0
1,20.22699999809265,learn,39773.00000190735,Wed Nov 06 2024 14:43:38 GMT-0600 (Central Standard Time),172457.40000009537,A,c,O,c,781,1,800.7000000476837,171656.70000004768,7033,WL,C,8.0
1,20.292999982833862,learn,39707.00001716614,Wed Nov 06 2024 14:43:38 GMT-0600 (Central Standard Time),172523.10000014305,A,ca,O,a,31,1,866.4000000953674,171656.70000004768,7033,WL,C,8.0
1,20.575999975204468,learn,39424.00002479553,Wed Nov 06 2024 14:43:38 GMT-0600 (Central Standard Time),172806.0,A,cam,O,m,266,1,1149.2999999523163,171656.70000004768,7033,WL,C,8.0
1,20.792999982833862,learn,39207.00001716614,Wed Nov 06 2024 14:43:38 GMT-0600 (Central Standard Time),173023.0,A,camo,O,o,206,1,1366.2999999523163,171656.70000004768,7033,WL,C,8.0
1,21.65999984741211,learn,38340.00015258789,Wed Nov 06 2024 14:43:38 GMT-0600 (Central Standard Time),173889.40000009537,A,cam,O,backspace,846,1,2232.7000000476837,171656.70000004768,7033,WL,C,8.0
1,22.408999919891357,learn,37591.00008010864,Wed Nov 06 2024 14:43:38 GMT-0600 (Central Standard Time),174638.60000014305,A,camp,O,p,738,1,2981.9000000953674,171656.70000004768,7033,WL,C,8.0
1,23.024999856948853,learn,36975.00014305115,Wed Nov 06 2024 14:43:38 GMT-0600 (Central Standard Time),175255.10000014305,A,campenter,O,enter,597,1,3598.4000000953674,171656.70000004768,7033,WL,C,8.0
1,23.8439998626709,learn,36156.0001373291,Wed Nov 06 2024 14:43:38 GMT-0600 (Central Standard Time),176074.10000014305,A,h,O,h,797,1,818.7000000476837,175255.40000009537,7033,WL,C,9.0
1,24.007999897003174,learn,35992.000102996826,Wed Nov 06 2024 14:43:38 GMT-0600 (Central Standard Time),176238.10000014305,A,ho,O,o,141,1,982.7000000476837,175255.40000009537,7033,WL,C,9.0
1,24.274999856948853,learn,35725.00014305115,Wed Nov 06 2024 14:43:38 GMT-0600 (Central Standard Time),176504.90000009537,A,hom,O,m,246,1,1249.5,175255.40000009537,7033,WL,C,9.0
1,24.72499990463257,learn,35275.00009536743,Wed Nov 06 2024 14:43:38 GMT-0600 (Central Standard Time),176954.5,A,home,O,e,426,1,1699.0999999046326,175255.40000009537,7033,WL,C,9.0
1,25.524999856948853,learn,34475.00014305115,Wed Nov 06 2024 14:43:38 GMT-0600 (Central Standard Time),177754.40000009537,A,homeenter,O,enter,786,1,2499.0,175255.40000009537,7033,WL,C,9.0
1,26.70899987220764,learn,33291.00012779236,Wed Nov 06 2024 14:43:38 GMT-0600 (Central Standard Time),178938.20000004768,A,s,O,s,1172,1,1183.5,177754.70000004768,7033,WL,C,10.0
1,26.94099998474121,learn,33059.00001525879,Wed Nov 06 2024 14:43:38 GMT-0600 (Central Standard Time),179170.5,A,su,O,u,198,1,1415.7999999523163,177754.70000004768,7033,WL,C,10.0
1,27.175999879837036,learn,32824.000120162964,Wed Nov 06 2024 14:43:38 GMT-0600 (Central Standard Time),179405.10000014305,A,sug,O,g,227,1,1650.4000000953674,177754.70000004768,7033,WL,C,10.0
1,27.325000047683716,learn,32674.999952316284,Wed Nov 06 2024 14:43:38 GMT-0600 (Central Standard Time),179554.70000004768,A,suga,O,a,110,1,1800.0,177754.70000004768,7033,WL,C,10.0
1,27.490999937057495,learn,32509.000062942505,Wed Nov 06 2024 14:43:38 GMT-0600 (Central Standard Time),179720.40000009537,A,sugar,O,r,125,1,1965.7000000476837,177754.70000004768,7033,WL,C,10.0
1,28.624000072479248,learn,31375.999927520752,Wed Nov 06 2024 14:43:38 GMT-0600 (Central Standard Time),180853.20000004768,A,sugarenter,O,enter,1122,1,3098.5,177754.70000004768,7033,WL,C,10.0
1,33.75600004196167,learn,26243.99995803833,Wed Nov 06 2024 14:43:38 GMT-0600 (Central Standard Time),185985.80000019073,A,t,O,t,5121,1,5132.300000190735,180853.5,7033,WL,C,11.0
1,33.95599985122681,learn,26044.000148773193,Wed Nov 06 2024 14:43:38 GMT-0600 (Central Standard Time),186185.80000019073,A,to,O,o,161,1,5332.300000190735,180853.5,7033,WL,C,11.0
1,34.17199993133545,learn,25828.00006866455,Wed Nov 06 2024 14:43:38 GMT-0600 (Central Standard Time),186401.60000014305,A,tow,O,w,189,1,5548.100000143051,180853.5,7033,WL,C,11.0
1,34.306999921798706,learn,25693.000078201294,Wed Nov 06 2024 14:43:38 GMT-0600 (Central Standard Time),186536.0,A,towe,O,e,120,1,5682.5,180853.5,7033,WL,C,11.0
1,34.45599985122681,learn,25544.000148773193,Wed Nov 06 2024 14:43:38 GMT-0600 (Central Standard Time),186685.70000004768,A,tower,O,r,123,1,5832.200000047684,180853.5,7033,WL,C,11.0
1,35.039000034332275,learn,24960.999965667725,Wed Nov 06 2024 14:43:38 GMT-0600 (Central Standard Time),187267.90000009537,A,towerenter,O,enter,556,1,6414.400000095367,180853.5,7033,WL,C,11.0
1,39.63800001144409,learn,20361.99998855591,Wed Nov 06 2024 14:43:38 GMT-0600 (Central Standard Time),191867.40000009537,A,c,O,c,4578,1,4599.200000047684,187268.20000004768,7033,WL,C,12.0
1,39.920000076293945,learn,20079.999923706055,Wed Nov 06 2024 14:43:38 GMT-0600 (Central Standard Time),192149.70000004768,A,cr,O,r,246,1,4881.5,187268.20000004768,7033,WL,C,12.0
1,40.0550000667572,learn,19944.999933242798,Wed Nov 06 2024 14:43:38 GMT-0600 (Central Standard Time),192284.10000014305,A,cre,O,e,112,1,5015.900000095367,187268.20000004768,7033,WL,C,12.0
1,40.1710000038147,learn,19828.999996185303,Wed Nov 06 2024 14:43:38 GMT-0600 (Central Standard Time),192400.80000019073,A,crea,O,a,80,1,5132.600000143051,187268.20000004768,7033,WL,C,12.0
1,40.40499997138977,learn,19595.00002861023,Wed Nov 06 2024 14:43:38 GMT-0600 (Central Standard Time),192633.90000009537,A,cream,O,m,203,1,5365.700000047684,187268.20000004768,7033,WL,C,12.0
1,41.019999980926514,learn,18980.000019073486,Wed Nov 06 2024 14:43:38 GMT-0600 (Central Standard Time),193249.30000019073,A,creamenter,O,enter,579,1,5981.100000143051,187268.20000004768,7033,WL,C,12.0
1,60.014999866485596,learn,-14.999866485595703,Wed Nov 06 2024 14:43:38 GMT-0600 (Central Standard Time),212244.5,A,None,O,None,18989,1,18994.89999985695,193249.60000014305,7033,WL,C,13.0
2,0.8500001430511475,learn,59149.99985694885,Wed Nov 06 2024 14:43:38 GMT-0600 (Central Standard Time),281238.40000009537,A,b,O,b,817,1,849.4000000953674,280389.0,7033,WL,C,1.0
2,1.06600022315979,learn,58933.99977684021,Wed Nov 06 2024 14:43:38 GMT-0600 (Central Standard Time),281454.60000014305,A,bo,O,o,183,1,1065.6000001430511,280389.0,7033,WL,C,1.0
2,1.3320000171661377,learn,58667.99998283386,Wed Nov 06 2024 14:43:38 GMT-0600 (Central Standard Time),281721.2000000477,A,bod,O,d,237,1,1332.2000000476837,280389.0,7033,WL,C,1.0
2,1.3980000019073486,learn,58601.99999809265,Wed Nov 06 2024 14:43:38 GMT-0600 (Central Standard Time),281787.0,A,body,O,y,36,1,1398.0,280389.0,7033,WL,C,1.0
2,2.3310000896453857,learn,57668.999910354614,Wed Nov 06 2024 14:43:38 GMT-0600 (Central Standard Time),282719.90000009537,A,bodyenter,O,enter,907,1,2330.9000000953674,280389.0,7033,WL,C,1.0
2,2.949000120162964,learn,57050.999879837036,Wed Nov 06 2024 14:43:38 GMT-0600 (Central Standard Time),283337.40000009537,A,n,O,n,598,1,617.2000000476837,282720.2000000477,7033,WL,C,2.0
2,3.0820000171661377,learn,56917.99998283386,Wed Nov 06 2024 14:43:38 GMT-0600 (Central Standard Time),283470.40000009537,A,na,O,a,108,1,750.2000000476837,282720.2000000477,7033,WL,C,2.0
2,3.248000144958496,learn,56751.999855041504,Wed Nov 06 2024 14:43:38 GMT-0600 (Central Standard Time),283636.40000009537,A,nai,O,i,134,1,916.2000000476837,282720.2000000477,7033,WL,C,2.0
2,3.514000177383423,learn,56485.99982261658,Wed Nov 06 2024 14:43:38 GMT-0600 (Central Standard Time),283902.80000019073,A,nail,O,l,238,1,1182.6000001430511,282720.2000000477,7033,WL,C,2.0
2,3.8470001220703125,learn,56152.99987792969,Wed Nov 06 2024 14:43:38 GMT-0600 (Central Standard Time),284236.10000014305,A,nailenter,O,enter,317,1,1515.9000000953674,282720.2000000477,7033,WL,C,2.0
2,4.0980000495910645,learn,55901.999950408936,Wed Nov 06 2024 14:43:38 GMT-0600 (Central Standard Time),284486.30000019073,A,s,O,s,241,1,250.0,284236.30000019073,7033,WL,C,3.0
2,4.3480000495910645,learn,55651.999950408936,Wed Nov 06 2024 14:43:38 GMT-0600 (Central Standard Time),284736.90000009537,A,sj,O,j,230,1,500.59999990463257,284236.30000019073,7033,WL,C,3.0
2,4.948000192642212,learn,55051.99980735779,Wed Nov 06 2024 14:43:38 GMT-0600 (Central Standard Time),285336.80000019073,A,s,O,backspace,562,1,1100.5,284236.30000019073,7033,WL,C,3.0
2,5.314000129699707,learn,54685.99987030029,Wed Nov 06 2024 14:43:38 GMT-0600 (Central Standard Time),285703.30000019073,A,sh,O,h,331,1,1467.0,284236.30000019073,7033,WL,C,3.0
2,5.448000192642212,learn,54551.99980735779,Wed Nov 06 2024 14:43:38 GMT-0600 (Central Standard Time),285836.40000009537,A,sho,O,o,92,1,1600.0999999046326,284236.30000019073,7033,WL,C,3.0
2,5.648000001907349,learn,54351.99999809265,Wed Nov 06 2024 14:43:38 GMT-0600 (Central Standard Time),286036.5,A,shor,O,r,158,1,1800.1999998092651,284236.30000019073,7033,WL,C,3.0
2,5.67300009727478,learn,54326.99990272522,Wed Nov 06 2024 14:43:38 GMT-0600 (Central Standard Time),286061.90000009537,A,shore,O,e,1,1,1825.5999999046326,284236.30000019073,7033,WL,C,3.0
2,6.047000169754028,learn,53952.99983024597,Wed Nov 06 2024 14:43:38 GMT-0600 (Central Standard Time),286435.40000009537,A,shoreenter,O,enter,350,1,2199.0999999046326,284236.30000019073,7033,WL,C,3.0
2,6.331000089645386,learn,53668.999910354614,Wed Nov 06 2024 14:43:38 GMT-0600 (Central Standard Time),286719.5,A,c,O,c,267,1,283.7999999523163,286435.7000000477,7033,WL,C,4.0
2,6.497000217437744,learn,53502.999782562256,Wed Nov 06 2024 14:43:38 GMT-0600 (Central Standard Time),286886.2000000477,A,co,O,o,133,1,450.5,286435.7000000477,7033,WL,C,4.0
2,6.648000001907349,learn,53351.99999809265,Wed Nov 06 2024 14:43:38 GMT-0600 (Central Standard Time),287036.80000019073,A,cor,O,r,126,1,601.1000001430511,286435.7000000477,7033,WL,C,4.0
2,6.797000169754028,learn,53202.99983024597,Wed Nov 06 2024 14:43:38 GMT-0600 (Central Standard Time),287186.2000000477,A,corn,O,n,117,1,750.5,286435.7000000477,7033,WL,C,4.0
2,7.146000146865845,learn,52853.999853134155,Wed Nov 06 2024 14:43:38 GMT-0600 (Central Standard Time),287535.10000014305,A,cornenter,O,enter,313,1,1099.4000000953674,286435.7000000477,7033,WL,C,4.0
2,7.414000034332275,learn,52585.999965667725,Wed Nov 06 2024 14:43:38 GMT-0600 (Central Standard Time),287802.7000000477,A,t,O,t,247,1,267.2999999523163,287535.40000009537,7033,WL,C,5.0
2,7.5970001220703125,learn,52402.99987792969,Wed Nov 06 2024 14:43:38 GMT-0600 (Central Standard Time),287985.90000009537,A,to,O,o,145,1,450.5,287535.40000009537,7033,WL,C,5.0
2,7.624000072479248,learn,52375.99992752075,Wed Nov 06 2024 14:43:38 GMT-0600 (Central Standard Time),288012.5,A,top,O,p,2,1,477.09999990463257,287535.40000009537,7033,WL,C,5.0
2,7.713000059127808,learn,52286.99994087219,Wed Nov 06 2024 14:43:38 GMT-0600 (Central Standard Time),288101.60000014305,A,topw,O,w,72,1,566.2000000476837,287535.40000009537,7033,WL,C,5.0
2,8.230000019073486,learn,51769.999980926514,Wed Nov 06 2024 14:43:38 GMT-0600 (Central Standard Time),288619.0,A,top,O,backspace,495,1,1083.5999999046326,287535.40000009537,7033,WL,C,5.0
2,8.380000114440918,learn,51619.99988555908,Wed Nov 06 2024 14:43:38 GMT-0600 (Central Standard Time),288768.60000014305,A,to,O,backspace,122,1,1233.2000000476837,287535.40000009537,7033,WL,C,5.0
2,8.729000091552734,learn,51270.999908447266,Wed Nov 06 2024 14:43:38 GMT-0600 (Central Standard Time),289117.80000019073,A,tow,O,w,316,1,1582.4000000953674,287535.40000009537,7033,WL,C,5.0
2,8.812000036239624,learn,51187.999963760376,Wed Nov 06 2024 14:43:38 GMT-0600 (Central Standard Time),289201.0,A,towe,O,e,70,1,1665.5999999046326,287535.40000009537,7033,WL,C,5.0
2,9.112000226974487,learn,50887.99977302551,Wed Nov 06 2024 14:43:38 GMT-0600 (Central Standard Time),289501.0,A,tower,O,r,283,1,1965.5999999046326,287535.40000009537,7033,WL,C,5.0
2,9.445000171661377,learn,50554.99982833862,Wed Nov 06 2024 14:43:38 GMT-0600 (Central Standard Time),289834.30000019073,A,towerenter,O,enter,320,1,2298.9000000953674,287535.40000009537,7033,WL,C,5.0
2,9.712000131607056,learn,50287.999868392944,Wed Nov 06 2024 14:43:38 GMT-0600 (Central Standard Time),290100.7000000477,A,w,O,w,250,1,266.2000000476837,289834.5,7033,WL,C,6.0
2,10.029000043869019,learn,49970.99995613098,Wed Nov 06 2024 14:43:38 GMT-0600 (Central Standard Time),290417.40000009537,A,we,O,e,304,1,582.9000000953674,289834.5,7033,WL,C,6.0
2,10.578999996185303,learn,49421.0000038147,Wed Nov 06 2024 14:43:38 GMT-0600 (Central Standard Time),290968.30000019073,A,w,O,backspace,541,1,1133.8000001907349,289834.5,7033,WL,C,6.0
2,10.84600019454956,learn,49153.99980545044,Wed Nov 06 2024 14:43:38 GMT-0600 (Central Standard Time),291234.80000019073,A,wh,O,h,236,1,1400.3000001907349,289834.5,7033,WL,C,6.0
2,10.963000059127808,learn,49036.99994087219,Wed Nov 06 2024 14:43:38 GMT-0600 (Central Standard Time),291351.5,A,whe,O,e,87,1,1517.0,289834.5,7033,WL,C,6.0
2,11.01200008392334,learn,48987.99991607666,Wed Nov 06 2024 14:43:38 GMT-0600 (Central Standard Time),291400.60000014305,A,whea,O,a,15,1,1566.1000001430511,289834.5,7033,WL,C,6.0
2,11.09600019454956,learn,48903.99980545044,Wed Nov 06 2024 14:43:38 GMT-0600 (Central Standard Time),291484.7000000477,A,wheat,O,t,64,1,1650.2000000476837,289834.5,7033,WL,C,6.0
2,11.51200008392334,learn,48487.99991607666,Wed Nov 06 2024 14:43:38 GMT-0600 (Central Standard Time),291900.30000019073,A,wheatenter,O,enter,382,1,2065.800000190735,289834.5,7033,WL,C,6.0
2,12.129000186920166,learn,47870.999813079834,Wed Nov 06 2024 14:43:38 GMT-0600 (Central Standard Time),292517.80000019073,A,s,O,s,601,1,617.2000000476837,291900.60000014305,7033,WL,C,7.0
2,12.295000076293945,learn,47704.999923706055,Wed Nov 06 2024 14:43:38 GMT-0600 (Central Standard Time),292684.30000019073,A,su,O,u,135,1,783.7000000476837,291900.60000014305,7033,WL,C,7.0
2,12.479000091552734,learn,47520.999908447266,Wed Nov 06 2024 14:43:38 GMT-0600 (Central Standard Time),292867.60000014305,A,sug,O,g,153,1,967.0,291900.60000014305,7033,WL,C,7.0
2,12.59600019454956,learn,47403.99980545044,Wed Nov 06 2024 14:43:38 GMT-0600 (Central Standard Time),292984.40000009537,A,suga,O,a,80,1,1083.7999999523163,291900.60000014305,7033,WL,C,7.0
2,12.76200008392334,learn,47237.99991607666,Wed Nov 06 2024 14:43:38 GMT-0600 (Central Standard Time),293150.90000009537,A,sugar,O,r,134,1,1250.2999999523163,291900.60000014305,7033,WL,C,7.0
2,13.49400019645691,learn,46505.99980354309,Wed Nov 06 2024 14:43:38 GMT-0600 (Central Standard Time),293882.90000009537,A,sugarenter,O,enter,691,1,1982.2999999523163,291900.60000014305,7033,WL,C,7.0
2,14.195000171661377,learn,45804.99982833862,Wed Nov 06 2024 14:43:38 GMT-0600 (Central Standard Time),294583.60000014305,A,q,O,q,683,1,700.2999999523163,293883.30000019073,7033,WL,C,8.0
2,14.445000171661377,learn,45554.99982833862,Wed Nov 06 2024 14:43:38 GMT-0600 (Central Standard Time),294833.7000000477,A,qu,O,u,220,1,950.3999998569489,293883.30000019073,7033,WL,C,8.0
2,14.57800006866455,learn,45421.99993133545,Wed Nov 06 2024 14:43:38 GMT-0600 (Central Standard Time),294966.80000019073,A,que,O,e,108,1,1083.5,293883.30000019073,7033,WL,C,8.0
2,14.728000164031982,learn,45271.99983596802,Wed Nov 06 2024 14:43:38 GMT-0600 (Central Standard Time),295117.10000014305,A,quee,O,e,128,1,1233.7999999523163,293883.30000019073,7033,WL,C,8.0
2,14.91100001335144,learn,45088.99998664856,Wed Nov 06 2024 14:43:38 GMT-0600 (Central Standard Time),295300.2000000477,A,queen,O,n,147,1,1416.8999998569489,293883.30000019073,7033,WL,C,8.0
2,15.360000133514404,learn,44639.999866485596,Wed Nov 06 2024 14:43:38 GMT-0600 (Central Standard Time),295749.0,A,queenenter,O,enter,422,1,1865.6999998092651,293883.30000019073,7033,WL,C,8.0
2,15.894000053405762,learn,44105.99994659424,Wed Nov 06 2024 14:43:38 GMT-0600 (Central Standard Time),296283.2000000477,A,b,O,b,521,1,533.8999998569489,295749.30000019073,7033,WL,C,9.0
2,16.128000020980835,learn,43871.999979019165,Wed Nov 06 2024 14:43:38 GMT-0600 (Central Standard Time),296516.40000009537,A,bo,O,o,202,1,767.0999999046326,295749.30000019073,7033,WL,C,9.0
2,16.294000148773193,learn,43705.99985122681,Wed Nov 06 2024 14:43:38 GMT-0600 (Central Standard Time),296683.0,A,boy,O,y,136,1,933.6999998092651,295749.30000019073,7033,WL,C,9.0
2,17.243000030517578,learn,42756.99996948242,Wed Nov 06 2024 14:43:38 GMT-0600 (Central Standard Time),297631.7000000477,A,boyenter,O,enter,919,1,1882.3999998569489,295749.30000019073,7033,WL,C,9.0
2,17.64300012588501,learn,42356.99987411499,Wed Nov 06 2024 14:43:38 GMT-0600 (Central Standard Time),298031.7000000477,A,c,O,c,381,1,399.7999999523163,297631.90000009537,7033,WL,C,10.0
2,17.7260000705719,learn,42273.9999294281,Wed Nov 06 2024 14:43:38 GMT-0600 (Central Standard Time),298114.80000019073,A,ca,O,a,63,1,482.90000009536743,297631.90000009537,7033,WL,C,10.0
2,17.89300012588501,learn,42106.99987411499,Wed Nov 06 2024 14:43:38 GMT-0600 (Central Standard Time),298281.40000009537,A,cam,O,m,144,1,649.5,297631.90000009537,7033,WL,C,10.0
2,18.527000188827515,learn,41472.999811172485,Wed Nov 06 2024 14:43:38 GMT-0600 (Central Standard Time),298915.7000000477,A,camp,O,p,612,1,1283.7999999523163,297631.90000009537,7033,WL,C,10.0
2,18.993000030517578,learn,41006.99996948242,Wed Nov 06 2024 14:43:38 GMT-0600 (Central Standard Time),299381.10000014305,A,campenter,O,enter,432,1,1749.2000000476837,297631.90000009537,7033,WL,C,10.0
2,19.66000008583069,learn,40339.99991416931,Wed Nov 06 2024 14:43:38 GMT-0600 (Central Standard Time),300048.30000019073,A,f,O,f,657,1,666.9000000953674,299381.40000009537,7033,WL,C,11.0
2,19.89400005340576,learn,40105.99994659424,Wed Nov 06 2024 14:43:38 GMT-0600 (Central Standard Time),300281.80000019073,A,fl,O,l,195,1,900.4000000953674,299381.40000009537,7033,WL,C,11.0
2,20.06000018119812,learn,39939.99981880188,Wed Nov 06 2024 14:43:38 GMT-0600 (Central Standard Time),300448.40000009537,A,fla,O,a,139,1,1067.0,299381.40000009537,7033,WL,C,11.0
2,20.277000188827515,learn,39722.999811172485,Wed Nov 06 2024 14:43:38 GMT-0600 (Central Standard Time),300665.10000014305,A,flag,O,g,179,1,1283.7000000476837,299381.40000009537,7033,WL,C,11.0
2,20.54200005531311,learn,39457.99994468689,Wed Nov 06 2024 14:43:38 GMT-0600 (Central Standard Time),300930.7000000477,A,flagenter,O,enter,225,1,1549.2999999523163,299381.40000009537,7033,WL,C,11.0
2,20.960000038146973,learn,39039.99996185303,Wed Nov 06 2024 14:43:38 GMT-0600 (Central Standard Time),301348.0,A,c,O,c,404,1,417.09999990463257,300930.90000009537,7033,WL,C,12.0
2,21.04200005531311,learn,38957.99994468689,Wed Nov 06 2024 14:43:38 GMT-0600 (Central Standard Time),301430.7000000477,A,ca,O,a,47,1,499.7999999523163,300930.90000009537,7033,WL,C,12.0
2,21.243000030517578,learn,38756.99996948242,Wed Nov 06 2024 14:43:38 GMT-0600 (Central Standard Time),301631.30000019073,A,cat,O,t,167,1,700.4000000953674,300930.90000009537,7033,WL,C,12.0
2,21.426000118255615,learn,38573.999881744385,Wed Nov 06 2024 14:43:38 GMT-0600 (Central Standard Time),301814.60000014305,A,catt,O,t,148,1,883.7000000476837,300930.90000009537,7033,WL,C,12.0
2,21.56000018119812,learn,38439.99981880188,Wed Nov 06 2024 14:43:38 GMT-0600 (Central Standard Time),301947.90000009537,A,cattl,O,l,102,1,1017.0,300930.90000009537,7033,WL,C,12.0
2,21.710000038146973,learn,38289.99996185303,Wed Nov 06 2024 14:43:38 GMT-0600 (Central Standard Time),302097.7000000477,A,cattle,O,e,120,1,1166.7999999523163,300930.90000009537,7033,WL,C,12.0
2,22.20900011062622,learn,37790.99988937378,Wed Nov 06 2024 14:43:38 GMT-0600 (Central Standard Time),302596.7000000477,A,cattleenter,O,enter,474,1,1665.7999999523163,300930.90000009537,7033,WL,C,12.0
2,23.692000150680542,learn,36307.99984931946,Wed Nov 06 2024 14:43:38 GMT-0600 (Central Standard Time),304079.80000019073,A,t,O,t,1472,1,1482.8000001907349,302597.0,7033,WL,C,13.0
2,23.892000198364258,learn,36107.99980163574,Wed Nov 06 2024 14:43:38 GMT-0600 (Central Standard Time),304280.40000009537,A,to,O,o,174,1,1683.4000000953674,302597.0,7033,WL,C,13.0
2,24.54200005531311,learn,35457.99994468689,Wed Nov 06 2024 14:43:38 GMT-0600 (Central Standard Time),304930.0,A,tow,O,w,612,1,2333.0,302597.0,7033,WL,C,13.0
2,24.641000032424927,learn,35358.99996757507,Wed Nov 06 2024 14:43:38 GMT-0600 (Central Standard Time),305029.40000009537,A,towe,O,e,73,1,2432.4000000953674,302597.0,7033,WL,C,13.0
2,24.79200005531311,learn,35207.99994468689,Wed Nov 06 2024 14:43:38 GMT-0600 (Central Standard Time),305180.10000014305,A,tower,O,r,116,1,2583.100000143051,302597.0,7033,WL,C,13.0
2,26.307000160217285,learn,33692.999839782715,Wed Nov 06 2024 14:43:38 GMT-0600 (Central Standard Time),306695.40000009537,A,towerenter,O,enter,1485,1,4098.400000095367,302597.0,7033,WL,C,13.0
2,31.623000144958496,learn,28376.999855041504,Wed Nov 06 2024 14:43:38 GMT-0600 (Central Standard Time),312011.30000019073,A,b,O,b,5295,1,5315.800000190735,306695.5,7033,WL,C,14.0
2,31.805999994277954,learn,28194.000005722046,Wed Nov 06 2024 14:43:38 GMT-0600 (Central Standard Time),312194.5,A,bo,O,o,153,1,5499.0,306695.5,7033,WL,C,14.0
2,32.02300000190735,learn,27976.99999809265,Wed Nov 06 2024 14:43:38 GMT-0600 (Central Standard Time),312411.10000014305,A,bod,O,d,186,1,5715.600000143051,306695.5,7033,WL,C,14.0
2,32.17300009727478,learn,27826.99990272522,Wed Nov 06 2024 14:43:38 GMT-0600 (Central Standard Time),312561.0,A,body,O,y,112,1,5865.5,306695.5,7033,WL,C,14.0
2,32.622000217437744,learn,27377.999782562256,Wed Nov 06 2024 14:43:38 GMT-0600 (Central Standard Time),313010.10000014305,A,bodyenter,O,enter,409,1,6314.600000143051,306695.5,7033,WL,C,14.0
2,37.271000146865845,learn,22728.999853134155,Wed Nov 06 2024 14:43:38 GMT-0600 (Central Standard Time),317659.30000019073,A,h,O,h,4628,1,4649.0,313010.30000019073,7033,WL,C,15.0
2,38.13800001144409,learn,21861.99998855591,Wed Nov 06 2024 14:43:38 GMT-0600 (Central Standard Time),318525.80000019073,A,ho,O,o,834,1,5515.5,313010.30000019073,7033,WL,C,15.0
2,38.33800005912781,learn,21661.999940872192,Wed Nov 06 2024 14:43:38 GMT-0600 (Central Standard Time),318725.90000009537,A,hom,O,m,175,1,5715.599999904633,313010.30000019073,7033,WL,C,15.0
2,38.57100009918213,learn,21428.99990081787,Wed Nov 06 2024 14:43:38 GMT-0600 (Central Standard Time),318958.90000009537,A,home,O,e,197,1,5948.599999904633,313010.30000019073,7033,WL,C,15.0
2,38.90300011634827,learn,21096.999883651733,Wed Nov 06 2024 14:43:38 GMT-0600 (Central Standard Time),319291.2000000477,A,homeenter,O,enter,300,1,6280.899999856949,313010.30000019073,7033,WL,C,15.0
3,0.36699986457824707,learn,59633.00013542175,Wed Nov 06 2024 14:43:38 GMT-0600 (Central Standard Time),387153.30000019073,A,l,O,l,332,1,366.60000014305115,386786.7000000477,7033,WL,C,1.0
3,0.5,learn,59500.0,Wed Nov 06 2024 14:43:38 GMT-0600 (Central Standard Time),387286.30000019073,A,le,O,e,107,1,499.60000014305115,386786.7000000477,7033,WL,C,1.0
3,0.7649998664855957,learn,59235.000133514404,Wed Nov 06 2024 14:43:38 GMT-0600 (Central Standard Time),387551.90000009537,A,let,O,t,228,1,765.2000000476837,386786.7000000477,7033,WL,C,1.0
3,0.8989999294281006,learn,59101.0000705719,Wed Nov 06 2024 14:43:38 GMT-0600 (Central Standard Time),387685.40000009537,A,lett,O,t,124,1,898.7000000476837,386786.7000000477,7033,WL,C,1.0
3,1.2159998416900635,learn,58784.00015830994,Wed Nov 06 2024 14:43:38 GMT-0600 (Central Standard Time),388003.0,A,lette,O,e,304,1,1216.2999999523163,386786.7000000477,7033,WL,C,1.0
3,1.315000057220459,learn,58684.99994277954,Wed Nov 06 2024 14:43:38 GMT-0600 (Central Standard Time),388101.90000009537,A,letter,O,r,64,1,1315.2000000476837,386786.7000000477,7033,WL,C,1.0
3,2.131999969482422,learn,57868.00003051758,Wed Nov 06 2024 14:43:38 GMT-0600 (Central Standard Time),388918.2000000477,A,letterenter,O,enter,806,1,2131.5,386786.7000000477,7033,WL,C,1.0
3,2.615000009536743,learn,57384.99999046326,Wed Nov 06 2024 14:43:38 GMT-0600 (Central Standard Time),389401.2000000477,A,c,O,c,462,1,482.7999999523163,388918.40000009537,7033,WL,C,2.0
3,2.7149999141693115,learn,57285.00008583069,Wed Nov 06 2024 14:43:38 GMT-0600 (Central Standard Time),389501.2000000477,A,ca,O,a,91,1,582.7999999523163,388918.40000009537,7033,WL,C,2.0
3,2.8989999294281006,learn,57101.0000705719,Wed Nov 06 2024 14:43:38 GMT-0600 (Central Standard Time),389685.2000000477,A,cam,O,m,177,1,766.7999999523163,388918.40000009537,7033,WL,C,2.0
3,3.8480000495910645,learn,56151.999950408936,Wed Nov 06 2024 14:43:38 GMT-0600 (Central Standard Time),390634.30000019073,A,camp,O,p,909,1,1715.9000000953674,388918.40000009537,7033,WL,C,2.0
3,4.0980000495910645,learn,55901.999950408936,Wed Nov 06 2024 14:43:38 GMT-0600 (Central Standard Time),390884.30000019073,A,campenter,O,enter,234,1,1965.9000000953674,388918.40000009537,7033,WL,C,2.0
3,4.815000057220459,learn,55184.99994277954,Wed Nov 06 2024 14:43:38 GMT-0600 (Central Standard Time),391601.90000009537,A,m,O,m,706,1,717.2999999523163,390884.60000014305,7033,WL,C,3.0
3,5.230999946594238,learn,54769.00005340576,Wed Nov 06 2024 14:43:38 GMT-0600 (Central Standard Time),392018.10000014305,A,,O,backspace,385,1,1133.5,390884.60000014305,7033,WL,C,3.0
3,5.546999931335449,learn,54453.00006866455,Wed Nov 06 2024 14:43:38 GMT-0600 (Central Standard Time),392333.80000019073,A,n,O,n,285,1,1449.2000000476837,390884.60000014305,7033,WL,C,3.0
3,5.865999937057495,learn,54134.000062942505,Wed Nov 06 2024 14:43:38 GMT-0600 (Central Standard Time),392652.2000000477,A,na,O,a,303,1,1767.5999999046326,390884.60000014305,7033,WL,C,3.0
3,6.129999876022339,learn,53870.00012397766,Wed Nov 06 2024 14:43:38 GMT-0600 (Central Standard Time),392916.90000009537,A,nai,O,i,243,1,2032.2999999523163,390884.60000014305,7033,WL,C,3.0
3,6.38100004196167,learn,53618.99995803833,Wed Nov 06 2024 14:43:38 GMT-0600 (Central Standard Time),393168.0,A,nail,O,l,232,1,2283.399999856949,390884.60000014305,7033,WL,C,3.0
3,6.697000026702881,learn,53302.99997329712,Wed Nov 06 2024 14:43:38 GMT-0600 (Central Standard Time),393483.5,A,nailenter,O,enter,283,1,2598.899999856949,390884.60000014305,7033,WL,C,3.0
3,7.0980000495910645,learn,52901.999950408936,Wed Nov 06 2024 14:43:38 GMT-0600 (Central Standard Time),393884.30000019073,A,s,O,s,386,1,400.5,393483.80000019073,7033,WL,C,4.0
3,7.230000019073486,learn,52769.999980926514,Wed Nov 06 2024 14:43:38 GMT-0600 (Central Standard Time),394016.90000009537,A,sh,O,h,96,1,533.0999999046326,393483.80000019073,7033,WL,C,4.0
3,7.346999883651733,learn,52653.00011634827,Wed Nov 06 2024 14:43:38 GMT-0600 (Central Standard Time),394133.10000014305,A,sho,O,o,99,1,649.2999999523163,393483.80000019073,7033,WL,C,4.0
3,7.496000051498413,learn,52503.99994850159,Wed Nov 06 2024 14:43:38 GMT-0600 (Central Standard Time),394283.0,A,shor,O,r,143,1,799.1999998092651,393483.80000019073,7033,WL,C,4.0
3,7.746999979019165,learn,52253.000020980835,Wed Nov 06 2024 14:43:38 GMT-0600 (Central Standard Time),394533.80000019073,A,short,O,t,243,1,1050.0,393483.80000019073,7033,WL,C,4.0
3,7.86299991607666,learn,52137.00008392334,Wed Nov 06 2024 14:43:38 GMT-0600 (Central Standard Time),394649.7000000477,A,shorte,O,e,78,1,1165.8999998569489,393483.80000019073,7033,WL,C,4.0
3,8.096999883651733,learn,51903.00011634827,Wed Nov 06 2024 14:43:38 GMT-0600 (Central Standard Time),394884.10000014305,A,shorteenter,O,enter,219,1,1400.2999999523163,393483.80000019073,7033,WL,C,4.0
3,8.929999828338623,learn,51070.00017166138,Wed Nov 06 2024 14:43:38 GMT-0600 (Central Standard Time),395717.0,A,b,O,b,817,1,832.6999998092651,394884.30000019073,7033,WL,C,5.0
3,9.078999996185303,learn,50921.0000038147,Wed Nov 06 2024 14:43:38 GMT-0600 (Central Standard Time),395865.80000019073,A,bo,O,o,115,1,981.5,394884.30000019073,7033,WL,C,5.0
3,9.379999876022339,learn,50620.00012397766,Wed Nov 06 2024 14:43:38 GMT-0600 (Central Standard Time),396166.90000009537,A,bod,O,d,284,1,1282.5999999046326,394884.30000019073,7033,WL,C,5.0
3,9.595999956130981,learn,50404.00004386902,Wed Nov 06 2024 14:43:38 GMT-0600 (Central Standard Time),396383.0,A,body,O,y,189,1,1498.6999998092651,394884.30000019073,7033,WL,C,5.0
3,10.395999908447266,learn,49604.000091552734,Wed Nov 06 2024 14:43:38 GMT-0600 (Central Standard Time),397182.30000019073,A,bodyenter,O,enter,779,1,2298.0,394884.30000019073,7033,WL,C,5.0
3,11.827999830245972,learn,48172.00016975403,Wed Nov 06 2024 14:43:38 GMT-0600 (Central Standard Time),398615.0,A,t,O,t,1415,1,1432.5,397182.5,7033,WL,C,6.0
3,11.944999933242798,learn,48055.0000667572,Wed Nov 06 2024 14:43:38 GMT-0600 (Central Standard Time),398731.5,A,to,O,o,101,1,1549.0,397182.5,7033,WL,C,6.0
3,12.062000036239624,learn,47937.999963760376,Wed Nov 06 2024 14:43:38 GMT-0600 (Central Standard Time),398848.10000014305,A,tow,O,w,104,1,1665.6000001430511,397182.5,7033,WL,C,6.0
3,12.144999980926514,learn,47855.000019073486,Wed Nov 06 2024 14:43:38 GMT-0600 (Central Standard Time),398931.40000009537,A,towe,O,e,76,1,1748.9000000953674,397182.5,7033,WL,C,6.0
3,12.728999853134155,learn,47271.000146865845,Wed Nov 06 2024 14:43:38 GMT-0600 (Central Standard Time),399515.90000009537,A,tower,O,r,571,1,2333.4000000953674,397182.5,7033,WL,C,6.0
3,12.961999893188477,learn,47038.00010681152,Wed Nov 06 2024 14:43:38 GMT-0600 (Central Standard Time),399748.10000014305,A,towerenter,O,enter,201,1,2565.600000143051,397182.5,7033,WL,C,6.0
3,13.628999948501587,learn,46371.00005149841,Wed Nov 06 2024 14:43:38 GMT-0600 (Central Standard Time),400415.40000009537,A,w,O,w,650,1,666.9000000953674,399748.5,7033,WL,C,7.0
3,13.84500002861023,learn,46154.99997138977,Wed Nov 06 2024 14:43:38 GMT-0600 (Central Standard Time),400631.40000009537,A,wh,O,h,182,1,882.9000000953674,399748.5,7033,WL,C,7.0
3,13.961999893188477,learn,46038.00010681152,Wed Nov 06 2024 14:43:38 GMT-0600 (Central Standard Time),400748.80000019073,A,whe,O,e,95,1,1000.3000001907349,399748.5,7033,WL,C,7.0
3,14.111999988555908,learn,45888.00001144409,Wed Nov 06 2024 14:43:38 GMT-0600 (Central Standard Time),400898.90000009537,A,whea,O,a,110,1,1150.4000000953674,399748.5,7033,WL,C,7.0
3,14.228999853134155,learn,45771.000146865845,Wed Nov 06 2024 14:43:38 GMT-0600 (Central Standard Time),401015.40000009537,A,wheat,O,t,83,1,1266.9000000953674,399748.5,7033,WL,C,7.0
3,14.562000036239624,learn,45437.999963760376,Wed Nov 06 2024 14:43:38 GMT-0600 (Central Standard Time),401348.7000000477,A,wheatenter,O,enter,308,1,1600.2000000476837,399748.5,7033,WL,C,7.0
3,16.07799983024597,learn,43922.00016975403,Wed Nov 06 2024 14:43:38 GMT-0600 (Central Standard Time),402864.7000000477,A,q,O,q,1505,1,1515.7999999523163,401348.90000009537,7033,WL,C,8.0
3,16.378000020980835,learn,43621.999979019165,Wed Nov 06 2024 14:43:38 GMT-0600 (Central Standard Time),403164.40000009537,A,qu,O,u,267,1,1815.5,401348.90000009537,7033,WL,C,8.0
3,16.91100001335144,learn,43088.99998664856,Wed Nov 06 2024 14:43:38 GMT-0600 (Central Standard Time),403697.80000019073,A,que,O,e,499,1,2348.9000000953674,401348.90000009537,7033,WL,C,8.0
3,17.07799983024597,learn,42922.00016975403,Wed Nov 06 2024 14:43:38 GMT-0600 (Central Standard Time),403864.40000009537,A,quee,O,e,131,1,2515.5,401348.90000009537,7033,WL,C,8.0
3,17.39299988746643,learn,42607.00011253357,Wed Nov 06 2024 14:43:38 GMT-0600 (Central Standard Time),404179.7000000477,A,queen,O,n,282,1,2830.7999999523163,401348.90000009537,7033,WL,C,8.0
3,17.80999994277954,learn,42190.00005722046,Wed Nov 06 2024 14:43:38 GMT-0600 (Central Standard Time),404596.5,A,queenenter,O,enter,401,1,3247.5999999046326,401348.90000009537,7033,WL,C,8.0
3,18.177000045776367,learn,41822.99995422363,Wed Nov 06 2024 14:43:38 GMT-0600 (Central Standard Time),404963.80000019073,A,s,O,s,354,1,367.10000014305115,404596.7000000477,7033,WL,C,9.0
3,18.361000061035156,learn,41638.999938964844,Wed Nov 06 2024 14:43:38 GMT-0600 (Central Standard Time),405147.5,A,su,O,u,146,1,550.7999999523163,404596.7000000477,7033,WL,C,9.0
3,18.859999895095825,learn,41140.000104904175,Wed Nov 06 2024 14:43:38 GMT-0600 (Central Standard Time),405646.7000000477,A,sug,O,g,463,1,1050.0,404596.7000000477,7033,WL,C,9.0
3,19.009999990463257,learn,40990.00000953674,Wed Nov 06 2024 14:43:38 GMT-0600 (Central Standard Time),405797.10000014305,A,suga,O,a,111,1,1200.4000000953674,404596.7000000477,7033,WL,C,9.0
3,19.14299988746643,learn,40857.00011253357,Wed Nov 06 2024 14:43:38 GMT-0600 (Central Standard Time),405929.30000019073,A,sugar,O,r,101,1,1332.6000001430511,404596.7000000477,7033,WL,C,9.0
3,19.592999935150146,learn,40407.00006484985,Wed Nov 06 2024 14:43:38 GMT-0600 (Central Standard Time),406379.2000000477,A,sugarenter,O,enter,427,1,1782.5,404596.7000000477,7033,WL,C,9.0
3,19.90999984741211,learn,40090.00015258789,Wed Nov 06 2024 14:43:38 GMT-0600 (Central Standard Time),406696.2000000477,A,b,O,b,298,1,316.7000000476837,406379.5,7033,WL,C,10.0
3,20.07699990272522,learn,39923.00009727478,Wed Nov 06 2024 14:43:38 GMT-0600 (Central Standard Time),406863.2000000477,A,bo,O,o,149,1,483.7000000476837,406379.5,7033,WL,C,10.0
3,20.30900001525879,learn,39690.99998474121,Wed Nov 06 2024 14:43:38 GMT-0600 (Central Standard Time),407095.5,A,boy,O,y,202,1,716.0,406379.5,7033,WL,C,10.0
3,21.04200005531311,learn,38957.99994468689,Wed Nov 06 2024 14:43:38 GMT-0600 (Central Standard Time),407828.80000019073,A,boyenter,O,enter,717,1,1449.3000001907349,406379.5,7033,WL,C,10.0
3,21.460000038146973,learn,38539.99996185303,Wed Nov 06 2024 14:43:38 GMT-0600 (Central Standard Time),408246.30000019073,A,h,O,h,401,1,417.30000019073486,407829.0,7033,WL,C,11.0
3,21.692999839782715,learn,38307.000160217285,Wed Nov 06 2024 14:43:38 GMT-0600 (Central Standard Time),408479.40000009537,A,ho,O,o,204,1,650.4000000953674,407829.0,7033,WL,C,11.0
3,21.842000007629395,learn,38157.999992370605,Wed Nov 06 2024 14:43:38 GMT-0600 (Central Standard Time),408629.10000014305,A,hom,O,m,125,1,800.1000001430511,407829.0,7033,WL,C,11.0
3,22.026000022888184,learn,37973.99997711182,Wed Nov 06 2024 14:43:38 GMT-0600 (Central Standard Time),408813.0,A,home,O,e,160,1,984.0,407829.0,7033,WL,C,11.0
3,22.375,learn,37625.0,Wed Nov 06 2024 14:43:38 GMT-0600 (Central Standard Time),409161.7000000477,A,homeenter,O,enter,318,1,1332.7000000476837,407829.0,7033,WL,C,11.0
3,22.991999864578247,learn,37008.00013542175,Wed Nov 06 2024 14:43:38 GMT-0600 (Central Standard Time),409779.10000014305,A,c,O,c,596,1,617.2000000476837,409161.90000009537,7033,WL,C,12.0
3,23.075000047683716,learn,36924.999952316284,Wed Nov 06 2024 14:43:38 GMT-0600 (Central Standard Time),409861.80000019073,A,ca,O,a,55,1,699.9000000953674,409161.90000009537,7033,WL,C,12.0
3,23.22599983215332,learn,36774.00016784668,Wed Nov 06 2024 14:43:38 GMT-0600 (Central Standard Time),410012.30000019073,A,cam,O,m,125,1,850.4000000953674,409161.90000009537,7033,WL,C,12.0
3,23.424000024795532,learn,36575.99997520447,Wed Nov 06 2024 14:43:38 GMT-0600 (Central Standard Time),410211.10000014305,A,camp,O,p,165,1,1049.2000000476837,409161.90000009537,7033,WL,C,12.0
3,24.090999841690063,learn,35909.00015830994,Wed Nov 06 2024 14:43:38 GMT-0600 (Central Standard Time),410877.7000000477,A,campenter,O,enter,658,1,1715.7999999523163,409161.90000009537,7033,WL,C,12.0
3,24.64199995994568,learn,35358.00004005432,Wed Nov 06 2024 14:43:38 GMT-0600 (Central Standard Time),411428.40000009537,A,f,O,f,528,1,550.4000000953674,410878.0,7033,WL,C,13.0
3,24.80900001525879,learn,35190.99998474121,Wed Nov 06 2024 14:43:38 GMT-0600 (Central Standard Time),411595.2000000477,A,fl,O,l,128,1,717.2000000476837,410878.0,7033,WL,C,13.0
3,24.891000032424927,learn,35108.99996757507,Wed Nov 06 2024 14:43:38 GMT-0600 (Central Standard Time),411677.7000000477,A,fla,O,a,61,1,799.7000000476837,410878.0,7033,WL,C,13.0
3,25.174999952316284,learn,34825.000047683716,Wed Nov 06 2024 14:43:38 GMT-0600 (Central Standard Time),411961.80000019073,A,flag,O,g,268,1,1083.8000001907349,410878.0,7033,WL,C,13.0
3,25.506999969482422,learn,34493.00003051758,Wed Nov 06 2024 14:43:38 GMT-0600 (Central Standard Time),412294.0,A,flagenter,O,enter,297,1,1416.0,410878.0,7033,WL,C,13.0
3,25.842000007629395,learn,34157.999992370605,Wed Nov 06 2024 14:43:38 GMT-0600 (Central Standard Time),412628.2000000477,A,c,O,c,320,1,333.89999985694885,412294.30000019073,7033,WL,C,14.0
3,25.941999912261963,learn,34058.00008773804,Wed Nov 06 2024 14:43:38 GMT-0600 (Central Standard Time),412728.2000000477,A,ca,O,a,72,1,433.89999985694885,412294.30000019073,7033,WL,C,14.0
3,26.157999992370605,learn,33842.000007629395,Wed Nov 06 2024 14:43:38 GMT-0600 (Central Standard Time),412944.90000009537,A,cat,O,t,180,1,650.5999999046326,412294.30000019073,7033,WL,C,14.0
3,26.340999841690063,learn,33659.00015830994,Wed Nov 06 2024 14:43:38 GMT-0600 (Central Standard Time),413127.90000009537,A,catt,O,t,147,1,833.5999999046326,412294.30000019073,7033,WL,C,14.0
3,26.47499990463257,learn,33525.00009536743,Wed Nov 06 2024 14:43:38 GMT-0600 (Central Standard Time),413261.2000000477,A,cattl,O,l,109,1,966.8999998569489,412294.30000019073,7033,WL,C,14.0
3,26.625,learn,33375.0,Wed Nov 06 2024 14:43:38 GMT-0600 (Central Standard Time),413411.30000019073,A,cattle,O,e,118,1,1117.0,412294.30000019073,7033,WL,C,14.0
3,26.889999866485596,learn,33110.000133514404,Wed Nov 06 2024 14:43:38 GMT-0600 (Central Standard Time),413676.80000019073,A,cattleenter,O,enter,240,1,1382.5,412294.30000019073,7033,WL,C,14.0
3,31.806999921798706,learn,28193.000078201294,Wed Nov 06 2024 14:43:38 GMT-0600 (Central Standard Time),418592.90000009537,A,c,O,c,4906,1,4915.799999952316,413677.10000014305,7033,WL,C,15.0
3,32.056999921798706,learn,27943.000078201294,Wed Nov 06 2024 14:43:38 GMT-0600 (Central Standard Time),418843.0,A,co,O,o,219,1,5165.899999856949,413677.10000014305,7033,WL,C,15.0
3,32.18899989128113,learn,27811.000108718872,Wed Nov 06 2024 14:43:38 GMT-0600 (Central Standard Time),418975.10000014305,A,cor,O,r,104,1,5298.0,413677.10000014305,7033,WL,C,15.0
3,32.40599989891052,learn,27594.000101089478,Wed Nov 06 2024 14:43:38 GMT-0600 (Central Standard Time),419192.0,A,corn,O,n,199,1,5514.899999856949,413677.10000014305,7033,WL,C,15.0
3,32.80499982833862,learn,27195.000171661377,Wed Nov 06 2024 14:43:38 GMT-0600 (Central Standard Time),419591.5,A,cornenter,O,enter,380,1,5914.399999856949,413677.10000014305,7033,WL,C,15.0
4,0.8830001354217529,learn,59116.99986457825,Wed Nov 06 2024 14:43:38 GMT-0600 (Central Standard Time),489502.90000009537,A,w,O,w,867,1,882.5999999046326,488620.30000019073,7033,WL,C,1.0
4,1.133000135421753,learn,58866.99986457825,Wed Nov 06 2024 14:43:38 GMT-0600 (Central Standard Time),489752.90000009537,A,wo,O,o,215,1,1132.5999999046326,488620.30000019073,7033,WL,C,1.0
4,1.2320001125335693,learn,58767.99988746643,Wed Nov 06 2024 14:43:38 GMT-0600 (Central Standard Time),489851.90000009537,A,woe,O,e,66,1,1231.5999999046326,488620.30000019073,7033,WL,C,1.0
4,1.4000000953674316,learn,58599.99990463257,Wed Nov 06 2024 14:43:38 GMT-0600 (Central Standard Time),490019.5,A,woer,O,r,138,1,1399.1999998092651,488620.30000019073,7033,WL,C,1.0
4,1.8330001831054688,learn,58166.99981689453,Wed Nov 06 2024 14:43:38 GMT-0600 (Central Standard Time),490452.7000000477,A,woe,O,backspace,413,1,1832.3999998569489,488620.30000019073,7033,WL,C,1.0
4,2.0490000247955322,learn,57950.99997520447,Wed Nov 06 2024 14:43:38 GMT-0600 (Central Standard Time),490668.10000014305,A,wo,O,backspace,191,1,2047.7999999523163,488620.30000019073,7033,WL,C,1.0
4,2.2160000801086426,learn,57783.99991989136,Wed Nov 06 2024 14:43:38 GMT-0600 (Central Standard Time),490835.7000000477,A,w,O,backspace,145,1,2215.399999856949,488620.30000019073,7033,WL,C,1.0
4,2.366000175476074,learn,57633.999824523926,Wed Nov 06 2024 14:43:38 GMT-0600 (Central Standard Time),490985.7000000477,A,,O,backspace,113,1,2365.399999856949,488620.30000019073,7033,WL,C,1.0
4,3.0830001831054688,learn,56916.99981689453,Wed Nov 06 2024 14:43:38 GMT-0600 (Central Standard Time),491702.30000019073,A,w,O,w,684,1,3082.0,488620.30000019073,7033,WL,C,1.0
4,3.4830000400543213,learn,56516.99995994568,Wed Nov 06 2024 14:43:38 GMT-0600 (Central Standard Time),492102.10000014305,A,,O,backspace,367,1,3481.7999999523163,488620.30000019073,7033,WL,C,1.0
4,3.866000175476074,learn,56133.999824523926,Wed Nov 06 2024 14:43:38 GMT-0600 (Central Standard Time),492485.0,A,t,O,t,359,1,3864.699999809265,488620.30000019073,7033,WL,C,1.0
4,4.14900016784668,learn,55850.99983215332,Wed Nov 06 2024 14:43:38 GMT-0600 (Central Standard Time),492768.30000019073,A,to,O,o,247,1,4148.0,488620.30000019073,7033,WL,C,1.0
4,4.432000160217285,learn,55567.999839782715,Wed Nov 06 2024 14:43:38 GMT-0600 (Central Standard Time),493051.80000019073,A,tow,O,w,242,1,4431.5,488620.30000019073,7033,WL,C,1.0
4,4.582000017166138,learn,55417.99998283386,Wed Nov 06 2024 14:43:38 GMT-0600 (Central Standard Time),493201.5,A,towe,O,e,112,1,4581.199999809265,488620.30000019073,7033,WL,C,1.0
4,4.7820000648498535,learn,55217.99993515015,Wed Nov 06 2024 14:43:38 GMT-0600 (Central Standard Time),493401.0,A,tower,O,r,162,1,4780.699999809265,488620.30000019073,7033,WL,C,1.0
4,5.21399998664856,learn,54786.00001335144,Wed Nov 06 2024 14:43:38 GMT-0600 (Central Standard Time),493833.90000009537,A,towerenter,O,enter,412,1,5213.599999904633,488620.30000019073,7033,WL,C,1.0
4,5.64900016784668,learn,54350.99983215332,Wed Nov 06 2024 14:43:38 GMT-0600 (Central Standard Time),494268.0,A,w,O,w,420,1,433.89999985694885,493834.10000014305,7033,WL,C,2.0
4,5.898000001907349,learn,54101.99999809265,Wed Nov 06 2024 14:43:38 GMT-0600 (Central Standard Time),494518.0,A,wh,O,h,216,1,683.8999998569489,493834.10000014305,7033,WL,C,2.0
4,5.96399998664856,learn,54036.00001335144,Wed Nov 06 2024 14:43:38 GMT-0600 (Central Standard Time),494583.80000019073,A,whe,O,e,33,1,749.7000000476837,493834.10000014305,7033,WL,C,2.0
4,6.115000009536743,learn,53884.99999046326,Wed Nov 06 2024 14:43:38 GMT-0600 (Central Standard Time),494734.5,A,whea,O,a,127,1,900.3999998569489,493834.10000014305,7033,WL,C,2.0
4,6.180999994277954,learn,53819.000005722046,Wed Nov 06 2024 14:43:38 GMT-0600 (Central Standard Time),494800.30000019073,A,wheat,O,t,28,1,966.2000000476837,493834.10000014305,7033,WL,C,2.0
4,6.647000074386597,learn,53352.9999256134,Wed Nov 06 2024 14:43:38 GMT-0600 (Central Standard Time),495266.7000000477,A,wheatenter,O,enter,445,1,1432.5999999046326,493834.10000014305,7033,WL,C,2.0
4,7.281000137329102,learn,52718.9998626709,Wed Nov 06 2024 14:43:38 GMT-0600 (Central Standard Time),495900.90000009537,A,s,O,s,620,1,633.9000000953674,495267.0,7033,WL,C,3.0
4,7.930999994277954,learn,52069.000005722046,Wed Nov 06 2024 14:43:38 GMT-0600 (Central Standard Time),496550.90000009537,A,su,O,u,614,1,1283.9000000953674,495267.0,7033,WL,C,3.0
4,8.148000001907349,learn,51851.99999809265,Wed Nov 06 2024 14:43:38 GMT-0600 (Central Standard Time),496767.60000014305,A,sug,O,g,189,1,1500.6000001430511,495267.0,7033,WL,C,3.0
4,8.264000177383423,learn,51735.99982261658,Wed Nov 06 2024 14:43:38 GMT-0600 (Central Standard Time),496883.90000009537,A,suga,O,a,81,1,1616.9000000953674,495267.0,7033,WL,C,3.0
4,8.430999994277954,learn,51569.000005722046,Wed Nov 06 2024 14:43:38 GMT-0600 (Central Standard Time),497050.30000019073,A,sugar,O,r,130,1,1783.3000001907349,495267.0,7033,WL,C,3.0
4,8.69700002670288,learn,51302.99997329712,Wed Nov 06 2024 14:43:38 GMT-0600 (Central Standard Time),497316.0,A,sugarenter,O,enter,233,1,2049.0,495267.0,7033,WL,C,3.0
4,9.746999979019165,learn,50253.000020980835,Wed Nov 06 2024 14:43:38 GMT-0600 (Central Standard Time),498366.5,A,q,O,q,1034,1,1050.1999998092651,497316.30000019073,7033,WL,C,4.0
4,9.96399998664856,learn,50036.00001335144,Wed Nov 06 2024 14:43:38 GMT-0600 (Central Standard Time),498583.30000019073,A,qu,O,u,181,1,1267.0,497316.30000019073,7033,WL,C,4.0
4,10.097000122070312,learn,49902.99987792969,Wed Nov 06 2024 14:43:38 GMT-0600 (Central Standard Time),498716.60000014305,A,que,O,e,102,1,1400.2999999523163,497316.30000019073,7033,WL,C,4.0
4,10.264000177383423,learn,49735.99982261658,Wed Nov 06 2024 14:43:38 GMT-0600 (Central Standard Time),498883.30000019073,A,quee,O,e,130,1,1567.0,497316.30000019073,7033,WL,C,4.0
4,10.397000074386597,learn,49602.9999256134,Wed Nov 06 2024 14:43:38 GMT-0600 (Central Standard Time),499016.60000014305,A,queen,O,n,104,1,1700.2999999523163,497316.30000019073,7033,WL,C,4.0
4,10.92900013923645,learn,49070.99986076355,Wed Nov 06 2024 14:43:38 GMT-0600 (Central Standard Time),499548.5,A,queenenter,O,enter,509,1,2232.199999809265,497316.30000019073,7033,WL,C,4.0
4,11.69700002670288,learn,48302.99997329712,Wed Nov 06 2024 14:43:38 GMT-0600 (Central Standard Time),500315.90000009537,A,b,O,b,753,1,767.0,499548.90000009537,7033,WL,C,5.0
4,12.095999956130981,learn,47904.00004386902,Wed Nov 06 2024 14:43:38 GMT-0600 (Central Standard Time),500715.80000019073,A,by,O,y,360,1,1166.9000000953674,499548.90000009537,7033,WL,C,5.0
4,12.880000114440918,learn,47119.99988555908,Wed Nov 06 2024 14:43:38 GMT-0600 (Central Standard Time),501499.0,A,b,O,backspace,744,1,1950.0999999046326,499548.90000009537,7033,WL,C,5.0
4,13.479000091552734,learn,46520.999908447266,Wed Nov 06 2024 14:43:38 GMT-0600 (Central Standard Time),502098.90000009537,A,bo,O,o,560,1,2550.0,499548.90000009537,7033,WL,C,5.0
4,13.729000091552734,learn,46270.999908447266,Wed Nov 06 2024 14:43:38 GMT-0600 (Central Standard Time),502348.60000014305,A,boy,O,y,209,1,2799.7000000476837,499548.90000009537,7033,WL,C,5.0
4,14.16100001335144,learn,45838.99998664856,Wed Nov 06 2024 14:43:38 GMT-0600 (Central Standard Time),502780.80000019073,A,boyenter,O,enter,410,1,3231.9000000953674,499548.90000009537,7033,WL,C,5.0
4,14.578999996185303,learn,45421.0000038147,Wed Nov 06 2024 14:43:38 GMT-0600 (Central Standard Time),503198.30000019073,A,h,O,h,401,1,417.10000014305115,502781.2000000477,7033,WL,C,6.0
4,14.729000091552734,learn,45270.999908447266,Wed Nov 06 2024 14:43:38 GMT-0600 (Central Standard Time),503348.0,A,ho,O,o,119,1,566.7999999523163,502781.2000000477,7033,WL,C,6.0
4,14.879000186920166,learn,45120.999813079834,Wed Nov 06 2024 14:43:38 GMT-0600 (Central Standard Time),503498.10000014305,A,hom,O,m,112,1,716.9000000953674,502781.2000000477,7033,WL,C,6.0
4,15.062000036239624,learn,44937.999963760376,Wed Nov 06 2024 14:43:38 GMT-0600 (Central Standard Time),503681.40000009537,A,home,O,e,146,1,900.2000000476837,502781.2000000477,7033,WL,C,6.0
4,15.361000061035156,learn,44638.999938964844,Wed Nov 06 2024 14:43:38 GMT-0600 (Central Standard Time),503980.40000009537,A,homeenter,O,enter,274,1,1199.2000000476837,502781.2000000477,7033,WL,C,6.0
4,15.611999988555908,learn,44388.00001144409,Wed Nov 06 2024 14:43:38 GMT-0600 (Central Standard Time),504231.30000019073,A,c,O,c,233,1,250.70000004768372,503980.60000014305,7033,WL,C,7.0
4,15.729000091552734,learn,44270.999908447266,Wed Nov 06 2024 14:43:38 GMT-0600 (Central Standard Time),504348.2000000477,A,ca,O,a,77,1,367.59999990463257,503980.60000014305,7033,WL,C,7.0
4,15.84500002861023,learn,44154.99997138977,Wed Nov 06 2024 14:43:38 GMT-0600 (Central Standard Time),504464.60000014305,A,cam,O,m,86,1,484.0,503980.60000014305,7033,WL,C,7.0
4,16.295000076293945,learn,43704.999923706055,Wed Nov 06 2024 14:43:38 GMT-0600 (Central Standard Time),504914.30000019073,A,camp,O,p,420,1,933.7000000476837,503980.60000014305,7033,WL,C,7.0
4,16.710999965667725,learn,43289.000034332275,Wed Nov 06 2024 14:43:38 GMT-0600 (Central Standard Time),505330.10000014305,A,campenter,O,enter,385,1,1349.5,503980.60000014305,7033,WL,C,7.0
4,17.111999988555908,learn,42888.00001144409,Wed Nov 06 2024 14:43:38 GMT-0600 (Central Standard Time),505731.0,A,f,O,f,380,1,400.69999980926514,505330.30000019073,7033,WL,C,8.0
4,17.261000156402588,learn,42738.99984359741,Wed Nov 06 2024 14:43:38 GMT-0600 (Central Standard Time),505880.80000019073,A,fl,O,l,121,1,550.5,505330.30000019073,7033,WL,C,8.0
4,17.361000061035156,learn,42638.999938964844,Wed Nov 06 2024 14:43:38 GMT-0600 (Central Standard Time),505980.60000014305,A,fla,O,a,77,1,650.2999999523163,505330.30000019073,7033,WL,C,8.0
4,17.710999965667725,learn,42289.000034332275,Wed Nov 06 2024 14:43:38 GMT-0600 (Central Standard Time),506330.5,A,flag,O,g,325,1,1000.1999998092651,505330.30000019073,7033,WL,C,8.0
4,17.97699999809265,learn,42023.00000190735,Wed Nov 06 2024 14:43:38 GMT-0600 (Central Standard Time),506596.30000019073,A,flagenter,O,enter,240,1,1266.0,505330.30000019073,7033,WL,C,8.0
4,18.278000116348267,learn,41721.99988365173,Wed Nov 06 2024 14:43:38 GMT-0600 (Central Standard Time),506897.30000019073,A,c,O,c,290,1,300.80000019073486,506596.5,7033,WL,C,9.0
4,18.528000116348267,learn,41471.99988365173,Wed Nov 06 2024 14:43:38 GMT-0600 (Central Standard Time),507147.10000014305,A,co,O,o,220,1,550.6000001430511,506596.5,7033,WL,C,9.0
4,18.694000005722046,learn,41305.999994277954,Wed Nov 06 2024 14:43:38 GMT-0600 (Central Standard Time),507313.7000000477,A,cor,O,r,140,1,717.2000000476837,506596.5,7033,WL,C,9.0
4,18.844000101089478,learn,41155.99989891052,Wed Nov 06 2024 14:43:38 GMT-0600 (Central Standard Time),507463.40000009537,A,corn,O,n,114,1,866.9000000953674,506596.5,7033,WL,C,9.0
4,19.39300012588501,learn,40606.99987411499,Wed Nov 06 2024 14:43:38 GMT-0600 (Central Standard Time),508012.5,A,cornenter,O,enter,514,1,1416.0,506596.5,7033,WL,C,9.0
4,20.377000093460083,learn,39622.99990653992,Wed Nov 06 2024 14:43:38 GMT-0600 (Central Standard Time),508996.7000000477,A,v,O,v,962,1,983.8999998569489,508012.80000019073,7033,WL,C,10.0
4,20.4760000705719,learn,39523.9999294281,Wed Nov 06 2024 14:43:38 GMT-0600 (Central Standard Time),509095.90000009537,A,va,O,a,62,1,1083.0999999046326,508012.80000019073,7033,WL,C,10.0
4,20.7260000705719,learn,39273.9999294281,Wed Nov 06 2024 14:43:38 GMT-0600 (Central Standard Time),509345.80000019073,A,vat,O,t,222,1,1333.0,508012.80000019073,7033,WL,C,10.0
4,20.877000093460083,learn,39122.99990653992,Wed Nov 06 2024 14:43:38 GMT-0600 (Central Standard Time),509496.30000019073,A,vatt,O,t,129,1,1483.5,508012.80000019073,7033,WL,C,10.0
4,21.31000018119812,learn,38689.99981880188,Wed Nov 06 2024 14:43:38 GMT-0600 (Central Standard Time),509929.5,A,vat,O,backspace,402,1,1916.6999998092651,508012.80000019073,7033,WL,C,10.0
4,21.493000030517578,learn,38506.99996948242,Wed Nov 06 2024 14:43:38 GMT-0600 (Central Standard Time),510112.80000019073,A,va,O,backspace,155,1,2100.0,508012.80000019073,7033,WL,C,10.0
4,21.64300012588501,learn,38356.99987411499,Wed Nov 06 2024 14:43:38 GMT-0600 (Central Standard Time),510262.80000019073,A,v,O,backspace,124,1,2250.0,508012.80000019073,7033,WL,C,10.0
4,21.81000018119812,learn,38189.99981880188,Wed Nov 06 2024 14:43:38 GMT-0600 (Central Standard Time),510429.60000014305,A,,O,backspace,134,1,2416.7999999523163,508012.80000019073,7033,WL,C,10.0
4,22.593000173568726,learn,37406.999826431274,Wed Nov 06 2024 14:43:38 GMT-0600 (Central Standard Time),511212.40000009537,A,c,O,c,744,1,3199.5999999046326,508012.80000019073,7033,WL,C,10.0
4,22.675000190734863,learn,37324.99980926514,Wed Nov 06 2024 14:43:38 GMT-0600 (Central Standard Time),511294.7000000477,A,ca,O,a,55,1,3281.899999856949,508012.80000019073,7033,WL,C,10.0
4,22.960000038146973,learn,37039.99996185303,Wed Nov 06 2024 14:43:38 GMT-0600 (Central Standard Time),511579.10000014305,A,cat,O,t,266,1,3566.2999999523163,508012.80000019073,7033,WL,C,10.0
4,23.12600016593933,learn,36873.99983406067,Wed Nov 06 2024 14:43:38 GMT-0600 (Central Standard Time),511745.40000009537,A,catt,O,t,137,1,3732.5999999046326,508012.80000019073,7033,WL,C,10.0
4,23.243000030517578,learn,36756.99996948242,Wed Nov 06 2024 14:43:38 GMT-0600 (Central Standard Time),511862.10000014305,A,cattl,O,l,83,1,3849.2999999523163,508012.80000019073,7033,WL,C,10.0
4,23.39300012588501,learn,36606.99987411499,Wed Nov 06 2024 14:43:38 GMT-0600 (Central Standard Time),512012.10000014305,A,cattle,O,e,120,1,3999.2999999523163,508012.80000019073,7033,WL,C,10.0
4,23.558000087738037,learn,36441.99991226196,Wed Nov 06 2024 14:43:38 GMT-0600 (Central Standard Time),512177.7000000477,A,cattleenter,O,enter,134,1,4164.899999856949,508012.80000019073,7033,WL,C,10.0
4,24.05900001525879,learn,35940.99998474121,Wed Nov 06 2024 14:43:38 GMT-0600 (Central Standard Time),512678.60000014305,A,b,O,b,484,1,500.60000014305115,512178.0,7033,WL,C,11.0
4,24.242000102996826,learn,35757.999897003174,Wed Nov 06 2024 14:43:38 GMT-0600 (Central Standard Time),512861.80000019073,A,bo,O,o,150,1,683.8000001907349,512178.0,7033,WL,C,11.0
4,24.442000150680542,learn,35557.99984931946,Wed Nov 06 2024 14:43:38 GMT-0600 (Central Standard Time),513061.80000019073,A,bod,O,d,167,1,883.8000001907349,512178.0,7033,WL,C,11.0
4,24.592000007629395,learn,35407.999992370605,Wed Nov 06 2024 14:43:38 GMT-0600 (Central Standard Time),513211.80000019073,A,body,O,y,111,1,1033.8000001907349,512178.0,7033,WL,C,11.0
4,24.991000175476074,learn,35008.999824523926,Wed Nov 06 2024 14:43:38 GMT-0600 (Central Standard Time),513610.60000014305,A,bodyenter,O,enter,368,1,1432.6000001430511,512178.0,7033,WL,C,11.0
4,25.342000007629395,learn,34657.999992370605,Wed Nov 06 2024 14:43:38 GMT-0600 (Central Standard Time),513961.30000019073,A,l,O,l,332,1,350.40000009536743,513610.90000009537,7033,WL,C,12.0
4,25.425000190734863,learn,34574.99980926514,Wed Nov 06 2024 14:43:38 GMT-0600 (Central Standard Time),514044.0,A,le,O,e,55,1,433.09999990463257,513610.90000009537,7033,WL,C,12.0
4,25.592000007629395,learn,34407.999992370605,Wed Nov 06 2024 14:43:38 GMT-0600 (Central Standard Time),514211.40000009537,A,let,O,t,141,1,600.5,513610.90000009537,7033,WL,C,12.0
4,25.70900011062622,learn,34290.99988937378,Wed Nov 06 2024 14:43:38 GMT-0600 (Central Standard Time),514328.0,A,lett,O,t,89,1,717.0999999046326,513610.90000009537,7033,WL,C,12.0
4,25.85800004005432,learn,34141.99995994568,Wed Nov 06 2024 14:43:38 GMT-0600 (Central Standard Time),514477.80000019073,A,lette,O,e,123,1,866.9000000953674,513610.90000009537,7033,WL,C,12.0
4,25.975000143051147,learn,34024.99985694885,Wed Nov 06 2024 14:43:38 GMT-0600 (Central Standard Time),514594.40000009537,A,letter,O,r,87,1,983.5,513610.90000009537,7033,WL,C,12.0
4,26.424000024795532,learn,33575.99997520447,Wed Nov 06 2024 14:43:38 GMT-0600 (Central Standard Time),515043.5,A,letterenter,O,enter,418,1,1432.5999999046326,513610.90000009537,7033,WL,C,12.0
4,26.875,learn,33125.0,Wed Nov 06 2024 14:43:38 GMT-0600 (Central Standard Time),515494.10000014305,A,n,O,n,442,1,450.40000009536743,515043.7000000477,7033,WL,C,13.0
4,27.058000087738037,learn,32941.99991226196,Wed Nov 06 2024 14:43:38 GMT-0600 (Central Standard Time),515677.30000019073,A,na,O,a,158,1,633.6000001430511,515043.7000000477,7033,WL,C,13.0
4,27.225000143051147,learn,32774.99985694885,Wed Nov 06 2024 14:43:38 GMT-0600 (Central Standard Time),515844.30000019073,A,nai,O,i,136,1,800.6000001430511,515043.7000000477,7033,WL,C,13.0
4,27.558000087738037,learn,32441.999912261963,Wed Nov 06 2024 14:43:38 GMT-0600 (Central Standard Time),516177.30000019073,A,nail,O,l,302,1,1133.6000001430511,515043.7000000477,7033,WL,C,13.0
4,27.973999977111816,learn,32026.000022888184,Wed Nov 06 2024 14:43:38 GMT-0600 (Central Standard Time),516593.0,A,nailenter,O,enter,378,1,1549.2999999523163,515043.7000000477,7033,WL,C,13.0
4,28.424000024795532,learn,31575.999975204468,Wed Nov 06 2024 14:43:38 GMT-0600 (Central Standard Time),517043.80000019073,A,s,O,s,437,1,450.5,516593.30000019073,7033,WL,C,14.0
4,28.52400016784668,learn,31475.99983215332,Wed Nov 06 2024 14:43:38 GMT-0600 (Central Standard Time),517143.60000014305,A,sh,O,h,72,1,550.2999999523163,516593.30000019073,7033,WL,C,14.0
4,28.657999992370605,learn,31342.000007629395,Wed Nov 06 2024 14:43:38 GMT-0600 (Central Standard Time),517277.0,A,sho,O,o,100,1,683.6999998092651,516593.30000019073,7033,WL,C,14.0
4,28.94099998474121,learn,31059.00001525879,Wed Nov 06 2024 14:43:38 GMT-0600 (Central Standard Time),517560.40000009537,A,shor,O,r,247,1,967.0999999046326,516593.30000019073,7033,WL,C,14.0
4,29.10800004005432,learn,30891.99995994568,Wed Nov 06 2024 14:43:38 GMT-0600 (Central Standard Time),517727.10000014305,A,shore,O,e,132,1,1133.7999999523163,516593.30000019073,7033,WL,C,14.0
4,29.890000104904175,learn,30109.999895095825,Wed Nov 06 2024 14:43:38 GMT-0600 (Central Standard Time),518509.0,A,shoreenter,O,enter,756,1,1915.6999998092651,516593.30000019073,7033,WL,C,14.0
4,52.96600008010864,learn,7033.999919891357,Wed Nov 06 2024 14:43:38 GMT-0600 (Central Standard Time),541584.8000001907,A,enter,O,enter,23056,1,23075.60000014305,518509.2000000477,7033,WL,C,15.0
5,0.7840001583099365,learn,60000.0,Wed Nov 06 2024 14:43:38 GMT-0600 (Central Standard Time),607997.4000000954,A,t,O,t,760,1,783.0,607214.4000000954,7033,WL,C,1.0
5,1.067000150680542,learn,60000.0,Wed Nov 06 2024 14:43:38 GMT-0600 (Central Standard Time),608280.8000001907,A,to,O,o,254,1,1066.4000000953674,607214.4000000954,7033,WL,C,1.0
5,1.2000000476837158,learn,60000.0,Wed Nov 06 2024 14:43:38 GMT-0600 (Central Standard Time),608413.7000000477,A,tow,O,w,103,1,1199.2999999523163,607214.4000000954,7033,WL,C,1.0
5,1.25,learn,60000.0,Wed Nov 06 2024 14:43:38 GMT-0600 (Central Standard Time),608463.0,A,towe,O,e,22,1,1248.5999999046326,607214.4000000954,7033,WL,C,1.0
5,1.3840000629425049,learn,60000.0,Wed Nov 06 2024 14:43:38 GMT-0600 (Central Standard Time),608597.2000000477,A,tower,O,r,115,1,1382.7999999523163,607214.4000000954,7033,WL,C,1.0
5,1.9660000801086426,learn,60000.0,Wed Nov 06 2024 14:43:38 GMT-0600 (Central Standard Time),609179.2000000477,A,towerenter,O,enter,550,1,1964.7999999523163,607214.4000000954,7033,WL,C,1.0
5,2.3500001430511475,learn,60000.0,Wed Nov 06 2024 14:43:38 GMT-0600 (Central Standard Time),609563.3000001907,A,w,O,w,371,1,383.90000009536743,609179.4000000954,7033,WL,C,2.0
5,2.615999937057495,learn,60000.0,Wed Nov 06 2024 14:43:38 GMT-0600 (Central Standard Time),609829.8000001907,A,wh,O,h,242,1,650.4000000953674,609179.4000000954,7033,WL,C,2.0
5,2.7330000400543213,learn,60000.0,Wed Nov 06 2024 14:43:38 GMT-0600 (Central Standard Time),609946.600000143,A,whe,O,e,86,1,767.2000000476837,609179.4000000954,7033,WL,C,2.0
5,2.8329999446868896,learn,60000.0,Wed Nov 06 2024 14:43:38 GMT-0600 (Central Standard Time),610046.0,A,whea,O,a,76,1,866.5999999046326,609179.4000000954,7033,WL,C,2.0
5,3.0169999599456787,learn,60000.0,Wed Nov 06 2024 14:43:38 GMT-0600 (Central Standard Time),610230.0,A,wheat,O,t,157,1,1050.5999999046326,609179.4000000954,7033,WL,C,2.0
5,3.5490000247955322,learn,60000.0,Wed Nov 06 2024 14:43:38 GMT-0600 (Central Standard Time),610762.0,A,wheatenter,O,enter,500,1,1582.5999999046326,609179.4000000954,7033,WL,C,2.0
5,3.9160001277923584,learn,60000.0,Wed Nov 06 2024 14:43:38 GMT-0600 (Central Standard Time),611129.5,A,q,O,q,356,1,367.19999980926514,610762.3000001907,7033,WL,C,3.0
5,4.166000127792358,learn,60000.0,Wed Nov 06 2024 14:43:38 GMT-0600 (Central Standard Time),611379.5,A,qu,O,u,211,1,617.1999998092651,610762.3000001907,7033,WL,C,3.0
5,4.2829999923706055,learn,60000.0,Wed Nov 06 2024 14:43:38 GMT-0600 (Central Standard Time),611496.0,A,que,O,e,91,1,733.6999998092651,610762.3000001907,7033,WL,C,3.0
5,4.449000120162964,learn,60000.0,Wed Nov 06 2024 14:43:38 GMT-0600 (Central Standard Time),611662.8000001907,A,quee,O,e,139,1,900.5,610762.3000001907,7033,WL,C,3.0
5,4.598999977111816,learn,60000.0,Wed Nov 06 2024 14:43:38 GMT-0600 (Central Standard Time),611812.3000001907,A,queen,O,n,110,1,1050.0,610762.3000001907,7033,WL,C,3.0
5,4.998000144958496,learn,60000.0,Wed Nov 06 2024 14:43:38 GMT-0600 (Central Standard Time),612211.5,A,queenenter,O,enter,360,1,1449.1999998092651,610762.3000001907,7033,WL,C,3.0
5,5.348999977111816,learn,60000.0,Wed Nov 06 2024 14:43:38 GMT-0600 (Central Standard Time),612562.3000001907,A,s,O,s,339,1,350.60000014305115,612211.7000000477,7033,WL,C,4.0
5,5.516000032424927,learn,60000.0,Wed Nov 06 2024 14:43:38 GMT-0600 (Central Standard Time),612729.0,A,su,O,u,132,1,517.2999999523163,612211.7000000477,7033,WL,C,4.0
5,5.848999977111816,learn,60000.0,Wed Nov 06 2024 14:43:38 GMT-0600 (Central Standard Time),613062.0,A,sug,O,g,309,1,850.2999999523163,612211.7000000477,7033,WL,C,4.0
5,6.0320000648498535,learn,60000.0,Wed Nov 06 2024 14:43:38 GMT-0600 (Central Standard Time),613245.600000143,A,suga,O,a,151,1,1033.9000000953674,612211.7000000477,7033,WL,C,4.0
5,6.199000120162964,learn,60000.0,Wed Nov 06 2024 14:43:38 GMT-0600 (Central Standard Time),613412.4000000954,A,sugar,O,r,129,1,1200.7000000476837,612211.7000000477,7033,WL,C,4.0
5,6.398000001907349,learn,60000.0,Wed Nov 06 2024 14:43:38 GMT-0600 (Central Standard Time),613611.100000143,A,sugarenter,O,enter,174,1,1399.4000000953674,612211.7000000477,7033,WL,C,4.0
5,6.982000112533569,learn,60000.0,Wed Nov 06 2024 14:43:38 GMT-0600 (Central Standard Time),614195.100000143,A,b,O,b,571,1,583.7999999523163,613611.3000001907,7033,WL,C,5.0
5,7.199000120162964,learn,60000.0,Wed Nov 06 2024 14:43:38 GMT-0600 (Central Standard Time),614411.9000000954,A,bo,O,o,183,1,800.5999999046326,613611.3000001907,7033,WL,C,5.0
5,7.365000009536743,learn,60000.0,Wed Nov 06 2024 14:43:38 GMT-0600 (Central Standard Time),614578.4000000954,A,boy,O,y,129,1,967.0999999046326,613611.3000001907,7033,WL,C,5.0
5,7.730999946594238,learn,60000.0,Wed Nov 06 2024 14:43:38 GMT-0600 (Central Standard Time),614944.100000143,A,boyenter,O,enter,330,1,1332.7999999523163,613611.3000001907,7033,WL,C,5.0
5,7.965000152587891,learn,60000.0,Wed Nov 06 2024 14:43:38 GMT-0600 (Central Standard Time),615178.2000000477,A,d,O,d,222,1,233.89999985694885,614944.3000001907,7033,WL,C,6.0
5,8.148000001907349,learn,60000.0,Wed Nov 06 2024 14:43:38 GMT-0600 (Central Standard Time),615361.3000001907,A,do,O,o,155,1,417.0,614944.3000001907,7033,WL,C,6.0
5,8.29800009727478,learn,60000.0,Wed Nov 06 2024 14:43:38 GMT-0600 (Central Standard Time),615511.4000000954,A,doc,O,c,125,1,567.0999999046326,614944.3000001907,7033,WL,C,6.0
5,8.515000104904175,learn,60000.0,Wed Nov 06 2024 14:43:38 GMT-0600 (Central Standard Time),615728.100000143,A,doct,O,t,189,1,783.7999999523163,614944.3000001907,7033,WL,C,6.0
5,8.680999994277954,learn,60000.0,Wed Nov 06 2024 14:43:38 GMT-0600 (Central Standard Time),615894.4000000954,A,docto,O,o,140,1,950.0999999046326,614944.3000001907,7033,WL,C,6.0
5,9.281000137329102,learn,60000.0,Wed Nov 06 2024 14:43:38 GMT-0600 (Central Standard Time),616494.5,A,doctor,O,r,566,1,1550.1999998092651,614944.3000001907,7033,WL,C,6.0
5,9.513999938964844,learn,60000.0,Wed Nov 06 2024 14:43:38 GMT-0600 (Central Standard Time),616726.7000000477,A,doctorenter,O,enter,198,1,1782.3999998569489,614944.3000001907,7033,WL,C,6.0
5,9.781000137329102,learn,60000.0,Wed Nov 06 2024 14:43:38 GMT-0600 (Central Standard Time),616994.100000143,A,c,O,c,247,1,267.0,616727.100000143,7033,WL,C,7.0
5,9.864000082015991,learn,60000.0,Wed Nov 06 2024 14:43:38 GMT-0600 (Central Standard Time),617076.9000000954,A,ca,O,a,60,1,349.7999999523163,616727.100000143,7033,WL,C,7.0
5,10.04800009727478,learn,60000.0,Wed Nov 06 2024 14:43:38 GMT-0600 (Central Standard Time),617261.0,A,cam,O,m,172,1,533.8999998569489,616727.100000143,7033,WL,C,7.0
5,11.19700002670288,learn,60000.0,Wed Nov 06 2024 14:43:38 GMT-0600 (Central Standard Time),618410.600000143,A,camp,O,p,1112,1,1683.5,616727.100000143,7033,WL,C,7.0
5,11.480000019073486,learn,60000.0,Wed Nov 06 2024 14:43:38 GMT-0600 (Central Standard Time),618692.7000000477,A,campenter,O,enter,249,1,1965.5999999046326,616727.100000143,7033,WL,C,7.0
5,11.913000106811523,learn,60000.0,Wed Nov 06 2024 14:43:38 GMT-0600 (Central Standard Time),619126.8000001907,A,f,O,f,425,1,433.7000000476837,618693.100000143,7033,WL,C,8.0
5,12.064000129699707,learn,60000.0,Wed Nov 06 2024 14:43:38 GMT-0600 (Central Standard Time),619276.9000000954,A,fl,O,l,130,1,583.7999999523163,618693.100000143,7033,WL,C,8.0
5,12.230000019073486,learn,60000.0,Wed Nov 06 2024 14:43:38 GMT-0600 (Central Standard Time),619443.4000000954,A,fla,O,a,132,1,750.2999999523163,618693.100000143,7033,WL,C,8.0
5,12.680000066757202,learn,60000.0,Wed Nov 06 2024 14:43:38 GMT-0600 (Central Standard Time),619893.4000000954,A,flag,O,g,417,1,1200.2999999523163,618693.100000143,7033,WL,C,8.0
5,12.962000131607056,learn,60000.0,Wed Nov 06 2024 14:43:38 GMT-0600 (Central Standard Time),620175.600000143,A,flagenter,O,enter,247,1,1482.5,618693.100000143,7033,WL,C,8.0
5,13.513000011444092,learn,60000.0,Wed Nov 06 2024 14:43:38 GMT-0600 (Central Standard Time),620726.3000001907,A,c,O,c,543,1,550.4000000953674,620175.9000000954,7033,WL,C,9.0
5,13.746000051498413,learn,60000.0,Wed Nov 06 2024 14:43:38 GMT-0600 (Central Standard Time),620959.8000001907,A,co,O,o,196,1,783.9000000953674,620175.9000000954,7033,WL,C,9.0
5,14.213000059127808,learn,60000.0,Wed Nov 06 2024 14:43:38 GMT-0600 (Central Standard Time),621426.100000143,A,cor,O,r,437,1,1250.2000000476837,620175.9000000954,7033,WL,C,9.0
5,14.413000106811523,learn,60000.0,Wed Nov 06 2024 14:43:38 GMT-0600 (Central Standard Time),621626.0,A,corn,O,n,162,1,1450.0999999046326,620175.9000000954,7033,WL,C,9.0
5,15.062000036239624,learn,60000.0,Wed Nov 06 2024 14:43:38 GMT-0600 (Central Standard Time),622274.9000000954,A,cornenter,O,enter,626,1,2099.0,620175.9000000954,7033,WL,C,9.0
5,15.661999940872192,learn,60000.0,Wed Nov 06 2024 14:43:38 GMT-0600 (Central Standard Time),622875.5,A,c,O,c,588,1,600.2999999523163,622275.2000000477,7033,WL,C,10.0
5,15.779000043869019,learn,60000.0,Wed Nov 06 2024 14:43:38 GMT-0600 (Central Standard Time),622992.100000143,A,ca,O,a,85,1,716.9000000953674,622275.2000000477,7033,WL,C,10.0
5,15.996000051498413,learn,60000.0,Wed Nov 06 2024 14:43:38 GMT-0600 (Central Standard Time),623209.0,A,cat,O,t,182,1,933.7999999523163,622275.2000000477,7033,WL,C,10.0
5,16.144999980926514,learn,60000.0,Wed Nov 06 2024 14:43:38 GMT-0600 (Central Standard Time),623358.600000143,A,catt,O,t,124,1,1083.4000000953674,622275.2000000477,7033,WL,C,10.0
5,16.296000003814697,learn,60000.0,Wed Nov 06 2024 14:43:38 GMT-0600 (Central Standard Time),623508.8000001907,A,cattl,O,l,123,1,1233.6000001430511,622275.2000000477,7033,WL,C,10.0
5,16.411999940872192,learn,60000.0,Wed Nov 06 2024 14:43:38 GMT-0600 (Central Standard Time),623625.4000000954,A,cattle,O,e,80,1,1350.2000000476837,622275.2000000477,7033,WL,C,10.0
5,16.878000020980835,learn,60000.0,Wed Nov 06 2024 14:43:38 GMT-0600 (Central Standard Time),624091.0,A,cattleenter,O,enter,437,1,1815.7999999523163,622275.2000000477,7033,WL,C,10.0
5,17.49500012397766,learn,60000.0,Wed Nov 06 2024 14:43:38 GMT-0600 (Central Standard Time),624708.4000000954,A,l,O,l,596,1,617.2000000476837,624091.2000000477,7033,WL,C,11.0
5,17.644999980926514,learn,60000.0,Wed Nov 06 2024 14:43:38 GMT-0600 (Central Standard Time),624857.9000000954,A,le,O,e,112,1,766.7000000476837,624091.2000000477,7033,WL,C,11.0
5,17.812000036239624,learn,60000.0,Wed Nov 06 2024 14:43:38 GMT-0600 (Central Standard Time),625025.2000000477,A,let,O,t,147,1,934.0,624091.2000000477,7033,WL,C,11.0
5,18.111999988555908,learn,60000.0,Wed Nov 06 2024 14:43:38 GMT-0600 (Central Standard Time),625325.0,A,lete,O,e,276,1,1233.7999999523163,624091.2000000477,7033,WL,C,11.0
5,18.761000156402588,learn,60000.0,Wed Nov 06 2024 14:43:38 GMT-0600 (Central Standard Time),625974.4000000954,A,let,O,backspace,614,1,1883.2000000476837,624091.2000000477,7033,WL,C,11.0
5,18.861000061035156,learn,60000.0,Wed Nov 06 2024 14:43:38 GMT-0600 (Central Standard Time),626074.3000001907,A,lett,O,t,71,1,1983.1000001430511,624091.2000000477,7033,WL,C,11.0
5,18.977999925613403,learn,60000.0,Wed Nov 06 2024 14:43:38 GMT-0600 (Central Standard Time),626191.2000000477,A,lette,O,e,91,1,2100.0,624091.2000000477,7033,WL,C,11.0
5,19.111000061035156,learn,60000.0,Wed Nov 06 2024 14:43:38 GMT-0600 (Central Standard Time),626324.3000001907,A,letter,O,r,100,1,2233.100000143051,624091.2000000477,7033,WL,C,11.0
5,19.792999982833862,learn,60000.0,Wed Nov 06 2024 14:43:38 GMT-0600 (Central Standard Time),627006.7000000477,A,letterenter,O,enter,657,1,2915.5,624091.2000000477,7033,WL,C,11.0
5,20.16100001335144,learn,60000.0,Wed Nov 06 2024 14:43:38 GMT-0600 (Central Standard Time),627374.2000000477,A,b,O,b,352,1,367.2000000476837,627007.0,7033,WL,C,12.0
5,20.32800006866455,learn,60000.0,Wed Nov 06 2024 14:43:38 GMT-0600 (Central Standard Time),627540.9000000954,A,bo,O,o,136,1,533.9000000953674,627007.0,7033,WL,C,12.0
5,20.561000108718872,learn,60000.0,Wed Nov 06 2024 14:43:38 GMT-0600 (Central Standard Time),627773.8000001907,A,bod,O,d,208,1,766.8000001907349,627007.0,7033,WL,C,12.0
5,21.14400005340576,learn,60000.0,Wed Nov 06 2024 14:43:38 GMT-0600 (Central Standard Time),628357.4000000954,A,body,O,y,559,1,1350.4000000953674,627007.0,7033,WL,C,12.0
5,21.676000118255615,learn,60000.0,Wed Nov 06 2024 14:43:38 GMT-0600 (Central Standard Time),628889.4000000954,A,bodyenter,O,enter,494,1,1882.4000000953674,627007.0,7033,WL,C,12.0
5,22.0770001411438,learn,60000.0,Wed Nov 06 2024 14:43:38 GMT-0600 (Central Standard Time),629290.3000001907,A,n,O,n,389,1,400.60000014305115,628889.7000000477,7033,WL,C,13.0
5,22.259999990463257,learn,60000.0,Wed Nov 06 2024 14:43:38 GMT-0600 (Central Standard Time),629473.600000143,A,na,O,a,155,1,583.9000000953674,628889.7000000477,7033,WL,C,13.0
5,22.427000045776367,learn,60000.0,Wed Nov 06 2024 14:43:38 GMT-0600 (Central Standard Time),629640.2000000477,A,nai,O,i,141,1,750.5,628889.7000000477,7033,WL,C,13.0
5,22.842999935150146,learn,60000.0,Wed Nov 06 2024 14:43:38 GMT-0600 (Central Standard Time),630056.600000143,A,nail,O,l,379,1,1166.9000000953674,628889.7000000477,7033,WL,C,13.0
5,24.442000150680542,learn,60000.0,Wed Nov 06 2024 14:43:38 GMT-0600 (Central Standard Time),631655.100000143,A,nailenter,O,enter,1563,1,2765.4000000953674,628889.7000000477,7033,WL,C,13.0
5,24.759000062942505,learn,60000.0,Wed Nov 06 2024 14:43:38 GMT-0600 (Central Standard Time),631972.7000000477,A,s,O,s,295,1,317.2999999523163,631655.4000000954,7033,WL,C,14.0
5,25.325999975204468,learn,60000.0,Wed Nov 06 2024 14:43:38 GMT-0600 (Central Standard Time),632539.2000000477,A,sh,O,h,528,1,883.7999999523163,631655.4000000954,7033,WL,C,14.0
5,25.45900011062622,learn,60000.0,Wed Nov 06 2024 14:43:38 GMT-0600 (Central Standard Time),632672.5,A,sho,O,o,97,1,1017.0999999046326,631655.4000000954,7033,WL,C,14.0
5,25.676000118255615,learn,60000.0,Wed Nov 06 2024 14:43:38 GMT-0600 (Central Standard Time),632889.100000143,A,shor,O,r,182,1,1233.7000000476837,631655.4000000954,7033,WL,C,14.0
5,25.80900001525879,learn,60000.0,Wed Nov 06 2024 14:43:38 GMT-0600 (Central Standard Time),633022.4000000954,A,shore,O,e,99,1,1367.0,631655.4000000954,7033,WL,C,14.0
5,28.19099998474121,learn,60000.0,Wed Nov 06 2024 14:43:38 GMT-0600 (Central Standard Time),635403.9000000954,A,shoreenter,O,enter,2354,1,3748.5,631655.4000000954,7033,WL,C,14.0
5,47.9520001411438,learn,60000.0,Wed Nov 06 2024 14:43:38 GMT-0600 (Central Standard Time),655165.2000000477,A,h,O,h,19755,1,19760.89999985695,635404.3000001907,7033,WL,C,15.0
5,48.2020001411438,learn,60000.0,Wed Nov 06 2024 14:43:38 GMT-0600 (Central Standard Time),655415.0,A,ho,O,o,223,1,20010.699999809265,635404.3000001907,7033,WL,C,15.0
5,48.33500003814697,learn,60000.0,Wed Nov 06 2024 14:43:38 GMT-0600 (Central Standard Time),655548.5,A,hom,O,m,109,1,20144.199999809265,635404.3000001907,7033,WL,C,15.0
5,48.568000078201294,learn,60000.0,Wed Nov 06 2024 14:43:38 GMT-0600 (Central Standard Time),655781.5,A,home,O,e,205,1,20377.199999809265,635404.3000001907,7033,WL,C,15.0
5,48.8510000705719,learn,60000.0,Wed Nov 06 2024 14:43:38 GMT-0600 (Central Standard Time),656063.9000000954,A,homeenter,O,enter,255,1,20659.599999904633,635404.3000001907,7033,WL,C,15.0
6,1.6329998970031738,distr,58367.000102996826,Wed Nov 06 2024 14:43:38 GMT-0600 (Central Standard Time),736705.5,B,s,O,s,1598,1,1633.0,735072.5,7033,WL,C,1.0
6,1.9159998893737793,distr,58084.00011062622,Wed Nov 06 2024 14:43:38 GMT-0600 (Central Standard Time),736988.600000143,B,sk,O,k,250,1,1916.1000001430511,735072.5,7033,WL,C,1.0
6,2.2159998416900635,distr,57784.00015830994,Wed Nov 06 2024 14:43:38 GMT-0600 (Central Standard Time),737287.9000000954,B,sky,O,y,272,1,2215.4000000953674,735072.5,7033,WL,C,1.0
6,2.7819998264312744,distr,57218.000173568726,Wed Nov 06 2024 14:43:38 GMT-0600 (Central Standard Time),737853.600000143,B,skyenter,O,enter,532,1,2781.100000143051,735072.5,7033,WL,C,1.0
6,3.0490000247955322,distr,56950.99997520447,Wed Nov 06 2024 14:43:38 GMT-0600 (Central Standard Time),738121.100000143,B,d,O,d,248,1,267.2000000476837,737853.9000000954,7033,WL,C,2.0
6,3.2659997940063477,distr,56734.00020599365,Wed Nov 06 2024 14:43:38 GMT-0600 (Central Standard Time),738337.7000000477,B,do,O,o,179,1,483.7999999523163,737853.9000000954,7033,WL,C,2.0
6,3.5820000171661377,distr,56417.99998283386,Wed Nov 06 2024 14:43:38 GMT-0600 (Central Standard Time),738654.0,B,dol,O,l,291,1,800.0999999046326,737853.9000000954,7033,WL,C,2.0
6,3.7319998741149902,distr,56268.00012588501,Wed Nov 06 2024 14:43:38 GMT-0600 (Central Standard Time),738804.600000143,B,doll,O,l,126,1,950.7000000476837,737853.9000000954,7033,WL,C,2.0
6,3.9149999618530273,distr,56085.00003814697,Wed Nov 06 2024 14:43:38 GMT-0600 (Central Standard Time),738987.5,B,dolla,O,a,152,1,1133.5999999046326,737853.9000000954,7033,WL,C,2.0
6,4.098999977111816,distr,55901.00002288818,Wed Nov 06 2024 14:43:38 GMT-0600 (Central Standard Time),739170.7000000477,B,dollar,O,r,146,1,1316.7999999523163,737853.9000000954,7033,WL,C,2.0
6,4.363999843597412,distr,55636.00015640259,Wed Nov 06 2024 14:43:38 GMT-0600 (Central Standard Time),739436.4000000954,B,dollarenter,O,enter,231,1,1582.5,737853.9000000954,7033,WL,C,2.0
6,4.7149999141693115,distr,55285.00008583069,Wed Nov 06 2024 14:43:38 GMT-0600 (Central Standard Time),739787.3000001907,B,m,O,m,338,1,350.7000000476837,739436.600000143,7033,WL,C,3.0
6,4.980999946594238,distr,55019.00005340576,Wed Nov 06 2024 14:43:38 GMT-0600 (Central Standard Time),740053.2000000477,B,mo,O,o,243,1,616.5999999046326,739436.600000143,7033,WL,C,3.0
6,5.148999929428101,distr,54851.0000705719,Wed Nov 06 2024 14:43:38 GMT-0600 (Central Standard Time),740220.7000000477,B,mot,O,t,144,1,784.0999999046326,739436.600000143,7033,WL,C,3.0
6,5.347999811172485,distr,54652.000188827515,Wed Nov 06 2024 14:43:38 GMT-0600 (Central Standard Time),740420.3000001907,B,moth,O,h,159,1,983.7000000476837,739436.600000143,7033,WL,C,3.0
6,5.430999994277954,distr,54569.000005722046,Wed Nov 06 2024 14:43:38 GMT-0600 (Central Standard Time),740503.3000001907,B,mothe,O,e,52,1,1066.7000000476837,739436.600000143,7033,WL,C,3.0
6,5.547999858856201,distr,54452.0001411438,Wed Nov 06 2024 14:43:38 GMT-0600 (Central Standard Time),740620.3000001907,B,mother,O,r,86,1,1183.7000000476837,739436.600000143,7033,WL,C,3.0
6,6.047999858856201,distr,53952.0001411438,Wed Nov 06 2024 14:43:38 GMT-0600 (Central Standard Time),741120.100000143,B,motherc,O,c,472,1,1683.5,739436.600000143,7033,WL,C,3.0
6,6.847999811172485,distr,53152.000188827515,Wed Nov 06 2024 14:43:38 GMT-0600 (Central Standard Time),741919.9000000954,B,mother,O,backspace,765,1,2483.2999999523163,739436.600000143,7033,WL,C,3.0
6,7.346999883651733,distr,52653.00011634827,Wed Nov 06 2024 14:43:38 GMT-0600 (Central Standard Time),742418.8000001907,B,motherenter,O,enter,467,1,2982.2000000476837,739436.600000143,7033,WL,C,3.0
6,8.346999883651733,distr,51653.00011634827,Wed Nov 06 2024 14:43:38 GMT-0600 (Central Standard Time),743419.3000001907,B,b,O,b,979,1,1000.3000001907349,742419.0,7033,WL,C,4.0
6,8.54699993133545,distr,51453.00006866455,Wed Nov 06 2024 14:43:38 GMT-0600 (Central Standard Time),743619.4000000954,B,bu,O,u,169,1,1200.4000000953674,742419.0,7033,WL,C,4.0
6,8.780999898910522,distr,51219.00010108948,Wed Nov 06 2024 14:43:38 GMT-0600 (Central Standard Time),743852.8000001907,B,but,O,t,210,1,1433.8000001907349,742419.0,7033,WL,C,4.0
6,8.96399998664856,distr,51036.00001335144,Wed Nov 06 2024 14:43:38 GMT-0600 (Central Standard Time),744035.9000000954,B,butt,O,t,143,1,1616.9000000953674,742419.0,7033,WL,C,4.0
6,9.19700002670288,distr,50802.99997329712,Wed Nov 06 2024 14:43:38 GMT-0600 (Central Standard Time),744269.100000143,B,butte,O,e,198,1,1850.1000001430511,742419.0,7033,WL,C,4.0
6,9.263000011444092,distr,50736.99998855591,Wed Nov 06 2024 14:43:38 GMT-0600 (Central Standard Time),744334.9000000954,B,butter,O,r,39,1,1915.9000000953674,742419.0,7033,WL,C,4.0
6,9.728999853134155,distr,50271.000146865845,Wed Nov 06 2024 14:43:38 GMT-0600 (Central Standard Time),744801.2000000477,B,butterenter,O,enter,449,1,2382.2000000476837,742419.0,7033,WL,C,4.0
6,10.11299991607666,distr,49887.00008392334,Wed Nov 06 2024 14:43:38 GMT-0600 (Central Standard Time),745185.5,B,v,O,v,365,1,384.0,744801.5,7033,WL,C,5.0
6,10.230000019073486,distr,49769.999980926514,Wed Nov 06 2024 14:43:38 GMT-0600 (Central Standard Time),745301.8000001907,B,va,O,a,93,1,500.30000019073486,744801.5,7033,WL,C,5.0
6,10.429999828338623,distr,49570.00017166138,Wed Nov 06 2024 14:43:38 GMT-0600 (Central Standard Time),745501.8000001907,B,val,O,l,174,1,700.3000001907349,744801.5,7033,WL,C,5.0
6,10.61299991607666,distr,49387.00008392334,Wed Nov 06 2024 14:43:38 GMT-0600 (Central Standard Time),745685.3000001907,B,vall,O,l,151,1,883.8000001907349,744801.5,7033,WL,C,5.0
6,10.69599986076355,distr,49304.00013923645,Wed Nov 06 2024 14:43:38 GMT-0600 (Central Standard Time),745767.9000000954,B,valle,O,e,52,1,966.4000000953674,744801.5,7033,WL,C,5.0
6,10.895999908447266,distr,49104.000091552734,Wed Nov 06 2024 14:43:38 GMT-0600 (Central Standard Time),745968.5,B,valley,O,y,184,1,1167.0,744801.5,7033,WL,C,5.0
6,12.84500002861023,distr,47154.99997138977,Wed Nov 06 2024 14:43:38 GMT-0600 (Central Standard Time),747917.0,B,valleyenter,O,enter,1923,1,3115.5,744801.5,7033,WL,C,5.0
6,13.52899980545044,distr,46471.00019454956,Wed Nov 06 2024 14:43:38 GMT-0600 (Central Standard Time),748601.100000143,B,c,O,c,665,1,683.9000000953674,747917.2000000477,7033,WL,C,6.0
6,13.694999933242798,distr,46305.0000667572,Wed Nov 06 2024 14:43:38 GMT-0600 (Central Standard Time),748767.7000000477,B,ch,O,h,139,1,850.5,747917.2000000477,7033,WL,C,6.0
6,13.84500002861023,distr,46154.99997138977,Wed Nov 06 2024 14:43:38 GMT-0600 (Central Standard Time),748917.600000143,B,chr,O,r,116,1,1000.4000000953674,747917.2000000477,7033,WL,C,6.0
6,13.994999885559082,distr,46005.00011444092,Wed Nov 06 2024 14:43:38 GMT-0600 (Central Standard Time),749067.3000001907,B,chri,O,i,118,1,1150.1000001430511,747917.2000000477,7033,WL,C,6.0
6,14.128999948501587,distr,45871.00005149841,Wed Nov 06 2024 14:43:38 GMT-0600 (Central Standard Time),749200.9000000954,B,chris,O,s,97,1,1283.7000000476837,747917.2000000477,7033,WL,C,6.0
6,14.411999940872192,distr,45588.00005912781,Wed Nov 06 2024 14:43:38 GMT-0600 (Central Standard Time),749484.100000143,B,christ,O,t,242,1,1566.9000000953674,747917.2000000477,7033,WL,C,6.0
6,14.744999885559082,distr,45255.00011444092,Wed Nov 06 2024 14:43:38 GMT-0600 (Central Standard Time),749817.2000000477,B,christm,O,m,297,1,1900.0,747917.2000000477,7033,WL,C,6.0
6,14.92799997329712,distr,45072.00002670288,Wed Nov 06 2024 14:43:38 GMT-0600 (Central Standard Time),750000.600000143,B,christma,O,a,148,1,2083.4000000953674,747917.2000000477,7033,WL,C,6.0
6,15.51199984550476,distr,44488.00015449524,Wed Nov 06 2024 14:43:38 GMT-0600 (Central Standard Time),750583.8000001907,B,christmas,O,s,547,1,2666.600000143051,747917.2000000477,7033,WL,C,6.0
6,15.90999984741211,distr,44090.00015258789,Wed Nov 06 2024 14:43:38 GMT-0600 (Central Standard Time),750982.5,B,christmasenter,O,enter,373,1,3065.2999999523163,747917.2000000477,7033,WL,C,6.0
6,26.906999826431274,distr,33093.000173568726,Wed Nov 06 2024 14:43:38 GMT-0600 (Central Standard Time),761978.9000000954,B,enter,O,enter,10982,1,10996.099999904633,750982.8000001907,7033,WL,C,7.0
6,27.35699987411499,distr,32643.00012588501,Wed Nov 06 2024 14:43:38 GMT-0600 (Central Standard Time),762428.8000001907,B,enter,O,enter,442,1,449.60000014305115,761979.2000000477,7033,WL,C,8.0
6,27.68999981880188,distr,32310.00018119812,Wed Nov 06 2024 14:43:38 GMT-0600 (Central Standard Time),762762.100000143,B,enter,O,enter,312,1,333.10000014305115,762429.0,7033,WL,C,9.0
6,28.006999969482422,distr,31993.000030517578,Wed Nov 06 2024 14:43:38 GMT-0600 (Central Standard Time),763078.600000143,B,enter,O,enter,299,1,316.2999999523163,762762.3000001907,7033,WL,C,10.0
6,28.322999954223633,distr,31677.000045776367,Wed Nov 06 2024 14:43:38 GMT-0600 (Central Standard Time),763395.100000143,B,enter,O,enter,303,1,316.2000000476837,763078.9000000954,7033,WL,C,11.0
6,28.68999981880188,distr,31310.00018119812,Wed Nov 06 2024 14:43:38 GMT-0600 (Central Standard Time),763761.7000000477,B,enter,O,enter,354,1,366.2000000476837,763395.5,7033,WL,C,12.0
6,29.055999994277954,distr,30944.000005722046,Wed Nov 06 2024 14:43:38 GMT-0600 (Central Standard Time),764128.3000001907,B,enter,O,enter,347,1,366.30000019073486,763762.0,7033,WL,C,13.0
6,29.538999795913696,distr,30461.000204086304,Wed Nov 06 2024 14:43:38 GMT-0600 (Central Standard Time),764611.4000000954,B,enter,O,enter,469,1,482.90000009536743,764128.5,7033,WL,C,14.0
6,30.055999994277954,distr,29944.000005722046,Wed Nov 06 2024 14:43:38 GMT-0600 (Central Standard Time),765127.8000001907,B,enter,O,enter,498,1,516.0,764611.8000001907,7033,WL,C,15.0
7,1.0,immed,59000.0,Wed Nov 06 2024 14:43:38 GMT-0600 (Central Standard Time),783539.4000000954,A,t,O,t,964,1,999.0,782540.4000000954,7033,WL,C,1.0
7,1.2170000076293945,immed,58782.999992370605,Wed Nov 06 2024 14:43:38 GMT-0600 (Central Standard Time),783756.100000143,A,to,O,o,176,1,1215.7000000476837,782540.4000000954,7033,WL,C,1.0
7,1.4170000553131104,immed,58582.99994468689,Wed Nov 06 2024 14:43:38 GMT-0600 (Central Standard Time),783956.4000000954,A,tow,O,w,160,1,1416.0,782540.4000000954,7033,WL,C,1.0
7,1.565999984741211,immed,58434.00001525879,Wed Nov 06 2024 14:43:38 GMT-0600 (Central Standard Time),784105.9000000954,A,towe,O,e,112,1,1565.5,782540.4000000954,7033,WL,C,1.0
7,2.0329999923706055,immed,57967.000007629395,Wed Nov 06 2024 14:43:38 GMT-0600 (Central Standard Time),784572.600000143,A,tower,O,r,435,1,2032.2000000476837,782540.4000000954,7033,WL,C,1.0
7,2.6480000019073486,immed,57351.99999809265,Wed Nov 06 2024 14:43:38 GMT-0600 (Central Standard Time),785187.9000000954,A,towerenter,O,enter,582,1,2647.5,782540.4000000954,7033,WL,C,1.0
7,2.9830000400543213,immed,57016.99995994568,Wed Nov 06 2024 14:43:38 GMT-0600 (Central Standard Time),785522.2000000477,A,s,O,s,314,1,334.0,785188.2000000477,7033,WL,C,2.0
7,3.2330000400543213,immed,56766.99995994568,Wed Nov 06 2024 14:43:38 GMT-0600 (Central Standard Time),785772.600000143,A,su,O,u,225,1,584.4000000953674,785188.2000000477,7033,WL,C,2.0
7,3.6659998893737793,immed,56334.00011062622,Wed Nov 06 2024 14:43:38 GMT-0600 (Central Standard Time),786205.2000000477,A,sug,O,g,399,1,1017.0,785188.2000000477,7033,WL,C,2.0
7,3.7990000247955322,immed,56200.99997520447,Wed Nov 06 2024 14:43:38 GMT-0600 (Central Standard Time),786338.5,A,suga,O,a,96,1,1150.2999999523163,785188.2000000477,7033,WL,C,2.0
7,3.931999921798706,immed,56068.000078201294,Wed Nov 06 2024 14:43:38 GMT-0600 (Central Standard Time),786471.9000000954,A,sugar,O,r,98,1,1283.7000000476837,785188.2000000477,7033,WL,C,2.0
7,4.180999994277954,immed,55819.000005722046,Wed Nov 06 2024 14:43:38 GMT-0600 (Central Standard Time),786720.8000001907,A,sugarenter,O,enter,219,1,1532.6000001430511,785188.2000000477,7033,WL,C,2.0
7,4.914999961853027,immed,55085.00003814697,Wed Nov 06 2024 14:43:38 GMT-0600 (Central Standard Time),787455.0,A,q,O,q,718,1,734.0,786721.0,7033,WL,C,3.0
7,5.914999961853027,immed,54085.00003814697,Wed Nov 06 2024 14:43:38 GMT-0600 (Central Standard Time),788454.3000001907,A,qu,O,u,974,1,1733.3000001907349,786721.0,7033,WL,C,3.0
7,6.131999969482422,immed,53868.00003051758,Wed Nov 06 2024 14:43:38 GMT-0600 (Central Standard Time),788671.2000000477,A,que,O,e,190,1,1950.2000000476837,786721.0,7033,WL,C,3.0
7,6.297999858856201,immed,53702.0001411438,Wed Nov 06 2024 14:43:38 GMT-0600 (Central Standard Time),788837.8000001907,A,quee,O,e,134,1,2116.800000190735,786721.0,7033,WL,C,3.0
7,6.664999961853027,immed,53335.00003814697,Wed Nov 06 2024 14:43:38 GMT-0600 (Central Standard Time),789204.8000001907,A,queen,O,n,344,1,2483.800000190735,786721.0,7033,WL,C,3.0
7,7.013999938964844,immed,52986.000061035156,Wed Nov 06 2024 14:43:38 GMT-0600 (Central Standard Time),789553.100000143,A,queenenter,O,enter,309,1,2832.100000143051,786721.0,7033,WL,C,3.0
7,7.5309998989105225,immed,52469.00010108948,Wed Nov 06 2024 14:43:38 GMT-0600 (Central Standard Time),790070.7000000477,A,d,O,d,501,1,517.3999998569489,789553.3000001907,7033,WL,C,4.0
7,7.71399998664856,immed,52286.00001335144,Wed Nov 06 2024 14:43:38 GMT-0600 (Central Standard Time),790253.8000001907,A,do,O,o,158,1,700.5,789553.3000001907,7033,WL,C,4.0
7,7.930999994277954,immed,52069.000005722046,Wed Nov 06 2024 14:43:38 GMT-0600 (Central Standard Time),790470.600000143,A,doc,O,c,191,1,917.2999999523163,789553.3000001907,7033,WL,C,4.0
7,8.313999891281128,immed,51686.00010871887,Wed Nov 06 2024 14:43:38 GMT-0600 (Central Standard Time),790853.2000000477,A,doct,O,t,358,1,1299.8999998569489,789553.3000001907,7033,WL,C,4.0
7,8.496999979019165,immed,51503.000020980835,Wed Nov 06 2024 14:43:38 GMT-0600 (Central Standard Time),791037.0,A,docto,O,o,152,1,1483.6999998092651,789553.3000001907,7033,WL,C,4.0
7,8.664000034332275,immed,51335.999965667725,Wed Nov 06 2024 14:43:38 GMT-0600 (Central Standard Time),791203.7000000477,A,doctor,O,r,136,1,1650.3999998569489,789553.3000001907,7033,WL,C,4.0
7,9.246000051498413,immed,50753.99994850159,Wed Nov 06 2024 14:43:38 GMT-0600 (Central Standard Time),791785.8000001907,A,doctorenter,O,enter,552,1,2232.5,789553.3000001907,7033,WL,C,4.0
7,9.645999908447266,immed,50354.000091552734,Wed Nov 06 2024 14:43:38 GMT-0600 (Central Standard Time),792185.9000000954,A,w,O,w,380,1,399.7999999523163,791786.100000143,7033,WL,C,5.0
7,9.914000034332275,immed,50085.999965667725,Wed Nov 06 2024 14:43:38 GMT-0600 (Central Standard Time),792453.2000000477,A,wh,O,h,250,1,667.0999999046326,791786.100000143,7033,WL,C,5.0
7,10.145999908447266,immed,49854.000091552734,Wed Nov 06 2024 14:43:38 GMT-0600 (Central Standard Time),792685.3000001907,A,whe,O,e,206,1,899.2000000476837,791786.100000143,7033,WL,C,5.0
7,10.29699993133545,immed,49703.00006866455,Wed Nov 06 2024 14:43:38 GMT-0600 (Central Standard Time),792836.100000143,A,whea,O,a,128,1,1050.0,791786.100000143,7033,WL,C,5.0
7,10.44700002670288,immed,49552.99997329712,Wed Nov 06 2024 14:43:38 GMT-0600 (Central Standard Time),792986.4000000954,A,wheat,O,t,120,1,1200.2999999523163,791786.100000143,7033,WL,C,5.0
7,12.229000091552734,immed,47770.999908447266,Wed Nov 06 2024 14:43:38 GMT-0600 (Central Standard Time),794768.2000000477,A,wheatenter,O,enter,1753,1,2982.0999999046326,791786.100000143,7033,WL,C,5.0
7,13.428999900817871,immed,46571.00009918213,Wed Nov 06 2024 14:43:38 GMT-0600 (Central Standard Time),795968.7000000477,A,b,O,b,1190,1,1200.2999999523163,794768.4000000954,7033,WL,C,6.0
7,13.562000036239624,immed,46437.999963760376,Wed Nov 06 2024 14:43:38 GMT-0600 (Central Standard Time),796101.5,A,bo,O,o,109,1,1333.0999999046326,794768.4000000954,7033,WL,C,6.0
7,13.746000051498413,immed,46253.99994850159,Wed Nov 06 2024 14:43:38 GMT-0600 (Central Standard Time),796285.3000001907,A,bod,O,d,157,1,1516.9000000953674,794768.4000000954,7033,WL,C,6.0
7,13.911999940872192,immed,46088.00005912781,Wed Nov 06 2024 14:43:38 GMT-0600 (Central Standard Time),796452.0,A,body,O,y,135,1,1683.5999999046326,794768.4000000954,7033,WL,C,6.0
7,14.194999933242798,immed,45805.0000667572,Wed Nov 06 2024 14:43:38 GMT-0600 (Central Standard Time),796734.100000143,A,bodyenter,O,enter,254,1,1965.7000000476837,794768.4000000954,7033,WL,C,6.0
7,14.328999996185303,immed,45671.0000038147,Wed Nov 06 2024 14:43:38 GMT-0600 (Central Standard Time),796868.8000001907,A,s,O,s,128,1,134.40000009536743,796734.4000000954,7033,WL,C,7.0
7,14.944999933242798,immed,45055.0000667572,Wed Nov 06 2024 14:43:38 GMT-0600 (Central Standard Time),797484.9000000954,A,sh,O,h,583,1,750.5,796734.4000000954,7033,WL,C,7.0
7,15.078999996185303,immed,44921.0000038147,Wed Nov 06 2024 14:43:38 GMT-0600 (Central Standard Time),797618.2000000477,A,sho,O,o,104,1,883.7999999523163,796734.4000000954,7033,WL,C,7.0
7,15.26200008392334,immed,44737.99991607666,Wed Nov 06 2024 14:43:38 GMT-0600 (Central Standard Time),797801.4000000954,A,shor,O,r,148,1,1067.0,796734.4000000954,7033,WL,C,7.0
7,15.361000061035156,immed,44638.999938964844,Wed Nov 06 2024 14:43:38 GMT-0600 (Central Standard Time),797901.0,A,shore,O,e,74,1,1166.5999999046326,796734.4000000954,7033,WL,C,7.0
7,16.759999990463257,immed,43240.00000953674,Wed Nov 06 2024 14:43:38 GMT-0600 (Central Standard Time),799300.0,A,shoreenter,O,enter,1379,1,2565.5999999046326,796734.4000000954,7033,WL,C,7.0
7,19.16100001335144,immed,40838.99998664856,Wed Nov 06 2024 14:43:38 GMT-0600 (Central Standard Time),801700.2000000477,A,b,O,b,2379,1,2400.0,799300.2000000477,7033,WL,C,8.0
7,19.293999910354614,immed,40706.000089645386,Wed Nov 06 2024 14:43:38 GMT-0600 (Central Standard Time),801833.4000000954,A,bo,O,o,104,1,2533.2000000476837,799300.2000000477,7033,WL,C,8.0
7,19.55999994277954,immed,40440.00005722046,Wed Nov 06 2024 14:43:38 GMT-0600 (Central Standard Time),802100.0,A,boy,O,y,232,1,2799.7999999523163,799300.2000000477,7033,WL,C,8.0
7,19.925999879837036,immed,40074.000120162964,Wed Nov 06 2024 14:43:38 GMT-0600 (Central Standard Time),802465.600000143,A,boyenter,O,enter,336,1,3165.4000000953674,799300.2000000477,7033,WL,C,8.0
7,20.627000093460083,immed,39372.99990653992,Wed Nov 06 2024 14:43:38 GMT-0600 (Central Standard Time),803166.5,A,h,O,h,685,1,700.5999999046326,802465.9000000954,7033,WL,C,9.0
7,20.793999910354614,immed,39206.000089645386,Wed Nov 06 2024 14:43:38 GMT-0600 (Central Standard Time),803333.4000000954,A,ho,O,o,140,1,867.5,802465.9000000954,7033,WL,C,9.0
7,20.97699999809265,immed,39023.00000190735,Wed Nov 06 2024 14:43:38 GMT-0600 (Central Standard Time),803516.2000000477,A,hom,O,m,143,1,1050.2999999523163,802465.9000000954,7033,WL,C,9.0
7,21.16000008583069,immed,38839.99991416931,Wed Nov 06 2024 14:43:38 GMT-0600 (Central Standard Time),803699.4000000954,A,home,O,e,153,1,1233.5,802465.9000000954,7033,WL,C,9.0
