acc_sum,block,block_c,condition,correct,correct_response,datetime,endtime,flanker,jitter,project,response,response_test_buffer_response,response_test_target_response,response_time,response_time_test_buffer_response,response_time_test_target_response,row_sel,session_number,start_end,starttime,subject_id,target,task,task_vers,time_test_buffer,time_test_buffer_response,time_test_constants,time_test_flanker,time_test_jitter,time_test_logger,time_test_target,time_test_target_response,time_test_variables,trial
1,prac,1,con,1,z,Wed Apr 16 2025 11:40:29 GMT-0500 (Central Daylight Time),128769.60000002384,banana,800,I,z,,,565,,,1,2,2644.400000035763,126125.19999998808,8022,banana,NF,C,,,,,,,,,,1
2,prac,1,con,1,m,Wed Apr 16 2025 11:40:29 GMT-0500 (Central Daylight Time),131584.89999997616,silver,1000,I,m,,,508,,,11,2,2809.199999988079,128775.69999998808,8022,silver,NF,C,,,,,,,,,,2
3,prac,1,inc,1,z,Wed Apr 16 2025 11:40:29 GMT-0500 (Central Daylight Time),134384.10000002384,copper,900,I,z,,,582,,,2,2,2794.100000023842,131590.0,8022,cherry,NF,C,,,,,,,,,,3
4,prac,1,con,1,m,Wed Apr 16 2025 11:40:29 GMT-0500 (Central Daylight Time),137066.0,bronze,800,I,m,,,581,,,9,2,2676.399999976158,134389.60000002384,8022,bronze,NF,C,,,,,,,,,,4
5,prac,1,inc,1,m,Wed Apr 16 2025 11:40:29 GMT-0500 (Central Daylight Time),140165.10000002384,raisin,1100,I,m,,,685,,,12,2,3090.600000023842,137074.5,8022,cobalt,NF,C,,,,,,,,,,5
6,prac,1,inc,1,z,Wed Apr 16 2025 11:40:29 GMT-0500 (Central Daylight Time),143097.0,lead,1100,I,z,,,531,,,8,2,2921.199999988079,140175.80000001192,8022,plum,NF,C,,,,,,,,,,6
7,prac,1,inc,1,m,Wed Apr 16 2025 11:40:29 GMT-0500 (Central Daylight Time),146163.10000002384,plum,1100,I,m,,,654,,,16,2,3059.300000011921,143103.80000001192,8022,lead,NF,C,,,,,,,,,,7
8,prac,1,con,1,m,Wed Apr 16 2025 11:40:29 GMT-0500 (Central Daylight Time),148829.19999998808,gold,800,I,m,,,553,,,13,2,2657.699999988079,146171.5,8022,gold,NF,C,,,,,,,,,,8
9,prac,1,inc,1,z,Wed Apr 16 2025 11:40:29 GMT-0500 (Central Daylight Time),151662.19999998808,iron,900,I,z,,,625,,,6,2,2825.199999988079,148837.0,8022,pear,NF,C,,,,,,,,,,9
10,prac,1,inc,1,m,Wed Apr 16 2025 11:40:29 GMT-0500 (Central Daylight Time),154460.30000001192,pear,900,I,m,,,586,,,14,2,2790.900000035763,151669.39999997616,8022,iron,NF,C,,,,,,,,,,10
11,prac,1,inc,1,z,Wed Apr 16 2025 11:40:29 GMT-0500 (Central Daylight Time),157476.30000001192,cobalt,1100,I,z,,,613,,,4,2,3010.800000011921,154465.5,8022,raisin,NF,C,,,,,,,,,,11
11,prac,1,con,0,z,Wed Apr 16 2025 11:40:29 GMT-0500 (Central Daylight Time),160409.60000002384,orange,1000,I,m,,,624,,,3,2,2922.800000011921,157486.80000001192,8022,orange,NF,C,,,,,,,,,,12
12,prac,1,inc,1,m,Wed Apr 16 2025 11:40:29 GMT-0500 (Central Daylight Time),163226.60000002384,cherry,900,I,m,,,599,,,10,2,2808.2000000476837,160418.39999997616,8022,copper,NF,C,,,,,,,,,,13
13,prac,1,con,1,z,Wed Apr 16 2025 11:40:29 GMT-0500 (Central Daylight Time),166192.60000002384,kiwi,1000,I,z,,,652,,,7,2,2958.2000000476837,163234.39999997616,8022,kiwi,NF,C,,,,,,,,,,14
14,prac,1,con,1,z,Wed Apr 16 2025 11:40:29 GMT-0500 (Central Daylight Time),168874.10000002384,lime,800,I,z,,,583,,,5,2,2676.600000023842,166197.5,8022,lime,NF,C,,,,,,,,,,15
15,prac,1,con,1,m,Wed Apr 16 2025 11:40:29 GMT-0500 (Central Daylight Time),171857.39999997616,zinc,1000,I,m,,,667,,,15,2,2975.699999988079,168881.69999998808,8022,zinc,NF,C,,,,,,,,,,16
1,test,1,con,1,m,Wed Apr 16 2025 11:40:29 GMT-0500 (Central Daylight Time),187566.0,gold,1000,I,m,m,None,544,330.0,214.0,99,2,2060.399999976158,185505.60000002384,8022,gold,NF,C,181269,181269,179542,180553,179542,181602,181055,181055,181602,1
2,test,1,inc,1,m,Wed Apr 16 2025 11:40:29 GMT-0500 (Central Daylight Time),189666.39999997616,kiwi,1000,I,m,m,None,549,335.0,214.0,103,2,2095.399999976158,187571.0,8022,gold,NF,C,183352,183352,181607,182620,181607,183702,183137,183137,183702,2
3,test,1,inc,1,m,Wed Apr 16 2025 11:40:29 GMT-0500 (Central Daylight Time),191698.10000002384,pear,900,I,m,m,None,587,372.0,215.0,126,2,2025.9000000357628,189672.19999998808,8022,lead,NF,C,185353,185353,183708,184619,183709,185734,185137,185137,185734,3
4,test,1,inc,1,z,Wed Apr 16 2025 11:40:29 GMT-0500 (Central Daylight Time),193598.39999997616,copper,900,I,z,z,None,463,249.0,214.0,30,2,1896.699999988079,191701.69999998808,8022,raisin,NF,C,187369,187369,185738,186652,185738,187635,187154,187154,187634,4
5,test,1,con,1,z,Wed Apr 16 2025 11:40:29 GMT-0500 (Central Daylight Time),195497.10000002384,banana,800,I,z,z,None,552,351.0,201.0,1,2,1893.4000000357628,193603.69999998808,8022,banana,NF,C,189167,189167,187640,188451,187640,189533,188966,188966,189533,5
6,test,1,inc,1,z,Wed Apr 16 2025 11:40:29 GMT-0500 (Central Daylight Time),197662.5,zinc,1000,I,z,z,None,644,429.0,215.0,39,2,2159.800000011921,195502.69999998808,8022,lime,NF,C,191266,191266,189539,190550,189539,191699,191051,191051,191699,6
7,test,1,inc,1,m,Wed Apr 16 2025 11:40:29 GMT-0500 (Central Daylight Time),199678.80000001192,cherry,900,I,m,m,None,566,352.0,214.0,78,2,2011.9000000357628,197666.89999997616,8022,copper,NF,C,193349,193349,191703,192617,191703,193715,193134,193134,193715,7
8,test,1,inc,1,z,Wed Apr 16 2025 11:40:29 GMT-0500 (Central Daylight Time),201727.80000001192,silver,1000,I,z,z,None,510,311.0,199.0,23,2,2044.300000011921,199683.5,8022,orange,NF,C,195447,195448,193720,194732,193720,195764,195248,195248,195764,8
9,test,1,inc,1,z,Wed Apr 16 2025 11:40:29 GMT-0500 (Central Daylight Time),203661.5,bronze,800,I,z,z,None,588,389.0,199.0,29,2,1928.6000000238419,201732.89999997616,8022,raisin,NF,C,197297,197297,195769,196582,195769,197698,197098,197098,197698,9
10,test,1,con,1,m,Wed Apr 16 2025 11:40:29 GMT-0500 (Central Daylight Time),205793.89999997616,lead,1000,I,m,m,None,582,383.0,199.0,123,2,2125.899999976158,203668.0,8022,lead,NF,C,199431,199431,197704,198715,197704,199830,199232,199232,199830,10
11,test,1,con,1,m,Wed Apr 16 2025 11:40:29 GMT-0500 (Central Daylight Time),207842.39999997616,gold,900,I,m,m,None,605,405.0,200.0,98,2,2040.5999999642372,205801.80000001192,8022,gold,NF,C,201465,201465,199838,200747,199838,201879,201263,201264,201878,11
12,test,1,con,1,m,Wed Apr 16 2025 11:40:29 GMT-0500 (Central Daylight Time),209926.60000002384,bronze,900,I,m,m,None,637,437.0,200.0,66,2,2079.0,207847.60000002384,8022,bronze,NF,C,203513,203513,201884,202796,201884,203963,203313,203313,203963,12
13,test,1,con,1,m,Wed Apr 16 2025 11:40:29 GMT-0500 (Central Daylight Time),212011.19999998808,copper,1000,I,m,m,None,534,317.0,217.0,75,2,2079.199999988079,209932.0,8022,copper,NF,C,205713,205713,203968,204979,203968,206047,205496,205496,206047,13
14,test,1,inc,1,z,Wed Apr 16 2025 11:40:29 GMT-0500 (Central Daylight Time),214207.30000001192,lead,1100,I,z,z,None,559,358.0,201.0,56,2,2192.699999988079,212014.60000002384,8022,kiwi,NF,C,207880,207880,206051,207162,206051,208243,207679,207679,208243,14
15,test,1,inc,1,m,Wed Apr 16 2025 11:40:29 GMT-0500 (Central Daylight Time),216423.30000001192,plum,1100,I,m,m,None,568,353.0,215.0,120,2,2211.699999988079,214211.60000002384,8022,zinc,NF,C,210092,210092,208248,209361,208248,210459,209877,209877,210459,15
16,test,1,con,1,m,Wed Apr 16 2025 11:40:29 GMT-0500 (Central Daylight Time),218606.0,silver,1100,I,m,m,None,552,353.0,199.0,84,2,2179.699999988079,216426.30000001192,8022,silver,NF,C,212277,212277,210462,211576,210463,212642,212078,212078,212642,16
17,test,1,inc,1,m,Wed Apr 16 2025 11:40:29 GMT-0500 (Central Daylight Time),220706.69999998808,kiwi,1000,I,m,m,None,565,365.0,200.0,127,2,2095.099999964237,218611.60000002384,8022,lead,NF,C,214377,214377,212648,213660,212648,214743,214176,214176,214743,17
18,test,1,inc,1,z,Wed Apr 16 2025 11:40:29 GMT-0500 (Central Daylight Time),222687.89999997616,gold,800,I,z,z,None,642,426.0,216.0,53,2,1975.5,220712.39999997616,8022,kiwi,NF,C,216292,216293,214748,215559,214749,216724,216076,216076,216724,18
19,test,1,con,1,m,Wed Apr 16 2025 11:40:29 GMT-0500 (Central Daylight Time),224887.5,lead,1100,I,m,m,None,551,351.0,200.0,124,2,2194.600000023842,222692.89999997616,8022,lead,NF,C,218559,218559,216729,217842,216729,218924,218358,218358,218924,19
20,test,1,con,1,z,Wed Apr 16 2025 11:40:29 GMT-0500 (Central Daylight Time),227153.39999997616,kiwi,1100,I,z,z,None,623,424.0,199.0,52,2,2260.699999988079,224892.69999998808,8022,kiwi,NF,C,220758,220758,218929,220040,218929,221190,220559,220559,221189,20
21,test,1,inc,1,z,Wed Apr 16 2025 11:40:29 GMT-0500 (Central Daylight Time),229219.39999997616,iron,900,I,z,z,None,638,438.0,200.0,54,2,2060.0,227159.39999997616,8022,kiwi,NF,C,222809,222809,221195,222106,221196,223256,222608,222608,223255,21
22,test,1,con,1,m,Wed Apr 16 2025 11:40:29 GMT-0500 (Central Daylight Time),231155.10000002384,cobalt,900,I,m,m,None,482,269.0,213.0,90,2,1929.7000000476837,229225.39999997616,8022,cobalt,NF,C,224905,224905,223261,224172,223262,225191,224691,224691,225191,22
23,test,1,con,1,m,Wed Apr 16 2025 11:40:29 GMT-0500 (Central Daylight Time),233368.5,cobalt,1100,I,m,m,None,576,361.0,215.0,92,2,2207.0,231161.5,8022,cobalt,NF,C,227038,227038,225198,226306,225198,227405,226823,226823,227405,23
24,test,1,inc,1,m,Wed Apr 16 2025 11:40:29 GMT-0500 (Central Daylight Time),235367.60000002384,cherry,900,I,m,m,None,551,351.0,200.0,94,2,1994.300000011921,233373.30000001192,8022,cobalt,NF,C,229039,229039,227409,228322,227410,229404,228838,228838,229404,24
25,test,1,inc,1,m,Wed Apr 16 2025 11:40:29 GMT-0500 (Central Daylight Time),237485.30000001192,orange,1000,I,m,m,None,584,385.0,199.0,95,2,2112.699999988079,235372.60000002384,8022,cobalt,NF,C,231136,231136,229409,230421,229409,231521,230937,230937,231521,25
26,test,1,con,1,z,Wed Apr 16 2025 11:40:29 GMT-0500 (Central Daylight Time),239451.39999997616,cherry,900,I,z,z,None,533,334.0,199.0,10,2,1960.5,237490.89999997616,8022,cherry,NF,C,233153,233153,231527,232438,231527,233487,232953,232953,233487,26
27,test,1,con,1,m,Wed Apr 16 2025 11:40:29 GMT-0500 (Central Daylight Time),241649.80000001192,zinc,1100,I,m,m,None,558,358.0,200.0,116,2,2193.699999988079,239456.10000002384,8022,zinc,NF,C,235320,235320,233492,234602,233493,235686,235119,235119,235686,27
28,test,1,con,1,m,Wed Apr 16 2025 11:40:29 GMT-0500 (Central Daylight Time),243598.89999997616,copper,800,I,m,m,None,612,413.0,199.0,73,2,1943.7999999523163,241655.10000002384,8022,copper,NF,C,237218,237218,235691,236504,235691,237635,237019,237019,237635,28
29,test,1,con,1,m,Wed Apr 16 2025 11:40:29 GMT-0500 (Central Daylight Time),245699.69999998808,zinc,900,I,m,m,None,649,450.0,199.0,114,2,2096.300000011921,243603.39999997616,8022,zinc,NF,C,239269,239269,237639,238551,237640,239736,239069,239069,239736,29
30,test,1,inc,1,m,Wed Apr 16 2025 11:40:29 GMT-0500 (Central Daylight Time),247795.89999997616,orange,1000,I,m,m,None,563,363.0,200.0,87,2,2092.0,245703.89999997616,8022,silver,NF,C,241468,241468,239740,240751,239740,241832,241268,241268,241832,30
31,test,1,inc,1,m,Wed Apr 16 2025 11:40:29 GMT-0500 (Central Daylight Time),249996.39999997616,plum,1100,I,m,m,None,556,356.0,200.0,128,2,2193.599999964237,247802.80000001192,8022,lead,NF,C,243667,243667,241839,242950,241839,244032,243466,243466,244032,31
32,test,1,con,1,z,Wed Apr 16 2025 11:40:29 GMT-0500 (Central Daylight Time),252063.39999997616,pear,1100,I,z,z,None,433,219.0,214.0,44,2,2062.199999988079,250001.19999998808,8022,pear,NF,C,245866,245866,244037,245149,244038,246099,245651,245651,246099,32
33,test,1,inc,1,m,Wed Apr 16 2025 11:40:29 GMT-0500 (Central Daylight Time),254145.30000001192,cherry,900,I,m,m,None,642,441.0,201.0,70,2,2077.400000035763,252067.89999997616,8022,bronze,NF,C,247733,247733,246104,247015,246104,248181,247531,247531,248181,33
34,test,1,inc,1,m,Wed Apr 16 2025 11:40:29 GMT-0500 (Central Daylight Time),256327.89999997616,plum,1100,I,m,m,None,549,336.0,213.0,112,2,2178.399999976158,254149.5,8022,iron,NF,C,250014,250014,248186,249298,248186,250364,249800,249800,250364,34
35,test,1,inc,1,m,Wed Apr 16 2025 11:40:29 GMT-0500 (Central Daylight Time),258412.60000002384,kiwi,1000,I,m,m,None,550,333.0,217.0,111,2,2076.800000011921,256335.80000001192,8022,iron,NF,C,252115,252115,250372,251382,250372,252449,251898,251898,252449,35
36,test,1,con,1,z,Wed Apr 16 2025 11:40:29 GMT-0500 (Central Daylight Time),260561.60000002384,plum,1100,I,z,z,None,524,311.0,213.0,60,2,2142.900000035763,258418.69999998808,8022,plum,NF,C,254280,254280,252455,253564,252455,254598,254066,254066,254598,36
37,test,1,inc,1,z,Wed Apr 16 2025 11:40:29 GMT-0500 (Central Daylight Time),262592.6999999881,copper,900,I,z,z,None,584,384.0,200.0,22,2,2022.8999999761581,260569.80000001192,8022,orange,NF,C,256230,256230,254606,255512,254606,256629,256029,256029,256629,37
38,test,1,con,1,m,Wed Apr 16 2025 11:40:29 GMT-0500 (Central Daylight Time),264643.5,iron,1000,I,m,m,None,517,315.0,202.0,107,2,2045.5,262598.0,8022,iron,NF,C,258364,258364,256634,257647,256634,258680,258162,258162,258680,38
39,test,1,inc,1,z,Wed Apr 16 2025 11:40:29 GMT-0500 (Central Daylight Time),266805.6999999881,lead,1100,I,z,z,None,517,303.0,214.0,64,2,2158.099999964237,264647.60000002384,8022,plum,NF,C,260526,260526,258684,259795,258684,260842,260312,260312,260842,39
40,test,1,con,1,m,Wed Apr 16 2025 11:40:29 GMT-0500 (Central Daylight Time),268925.8000000119,bronze,1000,I,m,m,None,583,384.0,199.0,67,2,2117.0,266808.8000000119,8022,bronze,NF,C,262577,262577,260845,261861,260845,262962,262377,262377,262962,40
41,test,1,inc,1,m,Wed Apr 16 2025 11:40:29 GMT-0500 (Central Daylight Time),271156.5,raisin,1100,I,m,m,None,589,389.0,200.0,72,2,2224.0,268932.5,8022,bronze,NF,C,264794,264794,262969,264077,262969,265193,264593,264593,265193,41
42,test,1,con,1,m,Wed Apr 16 2025 11:40:29 GMT-0500 (Central Daylight Time),273306.1999999881,cobalt,1000,I,m,m,None,607,393.0,214.0,91,2,2143.599999964237,271162.60000002384,8022,cobalt,NF,C,266942,266942,265199,266210,265199,267342,266727,266727,267342,42
43,test,1,con,1,m,Wed Apr 16 2025 11:40:29 GMT-0500 (Central Daylight Time),275289.3000000119,iron,800,I,m,m,None,634,435.0,199.0,105,2,1978.6000000238419,273310.6999999881,8022,iron,NF,C,268875,268875,267347,268160,267347,269325,268676,268676,269325,43
44,test,1,con,1,m,Wed Apr 16 2025 11:40:29 GMT-0500 (Central Daylight Time),277555.3000000119,bronze,1100,I,m,m,None,633,433.0,200.0,68,2,2262.0,275293.3000000119,8022,bronze,NF,C,271142,271142,269329,270439,269330,271592,270942,270942,271591,44
45,test,1,con,1,z,Wed Apr 16 2025 11:40:29 GMT-0500 (Central Daylight Time),279653.8000000119,plum,1000,I,z,z,None,553,354.0,199.0,59,2,2093.600000023842,277560.1999999881,8022,plum,NF,C,273324,273324,271596,272608,271596,273690,273124,273124,273690,45
46,test,1,inc,1,z,Wed Apr 16 2025 11:40:29 GMT-0500 (Central Daylight Time),281753.1999999881,iron,900,I,z,z,None,650,450.0,200.0,38,2,2094.199999988079,279659.0,8022,lime,NF,C,275325,275325,273695,274607,273696,275789,275124,275124,275789,46
47,test,1,inc,1,m,Wed Apr 16 2025 11:40:29 GMT-0500 (Central Daylight Time),283735.1999999881,banana,800,I,m,m,None,641,427.0,214.0,93,2,1976.199999988079,281759.0,8022,cobalt,NF,C,277340,277340,275795,276609,275795,277771,277125,277125,277771,47
48,test,1,con,1,m,Wed Apr 16 2025 11:40:29 GMT-0500 (Central Daylight Time),285735.1999999881,bronze,800,I,m,m,None,659,445.0,214.0,65,2,1994.300000011921,283740.89999997616,8022,bronze,NF,C,279321,279321,277777,278590,277777,279771,279106,279106,279771,48
49,test,1,con,1,z,Wed Apr 16 2025 11:40:29 GMT-0500 (Central Daylight Time),287718.3000000119,raisin,900,I,z,z,None,550,350.0,200.0,26,2,1978.9000000357628,285739.39999997616,8022,raisin,NF,C,281404,281404,279775,280689,279776,281754,281204,281204,281754,49
50,test,1,con,1,z,Wed Apr 16 2025 11:40:29 GMT-0500 (Central Daylight Time),289734.5,plum,900,I,z,z,None,578,362.0,216.0,58,2,2011.8999999761581,287722.60000002384,8022,plum,NF,C,283405,283405,281759,282670,281759,283771,283188,283188,283770,50
51,test,1,inc,1,m,Wed Apr 16 2025 11:40:29 GMT-0500 (Central Daylight Time),291766.89999997616,pear,900,I,m,m,None,583,369.0,214.0,102,2,2027.3999999761581,289739.5,8022,gold,NF,C,285421,285421,283776,284687,283776,285803,285206,285206,285803,51
52,test,1,inc,1,z,Wed Apr 16 2025 11:40:29 GMT-0500 (Central Daylight Time),293966.5,zinc,1000,I,z,z,None,668,455.0,213.0,55,2,2195.100000023842,291771.39999997616,8022,kiwi,NF,C,287535,287535,285807,286819,285808,288003,287321,287321,288003,52
52,test,1,inc,0,m,Wed Apr 16 2025 11:40:29 GMT-0500 (Central Daylight Time),295916.8000000119,lime,800,I,z,z,None,616,417.0,199.0,101,2,1945.199999988079,293971.60000002384,8022,gold,NF,C,289535,289535,288008,288819,288008,289953,289335,289335,289953,53
53,test,1,con,1,z,Wed Apr 16 2025 11:40:29 GMT-0500 (Central Daylight Time),298148.0,raisin,1100,I,z,z,None,589,389.0,200.0,28,2,2226.199999988079,295921.8000000119,8022,raisin,NF,C,291785,291785,289958,291069,289958,292184,291584,291584,292184,54
54,test,1,con,1,m,Wed Apr 16 2025 11:40:29 GMT-0500 (Central Daylight Time),300380.5,iron,1100,I,m,m,None,589,389.0,200.0,108,2,2227.199999988079,298153.3000000119,8022,iron,NF,C,294017,294017,292189,293301,292190,294417,293817,293817,294416,55
55,test,1,inc,1,m,Wed Apr 16 2025 11:40:29 GMT-0500 (Central Daylight Time),302380.89999997616,banana,800,I,m,m,None,666,467.0,199.0,69,2,1996.8999999761581,300384.0,8022,bronze,NF,C,295950,295950,294420,295234,294420,296417,295751,295751,296417,56
56,test,1,con,1,z,Wed Apr 16 2025 11:40:29 GMT-0500 (Central Daylight Time),304462.10000002384,kiwi,900,I,z,z,None,635,436.0,199.0,50,2,2076.600000023842,302385.5,8022,kiwi,NF,C,298049,298049,296422,297334,296422,298498,297850,297850,298498,57
57,test,1,con,1,m,Wed Apr 16 2025 11:40:29 GMT-0500 (Central Daylight Time),306645.10000002384,zinc,1000,I,m,m,None,636,422.0,214.0,115,2,2178.5,304466.60000002384,8022,zinc,NF,C,300248,300248,298503,299516,298503,300681,300034,300034,300681,58
58,test,1,con,1,z,Wed Apr 16 2025 11:40:29 GMT-0500 (Central Daylight Time),308927.5,orange,1100,I,z,z,None,634,433.0,201.0,20,2,2277.699999988079,306649.8000000119,8022,orange,NF,C,302517,302517,300686,301798,300686,302964,302315,302315,302964,59
59,test,1,inc,1,z,Wed Apr 16 2025 11:40:29 GMT-0500 (Central Daylight Time),311143.6999999881,silver,1000,I,z,z,None,669,470.0,199.0,7,2,2212.099999964237,308931.60000002384,8022,banana,NF,C,304696,304696,302968,303981,302968,305180,304497,304497,305180,60
60,test,1,con,1,z,Wed Apr 16 2025 11:40:29 GMT-0500 (Central Daylight Time),313226.10000002384,orange,900,I,z,z,None,657,458.0,199.0,18,2,2078.5,311147.60000002384,8022,orange,NF,C,306797,306797,305184,306096,305184,307262,306598,306598,307262,61
61,test,1,con,1,m,Wed Apr 16 2025 11:40:29 GMT-0500 (Central Daylight Time),315226.6999999881,zinc,800,I,m,m,None,662,462.0,200.0,113,2,1995.5,313231.1999999881,8022,zinc,NF,C,308793,308793,307267,308077,307267,309263,308593,308593,309263,62
62,test,1,inc,1,z,Wed Apr 16 2025 11:40:29 GMT-0500 (Central Daylight Time),317192.0,gold,800,I,z,z,None,617,402.0,215.0,45,2,1960.800000011921,315231.1999999881,8022,pear,NF,C,310812,310812,309267,310078,309268,311228,310596,310596,311228,63
63,test,1,inc,1,z,Wed Apr 16 2025 11:40:29 GMT-0500 (Central Daylight Time),319325.39999997616,zinc,1000,I,z,z,None,599,383.0,216.0,63,2,2128.5,317196.89999997616,8022,plum,NF,C,312978,312978,311233,312244,311233,313361,312762,312762,313361,64
64,test,1,con,1,z,Wed Apr 16 2025 11:40:29 GMT-0500 (Central Daylight Time),321340.5,orange,800,I,z,z,None,687,473.0,214.0,17,2,2010.3999999761581,319330.10000002384,8022,orange,NF,C,314893,314893,313366,314177,313366,315377,314679,314679,315377,65
65,test,1,inc,1,z,Wed Apr 16 2025 11:40:29 GMT-0500 (Central Daylight Time),323324.0,gold,800,I,z,z,None,656,456.0,200.0,37,2,1978.8999999761581,321345.10000002384,8022,lime,NF,C,316895,316895,315381,316193,315381,317360,316694,316694,317360,66
66,test,1,inc,1,z,Wed Apr 16 2025 11:40:29 GMT-0500 (Central Daylight Time),325307.10000002384,bronze,800,I,z,z,None,650,451.0,199.0,5,2,1978.800000011921,323328.3000000119,8022,banana,NF,C,318892,318892,317364,318177,317365,319343,318693,318693,319343,67
67,test,1,con,1,m,Wed Apr 16 2025 11:40:29 GMT-0500 (Central Daylight Time),327373.39999997616,copper,900,I,m,m,None,633,433.0,200.0,74,2,2062.0,325311.39999997616,8022,copper,NF,C,320976,320976,319347,320259,319348,321409,320775,320775,321409,68
68,test,1,con,1,z,Wed Apr 16 2025 11:40:29 GMT-0500 (Central Daylight Time),329588.1999999881,pear,1000,I,z,z,None,670,471.0,199.0,43,2,2209.800000011921,327378.39999997616,8022,pear,NF,C,323142,323142,321414,322425,321415,323624,322942,322942,323624,69
69,test,1,inc,1,m,Wed Apr 16 2025 11:40:29 GMT-0500 (Central Daylight Time),331720.3000000119,pear,900,I,m,m,None,684,485.0,199.0,110,2,2127.699999988079,329592.60000002384,8022,iron,NF,C,325256,325256,323629,324542,323629,325756,325057,325057,325756,70
70,test,1,inc,1,m,Wed Apr 16 2025 11:40:29 GMT-0500 (Central Daylight Time),334003.5,plum,1100,I,m,m,None,648,449.0,199.0,104,2,2278.199999988079,331725.3000000119,8022,gold,NF,C,327590,327590,325761,326873,325762,328040,327391,327391,328040,71
71,test,1,inc,1,z,Wed Apr 16 2025 11:40:29 GMT-0500 (Central Daylight Time),336086.10000002384,iron,900,I,z,z,None,637,437.0,200.0,62,2,2077.900000035763,334008.1999999881,8022,plum,NF,C,329672,329672,328044,328958,328045,330122,329472,329472,330122,72
72,test,1,con,1,z,Wed Apr 16 2025 11:40:29 GMT-0500 (Central Daylight Time),338019.6999999881,cherry,800,I,z,z,None,616,417.0,199.0,9,2,1930.0999999642372,336089.60000002384,8022,cherry,NF,C,331638,331638,330126,330937,330126,332056,331439,331439,332056,73
73,test,1,con,1,m,Wed Apr 16 2025 11:40:29 GMT-0500 (Central Daylight Time),340317.0,gold,1100,I,m,m,None,652,453.0,199.0,100,2,2292.800000011921,338024.1999999881,8022,gold,NF,C,333889,333889,332060,333171,332060,334353,333689,333689,334353,74
74,test,1,con,1,m,Wed Apr 16 2025 11:40:29 GMT-0500 (Central Daylight Time),342465.39999997616,lead,900,I,m,m,None,715,515.0,200.0,122,2,2144.2999999523163,340321.10000002384,8022,lead,NF,C,335986,335986,334357,335269,334357,336501,335785,335785,336501,75
75,test,1,con,1,z,Wed Apr 16 2025 11:40:29 GMT-0500 (Central Daylight Time),344548.89999997616,lime,800,I,z,z,None,744,544.0,200.0,33,2,2079.599999964237,342469.3000000119,8022,lime,NF,C,338038,338038,336505,337320,336506,338585,337838,337838,338585,76
76,test,1,con,1,z,Wed Apr 16 2025 11:40:29 GMT-0500 (Central Daylight Time),346598.8000000119,kiwi,800,I,z,z,None,701,502.0,199.0,49,2,2045.5,344553.3000000119,8022,kiwi,NF,C,340120,340120,338589,339403,338590,340635,339920,339920,340635,77
77,test,1,con,1,z,Wed Apr 16 2025 11:40:29 GMT-0500 (Central Daylight Time),348781.1999999881,orange,1000,I,z,z,None,644,429.0,215.0,19,2,2175.099999964237,346606.10000002384,8022,orange,NF,C,342385,342385,340642,341652,340642,342817,342169,342169,342817,78
78,test,1,con,1,z,Wed Apr 16 2025 11:40:29 GMT-0500 (Central Daylight Time),350931.1999999881,banana,1000,I,z,z,None,614,414.0,200.0,3,2,2145.0,348786.1999999881,8022,banana,NF,C,344552,344553,342822,343835,342823,344967,344352,344352,344967,79
79,test,1,con,1,m,Wed Apr 16 2025 11:40:29 GMT-0500 (Central Daylight Time),353264.1999999881,copper,1100,I,m,m,None,709,510.0,199.0,76,2,2329.300000011921,350934.89999997616,8022,copper,NF,C,346784,346784,344971,346083,344971,347300,346585,346585,347300,80
80,test,1,inc,1,z,Wed Apr 16 2025 11:40:29 GMT-0500 (Central Daylight Time),355478.1999999881,iron,900,I,z,z,None,774,562.0,212.0,46,2,2208.699999988079,353269.5,8022,pear,NF,C,348947,348947,347306,348216,347306,349514,348734,348734,349514,81
81,test,1,con,1,z,Wed Apr 16 2025 11:40:29 GMT-0500 (Central Daylight Time),357678.6999999881,lime,900,I,z,z,None,761,562.0,199.0,34,2,2197.5,355481.1999999881,8022,lime,NF,C,351149,351149,349517,350432,349518,351715,350949,350949,351715,82
82,test,1,inc,1,z,Wed Apr 16 2025 11:40:29 GMT-0500 (Central Daylight Time),359995.1999999881,cobalt,1100,I,z,z,None,665,465.0,200.0,32,2,2311.5,357683.6999999881,8022,raisin,NF,C,353549,353549,351720,352833,351720,354031,353349,353349,354031,83
83,test,1,con,1,z,Wed Apr 16 2025 11:40:29 GMT-0500 (Central Daylight Time),362277.6999999881,lime,1100,I,z,z,None,635,436.0,199.0,36,2,2276.800000011921,360000.89999997616,8022,lime,NF,C,355862,355862,354037,355147,354037,356314,355663,355663,356314,84
84,test,1,inc,1,m,Wed Apr 16 2025 11:40:29 GMT-0500 (Central Daylight Time),364593.1999999881,raisin,1100,I,m,m,None,674,475.0,199.0,96,2,2309.5,362283.6999999881,8022,cobalt,NF,C,358147,358147,356320,357431,356320,358629,357947,357947,358629,85
85,test,1,inc,1,m,Wed Apr 16 2025 11:40:29 GMT-0500 (Central Daylight Time),367074.89999997616,orange,1000,I,m,m,None,937,725.0,212.0,79,2,2477.099999964237,364597.8000000119,8022,copper,NF,C,360377,360377,358634,359647,358634,361111,360165,360165,361111,86
86,test,1,con,1,z,Wed Apr 16 2025 11:40:29 GMT-0500 (Central Daylight Time),369293.0,kiwi,1000,I,z,z,None,679,465.0,214.0,51,2,2214.899999976158,367078.10000002384,8022,kiwi,NF,C,362863,362863,361114,362129,361114,363329,362648,362648,363329,87
87,test,1,con,1,z,Wed Apr 16 2025 11:40:29 GMT-0500 (Central Daylight Time),371823.1999999881,lime,1000,I,z,z,None,994,794.0,200.0,35,2,2524.199999988079,369299.0,8022,lime,NF,C,365061,365061,363335,364344,363335,365859,364861,364861,365859,88
88,test,1,inc,1,m,Wed Apr 16 2025 11:40:29 GMT-0500 (Central Daylight Time),373724.39999997616,banana,800,I,m,m,None,582,383.0,199.0,85,2,1896.699999988079,371827.6999999881,8022,silver,NF,C,367377,367377,365864,366675,365864,367760,367178,367178,367760,89
89,test,1,con,1,m,Wed Apr 16 2025 11:40:29 GMT-0500 (Central Daylight Time),375890.39999997616,silver,1000,I,m,m,None,625,425.0,200.0,83,2,2158.2999999523163,373732.10000002384,8022,silver,NF,C,369493,369493,367768,368778,367769,369926,369292,369293,369926,90
90,test,1,inc,1,z,Wed Apr 16 2025 11:40:29 GMT-0500 (Central Daylight Time),377837.5,bronze,800,I,z,z,None,601,402.0,199.0,21,2,1943.300000011921,375894.1999999881,8022,orange,NF,C,371458,371459,369930,370744,369931,371874,371259,371259,371874,91
91,test,1,con,1,m,Wed Apr 16 2025 11:40:29 GMT-0500 (Central Daylight Time),379822.0,silver,800,I,m,m,None,635,420.0,215.0,81,2,1981.6000000238419,377840.39999997616,8022,silver,NF,C,373425,373425,371876,372693,371877,373858,373210,373210,373858,92
92,test,1,inc,1,z,Wed Apr 16 2025 11:40:29 GMT-0500 (Central Daylight Time),382139.39999997616,cobalt,1100,I,z,z,None,683,482.0,201.0,16,2,2312.2999999523163,379827.10000002384,8022,cherry,NF,C,375693,375693,373863,374976,373863,376175,375491,375491,376175,93
93,test,1,inc,1,m,Wed Apr 16 2025 11:40:29 GMT-0500 (Central Daylight Time),384120.0,banana,800,I,m,m,None,642,442.0,200.0,77,2,1975.3999999761581,382144.60000002384,8022,copper,NF,C,377708,377708,376181,376992,376181,378156,377507,377507,378156,94
94,test,1,inc,1,z,Wed Apr 16 2025 11:40:29 GMT-0500 (Central Daylight Time),386270.89999997616,silver,1000,I,z,z,None,603,402.0,201.0,15,2,2146.0,384124.89999997616,8022,cherry,NF,C,379892,379892,378161,379174,378161,380307,379691,379691,380307,95
95,test,1,inc,1,m,Wed Apr 16 2025 11:40:29 GMT-0500 (Central Daylight Time),388637.1999999881,raisin,1100,I,m,m,None,723,524.0,199.0,80,2,2362.699999988079,386274.5,8022,copper,NF,C,382139,382139,380311,381424,380311,382673,381940,381940,382673,96
96,test,1,inc,1,z,Wed Apr 16 2025 11:40:29 GMT-0500 (Central Daylight Time),390802.0,zinc,1000,I,z,z,None,624,425.0,199.0,47,2,2160.199999988079,388641.8000000119,8022,pear,NF,C,384406,384406,382678,383689,382678,384838,384206,384206,384838,97
97,test,1,inc,1,m,Wed Apr 16 2025 11:40:29 GMT-0500 (Central Daylight Time),392783.60000002384,lime,800,I,m,m,None,655,441.0,214.0,117,2,1976.6000000238419,390807.0,8022,zinc,NF,C,386372,386372,384843,385655,384843,386820,386157,386157,386820,98
98,test,1,con,1,z,Wed Apr 16 2025 11:40:29 GMT-0500 (Central Daylight Time),394817.0,pear,800,I,z,z,None,683,483.0,200.0,41,2,2028.6000000238419,392788.39999997616,8022,pear,NF,C,388355,388355,386824,387639,386825,388853,388154,388154,388853,99
99,test,1,inc,1,z,Wed Apr 16 2025 11:40:29 GMT-0500 (Central Daylight Time),396817.6999999881,bronze,800,I,z,z,None,668,466.0,202.0,13,2,1996.8999999761581,394820.8000000119,8022,cherry,NF,C,390388,390388,388857,389671,388857,390854,390186,390186,390854,100
100,test,1,inc,1,m,Wed Apr 16 2025 11:40:29 GMT-0500 (Central Daylight Time),398849.39999997616,cherry,900,I,m,m,None,599,383.0,216.0,86,2,2027.199999988079,396822.1999999881,8022,silver,NF,C,392487,392487,390858,391769,390859,392886,392270,392270,392885,101
101,test,1,con,1,m,Wed Apr 16 2025 11:40:29 GMT-0500 (Central Daylight Time),400916.39999997616,lead,800,I,m,m,None,733,533.0,200.0,121,2,2059.2999999523163,398857.10000002384,8022,lead,NF,C,394419,394419,392893,393703,392894,394952,394218,394218,394952,102
102,test,1,inc,1,m,Wed Apr 16 2025 11:40:29 GMT-0500 (Central Daylight Time),403198.39999997616,raisin,1100,I,m,m,None,638,438.0,200.0,88,2,2275.7999999523163,400922.60000002384,8022,silver,NF,C,396785,396785,394959,396071,394959,397234,396585,396585,397234,103
103,test,1,con,1,z,Wed Apr 16 2025 11:40:29 GMT-0500 (Central Daylight Time),405230.5,pear,900,I,z,z,None,593,379.0,214.0,42,2,2026.1000000238419,403204.39999997616,8022,pear,NF,C,398883,398883,397240,398151,397241,399267,398668,398668,399267,104
104,test,1,con,1,m,Wed Apr 16 2025 11:40:29 GMT-0500 (Central Daylight Time),407227.89999997616,iron,900,I,m,m,None,560,346.0,214.0,106,2,1992.3999999761581,405235.5,8022,iron,NF,C,400915,400915,399272,400184,399272,401264,400701,400701,401264,105
105,test,1,inc,1,z,Wed Apr 16 2025 11:40:29 GMT-0500 (Central Daylight Time),409513.89999997616,cobalt,1100,I,z,z,None,659,444.0,215.0,24,2,2282.899999976158,407231.0,8022,orange,NF,C,403100,403100,401267,402382,401267,403550,402884,402884,403550,106
105,test,1,con,0,z,Wed Apr 16 2025 11:40:29 GMT-0500 (Central Daylight Time),411562.1999999881,raisin,1000,I,m,m,None,499,300.0,199.0,27,2,2044.0999999642372,409518.10000002384,8022,raisin,NF,C,405282,405282,403554,404566,403554,405598,405082,405082,405598,107
106,test,1,inc,1,z,Wed Apr 16 2025 11:40:29 GMT-0500 (Central Daylight Time),413877.8000000119,lead,1100,I,z,z,None,667,453.0,214.0,40,2,2310.100000023842,411567.6999999881,8022,lime,NF,C,407449,407449,405604,406715,405604,407914,407234,407234,407914,108
107,test,1,con,1,z,Wed Apr 16 2025 11:40:29 GMT-0500 (Central Daylight Time),415844.39999997616,raisin,800,I,z,z,None,648,448.0,200.0,25,2,1961.0,413883.39999997616,8022,raisin,NF,C,409432,409432,407919,408730,407920,409880,409231,409231,409880,109
108,test,1,inc,1,m,Wed Apr 16 2025 11:40:29 GMT-0500 (Central Daylight Time),418010.1999999881,orange,1000,I,m,m,None,632,432.0,200.0,71,2,2161.199999988079,415849.0,8022,bronze,NF,C,411598,411598,409885,410896,409885,412046,411397,411397,412046,110
109,test,1,inc,1,m,Wed Apr 16 2025 11:40:29 GMT-0500 (Central Daylight Time),420008.60000002384,lime,800,I,m,m,None,649,450.0,199.0,109,2,1994.1000000238419,418014.5,8022,iron,NF,C,413580,413580,412051,412862,412051,414045,413380,413380,414045,111
110,test,1,inc,1,z,Wed Apr 16 2025 11:40:29 GMT-0500 (Central Daylight Time),422242.3000000119,silver,1000,I,z,z,None,683,467.0,216.0,31,2,2227.800000011921,420014.5,8022,raisin,NF,C,415796,415796,414051,415064,414051,416278,415579,415579,416278,112
111,test,1,inc,1,z,Wed Apr 16 2025 11:40:29 GMT-0500 (Central Daylight Time),424559.6999999881,lead,1100,I,z,z,None,670,470.0,200.0,48,2,2312.399999976158,422247.3000000119,8022,pear,NF,C,418112,418112,416283,417394,416284,418596,417911,417911,418596,113
112,test,1,inc,1,m,Wed Apr 16 2025 11:40:29 GMT-0500 (Central Daylight Time),426590.6999999881,pear,900,I,m,m,None,599,399.0,200.0,118,2,2024.800000011921,424565.89999997616,8022,zinc,NF,C,420227,420227,418602,419511,418602,420627,420027,420027,420627,114
113,test,1,con,1,m,Wed Apr 16 2025 11:40:29 GMT-0500 (Central Daylight Time),428638.39999997616,cobalt,800,I,m,m,None,708,492.0,216.0,89,2,2042.3999999761581,426596.0,8022,cobalt,NF,C,422178,422178,420632,421443,420632,422674,421961,421961,422674,115
114,test,1,inc,1,z,Wed Apr 16 2025 11:40:29 GMT-0500 (Central Daylight Time),430889.5,cobalt,1100,I,z,z,None,601,400.0,201.0,8,2,2245.100000023842,428644.39999997616,8022,banana,NF,C,424510,424510,422680,423793,422681,424926,424309,424309,424926,116
115,test,1,con,1,z,Wed Apr 16 2025 11:40:29 GMT-0500 (Central Daylight Time),433140.39999997616,banana,1100,I,z,z,None,607,407.0,200.0,4,2,2245.699999988079,430894.6999999881,8022,banana,NF,C,426759,426759,424931,426042,424931,427177,426558,426558,427176,117
116,test,1,con,1,z,Wed Apr 16 2025 11:40:29 GMT-0500 (Central Daylight Time),435156.5,banana,900,I,z,z,None,583,367.0,216.0,2,2,2010.199999988079,433146.3000000119,8022,banana,NF,C,428825,428825,427182,428091,427183,429193,428608,428608,429193,118
117,test,1,con,1,z,Wed Apr 16 2025 11:40:29 GMT-0500 (Central Daylight Time),437120.60000002384,plum,800,I,z,z,None,627,427.0,200.0,57,2,1957.5,435163.10000002384,8022,plum,NF,C,430723,430723,429199,430007,429199,431157,430523,430523,431157,119
118,test,1,con,1,m,Wed Apr 16 2025 11:40:29 GMT-0500 (Central Daylight Time),439286.0,silver,900,I,m,m,None,718,519.0,199.0,82,2,2160.899999976158,437125.10000002384,8022,silver,NF,C,432791,432791,431161,432075,431161,433322,432591,432591,433322,120
119,test,1,inc,1,m,Wed Apr 16 2025 11:40:29 GMT-0500 (Central Daylight Time),441351.60000002384,lime,800,I,m,m,None,719,518.0,201.0,125,2,2060.300000011921,439291.3000000119,8022,lead,NF,C,434856,434856,433327,434140,433328,435388,434655,434655,435388,121
120,test,1,inc,1,z,Wed Apr 16 2025 11:40:29 GMT-0500 (Central Daylight Time),443402.1999999881,copper,900,I,z,z,None,624,425.0,199.0,14,2,2045.5,441356.6999999881,8022,cherry,NF,C,437005,437005,435393,436305,435393,437438,436806,436806,437438,122
121,test,1,inc,1,m,Wed Apr 16 2025 11:40:29 GMT-0500 (Central Daylight Time),445636.0,kiwi,1000,I,m,m,None,700,499.0,201.0,119,2,2229.300000011921,443406.6999999881,8022,zinc,NF,C,439173,439173,437443,438455,437443,439672,438971,438971,439672,123
122,test,1,con,1,z,Wed Apr 16 2025 11:40:29 GMT-0500 (Central Daylight Time),447833.10000002384,cherry,1000,I,z,z,None,651,451.0,200.0,11,2,2192.5,445640.60000002384,8022,cherry,NF,C,441404,441404,439677,440689,439677,441869,441204,441204,441869,124
123,test,1,inc,1,z,Wed Apr 16 2025 11:40:29 GMT-0500 (Central Daylight Time),449883.60000002384,gold,800,I,z,z,None,714,498.0,216.0,61,2,2046.1000000238419,447837.5,8022,plum,NF,C,443421,443421,441874,442687,441874,443920,443205,443205,443920,125
124,test,1,con,1,z,Wed Apr 16 2025 11:40:29 GMT-0500 (Central Daylight Time),452432.5,cherry,1100,I,z,z,None,901,700.0,201.0,12,2,2544.300000011921,449888.1999999881,8022,cherry,NF,C,445754,445754,443924,445037,443924,446469,445552,445552,446469,126
125,test,1,con,1,m,Wed Apr 16 2025 11:40:29 GMT-0500 (Central Daylight Time),454280.6999999881,gold,800,I,m,m,None,502,301.0,201.0,97,2,1843.0,452437.6999999881,8022,gold,NF,C,448002,448002,446474,447285,446474,448317,447801,447801,448317,127
126,test,1,inc,1,z,Wed Apr 16 2025 11:40:29 GMT-0500 (Central Daylight Time),456348.10000002384,copper,900,I,z,z,None,623,407.0,216.0,6,2,2062.900000035763,454285.1999999881,8022,banana,NF,C,449967,449967,448321,449234,448321,450384,449751,449751,450384,128
