acc_sum,block,block_c,condition,correct,correct_response,datetime,endtime,flanker,jitter,project,response,response_test_buffer_response,response_test_target_response,response_time,response_time_test_buffer_response,response_time_test_target_response,row_sel,session_number,start_end,starttime,subject_id,target,task,task_vers,time_test_buffer,time_test_buffer_response,time_test_constants,time_test_flanker,time_test_jitter,time_test_logger,time_test_target,time_test_target_response,time_test_variables,trial
1,prac,1,con,1,m,Thu Feb 06 2025 10:40:25 GMT-0600 (Central Standard Time),166081.29999998212,gold,800,I,m,,,623,,,13,1,2728.0,163353.29999998212,8022,gold,NF,C,,,,,,,,,,1
1,prac,1,inc,0,m,Thu Feb 06 2025 10:40:25 GMT-0600 (Central Standard Time),168680.5,pear,900,I,z,,,383,,,14,1,2593.0,166087.5,8022,iron,NF,C,,,,,,,,,,2
2,prac,1,con,1,m,Thu Feb 06 2025 10:40:25 GMT-0600 (Central Standard Time),171895.90000000596,silver,1000,I,m,,,899,,,11,1,3210.800000011921,168685.09999999404,8022,silver,NF,C,,,,,,,,,,3
3,prac,1,inc,1,z,Thu Feb 06 2025 10:40:25 GMT-0600 (Central Standard Time),174861.59999999404,iron,900,I,z,,,761,,,6,1,2961.300000011921,171900.29999998212,8022,pear,NF,C,,,,,,,,,,4
4,prac,1,con,1,z,Thu Feb 06 2025 10:40:25 GMT-0600 (Central Standard Time),177893.69999998808,lime,800,I,z,,,840,,,5,1,3027.5,174866.19999998808,8022,lime,NF,C,,,,,,,,,,5
5,prac,1,inc,1,z,Thu Feb 06 2025 10:40:25 GMT-0600 (Central Standard Time),180876.69999998808,copper,900,I,z,,,778,,,2,1,2978.5999999940395,177898.09999999404,8022,cherry,NF,C,,,,,,,,,,6
6,prac,1,inc,1,m,Thu Feb 06 2025 10:40:25 GMT-0600 (Central Standard Time),184042.29999998212,plum,1100,I,m,,,756,,,16,1,3160.899999976158,180881.40000000596,8022,lead,NF,C,,,,,,,,,,7
7,prac,1,inc,1,m,Thu Feb 06 2025 10:40:25 GMT-0600 (Central Standard Time),187058.09999999404,cherry,900,I,m,,,807,,,10,1,3011.800000011921,184046.29999998212,8022,copper,NF,C,,,,,,,,,,8
8,prac,1,inc,1,z,Thu Feb 06 2025 10:40:25 GMT-0600 (Central Standard Time),190057.0,cobalt,1100,I,z,,,590,,,4,1,2994.5999999940395,187062.40000000596,8022,raisin,NF,C,,,,,,,,,,9
9,prac,1,inc,1,m,Thu Feb 06 2025 10:40:25 GMT-0600 (Central Standard Time),193222.69999998808,raisin,1100,I,m,,,760,,,12,1,3161.199999988079,190061.5,8022,cobalt,NF,C,,,,,,,,,,10
10,prac,1,con,1,z,Thu Feb 06 2025 10:40:25 GMT-0600 (Central Standard Time),196238.40000000596,kiwi,1000,I,z,,,700,,,7,1,3010.100000023842,193228.29999998212,8022,kiwi,NF,C,,,,,,,,,,11
11,prac,1,con,1,m,Thu Feb 06 2025 10:40:25 GMT-0600 (Central Standard Time),199121.0,zinc,1000,I,m,,,574,,,15,1,2878.4000000059605,196242.59999999404,8022,zinc,NF,C,,,,,,,,,,12
12,prac,1,con,1,z,Thu Feb 06 2025 10:40:25 GMT-0600 (Central Standard Time),202003.40000000596,orange,1000,I,z,,,580,,,3,1,2878.100000023842,199125.29999998212,8022,orange,NF,C,,,,,,,,,,13
13,prac,1,con,1,z,Thu Feb 06 2025 10:40:25 GMT-0600 (Central Standard Time),204702.19999998808,banana,800,I,z,,,584,,,1,1,2694.7999999821186,202007.40000000596,8022,banana,NF,C,,,,,,,,,,14
14,prac,1,con,1,m,Thu Feb 06 2025 10:40:25 GMT-0600 (Central Standard Time),207551.29999998212,bronze,800,I,m,,,742,,,9,1,2844.699999988079,204706.59999999404,8022,bronze,NF,C,,,,,,,,,,15
15,prac,1,inc,1,z,Thu Feb 06 2025 10:40:25 GMT-0600 (Central Standard Time),210550.5,lead,1100,I,z,,,594,,,8,1,2994.7000000178814,207555.79999998212,8022,plum,NF,C,,,,,,,,,,16
1,test,1,con,1,z,Thu Feb 06 2025 10:40:25 GMT-0600 (Central Standard Time),231210.79999998212,pear,1100,I,z,z,None,556,341.0,215.0,44,1,2196.0,229014.79999998212,8022,pear,NF,C,226225,226225,224379,225492,224381,226575,226010,226010,226575,1
2,test,1,con,1,z,Thu Feb 06 2025 10:40:25 GMT-0600 (Central Standard Time),233126.79999998212,banana,900,I,z,z,None,470,271.0,199.0,2,1,1911.5999999940395,231215.19999998808,8022,banana,NF,C,228208,228208,226579,227492,226581,228491,228009,228009,228491,2
3,test,1,con,1,z,Thu Feb 06 2025 10:40:25 GMT-0600 (Central Standard Time),234926.19999998808,kiwi,800,I,z,z,None,461,262.0,199.0,49,1,1795.0,233131.19999998808,8022,kiwi,NF,C,230024,230024,228495,229308,228497,230290,229825,229825,230290,3
4,test,1,inc,1,m,Thu Feb 06 2025 10:40:25 GMT-0600 (Central Standard Time),237060.09999999404,plum,1100,I,m,m,None,490,291.0,199.0,120,1,2129.800000011921,234930.29999998212,8022,zinc,NF,C,232123,232123,230294,231408,230296,232424,231924,231924,232424,4
5,test,1,con,1,z,Thu Feb 06 2025 10:40:25 GMT-0600 (Central Standard Time),239092.69999998808,plum,900,I,z,z,None,597,382.0,215.0,58,1,2028.4000000059605,237064.29999998212,8022,plum,NF,C,234072,234072,232428,233340,232430,234457,233857,233857,234457,5
6,test,1,inc,1,m,Thu Feb 06 2025 10:40:25 GMT-0600 (Central Standard Time),241157.59999999404,cherry,900,I,m,m,None,628,429.0,199.0,78,1,2060.800000011921,239096.79999998212,8022,copper,NF,C,236089,236089,234461,235373,234462,236522,235889,235889,236522,6
7,test,1,inc,1,m,Thu Feb 06 2025 10:40:25 GMT-0600 (Central Standard Time),243307.09999999404,raisin,1100,I,m,m,None,499,284.0,215.0,80,1,2145.5999999940395,241161.5,8022,copper,NF,C,238371,238371,236526,237639,236527,238671,238156,238156,238671,7
8,test,1,con,1,m,Thu Feb 06 2025 10:40:25 GMT-0600 (Central Standard Time),245389.40000000596,copper,1000,I,m,m,None,537,338.0,199.0,75,1,2078.300000011921,243311.09999999404,8022,copper,NF,C,240404,240404,238675,239688,238677,240754,240205,240205,240753,8
9,test,1,inc,1,z,Thu Feb 06 2025 10:40:25 GMT-0600 (Central Standard Time),247572.19999998808,iron,900,I,z,z,None,661,457.0,204.0,54,1,2178.5,245393.69999998808,8022,kiwi,NF,C,242470,242470,240758,241671,240759,242936,242266,242266,242936,9
10,test,1,con,1,m,Thu Feb 06 2025 10:40:25 GMT-0600 (Central Standard Time),249455.19999998808,silver,900,I,m,m,None,445,246.0,199.0,82,1,1879.0,247576.19999998808,8022,silver,NF,C,244569,244569,242940,243854,242942,244819,244370,244370,244819,10
11,test,1,con,1,m,Thu Feb 06 2025 10:40:25 GMT-0600 (Central Standard Time),251237.40000000596,silver,800,I,m,m,None,436,221.0,215.0,81,1,1777.800000011921,249459.59999999404,8022,silver,NF,C,246368,246369,244824,245636,244825,246602,246153,246153,246601,11
12,test,1,con,1,m,Thu Feb 06 2025 10:40:25 GMT-0600 (Central Standard Time),253120.19999998808,zinc,900,I,m,m,None,435,236.0,199.0,114,1,1878.5999999940395,251241.59999999404,8022,zinc,NF,C,248234,248234,246606,247519,246607,248484,248035,248035,248484,12
13,test,1,inc,1,z,Thu Feb 06 2025 10:40:25 GMT-0600 (Central Standard Time),254969.79999998212,bronze,800,I,z,z,None,500,301.0,199.0,5,1,1845.3999999761581,253124.40000000596,8022,banana,NF,C,250017,250017,248488,249302,248490,250334,249818,249818,250334,13
14,test,1,con,1,z,Thu Feb 06 2025 10:40:25 GMT-0600 (Central Standard Time),257169.19999998808,orange,1100,I,z,z,None,558,359.0,199.0,20,1,2194.5999999940395,254974.59999999404,8022,orange,NF,C,252167,252167,250339,251451,250340,252533,251968,251968,252533,14
15,test,1,inc,1,m,Thu Feb 06 2025 10:40:25 GMT-0600 (Central Standard Time),259101.90000000596,cherry,900,I,m,m,None,487,288.0,199.0,70,1,1927.6000000238419,257174.29999998212,8022,bronze,NF,C,254166,254166,252538,253450,252540,254466,253966,253967,254466,15
16,test,1,con,1,m,Thu Feb 06 2025 10:40:25 GMT-0600 (Central Standard Time),260984.79999998212,lead,800,I,m,m,None,535,336.0,199.0,121,1,1878.5,259106.29999998212,8022,lead,NF,C,255999,255999,254470,255283,254472,256349,255800,255800,256349,16
16,test,1,inc,0,m,Thu Feb 06 2025 10:40:25 GMT-0600 (Central Standard Time),262800.6999999881,cherry,900,I,z,z,None,376,177.0,199.0,86,1,1811.699999988079,260989.0,8022,silver,NF,C,257982,257982,256353,257266,256354,258165,257783,257783,258165,17
17,test,1,con,1,m,Thu Feb 06 2025 10:40:25 GMT-0600 (Central Standard Time),264516.90000000596,bronze,800,I,m,m,None,372,173.0,199.0,65,1,1712.2000000178814,262804.6999999881,8022,bronze,NF,C,259698,259698,258169,258982,258171,259881,259499,259499,259881,18
18,test,1,con,1,m,Thu Feb 06 2025 10:40:25 GMT-0600 (Central Standard Time),266449.6999999881,iron,1000,I,m,m,None,392,193.0,199.0,107,1,1928.9000000059605,264520.7999999821,8022,iron,NF,C,261614,261614,259885,260898,259886,261814,261415,261415,261814,19
19,test,1,inc,1,z,Thu Feb 06 2025 10:40:25 GMT-0600 (Central Standard Time),268599.09999999404,cobalt,1100,I,z,z,None,511,296.0,215.0,24,1,2145.0999999940395,266454.0,8022,orange,NF,C,263663,263663,261818,262931,261819,263963,263448,263448,263963,20
20,test,1,con,1,m,Thu Feb 06 2025 10:40:25 GMT-0600 (Central Standard Time),270698.40000000596,gold,1000,I,m,m,None,549,221.0,328.0,99,1,2095.4000000059605,268603.0,8022,gold,NF,C,265825,265825,263967,264980,263969,266062,265497,265497,266062,21
21,test,1,con,1,m,Thu Feb 06 2025 10:40:25 GMT-0600 (Central Standard Time),272464.2999999821,zinc,800,I,m,m,None,426,227.0,199.0,113,1,1756.699999988079,270707.59999999404,8022,zinc,NF,C,267595,267595,266072,266879,266073,267828,267396,267396,267828,22
22,test,1,inc,1,m,Thu Feb 06 2025 10:40:25 GMT-0600 (Central Standard Time),274630.09999999404,plum,1100,I,m,m,None,520,321.0,199.0,112,1,2160.9000000059605,272469.1999999881,8022,iron,NF,C,269661,269661,267833,268946,267835,269994,269462,269462,269994,23
23,test,1,con,1,m,Thu Feb 06 2025 10:40:25 GMT-0600 (Central Standard Time),276779.2999999821,lead,1100,I,m,m,None,505,290.0,215.0,124,1,2145.0,274634.2999999821,8022,lead,NF,C,271844,271844,269998,271111,270000,272143,271629,271629,272143,24
24,test,1,con,1,m,Thu Feb 06 2025 10:40:25 GMT-0600 (Central Standard Time),278745.7999999821,lead,1000,I,m,m,None,415,200.0,215.0,123,1,1962.5,276783.2999999821,8022,lead,NF,C,273893,273894,272147,273161,272149,274110,273678,273678,274110,25
25,test,1,inc,1,m,Thu Feb 06 2025 10:40:25 GMT-0600 (Central Standard Time),280628.5,pear,900,I,m,m,None,439,240.0,199.0,126,1,1878.800000011921,278749.6999999881,8022,lead,NF,C,275743,275743,274114,275027,274115,275993,275544,275544,275993,26
26,test,1,con,1,z,Thu Feb 06 2025 10:40:25 GMT-0600 (Central Standard Time),282811.1999999881,kiwi,1100,I,z,z,None,532,317.0,215.0,52,1,2178.7999999821186,280632.40000000596,8022,kiwi,NF,C,277842,277842,275996,277110,275998,278175,277627,277627,278175,27
27,test,1,inc,1,z,Thu Feb 06 2025 10:40:25 GMT-0600 (Central Standard Time),284810.6999999881,gold,800,I,z,z,None,666,467.0,199.0,61,1,1995.4000000059605,282815.2999999821,8022,plum,NF,C,279708,279708,278179,278993,278181,280175,279509,279509,280175,28
27,test,1,con,0,m,Thu Feb 06 2025 10:40:25 GMT-0600 (Central Standard Time),287026.7999999821,zinc,1100,I,z,z,None,581,382.0,199.0,116,1,2212.5,284814.2999999821,8022,zinc,NF,C,282009,282009,280178,281292,280180,282391,281809,281809,282391,29
28,test,1,inc,1,z,Thu Feb 06 2025 10:40:25 GMT-0600 (Central Standard Time),289442.5,lead,1100,I,z,z,None,766,551.0,215.0,56,1,2411.800000011921,287030.6999999881,8022,kiwi,NF,C,284240,284240,282395,283508,282396,284807,284025,284025,284807,30
29,test,1,inc,1,z,Thu Feb 06 2025 10:40:25 GMT-0600 (Central Standard Time),291508.40000000596,iron,900,I,z,z,None,621,406.0,215.0,62,1,2062.0,289446.40000000596,8022,plum,NF,C,286456,286456,284810,285724,284812,286873,286241,286241,286872,31
30,test,1,con,1,m,Thu Feb 06 2025 10:40:25 GMT-0600 (Central Standard Time),293541.1999999881,iron,1100,I,m,m,None,396,181.0,215.0,108,1,2028.7999999821186,291512.40000000596,8022,iron,NF,C,288722,288722,286876,287990,286878,288905,288507,288507,288905,32
31,test,1,inc,1,m,Thu Feb 06 2025 10:40:25 GMT-0600 (Central Standard Time),295540.59999999404,banana,800,I,m,m,None,663,448.0,215.0,69,1,1995.5999999940395,293545.0,8022,bronze,NF,C,290455,290455,288909,289723,288910,290905,290239,290240,290905,33
32,test,1,inc,1,m,Thu Feb 06 2025 10:40:25 GMT-0600 (Central Standard Time),297489.7999999821,banana,800,I,m,m,None,598,383.0,215.0,85,1,1945.5,295544.2999999821,8022,silver,NF,C,292454,292455,290908,291722,290910,292854,292239,292239,292854,34
33,test,1,inc,1,m,Thu Feb 06 2025 10:40:25 GMT-0600 (Central Standard Time),299405.90000000596,lime,800,I,m,m,None,570,371.0,199.0,101,1,1911.9000000059605,297494.0,8022,gold,NF,C,294387,294387,292858,293671,292860,294770,294188,294188,294770,35
34,test,1,inc,1,z,Thu Feb 06 2025 10:40:25 GMT-0600 (Central Standard Time),301405.1999999881,gold,800,I,z,z,None,663,464.0,199.0,53,1,1995.4000000059605,299409.7999999821,8022,kiwi,NF,C,296303,296303,294774,295588,294775,296769,296104,296104,296769,36
35,test,1,con,1,m,Thu Feb 06 2025 10:40:25 GMT-0600 (Central Standard Time),303521.5,bronze,900,I,m,m,None,674,459.0,215.0,66,1,2112.5999999940395,301408.90000000596,8022,bronze,NF,C,298419,298419,296773,297687,296774,298886,298204,298204,298885,37
36,test,1,con,1,z,Thu Feb 06 2025 10:40:25 GMT-0600 (Central Standard Time),305620.90000000596,cherry,1000,I,z,z,None,562,347.0,215.0,11,1,2095.600000023842,303525.2999999821,8022,cherry,NF,C,300635,300635,298889,299903,298891,300985,300420,300420,300985,38
37,test,1,inc,1,z,Thu Feb 06 2025 10:40:25 GMT-0600 (Central Standard Time),307686.6999999881,iron,900,I,z,z,None,627,412.0,215.0,46,1,2061.5999999940395,305625.09999999404,8022,pear,NF,C,302634,302635,300989,301902,300990,303051,302419,302419,303051,39
38,test,1,inc,1,z,Thu Feb 06 2025 10:40:25 GMT-0600 (Central Standard Time),309935.90000000596,zinc,1000,I,z,z,None,709,494.0,215.0,39,1,2245.100000023842,307690.7999999821,8022,lime,NF,C,304801,304801,303055,304068,303056,305300,304585,304585,305300,40
39,test,1,con,1,z,Thu Feb 06 2025 10:40:25 GMT-0600 (Central Standard Time),312018.6999999881,orange,1000,I,z,z,None,533,334.0,199.0,19,1,2079.0999999940395,309939.59999999404,8022,orange,NF,C,307033,307033,305304,306317,305305,307383,306834,306834,307383,41
40,test,1,con,1,m,Thu Feb 06 2025 10:40:25 GMT-0600 (Central Standard Time),314001.5,zinc,1000,I,m,m,None,432,217.0,215.0,115,1,1978.7000000178814,312022.7999999821,8022,zinc,NF,C,309133,309133,307387,308400,307388,309366,308917,308917,309365,42
41,test,1,con,1,m,Thu Feb 06 2025 10:40:25 GMT-0600 (Central Standard Time),316117.59999999404,bronze,1100,I,m,m,None,470,255.0,215.0,68,1,2112.199999988079,314005.40000000596,8022,bronze,NF,C,311215,311216,309369,310483,309371,311482,311000,311000,311481,43
42,test,1,con,1,m,Thu Feb 06 2025 10:40:25 GMT-0600 (Central Standard Time),318033.6999999881,iron,800,I,m,m,None,472,268.0,204.0,105,1,1912.2999999821186,316121.40000000596,8022,iron,NF,C,313114,313114,311485,312299,311487,313398,312910,312910,313398,44
43,test,1,con,1,z,Thu Feb 06 2025 10:40:25 GMT-0600 (Central Standard Time),320032.7999999821,plum,1100,I,z,z,None,351,136.0,215.0,60,1,1995.0999999940395,318037.6999999881,8022,plum,NF,C,315247,315247,313402,314515,313403,315397,315032,315032,315397,45
44,test,1,con,1,z,Thu Feb 06 2025 10:40:25 GMT-0600 (Central Standard Time),322065.59999999404,banana,1100,I,z,z,None,384,185.0,199.0,4,1,2029.0999999940395,320036.5,8022,banana,NF,C,317230,317230,315401,316514,315402,317430,317031,317031,317430,46
45,test,1,inc,1,m,Thu Feb 06 2025 10:40:25 GMT-0600 (Central Standard Time),324115.09999999404,pear,900,I,m,m,None,599,384.0,215.0,110,1,2045.5999999940395,322069.5,8022,iron,NF,C,319079,319079,317434,318347,317435,319479,318864,318864,319479,47
46,test,1,con,1,z,Thu Feb 06 2025 10:40:25 GMT-0600 (Central Standard Time),326014.5,raisin,800,I,z,z,None,554,355.0,199.0,25,1,1895.5,324119.0,8022,raisin,NF,C,321012,321012,319483,320296,319485,321379,320813,320813,321379,48
47,test,1,con,1,z,Thu Feb 06 2025 10:40:25 GMT-0600 (Central Standard Time),327947.09999999404,plum,800,I,z,z,None,590,375.0,215.0,57,1,1928.800000011921,326018.2999999821,8022,plum,NF,C,322928,322928,321382,322196,321384,323311,322713,322713,323311,49
48,test,1,inc,1,m,Thu Feb 06 2025 10:40:25 GMT-0600 (Central Standard Time),329979.5,kiwi,1000,I,m,m,None,498,299.0,199.0,111,1,2028.7000000178814,327950.7999999821,8022,iron,NF,C,325044,325044,323315,324328,323316,325344,324845,324845,325343,50
49,test,1,inc,1,z,Thu Feb 06 2025 10:40:25 GMT-0600 (Central Standard Time),332079.1999999881,silver,1000,I,z,z,None,553,354.0,199.0,15,1,2095.9000000059605,329983.2999999821,8022,cherry,NF,C,327077,327077,325347,326361,325349,327443,326878,326878,327443,51
50,test,1,con,1,m,Thu Feb 06 2025 10:40:25 GMT-0600 (Central Standard Time),334145.2999999821,lead,900,I,m,m,None,617,418.0,199.0,122,1,2062.399999976158,332082.90000000596,8022,lead,NF,C,329076,329076,327447,328361,327448,329509,328877,328877,329509,52
51,test,1,inc,1,m,Thu Feb 06 2025 10:40:25 GMT-0600 (Central Standard Time),336344.40000000596,plum,1100,I,m,m,None,552,353.0,199.0,104,1,2195.2000000178814,334149.1999999881,8022,gold,NF,C,331342,331342,329513,330627,329515,331709,331143,331143,331708,53
52,test,1,con,1,z,Thu Feb 06 2025 10:40:25 GMT-0600 (Central Standard Time),338443.6999999881,orange,900,I,z,z,None,656,441.0,215.0,18,1,2095.699999988079,336348.0,8022,orange,NF,C,333358,333358,331712,332626,331714,333808,333143,333143,333808,54
53,test,1,con,1,z,Thu Feb 06 2025 10:40:25 GMT-0600 (Central Standard Time),340476.40000000596,raisin,900,I,z,z,None,589,390.0,199.0,26,1,2028.800000011921,338447.59999999404,8022,raisin,NF,C,335441,335441,333812,334725,333813,335840,335242,335242,335840,55
54,test,1,con,1,z,Thu Feb 06 2025 10:40:25 GMT-0600 (Central Standard Time),342375.7999999821,cherry,900,I,z,z,None,460,245.0,215.0,10,1,1895.5999999940395,340480.1999999881,8022,cherry,NF,C,337490,337490,335844,336758,335846,337740,337275,337275,337740,56
55,test,1,con,1,m,Thu Feb 06 2025 10:40:25 GMT-0600 (Central Standard Time),344225.59999999404,gold,900,I,m,m,None,409,210.0,199.0,98,1,1846.0,342379.59999999404,8022,gold,NF,C,339373,339373,337744,338657,337745,339590,339174,339174,339590,57
56,test,1,inc,1,m,Thu Feb 06 2025 10:40:25 GMT-0600 (Central Standard Time),346241.5,banana,800,I,m,m,None,667,452.0,215.0,77,1,2012.0999999940395,344229.40000000596,8022,copper,NF,C,341139,341139,339593,340407,339595,341606,340924,340924,341605,58
57,test,1,con,1,m,Thu Feb 06 2025 10:40:25 GMT-0600 (Central Standard Time),348307.1999999881,cobalt,1100,I,m,m,None,431,232.0,199.0,92,1,2062.0,346245.1999999881,8022,cobalt,NF,C,343439,343439,341609,342722,341611,343671,343239,343239,343671,59
58,test,1,inc,1,z,Thu Feb 06 2025 10:40:25 GMT-0600 (Central Standard Time),350289.90000000596,silver,1000,I,z,z,None,441,226.0,215.0,23,1,1979.1000000238419,348310.7999999821,8022,orange,NF,C,345421,345421,343675,344689,343676,345654,345206,345206,345654,60
59,test,1,inc,1,m,Thu Feb 06 2025 10:40:25 GMT-0600 (Central Standard Time),352322.7999999821,pear,900,I,m,m,None,583,384.0,199.0,102,1,2029.0999999940395,350293.6999999881,8022,gold,NF,C,347287,347287,345658,346571,345659,347687,347088,347088,347687,61
60,test,1,con,1,m,Thu Feb 06 2025 10:40:25 GMT-0600 (Central Standard Time),354222.1999999881,cobalt,800,I,m,m,None,562,363.0,199.0,89,1,1895.2999999821186,352326.90000000596,8022,cobalt,NF,C,349220,349220,347691,348504,347692,349586,349021,349021,349586,62
61,test,1,con,1,z,Thu Feb 06 2025 10:40:25 GMT-0600 (Central Standard Time),356271.5,plum,1000,I,z,z,None,503,304.0,199.0,59,1,2045.4000000059605,354226.09999999404,8022,plum,NF,C,351319,351319,349590,350604,349592,351636,351120,351120,351636,63
61,test,1,inc,0,z,Thu Feb 06 2025 10:40:25 GMT-0600 (Central Standard Time),358354.1999999881,zinc,1000,I,m,m,None,541,326.0,215.0,47,1,2078.7999999821186,356275.40000000596,8022,pear,NF,C,353385,353385,351639,352653,351641,353718,353170,353170,353718,64
62,test,1,con,1,z,Thu Feb 06 2025 10:40:25 GMT-0600 (Central Standard Time),360436.7999999821,cherry,1100,I,z,z,None,447,248.0,199.0,12,1,2078.899999976158,358357.90000000596,8022,cherry,NF,C,355551,355551,353722,354836,353723,355801,355352,355352,355801,65
63,test,1,con,1,m,Thu Feb 06 2025 10:40:25 GMT-0600 (Central Standard Time),362303.1999999881,gold,800,I,m,m,None,528,329.0,199.0,97,1,1862.4000000059605,360440.7999999821,8022,gold,NF,C,357334,357334,355805,356618,355806,357667,357135,357135,357667,66
64,test,1,con,1,z,Thu Feb 06 2025 10:40:25 GMT-0600 (Central Standard Time),364302.2999999821,raisin,1000,I,z,z,None,462,263.0,199.0,27,1,1995.2999999821186,362307.0,8022,raisin,NF,C,359400,359400,357671,358684,357672,359666,359201,359201,359666,67
65,test,1,con,1,m,Thu Feb 06 2025 10:40:25 GMT-0600 (Central Standard Time),366118.5,copper,800,I,m,m,None,470,255.0,215.0,73,1,1812.4000000059605,364306.09999999404,8022,copper,NF,C,361216,361216,359670,360484,359672,361483,361001,361001,361482,68
66,test,1,inc,1,m,Thu Feb 06 2025 10:40:25 GMT-0600 (Central Standard Time),368201.0,kiwi,1000,I,m,m,None,542,327.0,215.0,127,1,2078.7000000178814,366122.2999999821,8022,lead,NF,C,363232,363232,361486,362500,361488,363565,363017,363017,363565,69
67,test,1,con,1,z,Thu Feb 06 2025 10:40:25 GMT-0600 (Central Standard Time),370134.0,orange,800,I,z,z,None,596,397.0,199.0,17,1,1929.0,368205.0,8022,orange,NF,C,365098,365098,363569,364383,363570,365498,364899,364899,365498,70
68,test,1,con,1,m,Thu Feb 06 2025 10:40:25 GMT-0600 (Central Standard Time),372483.2999999821,cobalt,900,I,m,m,None,899,700.0,199.0,90,1,2345.399999976158,370137.90000000596,8022,cobalt,NF,C,367131,367131,365502,366415,365503,367847,366932,366932,367847,71
69,test,1,inc,1,z,Thu Feb 06 2025 10:40:25 GMT-0600 (Central Standard Time),374682.5,silver,1000,I,z,z,None,658,459.0,199.0,31,1,2195.800000011921,372486.6999999881,8022,raisin,NF,C,369580,369580,367851,368864,367852,370047,369381,369381,370047,72
70,test,1,con,1,z,Thu Feb 06 2025 10:40:25 GMT-0600 (Central Standard Time),376498.59999999404,banana,800,I,z,z,None,481,266.0,215.0,1,1,1810.5,374688.09999999404,8022,banana,NF,C,371596,371596,370052,370864,370054,371863,371381,371381,371863,73
71,test,1,inc,1,z,Thu Feb 06 2025 10:40:25 GMT-0600 (Central Standard Time),378481.1999999881,bronze,800,I,z,z,None,634,419.0,215.0,13,1,1978.7999999821186,376502.40000000596,8022,cherry,NF,C,373412,373412,371866,372680,371868,373845,373197,373197,373845,74
71,test,1,inc,0,z,Thu Feb 06 2025 10:40:25 GMT-0600 (Central Standard Time),380697.1999999881,zinc,1000,I,m,m,None,675,460.0,215.0,55,1,2212.2999999821186,378484.90000000596,8022,kiwi,NF,C,375595,375595,373849,374863,373851,376061,375379,375380,376061,75
71,test,1,inc,0,z,Thu Feb 06 2025 10:40:25 GMT-0600 (Central Standard Time),382679.90000000596,zinc,1000,I,m,m,None,444,245.0,199.0,63,1,1977.7000000178814,380702.1999999881,8022,plum,NF,C,377794,377794,376066,377078,376068,378044,377595,377595,378044,76
72,test,1,inc,1,z,Thu Feb 06 2025 10:40:25 GMT-0600 (Central Standard Time),385095.90000000596,silver,1000,I,z,z,None,877,678.0,199.0,7,1,2412.100000023842,382683.7999999821,8022,banana,NF,C,379777,379777,378048,379061,378050,380460,379578,379578,380460,77
73,test,1,inc,1,m,Thu Feb 06 2025 10:40:25 GMT-0600 (Central Standard Time),387178.40000000596,lime,800,I,m,m,None,732,533.0,199.0,125,1,2078.600000023842,385099.7999999821,8022,lead,NF,C,381993,381993,380464,381278,380465,382542,381794,381794,382542,78
73,test,1,con,0,m,Thu Feb 06 2025 10:40:25 GMT-0600 (Central Standard Time),389394.40000000596,copper,1100,I,z,z,None,574,359.0,215.0,76,1,2211.9000000059605,387182.5,8022,copper,NF,C,384392,384392,382547,383659,382548,384759,384177,384177,384758,79
74,test,1,con,1,m,Thu Feb 06 2025 10:40:25 GMT-0600 (Central Standard Time),391960.1999999881,bronze,1000,I,m,m,None,1018,803.0,215.0,67,1,2562.0999999940395,389398.09999999404,8022,bronze,NF,C,386508,386508,384762,385776,384764,387324,386293,386293,387324,80
75,test,1,inc,1,m,Thu Feb 06 2025 10:40:25 GMT-0600 (Central Standard Time),394259.7999999821,raisin,1100,I,m,m,None,657,458.0,199.0,72,1,2295.7999999821186,391964.0,8022,bronze,NF,C,389157,389157,387328,388442,387330,389624,388958,388958,389624,81
76,test,1,inc,1,m,Thu Feb 06 2025 10:40:25 GMT-0600 (Central Standard Time),396375.59999999404,orange,1000,I,m,m,None,569,354.0,215.0,79,1,2112.0,394263.59999999404,8022,copper,NF,C,391373,391373,389628,390641,389629,391740,391158,391158,391740,82
77,test,1,con,1,z,Thu Feb 06 2025 10:40:25 GMT-0600 (Central Standard Time),398341.6999999881,pear,800,I,z,z,None,628,413.0,215.0,41,1,1962.199999988079,396379.5,8022,pear,NF,C,393290,393290,391744,392557,391745,393706,393074,393074,393706,83
78,test,1,inc,1,z,Thu Feb 06 2025 10:40:25 GMT-0600 (Central Standard Time),400607.6999999881,cobalt,1100,I,z,z,None,619,420.0,199.0,8,1,2262.199999988079,398345.5,8022,banana,NF,C,395539,395539,393710,394823,393711,395972,395340,395340,395972,84
79,test,1,con,1,m,Thu Feb 06 2025 10:40:25 GMT-0600 (Central Standard Time),402823.59999999404,silver,1000,I,m,m,None,676,461.0,215.0,83,1,2211.9000000059605,400611.6999999881,8022,silver,NF,C,397722,397722,395976,396989,395977,398188,397506,397506,398188,85
80,test,1,inc,1,m,Thu Feb 06 2025 10:40:25 GMT-0600 (Central Standard Time),404773.0,banana,800,I,m,m,None,613,398.0,215.0,93,1,1945.7000000178814,402827.2999999821,8022,cobalt,NF,C,399737,399737,398191,399005,398193,400137,399522,399522,400137,86
81,test,1,inc,1,m,Thu Feb 06 2025 10:40:25 GMT-0600 (Central Standard Time),407005.59999999404,plum,1100,I,m,m,None,588,389.0,199.0,128,1,2227.5999999940395,404778.0,8022,lead,NF,C,401970,401970,400142,401254,400144,402370,401771,401771,402370,87
82,test,1,inc,1,z,Thu Feb 06 2025 10:40:25 GMT-0600 (Central Standard Time),409154.90000000596,lead,1100,I,z,z,None,514,299.0,215.0,48,1,2145.4000000059605,407009.5,8022,pear,NF,C,404220,404220,402374,403487,402375,404519,404004,404004,404519,88
83,test,1,con,1,z,Thu Feb 06 2025 10:40:25 GMT-0600 (Central Standard Time),411614.59999999404,lime,1100,I,z,z,None,825,625.0,200.0,36,1,2456.0999999940395,409158.5,8022,lime,NF,C,406353,406353,404523,405636,404524,406979,406153,406153,406979,89
84,test,1,con,1,m,Thu Feb 06 2025 10:40:25 GMT-0600 (Central Standard Time),413603.40000000596,cobalt,1000,I,m,m,None,464,265.0,199.0,91,1,1985.2000000178814,411618.1999999881,8022,cobalt,NF,C,408701,408702,406982,407986,406984,408968,408502,408502,408967,90
85,test,1,con,1,z,Thu Feb 06 2025 10:40:25 GMT-0600 (Central Standard Time),415669.6999999881,lime,1000,I,z,z,None,521,322.0,199.0,35,1,2062.5999999940395,413607.09999999404,8022,lime,NF,C,410701,410701,408971,409985,408973,411034,410502,410502,411034,91
86,test,1,inc,1,z,Thu Feb 06 2025 10:40:25 GMT-0600 (Central Standard Time),417602.59999999404,bronze,800,I,z,z,None,583,384.0,199.0,21,1,1929.0,415673.59999999404,8022,orange,NF,C,412567,412567,411038,411851,411039,412967,412368,412368,412967,92
87,test,1,inc,1,z,Thu Feb 06 2025 10:40:25 GMT-0600 (Central Standard Time),419884.90000000596,lead,1100,I,z,z,None,645,431.0,214.0,64,1,2278.5,417606.40000000596,8022,plum,NF,C,414816,414816,412970,414084,412972,415249,414600,414601,415249,93
88,test,1,inc,1,z,Thu Feb 06 2025 10:40:25 GMT-0600 (Central Standard Time),422167.59999999404,cobalt,1100,I,z,z,None,636,437.0,199.0,16,1,2279.0,419888.59999999404,8022,cherry,NF,C,417082,417082,415253,416366,415254,417532,416883,416883,417532,94
89,test,1,con,1,z,Thu Feb 06 2025 10:40:25 GMT-0600 (Central Standard Time),424416.7999999821,raisin,1100,I,z,z,None,600,385.0,215.0,28,1,2245.5999999940395,422171.1999999881,8022,raisin,NF,C,419381,419381,417535,418649,417537,419781,419166,419166,419781,95
90,test,1,inc,1,z,Thu Feb 06 2025 10:40:25 GMT-0600 (Central Standard Time),426649.5,lead,1100,I,z,z,None,592,393.0,199.0,40,1,2228.800000011921,424420.6999999881,8022,lime,NF,C,421614,421614,419785,420898,419786,422014,421415,421415,422014,96
91,test,1,inc,1,z,Thu Feb 06 2025 10:40:25 GMT-0600 (Central Standard Time),428632.09999999404,gold,800,I,z,z,None,635,420.0,215.0,45,1,1978.9000000059605,426653.1999999881,8022,pear,NF,C,423563,423563,422017,422831,422019,423996,423348,423348,423996,97
92,test,1,con,1,z,Thu Feb 06 2025 10:40:25 GMT-0600 (Central Standard Time),430714.90000000596,banana,1000,I,z,z,None,541,342.0,199.0,3,1,2078.9000000059605,428636.0,8022,banana,NF,C,425729,425729,424000,425013,424002,426079,425530,425530,426079,98
93,test,1,con,1,z,Thu Feb 06 2025 10:40:25 GMT-0600 (Central Standard Time),433030.6999999881,kiwi,1000,I,z,z,None,770,571.0,199.0,51,1,2312.0,430718.6999999881,8022,kiwi,NF,C,427812,427812,426083,427097,426084,428395,427613,427613,428395,99
94,test,1,con,1,z,Thu Feb 06 2025 10:40:25 GMT-0600 (Central Standard Time),435146.5,lime,900,I,z,z,None,681,482.0,199.0,34,1,2112.0,433034.5,8022,lime,NF,C,430028,430028,428399,429312,428400,430511,429829,429829,430511,100
95,test,1,con,1,z,Thu Feb 06 2025 10:40:25 GMT-0600 (Central Standard Time),437146.09999999404,pear,1000,I,z,z,None,448,234.0,214.0,43,1,1996.0,435150.09999999404,8022,pear,NF,C,432261,432261,430514,431528,430515,432510,432046,432046,432510,101
96,test,1,inc,1,m,Thu Feb 06 2025 10:40:25 GMT-0600 (Central Standard Time),439228.90000000596,cherry,900,I,m,m,None,646,447.0,199.0,94,1,2079.100000023842,437149.7999999821,8022,cobalt,NF,C,434144,434144,432514,433428,432515,434593,433944,433944,434593,102
97,test,1,inc,1,z,Thu Feb 06 2025 10:40:25 GMT-0600 (Central Standard Time),441328.1999999881,copper,900,I,z,z,None,660,461.0,199.0,22,1,2095.2999999821186,439232.90000000596,8022,orange,NF,C,436226,436226,434597,435510,434598,436692,436027,436027,436692,103
98,test,1,inc,1,m,Thu Feb 06 2025 10:40:25 GMT-0600 (Central Standard Time),443194.1999999881,lime,800,I,m,m,None,516,301.0,215.0,109,1,1862.0999999940395,441332.09999999404,8022,iron,NF,C,438242,438242,436696,437510,436698,438558,438027,438027,438558,104
99,test,1,inc,1,z,Thu Feb 06 2025 10:40:25 GMT-0600 (Central Standard Time),445360.2999999821,iron,900,I,z,z,None,719,520.0,199.0,38,1,2162.0999999940395,443198.1999999881,8022,lime,NF,C,440191,440191,438562,439476,438564,440724,439992,439992,440724,105
100,test,1,inc,1,m,Thu Feb 06 2025 10:40:25 GMT-0600 (Central Standard Time),447426.2999999821,kiwi,1000,I,m,m,None,523,309.0,214.0,103,1,2062.199999988079,445364.09999999404,8022,gold,NF,C,442474,442474,440728,441742,440730,442790,442260,442260,442790,106
101,test,1,con,1,z,Thu Feb 06 2025 10:40:25 GMT-0600 (Central Standard Time),449575.6999999881,pear,900,I,z,z,None,710,495.0,215.0,42,1,2145.2999999821186,447430.40000000596,8022,pear,NF,C,444440,444440,442794,443708,442795,444940,444224,444225,444940,107
102,test,1,con,1,z,Thu Feb 06 2025 10:40:25 GMT-0600 (Central Standard Time),451658.2999999821,lime,800,I,z,z,None,741,526.0,215.0,33,1,2078.5999999940395,449579.6999999881,8022,lime,NF,C,446489,446489,444944,445757,444945,447022,446274,446274,447022,108
103,test,1,inc,1,m,Thu Feb 06 2025 10:40:25 GMT-0600 (Central Standard Time),453841.09999999404,orange,1000,I,m,m,None,633,434.0,199.0,95,1,2179.0999999940395,451662.0,8022,cobalt,NF,C,448755,448756,447026,448040,447027,449205,448556,448556,449205,109
104,test,1,con,1,m,Thu Feb 06 2025 10:40:25 GMT-0600 (Central Standard Time),456074.7999999821,copper,900,I,m,m,None,783,584.0,199.0,74,1,2229.699999988079,453845.09999999404,8022,copper,NF,C,450838,450839,449209,450122,449211,451439,450639,450639,451439,110
105,test,1,con,1,z,Thu Feb 06 2025 10:40:25 GMT-0600 (Central Standard Time),458239.6999999881,cherry,800,I,z,z,None,826,611.0,215.0,9,1,2160.5,456079.1999999881,8022,cherry,NF,C,452987,452988,451443,452255,451445,453604,452772,452772,453604,111
106,test,1,inc,1,z,Thu Feb 06 2025 10:40:25 GMT-0600 (Central Standard Time),460305.6999999881,copper,900,I,z,z,None,617,402.0,215.0,30,1,2062.199999988079,458243.5,8022,raisin,NF,C,455253,455253,453608,454520,453609,455670,455038,455038,455670,112
107,test,1,inc,1,m,Thu Feb 06 2025 10:40:25 GMT-0600 (Central Standard Time),462621.59999999404,raisin,1100,I,m,m,None,671,456.0,215.0,96,1,2311.9000000059605,460309.6999999881,8022,cobalt,NF,C,457519,457519,455674,456787,455675,457986,457304,457304,457986,113
108,test,1,inc,1,m,Thu Feb 06 2025 10:40:25 GMT-0600 (Central Standard Time),464670.7999999821,pear,900,I,m,m,None,611,412.0,199.0,118,1,2045.3999999761581,462625.40000000596,8022,zinc,NF,C,459619,459619,457989,458903,457991,460035,459419,459420,460035,114
109,test,1,inc,1,z,Thu Feb 06 2025 10:40:25 GMT-0600 (Central Standard Time),466670.1999999881,gold,800,I,z,z,None,661,447.0,214.0,37,1,1995.5999999940395,464674.59999999404,8022,lime,NF,C,461584,461584,460039,460852,460040,462034,461370,461370,462034,115
109,test,1,inc,0,z,Thu Feb 06 2025 10:40:25 GMT-0600 (Central Standard Time),468786.40000000596,copper,900,I,m,m,None,666,451.0,215.0,14,1,2112.600000023842,466673.7999999821,8022,cherry,NF,C,463684,463684,462038,462952,462039,464151,463469,463469,464150,116
110,test,1,con,1,z,Thu Feb 06 2025 10:40:25 GMT-0600 (Central Standard Time),470935.5,kiwi,900,I,z,z,None,702,503.0,199.0,50,1,2145.4000000059605,468790.09999999404,8022,kiwi,NF,C,465783,465783,464154,465068,464156,466300,465584,465584,466300,117
111,test,1,con,1,m,Thu Feb 06 2025 10:40:25 GMT-0600 (Central Standard Time),473184.90000000596,iron,900,I,m,m,None,809,610.0,199.0,106,1,2245.300000011921,470939.59999999404,8022,iron,NF,C,467933,467933,466304,467217,466305,468549,467734,467734,468549,118
112,test,1,inc,1,m,Thu Feb 06 2025 10:40:25 GMT-0600 (Central Standard Time),475517.6999999881,raisin,1100,I,m,m,None,696,497.0,199.0,88,1,2329.0,473188.6999999881,8022,silver,NF,C,470382,470382,468553,469666,468554,470882,470183,470183,470882,119
113,test,1,inc,1,m,Thu Feb 06 2025 10:40:25 GMT-0600 (Central Standard Time),477650.2999999821,orange,1000,I,m,m,None,591,376.0,215.0,87,1,2129.0,475521.2999999821,8022,silver,NF,C,472631,472631,470885,471899,470887,473014,472416,472416,473014,120
114,test,1,con,1,m,Thu Feb 06 2025 10:40:25 GMT-0600 (Central Standard Time),479966.1999999881,silver,1100,I,m,m,None,671,472.0,199.0,84,1,2312.0999999940395,477654.09999999404,8022,silver,NF,C,474847,474847,473018,474131,473020,475330,474648,474648,475330,121
115,test,1,inc,1,z,Thu Feb 06 2025 10:40:25 GMT-0600 (Central Standard Time),482394.09999999404,cobalt,1100,I,z,z,None,777,578.0,199.0,32,1,2424.300000011921,479969.7999999821,8022,raisin,NF,C,477163,477163,475334,476448,475335,477758,476964,476964,477758,122
116,test,1,inc,1,m,Thu Feb 06 2025 10:40:25 GMT-0600 (Central Standard Time),484547.90000000596,kiwi,1000,I,m,m,None,606,407.0,199.0,119,1,2149.5,482398.40000000596,8022,zinc,NF,C,479496,479496,477762,478780,477764,479912,479297,479297,479912,123
117,test,1,con,1,m,Thu Feb 06 2025 10:40:25 GMT-0600 (Central Standard Time),486763.7999999821,gold,1100,I,m,m,None,581,382.0,199.0,100,1,2212.0,484551.7999999821,8022,gold,NF,C,481745,481745,479916,481029,479917,482128,481546,481546,482128,124
118,test,1,inc,1,z,Thu Feb 06 2025 10:40:25 GMT-0600 (Central Standard Time),488796.7999999821,bronze,800,I,z,z,None,697,498.0,199.0,29,1,2029.3999999761581,486767.40000000596,8022,raisin,NF,C,483661,483661,482131,482945,482133,484161,483462,483462,484161,125
119,test,1,inc,1,m,Thu Feb 06 2025 10:40:25 GMT-0600 (Central Standard Time),490746.09999999404,lime,800,I,m,m,None,600,385.0,215.0,117,1,1945.699999988079,488800.40000000596,8022,zinc,NF,C,485710,485710,484164,484978,484166,486110,485495,485495,486110,126
120,test,1,inc,1,z,Thu Feb 06 2025 10:40:25 GMT-0600 (Central Standard Time),492795.2999999821,copper,900,I,z,z,None,615,416.0,199.0,6,1,2045.3999999761581,490749.90000000596,8022,banana,NF,C,487743,487743,486114,487027,486115,488159,487544,487544,488159,127
121,test,1,inc,1,m,Thu Feb 06 2025 10:40:25 GMT-0600 (Central Standard Time),494961.2999999821,orange,1000,I,m,m,None,617,402.0,215.0,71,1,2162.399999976158,492798.90000000596,8022,bronze,NF,C,489909,489909,488163,489177,488164,490325,489694,489694,490325,128
