acc_sum,block,block_c,block_cond,con_img,correct,correct_response,datetime,endtime,face,jitter,line,project,response,response_time,row_sel,session_number,start_end,starttime,subject_id,task,task_vers,trial
1,prac,1,A,haborder.png,1,m,Thu Mar 13 2025 11:03:12 GMT-0500 (Central Daylight Time),78521.60000000149,CFD-BF-019-004-HC.jpg,2000,solid,O,m,1389,5,1,4182.5,74339.10000000149,7077,ATS,C,1
2,prac,1,A,haborder.png,1,m,Thu Mar 13 2025 11:03:12 GMT-0500 (Central Daylight Time),81820.30000000075,CFD-WM-035-036-HC.jpg,1700,solid,O,m,803,9,1,7481.199999999255,74339.10000000149,7077,ATS,C,2
3,prac,1,A,haborder.png,1,m,Thu Mar 13 2025 11:03:12 GMT-0500 (Central Daylight Time),84769.70000000112,CFD-WF-013-009-HC.jpg,1500,solid,O,m,656,11,1,10430.599999999627,74339.10000000149,7077,ATS,C,3
4,prac,1,A,haborder.png,1,m,Thu Mar 13 2025 11:03:12 GMT-0500 (Central Daylight Time),88085.30000000075,CFD-BM-034-035-HC.jpg,1700,solid,O,m,827,1,1,13746.199999999255,74339.10000000149,7077,ATS,C,4
5,prac,1,A,haborder.png,1,m,Thu Mar 13 2025 11:03:12 GMT-0500 (Central Daylight Time),90967.70000000112,CFD-WM-028-005-HC.jpg,1400,solid,O,m,691,7,1,16628.599999999627,74339.10000000149,7077,ATS,C,5
6,prac,1,A,haborder.png,1,z,Thu Mar 13 2025 11:03:12 GMT-0500 (Central Daylight Time),94633.10000000149,CFD-WM-036-018-A.jpg,1900,solid,O,z,981,8,1,20294.0,74339.10000000149,7077,ATS,C,6
7,prac,1,A,haborder.png,1,z,Thu Mar 13 2025 11:03:12 GMT-0500 (Central Daylight Time),98065.40000000037,CFD-BM-043-014-A.jpg,1600,solid,O,z,1047,2,1,23726.299999998882,74339.10000000149,7077,ATS,C,7
8,prac,1,A,haborder.png,1,z,Thu Mar 13 2025 11:03:12 GMT-0500 (Central Daylight Time),101214.20000000112,CFD-WF-037-016-A.jpg,1600,solid,O,z,751,10,1,26875.099999999627,74339.10000000149,7077,ATS,C,8
9,prac,1,A,haborder.png,1,z,Thu Mar 13 2025 11:03:12 GMT-0500 (Central Daylight Time),103946.80000000075,CFD-BF-002-018-A.jpg,1200,solid,O,z,738,6,1,29607.699999999255,74339.10000000149,7077,ATS,C,9
10,prac,1,A,haborder.png,1,z,Thu Mar 13 2025 11:03:12 GMT-0500 (Central Daylight Time),106446.10000000149,CFD-BF-031-020-A.jpg,1000,solid,O,z,700,4,1,32107.0,74339.10000000149,7077,ATS,C,10
11,prac,1,A,haborder.png,1,m,Thu Mar 13 2025 11:03:12 GMT-0500 (Central Daylight Time),109678.5,CFD-BM-022-004-HC.jpg,1500,solid,O,m,814,3,1,35339.39999999851,74339.10000000149,7077,ATS,C,11
12,prac,1,A,haborder.png,1,z,Thu Mar 13 2025 11:03:12 GMT-0500 (Central Daylight Time),112244.20000000112,CFD-WF-023-013-A.jpg,1000,solid,O,z,770,12,1,37905.09999999963,74339.10000000149,7077,ATS,C,12
0,prac,1,B,mfborder.png,0,m,Thu Mar 13 2025 11:03:12 GMT-0500 (Central Daylight Time),150482.1000000015,CFD-WM-034-040-A.jpg,1200,6,O,None,1516,dash,1,3498.7000000011176,146983.40000000037,7077,ATS,C,1
1,prac,1,B,mfborder.png,1,m,Thu Mar 13 2025 11:03:12 GMT-0500 (Central Daylight Time),153932.20000000112,CFD-BM-043-014-A.jpg,2000,5,O,m,662,dash,1,6948.800000000745,146983.40000000037,7077,ATS,C,2
2,prac,1,B,mfborder.png,1,m,Thu Mar 13 2025 11:03:12 GMT-0500 (Central Daylight Time),157113.40000000037,CFD-WM-035-036-HC.jpg,1600,10,O,m,789,dash,1,10130.0,146983.40000000037,7077,ATS,C,3
3,prac,1,B,mfborder.png,1,z,Thu Mar 13 2025 11:03:12 GMT-0500 (Central Daylight Time),160095.90000000037,CFD-BF-019-004-HC.jpg,1400,7,O,z,784,dash,1,13112.5,146983.40000000037,7077,ATS,C,4
4,prac,1,B,mfborder.png,1,z,Thu Mar 13 2025 11:03:12 GMT-0500 (Central Daylight Time),162478.40000000037,CFD-WF-013-009-HC.jpg,1000,12,O,z,584,dash,1,15495.0,146983.40000000037,7077,ATS,C,5
5,prac,1,B,mfborder.png,1,z,Thu Mar 13 2025 11:03:12 GMT-0500 (Central Daylight Time),165794.1000000015,CFD-WF-001-010-HC.jpg,1900,8,O,z,622,dash,1,18810.700000001118,146983.40000000037,7077,ATS,C,6
6,prac,1,B,mfborder.png,1,z,Thu Mar 13 2025 11:03:12 GMT-0500 (Central Daylight Time),168210.1000000015,CFD-BF-031-020-A.jpg,1000,4,O,z,630,dash,1,21226.700000001118,146983.40000000037,7077,ATS,C,7
7,prac,1,B,mfborder.png,1,m,Thu Mar 13 2025 11:03:12 GMT-0500 (Central Daylight Time),171358.80000000075,CFD-WM-036-018-A.jpg,1700,9,O,m,650,dash,1,24375.400000000373,146983.40000000037,7077,ATS,C,8
8,prac,1,B,mfborder.png,1,z,Thu Mar 13 2025 11:03:12 GMT-0500 (Central Daylight Time),174425.90000000037,CFD-WF-037-016-A.jpg,1500,11,O,z,780,dash,1,27442.5,146983.40000000037,7077,ATS,C,9
9,prac,1,B,mfborder.png,1,m,Thu Mar 13 2025 11:03:12 GMT-0500 (Central Daylight Time),177607.30000000075,CFD-BM-021-026-A.jpg,1600,2,O,m,792,dash,1,30623.900000000373,146983.40000000037,7077,ATS,C,10
10,prac,1,B,mfborder.png,1,z,Thu Mar 13 2025 11:03:12 GMT-0500 (Central Daylight Time),180606.1000000015,CFD-BF-042-031-HC.jpg,1500,3,O,z,701,dash,1,33622.70000000112,146983.40000000037,7077,ATS,C,11
11,prac,1,B,mfborder.png,1,m,Thu Mar 13 2025 11:03:12 GMT-0500 (Central Daylight Time),183738.40000000037,CFD-BM-022-004-HC.jpg,1700,1,O,m,647,dash,1,36755.0,146983.40000000037,7077,ATS,C,12
1,test,1,A,haborder.png,1,z,Thu Mar 13 2025 11:03:12 GMT-0500 (Central Daylight Time),206148.1000000015,CFD-WF-023-013-A.jpg,1000,solid,O,z,859,12,1,1882.5,204265.6000000015,7077,ATS,C,1
2,test,1,A,haborder.png,1,m,Thu Mar 13 2025 11:03:12 GMT-0500 (Central Daylight Time),208481.0,CFD-WF-013-009-HC.jpg,1500,solid,O,m,800,11,1,4215.39999999851,204265.6000000015,7077,ATS,C,2
3,test,1,A,haborder.png,1,z,Thu Mar 13 2025 11:03:12 GMT-0500 (Central Daylight Time),210180.0,CFD-BF-031-020-A.jpg,1000,solid,O,z,680,4,1,5914.39999999851,204265.6000000015,7077,ATS,C,3
4,test,1,A,haborder.png,1,m,Thu Mar 13 2025 11:03:12 GMT-0500 (Central Daylight Time),213112.5,CFD-BF-019-004-HC.jpg,2000,solid,O,m,908,5,1,8846.89999999851,204265.6000000015,7077,ATS,C,4
5,test,1,A,haborder.png,1,m,Thu Mar 13 2025 11:03:12 GMT-0500 (Central Daylight Time),215511.6000000015,CFD-WM-035-036-HC.jpg,1700,solid,O,m,676,9,1,11246.0,204265.6000000015,7077,ATS,C,5
6,test,1,A,haborder.png,1,m,Thu Mar 13 2025 11:03:12 GMT-0500 (Central Daylight Time),217911.0,CFD-WM-035-036-HC.jpg,1700,solid,O,m,668,9,1,13645.39999999851,204265.6000000015,7077,ATS,C,6
7,test,1,A,haborder.png,1,z,Thu Mar 13 2025 11:03:12 GMT-0500 (Central Daylight Time),220293.5,CFD-BM-043-014-A.jpg,1600,solid,O,z,753,2,1,16027.89999999851,204265.6000000015,7077,ATS,C,7
8,test,1,A,haborder.png,1,m,Thu Mar 13 2025 11:03:12 GMT-0500 (Central Daylight Time),222426.1000000015,CFD-WF-013-009-HC.jpg,1500,solid,O,m,616,11,1,18160.5,204265.6000000015,7077,ATS,C,8
9,test,1,A,haborder.png,1,m,Thu Mar 13 2025 11:03:12 GMT-0500 (Central Daylight Time),225125.40000000037,CFD-BF-019-004-HC.jpg,2000,solid,O,m,678,5,1,20859.799999998882,204265.6000000015,7077,ATS,C,9
10,test,1,A,haborder.png,1,z,Thu Mar 13 2025 11:03:12 GMT-0500 (Central Daylight Time),227024.80000000075,CFD-BF-031-020-A.jpg,1000,solid,O,z,874,4,1,22759.199999999255,204265.6000000015,7077,ATS,C,10
11,test,1,A,haborder.png,1,z,Thu Mar 13 2025 11:03:12 GMT-0500 (Central Daylight Time),228890.90000000037,CFD-BF-002-018-A.jpg,1200,solid,O,z,640,6,1,24625.299999998882,204265.6000000015,7077,ATS,C,11
11,test,1,A,haborder.png,0,z,Thu Mar 13 2025 11:03:12 GMT-0500 (Central Daylight Time),231406.80000000075,CFD-BM-043-014-A.jpg,1600,solid,O,m,885,2,1,27141.199999999255,204265.6000000015,7077,ATS,C,12
12,test,1,A,haborder.png,1,z,Thu Mar 13 2025 11:03:12 GMT-0500 (Central Daylight Time),234305.80000000075,CFD-WM-036-018-A.jpg,1900,solid,O,z,982,8,1,30040.199999999255,204265.6000000015,7077,ATS,C,13
13,test,1,A,haborder.png,1,m,Thu Mar 13 2025 11:03:12 GMT-0500 (Central Daylight Time),236621.80000000075,CFD-BM-022-004-HC.jpg,1500,solid,O,m,786,3,1,32356.199999999255,204265.6000000015,7077,ATS,C,14
14,test,1,A,haborder.png,1,m,Thu Mar 13 2025 11:03:12 GMT-0500 (Central Daylight Time),239037.6000000015,CFD-WM-028-005-HC.jpg,1400,solid,O,m,994,7,1,34772.0,204265.6000000015,7077,ATS,C,15
15,test,1,A,haborder.png,1,z,Thu Mar 13 2025 11:03:12 GMT-0500 (Central Daylight Time),241587.0,CFD-WM-036-018-A.jpg,1900,solid,O,z,622,8,1,37321.39999999851,204265.6000000015,7077,ATS,C,16
16,test,1,A,haborder.png,1,z,Thu Mar 13 2025 11:03:12 GMT-0500 (Central Daylight Time),243336.40000000037,CFD-WF-023-013-A.jpg,1000,solid,O,z,726,12,1,39070.79999999888,204265.6000000015,7077,ATS,C,17
17,test,1,A,haborder.png,1,z,Thu Mar 13 2025 11:03:12 GMT-0500 (Central Daylight Time),245269.30000000075,CFD-BF-002-018-A.jpg,1200,solid,O,z,712,6,1,41003.699999999255,204265.6000000015,7077,ATS,C,18
18,test,1,A,haborder.png,1,m,Thu Mar 13 2025 11:03:12 GMT-0500 (Central Daylight Time),247751.6000000015,CFD-BM-034-035-HC.jpg,1700,solid,O,m,751,1,1,43486.0,204265.6000000015,7077,ATS,C,19
19,test,1,A,haborder.png,1,m,Thu Mar 13 2025 11:03:12 GMT-0500 (Central Daylight Time),250184.40000000037,CFD-WM-028-005-HC.jpg,1400,solid,O,m,995,7,1,45918.79999999888,204265.6000000015,7077,ATS,C,20
20,test,1,A,haborder.png,1,z,Thu Mar 13 2025 11:03:12 GMT-0500 (Central Daylight Time),252516.70000000112,CFD-WF-037-016-A.jpg,1600,solid,O,z,704,10,1,48251.09999999963,204265.6000000015,7077,ATS,C,21
21,test,1,A,haborder.png,1,z,Thu Mar 13 2025 11:03:12 GMT-0500 (Central Daylight Time),254982.6000000015,CFD-WF-037-016-A.jpg,1600,solid,O,z,835,10,1,50717.0,204265.6000000015,7077,ATS,C,22
22,test,1,A,haborder.png,1,m,Thu Mar 13 2025 11:03:12 GMT-0500 (Central Daylight Time),257631.70000000112,CFD-BM-034-035-HC.jpg,1700,solid,O,m,918,1,1,53366.09999999963,204265.6000000015,7077,ATS,C,23
23,test,1,A,haborder.png,1,m,Thu Mar 13 2025 11:03:12 GMT-0500 (Central Daylight Time),259931.30000000075,CFD-BM-022-004-HC.jpg,1500,solid,O,m,782,3,1,55665.699999999255,204265.6000000015,7077,ATS,C,24
1,test,1,B,mfborder.png,1,m,Thu Mar 13 2025 11:03:12 GMT-0500 (Central Daylight Time),278525.6000000015,CFD-WM-035-036-HC.jpg,1600,dash,O,m,984,10,1,2616.10000000149,275909.5,7077,ATS,C,1
2,test,1,B,mfborder.png,1,z,Thu Mar 13 2025 11:03:12 GMT-0500 (Central Daylight Time),280158.2000000011,CFD-BF-031-020-A.jpg,1000,dash,O,z,607,4,1,4248.700000001118,275909.5,7077,ATS,C,2
3,test,1,B,mfborder.png,1,m,Thu Mar 13 2025 11:03:12 GMT-0500 (Central Daylight Time),282607.4000000004,CFD-BM-022-004-HC.jpg,1700,dash,O,m,718,1,1,6697.9000000003725,275909.5,7077,ATS,C,3
4,test,1,B,mfborder.png,1,z,Thu Mar 13 2025 11:03:12 GMT-0500 (Central Daylight Time),285140.0,CFD-WF-001-010-HC.jpg,1900,dash,O,z,613,8,1,9230.5,275909.5,7077,ATS,C,4
5,test,1,B,mfborder.png,1,z,Thu Mar 13 2025 11:03:12 GMT-0500 (Central Daylight Time),287289.30000000075,CFD-BF-042-031-HC.jpg,1500,dash,O,z,624,3,1,11379.800000000745,275909.5,7077,ATS,C,5
6,test,1,B,mfborder.png,1,z,Thu Mar 13 2025 11:03:12 GMT-0500 (Central Daylight Time),289271.9000000004,CFD-BF-019-004-HC.jpg,1400,dash,O,z,551,7,1,13362.400000000373,275909.5,7077,ATS,C,6
7,test,1,B,mfborder.png,1,m,Thu Mar 13 2025 11:03:12 GMT-0500 (Central Daylight Time),291571.4000000004,CFD-WM-036-018-A.jpg,1700,dash,O,m,572,9,1,15661.900000000373,275909.5,7077,ATS,C,7
8,test,1,B,mfborder.png,1,m,Thu Mar 13 2025 11:03:12 GMT-0500 (Central Daylight Time),294120.5,CFD-WM-036-018-A.jpg,1700,dash,O,m,825,9,1,18211.0,275909.5,7077,ATS,C,8
9,test,1,B,mfborder.png,1,m,Thu Mar 13 2025 11:03:12 GMT-0500 (Central Daylight Time),296440.0,CFD-BM-022-004-HC.jpg,1700,dash,O,m,588,1,1,20530.5,275909.5,7077,ATS,C,9
10,test,1,B,mfborder.png,1,m,Thu Mar 13 2025 11:03:12 GMT-0500 (Central Daylight Time),298602.1000000015,CFD-WM-035-036-HC.jpg,1600,dash,O,m,548,10,1,22692.60000000149,275909.5,7077,ATS,C,10
11,test,1,B,mfborder.png,1,z,Thu Mar 13 2025 11:03:12 GMT-0500 (Central Daylight Time),300201.7000000011,CFD-WF-013-009-HC.jpg,1000,dash,O,z,582,12,1,24292.200000001118,275909.5,7077,ATS,C,11
12,test,1,B,mfborder.png,1,z,Thu Mar 13 2025 11:03:12 GMT-0500 (Central Daylight Time),302302.6000000015,CFD-BF-042-031-HC.jpg,1500,dash,O,z,570,3,1,26393.10000000149,275909.5,7077,ATS,C,12
13,test,1,B,mfborder.png,1,m,Thu Mar 13 2025 11:03:12 GMT-0500 (Central Daylight Time),304883.7000000011,CFD-BM-043-014-A.jpg,2000,dash,O,m,564,5,1,28974.200000001118,275909.5,7077,ATS,C,13
14,test,1,B,mfborder.png,1,z,Thu Mar 13 2025 11:03:12 GMT-0500 (Central Daylight Time),306516.5,CFD-BF-031-020-A.jpg,1000,dash,O,z,612,4,1,30607.0,275909.5,7077,ATS,C,14
15,test,1,B,mfborder.png,1,z,Thu Mar 13 2025 11:03:12 GMT-0500 (Central Daylight Time),308715.9000000004,CFD-WF-037-016-A.jpg,1500,dash,O,z,680,11,1,32806.40000000037,275909.5,7077,ATS,C,15
16,test,1,B,mfborder.png,1,z,Thu Mar 13 2025 11:03:12 GMT-0500 (Central Daylight Time),310765.4000000004,CFD-BF-019-004-HC.jpg,1400,dash,O,z,620,7,1,34855.90000000037,275909.5,7077,ATS,C,16
17,test,1,B,mfborder.png,1,z,Thu Mar 13 2025 11:03:12 GMT-0500 (Central Daylight Time),313247.80000000075,CFD-WF-001-010-HC.jpg,1900,dash,O,z,556,8,1,37338.300000000745,275909.5,7077,ATS,C,17
18,test,1,B,mfborder.png,1,m,Thu Mar 13 2025 11:03:12 GMT-0500 (Central Daylight Time),315380.30000000075,CFD-BM-021-026-A.jpg,1600,dash,O,m,504,2,1,39470.800000000745,275909.5,7077,ATS,C,18
19,test,1,B,mfborder.png,1,m,Thu Mar 13 2025 11:03:12 GMT-0500 (Central Daylight Time),317996.5,CFD-BM-043-014-A.jpg,2000,dash,O,m,596,5,1,42087.0,275909.5,7077,ATS,C,19
20,test,1,B,mfborder.png,1,z,Thu Mar 13 2025 11:03:12 GMT-0500 (Central Daylight Time),320062.4000000004,CFD-WF-037-016-A.jpg,1500,dash,O,z,544,11,1,44152.90000000037,275909.5,7077,ATS,C,20
21,test,1,B,mfborder.png,1,m,Thu Mar 13 2025 11:03:12 GMT-0500 (Central Daylight Time),321928.6000000015,CFD-WM-034-040-A.jpg,1200,dash,O,m,642,6,1,46019.10000000149,275909.5,7077,ATS,C,21
22,test,1,B,mfborder.png,1,z,Thu Mar 13 2025 11:03:12 GMT-0500 (Central Daylight Time),323644.4000000004,CFD-WF-013-009-HC.jpg,1000,dash,O,z,688,12,1,47734.90000000037,275909.5,7077,ATS,C,22
23,test,1,B,mfborder.png,1,m,Thu Mar 13 2025 11:03:12 GMT-0500 (Central Daylight Time),325727.2000000011,CFD-BM-021-026-A.jpg,1600,dash,O,m,452,2,1,49817.70000000112,275909.5,7077,ATS,C,23
24,test,1,B,mfborder.png,1,m,Thu Mar 13 2025 11:03:12 GMT-0500 (Central Daylight Time),327526.5,CFD-WM-034-040-A.jpg,1200,dash,O,m,569,6,1,51617.0,275909.5,7077,ATS,C,24
0,prac,1,C,haborder.png,0,z,Thu Mar 13 2025 11:03:12 GMT-0500 (Central Daylight Time),392656.5,CFD-BF-031-020-A.jpg,1900,dash,O,None,1502,6,1,4247.799999998882,388408.7000000011,7077,ATS,C,1
1,prac,1,C,haborder.png,1,m,Thu Mar 13 2025 11:03:12 GMT-0500 (Central Daylight Time),395572.2000000011,CFD-WM-028-005-HC.jpg,1000,dash,O,m,1119,6,1,7163.5,388408.7000000011,7077,ATS,C,2
1,prac,1,C,mfborder.png,0,z,Thu Mar 13 2025 11:03:12 GMT-0500 (Central Daylight Time),399104.4000000004,CFD-WF-023-013-A.jpg,1500,solid,O,m,1248,6,1,10695.699999999255,388408.7000000011,7077,ATS,C,3
1,prac,1,C,mfborder.png,0,z,Thu Mar 13 2025 11:03:12 GMT-0500 (Central Daylight Time),403003.1000000015,CFD-WF-013-009-HC.jpg,1600,dash,O,None,1515,6,1,14594.400000000373,388408.7000000011,7077,ATS,C,4
1,prac,1,C,mfborder.png,0,m,Thu Mar 13 2025 11:03:12 GMT-0500 (Central Daylight Time),407001.7000000011,CFD-WM-036-018-A.jpg,1700,solid,O,None,1516,6,1,18593.0,388408.7000000011,7077,ATS,C,5
1,prac,1,C,haborder.png,0,m,Thu Mar 13 2025 11:03:12 GMT-0500 (Central Daylight Time),410700.6000000015,CFD-WM-028-005-HC.jpg,1400,solid,O,None,1516,6,1,22291.900000000373,388408.7000000011,7077,ATS,C,6
2,prac,1,C,haborder.png,1,m,Thu Mar 13 2025 11:03:12 GMT-0500 (Central Daylight Time),413716.4000000004,CFD-BM-022-004-HC.jpg,1500,solid,O,m,728,6,1,25307.699999999255,388408.7000000011,7077,ATS,C,7
2,prac,1,C,mfborder.png,0,z,Thu Mar 13 2025 11:03:12 GMT-0500 (Central Daylight Time),416815.30000000075,CFD-BF-019-004-HC.jpg,1000,dash,O,m,1300,6,1,28406.599999999627,388408.7000000011,7077,ATS,C,8
2,prac,1,C,mfborder.png,0,m,Thu Mar 13 2025 11:03:12 GMT-0500 (Central Daylight Time),420247.6000000015,CFD-BM-043-014-A.jpg,1200,dash,O,z,1433,6,1,31838.900000000373,388408.7000000011,7077,ATS,C,9
2,prac,1,C,haborder.png,0,z,Thu Mar 13 2025 11:03:12 GMT-0500 (Central Daylight Time),424131.0,CFD-WF-037-016-A.jpg,1600,dash,O,None,1516,6,1,35722.29999999888,388408.7000000011,7077,ATS,C,10
3,prac,1,C,haborder.png,1,z,Thu Mar 13 2025 11:03:12 GMT-0500 (Central Daylight Time),427745.30000000075,CFD-BF-002-018-A.jpg,1700,solid,O,z,1131,6,1,39336.59999999963,388408.7000000011,7077,ATS,C,11
4,prac,1,C,mfborder.png,1,m,Thu Mar 13 2025 11:03:12 GMT-0500 (Central Daylight Time),431610.80000000075,CFD-BM-034-035-HC.jpg,2000,solid,O,m,1080,6,1,43202.09999999963,388408.7000000011,7077,ATS,C,12
1,prac,2,C,mfborder.png,1,m,Thu Mar 13 2025 11:03:12 GMT-0500 (Central Daylight Time),444839.9000000004,CFD-BM-043-014-A.jpg,1200,dash,O,m,1183,6,1,56431.199999999255,388408.7000000011,7077,ATS,C,1
2,prac,2,C,haborder.png,1,z,Thu Mar 13 2025 11:03:12 GMT-0500 (Central Daylight Time),448390.30000000075,CFD-BF-031-020-A.jpg,1900,dash,O,z,861,6,1,59981.59999999963,388408.7000000011,7077,ATS,C,2
3,prac,2,C,haborder.png,1,z,Thu Mar 13 2025 11:03:12 GMT-0500 (Central Daylight Time),451687.9000000004,CFD-BF-002-018-A.jpg,1700,solid,O,z,816,6,1,63279.199999999255,388408.7000000011,7077,ATS,C,3
3,prac,2,C,mfborder.png,0,m,Thu Mar 13 2025 11:03:12 GMT-0500 (Central Daylight Time),455686.7000000011,CFD-WM-036-018-A.jpg,1700,solid,O,None,1515,6,1,67278.0,388408.7000000011,7077,ATS,C,4
4,prac,2,C,mfborder.png,1,m,Thu Mar 13 2025 11:03:12 GMT-0500 (Central Daylight Time),459885.30000000075,CFD-BM-034-035-HC.jpg,2000,solid,O,m,1410,6,1,71476.59999999963,388408.7000000011,7077,ATS,C,5
4,prac,2,C,mfborder.png,0,z,Thu Mar 13 2025 11:03:12 GMT-0500 (Central Daylight Time),462934.4000000004,CFD-BF-019-004-HC.jpg,1000,dash,O,m,1138,6,1,74525.69999999925,388408.7000000011,7077,ATS,C,6
4,prac,2,C,haborder.png,0,z,Thu Mar 13 2025 11:03:12 GMT-0500 (Central Daylight Time),466832.9000000004,CFD-WF-037-016-A.jpg,1600,dash,O,None,1516,6,1,78424.19999999925,388408.7000000011,7077,ATS,C,7
4,prac,2,C,mfborder.png,0,z,Thu Mar 13 2025 11:03:12 GMT-0500 (Central Daylight Time),470648.80000000075,CFD-WF-013-009-HC.jpg,1600,dash,O,m,1423,6,1,82240.09999999963,388408.7000000011,7077,ATS,C,8
4,prac,2,C,haborder.png,0,m,Thu Mar 13 2025 11:03:12 GMT-0500 (Central Daylight Time),474447.30000000075,CFD-BM-022-004-HC.jpg,1500,solid,O,None,1516,6,1,86038.59999999963,388408.7000000011,7077,ATS,C,9
5,prac,2,C,haborder.png,1,m,Thu Mar 13 2025 11:03:12 GMT-0500 (Central Daylight Time),477046.80000000075,CFD-WM-028-005-HC.jpg,1000,dash,O,m,810,6,1,88638.09999999963,388408.7000000011,7077,ATS,C,10
6,prac,2,C,mfborder.png,1,z,Thu Mar 13 2025 11:03:12 GMT-0500 (Central Daylight Time),480678.9000000004,CFD-WF-023-013-A.jpg,1500,solid,O,z,1334,6,1,92270.19999999925,388408.7000000011,7077,ATS,C,11
7,prac,2,C,haborder.png,1,m,Thu Mar 13 2025 11:03:12 GMT-0500 (Central Daylight Time),484210.80000000075,CFD-WM-028-005-HC.jpg,1400,solid,O,m,1338,6,1,95802.09999999963,388408.7000000011,7077,ATS,C,12
1,test,1,C,mfborder.png,1,m,Thu Mar 13 2025 11:03:12 GMT-0500 (Central Daylight Time),543709.1000000015,CFD-BM-022-004-HC.jpg,1200,dash,O,m,1229,6,1,2449.5,541259.6000000015,7077,ATS,C,1
1,test,1,C,mfborder.png,0,z,Thu Mar 13 2025 11:03:12 GMT-0500 (Central Daylight Time),546841.6000000015,CFD-BF-031-020-A.jpg,1600,dash,O,None,1515,2,1,5582.0,541259.6000000015,7077,ATS,C,2
1,test,1,C,haborder.png,0,z,Thu Mar 13 2025 11:03:12 GMT-0500 (Central Daylight Time),549773.6000000015,CFD-WM-036-018-A.jpg,1400,solid,O,None,1516,7,1,8514.0,541259.6000000015,7077,ATS,C,3
1,test,1,C,mfborder.png,0,z,Thu Mar 13 2025 11:03:12 GMT-0500 (Central Daylight Time),552806.1000000015,CFD-WF-037-016-A.jpg,1500,dash,O,None,1516,3,1,11546.5,541259.6000000015,7077,ATS,C,4
1,test,1,C,mfborder.png,0,z,Thu Mar 13 2025 11:03:12 GMT-0500 (Central Daylight Time),556038.3000000007,CFD-BF-042-031-HC.jpg,1700,dash,O,None,1515,1,1,14778.699999999255,541259.6000000015,7077,ATS,C,5
1,test,1,C,haborder.png,0,m,Thu Mar 13 2025 11:03:12 GMT-0500 (Central Daylight Time),559070.8000000007,CFD-WF-001-010-HC.jpg,1500,solid,O,None,1515,11,1,17811.199999999255,541259.6000000015,7077,ATS,C,6
2,test,1,C,mfborder.png,1,z,Thu Mar 13 2025 11:03:12 GMT-0500 (Central Daylight Time),562020.0,CFD-WF-037-016-A.jpg,1500,dash,O,z,1422,3,1,20760.39999999851,541259.6000000015,7077,ATS,C,7
2,test,1,C,mfborder.png,0,z,Thu Mar 13 2025 11:03:12 GMT-0500 (Central Daylight Time),565152.3000000007,CFD-BF-031-020-A.jpg,1600,dash,O,None,1515,2,1,23892.699999999255,541259.6000000015,7077,ATS,C,8
2,test,1,C,haborder.png,0,m,Thu Mar 13 2025 11:03:12 GMT-0500 (Central Daylight Time),568184.9000000004,CFD-WF-001-010-HC.jpg,1500,solid,O,None,1512,11,1,26925.299999998882,541259.6000000015,7077,ATS,C,9
2,test,1,C,mfborder.png,0,m,Thu Mar 13 2025 11:03:12 GMT-0500 (Central Daylight Time),570717.1000000015,CFD-WM-035-036-HC.jpg,1000,dash,O,None,1515,4,1,29457.5,541259.6000000015,7077,ATS,C,10
2,test,1,C,haborder.png,0,m,Thu Mar 13 2025 11:03:12 GMT-0500 (Central Daylight Time),573449.6000000015,CFD-BF-019-004-HC.jpg,1600,solid,O,z,1107,10,1,32190.0,541259.6000000015,7077,ATS,C,11
2,test,1,C,mfborder.png,0,m,Thu Mar 13 2025 11:03:12 GMT-0500 (Central Daylight Time),576981.8000000007,CFD-WM-034-040-A.jpg,2000,dash,O,None,1516,5,1,35722.199999999255,541259.6000000015,7077,ATS,C,12
3,test,1,C,haborder.png,1,z,Thu Mar 13 2025 11:03:12 GMT-0500 (Central Daylight Time),579864.4000000004,CFD-WM-036-018-A.jpg,1400,solid,O,z,1450,7,1,38604.79999999888,541259.6000000015,7077,ATS,C,13
3,test,1,C,mfborder.png,0,m,Thu Mar 13 2025 11:03:12 GMT-0500 (Central Daylight Time),582400.2000000011,CFD-WM-035-036-HC.jpg,1000,dash,O,None,1516,4,1,41140.59999999963,541259.6000000015,7077,ATS,C,14
3,test,1,C,haborder.png,0,z,Thu Mar 13 2025 11:03:12 GMT-0500 (Central Daylight Time),585445.9000000004,CFD-BM-043-014-A.jpg,1900,solid,O,m,1120,8,1,44186.29999999888,541259.6000000015,7077,ATS,C,15
3,test,1,C,haborder.png,0,m,Thu Mar 13 2025 11:03:12 GMT-0500 (Central Daylight Time),587978.5,CFD-WF-013-009-HC.jpg,1000,solid,O,None,1515,12,1,46718.89999999851,541259.6000000015,7077,ATS,C,16
3,test,1,C,mfborder.png,0,m,Thu Mar 13 2025 11:03:12 GMT-0500 (Central Daylight Time),590710.9000000004,CFD-BM-022-004-HC.jpg,1200,dash,O,None,1516,6,1,49451.29999999888,541259.6000000015,7077,ATS,C,17
3,test,1,C,haborder.png,0,m,Thu Mar 13 2025 11:03:12 GMT-0500 (Central Daylight Time),592926.9000000004,CFD-WF-013-009-HC.jpg,1000,solid,O,z,1193,12,1,51667.29999999888,541259.6000000015,7077,ATS,C,18
3,test,1,C,haborder.png,0,z,Thu Mar 13 2025 11:03:12 GMT-0500 (Central Daylight Time),596359.2000000011,CFD-BM-043-014-A.jpg,1900,solid,O,None,1512,8,1,55099.59999999963,541259.6000000015,7077,ATS,C,19
3,test,1,C,haborder.png,0,z,Thu Mar 13 2025 11:03:12 GMT-0500 (Central Daylight Time),599191.5,CFD-BM-021-026-A.jpg,1700,solid,O,m,1109,9,1,57931.89999999851,541259.6000000015,7077,ATS,C,20
3,test,1,C,haborder.png,0,m,Thu Mar 13 2025 11:03:12 GMT-0500 (Central Daylight Time),602023.9000000004,CFD-BF-019-004-HC.jpg,1600,solid,O,z,1209,10,1,60764.29999999888,541259.6000000015,7077,ATS,C,21
3,test,1,C,haborder.png,0,z,Thu Mar 13 2025 11:03:12 GMT-0500 (Central Daylight Time),604989.7000000011,CFD-BM-021-026-A.jpg,1700,solid,O,m,1236,9,1,63730.09999999963,541259.6000000015,7077,ATS,C,22
3,test,1,C,mfborder.png,0,m,Thu Mar 13 2025 11:03:12 GMT-0500 (Central Daylight Time),608522.0,CFD-WM-034-040-A.jpg,2000,dash,O,None,1516,5,1,67262.39999999851,541259.6000000015,7077,ATS,C,23
3,test,1,C,mfborder.png,0,z,Thu Mar 13 2025 11:03:12 GMT-0500 (Central Daylight Time),611638.8000000007,CFD-BF-042-031-HC.jpg,1700,dash,O,m,1395,1,1,70379.19999999925,541259.6000000015,7077,ATS,C,24
0,test,2,C,mfborder.png,0,m,Thu Mar 13 2025 11:03:12 GMT-0500 (Central Daylight Time),626349.7000000011,CFD-BM-043-014-A.jpg,2000,dash,O,z,1366,5,1,3399.0,622950.7000000011,7077,ATS,C,1
0,test,2,C,haborder.png,0,m,Thu Mar 13 2025 11:03:12 GMT-0500 (Central Daylight Time),628882.5,CFD-WM-028-005-HC.jpg,1000,solid,O,None,1515,12,1,5931.799999998882,622950.7000000011,7077,ATS,C,2
1,test,2,C,haborder.png,1,m,Thu Mar 13 2025 11:03:12 GMT-0500 (Central Daylight Time),631464.9000000004,CFD-WM-028-005-HC.jpg,1500,solid,O,m,1050,11,1,8514.199999999255,622950.7000000011,7077,ATS,C,3
2,test,2,C,haborder.png,1,z,Thu Mar 13 2025 11:03:12 GMT-0500 (Central Daylight Time),634147.2000000011,CFD-WF-037-016-A.jpg,1700,solid,O,z,964,9,1,11196.5,622950.7000000011,7077,ATS,C,4
2,test,2,C,mfborder.png,0,z,Thu Mar 13 2025 11:03:12 GMT-0500 (Central Daylight Time),637380.7000000011,CFD-WF-013-009-HC.jpg,1700,dash,O,None,1517,1,1,14430.0,622950.7000000011,7077,ATS,C,5
2,test,2,C,haborder.png,0,m,Thu Mar 13 2025 11:03:12 GMT-0500 (Central Daylight Time),640412.3000000007,CFD-WM-028-005-HC.jpg,1500,solid,O,None,1516,11,1,17461.599999999627,622950.7000000011,7077,ATS,C,6
3,test,2,C,mfborder.png,1,m,Thu Mar 13 2025 11:03:12 GMT-0500 (Central Daylight Time),643760.9000000004,CFD-BM-043-014-A.jpg,2000,dash,O,m,1325,5,1,20810.199999999255,622950.7000000011,7077,ATS,C,7
4,test,2,C,haborder.png,1,m,Thu Mar 13 2025 11:03:12 GMT-0500 (Central Daylight Time),646726.6000000015,CFD-BM-022-004-HC.jpg,1600,solid,O,m,1335,10,1,23775.900000000373,622950.7000000011,7077,ATS,C,8
4,test,2,C,haborder.png,0,z,Thu Mar 13 2025 11:03:12 GMT-0500 (Central Daylight Time),650159.1000000015,CFD-BF-002-018-A.jpg,1900,solid,O,None,1516,8,1,27208.400000000373,622950.7000000011,7077,ATS,C,9
4,test,2,C,mfborder.png,0,z,Thu Mar 13 2025 11:03:12 GMT-0500 (Central Daylight Time),653108.2000000011,CFD-WF-013-009-HC.jpg,1700,dash,O,m,1221,1,1,30157.5,622950.7000000011,7077,ATS,C,10
5,test,2,C,mfborder.png,1,z,Thu Mar 13 2025 11:03:12 GMT-0500 (Central Daylight Time),655940.4000000004,CFD-BF-019-004-HC.jpg,1500,dash,O,z,1303,3,1,32989.699999999255,622950.7000000011,7077,ATS,C,11
6,test,2,C,haborder.png,1,z,Thu Mar 13 2025 11:03:12 GMT-0500 (Central Daylight Time),659156.3000000007,CFD-BF-002-018-A.jpg,1900,solid,O,z,1288,8,1,36205.59999999963,622950.7000000011,7077,ATS,C,12
7,test,2,C,mfborder.png,1,m,Thu Mar 13 2025 11:03:12 GMT-0500 (Central Daylight Time),661055.4000000004,CFD-BM-034-035-HC.jpg,1000,dash,O,m,876,4,1,38104.699999999255,622950.7000000011,7077,ATS,C,13
8,test,2,C,mfborder.png,1,m,Thu Mar 13 2025 11:03:12 GMT-0500 (Central Daylight Time),662925.2000000011,CFD-BM-034-035-HC.jpg,1000,dash,O,m,832,4,1,39974.5,622950.7000000011,7077,ATS,C,14
8,test,2,C,mfborder.png,0,z,Thu Mar 13 2025 11:03:12 GMT-0500 (Central Daylight Time),666054.0,CFD-WF-023-013-A.jpg,1600,dash,O,None,1516,2,1,43103.29999999888,622950.7000000011,7077,ATS,C,15
8,test,2,C,mfborder.png,0,m,Thu Mar 13 2025 11:03:12 GMT-0500 (Central Daylight Time),668220.0,CFD-WM-036-018-A.jpg,1200,dash,O,z,946,6,1,45269.29999999888,622950.7000000011,7077,ATS,C,16
8,test,2,C,mfborder.png,0,z,Thu Mar 13 2025 11:03:12 GMT-0500 (Central Daylight Time),670869.1000000015,CFD-BF-019-004-HC.jpg,1500,dash,O,m,1128,3,1,47918.40000000037,622950.7000000011,7077,ATS,C,17
8,test,2,C,mfborder.png,0,z,Thu Mar 13 2025 11:03:12 GMT-0500 (Central Daylight Time),674001.5,CFD-WF-023-013-A.jpg,1600,dash,O,None,1515,2,1,51050.79999999888,622950.7000000011,7077,ATS,C,18
9,test,2,C,haborder.png,1,z,Thu Mar 13 2025 11:03:12 GMT-0500 (Central Daylight Time),676683.7000000011,CFD-BF-031-020-A.jpg,1400,solid,O,z,1255,7,1,53733.0,622950.7000000011,7077,ATS,C,19
10,test,2,C,haborder.png,1,m,Thu Mar 13 2025 11:03:12 GMT-0500 (Central Daylight Time),678916.5,CFD-WM-028-005-HC.jpg,1000,solid,O,m,1204,12,1,55965.79999999888,622950.7000000011,7077,ATS,C,20
11,test,2,C,haborder.png,1,z,Thu Mar 13 2025 11:03:12 GMT-0500 (Central Daylight Time),681982.2000000011,CFD-WF-037-016-A.jpg,1700,solid,O,z,1336,9,1,59031.5,622950.7000000011,7077,ATS,C,21
12,test,2,C,mfborder.png,1,m,Thu Mar 13 2025 11:03:12 GMT-0500 (Central Daylight Time),684614.9000000004,CFD-WM-036-018-A.jpg,1200,dash,O,m,1402,6,1,61664.199999999255,622950.7000000011,7077,ATS,C,22
12,test,2,C,haborder.png,0,z,Thu Mar 13 2025 11:03:12 GMT-0500 (Central Daylight Time),687397.2000000011,CFD-BF-031-020-A.jpg,1400,solid,O,m,1354,7,1,64446.5,622950.7000000011,7077,ATS,C,23
13,test,2,C,haborder.png,1,m,Thu Mar 13 2025 11:03:12 GMT-0500 (Central Daylight Time),690146.2000000011,CFD-BM-022-004-HC.jpg,1600,solid,O,m,1131,10,1,67195.5,622950.7000000011,7077,ATS,C,24
0,test,3,C,haborder.png,0,z,Thu Mar 13 2025 11:03:12 GMT-0500 (Central Daylight Time),705658.1000000015,CFD-BM-043-014-A.jpg,1900,solid,O,None,1511,8,1,3432.300000000745,702225.8000000007,7077,ATS,C,1
1,test,3,C,haborder.png,1,z,Thu Mar 13 2025 11:03:12 GMT-0500 (Central Daylight Time),708390.7000000011,CFD-WM-036-018-A.jpg,1400,solid,O,z,1306,7,1,6164.9000000003725,702225.8000000007,7077,ATS,C,2
1,test,3,C,mfborder.png,0,m,Thu Mar 13 2025 11:03:12 GMT-0500 (Central Daylight Time),711123.4000000004,CFD-BM-022-004-HC.jpg,1200,dash,O,None,1515,6,1,8897.599999999627,702225.8000000007,7077,ATS,C,3
2,test,3,C,mfborder.png,1,z,Thu Mar 13 2025 11:03:12 GMT-0500 (Central Daylight Time),713692.2000000011,CFD-WF-037-016-A.jpg,1500,dash,O,z,1033,3,1,11466.400000000373,702225.8000000007,7077,ATS,C,4
3,test,3,C,mfborder.png,1,z,Thu Mar 13 2025 11:03:12 GMT-0500 (Central Daylight Time),716171.5,CFD-BF-042-031-HC.jpg,1700,dash,O,z,755,1,1,13945.699999999255,702225.8000000007,7077,ATS,C,5
3,test,3,C,haborder.png,0,m,Thu Mar 13 2025 11:03:12 GMT-0500 (Central Daylight Time),718704.1000000015,CFD-WF-013-009-HC.jpg,1000,solid,O,None,1516,12,1,16478.300000000745,702225.8000000007,7077,ATS,C,6
4,test,3,C,mfborder.png,1,z,Thu Mar 13 2025 11:03:12 GMT-0500 (Central Daylight Time),721470.0,CFD-WF-037-016-A.jpg,1500,dash,O,z,1245,3,1,19244.199999999255,702225.8000000007,7077,ATS,C,7
5,test,3,C,mfborder.png,1,m,Thu Mar 13 2025 11:03:12 GMT-0500 (Central Daylight Time),723669.3000000007,CFD-WM-035-036-HC.jpg,1000,dash,O,m,1170,4,1,21443.5,702225.8000000007,7077,ATS,C,8
6,test,3,C,mfborder.png,1,z,Thu Mar 13 2025 11:03:12 GMT-0500 (Central Daylight Time),726118.2000000011,CFD-BF-042-031-HC.jpg,1700,dash,O,z,719,1,1,23892.400000000373,702225.8000000007,7077,ATS,C,9
7,test,3,C,mfborder.png,1,m,Thu Mar 13 2025 11:03:12 GMT-0500 (Central Daylight Time),728984.2000000011,CFD-WM-034-040-A.jpg,2000,dash,O,m,841,5,1,26758.400000000373,702225.8000000007,7077,ATS,C,10
8,test,3,C,mfborder.png,1,z,Thu Mar 13 2025 11:03:12 GMT-0500 (Central Daylight Time),731417.0,CFD-BF-031-020-A.jpg,1600,dash,O,z,800,2,1,29191.199999999255,702225.8000000007,7077,ATS,C,11
9,test,3,C,haborder.png,1,z,Thu Mar 13 2025 11:03:12 GMT-0500 (Central Daylight Time),734349.3000000007,CFD-BM-021-026-A.jpg,1700,solid,O,z,1212,9,1,32123.5,702225.8000000007,7077,ATS,C,12
10,test,3,C,mfborder.png,1,m,Thu Mar 13 2025 11:03:12 GMT-0500 (Central Daylight Time),736415.3000000007,CFD-BM-022-004-HC.jpg,1200,dash,O,m,843,6,1,34189.5,702225.8000000007,7077,ATS,C,13
11,test,3,C,mfborder.png,1,z,Thu Mar 13 2025 11:03:12 GMT-0500 (Central Daylight Time),739381.1000000015,CFD-BF-031-020-A.jpg,1600,dash,O,z,1337,2,1,37155.300000000745,702225.8000000007,7077,ATS,C,14
12,test,3,C,haborder.png,1,m,Thu Mar 13 2025 11:03:12 GMT-0500 (Central Daylight Time),741863.4000000004,CFD-WF-013-009-HC.jpg,1000,solid,O,m,1459,12,1,39637.59999999963,702225.8000000007,7077,ATS,C,15
13,test,3,C,haborder.png,1,m,Thu Mar 13 2025 11:03:12 GMT-0500 (Central Daylight Time),744279.2000000011,CFD-WF-001-010-HC.jpg,1500,solid,O,m,831,11,1,42053.40000000037,702225.8000000007,7077,ATS,C,16
14,test,3,C,mfborder.png,1,m,Thu Mar 13 2025 11:03:12 GMT-0500 (Central Daylight Time),746628.5,CFD-WM-035-036-HC.jpg,1000,dash,O,m,1320,4,1,44402.699999999255,702225.8000000007,7077,ATS,C,17
15,test,3,C,haborder.png,1,m,Thu Mar 13 2025 11:03:12 GMT-0500 (Central Daylight Time),749194.4000000004,CFD-WF-001-010-HC.jpg,1500,solid,O,m,1040,11,1,46968.59999999963,702225.8000000007,7077,ATS,C,18
15,test,3,C,haborder.png,0,m,Thu Mar 13 2025 11:03:12 GMT-0500 (Central Daylight Time),752327.1000000015,CFD-BF-019-004-HC.jpg,1600,solid,O,None,1516,10,1,50101.300000000745,702225.8000000007,7077,ATS,C,19
15,test,3,C,mfborder.png,0,m,Thu Mar 13 2025 11:03:12 GMT-0500 (Central Daylight Time),755859.1000000015,CFD-WM-034-040-A.jpg,2000,dash,O,None,1515,5,1,53633.300000000745,702225.8000000007,7077,ATS,C,20
15,test,3,C,haborder.png,0,m,Thu Mar 13 2025 11:03:12 GMT-0500 (Central Daylight Time),758991.5,CFD-BF-019-004-HC.jpg,1600,solid,O,None,1515,10,1,56765.699999999255,702225.8000000007,7077,ATS,C,21
15,test,3,C,haborder.png,0,z,Thu Mar 13 2025 11:03:12 GMT-0500 (Central Daylight Time),762057.4000000004,CFD-BM-021-026-A.jpg,1700,solid,O,m,1349,9,1,59831.59999999963,702225.8000000007,7077,ATS,C,22
15,test,3,C,haborder.png,0,z,Thu Mar 13 2025 11:03:12 GMT-0500 (Central Daylight Time),765489.4000000004,CFD-BM-043-014-A.jpg,1900,solid,O,None,1515,8,1,63263.59999999963,702225.8000000007,7077,ATS,C,23
16,test,3,C,haborder.png,1,z,Thu Mar 13 2025 11:03:12 GMT-0500 (Central Daylight Time),767888.6000000015,CFD-WM-036-018-A.jpg,1400,solid,O,z,914,7,1,65662.80000000075,702225.8000000007,7077,ATS,C,24
1,test,4,C,haborder.png,1,m,Thu Mar 13 2025 11:03:12 GMT-0500 (Central Daylight Time),774953.2000000011,CFD-WM-028-005-HC.jpg,1500,solid,O,m,1170,11,1,2699.0999999996275,772254.1000000015,7077,ATS,C,1
2,test,4,C,mfborder.png,1,z,Thu Mar 13 2025 11:03:12 GMT-0500 (Central Daylight Time),777952.5,CFD-WF-023-013-A.jpg,1600,dash,O,z,1367,2,1,5698.39999999851,772254.1000000015,7077,ATS,C,2
3,test,4,C,mfborder.png,1,m,Thu Mar 13 2025 11:03:12 GMT-0500 (Central Daylight Time),779968.5,CFD-BM-034-035-HC.jpg,1000,dash,O,m,992,4,1,7714.39999999851,772254.1000000015,7077,ATS,C,3
4,test,4,C,haborder.png,1,z,Thu Mar 13 2025 11:03:12 GMT-0500 (Central Daylight Time),782800.6000000015,CFD-WF-037-016-A.jpg,1700,solid,O,z,1108,9,1,10546.5,772254.1000000015,7077,ATS,C,4
5,test,4,C,mfborder.png,1,m,Thu Mar 13 2025 11:03:12 GMT-0500 (Central Daylight Time),785266.7000000011,CFD-BM-034-035-HC.jpg,1000,dash,O,m,1448,4,1,13012.599999999627,772254.1000000015,7077,ATS,C,5
6,test,4,C,mfborder.png,1,z,Thu Mar 13 2025 11:03:12 GMT-0500 (Central Daylight Time),787782.5,CFD-WF-013-009-HC.jpg,1700,dash,O,z,794,1,1,15528.39999999851,772254.1000000015,7077,ATS,C,6
7,test,4,C,haborder.png,1,z,Thu Mar 13 2025 11:03:12 GMT-0500 (Central Daylight Time),790658.9000000004,CFD-BF-031-020-A.jpg,1400,solid,O,z,1459,7,1,18404.799999998882,772254.1000000015,7077,ATS,C,7
7,test,4,C,mfborder.png,0,m,Thu Mar 13 2025 11:03:12 GMT-0500 (Central Daylight Time),792664.3000000007,CFD-WM-036-018-A.jpg,1200,dash,O,z,767,6,1,20410.199999999255,772254.1000000015,7077,ATS,C,8
7,test,4,C,haborder.png,0,m,Thu Mar 13 2025 11:03:12 GMT-0500 (Central Daylight Time),795196.9000000004,CFD-WM-028-005-HC.jpg,1000,solid,O,None,1516,12,1,22942.799999998882,772254.1000000015,7077,ATS,C,9
7,test,4,C,haborder.png,0,z,Thu Mar 13 2025 11:03:12 GMT-0500 (Central Daylight Time),798129.5,CFD-BF-031-020-A.jpg,1400,solid,O,None,1516,7,1,25875.39999999851,772254.1000000015,7077,ATS,C,10
8,test,4,C,mfborder.png,1,m,Thu Mar 13 2025 11:03:12 GMT-0500 (Central Daylight Time),801494.8000000007,CFD-BM-043-014-A.jpg,2000,dash,O,m,1335,5,1,29240.699999999255,772254.1000000015,7077,ATS,C,11
9,test,4,C,haborder.png,1,z,Thu Mar 13 2025 11:03:12 GMT-0500 (Central Daylight Time),804710.4000000004,CFD-BF-002-018-A.jpg,1900,solid,O,z,1286,8,1,32456.299999998882,772254.1000000015,7077,ATS,C,12
10,test,4,C,haborder.png,1,z,Thu Mar 13 2025 11:03:12 GMT-0500 (Central Daylight Time),807259.8000000007,CFD-BF-002-018-A.jpg,1900,solid,O,z,630,8,1,35005.699999999255,772254.1000000015,7077,ATS,C,13
11,test,4,C,mfborder.png,1,m,Thu Mar 13 2025 11:03:12 GMT-0500 (Central Daylight Time),809825.3000000007,CFD-WM-036-018-A.jpg,1200,dash,O,m,1333,6,1,37571.199999999255,772254.1000000015,7077,ATS,C,14
12,test,4,C,haborder.png,1,m,Thu Mar 13 2025 11:03:12 GMT-0500 (Central Daylight Time),812558.1000000015,CFD-BM-022-004-HC.jpg,1600,solid,O,m,1111,10,1,40304.0,772254.1000000015,7077,ATS,C,15
13,test,4,C,mfborder.png,1,z,Thu Mar 13 2025 11:03:12 GMT-0500 (Central Daylight Time),815207.5,CFD-BF-019-004-HC.jpg,1500,dash,O,z,1007,3,1,42953.39999999851,772254.1000000015,7077,ATS,C,16
14,test,4,C,haborder.png,1,m,Thu Mar 13 2025 11:03:12 GMT-0500 (Central Daylight Time),818006.2000000011,CFD-WM-028-005-HC.jpg,1500,solid,O,m,1269,11,1,45752.09999999963,772254.1000000015,7077,ATS,C,17
14,test,4,C,haborder.png,0,z,Thu Mar 13 2025 11:03:12 GMT-0500 (Central Daylight Time),821238.7000000011,CFD-WF-037-016-A.jpg,1700,solid,O,None,1516,9,1,48984.59999999963,772254.1000000015,7077,ATS,C,18
14,test,4,C,mfborder.png,0,z,Thu Mar 13 2025 11:03:12 GMT-0500 (Central Daylight Time),824371.2000000011,CFD-WF-023-013-A.jpg,1600,dash,O,None,1516,2,1,52117.09999999963,772254.1000000015,7077,ATS,C,19
15,test,4,C,mfborder.png,1,m,Thu Mar 13 2025 11:03:12 GMT-0500 (Central Daylight Time),827653.5,CFD-BM-043-014-A.jpg,2000,dash,O,m,1253,5,1,55399.39999999851,772254.1000000015,7077,ATS,C,20
16,test,4,C,mfborder.png,1,z,Thu Mar 13 2025 11:03:12 GMT-0500 (Central Daylight Time),829869.3000000007,CFD-BF-019-004-HC.jpg,1500,dash,O,z,687,3,1,57615.199999999255,772254.1000000015,7077,ATS,C,21
17,test,4,C,haborder.png,1,m,Thu Mar 13 2025 11:03:12 GMT-0500 (Central Daylight Time),832785.1000000015,CFD-BM-022-004-HC.jpg,1600,solid,O,m,1283,10,1,60531.0,772254.1000000015,7077,ATS,C,22
17,test,4,C,haborder.png,0,m,Thu Mar 13 2025 11:03:12 GMT-0500 (Central Daylight Time),835317.6000000015,CFD-WM-028-005-HC.jpg,1000,solid,O,None,1515,12,1,63063.5,772254.1000000015,7077,ATS,C,23
18,test,4,C,mfborder.png,1,z,Thu Mar 13 2025 11:03:12 GMT-0500 (Central Daylight Time),838283.1000000015,CFD-WF-013-009-HC.jpg,1700,dash,O,z,1239,1,1,66029.0,772254.1000000015,7077,ATS,C,24
