acc_sum,block,block_c,change,condition,correct,correct_response,datetime,endtime,face,project,response,response_time,row_sel,session_number,start_end,starttime,subject_id,task,task_vers,trial
0,prac,1,,1-Back,,,Wed Mar 26 2025 09:56:43 GMT-0500 (Central Daylight Time),,005_o_f_d_a.png,O,space,6924,1,1,,,7094,VNB,B,0
1,prac,1,0.0,1-Back,1,m,Wed Mar 26 2025 09:56:43 GMT-0500 (Central Daylight Time),113708.0,020_y_f_n_a.png,O,m,1430,2,1,2266.8000000715256,111441.19999992847,7094,VNB,B,1
2,prac,1,0.0,1-Back,1,m,Wed Mar 26 2025 09:56:43 GMT-0500 (Central Daylight Time),115891.5,007_m_m_h_a.png,O,m,1294,3,1,2175.3000000715256,113716.19999992847,7094,VNB,B,2
3,prac,1,0.0,1-Back,1,m,Wed Mar 26 2025 09:56:43 GMT-0500 (Central Daylight Time),117987.89999997616,016_y_m_d_a.png,O,m,1212,4,1,2089.100000023842,115898.79999995232,7094,VNB,B,3
4,prac,1,0.0,1-Back,1,m,Wed Mar 26 2025 09:56:43 GMT-0500 (Central Daylight Time),120006.0,005_o_f_n_a.png,O,m,1135,5,1,2010.3000000715256,117995.69999992847,7094,VNB,B,4
5,prac,1,1.0,1-Back,1,z,Wed Mar 26 2025 09:56:43 GMT-0500 (Central Daylight Time),122455.39999997616,016_y_m_n_a.png,O,z,1552,6,1,2439.2000000476837,120016.19999992847,7094,VNB,B,5
6,prac,1,0.0,1-Back,1,m,Wed Mar 26 2025 09:56:43 GMT-0500 (Central Daylight Time),124388.69999992847,004_o_m_h_a.png,O,m,1054,7,1,1924.5,122464.19999992847,7094,VNB,B,6
7,prac,1,0.0,1-Back,1,m,Wed Mar 26 2025 09:56:43 GMT-0500 (Central Daylight Time),126955.79999995232,011_m_f_d_a.png,O,m,1702,8,1,2558.399999976158,124397.39999997616,7094,VNB,B,7
7,prac,1,1.0,1-Back,0,z,Wed Mar 26 2025 09:56:43 GMT-0500 (Central Daylight Time),129804.0,020_y_f_d_a.png,O,None,2001,9,1,2839.5,126964.5,7094,VNB,B,8
8,prac,1,0.0,1-Back,1,m,Wed Mar 26 2025 09:56:43 GMT-0500 (Central Daylight Time),132003.89999997616,007_m_m_n_a.png,O,m,1296,10,1,2191.2999999523163,129812.60000002384,7094,VNB,B,9
8,prac,1,0.0,1-Back,0,m,Wed Mar 26 2025 09:56:43 GMT-0500 (Central Daylight Time),133852.39999997616,005_o_f_h_a.png,O,z,964,11,1,1840.1000000238419,132012.29999995232,7094,VNB,B,10
9,prac,1,0.0,1-Back,1,m,Wed Mar 26 2025 09:56:43 GMT-0500 (Central Daylight Time),135801.0,016_y_m_d_a.png,O,m,1059,12,1,1939.8999999761581,133861.10000002384,7094,VNB,B,11
0,prac,2,0.0,1-Back,,,Wed Mar 26 2025 09:56:43 GMT-0500 (Central Daylight Time),135801.0,005_o_f_d_a.png,O,a,6071,1,1,1939.8999999761581,133861.10000002384,7094,VNB,B,0
1,prac,2,0.0,1-Back,1,m,Wed Mar 26 2025 09:56:43 GMT-0500 (Central Daylight Time),147229.89999997616,020_y_f_n_a.png,O,m,1440,2,1,2304.5,144925.39999997616,7094,VNB,B,1
2,prac,2,0.0,1-Back,1,m,Wed Mar 26 2025 09:56:43 GMT-0500 (Central Daylight Time),149114.39999997616,007_m_m_h_a.png,O,m,1005,3,1,1875.3999999761581,147239.0,7094,VNB,B,2
3,prac,2,0.0,1-Back,1,m,Wed Mar 26 2025 09:56:43 GMT-0500 (Central Daylight Time),151047.19999992847,016_y_m_d_a.png,O,m,1152,4,1,1924.5999999046326,149122.60000002384,7094,VNB,B,3
4,prac,2,0.0,1-Back,1,m,Wed Mar 26 2025 09:56:43 GMT-0500 (Central Daylight Time),153229.19999992847,005_o_f_n_a.png,O,m,1297,5,1,2173.0999999046326,151056.10000002384,7094,VNB,B,4
5,prac,2,1.0,1-Back,1,z,Wed Mar 26 2025 09:56:43 GMT-0500 (Central Daylight Time),155262.89999997616,016_y_m_n_a.png,O,z,1154,6,1,2025.1000000238419,153237.79999995232,7094,VNB,B,5
6,prac,2,0.0,1-Back,1,m,Wed Mar 26 2025 09:56:43 GMT-0500 (Central Daylight Time),157044.10000002384,004_o_m_h_a.png,O,m,923,7,1,1771.9000000953674,155272.19999992847,7094,VNB,B,6
7,prac,2,0.0,1-Back,1,m,Wed Mar 26 2025 09:56:43 GMT-0500 (Central Daylight Time),159028.5,011_m_f_d_a.png,O,m,1105,8,1,1974.6000000238419,157053.89999997616,7094,VNB,B,7
8,prac,2,1.0,1-Back,1,z,Wed Mar 26 2025 09:56:43 GMT-0500 (Central Daylight Time),161109.39999997616,020_y_f_d_a.png,O,z,1199,9,1,2071.100000023842,159038.29999995232,7094,VNB,B,8
9,prac,2,0.0,1-Back,1,m,Wed Mar 26 2025 09:56:43 GMT-0500 (Central Daylight Time),162977.5,007_m_m_n_a.png,O,m,979,10,1,1859.3999999761581,161118.10000002384,7094,VNB,B,9
10,prac,2,0.0,1-Back,1,m,Wed Mar 26 2025 09:56:43 GMT-0500 (Central Daylight Time),165042.39999997616,005_o_f_h_a.png,O,m,1206,11,1,2055.7999999523163,162986.60000002384,7094,VNB,B,10
11,prac,2,0.0,1-Back,1,m,Wed Mar 26 2025 09:56:43 GMT-0500 (Central Daylight Time),167207.60000002384,016_y_m_d_a.png,O,m,1277,12,1,2155.600000023842,165052.0,7094,VNB,B,11
0,test,1,0.0,1-Back,,,Wed Mar 26 2025 09:56:43 GMT-0500 (Central Daylight Time),167207.60000002384,020_y_f_d_a.png,O,space,7379,1,1,2155.600000023842,165052.0,7094,VNB,B,0
1,test,1,0.0,1-Back,1,m,Wed Mar 26 2025 09:56:43 GMT-0500 (Central Daylight Time),185070.0,011_m_f_n_a.png,O,m,1124,2,1,2141.8000000715256,182928.19999992847,7094,VNB,B,1
2,test,1,0.0,1-Back,1,m,Wed Mar 26 2025 09:56:43 GMT-0500 (Central Daylight Time),187201.39999997616,004_o_m_h_a.png,O,m,1109,3,1,2123.5,185077.89999997616,7094,VNB,B,2
3,test,1,1.0,1-Back,1,z,Wed Mar 26 2025 09:56:43 GMT-0500 (Central Daylight Time),189600.19999992847,007_m_m_h_a.png,O,z,1366,4,1,2391.5999999046326,187208.60000002384,7094,VNB,B,3
4,test,1,0.0,1-Back,1,m,Wed Mar 26 2025 09:56:43 GMT-0500 (Central Daylight Time),191549.0,005_o_f_n_a.png,O,m,931,5,1,1940.8000000715256,189608.19999992847,7094,VNB,B,4
5,test,1,0.0,1-Back,1,m,Wed Mar 26 2025 09:56:43 GMT-0500 (Central Daylight Time),193733.39999997616,016_y_m_d_a.png,O,m,1165,6,1,2174.899999976158,191558.5,7094,VNB,B,5
6,test,1,1.0,1-Back,1,z,Wed Mar 26 2025 09:56:43 GMT-0500 (Central Daylight Time),196163.89999997616,011_m_f_d_a.png,O,z,1408,7,1,2423.399999976158,193740.5,7094,VNB,B,6
7,test,1,0.0,1-Back,1,m,Wed Mar 26 2025 09:56:43 GMT-0500 (Central Daylight Time),198798.60000002384,020_y_f_h_a.png,O,m,1618,8,1,2630.3000000715256,196168.29999995232,7094,VNB,B,7
8,test,1,0.0,1-Back,1,m,Wed Mar 26 2025 09:56:43 GMT-0500 (Central Daylight Time),200914.10000002384,004_o_m_n_a.png,O,m,1093,9,1,2108.7000000476837,198805.39999997616,7094,VNB,B,8
9,test,1,0.0,1-Back,1,m,Wed Mar 26 2025 09:56:43 GMT-0500 (Central Daylight Time),203780.5,016_y_m_h_a.png,O,m,1849,10,1,2859.8000000715256,200920.69999992847,7094,VNB,B,9
10,test,1,0.0,1-Back,1,m,Wed Mar 26 2025 09:56:43 GMT-0500 (Central Daylight Time),205978.0,004_o_m_d_a.png,O,m,1173,11,1,2189.100000023842,203788.89999997616,7094,VNB,B,10
11,test,1,1.0,1-Back,1,z,Wed Mar 26 2025 09:56:43 GMT-0500 (Central Daylight Time),208194.60000002384,005_o_f_d_a.png,O,z,1194,12,1,2211.0,205983.60000002384,7094,VNB,B,11
12,test,1,0.0,1-Back,1,m,Wed Mar 26 2025 09:56:43 GMT-0500 (Central Daylight Time),210126.10000002384,007_m_m_n_a.png,O,m,912,13,1,1923.9000000953674,208202.19999992847,7094,VNB,B,12
13,test,1,1.0,1-Back,1,z,Wed Mar 26 2025 09:56:43 GMT-0500 (Central Daylight Time),212293.0,020_y_f_n_a.png,O,z,1138,14,1,2160.399999976158,210132.60000002384,7094,VNB,B,13
14,test,1,0.0,1-Back,1,m,Wed Mar 26 2025 09:56:43 GMT-0500 (Central Daylight Time),215159.69999992847,011_m_f_h_a.png,O,m,1837,15,1,2859.2999999523163,212300.39999997616,7094,VNB,B,14
15,test,1,0.0,1-Back,1,m,Wed Mar 26 2025 09:56:43 GMT-0500 (Central Daylight Time),217574.89999997616,007_m_m_d_a.png,O,m,1385,16,1,2406.5,215168.39999997616,7094,VNB,B,15
16,test,1,0.0,1-Back,1,m,Wed Mar 26 2025 09:56:43 GMT-0500 (Central Daylight Time),220006.79999995232,016_y_m_n_a.png,O,m,1412,17,1,2425.399999976158,217581.39999997616,7094,VNB,B,16
17,test,1,0.0,1-Back,1,m,Wed Mar 26 2025 09:56:43 GMT-0500 (Central Daylight Time),222123.60000002384,005_o_f_h_a.png,O,m,1097,18,1,2110.7000000476837,220012.89999997616,7094,VNB,B,17
0,test,2,0.0,1-Back,,,Wed Mar 26 2025 09:56:43 GMT-0500 (Central Daylight Time),222123.60000002384,016_y_m_n_a.png,O,space,1447,1,1,2110.7000000476837,220012.89999997616,7094,VNB,B,0
1,test,2,0.0,1-Back,1,m,Wed Mar 26 2025 09:56:43 GMT-0500 (Central Daylight Time),227821.69999992847,020_y_f_h_a.png,O,m,1187,2,1,2210.6999999284744,225611.0,7094,VNB,B,1
2,test,2,1.0,1-Back,1,m,Wed Mar 26 2025 09:56:43 GMT-0500 (Central Daylight Time),230221.79999995232,004_o_m_n_a.png,O,m,1379,3,1,2391.600000023842,227830.19999992847,7094,VNB,B,2
3,test,2,0.0,1-Back,1,m,Wed Mar 26 2025 09:56:43 GMT-0500 (Central Daylight Time),233069.10000002384,011_m_f_d_a.png,O,m,1819,4,1,2839.3000000715256,230229.79999995232,7094,VNB,B,3
4,test,2,0.0,1-Back,1,z,Wed Mar 26 2025 09:56:43 GMT-0500 (Central Daylight Time),235236.69999992847,007_m_m_d_a.png,O,z,1149,5,1,2162.399999976158,233074.29999995232,7094,VNB,B,4
5,test,2,0.0,1-Back,1,m,Wed Mar 26 2025 09:56:43 GMT-0500 (Central Daylight Time),237151.5,016_y_m_h_a.png,O,m,892,6,1,1909.5,235242.0,7094,VNB,B,5
5,test,2,1.0,1-Back,0,z,Wed Mar 26 2025 09:56:43 GMT-0500 (Central Daylight Time),240186.10000002384,005_o_f_h_a.png,O,None,2016,7,1,3027.5,237158.60000002384,7094,VNB,B,6
6,test,2,0.0,1-Back,1,m,Wed Mar 26 2025 09:56:43 GMT-0500 (Central Daylight Time),242199.79999995232,011_m_f_n_a.png,O,m,986,8,1,2006.3999999761581,240193.39999997616,7094,VNB,B,7
7,test,2,0.0,1-Back,1,m,Wed Mar 26 2025 09:56:43 GMT-0500 (Central Daylight Time),244684.60000002384,020_y_f_d_a.png,O,m,1466,9,1,2477.5,242207.10000002384,7094,VNB,B,8
8,test,2,0.0,1-Back,1,m,Wed Mar 26 2025 09:56:43 GMT-0500 (Central Daylight Time),246616.19999992847,007_m_m_n_a.png,O,m,911,10,1,1926.0,244690.19999992847,7094,VNB,B,9
9,test,2,1.0,1-Back,1,m,Wed Mar 26 2025 09:56:43 GMT-0500 (Central Daylight Time),248815.39999997616,011_m_f_h_a.png,O,m,1170,11,1,2192.7000000476837,246622.69999992847,7094,VNB,B,10
10,test,2,0.0,1-Back,1,z,Wed Mar 26 2025 09:56:43 GMT-0500 (Central Daylight Time),250947.39999997616,004_o_m_h_a.png,O,z,1099,12,1,2124.899999976158,248822.5,7094,VNB,B,11
11,test,2,0.0,1-Back,1,m,Wed Mar 26 2025 09:56:43 GMT-0500 (Central Daylight Time),253113.79999995232,016_y_m_d_a.png,O,m,1142,13,1,2158.5,250955.29999995232,7094,VNB,B,12
12,test,2,0.0,1-Back,1,m,Wed Mar 26 2025 09:56:43 GMT-0500 (Central Daylight Time),255131.0,005_o_f_n_a.png,O,m,984,14,1,2010.8000000715256,253120.19999992847,7094,VNB,B,13
13,test,2,0.0,1-Back,1,z,Wed Mar 26 2025 09:56:43 GMT-0500 (Central Daylight Time),257362.10000002384,020_y_f_n_a.png,O,z,1207,15,1,2227.7000000476837,255134.39999997616,7094,VNB,B,14
14,test,2,1.0,1-Back,1,m,Wed Mar 26 2025 09:56:43 GMT-0500 (Central Daylight Time),259629.79999995232,007_m_m_h_a.png,O,m,1246,16,1,2261.2999999523163,257368.5,7094,VNB,B,15
14,test,2,0.0,1-Back,0,m,Wed Mar 26 2025 09:56:43 GMT-0500 (Central Daylight Time),262662.5,005_o_f_d_a.png,O,None,2017,17,1,3026.3000000715256,259636.19999992847,7094,VNB,B,16
14,test,2,1.0,1-Back,0,z,Wed Mar 26 2025 09:56:43 GMT-0500 (Central Daylight Time),263860.7999999523,004_o_m_d_a.png,O,m,174,18,1,1195.3999999761581,262665.39999997616,7094,VNB,B,17
0,test,3,1.0,1-Back,,,Wed Mar 26 2025 09:56:43 GMT-0500 (Central Daylight Time),263860.7999999523,005_o_f_h_a.png,O,space,2382,1,1,1195.3999999761581,262665.39999997616,7094,VNB,B,0
1,test,3,0.0,1-Back,1,m,Wed Mar 26 2025 09:56:43 GMT-0500 (Central Daylight Time),271074.0,011_m_f_d_a.png,O,m,1681,2,1,2709.899999976158,268364.10000002384,7094,VNB,B,1
2,test,3,1.0,1-Back,1,m,Wed Mar 26 2025 09:56:43 GMT-0500 (Central Daylight Time),274038.6999999285,007_m_m_n_a.png,O,m,1943,3,1,2955.0999999046326,271083.60000002384,7094,VNB,B,2
3,test,3,0.0,1-Back,1,z,Wed Mar 26 2025 09:56:43 GMT-0500 (Central Daylight Time),276357.0,005_o_f_n_a.png,O,z,1297,4,1,2312.3000000715256,274044.6999999285,7094,VNB,B,3
4,test,3,1.0,1-Back,1,m,Wed Mar 26 2025 09:56:43 GMT-0500 (Central Daylight Time),278305.89999997616,004_o_m_d_a.png,O,m,917,5,1,1941.3999999761581,276364.5,7094,VNB,B,4
5,test,3,0.0,1-Back,1,m,Wed Mar 26 2025 09:56:43 GMT-0500 (Central Daylight Time),280505.7999999523,020_y_f_h_a.png,O,m,1175,6,1,2192.100000023842,278313.6999999285,7094,VNB,B,5
6,test,3,0.0,1-Back,1,z,Wed Mar 26 2025 09:56:43 GMT-0500 (Central Daylight Time),282490.10000002384,016_y_m_h_a.png,O,z,951,7,1,1976.3000000715256,280513.7999999523,7094,VNB,B,6
7,test,3,0.0,1-Back,1,m,Wed Mar 26 2025 09:56:43 GMT-0500 (Central Daylight Time),284738.39999997616,011_m_f_n_a.png,O,m,1218,8,1,2245.600000023842,282492.7999999523,7094,VNB,B,7
8,test,3,0.0,1-Back,1,m,Wed Mar 26 2025 09:56:43 GMT-0500 (Central Daylight Time),286788.1999999285,020_y_f_d_a.png,O,m,1033,9,1,2042.3999999761581,284745.7999999523,7094,VNB,B,8
9,test,3,1.0,1-Back,1,m,Wed Mar 26 2025 09:56:43 GMT-0500 (Central Daylight Time),288853.5,004_o_m_n_a.png,O,m,1050,10,1,2058.0,286795.5,7094,VNB,B,9
10,test,3,0.0,1-Back,1,m,Wed Mar 26 2025 09:56:43 GMT-0500 (Central Daylight Time),290886.60000002384,007_m_m_h_a.png,O,m,1015,11,1,2025.0,288861.60000002384,7094,VNB,B,10
11,test,3,0.0,1-Back,1,z,Wed Mar 26 2025 09:56:43 GMT-0500 (Central Daylight Time),293053.10000002384,011_m_f_h_a.png,O,z,1151,12,1,2159.0,290894.10000002384,7094,VNB,B,11
12,test,3,1.0,1-Back,1,m,Wed Mar 26 2025 09:56:43 GMT-0500 (Central Daylight Time),295266.7999999523,005_o_f_d_a.png,O,m,1191,13,1,2205.5,293061.2999999523,7094,VNB,B,12
13,test,3,0.0,1-Back,1,z,Wed Mar 26 2025 09:56:43 GMT-0500 (Central Daylight Time),297683.0,007_m_m_d_a.png,O,z,1385,14,1,2409.0,295274.0,7094,VNB,B,13
14,test,3,0.0,1-Back,1,m,Wed Mar 26 2025 09:56:43 GMT-0500 (Central Daylight Time),300398.2999999523,016_y_m_n_a.png,O,m,1686,15,1,2709.2999999523163,297689.0,7094,VNB,B,14
14,test,3,1.0,1-Back,0,m,Wed Mar 26 2025 09:56:43 GMT-0500 (Central Daylight Time),302446.60000002384,004_o_m_h_a.png,O,z,1018,16,1,2042.6000000238419,300404.0,7094,VNB,B,15
15,test,3,0.0,1-Back,1,m,Wed Mar 26 2025 09:56:43 GMT-0500 (Central Daylight Time),304397.0,016_y_m_d_a.png,O,m,931,17,1,1947.6000000238419,302449.39999997616,7094,VNB,B,16
16,test,3,1.0,1-Back,1,m,Wed Mar 26 2025 09:56:43 GMT-0500 (Central Daylight Time),306745.7999999523,020_y_f_n_a.png,O,m,1316,18,1,2342.399999976158,304403.39999997616,7094,VNB,B,17
0,test,4,1.0,1-Back,,,Wed Mar 26 2025 09:56:43 GMT-0500 (Central Daylight Time),306745.7999999523,007_m_m_d_a.png,O,space,1104,1,1,2342.399999976158,304403.39999997616,7094,VNB,B,0
1,test,4,0.0,1-Back,1,z,Wed Mar 26 2025 09:56:43 GMT-0500 (Central Daylight Time),311994.6999999285,004_o_m_d_a.png,O,z,1091,2,1,2110.5,309884.1999999285,7094,VNB,B,1
2,test,4,0.0,1-Back,1,m,Wed Mar 26 2025 09:56:43 GMT-0500 (Central Daylight Time),314045.7999999523,016_y_m_h_a.png,O,m,1033,3,1,2044.0,312001.7999999523,7094,VNB,B,2
3,test,4,0.0,1-Back,1,m,Wed Mar 26 2025 09:56:43 GMT-0500 (Central Daylight Time),316176.1999999285,011_m_f_n_a.png,O,m,1109,4,1,2125.0999999046326,314051.10000002384,7094,VNB,B,3
4,test,4,1.0,1-Back,1,m,Wed Mar 26 2025 09:56:43 GMT-0500 (Central Daylight Time),318043.60000002384,005_o_f_h_a.png,O,m,835,5,1,1861.8000000715256,316181.7999999523,7094,VNB,B,4
5,test,4,0.0,1-Back,1,m,Wed Mar 26 2025 09:56:43 GMT-0500 (Central Daylight Time),320576.0,007_m_m_n_a.png,O,m,1511,6,1,2525.5,318050.5,7094,VNB,B,5
6,test,4,0.0,1-Back,1,m,Wed Mar 26 2025 09:56:43 GMT-0500 (Central Daylight Time),322607.60000002384,016_y_m_d_a.png,O,m,1012,7,1,2025.3000000715256,320582.2999999523,7094,VNB,B,6
7,test,4,1.0,1-Back,1,z,Wed Mar 26 2025 09:56:43 GMT-0500 (Central Daylight Time),324840.6999999285,020_y_f_d_a.png,O,z,1210,8,1,2226.5999999046326,322614.10000002384,7094,VNB,B,7
8,test,4,0.0,1-Back,1,m,Wed Mar 26 2025 09:56:43 GMT-0500 (Central Daylight Time),327541.5,011_m_f_h_a.png,O,m,1683,9,1,2695.0,324846.5,7094,VNB,B,8
9,test,4,0.0,1-Back,1,z,Wed Mar 26 2025 09:56:43 GMT-0500 (Central Daylight Time),329572.6999999285,004_o_m_h_a.png,O,z,1005,10,1,2023.0999999046326,327549.60000002384,7094,VNB,B,9
10,test,4,1.0,1-Back,1,m,Wed Mar 26 2025 09:56:43 GMT-0500 (Central Daylight Time),331590.1999999285,005_o_f_n_a.png,O,m,990,11,1,2009.8999999761581,329580.2999999523,7094,VNB,B,10
11,test,4,0.0,1-Back,1,m,Wed Mar 26 2025 09:56:43 GMT-0500 (Central Daylight Time),333937.89999997616,011_m_f_d_a.png,O,m,1326,12,1,2340.399999976158,331597.5,7094,VNB,B,11
12,test,4,0.0,1-Back,1,m,Wed Mar 26 2025 09:56:43 GMT-0500 (Central Daylight Time),336153.6999999285,020_y_f_n_a.png,O,m,1191,13,1,2208.7999999523163,333944.89999997616,7094,VNB,B,12
13,test,4,0.0,1-Back,1,m,Wed Mar 26 2025 09:56:43 GMT-0500 (Central Daylight Time),338219.60000002384,005_o_f_d_a.png,O,m,1039,14,1,2059.100000023842,336160.5,7094,VNB,B,13
14,test,4,0.0,1-Back,1,m,Wed Mar 26 2025 09:56:43 GMT-0500 (Central Daylight Time),340419.2999999523,020_y_f_h_a.png,O,m,1166,15,1,2192.5,338226.7999999523,7094,VNB,B,14
15,test,4,1.0,1-Back,1,z,Wed Mar 26 2025 09:56:43 GMT-0500 (Central Daylight Time),342436.7999999523,007_m_m_h_a.png,O,z,991,16,1,2010.2999999523163,340426.5,7094,VNB,B,15
16,test,4,0.0,1-Back,1,m,Wed Mar 26 2025 09:56:43 GMT-0500 (Central Daylight Time),344333.7999999523,004_o_m_n_a.png,O,m,878,17,1,1890.1999999284744,342443.60000002384,7094,VNB,B,16
17,test,4,1.0,1-Back,1,z,Wed Mar 26 2025 09:56:43 GMT-0500 (Central Daylight Time),346516.89999997616,016_y_m_n_a.png,O,z,1154,18,1,2175.2000000476837,344341.6999999285,7094,VNB,B,17
0,test,5,1.0,1-Back,,,Wed Mar 26 2025 09:56:43 GMT-0500 (Central Daylight Time),346516.89999997616,004_o_m_n_a.png,O,space,1101,1,1,2175.2000000476837,344341.6999999285,7094,VNB,B,0
1,test,5,1.0,1-Back,1,m,Wed Mar 26 2025 09:56:43 GMT-0500 (Central Daylight Time),351766.7999999523,005_o_f_h_a.png,O,m,1097,2,1,2107.899999976158,349658.89999997616,7094,VNB,B,1
2,test,5,0.0,1-Back,1,m,Wed Mar 26 2025 09:56:43 GMT-0500 (Central Daylight Time),353816.0,016_y_m_d_a.png,O,m,1020,3,1,2042.0,351774.0,7094,VNB,B,2
3,test,5,0.0,1-Back,1,z,Wed Mar 26 2025 09:56:43 GMT-0500 (Central Daylight Time),356049.60000002384,004_o_m_d_a.png,O,z,1203,4,1,2226.5,353823.10000002384,7094,VNB,B,3
4,test,5,0.0,1-Back,1,m,Wed Mar 26 2025 09:56:43 GMT-0500 (Central Daylight Time),357914.5,011_m_f_h_a.png,O,m,842,5,1,1858.1000000238419,356056.39999997616,7094,VNB,B,4
5,test,5,0.0,1-Back,1,m,Wed Mar 26 2025 09:56:43 GMT-0500 (Central Daylight Time),359948.2999999523,020_y_f_n_a.png,O,m,1007,6,1,2025.5,357922.7999999523,7094,VNB,B,5
5,test,5,1.0,1-Back,0,z,Wed Mar 26 2025 09:56:43 GMT-0500 (Central Daylight Time),362346.10000002384,005_o_f_n_a.png,O,m,1366,7,1,2390.4000000953674,359955.6999999285,7094,VNB,B,6
5,test,5,0.0,1-Back,0,m,Wed Mar 26 2025 09:56:43 GMT-0500 (Central Daylight Time),363545.39999997616,011_m_f_d_a.png,O,z,178,8,1,1191.8999999761581,362353.5,7094,VNB,B,7
6,test,5,0.0,1-Back,1,m,Wed Mar 26 2025 09:56:43 GMT-0500 (Central Daylight Time),365745.2999999523,016_y_m_h_a.png,O,m,1176,9,1,2190.899999976158,363554.39999997616,7094,VNB,B,8
7,test,5,0.0,1-Back,1,m,Wed Mar 26 2025 09:56:43 GMT-0500 (Central Daylight Time),368528.7999999523,020_y_f_d_a.png,O,m,1753,10,1,2774.7999999523163,365754.0,7094,VNB,B,9
8,test,5,0.0,1-Back,1,m,Wed Mar 26 2025 09:56:43 GMT-0500 (Central Daylight Time),370859.7999999523,007_m_m_n_a.png,O,m,1309,11,1,2322.6999999284744,368537.10000002384,7094,VNB,B,10
9,test,5,1.0,1-Back,1,z,Wed Mar 26 2025 09:56:43 GMT-0500 (Central Daylight Time),373043.0,011_m_f_n_a.png,O,z,1150,12,1,2174.100000023842,370868.89999997616,7094,VNB,B,11
10,test,5,0.0,1-Back,1,m,Wed Mar 26 2025 09:56:43 GMT-0500 (Central Daylight Time),375660.2999999523,004_o_m_h_a.png,O,m,1600,13,1,2609.600000023842,373050.6999999285,7094,VNB,B,12
10,test,5,0.0,1-Back,0,z,Wed Mar 26 2025 09:56:43 GMT-0500 (Central Daylight Time),377773.0,007_m_m_h_a.png,O,m,1093,14,1,2106.8000000715256,375666.1999999285,7094,VNB,B,13
11,test,5,1.0,1-Back,1,m,Wed Mar 26 2025 09:56:43 GMT-0500 (Central Daylight Time),379740.1999999285,005_o_f_d_a.png,O,m,948,15,1,1960.0,377780.1999999285,7094,VNB,B,14
12,test,5,0.0,1-Back,1,m,Wed Mar 26 2025 09:56:43 GMT-0500 (Central Daylight Time),381824.0,016_y_m_n_a.png,O,m,1062,16,1,2076.0,379748.0,7094,VNB,B,15
13,test,5,0.0,1-Back,1,m,Wed Mar 26 2025 09:56:43 GMT-0500 (Central Daylight Time),383805.60000002384,020_y_f_h_a.png,O,m,956,17,1,1974.1000000238419,381831.5,7094,VNB,B,16
13,test,5,0.0,1-Back,0,m,Wed Mar 26 2025 09:56:43 GMT-0500 (Central Daylight Time),386837.89999997616,007_m_m_d_a.png,O,None,2016,18,1,3025.0,383812.89999997616,7094,VNB,B,17
0,prac,1,0.0,2-Back,,,Wed Mar 26 2025 09:56:43 GMT-0500 (Central Daylight Time),386837.89999997616,011_m_f_n_a.png,O,space,2462,1,1,3025.0,383812.89999997616,7094,VNB,B,0
0,prac,1,0.0,2-Back,,,Wed Mar 26 2025 09:56:43 GMT-0500 (Central Daylight Time),386837.89999997616,005_o_f_h_a.png,O,space,2462,2,1,3025.0,383812.89999997616,7094,VNB,B,0
1,prac,1,0.0,2-Back,1,m,Wed Mar 26 2025 09:56:43 GMT-0500 (Central Daylight Time),470030.0,004_o_m_d_a.png,O,m,1484,3,1,2341.8000000715256,467688.1999999285,7094,VNB,B,1
2,prac,1,1.0,2-Back,1,z,Wed Mar 26 2025 09:56:43 GMT-0500 (Central Daylight Time),471893.5,007_m_m_h_a.png,O,z,950,4,1,1857.3000000715256,470036.1999999285,7094,VNB,B,2
3,prac,1,0.0,2-Back,1,m,Wed Mar 26 2025 09:56:43 GMT-0500 (Central Daylight Time),474328.1999999285,020_y_f_n_a.png,O,m,1560,5,1,2425.6999999284744,471902.5,7094,VNB,B,3
4,prac,1,1.0,2-Back,1,z,Wed Mar 26 2025 09:56:43 GMT-0500 (Central Daylight Time),476843.1999999285,004_o_m_h_a.png,O,z,1648,6,1,2507.1999999284744,474336.0,7094,VNB,B,4
4,prac,1,1.0,2-Back,0,z,Wed Mar 26 2025 09:56:43 GMT-0500 (Central Daylight Time),479724.6999999285,016_y_m_n_a.png,O,None,2004,7,1,2874.399999976158,476850.2999999523,7094,VNB,B,5
5,prac,1,0.0,2-Back,1,m,Wed Mar 26 2025 09:56:43 GMT-0500 (Central Daylight Time),481858.1999999285,011_m_f_d_a.png,O,m,1261,8,1,2125.0999999046326,479733.10000002384,7094,VNB,B,6
5,prac,1,0.0,2-Back,0,m,Wed Mar 26 2025 09:56:43 GMT-0500 (Central Daylight Time),484157.89999997616,005_o_f_d_a.png,O,z,1415,9,1,2293.0,481864.89999997616,7094,VNB,B,7
6,prac,1,0.0,2-Back,1,m,Wed Mar 26 2025 09:56:43 GMT-0500 (Central Daylight Time),486407.10000002384,007_m_m_h_a.png,O,m,1461,10,1,2241.2000000476837,484165.89999997616,7094,VNB,B,8
6,prac,1,1.0,2-Back,0,z,Wed Mar 26 2025 09:56:43 GMT-0500 (Central Daylight Time),488655.89999997616,020_y_f_d_a.png,O,m,1380,11,1,2239.899999976158,486416.0,7094,VNB,B,9
6,prac,1,0.0,2-Back,0,m,Wed Mar 26 2025 09:56:43 GMT-0500 (Central Daylight Time),491523.89999997616,004_o_m_n_a.png,O,None,2011,12,1,2859.7999999523163,488664.10000002384,7094,VNB,B,10
0,prac,2,0.0,2-Back,,,Wed Mar 26 2025 09:56:43 GMT-0500 (Central Daylight Time),491523.89999997616,011_m_f_n_a.png,O,a,7072,1,1,2859.7999999523163,488664.10000002384,7094,VNB,B,0
0,prac,2,0.0,2-Back,,,Wed Mar 26 2025 09:56:43 GMT-0500 (Central Daylight Time),491523.89999997616,005_o_f_h_a.png,O,a,7072,2,1,2859.7999999523163,488664.10000002384,7094,VNB,B,0
1,prac,2,0.0,2-Back,1,m,Wed Mar 26 2025 09:56:43 GMT-0500 (Central Daylight Time),506134.1999999285,004_o_m_d_a.png,O,m,1414,3,1,2257.5999999046326,503876.60000002384,7094,VNB,B,1
2,prac,2,1.0,2-Back,1,z,Wed Mar 26 2025 09:56:43 GMT-0500 (Central Daylight Time),507899.1999999285,007_m_m_h_a.png,O,z,979,4,1,1755.5,506143.6999999285,7094,VNB,B,2
3,prac,2,0.0,2-Back,1,m,Wed Mar 26 2025 09:56:43 GMT-0500 (Central Daylight Time),510149.89999997616,020_y_f_n_a.png,O,m,1379,5,1,2242.2000000476837,507907.6999999285,7094,VNB,B,3
4,prac,2,1.0,2-Back,1,z,Wed Mar 26 2025 09:56:43 GMT-0500 (Central Daylight Time),511916.6999999285,004_o_m_h_a.png,O,z,900,6,1,1757.2999999523163,510159.39999997616,7094,VNB,B,4
4,prac,2,1.0,2-Back,0,z,Wed Mar 26 2025 09:56:43 GMT-0500 (Central Daylight Time),513997.1999999285,016_y_m_n_a.png,O,m,1198,7,1,2072.0999999046326,511925.10000002384,7094,VNB,B,5
5,prac,2,0.0,2-Back,1,m,Wed Mar 26 2025 09:56:43 GMT-0500 (Central Daylight Time),516413.6999999285,011_m_f_d_a.png,O,m,1525,8,1,2408.7999999523163,514004.89999997616,7094,VNB,B,6
6,prac,2,0.0,2-Back,1,m,Wed Mar 26 2025 09:56:43 GMT-0500 (Central Daylight Time),519080.5,005_o_f_d_a.png,O,m,1788,9,1,2657.2000000476837,516423.2999999523,7094,VNB,B,7
7,prac,2,0.0,2-Back,1,m,Wed Mar 26 2025 09:56:43 GMT-0500 (Central Daylight Time),520977.89999997616,007_m_m_h_a.png,O,m,1124,10,1,1889.8999999761581,519088.0,7094,VNB,B,8
8,prac,2,1.0,2-Back,1,z,Wed Mar 26 2025 09:56:43 GMT-0500 (Central Daylight Time),523078.1999999285,020_y_f_d_a.png,O,z,1218,11,1,2092.0999999046326,520986.10000002384,7094,VNB,B,9
9,prac,2,0.0,2-Back,1,m,Wed Mar 26 2025 09:56:43 GMT-0500 (Central Daylight Time),525245.1999999285,004_o_m_n_a.png,O,m,1323,12,1,2157.0,523088.1999999285,7094,VNB,B,10
0,test,1,0.0,2-Back,,,Wed Mar 26 2025 09:56:43 GMT-0500 (Central Daylight Time),525245.1999999285,016_y_m_h_a.png,O,space,4191,1,1,2157.0,523088.1999999285,7094,VNB,B,0
0,test,1,0.0,2-Back,,,Wed Mar 26 2025 09:56:43 GMT-0500 (Central Daylight Time),525245.1999999285,005_o_f_n_a.png,O,space,4191,2,1,2157.0,523088.1999999285,7094,VNB,B,0
1,test,1,0.0,2-Back,1,z,Wed Mar 26 2025 09:56:43 GMT-0500 (Central Daylight Time),545953.1000000238,004_o_m_h_a.png,O,z,1443,3,1,2456.7000000476837,543496.3999999762,7094,VNB,B,1
2,test,1,0.0,2-Back,1,m,Wed Mar 26 2025 09:56:43 GMT-0500 (Central Daylight Time),548372.0,011_m_f_d_a.png,O,m,1386,4,1,2413.100000023842,545958.8999999762,7094,VNB,B,2
3,test,1,1.0,2-Back,1,m,Wed Mar 26 2025 09:56:43 GMT-0500 (Central Daylight Time),550686.0,016_y_m_n_a.png,O,m,1288,5,1,2307.5,548378.5,7094,VNB,B,3
4,test,1,0.0,2-Back,1,z,Wed Mar 26 2025 09:56:43 GMT-0500 (Central Daylight Time),553585.1999999285,020_y_f_d_a.png,O,z,1875,6,1,2892.0999999046326,550693.1000000238,7094,VNB,B,4
5,test,1,0.0,2-Back,1,m,Wed Mar 26 2025 09:56:43 GMT-0500 (Central Daylight Time),556018.1000000238,007_m_m_h_a.png,O,m,1402,7,1,2426.7000000476837,553591.3999999762,7094,VNB,B,5
5,test,1,1.0,2-Back,0,m,Wed Mar 26 2025 09:56:43 GMT-0500 (Central Daylight Time),559051.1000000238,020_y_f_n_a.png,O,None,2017,8,1,3026.600000023842,556024.5,7094,VNB,B,6
6,test,1,0.0,2-Back,1,z,Wed Mar 26 2025 09:56:43 GMT-0500 (Central Daylight Time),561182.6999999285,005_o_f_h_a.png,O,z,1104,9,1,2123.399999976158,559059.2999999523,7094,VNB,B,7
7,test,1,0.0,2-Back,1,m,Wed Mar 26 2025 09:56:43 GMT-0500 (Central Daylight Time),563465.0,004_o_m_d_a.png,O,m,1251,10,1,2275.399999976158,561189.6000000238,7094,VNB,B,8
8,test,1,1.0,2-Back,1,m,Wed Mar 26 2025 09:56:43 GMT-0500 (Central Daylight Time),566278.5,007_m_m_d_a.png,O,m,1781,11,1,2807.7000000476837,563470.7999999523,7094,VNB,B,9
8,test,1,0.0,2-Back,0,m,Wed Mar 26 2025 09:56:43 GMT-0500 (Central Daylight Time),569312.6000000238,011_m_f_n_a.png,O,None,2014,12,1,3031.4000000953674,566281.1999999285,7094,VNB,B,10
9,test,1,0.0,2-Back,1,m,Wed Mar 26 2025 09:56:43 GMT-0500 (Central Daylight Time),571812.5,020_y_f_h_a.png,O,m,1472,13,1,2490.399999976158,569322.1000000238,7094,VNB,B,11
10,test,1,0.0,2-Back,1,z,Wed Mar 26 2025 09:56:43 GMT-0500 (Central Daylight Time),574328.1000000238,007_m_m_n_a.png,O,z,1484,14,1,2508.8000000715256,571819.2999999523,7094,VNB,B,12
11,test,1,0.0,2-Back,1,m,Wed Mar 26 2025 09:56:43 GMT-0500 (Central Daylight Time),577311.6999999285,016_y_m_d_a.png,O,m,1962,15,1,2976.2999999523163,574335.3999999762,7094,VNB,B,13
11,test,1,1.0,2-Back,0,m,Wed Mar 26 2025 09:56:43 GMT-0500 (Central Daylight Time),580343.1999999285,011_m_f_h_a.png,O,None,2015,16,1,3025.1999999284744,577318.0,7094,VNB,B,14
12,test,1,0.0,2-Back,1,z,Wed Mar 26 2025 09:56:43 GMT-0500 (Central Daylight Time),582809.6000000238,005_o_f_d_a.png,O,z,1442,17,1,2457.9000000953674,580351.6999999285,7094,VNB,B,15
13,test,1,0.0,2-Back,1,m,Wed Mar 26 2025 09:56:43 GMT-0500 (Central Daylight Time),585510.7999999523,004_o_m_n_a.png,O,m,1682,18,1,2693.6999999284744,582817.1000000238,7094,VNB,B,16
0,test,2,0.0,2-Back,,,Wed Mar 26 2025 09:56:43 GMT-0500 (Central Daylight Time),585510.7999999523,007_m_m_h_a.png,O,space,1479,1,1,2693.6999999284744,582817.1000000238,7094,VNB,B,0
0,test,2,0.0,2-Back,,,Wed Mar 26 2025 09:56:43 GMT-0500 (Central Daylight Time),585510.7999999523,020_y_f_n_a.png,O,space,1479,2,1,2693.6999999284744,582817.1000000238,7094,VNB,B,0
1,test,2,1.0,2-Back,1,z,Wed Mar 26 2025 09:56:43 GMT-0500 (Central Daylight Time),594172.8999999762,005_o_f_h_a.png,O,z,949,3,1,1958.6000000238419,592214.2999999523,7094,VNB,B,1
2,test,2,0.0,2-Back,1,m,Wed Mar 26 2025 09:56:43 GMT-0500 (Central Daylight Time),596470.5,004_o_m_d_a.png,O,m,1277,4,1,2293.100000023842,594177.3999999762,7094,VNB,B,2
3,test,2,0.0,2-Back,1,m,Wed Mar 26 2025 09:56:43 GMT-0500 (Central Daylight Time),599004.5,011_m_f_d_a.png,O,m,1516,5,1,2528.7000000476837,596475.7999999523,7094,VNB,B,3
3,test,2,0.0,2-Back,0,m,Wed Mar 26 2025 09:56:43 GMT-0500 (Central Daylight Time),602038.3999999762,016_y_m_h_a.png,O,None,2016,6,1,3028.7999999523163,599009.6000000238,7094,VNB,B,4
4,test,2,0.0,2-Back,1,m,Wed Mar 26 2025 09:56:43 GMT-0500 (Central Daylight Time),604869.5,005_o_f_n_a.png,O,m,1804,7,1,2825.0,602044.5,7094,VNB,B,5
5,test,2,1.0,2-Back,1,z,Wed Mar 26 2025 09:56:43 GMT-0500 (Central Daylight Time),606968.6999999285,004_o_m_h_a.png,O,z,1068,8,1,2092.0,604876.6999999285,7094,VNB,B,6
6,test,2,0.0,2-Back,1,m,Wed Mar 26 2025 09:56:43 GMT-0500 (Central Daylight Time),609166.5,020_y_f_d_a.png,O,m,1177,9,1,2189.899999976158,606976.6000000238,7094,VNB,B,7
7,test,2,0.0,2-Back,1,m,Wed Mar 26 2025 09:56:43 GMT-0500 (Central Daylight Time),612133.6000000238,016_y_m_d_a.png,O,m,1939,10,1,2959.2000000476837,609174.3999999762,7094,VNB,B,8
8,test,2,0.0,2-Back,1,m,Wed Mar 26 2025 09:56:43 GMT-0500 (Central Daylight Time),614732.2999999523,007_m_m_n_a.png,O,m,1572,11,1,2593.100000023842,612139.1999999285,7094,VNB,B,9
9,test,2,0.0,2-Back,1,m,Wed Mar 26 2025 09:56:43 GMT-0500 (Central Daylight Time),617247.6000000238,011_m_f_h_a.png,O,m,1484,12,1,2509.3000000715256,614738.2999999523,7094,VNB,B,10
10,test,2,1.0,2-Back,1,z,Wed Mar 26 2025 09:56:43 GMT-0500 (Central Daylight Time),619398.7999999523,004_o_m_n_a.png,O,z,1115,13,1,2145.0,617253.7999999523,7094,VNB,B,11
10,test,2,0.0,2-Back,0,m,Wed Mar 26 2025 09:56:43 GMT-0500 (Central Daylight Time),622429.6000000238,005_o_f_d_a.png,O,None,2014,14,1,3023.8000000715256,619405.7999999523,7094,VNB,B,12
10,test,2,0.0,2-Back,0,m,Wed Mar 26 2025 09:56:43 GMT-0500 (Central Daylight Time),625462.1000000238,020_y_f_h_a.png,O,None,2014,15,1,3025.600000023842,622436.5,7094,VNB,B,13
10,test,2,0.0,2-Back,0,z,Wed Mar 26 2025 09:56:43 GMT-0500 (Central Daylight Time),628494.3999999762,007_m_m_d_a.png,O,None,2015,16,1,3024.7999999523163,625469.6000000238,7094,VNB,B,14
10,test,2,0.0,2-Back,0,m,Wed Mar 26 2025 09:56:43 GMT-0500 (Central Daylight Time),631512.1000000238,016_y_m_n_a.png,O,None,2001,17,1,3010.100000023842,628502.0,7094,VNB,B,15
10,test,2,1.0,2-Back,0,m,Wed Mar 26 2025 09:56:43 GMT-0500 (Central Daylight Time),634542.7999999523,011_m_f_n_a.png,O,None,2015,18,1,3027.7999999523163,631515.0,7094,VNB,B,16
0,test,3,1.0,2-Back,,,Wed Mar 26 2025 09:56:43 GMT-0500 (Central Daylight Time),634542.7999999523,004_o_m_n_a.png,O,space,1197,1,1,3027.7999999523163,631515.0,7094,VNB,B,0
0,test,3,1.0,2-Back,,,Wed Mar 26 2025 09:56:43 GMT-0500 (Central Daylight Time),634542.7999999523,005_o_f_d_a.png,O,space,1197,2,1,3027.7999999523163,631515.0,7094,VNB,B,0
1,test,3,0.0,2-Back,1,m,Wed Mar 26 2025 09:56:43 GMT-0500 (Central Daylight Time),643073.3999999762,020_y_f_h_a.png,O,m,1260,3,1,2275.7000000476837,640797.6999999285,7094,VNB,B,1
2,test,3,0.0,2-Back,1,z,Wed Mar 26 2025 09:56:43 GMT-0500 (Central Daylight Time),645422.7999999523,011_m_f_d_a.png,O,z,1320,4,1,2343.1999999284744,643079.6000000238,7094,VNB,B,2
3,test,3,1.0,2-Back,1,m,Wed Mar 26 2025 09:56:43 GMT-0500 (Central Daylight Time),647539.0,016_y_m_n_a.png,O,m,1091,5,1,2108.7000000476837,645430.2999999523,7094,VNB,B,3
4,test,3,0.0,2-Back,1,m,Wed Mar 26 2025 09:56:43 GMT-0500 (Central Daylight Time),649921.8999999762,004_o_m_h_a.png,O,m,1351,6,1,2375.0,647546.8999999762,7094,VNB,B,4
5,test,3,0.0,2-Back,1,z,Wed Mar 26 2025 09:56:43 GMT-0500 (Central Daylight Time),652404.6000000238,020_y_f_n_a.png,O,z,1466,7,1,2475.7000000476837,649928.8999999762,7094,VNB,B,5
6,test,3,1.0,2-Back,1,m,Wed Mar 26 2025 09:56:43 GMT-0500 (Central Daylight Time),654586.8999999762,007_m_m_d_a.png,O,m,1149,8,1,2175.5,652411.3999999762,7094,VNB,B,6
7,test,3,0.0,2-Back,1,m,Wed Mar 26 2025 09:56:43 GMT-0500 (Central Daylight Time),657053.1999999285,016_y_m_d_a.png,O,m,1439,9,1,2459.899999976158,654593.2999999523,7094,VNB,B,7
8,test,3,0.0,2-Back,1,m,Wed Mar 26 2025 09:56:43 GMT-0500 (Central Daylight Time),659934.7999999523,005_o_f_h_a.png,O,m,1850,10,1,2875.0,657059.7999999523,7094,VNB,B,8
9,test,3,1.0,2-Back,1,m,Wed Mar 26 2025 09:56:43 GMT-0500 (Central Daylight Time),662333.6000000238,011_m_f_n_a.png,O,m,1371,11,1,2392.0,659941.6000000238,7094,VNB,B,9
10,test,3,1.0,2-Back,1,z,Wed Mar 26 2025 09:56:43 GMT-0500 (Central Daylight Time),664534.0,007_m_m_h_a.png,O,z,1184,12,1,2192.600000023842,662341.3999999762,7094,VNB,B,10
11,test,3,0.0,2-Back,1,m,Wed Mar 26 2025 09:56:43 GMT-0500 (Central Daylight Time),666782.3999999762,020_y_f_d_a.png,O,m,1214,13,1,2243.100000023842,664539.2999999523,7094,VNB,B,11
12,test,3,0.0,2-Back,1,m,Wed Mar 26 2025 09:56:43 GMT-0500 (Central Daylight Time),669033.0,005_o_f_n_a.png,O,m,1219,14,1,2245.3000000715256,666787.6999999285,7094,VNB,B,12
13,test,3,0.0,2-Back,1,z,Wed Mar 26 2025 09:56:43 GMT-0500 (Central Daylight Time),671280.6999999285,004_o_m_d_a.png,O,z,1226,15,1,2243.0,669037.6999999285,7094,VNB,B,13
14,test,3,1.0,2-Back,1,m,Wed Mar 26 2025 09:56:43 GMT-0500 (Central Daylight Time),673546.8999999762,011_m_f_h_a.png,O,m,1241,16,1,2260.0,671286.8999999762,7094,VNB,B,14
15,test,3,0.0,2-Back,1,m,Wed Mar 26 2025 09:56:43 GMT-0500 (Central Daylight Time),675713.2999999523,007_m_m_n_a.png,O,m,1135,17,1,2159.5,673553.7999999523,7094,VNB,B,15
16,test,3,0.0,2-Back,1,z,Wed Mar 26 2025 09:56:43 GMT-0500 (Central Daylight Time),678061.7999999523,016_y_m_h_a.png,O,z,1331,18,1,2342.1999999284744,675719.6000000238,7094,VNB,B,16
0,test,4,0.0,2-Back,,,Wed Mar 26 2025 09:56:43 GMT-0500 (Central Daylight Time),678061.7999999523,011_m_f_n_a.png,O,space,1148,1,1,2342.1999999284744,675719.6000000238,7094,VNB,B,0
0,test,4,0.0,2-Back,,,Wed Mar 26 2025 09:56:43 GMT-0500 (Central Daylight Time),678061.7999999523,004_o_m_n_a.png,O,space,1148,2,1,2342.1999999284744,675719.6000000238,7094,VNB,B,0
1,test,4,1.0,2-Back,1,m,Wed Mar 26 2025 09:56:43 GMT-0500 (Central Daylight Time),686725.1000000238,016_y_m_h_a.png,O,m,1278,3,1,2290.7000000476837,684434.3999999762,7094,VNB,B,1
2,test,4,1.0,2-Back,1,m,Wed Mar 26 2025 09:56:43 GMT-0500 (Central Daylight Time),689242.6000000238,005_o_f_d_a.png,O,m,1485,4,1,2513.4000000953674,686729.1999999285,7094,VNB,B,2
3,test,4,0.0,2-Back,1,z,Wed Mar 26 2025 09:56:43 GMT-0500 (Central Daylight Time),691291.3999999762,004_o_m_h_a.png,O,z,1023,5,1,2041.6000000238419,689249.7999999523,7094,VNB,B,3
4,test,4,0.0,2-Back,1,m,Wed Mar 26 2025 09:56:43 GMT-0500 (Central Daylight Time),693457.1000000238,007_m_m_n_a.png,O,m,1142,6,1,2158.7000000476837,691298.3999999762,7094,VNB,B,4
5,test,4,0.0,2-Back,1,m,Wed Mar 26 2025 09:56:43 GMT-0500 (Central Daylight Time),695706.1000000238,011_m_f_d_a.png,O,m,1226,7,1,2242.100000023842,693464.0,7094,VNB,B,5
6,test,4,0.0,2-Back,1,z,Wed Mar 26 2025 09:56:43 GMT-0500 (Central Daylight Time),698157.6999999285,020_y_f_n_a.png,O,z,1433,8,1,2445.0,695712.6999999285,7094,VNB,B,6
7,test,4,1.0,2-Back,1,m,Wed Mar 26 2025 09:56:43 GMT-0500 (Central Daylight Time),700821.5,005_o_f_h_a.png,O,m,1638,9,1,2656.7000000476837,698164.7999999523,7094,VNB,B,7
8,test,4,0.0,2-Back,1,m,Wed Mar 26 2025 09:56:43 GMT-0500 (Central Daylight Time),703788.3999999762,007_m_m_h_a.png,O,m,1949,10,1,2959.899999976158,700828.5,7094,VNB,B,8
8,test,4,0.0,2-Back,0,m,Wed Mar 26 2025 09:56:43 GMT-0500 (Central Daylight Time),706820.1000000238,020_y_f_d_a.png,O,None,2015,11,1,3023.4000000953674,703796.6999999285,7094,VNB,B,9
9,test,4,0.0,2-Back,1,m,Wed Mar 26 2025 09:56:43 GMT-0500 (Central Daylight Time),708987.7999999523,016_y_m_n_a.png,O,m,1151,12,1,2161.0,706826.7999999523,7094,VNB,B,10
10,test,4,0.0,2-Back,1,z,Wed Mar 26 2025 09:56:43 GMT-0500 (Central Daylight Time),711702.0,004_o_m_d_a.png,O,z,1687,13,1,2708.7000000476837,708993.2999999523,7094,VNB,B,11
11,test,4,1.0,2-Back,1,m,Wed Mar 26 2025 09:56:43 GMT-0500 (Central Daylight Time),714236.6999999285,011_m_f_h_a.png,O,m,1518,14,1,2528.0999999046326,711708.6000000238,7094,VNB,B,12
12,test,4,1.0,2-Back,1,m,Wed Mar 26 2025 09:56:43 GMT-0500 (Central Daylight Time),717083.7999999523,020_y_f_h_a.png,O,m,1831,15,1,2838.600000023842,714245.1999999285,7094,VNB,B,13
12,test,4,0.0,2-Back,0,m,Wed Mar 26 2025 09:56:43 GMT-0500 (Central Daylight Time),720115.6000000238,005_o_f_n_a.png,O,None,2014,16,1,3026.0,717089.6000000238,7094,VNB,B,14
12,test,4,0.0,2-Back,0,m,Wed Mar 26 2025 09:56:43 GMT-0500 (Central Daylight Time),723148.3999999762,016_y_m_d_a.png,O,None,2014,17,1,3026.7000000476837,720121.6999999285,7094,VNB,B,15
12,test,4,1.0,2-Back,0,m,Wed Mar 26 2025 09:56:43 GMT-0500 (Central Daylight Time),726180.3999999762,007_m_m_d_a.png,O,None,2013,18,1,3026.399999976158,723154.0,7094,VNB,B,16
0,test,5,1.0,2-Back,,,Wed Mar 26 2025 09:56:43 GMT-0500 (Central Daylight Time),726180.3999999762,020_y_f_d_a.png,O,space,1233,1,1,3026.399999976158,723154.0,7094,VNB,B,0
0,test,5,1.0,2-Back,,,Wed Mar 26 2025 09:56:43 GMT-0500 (Central Daylight Time),726180.3999999762,005_o_f_h_a.png,O,space,1233,2,1,3026.399999976158,723154.0,7094,VNB,B,0
1,test,5,1.0,2-Back,1,z,Wed Mar 26 2025 09:56:43 GMT-0500 (Central Daylight Time),734828.2999999523,004_o_m_d_a.png,O,z,1149,3,1,2174.1999999284744,732654.1000000238,7094,VNB,B,1
2,test,5,1.0,2-Back,1,m,Wed Mar 26 2025 09:56:43 GMT-0500 (Central Daylight Time),736727.5,011_m_f_n_a.png,O,m,871,4,1,1892.0,734835.5,7094,VNB,B,2
3,test,5,0.0,2-Back,1,m,Wed Mar 26 2025 09:56:43 GMT-0500 (Central Daylight Time),738826.5,007_m_m_h_a.png,O,m,1082,5,1,2091.5,736735.0,7094,VNB,B,3
4,test,5,0.0,2-Back,1,z,Wed Mar 26 2025 09:56:43 GMT-0500 (Central Daylight Time),741759.3999999762,020_y_f_n_a.png,O,z,1904,6,1,2926.899999976158,738832.5,7094,VNB,B,4
5,test,5,0.0,2-Back,1,m,Wed Mar 26 2025 09:56:43 GMT-0500 (Central Daylight Time),744175.6000000238,005_o_f_d_a.png,O,m,1399,7,1,2408.600000023842,741767.0,7094,VNB,B,5
6,test,5,0.0,2-Back,1,m,Wed Mar 26 2025 09:56:43 GMT-0500 (Central Daylight Time),746340.3999999762,004_o_m_h_a.png,O,m,1140,8,1,2158.100000023842,744182.2999999523,7094,VNB,B,6
6,test,5,1.0,2-Back,0,z,Wed Mar 26 2025 09:56:43 GMT-0500 (Central Daylight Time),749373.1000000238,011_m_f_d_a.png,O,None,2014,9,1,3025.600000023842,746347.5,7094,VNB,B,7
6,test,5,0.0,2-Back,0,m,Wed Mar 26 2025 09:56:43 GMT-0500 (Central Daylight Time),752354.6999999285,016_y_m_n_a.png,O,z,1956,10,1,2973.7999999523163,749380.8999999762,7094,VNB,B,8
6,test,5,0.0,2-Back,0,m,Wed Mar 26 2025 09:56:43 GMT-0500 (Central Daylight Time),755189.3999999762,007_m_m_n_a.png,O,z,1815,11,1,2828.399999976158,752361.0,7094,VNB,B,9
7,test,5,0.0,2-Back,1,m,Wed Mar 26 2025 09:56:43 GMT-0500 (Central Daylight Time),757552.8999999762,020_y_f_h_a.png,O,m,1332,12,1,2357.7000000476837,755195.1999999285,7094,VNB,B,10
7,test,5,0.0,2-Back,0,m,Wed Mar 26 2025 09:56:43 GMT-0500 (Central Daylight Time),760586.1000000238,016_y_m_d_a.png,O,None,2012,13,1,3026.100000023842,757560.0,7094,VNB,B,11
8,test,5,1.0,2-Back,1,z,Wed Mar 26 2025 09:56:43 GMT-0500 (Central Daylight Time),762935.8999999762,011_m_f_h_a.png,O,z,1321,14,1,2340.7000000476837,760595.1999999285,7094,VNB,B,12
9,test,5,0.0,2-Back,1,m,Wed Mar 26 2025 09:56:43 GMT-0500 (Central Daylight Time),765102.1999999285,004_o_m_n_a.png,O,m,1137,15,1,2158.6999999284744,762943.5,7094,VNB,B,13
10,test,5,0.0,2-Back,1,m,Wed Mar 26 2025 09:56:43 GMT-0500 (Central Daylight Time),767550.5,007_m_m_d_a.png,O,m,1420,16,1,2441.100000023842,765109.3999999762,7094,VNB,B,14
11,test,5,0.0,2-Back,1,z,Wed Mar 26 2025 09:56:43 GMT-0500 (Central Daylight Time),769967.3999999762,005_o_f_n_a.png,O,z,1399,17,1,2410.0,767557.3999999762,7094,VNB,B,15
12,test,5,1.0,2-Back,1,m,Wed Mar 26 2025 09:56:43 GMT-0500 (Central Daylight Time),772566.1000000238,016_y_m_h_a.png,O,m,1582,18,1,2591.3000000715256,769974.7999999523,7094,VNB,B,16
