block_c,block_dur,condition,countdown,datetime,endtime,list,multichar_response,project,response,response_time,session_number,start_end,starttime,subject_id,task,task_vers,trial
,,,,Tue Apr 01 2025 16:41:22 GMT-0500 (Central Daylight Time),,,,O,space,2814,1,,,7115,WL,C,
prac,,0,,Tue Apr 01 2025 16:41:22 GMT-0500 (Central Daylight Time),,NA,b,O,b,4883,1,,,7115,WL,C,1.0
prac,,0,,Tue Apr 01 2025 16:41:22 GMT-0500 (Central Daylight Time),,NA,bo,O,o,263,1,,,7115,WL,C,1.0
prac,,0,,Tue Apr 01 2025 16:41:22 GMT-0500 (Central Daylight Time),,NA,boo,O,o,112,1,,,7115,WL,C,1.0
prac,,0,,Tue Apr 01 2025 16:41:22 GMT-0500 (Central Daylight Time),,NA,boos,O,s,18,1,,,7115,WL,C,1.0
prac,,0,,Tue Apr 01 2025 16:41:22 GMT-0500 (Central Daylight Time),,NA,boost,O,t,93,1,,,7115,WL,C,1.0
prac,,0,,Tue Apr 01 2025 16:41:22 GMT-0500 (Central Daylight Time),,NA,boostenter,O,enter,647,1,,,7115,WL,C,1.0
1,1.7160000801086426,learn,58283.99991989136,Tue Apr 01 2025 16:41:22 GMT-0500 (Central Daylight Time),144306.69999998808,A,t,O,t,1674,1,1715.0999999940395,142591.59999999404,7115,WL,C,1.0
1,1.8650000095367432,learn,58134.99999046326,Tue Apr 01 2025 16:41:22 GMT-0500 (Central Daylight Time),144456.0,A,to,O,o,111,1,1864.4000000059605,142591.59999999404,7115,WL,C,1.0
1,2.0160000324249268,learn,57983.99996757507,Tue Apr 01 2025 16:41:22 GMT-0500 (Central Daylight Time),144606.19999998808,A,tow,O,w,124,1,2014.5999999940395,142591.59999999404,7115,WL,C,1.0
1,2.699000120162964,learn,57300.999879837036,Tue Apr 01 2025 16:41:22 GMT-0500 (Central Daylight Time),145289.39999997616,A,towe,O,e,645,1,2697.7999999821186,142591.59999999404,7115,WL,C,1.0
1,2.7990000247955322,learn,57200.99997520447,Tue Apr 01 2025 16:41:22 GMT-0500 (Central Daylight Time),145389.39999997616,A,tower,O,r,72,1,2797.7999999821186,142591.59999999404,7115,WL,C,1.0
1,3.3970000743865967,learn,56602.9999256134,Tue Apr 01 2025 16:41:22 GMT-0500 (Central Daylight Time),145987.89999997616,A,towerenter,O,enter,562,1,3396.2999999821186,142591.59999999404,7115,WL,C,1.0
1,4.015000104904175,learn,55984.999895095825,Tue Apr 01 2025 16:41:22 GMT-0500 (Central Daylight Time),146605.79999998212,A,w,O,w,609,1,617.4000000059605,145988.39999997616,7115,WL,C,2.0
1,4.148000001907349,learn,55851.99999809265,Tue Apr 01 2025 16:41:22 GMT-0500 (Central Daylight Time),146738.5,A,wh,O,h,99,1,750.1000000238419,145988.39999997616,7115,WL,C,2.0
1,4.265000104904175,learn,55734.999895095825,Tue Apr 01 2025 16:41:22 GMT-0500 (Central Daylight Time),146855.29999998212,A,whe,O,e,90,1,866.9000000059605,145988.39999997616,7115,WL,C,2.0
1,4.38100004196167,learn,55618.99995803833,Tue Apr 01 2025 16:41:22 GMT-0500 (Central Daylight Time),146971.39999997616,A,whea,O,a,76,1,983.0,145988.39999997616,7115,WL,C,2.0
1,4.531000137329102,learn,55468.9998626709,Tue Apr 01 2025 16:41:22 GMT-0500 (Central Daylight Time),147121.59999999404,A,wheat,O,t,116,1,1133.2000000178814,145988.39999997616,7115,WL,C,2.0
1,5.180000066757202,learn,54819.9999332428,Tue Apr 01 2025 16:41:22 GMT-0500 (Central Daylight Time),147770.79999998212,A,wheatenter,O,enter,618,1,1782.4000000059605,145988.39999997616,7115,WL,C,2.0
1,5.996999979019165,learn,54003.000020980835,Tue Apr 01 2025 16:41:22 GMT-0500 (Central Daylight Time),148587.89999997616,A,q,O,q,802,1,816.6999999880791,147771.19999998808,7115,WL,C,3.0
1,6.180999994277954,learn,53819.000005722046,Tue Apr 01 2025 16:41:22 GMT-0500 (Central Daylight Time),148771.19999998808,A,qu,O,u,142,1,1000.0,147771.19999998808,7115,WL,C,3.0
1,6.380000114440918,learn,53619.99988555908,Tue Apr 01 2025 16:41:22 GMT-0500 (Central Daylight Time),148971.0,A,que,O,e,160,1,1199.800000011921,147771.19999998808,7115,WL,C,3.0
1,6.531000137329102,learn,53468.9998626709,Tue Apr 01 2025 16:41:22 GMT-0500 (Central Daylight Time),149121.39999997616,A,quee,O,e,114,1,1350.199999988079,147771.19999998808,7115,WL,C,3.0
1,6.71399998664856,learn,53286.00001335144,Tue Apr 01 2025 16:41:22 GMT-0500 (Central Daylight Time),149304.69999998808,A,queen,O,n,150,1,1533.5,147771.19999998808,7115,WL,C,3.0
1,7.246000051498413,learn,52753.99994850159,Tue Apr 01 2025 16:41:22 GMT-0500 (Central Daylight Time),149836.79999998212,A,queenenter,O,enter,494,1,2065.5999999940395,147771.19999998808,7115,WL,C,3.0
1,8.031000137329102,learn,51968.9998626709,Tue Apr 01 2025 16:41:22 GMT-0500 (Central Daylight Time),150621.29999998212,A,b,O,b,776,1,784.2999999821186,149837.0,7115,WL,C,4.0
1,8.128999948501587,learn,51871.00005149841,Tue Apr 01 2025 16:41:22 GMT-0500 (Central Daylight Time),150720.0,A,bo,O,o,58,1,883.0,149837.0,7115,WL,C,4.0
1,8.27999997138977,learn,51720.00002861023,Tue Apr 01 2025 16:41:22 GMT-0500 (Central Daylight Time),150870.09999999404,A,boy,O,y,137,1,1033.0999999940395,149837.0,7115,WL,C,4.0
1,8.696000099182129,learn,51303.99990081787,Tue Apr 01 2025 16:41:22 GMT-0500 (Central Daylight Time),151286.19999998808,A,boyenter,O,enter,388,1,1449.199999988079,149837.0,7115,WL,C,4.0
1,9.04699993133545,learn,50953.00006866455,Tue Apr 01 2025 16:41:22 GMT-0500 (Central Daylight Time),151637.5,A,l,O,l,343,1,350.90000000596046,151286.59999999404,7115,WL,C,5.0
1,9.128999948501587,learn,50871.00005149841,Tue Apr 01 2025 16:41:22 GMT-0500 (Central Daylight Time),151719.19999998808,A,le,O,e,50,1,432.59999999403954,151286.59999999404,7115,WL,C,5.0
1,9.246999979019165,learn,50753.000020980835,Tue Apr 01 2025 16:41:22 GMT-0500 (Central Daylight Time),151837.69999998808,A,let,O,t,109,1,551.0999999940395,151286.59999999404,7115,WL,C,5.0
1,9.446000099182129,learn,50553.99990081787,Tue Apr 01 2025 16:41:22 GMT-0500 (Central Daylight Time),152037.0,A,lett,O,t,155,1,750.4000000059605,151286.59999999404,7115,WL,C,5.0
1,9.647000074386597,learn,50352.9999256134,Tue Apr 01 2025 16:41:22 GMT-0500 (Central Daylight Time),152237.69999998808,A,lette,O,e,172,1,951.0999999940395,151286.59999999404,7115,WL,C,5.0
1,9.680999994277954,learn,50319.000005722046,Tue Apr 01 2025 16:41:22 GMT-0500 (Central Daylight Time),152271.5,A,letter,O,r,3,1,984.9000000059605,151286.59999999404,7115,WL,C,5.0
1,10.34500002861023,learn,49654.99997138977,Tue Apr 01 2025 16:41:22 GMT-0500 (Central Daylight Time),152935.79999998212,A,letterenter,O,enter,625,1,1649.199999988079,151286.59999999404,7115,WL,C,5.0
1,10.779000043869019,learn,49220.99995613098,Tue Apr 01 2025 16:41:22 GMT-0500 (Central Daylight Time),153369.79999998212,A,s,O,s,421,1,433.69999998807907,152936.09999999404,7115,WL,C,6.0
1,10.835000038146973,learn,49164.99996185303,Tue Apr 01 2025 16:41:22 GMT-0500 (Central Daylight Time),153426.0,A,sh,O,h,22,1,489.90000000596046,152936.09999999404,7115,WL,C,6.0
1,10.911999940872192,learn,49088.00005912781,Tue Apr 01 2025 16:41:22 GMT-0500 (Central Daylight Time),153502.29999998212,A,sho,O,o,56,1,566.1999999880791,152936.09999999404,7115,WL,C,6.0
1,11.095999956130981,learn,48904.00004386902,Tue Apr 01 2025 16:41:22 GMT-0500 (Central Daylight Time),153686.09999999404,A,shor,O,r,154,1,750.0,152936.09999999404,7115,WL,C,6.0
1,11.229000091552734,learn,48770.999908447266,Tue Apr 01 2025 16:41:22 GMT-0500 (Central Daylight Time),153819.89999997616,A,shore,O,e,98,1,883.7999999821186,152936.09999999404,7115,WL,C,6.0
1,11.644999980926514,learn,48355.000019073486,Tue Apr 01 2025 16:41:22 GMT-0500 (Central Daylight Time),154235.29999998212,A,shoreenter,O,enter,372,1,1299.199999988079,152936.09999999404,7115,WL,C,6.0
1,12.01200008392334,learn,47987.99991607666,Tue Apr 01 2025 16:41:22 GMT-0500 (Central Daylight Time),154602.89999997616,A,c,O,c,354,1,367.39999997615814,154235.5,7115,WL,C,7.0
1,12.09500002861023,learn,47904.99997138977,Tue Apr 01 2025 16:41:22 GMT-0500 (Central Daylight Time),154685.59999999404,A,ca,O,a,52,1,450.09999999403954,154235.5,7115,WL,C,7.0
1,12.295000076293945,learn,47704.999923706055,Tue Apr 01 2025 16:41:22 GMT-0500 (Central Daylight Time),154885.89999997616,A,cat,O,t,177,1,650.3999999761581,154235.5,7115,WL,C,7.0
1,12.42900013923645,learn,47570.99986076355,Tue Apr 01 2025 16:41:22 GMT-0500 (Central Daylight Time),155019.5,A,catt,O,t,100,1,784.0,154235.5,7115,WL,C,7.0
1,12.562000036239624,learn,47437.999963760376,Tue Apr 01 2025 16:41:22 GMT-0500 (Central Daylight Time),155152.39999997616,A,cattl,O,l,95,1,916.8999999761581,154235.5,7115,WL,C,7.0
1,12.67900013923645,learn,47320.99986076355,Tue Apr 01 2025 16:41:22 GMT-0500 (Central Daylight Time),155269.5,A,cattle,O,e,91,1,1034.0,154235.5,7115,WL,C,7.0
1,13.094000101089478,learn,46905.99989891052,Tue Apr 01 2025 16:41:22 GMT-0500 (Central Daylight Time),155684.79999998212,A,cattleenter,O,enter,386,1,1449.2999999821186,154235.5,7115,WL,C,7.0
1,13.444999933242798,learn,46555.0000667572,Tue Apr 01 2025 16:41:22 GMT-0500 (Central Daylight Time),156035.5,A,s,O,s,336,1,350.5,155685.0,7115,WL,C,8.0
1,13.562000036239624,learn,46437.999963760376,Tue Apr 01 2025 16:41:22 GMT-0500 (Central Daylight Time),156152.5,A,su,O,u,82,1,467.5,155685.0,7115,WL,C,8.0
1,13.812000036239624,learn,46187.999963760376,Tue Apr 01 2025 16:41:22 GMT-0500 (Central Daylight Time),156402.29999998212,A,sug,O,g,212,1,717.2999999821186,155685.0,7115,WL,C,8.0
1,14.07800006866455,learn,45921.99993133545,Tue Apr 01 2025 16:41:22 GMT-0500 (Central Daylight Time),156668.79999998212,A,suga,O,a,223,1,983.7999999821186,155685.0,7115,WL,C,8.0
1,14.16100001335144,learn,45838.99998664856,Tue Apr 01 2025 16:41:22 GMT-0500 (Central Daylight Time),156751.59999999404,A,sugar,O,r,44,1,1066.5999999940395,155685.0,7115,WL,C,8.0
1,14.877000093460083,learn,45122.99990653992,Tue Apr 01 2025 16:41:22 GMT-0500 (Central Daylight Time),157467.39999997616,A,sugarenter,O,enter,685,1,1782.3999999761581,155685.0,7115,WL,C,8.0
1,17.0770001411438,learn,42922.9998588562,Tue Apr 01 2025 16:41:22 GMT-0500 (Central Daylight Time),159667.79999998212,A,b,O,b,2185,1,2200.0,157467.79999998212,7115,WL,C,9.0
1,17.16100001335144,learn,42838.99998664856,Tue Apr 01 2025 16:41:22 GMT-0500 (Central Daylight Time),159751.39999997616,A,bo,O,o,21,1,2283.5999999940395,157467.79999998212,7115,WL,C,9.0
1,17.278000116348267,learn,42721.99988365173,Tue Apr 01 2025 16:41:22 GMT-0500 (Central Daylight Time),159868.09999999404,A,boy,O,y,85,1,2400.300000011921,157467.79999998212,7115,WL,C,9.0
1,18.2260000705719,learn,41773.9999294281,Tue Apr 01 2025 16:41:22 GMT-0500 (Central Daylight Time),160816.5,A,boyenter,O,enter,909,1,3348.7000000178814,157467.79999998212,7115,WL,C,9.0
1,18.610000133514404,learn,41389.999866485596,Tue Apr 01 2025 16:41:22 GMT-0500 (Central Daylight Time),161200.79999998212,A,n,O,n,365,1,384.0,160816.79999998212,7115,WL,C,10.0
1,18.70900011062622,learn,41290.99988937378,Tue Apr 01 2025 16:41:22 GMT-0500 (Central Daylight Time),161299.89999997616,A,na,O,a,57,1,483.09999999403954,160816.79999998212,7115,WL,C,10.0
1,18.825999975204468,learn,41174.00002479553,Tue Apr 01 2025 16:41:22 GMT-0500 (Central Daylight Time),161416.69999998808,A,nai,O,i,98,1,599.9000000059605,160816.79999998212,7115,WL,C,10.0
1,18.926000118255615,learn,41073.999881744385,Tue Apr 01 2025 16:41:22 GMT-0500 (Central Daylight Time),161516.79999998212,A,nail,O,l,71,1,700.0,160816.79999998212,7115,WL,C,10.0
1,19.691999912261963,learn,40308.00008773804,Tue Apr 01 2025 16:41:22 GMT-0500 (Central Daylight Time),162282.69999998808,A,nailenter,O,enter,726,1,1465.9000000059605,160816.79999998212,7115,WL,C,10.0
1,20.075000047683716,learn,39924.999952316284,Tue Apr 01 2025 16:41:22 GMT-0500 (Central Daylight Time),162666.0,A,b,O,b,363,1,383.0,162283.0,7115,WL,C,11.0
1,20.14199995994568,learn,39858.00004005432,Tue Apr 01 2025 16:41:22 GMT-0500 (Central Daylight Time),162732.39999997616,A,bo,O,o,43,1,449.39999997615814,162283.0,7115,WL,C,11.0
1,20.325999975204468,learn,39674.00002479553,Tue Apr 01 2025 16:41:22 GMT-0500 (Central Daylight Time),162916.89999997616,A,bod,O,d,159,1,633.8999999761581,162283.0,7115,WL,C,11.0
1,20.4760000705719,learn,39523.9999294281,Tue Apr 01 2025 16:41:22 GMT-0500 (Central Daylight Time),163066.89999997616,A,body,O,y,108,1,783.8999999761581,162283.0,7115,WL,C,11.0
1,21.225000143051147,learn,38774.99985694885,Tue Apr 01 2025 16:41:22 GMT-0500 (Central Daylight Time),163815.5,A,bodyenter,O,enter,717,1,1532.5,162283.0,7115,WL,C,11.0
1,41.835999965667725,learn,18164.000034332275,Tue Apr 01 2025 16:41:22 GMT-0500 (Central Daylight Time),184426.5,A,h,O,h,20599,1,20610.80000001192,163815.69999998808,7115,WL,C,12.0
1,41.95300006866455,learn,18046.99993133545,Tue Apr 01 2025 16:41:22 GMT-0500 (Central Daylight Time),184543.09999999404,A,ho,O,o,77,1,20727.40000000596,163815.69999998808,7115,WL,C,12.0
1,42.335999965667725,learn,17664.000034332275,Tue Apr 01 2025 16:41:22 GMT-0500 (Central Daylight Time),184926.39999997616,A,hom,O,m,352,1,21110.69999998808,163815.69999998808,7115,WL,C,12.0
1,42.50200009346008,learn,17497.999906539917,Tue Apr 01 2025 16:41:22 GMT-0500 (Central Daylight Time),185092.39999997616,A,home,O,e,127,1,21276.69999998808,163815.69999998808,7115,WL,C,12.0
1,42.93499994277954,learn,17065.00005722046,Tue Apr 01 2025 16:41:22 GMT-0500 (Central Daylight Time),185525.09999999404,A,homeenter,O,enter,405,1,21709.40000000596,163815.69999998808,7115,WL,C,12.0
1,60.013999938964844,learn,-13.99993896484375,Tue Apr 01 2025 16:41:22 GMT-0500 (Central Daylight Time),202603.89999997616,A,None,O,None,17072,1,17078.59999999404,185525.29999998212,7115,WL,C,13.0
2,0.9500000476837158,learn,59049.999952316284,Tue Apr 01 2025 16:41:22 GMT-0500 (Central Daylight Time),274846.5,A,t,O,t,920,1,949.1000000238419,273897.39999997616,7115,WL,C,1.0
2,1.0490000247955322,learn,58950.99997520447,Tue Apr 01 2025 16:41:22 GMT-0500 (Central Daylight Time),274945.89999997616,A,to,O,o,65,1,1048.5,273897.39999997616,7115,WL,C,1.0
2,1.2000000476837158,learn,58799.999952316284,Tue Apr 01 2025 16:41:22 GMT-0500 (Central Daylight Time),275096.39999997616,A,tow,O,w,122,1,1199.0,273897.39999997616,7115,WL,C,1.0
2,1.2829999923706055,learn,58717.000007629395,Tue Apr 01 2025 16:41:22 GMT-0500 (Central Daylight Time),275179.0,A,towe,O,e,40,1,1281.6000000238419,273897.39999997616,7115,WL,C,1.0
2,1.4000000953674316,learn,58599.99990463257,Tue Apr 01 2025 16:41:22 GMT-0500 (Central Daylight Time),275296.59999999404,A,tower,O,r,93,1,1399.2000000178814,273897.39999997616,7115,WL,C,1.0
2,1.8490002155303955,learn,58150.999784469604,Tue Apr 01 2025 16:41:22 GMT-0500 (Central Daylight Time),275745.5,A,towerenter,O,enter,415,1,1848.1000000238419,273897.39999997616,7115,WL,C,1.0
2,2.4670000076293945,learn,57532.999992370605,Tue Apr 01 2025 16:41:22 GMT-0500 (Central Daylight Time),276363.09999999404,A,w,O,w,606,1,617.3000000119209,275745.7999999821,7115,WL,C,2.0
2,2.5830001831054688,learn,57416.99981689453,Tue Apr 01 2025 16:41:22 GMT-0500 (Central Daylight Time),276479.6999999881,A,wh,O,h,81,1,733.9000000059605,275745.7999999821,7115,WL,C,2.0
2,2.683000087738037,learn,57316.99991226196,Tue Apr 01 2025 16:41:22 GMT-0500 (Central Daylight Time),276579.5,A,whe,O,e,59,1,833.7000000178814,275745.7999999821,7115,WL,C,2.0
2,3.31600022315979,learn,56683.99977684021,Tue Apr 01 2025 16:41:22 GMT-0500 (Central Daylight Time),277212.59999999404,A,whea,O,a,605,1,1466.800000011921,275745.7999999821,7115,WL,C,2.0
2,3.433000087738037,learn,56566.99991226196,Tue Apr 01 2025 16:41:22 GMT-0500 (Central Daylight Time),277329.2999999821,A,wheat,O,t,87,1,1583.5,275745.7999999821,7115,WL,C,2.0
2,3.815000057220459,learn,56184.99994277954,Tue Apr 01 2025 16:41:22 GMT-0500 (Central Daylight Time),277711.5,A,wheatenter,O,enter,350,1,1965.7000000178814,275745.7999999821,7115,WL,C,2.0
2,4.166000127792358,learn,55833.99987220764,Tue Apr 01 2025 16:41:22 GMT-0500 (Central Daylight Time),278062.39999997616,A,q,O,q,335,1,350.59999999403954,277711.7999999821,7115,WL,C,3.0
2,4.333000183105469,learn,55666.99981689453,Tue Apr 01 2025 16:41:22 GMT-0500 (Central Daylight Time),278229.6999999881,A,qu,O,u,140,1,517.9000000059605,277711.7999999821,7115,WL,C,3.0
2,4.582000017166138,learn,55417.99998283386,Tue Apr 01 2025 16:41:22 GMT-0500 (Central Daylight Time),278478.7999999821,A,que,O,e,227,1,767.0,277711.7999999821,7115,WL,C,3.0
2,4.733000040054321,learn,55266.99995994568,Tue Apr 01 2025 16:41:22 GMT-0500 (Central Daylight Time),278629.0,A,quee,O,e,107,1,917.2000000178814,277711.7999999821,7115,WL,C,3.0
2,5.015000104904175,learn,54984.999895095825,Tue Apr 01 2025 16:41:22 GMT-0500 (Central Daylight Time),278911.89999997616,A,queen,O,n,252,1,1200.0999999940395,277711.7999999821,7115,WL,C,3.0
2,5.581000089645386,learn,54418.999910354614,Tue Apr 01 2025 16:41:22 GMT-0500 (Central Daylight Time),279477.5,A,queenenter,O,enter,539,1,1765.7000000178814,277711.7999999821,7115,WL,C,3.0
2,6.648000001907349,learn,53351.99999809265,Tue Apr 01 2025 16:41:22 GMT-0500 (Central Daylight Time),280544.89999997616,A,c,O,c,1056,1,1067.0999999940395,279477.7999999821,7115,WL,C,4.0
2,6.731000185012817,learn,53268.99981498718,Tue Apr 01 2025 16:41:22 GMT-0500 (Central Daylight Time),280627.39999997616,A,co,O,o,50,1,1149.5999999940395,279477.7999999821,7115,WL,C,4.0
2,6.88100004196167,learn,53118.99995803833,Tue Apr 01 2025 16:41:22 GMT-0500 (Central Daylight Time),280777.6999999881,A,cor,O,r,134,1,1299.9000000059605,279477.7999999821,7115,WL,C,4.0
2,7.0320000648498535,learn,52967.99993515015,Tue Apr 01 2025 16:41:22 GMT-0500 (Central Daylight Time),280928.09999999404,A,corn,O,n,119,1,1450.300000011921,279477.7999999821,7115,WL,C,4.0
2,7.430000066757202,learn,52569.9999332428,Tue Apr 01 2025 16:41:22 GMT-0500 (Central Daylight Time),281326.6999999881,A,cornenter,O,enter,369,1,1848.9000000059605,279477.7999999821,7115,WL,C,4.0
2,7.715000152587891,learn,52284.99984741211,Tue Apr 01 2025 16:41:22 GMT-0500 (Central Daylight Time),281611.09999999404,A,s,O,s,262,1,284.0,281327.09999999404,7115,WL,C,5.0
2,7.831000089645386,learn,52168.999910354614,Tue Apr 01 2025 16:41:22 GMT-0500 (Central Daylight Time),281727.09999999404,A,su,O,u,81,1,400.0,281327.09999999404,7115,WL,C,5.0
2,8.065000057220459,learn,51934.99994277954,Tue Apr 01 2025 16:41:22 GMT-0500 (Central Daylight Time),281961.09999999404,A,sug,O,g,216,1,634.0,281327.09999999404,7115,WL,C,5.0
2,8.29800009727478,learn,51701.99990272522,Tue Apr 01 2025 16:41:22 GMT-0500 (Central Daylight Time),282194.39999997616,A,suga,O,a,200,1,867.2999999821186,281327.09999999404,7115,WL,C,5.0
2,8.514000177383423,learn,51485.99982261658,Tue Apr 01 2025 16:41:22 GMT-0500 (Central Daylight Time),282411.0,A,sugar,O,r,184,1,1083.9000000059605,281327.09999999404,7115,WL,C,5.0
2,9.047000169754028,learn,50952.99983024597,Tue Apr 01 2025 16:41:22 GMT-0500 (Central Daylight Time),282943.09999999404,A,sugarenter,O,enter,501,1,1616.0,281327.09999999404,7115,WL,C,5.0
2,9.981000185012817,learn,50018.99981498718,Tue Apr 01 2025 16:41:22 GMT-0500 (Central Daylight Time),283877.59999999404,A,b,O,b,927,1,934.2000000178814,282943.39999997616,7115,WL,C,6.0
2,10.182000160217285,learn,49817.999839782715,Tue Apr 01 2025 16:41:22 GMT-0500 (Central Daylight Time),284078.0,A,bo,O,o,173,1,1134.6000000238419,282943.39999997616,7115,WL,C,6.0
2,10.347000122070312,learn,49652.99987792969,Tue Apr 01 2025 16:41:22 GMT-0500 (Central Daylight Time),284243.7999999821,A,boy,O,y,138,1,1300.4000000059605,282943.39999997616,7115,WL,C,6.0
2,10.913000106811523,learn,49086.99989318848,Tue Apr 01 2025 16:41:22 GMT-0500 (Central Daylight Time),284809.0,A,boyenter,O,enter,525,1,1865.6000000238419,282943.39999997616,7115,WL,C,6.0
2,11.997000217437744,learn,48002.999782562256,Tue Apr 01 2025 16:41:22 GMT-0500 (Central Daylight Time),285893.1999999881,A,l,O,l,1062,1,1083.9000000059605,284809.2999999821,7115,WL,C,7.0
2,12.130000114440918,learn,47869.99988555908,Tue Apr 01 2025 16:41:22 GMT-0500 (Central Daylight Time),286026.09999999404,A,le,O,e,101,1,1216.800000011921,284809.2999999821,7115,WL,C,7.0
2,12.247000217437744,learn,47752.999782562256,Tue Apr 01 2025 16:41:22 GMT-0500 (Central Daylight Time),286143.1999999881,A,let,O,t,95,1,1333.9000000059605,284809.2999999821,7115,WL,C,7.0
2,12.42900013923645,learn,47570.99986076355,Tue Apr 01 2025 16:41:22 GMT-0500 (Central Daylight Time),286325.89999997616,A,lett,O,t,158,1,1516.5999999940395,284809.2999999821,7115,WL,C,7.0
2,12.630000114440918,learn,47369.99988555908,Tue Apr 01 2025 16:41:22 GMT-0500 (Central Daylight Time),286526.2999999821,A,lette,O,e,170,1,1717.0,284809.2999999821,7115,WL,C,7.0
2,12.712000131607056,learn,47287.999868392944,Tue Apr 01 2025 16:41:22 GMT-0500 (Central Daylight Time),286608.59999999404,A,letter,O,r,44,1,1799.300000011921,284809.2999999821,7115,WL,C,7.0
2,12.912000179290771,learn,47087.99982070923,Tue Apr 01 2025 16:41:22 GMT-0500 (Central Daylight Time),286808.5,A,letterenter,O,enter,184,1,1999.2000000178814,284809.2999999821,7115,WL,C,7.0
2,13.263000011444092,learn,46736.99998855591,Tue Apr 01 2025 16:41:22 GMT-0500 (Central Daylight Time),287159.2999999821,A,n,O,n,342,1,350.59999999403954,286808.6999999881,7115,WL,C,8.0
2,13.34500002861023,learn,46654.99997138977,Tue Apr 01 2025 16:41:22 GMT-0500 (Central Daylight Time),287241.6999999881,A,na,O,a,51,1,433.0,286808.6999999881,7115,WL,C,8.0
2,13.61300015449524,learn,46386.99984550476,Tue Apr 01 2025 16:41:22 GMT-0500 (Central Daylight Time),287509.09999999404,A,nai,O,i,235,1,700.4000000059605,286808.6999999881,7115,WL,C,8.0
2,13.712000131607056,learn,46287.999868392944,Tue Apr 01 2025 16:41:22 GMT-0500 (Central Daylight Time),287608.6999999881,A,nail,O,l,68,1,800.0,286808.6999999881,7115,WL,C,8.0
2,14.145000219345093,learn,45854.99978065491,Tue Apr 01 2025 16:41:22 GMT-0500 (Central Daylight Time),288041.39999997616,A,nailenter,O,enter,409,1,1232.699999988079,286808.6999999881,7115,WL,C,8.0
2,14.729000091552734,learn,45270.999908447266,Tue Apr 01 2025 16:41:22 GMT-0500 (Central Daylight Time),288625.59999999404,A,f,O,f,573,1,584.0,288041.59999999404,7115,WL,C,9.0
2,14.861999988555908,learn,45138.00001144409,Tue Apr 01 2025 16:41:22 GMT-0500 (Central Daylight Time),288758.39999997616,A,fl,O,l,106,1,716.7999999821186,288041.59999999404,7115,WL,C,9.0
2,14.962000131607056,learn,45037.999868392944,Tue Apr 01 2025 16:41:22 GMT-0500 (Central Daylight Time),288858.0,A,fla,O,a,74,1,816.4000000059605,288041.59999999404,7115,WL,C,9.0
2,15.312000036239624,learn,44687.999963760376,Tue Apr 01 2025 16:41:22 GMT-0500 (Central Daylight Time),289208.09999999404,A,flag,O,g,327,1,1166.5,288041.59999999404,7115,WL,C,9.0
2,15.644000053405762,learn,44355.99994659424,Tue Apr 01 2025 16:41:22 GMT-0500 (Central Daylight Time),289540.7999999821,A,flagenter,O,enter,306,1,1499.199999988079,288041.59999999404,7115,WL,C,9.0
2,15.861999988555908,learn,44138.00001144409,Tue Apr 01 2025 16:41:22 GMT-0500 (Central Daylight Time),289758.09999999404,A,d,O,d,210,1,217.09999999403954,289541.0,7115,WL,C,10.0
2,15.961000204086304,learn,44038.999795913696,Tue Apr 01 2025 16:41:22 GMT-0500 (Central Daylight Time),289857.2999999821,A,do,O,o,59,1,316.2999999821186,289541.0,7115,WL,C,10.0
2,16.062000036239624,learn,43937.999963760376,Tue Apr 01 2025 16:41:22 GMT-0500 (Central Daylight Time),289958.09999999404,A,doc,O,c,89,1,417.09999999403954,289541.0,7115,WL,C,10.0
2,16.261000156402588,learn,43738.99984359741,Tue Apr 01 2025 16:41:22 GMT-0500 (Central Daylight Time),290157.89999997616,A,doct,O,t,181,1,616.8999999761581,289541.0,7115,WL,C,10.0
2,16.378000020980835,learn,43621.999979019165,Tue Apr 01 2025 16:41:22 GMT-0500 (Central Daylight Time),290274.89999997616,A,docto,O,o,85,1,733.8999999761581,289541.0,7115,WL,C,10.0
2,16.478000164031982,learn,43521.99983596802,Tue Apr 01 2025 16:41:22 GMT-0500 (Central Daylight Time),290374.1999999881,A,doctor,O,r,61,1,833.1999999880791,289541.0,7115,WL,C,10.0
2,16.844000101089478,learn,43155.99989891052,Tue Apr 01 2025 16:41:22 GMT-0500 (Central Daylight Time),290740.39999997616,A,doctorenter,O,enter,346,1,1199.3999999761581,289541.0,7115,WL,C,10.0
2,17.111999988555908,learn,42888.00001144409,Tue Apr 01 2025 16:41:22 GMT-0500 (Central Daylight Time),291008.1999999881,A,c,O,c,250,1,267.5,290740.6999999881,7115,WL,C,11.0
2,17.16700005531311,learn,42832.99994468689,Tue Apr 01 2025 16:41:22 GMT-0500 (Central Daylight Time),291063.09999999404,A,ca,O,a,25,1,322.40000000596046,290740.6999999881,7115,WL,C,11.0
2,17.295000076293945,learn,42704.999923706055,Tue Apr 01 2025 16:41:22 GMT-0500 (Central Daylight Time),291191.09999999404,A,cam,O,m,109,1,450.40000000596046,290740.6999999881,7115,WL,C,11.0
2,17.445000171661377,learn,42554.99982833862,Tue Apr 01 2025 16:41:22 GMT-0500 (Central Daylight Time),291340.7999999821,A,camp,O,p,114,1,600.0999999940395,290740.6999999881,7115,WL,C,11.0
2,17.82800006866455,learn,42171.99993133545,Tue Apr 01 2025 16:41:22 GMT-0500 (Central Daylight Time),291723.5,A,campenter,O,enter,342,1,982.8000000119209,290740.6999999881,7115,WL,C,11.0
2,18.129000186920166,learn,41870.999813079834,Tue Apr 01 2025 16:41:22 GMT-0500 (Central Daylight Time),292024.5,A,h,O,h,282,1,300.7000000178814,291723.7999999821,7115,WL,C,12.0
2,18.211000204086304,learn,41788.999795913696,Tue Apr 01 2025 16:41:22 GMT-0500 (Central Daylight Time),292106.7999999821,A,ho,O,o,50,1,383.0,291723.7999999821,7115,WL,C,12.0
2,18.795000076293945,learn,41204.999923706055,Tue Apr 01 2025 16:41:22 GMT-0500 (Central Daylight Time),292691.09999999404,A,hom,O,m,565,1,967.3000000119209,291723.7999999821,7115,WL,C,12.0
2,18.961000204086304,learn,41038.999795913696,Tue Apr 01 2025 16:41:22 GMT-0500 (Central Daylight Time),292857.39999997616,A,home,O,e,127,1,1133.5999999940395,291723.7999999821,7115,WL,C,12.0
2,19.66000008583069,learn,40339.99991416931,Tue Apr 01 2025 16:41:22 GMT-0500 (Central Daylight Time),293556.1999999881,A,homeenter,O,enter,673,1,1832.4000000059605,291723.7999999821,7115,WL,C,12.0
2,22.56000018119812,learn,37439.99981880188,Tue Apr 01 2025 16:41:22 GMT-0500 (Central Daylight Time),296456.1999999881,A,c,O,c,2890,1,2899.800000011921,293556.39999997616,7115,WL,C,13.0
2,22.66000008583069,learn,37339.99991416931,Tue Apr 01 2025 16:41:22 GMT-0500 (Central Daylight Time),296555.6999999881,A,ca,O,a,57,1,2999.300000011921,293556.39999997616,7115,WL,C,13.0
2,22.776000022888184,learn,37223.99997711182,Tue Apr 01 2025 16:41:22 GMT-0500 (Central Daylight Time),296672.2999999821,A,cat,O,t,98,1,3115.9000000059605,293556.39999997616,7115,WL,C,13.0
2,22.877000093460083,learn,37122.99990653992,Tue Apr 01 2025 16:41:22 GMT-0500 (Central Daylight Time),296772.7999999821,A,catt,O,t,78,1,3216.4000000059605,293556.39999997616,7115,WL,C,13.0
2,23.06000018119812,learn,36939.99981880188,Tue Apr 01 2025 16:41:22 GMT-0500 (Central Daylight Time),296956.0,A,cattl,O,l,141,1,3399.600000023842,293556.39999997616,7115,WL,C,13.0
2,23.193000078201294,learn,36806.999921798706,Tue Apr 01 2025 16:41:22 GMT-0500 (Central Daylight Time),297089.2999999821,A,cattle,O,e,112,1,3532.9000000059605,293556.39999997616,7115,WL,C,13.0
2,23.409000158309937,learn,36590.99984169006,Tue Apr 01 2025 16:41:22 GMT-0500 (Central Daylight Time),297305.09999999404,A,cattleenter,O,enter,177,1,3748.7000000178814,293556.39999997616,7115,WL,C,13.0
2,37.42300009727478,learn,22576.99990272522,Tue Apr 01 2025 16:41:22 GMT-0500 (Central Daylight Time),311319.1999999881,A,s,O,s,13998,1,14013.699999988079,297305.5,7115,WL,C,14.0
2,37.44700002670288,learn,22552.99997329712,Tue Apr 01 2025 16:41:22 GMT-0500 (Central Daylight Time),311342.7999999821,A,sh,O,h,1,1,14037.299999982119,297305.5,7115,WL,C,14.0
2,37.57100009918213,learn,22428.99990081787,Tue Apr 01 2025 16:41:22 GMT-0500 (Central Daylight Time),311466.89999997616,A,sho,O,o,91,1,14161.399999976158,297305.5,7115,WL,C,14.0
2,37.67200016975403,learn,22327.99983024597,Tue Apr 01 2025 16:41:22 GMT-0500 (Central Daylight Time),311567.6999999881,A,shor,O,r,80,1,14262.199999988079,297305.5,7115,WL,C,14.0
2,37.754000186920166,learn,22245.999813079834,Tue Apr 01 2025 16:41:22 GMT-0500 (Central Daylight Time),311650.1999999881,A,shore,O,e,44,1,14344.699999988079,297305.5,7115,WL,C,14.0
2,37.98800015449524,learn,22011.99984550476,Tue Apr 01 2025 16:41:22 GMT-0500 (Central Daylight Time),311883.59999999404,A,shoreenter,O,enter,217,1,14578.09999999404,297305.5,7115,WL,C,14.0
2,46.26900005340576,learn,13730.999946594238,Tue Apr 01 2025 16:41:22 GMT-0500 (Central Daylight Time),320165.1999999881,A,b,O,b,8267,1,8281.40000000596,311883.7999999821,7115,WL,C,15.0
2,46.35199999809265,learn,13648.000001907349,Tue Apr 01 2025 16:41:22 GMT-0500 (Central Daylight Time),320247.7999999821,A,bo,O,o,56,1,8364.0,311883.7999999821,7115,WL,C,15.0
2,46.652000188827515,learn,13347.999811172485,Tue Apr 01 2025 16:41:22 GMT-0500 (Central Daylight Time),320548.1999999881,A,bod,O,d,278,1,8664.40000000596,311883.7999999821,7115,WL,C,15.0
2,46.88600015640259,learn,13113.999843597412,Tue Apr 01 2025 16:41:22 GMT-0500 (Central Daylight Time),320781.7999999821,A,body,O,y,207,1,8898.0,311883.7999999821,7115,WL,C,15.0
2,47.218000173568726,learn,12781.999826431274,Tue Apr 01 2025 16:41:22 GMT-0500 (Central Daylight Time),321113.89999997616,A,bodyenter,O,enter,299,1,9230.09999999404,311883.7999999821,7115,WL,C,15.0
3,1.0999999046325684,learn,58900.00009536743,Tue Apr 01 2025 16:41:22 GMT-0500 (Central Daylight Time),392507.0,A,t,O,t,1086,1,1099.6000000238419,391407.39999997616,7115,WL,C,1.0
3,1.2330000400543213,learn,58766.99995994568,Tue Apr 01 2025 16:41:22 GMT-0500 (Central Daylight Time),392640.89999997616,A,to,O,o,114,1,1233.5,391407.39999997616,7115,WL,C,1.0
3,1.434000015258789,learn,58565.99998474121,Tue Apr 01 2025 16:41:22 GMT-0500 (Central Daylight Time),392841.39999997616,A,tow,O,w,174,1,1434.0,391407.39999997616,7115,WL,C,1.0
3,1.499000072479248,learn,58500.99992752075,Tue Apr 01 2025 16:41:22 GMT-0500 (Central Daylight Time),392906.7999999821,A,towe,O,e,45,1,1499.4000000059605,391407.39999997616,7115,WL,C,1.0
3,1.6340000629425049,learn,58365.999937057495,Tue Apr 01 2025 16:41:22 GMT-0500 (Central Daylight Time),393041.1999999881,A,tower,O,r,123,1,1633.800000011921,391407.39999997616,7115,WL,C,1.0
3,2.365999937057495,learn,57634.000062942505,Tue Apr 01 2025 16:41:22 GMT-0500 (Central Daylight Time),393773.1999999881,A,towerenter,O,enter,694,1,2365.800000011921,391407.39999997616,7115,WL,C,1.0
3,3.117000102996826,learn,56882.999897003174,Tue Apr 01 2025 16:41:22 GMT-0500 (Central Daylight Time),394524.1999999881,A,w,O,w,727,1,750.6999999880791,393773.5,7115,WL,C,2.0
3,3.299999952316284,learn,56700.000047683716,Tue Apr 01 2025 16:41:22 GMT-0500 (Central Daylight Time),394707.5,A,wh,O,h,149,1,934.0,393773.5,7115,WL,C,2.0
3,3.449000120162964,learn,56550.999879837036,Tue Apr 01 2025 16:41:22 GMT-0500 (Central Daylight Time),394856.1999999881,A,whe,O,e,118,1,1082.699999988079,393773.5,7115,WL,C,2.0
3,3.5999999046325684,learn,56400.00009536743,Tue Apr 01 2025 16:41:22 GMT-0500 (Central Daylight Time),395007.1999999881,A,whea,O,a,142,1,1233.699999988079,393773.5,7115,WL,C,2.0
3,3.75,learn,56250.0,Tue Apr 01 2025 16:41:22 GMT-0500 (Central Daylight Time),395157.1999999881,A,wheat,O,t,109,1,1383.699999988079,393773.5,7115,WL,C,2.0
3,4.265000104904175,learn,55734.999895095825,Tue Apr 01 2025 16:41:22 GMT-0500 (Central Daylight Time),395672.59999999404,A,wheatenter,O,enter,477,1,1899.0999999940395,393773.5,7115,WL,C,2.0
3,4.7820000648498535,learn,55217.99993515015,Tue Apr 01 2025 16:41:22 GMT-0500 (Central Daylight Time),396189.1999999881,A,q,O,q,500,1,516.3000000119209,395672.89999997616,7115,WL,C,3.0
3,4.982000112533569,learn,55017.99988746643,Tue Apr 01 2025 16:41:22 GMT-0500 (Central Daylight Time),396389.1999999881,A,qu,O,u,178,1,716.3000000119209,395672.89999997616,7115,WL,C,3.0
3,5.164999961853027,learn,54835.00003814697,Tue Apr 01 2025 16:41:22 GMT-0500 (Central Daylight Time),396572.39999997616,A,que,O,e,176,1,899.5,395672.89999997616,7115,WL,C,3.0
3,5.332000017166138,learn,54667.99998283386,Tue Apr 01 2025 16:41:22 GMT-0500 (Central Daylight Time),396738.89999997616,A,quee,O,e,136,1,1066.0,395672.89999997616,7115,WL,C,3.0
3,5.666000127792358,learn,54333.99987220764,Tue Apr 01 2025 16:41:22 GMT-0500 (Central Daylight Time),397073.09999999404,A,queen,O,n,324,1,1400.2000000178814,395672.89999997616,7115,WL,C,3.0
3,6.531000137329102,learn,53468.9998626709,Tue Apr 01 2025 16:41:22 GMT-0500 (Central Daylight Time),397938.59999999404,A,queenenter,O,enter,833,1,2265.7000000178814,395672.89999997616,7115,WL,C,3.0
3,8.930000066757202,learn,51069.9999332428,Tue Apr 01 2025 16:41:22 GMT-0500 (Central Daylight Time),400337.89999997616,A,s,O,s,2386,1,2399.0,397938.89999997616,7115,WL,C,4.0
3,9.079999923706055,learn,50920.000076293945,Tue Apr 01 2025 16:41:22 GMT-0500 (Central Daylight Time),400487.6999999881,A,su,O,u,137,1,2548.800000011921,397938.89999997616,7115,WL,C,4.0
3,9.29699993133545,learn,50703.00006866455,Tue Apr 01 2025 16:41:22 GMT-0500 (Central Daylight Time),400704.39999997616,A,sug,O,g,196,1,2765.5,397938.89999997616,7115,WL,C,4.0
3,9.513999938964844,learn,50486.000061035156,Tue Apr 01 2025 16:41:22 GMT-0500 (Central Daylight Time),400921.2999999821,A,suga,O,a,195,1,2982.4000000059605,397938.89999997616,7115,WL,C,4.0
3,9.630000114440918,learn,50369.99988555908,Tue Apr 01 2025 16:41:22 GMT-0500 (Central Daylight Time),401037.6999999881,A,sugar,O,r,100,1,3098.800000011921,397938.89999997616,7115,WL,C,4.0
3,10.213000059127808,learn,49786.99994087219,Tue Apr 01 2025 16:41:22 GMT-0500 (Central Daylight Time),401620.5,A,sugarenter,O,enter,574,1,3681.600000023842,397938.89999997616,7115,WL,C,4.0
3,11.814000129699707,learn,48185.99987030029,Tue Apr 01 2025 16:41:22 GMT-0500 (Central Daylight Time),403221.7999999821,A,b,O,b,1594,1,1600.9000000059605,401620.89999997616,7115,WL,C,5.0
3,12.397000074386597,learn,47602.9999256134,Tue Apr 01 2025 16:41:22 GMT-0500 (Central Daylight Time),403804.6999999881,A,,O,backspace,540,1,2183.800000011921,401620.89999997616,7115,WL,C,5.0
3,12.980000019073486,learn,47019.999980926514,Tue Apr 01 2025 16:41:22 GMT-0500 (Central Daylight Time),404387.39999997616,A,c,O,c,548,1,2766.5,401620.89999997616,7115,WL,C,5.0
3,13.033999919891357,learn,46966.00008010864,Tue Apr 01 2025 16:41:22 GMT-0500 (Central Daylight Time),404441.59999999404,A,co,O,o,16,1,2820.7000000178814,401620.89999997616,7115,WL,C,5.0
3,13.19700002670288,learn,46802.99997329712,Tue Apr 01 2025 16:41:22 GMT-0500 (Central Daylight Time),404604.1999999881,A,cor,O,r,141,1,2983.300000011921,401620.89999997616,7115,WL,C,5.0
3,13.329999923706055,learn,46670.000076293945,Tue Apr 01 2025 16:41:22 GMT-0500 (Central Daylight Time),404737.2999999821,A,corn,O,n,104,1,3116.4000000059605,401620.89999997616,7115,WL,C,5.0
3,14.17900013923645,learn,45820.99986076355,Tue Apr 01 2025 16:41:22 GMT-0500 (Central Daylight Time),405586.1999999881,A,cornenter,O,enter,814,1,3965.300000011921,401620.89999997616,7115,WL,C,5.0
3,15.763000011444092,learn,44236.99998855591,Tue Apr 01 2025 16:41:22 GMT-0500 (Central Daylight Time),407170.0,A,b,O,b,1573,1,1583.5,405586.5,7115,WL,C,6.0
3,15.92900013923645,learn,44070.99986076355,Tue Apr 01 2025 16:41:22 GMT-0500 (Central Daylight Time),407336.89999997616,A,bo,O,o,129,1,1750.3999999761581,405586.5,7115,WL,C,6.0
3,16.09500002861023,learn,43904.99997138977,Tue Apr 01 2025 16:41:22 GMT-0500 (Central Daylight Time),407503.0,A,boy,O,y,139,1,1916.5,405586.5,7115,WL,C,6.0
3,16.861000061035156,learn,43138.999938964844,Tue Apr 01 2025 16:41:22 GMT-0500 (Central Daylight Time),408268.59999999404,A,boyenter,O,enter,738,1,2682.0999999940395,405586.5,7115,WL,C,6.0
3,17.378999948501587,learn,42621.00005149841,Tue Apr 01 2025 16:41:22 GMT-0500 (Central Daylight Time),408786.0,A,d,O,d,505,1,517.1000000238419,408268.89999997616,7115,WL,C,7.0
3,17.444999933242798,learn,42555.0000667572,Tue Apr 01 2025 16:41:22 GMT-0500 (Central Daylight Time),408852.39999997616,A,do,O,o,44,1,583.5,408268.89999997616,7115,WL,C,7.0
3,17.578999996185303,learn,42421.0000038147,Tue Apr 01 2025 16:41:22 GMT-0500 (Central Daylight Time),408986.09999999404,A,doc,O,c,108,1,717.2000000178814,408268.89999997616,7115,WL,C,7.0
3,17.795000076293945,learn,42204.999923706055,Tue Apr 01 2025 16:41:22 GMT-0500 (Central Daylight Time),409202.0,A,doct,O,t,184,1,933.1000000238419,408268.89999997616,7115,WL,C,7.0
3,17.92900013923645,learn,42070.99986076355,Tue Apr 01 2025 16:41:22 GMT-0500 (Central Daylight Time),409335.89999997616,A,docto,O,o,119,1,1067.0,408268.89999997616,7115,WL,C,7.0
3,18.062000036239624,learn,41937.999963760376,Tue Apr 01 2025 16:41:22 GMT-0500 (Central Daylight Time),409469.1999999881,A,doctor,O,r,100,1,1200.300000011921,408268.89999997616,7115,WL,C,7.0
3,18.793999910354614,learn,41206.000089645386,Tue Apr 01 2025 16:41:22 GMT-0500 (Central Daylight Time),410201.39999997616,A,doctorenter,O,enter,701,1,1932.5,408268.89999997616,7115,WL,C,7.0
3,21.295000076293945,learn,38704.999923706055,Tue Apr 01 2025 16:41:22 GMT-0500 (Central Daylight Time),412701.39999997616,A,l,O,l,2485,1,2499.7999999821186,410201.59999999404,7115,WL,C,8.0
3,21.41000008583069,learn,38589.99991416931,Tue Apr 01 2025 16:41:22 GMT-0500 (Central Daylight Time),412817.1999999881,A,le,O,e,77,1,2615.5999999940395,410201.59999999404,7115,WL,C,8.0
3,21.49399995803833,learn,38506.00004196167,Tue Apr 01 2025 16:41:22 GMT-0500 (Central Daylight Time),412900.59999999404,A,let,O,t,65,1,2699.0,410201.59999999404,7115,WL,C,8.0
3,21.677000045776367,learn,38322.99995422363,Tue Apr 01 2025 16:41:22 GMT-0500 (Central Daylight Time),413084.2999999821,A,lett,O,t,161,1,2882.699999988079,410201.59999999404,7115,WL,C,8.0
3,21.811000108718872,learn,38188.99989128113,Tue Apr 01 2025 16:41:22 GMT-0500 (Central Daylight Time),413218.09999999404,A,lette,O,e,105,1,3016.5,410201.59999999404,7115,WL,C,8.0
3,21.878999948501587,learn,38121.00005149841,Tue Apr 01 2025 16:41:22 GMT-0500 (Central Daylight Time),413285.5,A,letter,O,r,30,1,3083.9000000059605,410201.59999999404,7115,WL,C,8.0
3,22.042999982833862,learn,37957.00001716614,Tue Apr 01 2025 16:41:22 GMT-0500 (Central Daylight Time),413450.09999999404,A,letterenter,O,enter,143,1,3248.5,410201.59999999404,7115,WL,C,8.0
3,22.311000108718872,learn,37688.99989128113,Tue Apr 01 2025 16:41:22 GMT-0500 (Central Daylight Time),413718.0,A,n,O,n,260,1,267.7000000178814,413450.2999999821,7115,WL,C,9.0
3,22.377000093460083,learn,37622.99990653992,Tue Apr 01 2025 16:41:22 GMT-0500 (Central Daylight Time),413783.59999999404,A,na,O,a,27,1,333.30000001192093,413450.2999999821,7115,WL,C,9.0
3,22.91100001335144,learn,37088.99998664856,Tue Apr 01 2025 16:41:22 GMT-0500 (Central Daylight Time),414317.7999999821,A,nai,O,i,521,1,867.5,413450.2999999821,7115,WL,C,9.0
3,22.993000030517578,learn,37006.99996948242,Tue Apr 01 2025 16:41:22 GMT-0500 (Central Daylight Time),414400.1999999881,A,nail,O,l,52,1,949.9000000059605,413450.2999999821,7115,WL,C,9.0
3,23.30999994277954,learn,36690.00005722046,Tue Apr 01 2025 16:41:22 GMT-0500 (Central Daylight Time),414716.5,A,nailenter,O,enter,302,1,1266.2000000178814,413450.2999999821,7115,WL,C,9.0
3,24.3270001411438,learn,35672.9998588562,Tue Apr 01 2025 16:41:22 GMT-0500 (Central Daylight Time),415733.89999997616,A,h,O,h,1003,1,1017.1999999880791,414716.6999999881,7115,WL,C,10.0
3,24.460000038146973,learn,35539.99996185303,Tue Apr 01 2025 16:41:22 GMT-0500 (Central Daylight Time),415867.0,A,ho,O,o,101,1,1150.300000011921,414716.6999999881,7115,WL,C,10.0
3,24.55900001525879,learn,35440.99998474121,Tue Apr 01 2025 16:41:22 GMT-0500 (Central Daylight Time),415966.0,A,hom,O,m,75,1,1249.300000011921,414716.6999999881,7115,WL,C,10.0
3,24.710000038146973,learn,35289.99996185303,Tue Apr 01 2025 16:41:22 GMT-0500 (Central Daylight Time),416116.6999999881,A,home,O,e,126,1,1400.0,414716.6999999881,7115,WL,C,10.0
3,25.04200005531311,learn,34957.99994468689,Tue Apr 01 2025 16:41:22 GMT-0500 (Central Daylight Time),416449.2999999821,A,homeenter,O,enter,296,1,1732.5999999940395,414716.6999999881,7115,WL,C,10.0
3,25.41000008583069,learn,34589.99991416931,Tue Apr 01 2025 16:41:22 GMT-0500 (Central Daylight Time),416816.89999997616,A,c,O,c,357,1,367.2999999821186,416449.59999999404,7115,WL,C,11.0
3,25.509000062942505,learn,34490.999937057495,Tue Apr 01 2025 16:41:22 GMT-0500 (Central Daylight Time),416915.89999997616,A,ca,O,a,56,1,466.2999999821186,416449.59999999404,7115,WL,C,11.0
3,25.608999967575073,learn,34391.00003242493,Tue Apr 01 2025 16:41:22 GMT-0500 (Central Daylight Time),417016.0,A,cam,O,m,79,1,566.4000000059605,416449.59999999404,7115,WL,C,11.0
3,25.70900011062622,learn,34290.99988937378,Tue Apr 01 2025 16:41:22 GMT-0500 (Central Daylight Time),417116.1999999881,A,camp,O,p,66,1,666.5999999940395,416449.59999999404,7115,WL,C,11.0
3,26.29200005531311,learn,33707.99994468689,Tue Apr 01 2025 16:41:22 GMT-0500 (Central Daylight Time),417698.7999999821,A,campenter,O,enter,547,1,1249.199999988079,416449.59999999404,7115,WL,C,11.0
3,27.70900011062622,learn,32290.99988937378,Tue Apr 01 2025 16:41:22 GMT-0500 (Central Daylight Time),419116.0,A,f,O,f,1404,1,1416.9000000059605,417699.09999999404,7115,WL,C,12.0
3,27.842000007629395,learn,32157.999992370605,Tue Apr 01 2025 16:41:22 GMT-0500 (Central Daylight Time),419249.1999999881,A,fl,O,l,94,1,1550.0999999940395,417699.09999999404,7115,WL,C,12.0
3,27.924999952316284,learn,32075.000047683716,Tue Apr 01 2025 16:41:22 GMT-0500 (Central Daylight Time),419331.6999999881,A,fla,O,a,57,1,1632.5999999940395,417699.09999999404,7115,WL,C,12.0
3,28.242000102996826,learn,31757.999897003174,Tue Apr 01 2025 16:41:22 GMT-0500 (Central Daylight Time),419649.2999999821,A,flag,O,g,290,1,1950.199999988079,417699.09999999404,7115,WL,C,12.0
3,28.740999937057495,learn,31259.000062942505,Tue Apr 01 2025 16:41:22 GMT-0500 (Central Daylight Time),420147.89999997616,A,flagenter,O,enter,472,1,2448.7999999821186,417699.09999999404,7115,WL,C,12.0
3,29.111000061035156,learn,30888.999938964844,Tue Apr 01 2025 16:41:22 GMT-0500 (Central Daylight Time),420517.59999999404,A,s,O,s,362,1,369.59999999403954,420148.0,7115,WL,C,13.0
3,29.19099998474121,learn,30809.00001525879,Tue Apr 01 2025 16:41:22 GMT-0500 (Central Daylight Time),420598.1999999881,A,sh,O,h,58,1,450.19999998807907,420148.0,7115,WL,C,13.0
3,29.29200005531311,learn,30707.99994468689,Tue Apr 01 2025 16:41:22 GMT-0500 (Central Daylight Time),420698.6999999881,A,sho,O,o,84,1,550.6999999880791,420148.0,7115,WL,C,13.0
3,29.374000072479248,learn,30625.999927520752,Tue Apr 01 2025 16:41:22 GMT-0500 (Central Daylight Time),420781.0,A,shor,O,r,59,1,633.0,420148.0,7115,WL,C,13.0
3,29.45799994468689,learn,30542.00005531311,Tue Apr 01 2025 16:41:22 GMT-0500 (Central Daylight Time),420864.89999997616,A,shore,O,e,72,1,716.8999999761581,420148.0,7115,WL,C,13.0
3,30.074000120162964,learn,29925.999879837036,Tue Apr 01 2025 16:41:22 GMT-0500 (Central Daylight Time),421480.89999997616,A,shoreenter,O,enter,587,1,1332.8999999761581,420148.0,7115,WL,C,13.0
3,34.15700006484985,learn,25842.999935150146,Tue Apr 01 2025 16:41:22 GMT-0500 (Central Daylight Time),425564.09999999404,A,b,O,b,4062,1,4082.9000000059605,421481.1999999881,7115,WL,C,14.0
3,34.324000120162964,learn,25675.999879837036,Tue Apr 01 2025 16:41:22 GMT-0500 (Central Daylight Time),425730.59999999404,A,bo,O,o,135,1,4249.4000000059605,421481.1999999881,7115,WL,C,14.0
3,34.57299995422363,learn,25427.000045776367,Tue Apr 01 2025 16:41:22 GMT-0500 (Central Daylight Time),425979.7999999821,A,bod,O,d,218,1,4498.5999999940395,421481.1999999881,7115,WL,C,14.0
3,34.69000005722046,learn,25309.99994277954,Tue Apr 01 2025 16:41:22 GMT-0500 (Central Daylight Time),426096.5,A,body,O,y,91,1,4615.300000011921,421481.1999999881,7115,WL,C,14.0
3,35.17199993133545,learn,24828.00006866455,Tue Apr 01 2025 16:41:22 GMT-0500 (Central Daylight Time),426579.1999999881,A,bodyenter,O,enter,461,1,5098.0,421481.1999999881,7115,WL,C,14.0
3,46.585999965667725,learn,13414.000034332275,Tue Apr 01 2025 16:41:22 GMT-0500 (Central Daylight Time),437993.09999999404,A,c,O,c,11395,1,11413.59999999404,426579.5,7115,WL,C,15.0
3,46.71900010108948,learn,13280.999898910522,Tue Apr 01 2025 16:41:22 GMT-0500 (Central Daylight Time),438125.7999999821,A,co,O,o,117,1,11546.299999982119,426579.5,7115,WL,C,15.0
3,46.90300011634827,learn,13096.999883651733,Tue Apr 01 2025 16:41:22 GMT-0500 (Central Daylight Time),438309.6999999881,A,cor,O,r,153,1,11730.199999988079,426579.5,7115,WL,C,15.0
3,47.1029999256134,learn,12897.000074386597,Tue Apr 01 2025 16:41:22 GMT-0500 (Central Daylight Time),438509.59999999404,A,corn,O,n,179,1,11930.09999999404,426579.5,7115,WL,C,15.0
3,47.50200009346008,learn,12497.999906539917,Tue Apr 01 2025 16:41:22 GMT-0500 (Central Daylight Time),438908.5,A,cornenter,O,enter,366,1,12329.0,426579.5,7115,WL,C,15.0
4,0.9660000801086426,learn,59033.99991989136,Tue Apr 01 2025 16:41:22 GMT-0500 (Central Daylight Time),511152.59999999404,A,t,O,t,935,1,966.0,510186.59999999404,7115,WL,C,1.0
4,1.133000135421753,learn,58866.99986457825,Tue Apr 01 2025 16:41:22 GMT-0500 (Central Daylight Time),511319.1999999881,A,to,O,o,131,1,1132.5999999940395,510186.59999999404,7115,WL,C,1.0
4,1.2829999923706055,learn,58717.000007629395,Tue Apr 01 2025 16:41:22 GMT-0500 (Central Daylight Time),511468.89999997616,A,tow,O,w,117,1,1282.2999999821186,510186.59999999404,7115,WL,C,1.0
4,1.309000015258789,learn,58690.99998474121,Tue Apr 01 2025 16:41:22 GMT-0500 (Central Daylight Time),511495.7999999821,A,towe,O,e,1,1,1309.199999988079,510186.59999999404,7115,WL,C,1.0
4,1.4820001125335693,learn,58517.99988746643,Tue Apr 01 2025 16:41:22 GMT-0500 (Central Daylight Time),511668.89999997616,A,tower,O,r,145,1,1482.2999999821186,510186.59999999404,7115,WL,C,1.0
4,2.0320000648498535,learn,57967.99993515015,Tue Apr 01 2025 16:41:22 GMT-0500 (Central Daylight Time),512217.7999999821,A,towerenter,O,enter,515,1,2031.199999988079,510186.59999999404,7115,WL,C,1.0
4,3.5820000171661377,learn,56417.99998283386,Tue Apr 01 2025 16:41:22 GMT-0500 (Central Daylight Time),513768.1999999881,A,w,O,w,1541,1,1550.0999999940395,512218.09999999404,7115,WL,C,2.0
4,3.7139999866485596,learn,56286.00001335144,Tue Apr 01 2025 16:41:22 GMT-0500 (Central Daylight Time),513900.7999999821,A,wh,O,h,104,1,1682.699999988079,512218.09999999404,7115,WL,C,2.0
4,3.865000009536743,learn,56134.99999046326,Tue Apr 01 2025 16:41:22 GMT-0500 (Central Daylight Time),514051.39999997616,A,whe,O,e,131,1,1833.2999999821186,512218.09999999404,7115,WL,C,2.0
4,4.015000104904175,learn,55984.999895095825,Tue Apr 01 2025 16:41:22 GMT-0500 (Central Daylight Time),514201.7999999821,A,whea,O,a,114,1,1983.699999988079,512218.09999999404,7115,WL,C,2.0
4,4.148000001907349,learn,55851.99999809265,Tue Apr 01 2025 16:41:22 GMT-0500 (Central Daylight Time),514334.7999999821,A,wheat,O,t,100,1,2116.699999988079,512218.09999999404,7115,WL,C,2.0
4,4.564000129699707,learn,55435.99987030029,Tue Apr 01 2025 16:41:22 GMT-0500 (Central Daylight Time),514750.39999997616,A,wheatenter,O,enter,380,1,2532.2999999821186,512218.09999999404,7115,WL,C,2.0
4,5.031000137329102,learn,54968.9998626709,Tue Apr 01 2025 16:41:22 GMT-0500 (Central Daylight Time),515217.59999999404,A,q,O,q,457,1,467.0,514750.59999999404,7115,WL,C,3.0
4,5.230999946594238,learn,54769.00005340576,Tue Apr 01 2025 16:41:22 GMT-0500 (Central Daylight Time),515417.6999999881,A,qu,O,u,162,1,667.0999999940395,514750.59999999404,7115,WL,C,3.0
4,5.414999961853027,learn,54585.00003814697,Tue Apr 01 2025 16:41:22 GMT-0500 (Central Daylight Time),515601.09999999404,A,que,O,e,146,1,850.5,514750.59999999404,7115,WL,C,3.0
4,5.581000089645386,learn,54418.999910354614,Tue Apr 01 2025 16:41:22 GMT-0500 (Central Daylight Time),515767.6999999881,A,quee,O,e,130,1,1017.0999999940395,514750.59999999404,7115,WL,C,3.0
4,5.864000082015991,learn,54135.99991798401,Tue Apr 01 2025 16:41:22 GMT-0500 (Central Daylight Time),516050.59999999404,A,queen,O,n,254,1,1300.0,514750.59999999404,7115,WL,C,3.0
4,7.7799999713897705,learn,52220.00002861023,Tue Apr 01 2025 16:41:22 GMT-0500 (Central Daylight Time),517966.0,A,queenenter,O,enter,1893,1,3215.4000000059605,514750.59999999404,7115,WL,C,3.0
4,8.664000034332275,learn,51335.999965667725,Tue Apr 01 2025 16:41:22 GMT-0500 (Central Daylight Time),518850.09999999404,A,s,O,s,865,1,883.9000000059605,517966.1999999881,7115,WL,C,4.0
4,8.763000011444092,learn,51236.99998855591,Tue Apr 01 2025 16:41:22 GMT-0500 (Central Daylight Time),518949.5,A,su,O,u,73,1,983.3000000119209,517966.1999999881,7115,WL,C,4.0
4,8.94700002670288,learn,51052.99997329712,Tue Apr 01 2025 16:41:22 GMT-0500 (Central Daylight Time),519133.1999999881,A,sug,O,g,149,1,1167.0,517966.1999999881,7115,WL,C,4.0
4,9.180000066757202,learn,50819.9999332428,Tue Apr 01 2025 16:41:22 GMT-0500 (Central Daylight Time),519366.09999999404,A,suga,O,a,207,1,1399.9000000059605,517966.1999999881,7115,WL,C,4.0
4,9.297000169754028,learn,50702.99983024597,Tue Apr 01 2025 16:41:22 GMT-0500 (Central Daylight Time),519483.1999999881,A,sugar,O,r,90,1,1517.0,517966.1999999881,7115,WL,C,4.0
4,10.562000036239624,learn,49437.999963760376,Tue Apr 01 2025 16:41:22 GMT-0500 (Central Daylight Time),520748.39999997616,A,sugarenter,O,enter,1232,1,2782.199999988079,517966.1999999881,7115,WL,C,4.0
4,14.328999996185303,learn,45671.0000038147,Tue Apr 01 2025 16:41:22 GMT-0500 (Central Daylight Time),524515.099999994,A,c,O,c,3747,1,3766.5,520748.59999999404,7115,WL,C,5.0
4,14.479000091552734,learn,45520.999908447266,Tue Apr 01 2025 16:41:22 GMT-0500 (Central Daylight Time),524664.8999999762,A,co,O,o,110,1,3916.2999999821186,520748.59999999404,7115,WL,C,5.0
4,14.628000020980835,learn,45371.999979019165,Tue Apr 01 2025 16:41:22 GMT-0500 (Central Daylight Time),524813.8999999762,A,cor,O,r,121,1,4065.2999999821186,520748.59999999404,7115,WL,C,5.0
4,14.811000108718872,learn,45188.99989128113,Tue Apr 01 2025 16:41:22 GMT-0500 (Central Daylight Time),524997.1999999881,A,corn,O,n,169,1,4248.5999999940395,520748.59999999404,7115,WL,C,5.0
4,15.677000045776367,learn,44322.99995422363,Tue Apr 01 2025 16:41:22 GMT-0500 (Central Daylight Time),525863.3999999762,A,cornenter,O,enter,841,1,5114.799999982119,520748.59999999404,7115,WL,C,5.0
4,17.07800006866455,learn,42921.99993133545,Tue Apr 01 2025 16:41:22 GMT-0500 (Central Daylight Time),527263.8999999762,A,b,O,b,1392,1,1400.199999988079,525863.6999999881,7115,WL,C,6.0
4,17.177000045776367,learn,42822.99995422363,Tue Apr 01 2025 16:41:22 GMT-0500 (Central Daylight Time),527363.1999999881,A,bo,O,o,67,1,1499.5,525863.6999999881,7115,WL,C,6.0
4,17.42799997329712,learn,42572.00002670288,Tue Apr 01 2025 16:41:22 GMT-0500 (Central Daylight Time),527614.0,A,boy,O,y,227,1,1750.300000011921,525863.6999999881,7115,WL,C,6.0
4,18.042999982833862,learn,41957.00001716614,Tue Apr 01 2025 16:41:22 GMT-0500 (Central Daylight Time),528229.1999999881,A,boyenter,O,enter,583,1,2365.5,525863.6999999881,7115,WL,C,6.0
4,18.64400005340576,learn,41355.99994659424,Tue Apr 01 2025 16:41:22 GMT-0500 (Central Daylight Time),528830.0,A,d,O,d,593,1,600.4000000059605,528229.599999994,7115,WL,C,7.0
4,18.743000030517578,learn,41256.99996948242,Tue Apr 01 2025 16:41:22 GMT-0500 (Central Daylight Time),528929.099999994,A,do,O,o,66,1,699.5,528229.599999994,7115,WL,C,7.0
4,18.877000093460083,learn,41122.99990653992,Tue Apr 01 2025 16:41:22 GMT-0500 (Central Daylight Time),529063.2999999821,A,doc,O,c,109,1,833.6999999880791,528229.599999994,7115,WL,C,7.0
4,19.14300012588501,learn,40856.99987411499,Tue Apr 01 2025 16:41:22 GMT-0500 (Central Daylight Time),529329.5,A,doct,O,t,227,1,1099.9000000059605,528229.599999994,7115,WL,C,7.0
4,19.64400005340576,learn,40355.99994659424,Tue Apr 01 2025 16:41:22 GMT-0500 (Central Daylight Time),529829.8999999762,A,docto,O,o,479,1,1600.2999999821186,528229.599999994,7115,WL,C,7.0
4,19.80999994277954,learn,40190.00005722046,Tue Apr 01 2025 16:41:22 GMT-0500 (Central Daylight Time),529996.6999999881,A,doctor,O,r,126,1,1767.0999999940395,528229.599999994,7115,WL,C,7.0
4,20.692000150680542,learn,39307.99984931946,Tue Apr 01 2025 16:41:22 GMT-0500 (Central Daylight Time),530878.2999999821,A,doctorenter,O,enter,844,1,2648.699999988079,528229.599999994,7115,WL,C,7.0
4,22.676000118255615,learn,37323.999881744385,Tue Apr 01 2025 16:41:22 GMT-0500 (Central Daylight Time),532862.099999994,A,l,O,l,1977,1,1983.5,530878.599999994,7115,WL,C,8.0
4,22.776000022888184,learn,37223.99997711182,Tue Apr 01 2025 16:41:22 GMT-0500 (Central Daylight Time),532961.599999994,A,le,O,e,70,1,2083.0,530878.599999994,7115,WL,C,8.0
4,22.89300012588501,learn,37106.99987411499,Tue Apr 01 2025 16:41:22 GMT-0500 (Central Daylight Time),533078.5,A,let,O,t,92,1,2199.9000000059605,530878.599999994,7115,WL,C,8.0
4,23.075999975204468,learn,36924.00002479553,Tue Apr 01 2025 16:41:22 GMT-0500 (Central Daylight Time),533262.099999994,A,lett,O,t,162,1,2383.5,530878.599999994,7115,WL,C,8.0
4,23.225000143051147,learn,36774.99985694885,Tue Apr 01 2025 16:41:22 GMT-0500 (Central Daylight Time),533411.2999999821,A,lette,O,e,117,1,2532.699999988079,530878.599999994,7115,WL,C,8.0
4,23.29200005531311,learn,36707.99994468689,Tue Apr 01 2025 16:41:22 GMT-0500 (Central Daylight Time),533477.599999994,A,letter,O,r,49,1,2599.0,530878.599999994,7115,WL,C,8.0
4,23.54200005531311,learn,36457.99994468689,Tue Apr 01 2025 16:41:22 GMT-0500 (Central Daylight Time),533727.3999999762,A,letterenter,O,enter,238,1,2848.7999999821186,530878.599999994,7115,WL,C,8.0
4,24.409000158309937,learn,35590.99984169006,Tue Apr 01 2025 16:41:22 GMT-0500 (Central Daylight Time),534594.8999999762,A,n,O,n,847,1,867.1999999880791,533727.6999999881,7115,WL,C,9.0
4,24.475000143051147,learn,35524.99985694885,Tue Apr 01 2025 16:41:22 GMT-0500 (Central Daylight Time),534660.5,A,na,O,a,24,1,932.8000000119209,533727.6999999881,7115,WL,C,9.0
4,24.89199995994568,learn,35108.00004005432,Tue Apr 01 2025 16:41:22 GMT-0500 (Central Daylight Time),535078.099999994,A,nai,O,i,401,1,1350.4000000059605,533727.6999999881,7115,WL,C,9.0
4,24.975000143051147,learn,35024.99985694885,Tue Apr 01 2025 16:41:22 GMT-0500 (Central Daylight Time),535160.5,A,nail,O,l,54,1,1432.800000011921,533727.6999999881,7115,WL,C,9.0
4,25.424000024795532,learn,34575.99997520447,Tue Apr 01 2025 16:41:22 GMT-0500 (Central Daylight Time),535610.099999994,A,nailenter,O,enter,434,1,1882.4000000059605,533727.6999999881,7115,WL,C,9.0
4,26.60800004005432,learn,33391.99995994568,Tue Apr 01 2025 16:41:22 GMT-0500 (Central Daylight Time),536794.099999994,A,h,O,h,1173,1,1183.7000000178814,535610.3999999762,7115,WL,C,10.0
4,26.758000135421753,learn,33241.99986457825,Tue Apr 01 2025 16:41:22 GMT-0500 (Central Daylight Time),536943.7999999821,A,ho,O,o,115,1,1333.4000000059605,535610.3999999762,7115,WL,C,10.0
4,26.875,learn,33125.0,Tue Apr 01 2025 16:41:22 GMT-0500 (Central Daylight Time),537060.7999999821,A,hom,O,m,99,1,1450.4000000059605,535610.3999999762,7115,WL,C,10.0
4,27.04100012779236,learn,32958.99987220764,Tue Apr 01 2025 16:41:22 GMT-0500 (Central Daylight Time),537227.0,A,home,O,e,132,1,1616.6000000238419,535610.3999999762,7115,WL,C,10.0
4,27.707000017166138,learn,32292.999982833862,Tue Apr 01 2025 16:41:22 GMT-0500 (Central Daylight Time),537892.7999999821,A,homeenter,O,enter,636,1,2282.4000000059605,535610.3999999762,7115,WL,C,10.0
4,28.240999937057495,learn,31759.000062942505,Tue Apr 01 2025 16:41:22 GMT-0500 (Central Daylight Time),538427.0,A,c,O,c,514,1,534.0,537893.0,7115,WL,C,11.0
4,28.341000080108643,learn,31658.999919891357,Tue Apr 01 2025 16:41:22 GMT-0500 (Central Daylight Time),538526.599999994,A,ca,O,a,64,1,633.5999999940395,537893.0,7115,WL,C,11.0
4,28.42300009727478,learn,31576.99990272522,Tue Apr 01 2025 16:41:22 GMT-0500 (Central Daylight Time),538609.099999994,A,cam,O,m,53,1,716.0999999940395,537893.0,7115,WL,C,11.0
4,28.557000160217285,learn,31442.999839782715,Tue Apr 01 2025 16:41:22 GMT-0500 (Central Daylight Time),538743.0,A,camp,O,p,114,1,850.0,537893.0,7115,WL,C,11.0
4,29.67300009727478,learn,30326.99990272522,Tue Apr 01 2025 16:41:22 GMT-0500 (Central Daylight Time),539858.7999999821,A,campenter,O,enter,1076,1,1965.7999999821186,537893.0,7115,WL,C,11.0
4,30.10700011253357,learn,29892.99988746643,Tue Apr 01 2025 16:41:22 GMT-0500 (Central Daylight Time),540293.099999994,A,f,O,f,412,1,434.0,539859.099999994,7115,WL,C,12.0
4,30.206000089645386,learn,29793.999910354614,Tue Apr 01 2025 16:41:22 GMT-0500 (Central Daylight Time),540392.1999999881,A,fl,O,l,67,1,533.0999999940395,539859.099999994,7115,WL,C,12.0
4,30.307000160217285,learn,29692.999839782715,Tue Apr 01 2025 16:41:22 GMT-0500 (Central Daylight Time),540492.8999999762,A,fla,O,a,81,1,633.7999999821186,539859.099999994,7115,WL,C,12.0
4,30.807000160217285,learn,29192.999839782715,Tue Apr 01 2025 16:41:22 GMT-0500 (Central Daylight Time),540992.599999994,A,flag,O,g,464,1,1133.5,539859.099999994,7115,WL,C,12.0
4,31.388999938964844,learn,28611.000061035156,Tue Apr 01 2025 16:41:22 GMT-0500 (Central Daylight Time),541574.7999999821,A,flagenter,O,enter,557,1,1715.699999988079,539859.099999994,7115,WL,C,12.0
4,31.94000005722046,learn,28059.99994277954,Tue Apr 01 2025 16:41:22 GMT-0500 (Central Daylight Time),542125.3999999762,A,c,O,c,536,1,550.2999999821186,541575.099999994,7115,WL,C,13.0
4,32.039000034332275,learn,27960.999965667725,Tue Apr 01 2025 16:41:22 GMT-0500 (Central Daylight Time),542224.7999999821,A,ca,O,a,61,1,649.6999999880791,541575.099999994,7115,WL,C,13.0
4,32.35599994659424,learn,27644.00005340576,Tue Apr 01 2025 16:41:22 GMT-0500 (Central Daylight Time),542542.0,A,cat,O,t,309,1,966.9000000059605,541575.099999994,7115,WL,C,13.0
4,32.49000000953674,learn,27509.999990463257,Tue Apr 01 2025 16:41:22 GMT-0500 (Central Daylight Time),542675.5,A,catt,O,t,105,1,1100.4000000059605,541575.099999994,7115,WL,C,13.0
4,32.638999938964844,learn,27361.000061035156,Tue Apr 01 2025 16:41:22 GMT-0500 (Central Daylight Time),542824.6999999881,A,cattl,O,l,109,1,1249.5999999940395,541575.099999994,7115,WL,C,13.0
4,32.72200012207031,learn,27277.999877929688,Tue Apr 01 2025 16:41:22 GMT-0500 (Central Daylight Time),542907.8999999762,A,cattle,O,e,66,1,1332.7999999821186,541575.099999994,7115,WL,C,13.0
4,33.73900008201599,learn,26260.99991798401,Tue Apr 01 2025 16:41:22 GMT-0500 (Central Daylight Time),543925.0,A,cattleenter,O,enter,1008,1,2349.9000000059605,541575.099999994,7115,WL,C,13.0
4,34.271000146865845,learn,25728.999853134155,Tue Apr 01 2025 16:41:22 GMT-0500 (Central Daylight Time),544457.099999994,A,b,O,b,512,1,531.9000000059605,543925.1999999881,7115,WL,C,14.0
4,34.37100005149841,learn,25628.999948501587,Tue Apr 01 2025 16:41:22 GMT-0500 (Central Daylight Time),544557.1999999881,A,bo,O,o,83,1,632.0,543925.1999999881,7115,WL,C,14.0
4,34.50600004196167,learn,25493.99995803833,Tue Apr 01 2025 16:41:22 GMT-0500 (Central Daylight Time),544691.5,A,bod,O,d,121,1,766.3000000119209,543925.1999999881,7115,WL,C,14.0
4,35.138999938964844,learn,24861.000061035156,Tue Apr 01 2025 16:41:22 GMT-0500 (Central Daylight Time),545324.8999999762,A,body,O,y,590,1,1399.699999988079,543925.1999999881,7115,WL,C,14.0
4,35.57100009918213,learn,24428.99990081787,Tue Apr 01 2025 16:41:22 GMT-0500 (Central Daylight Time),545756.7999999821,A,bodyenter,O,enter,399,1,1831.5999999940395,543925.1999999881,7115,WL,C,14.0
4,36.105000019073486,learn,23894.999980926514,Tue Apr 01 2025 16:41:22 GMT-0500 (Central Daylight Time),546290.8999999762,A,s,O,s,514,1,533.8999999761581,545757.0,7115,WL,C,15.0
4,36.1710000038147,learn,23828.999996185303,Tue Apr 01 2025 16:41:22 GMT-0500 (Central Daylight Time),546356.6999999881,A,sh,O,h,40,1,599.6999999880791,545757.0,7115,WL,C,15.0
4,36.3050000667572,learn,23694.999933242798,Tue Apr 01 2025 16:41:22 GMT-0500 (Central Daylight Time),546490.5,A,sho,O,o,120,1,733.5,545757.0,7115,WL,C,15.0
4,36.37100005149841,learn,23628.999948501587,Tue Apr 01 2025 16:41:22 GMT-0500 (Central Daylight Time),546556.8999999762,A,shor,O,r,34,1,799.8999999761581,545757.0,7115,WL,C,15.0
4,36.455000162124634,learn,23544.999837875366,Tue Apr 01 2025 16:41:22 GMT-0500 (Central Daylight Time),546640.3999999762,A,shore,O,e,57,1,883.3999999761581,545757.0,7115,WL,C,15.0
4,38.87000012397766,learn,21129.99987602234,Tue Apr 01 2025 16:41:22 GMT-0500 (Central Daylight Time),549055.6999999881,A,shoreenter,O,enter,2388,1,3298.699999988079,545757.0,7115,WL,C,15.0
5,2.115000009536743,learn,60000.0,Tue Apr 01 2025 16:41:22 GMT-0500 (Central Daylight Time),624547.7999999821,A,t,O,t,2074,1,2114.699999988079,622433.099999994,7115,WL,C,1.0
5,2.2160000801086426,learn,60000.0,Tue Apr 01 2025 16:41:22 GMT-0500 (Central Daylight Time),624648.1999999881,A,to,O,o,89,1,2215.0999999940395,622433.099999994,7115,WL,C,1.0
5,2.317000150680542,learn,60000.0,Tue Apr 01 2025 16:41:22 GMT-0500 (Central Daylight Time),624749.3999999762,A,tow,O,w,78,1,2316.2999999821186,622433.099999994,7115,WL,C,1.0
5,2.3980000019073486,learn,60000.0,Tue Apr 01 2025 16:41:22 GMT-0500 (Central Daylight Time),624830.6999999881,A,towe,O,e,46,1,2397.5999999940395,622433.099999994,7115,WL,C,1.0
5,2.5160000324249268,learn,60000.0,Tue Apr 01 2025 16:41:22 GMT-0500 (Central Daylight Time),624948.1999999881,A,tower,O,r,94,1,2515.0999999940395,622433.099999994,7115,WL,C,1.0
5,3.0980000495910645,learn,60000.0,Tue Apr 01 2025 16:41:22 GMT-0500 (Central Daylight Time),625530.599999994,A,towerenter,O,enter,542,1,3097.5,622433.099999994,7115,WL,C,1.0
5,3.7990000247955322,learn,60000.0,Tue Apr 01 2025 16:41:22 GMT-0500 (Central Daylight Time),626231.2999999821,A,w,O,w,693,1,700.5,625530.7999999821,7115,WL,C,2.0
5,3.932000160217285,learn,60000.0,Tue Apr 01 2025 16:41:22 GMT-0500 (Central Daylight Time),626364.2999999821,A,wh,O,h,92,1,833.5,625530.7999999821,7115,WL,C,2.0
5,3.998000144958496,learn,60000.0,Tue Apr 01 2025 16:41:22 GMT-0500 (Central Daylight Time),626430.6999999881,A,whe,O,e,38,1,899.9000000059605,625530.7999999821,7115,WL,C,2.0
5,4.115000009536743,learn,60000.0,Tue Apr 01 2025 16:41:22 GMT-0500 (Central Daylight Time),626547.6999999881,A,whea,O,a,99,1,1016.9000000059605,625530.7999999821,7115,WL,C,2.0
5,4.215000152587891,learn,60000.0,Tue Apr 01 2025 16:41:22 GMT-0500 (Central Daylight Time),626647.0,A,wheat,O,t,64,1,1116.2000000178814,625530.7999999821,7115,WL,C,2.0
5,4.715000152587891,learn,60000.0,Tue Apr 01 2025 16:41:22 GMT-0500 (Central Daylight Time),627146.8999999762,A,wheatenter,O,enter,476,1,1616.0999999940395,625530.7999999821,7115,WL,C,2.0
5,5.098999977111816,learn,60000.0,Tue Apr 01 2025 16:41:22 GMT-0500 (Central Daylight Time),627530.8999999762,A,q,O,q,362,1,383.69999998807907,627147.1999999881,7115,WL,C,3.0
5,5.299000024795532,learn,60000.0,Tue Apr 01 2025 16:41:22 GMT-0500 (Central Daylight Time),627730.8999999762,A,qu,O,u,179,1,583.6999999880791,627147.1999999881,7115,WL,C,3.0
5,5.465000152587891,learn,60000.0,Tue Apr 01 2025 16:41:22 GMT-0500 (Central Daylight Time),627897.599999994,A,que,O,e,136,1,750.4000000059605,627147.1999999881,7115,WL,C,3.0
5,5.5980000495910645,learn,60000.0,Tue Apr 01 2025 16:41:22 GMT-0500 (Central Daylight Time),628030.5,A,quee,O,e,107,1,883.3000000119209,627147.1999999881,7115,WL,C,3.0
5,5.832000017166138,learn,60000.0,Tue Apr 01 2025 16:41:22 GMT-0500 (Central Daylight Time),628264.099999994,A,queen,O,n,206,1,1116.9000000059605,627147.1999999881,7115,WL,C,3.0
5,6.430999994277954,learn,60000.0,Tue Apr 01 2025 16:41:22 GMT-0500 (Central Daylight Time),628862.8999999762,A,queenenter,O,enter,566,1,1715.699999988079,627147.1999999881,7115,WL,C,3.0
5,6.914999961853027,learn,60000.0,Tue Apr 01 2025 16:41:22 GMT-0500 (Central Daylight Time),629346.8999999762,A,s,O,s,472,1,483.69999998807907,628863.1999999881,7115,WL,C,4.0
5,6.998000144958496,learn,60000.0,Tue Apr 01 2025 16:41:22 GMT-0500 (Central Daylight Time),629430.0,A,su,O,u,60,1,566.8000000119209,628863.1999999881,7115,WL,C,4.0
5,7.231000185012817,learn,60000.0,Tue Apr 01 2025 16:41:22 GMT-0500 (Central Daylight Time),629663.6999999881,A,sug,O,g,199,1,800.5,628863.1999999881,7115,WL,C,4.0
5,7.430999994277954,learn,60000.0,Tue Apr 01 2025 16:41:22 GMT-0500 (Central Daylight Time),629863.5,A,suga,O,a,163,1,1000.3000000119209,628863.1999999881,7115,WL,C,4.0
5,7.514000177383423,learn,60000.0,Tue Apr 01 2025 16:41:22 GMT-0500 (Central Daylight Time),629945.8999999762,A,sugar,O,r,49,1,1082.699999988079,628863.1999999881,7115,WL,C,4.0
5,8.496999979019165,learn,60000.0,Tue Apr 01 2025 16:41:22 GMT-0500 (Central Daylight Time),630928.7999999821,A,sugarenter,O,enter,965,1,2065.5999999940395,628863.1999999881,7115,WL,C,4.0
5,9.380000114440918,learn,60000.0,Tue Apr 01 2025 16:41:22 GMT-0500 (Central Daylight Time),631812.6999999881,A,h,O,h,877,1,883.5999999940395,630929.099999994,7115,WL,C,5.0
5,9.54800009727478,learn,60000.0,Tue Apr 01 2025 16:41:22 GMT-0500 (Central Daylight Time),631980.1999999881,A,ho,O,o,137,1,1051.0999999940395,630929.099999994,7115,WL,C,5.0
5,9.69700002670288,learn,60000.0,Tue Apr 01 2025 16:41:22 GMT-0500 (Central Daylight Time),632129.3999999762,A,hom,O,m,113,1,1200.2999999821186,630929.099999994,7115,WL,C,5.0
5,9.980000019073486,learn,60000.0,Tue Apr 01 2025 16:41:22 GMT-0500 (Central Daylight Time),632412.7999999821,A,home,O,e,243,1,1483.699999988079,630929.099999994,7115,WL,C,5.0
5,10.580000162124634,learn,60000.0,Tue Apr 01 2025 16:41:22 GMT-0500 (Central Daylight Time),633012.3999999762,A,homeenter,O,enter,558,1,2083.2999999821186,630929.099999994,7115,WL,C,5.0
5,11.097000122070312,learn,60000.0,Tue Apr 01 2025 16:41:22 GMT-0500 (Central Daylight Time),633529.0,A,b,O,b,498,1,516.3000000119209,633012.6999999881,7115,WL,C,6.0
5,11.196000099182129,learn,60000.0,Tue Apr 01 2025 16:41:22 GMT-0500 (Central Daylight Time),633628.2999999821,A,bo,O,o,66,1,615.5999999940395,633012.6999999881,7115,WL,C,6.0
5,11.330000162124634,learn,60000.0,Tue Apr 01 2025 16:41:22 GMT-0500 (Central Daylight Time),633762.2999999821,A,boy,O,y,117,1,749.5999999940395,633012.6999999881,7115,WL,C,6.0
5,12.129000186920166,learn,60000.0,Tue Apr 01 2025 16:41:22 GMT-0500 (Central Daylight Time),634561.099999994,A,boyenter,O,enter,761,1,1548.4000000059605,633012.6999999881,7115,WL,C,6.0
5,12.61300015449524,learn,60000.0,Tue Apr 01 2025 16:41:22 GMT-0500 (Central Daylight Time),635045.7999999821,A,d,O,d,478,1,484.40000000596046,634561.3999999762,7115,WL,C,7.0
5,12.730000019073486,learn,60000.0,Tue Apr 01 2025 16:41:22 GMT-0500 (Central Daylight Time),635162.0,A,do,O,o,84,1,600.6000000238419,634561.3999999762,7115,WL,C,7.0
5,12.828999996185303,learn,60000.0,Tue Apr 01 2025 16:41:22 GMT-0500 (Central Daylight Time),635261.599999994,A,doc,O,c,76,1,700.2000000178814,634561.3999999762,7115,WL,C,7.0
5,13.02999997138977,learn,60000.0,Tue Apr 01 2025 16:41:22 GMT-0500 (Central Daylight Time),635462.099999994,A,doct,O,t,174,1,900.7000000178814,634561.3999999762,7115,WL,C,7.0
5,13.163000106811523,learn,60000.0,Tue Apr 01 2025 16:41:22 GMT-0500 (Central Daylight Time),635595.099999994,A,docto,O,o,96,1,1033.7000000178814,634561.3999999762,7115,WL,C,7.0
5,13.279000043869019,learn,60000.0,Tue Apr 01 2025 16:41:22 GMT-0500 (Central Daylight Time),635711.599999994,A,doctor,O,r,82,1,1150.2000000178814,634561.3999999762,7115,WL,C,7.0
5,13.745000123977661,learn,60000.0,Tue Apr 01 2025 16:41:22 GMT-0500 (Central Daylight Time),636177.1999999881,A,doctorenter,O,enter,435,1,1615.800000011921,634561.3999999762,7115,WL,C,7.0
5,14.02999997138977,learn,60000.0,Tue Apr 01 2025 16:41:22 GMT-0500 (Central Daylight Time),636462.0,A,c,O,c,277,1,284.5,636177.5,7115,WL,C,8.0
5,14.111999988555908,learn,60000.0,Tue Apr 01 2025 16:41:22 GMT-0500 (Central Daylight Time),636544.1999999881,A,ca,O,a,53,1,366.69999998807907,636177.5,7115,WL,C,8.0
5,14.246000051498413,learn,60000.0,Tue Apr 01 2025 16:41:22 GMT-0500 (Central Daylight Time),636678.0,A,cam,O,m,112,1,500.5,636177.5,7115,WL,C,8.0
5,14.379000186920166,learn,60000.0,Tue Apr 01 2025 16:41:22 GMT-0500 (Central Daylight Time),636811.1999999881,A,camp,O,p,94,1,633.6999999880791,636177.5,7115,WL,C,8.0
5,15.028000116348267,learn,60000.0,Tue Apr 01 2025 16:41:22 GMT-0500 (Central Daylight Time),637460.0,A,campenter,O,enter,617,1,1282.5,636177.5,7115,WL,C,8.0
5,15.796000003814697,learn,60000.0,Tue Apr 01 2025 16:41:22 GMT-0500 (Central Daylight Time),638227.8999999762,A,l,O,l,745,1,767.5999999940395,637460.2999999821,7115,WL,C,9.0
5,15.878000020980835,learn,60000.0,Tue Apr 01 2025 16:41:22 GMT-0500 (Central Daylight Time),638310.6999999881,A,le,O,e,55,1,850.4000000059605,637460.2999999821,7115,WL,C,9.0
5,15.978000164031982,learn,60000.0,Tue Apr 01 2025 16:41:22 GMT-0500 (Central Daylight Time),638410.599999994,A,let,O,t,82,1,950.3000000119209,637460.2999999821,7115,WL,C,9.0
5,16.16200017929077,learn,60000.0,Tue Apr 01 2025 16:41:22 GMT-0500 (Central Daylight Time),638594.1999999881,A,lett,O,t,152,1,1133.9000000059605,637460.2999999821,7115,WL,C,9.0
5,16.294000148773193,learn,60000.0,Tue Apr 01 2025 16:41:22 GMT-0500 (Central Daylight Time),638726.7999999821,A,lette,O,e,105,1,1266.5,637460.2999999821,7115,WL,C,9.0
5,16.361000061035156,learn,60000.0,Tue Apr 01 2025 16:41:22 GMT-0500 (Central Daylight Time),638793.3999999762,A,letter,O,r,39,1,1333.0999999940395,637460.2999999821,7115,WL,C,9.0
5,16.527000188827515,learn,60000.0,Tue Apr 01 2025 16:41:22 GMT-0500 (Central Daylight Time),638959.3999999762,A,letterenter,O,enter,140,1,1499.0999999940395,637460.2999999821,7115,WL,C,9.0
5,17.66100001335144,learn,60000.0,Tue Apr 01 2025 16:41:22 GMT-0500 (Central Daylight Time),640093.1999999881,A,n,O,n,1112,1,1133.5,638959.6999999881,7115,WL,C,10.0
5,17.759999990463257,learn,60000.0,Tue Apr 01 2025 16:41:22 GMT-0500 (Central Daylight Time),640192.6999999881,A,na,O,a,61,1,1233.0,638959.6999999881,7115,WL,C,10.0
5,17.878000020980835,learn,60000.0,Tue Apr 01 2025 16:41:22 GMT-0500 (Central Daylight Time),640310.2999999821,A,nai,O,i,107,1,1350.5999999940395,638959.6999999881,7115,WL,C,10.0
5,17.960999965667725,learn,60000.0,Tue Apr 01 2025 16:41:22 GMT-0500 (Central Daylight Time),640392.8999999762,A,nail,O,l,66,1,1433.199999988079,638959.6999999881,7115,WL,C,10.0
5,18.509999990463257,learn,60000.0,Tue Apr 01 2025 16:41:22 GMT-0500 (Central Daylight Time),640942.2999999821,A,nailenter,O,enter,527,1,1982.5999999940395,638959.6999999881,7115,WL,C,10.0
5,19.111000061035156,learn,60000.0,Tue Apr 01 2025 16:41:22 GMT-0500 (Central Daylight Time),641543.2999999821,A,c,O,c,585,1,600.7999999821186,640942.5,7115,WL,C,11.0
5,19.22699999809265,learn,60000.0,Tue Apr 01 2025 16:41:22 GMT-0500 (Central Daylight Time),641659.7999999821,A,co,O,o,84,1,717.2999999821186,640942.5,7115,WL,C,11.0
5,19.31000018119812,learn,60000.0,Tue Apr 01 2025 16:41:22 GMT-0500 (Central Daylight Time),641741.7999999821,A,cor,O,r,55,1,799.2999999821186,640942.5,7115,WL,C,11.0
5,19.460999965667725,learn,60000.0,Tue Apr 01 2025 16:41:22 GMT-0500 (Central Daylight Time),641893.6999999881,A,corn,O,n,145,1,951.1999999880791,640942.5,7115,WL,C,11.0
5,20.325999975204468,learn,60000.0,Tue Apr 01 2025 16:41:22 GMT-0500 (Central Daylight Time),642758.2999999821,A,cornenter,O,enter,838,1,1815.7999999821186,640942.5,7115,WL,C,11.0
5,22.276000022888184,learn,60000.0,Tue Apr 01 2025 16:41:22 GMT-0500 (Central Daylight Time),644708.599999994,A,f,O,f,1937,1,1950.0,642758.599999994,7115,WL,C,12.0
5,22.409000158309937,learn,60000.0,Tue Apr 01 2025 16:41:22 GMT-0500 (Central Daylight Time),644841.5,A,fl,O,l,98,1,2082.9000000059605,642758.599999994,7115,WL,C,12.0
5,22.45900011062622,learn,60000.0,Tue Apr 01 2025 16:41:22 GMT-0500 (Central Daylight Time),644891.0,A,fla,O,a,25,1,2132.4000000059605,642758.599999994,7115,WL,C,12.0
5,22.676000118255615,learn,60000.0,Tue Apr 01 2025 16:41:22 GMT-0500 (Central Daylight Time),645108.2999999821,A,flag,O,g,192,1,2349.699999988079,642758.599999994,7115,WL,C,12.0
5,23.242000102996826,learn,60000.0,Tue Apr 01 2025 16:41:22 GMT-0500 (Central Daylight Time),645674.099999994,A,flagenter,O,enter,528,1,2915.5,642758.599999994,7115,WL,C,12.0
5,23.593000173568726,learn,60000.0,Tue Apr 01 2025 16:41:22 GMT-0500 (Central Daylight Time),646025.1999999881,A,c,O,c,333,1,350.80000001192093,645674.3999999762,7115,WL,C,13.0
5,23.675000190734863,learn,60000.0,Tue Apr 01 2025 16:41:22 GMT-0500 (Central Daylight Time),646107.099999994,A,ca,O,a,42,1,432.7000000178814,645674.3999999762,7115,WL,C,13.0
5,23.79200005531311,learn,60000.0,Tue Apr 01 2025 16:41:22 GMT-0500 (Central Daylight Time),646224.3999999762,A,cat,O,t,105,1,550.0,645674.3999999762,7115,WL,C,13.0
5,23.95900011062622,learn,60000.0,Tue Apr 01 2025 16:41:22 GMT-0500 (Central Daylight Time),646391.2999999821,A,catt,O,t,140,1,716.9000000059605,645674.3999999762,7115,WL,C,13.0
5,24.093000173568726,learn,60000.0,Tue Apr 01 2025 16:41:22 GMT-0500 (Central Daylight Time),646525.6999999881,A,cattl,O,l,94,1,851.3000000119209,645674.3999999762,7115,WL,C,13.0
5,24.20900011062622,learn,60000.0,Tue Apr 01 2025 16:41:22 GMT-0500 (Central Daylight Time),646641.0,A,cattle,O,e,79,1,966.6000000238419,645674.3999999762,7115,WL,C,13.0
5,24.591000080108643,learn,60000.0,Tue Apr 01 2025 16:41:22 GMT-0500 (Central Daylight Time),647023.599999994,A,cattleenter,O,enter,351,1,1349.2000000178814,645674.3999999762,7115,WL,C,13.0
5,24.858999967575073,learn,60000.0,Tue Apr 01 2025 16:41:22 GMT-0500 (Central Daylight Time),647291.1999999881,A,c,O,c,256,1,267.40000000596046,647023.7999999821,7115,WL,C,14.0
5,24.95800018310547,learn,60000.0,Tue Apr 01 2025 16:41:22 GMT-0500 (Central Daylight Time),647390.2999999821,A,co,O,o,63,1,366.5,647023.7999999821,7115,WL,C,14.0
5,25.04100012779236,learn,60000.0,Tue Apr 01 2025 16:41:22 GMT-0500 (Central Daylight Time),647473.5,A,cor,O,r,55,1,449.7000000178814,647023.7999999821,7115,WL,C,14.0
5,25.20800018310547,learn,60000.0,Tue Apr 01 2025 16:41:22 GMT-0500 (Central Daylight Time),647640.6999999881,A,corn,O,n,151,1,616.9000000059605,647023.7999999821,7115,WL,C,14.0
5,25.874000072479248,learn,60000.0,Tue Apr 01 2025 16:41:22 GMT-0500 (Central Daylight Time),648306.5,A,cornenter,O,enter,634,1,1282.7000000178814,647023.7999999821,7115,WL,C,14.0
5,28.175000190734863,learn,60000.0,Tue Apr 01 2025 16:41:22 GMT-0500 (Central Daylight Time),650606.8999999762,A,b,O,b,2285,1,2300.0999999940395,648306.7999999821,7115,WL,C,15.0
5,28.27400016784668,learn,60000.0,Tue Apr 01 2025 16:41:22 GMT-0500 (Central Daylight Time),650705.8999999762,A,bo,O,o,59,1,2399.0999999940395,648306.7999999821,7115,WL,C,15.0
5,28.44099998474121,learn,60000.0,Tue Apr 01 2025 16:41:22 GMT-0500 (Central Daylight Time),650873.2999999821,A,bod,O,d,147,1,2566.5,648306.7999999821,7115,WL,C,15.0
5,28.591000080108643,learn,60000.0,Tue Apr 01 2025 16:41:22 GMT-0500 (Central Daylight Time),651023.2999999821,A,body,O,y,114,1,2716.5,648306.7999999821,7115,WL,C,15.0
5,29.006999969482422,learn,60000.0,Tue Apr 01 2025 16:41:22 GMT-0500 (Central Daylight Time),651438.7999999821,A,bodyenter,O,enter,379,1,3132.0,648306.7999999821,7115,WL,C,15.0
6,0.9000000953674316,distr,59099.99990463257,Tue Apr 01 2025 16:41:22 GMT-0500 (Central Daylight Time),732113.5,B,s,O,s,872,1,899.4000000059605,731214.099999994,7115,WL,C,1.0
6,1.0329999923706055,distr,58967.000007629395,Tue Apr 01 2025 16:41:22 GMT-0500 (Central Daylight Time),732246.6999999881,B,sk,O,k,98,1,1032.5999999940395,731214.099999994,7115,WL,C,1.0
6,1.2999999523162842,distr,58700.000047683716,Tue Apr 01 2025 16:41:22 GMT-0500 (Central Daylight Time),732513.7999999821,B,sky,O,y,233,1,1299.699999988079,731214.099999994,7115,WL,C,1.0
6,1.8320000171661377,distr,58167.99998283386,Tue Apr 01 2025 16:41:22 GMT-0500 (Central Daylight Time),733045.3999999762,B,skyenter,O,enter,498,1,1831.2999999821186,731214.099999994,7115,WL,C,1.0
6,2.4000000953674316,distr,57599.99990463257,Tue Apr 01 2025 16:41:22 GMT-0500 (Central Daylight Time),733613.8999999762,B,d,O,d,562,1,568.2999999821186,733045.599999994,7115,WL,C,2.0
6,2.4820001125335693,distr,57517.99988746643,Tue Apr 01 2025 16:41:22 GMT-0500 (Central Daylight Time),733695.2999999821,B,do,O,o,52,1,649.6999999880791,733045.599999994,7115,WL,C,2.0
6,2.749000072479248,distr,57250.99992752075,Tue Apr 01 2025 16:41:22 GMT-0500 (Central Daylight Time),733962.599999994,B,dol,O,l,252,1,917.0,733045.599999994,7115,WL,C,2.0
6,2.881999969482422,distr,57118.00003051758,Tue Apr 01 2025 16:41:22 GMT-0500 (Central Daylight Time),734095.6999999881,B,doll,O,l,105,1,1050.0999999940395,733045.599999994,7115,WL,C,2.0
6,3.0169999599456787,distr,56983.00004005432,Tue Apr 01 2025 16:41:22 GMT-0500 (Central Daylight Time),734229.7999999821,B,dolla,O,a,107,1,1184.199999988079,733045.599999994,7115,WL,C,2.0
6,3.1659998893737793,distr,56834.00011062622,Tue Apr 01 2025 16:41:22 GMT-0500 (Central Daylight Time),734379.099999994,B,dollar,O,r,117,1,1333.5,733045.599999994,7115,WL,C,2.0
6,3.5820000171661377,distr,56417.99998283386,Tue Apr 01 2025 16:41:22 GMT-0500 (Central Daylight Time),734794.8999999762,B,dollarenter,O,enter,379,1,1749.2999999821186,733045.599999994,7115,WL,C,2.0
6,3.9820001125335693,distr,56017.99988746643,Tue Apr 01 2025 16:41:22 GMT-0500 (Central Daylight Time),735195.599999994,B,v,O,v,384,1,400.5,734795.099999994,7115,WL,C,3.0
6,4.065000057220459,distr,55934.99994277954,Tue Apr 01 2025 16:41:22 GMT-0500 (Central Daylight Time),735278.1999999881,B,va,O,a,47,1,483.09999999403954,734795.099999994,7115,WL,C,3.0
6,4.197999954223633,distr,55802.00004577637,Tue Apr 01 2025 16:41:22 GMT-0500 (Central Daylight Time),735411.6999999881,B,val,O,l,117,1,616.5999999940395,734795.099999994,7115,WL,C,3.0
6,4.3480000495910645,distr,55651.999950408936,Tue Apr 01 2025 16:41:22 GMT-0500 (Central Daylight Time),735561.7999999821,B,vall,O,l,117,1,766.6999999880791,734795.099999994,7115,WL,C,3.0
6,4.664999961853027,distr,55335.00003814697,Tue Apr 01 2025 16:41:22 GMT-0500 (Central Daylight Time),735878.5,B,valle,O,e,292,1,1083.4000000059605,734795.099999994,7115,WL,C,3.0
6,4.848999977111816,distr,55151.00002288818,Tue Apr 01 2025 16:41:22 GMT-0500 (Central Daylight Time),736062.099999994,B,valley,O,y,156,1,1267.0,734795.099999994,7115,WL,C,3.0
6,5.313999891281128,distr,54686.00010871887,Tue Apr 01 2025 16:41:22 GMT-0500 (Central Daylight Time),736527.599999994,B,valleyenter,O,enter,429,1,1732.5,734795.099999994,7115,WL,C,3.0
6,5.697999954223633,distr,54302.00004577637,Tue Apr 01 2025 16:41:22 GMT-0500 (Central Daylight Time),736911.5,B,b,O,b,368,1,383.7000000178814,736527.7999999821,7115,WL,C,4.0
6,5.7809998989105225,distr,54219.00010108948,Tue Apr 01 2025 16:41:22 GMT-0500 (Central Daylight Time),736994.0,B,bu,O,u,42,1,466.2000000178814,736527.7999999821,7115,WL,C,4.0
6,5.997999906539917,distr,54002.00009346008,Tue Apr 01 2025 16:41:22 GMT-0500 (Central Daylight Time),737211.7999999821,B,but,O,t,195,1,684.0,736527.7999999821,7115,WL,C,4.0
6,6.0980000495910645,distr,53901.999950408936,Tue Apr 01 2025 16:41:22 GMT-0500 (Central Daylight Time),737310.8999999762,B,butt,O,t,69,1,783.0999999940395,736527.7999999821,7115,WL,C,4.0
6,6.315000057220459,distr,53684.99994277954,Tue Apr 01 2025 16:41:22 GMT-0500 (Central Daylight Time),737528.0,B,butte,O,e,202,1,1000.2000000178814,736527.7999999821,7115,WL,C,4.0
6,6.38100004196167,distr,53618.99995803833,Tue Apr 01 2025 16:41:22 GMT-0500 (Central Daylight Time),737594.1999999881,B,butter,O,r,41,1,1066.4000000059605,736527.7999999821,7115,WL,C,4.0
6,7.130000114440918,distr,52869.99988555908,Tue Apr 01 2025 16:41:22 GMT-0500 (Central Daylight Time),738343.599999994,B,butterenter,O,enter,735,1,1815.800000011921,736527.7999999821,7115,WL,C,4.0
6,10.996999979019165,distr,49003.000020980835,Tue Apr 01 2025 16:41:22 GMT-0500 (Central Daylight Time),742210.0,B,v,O,v,3848,1,3866.100000023842,738343.8999999762,7115,WL,C,5.0
6,11.07200002670288,distr,48927.99997329712,Tue Apr 01 2025 16:41:22 GMT-0500 (Central Daylight Time),742285.0,B,va,O,a,33,1,3941.100000023842,738343.8999999762,7115,WL,C,5.0
6,11.19700002670288,distr,48802.99997329712,Tue Apr 01 2025 16:41:22 GMT-0500 (Central Daylight Time),742410.099999994,B,val,O,l,106,1,4066.2000000178814,738343.8999999762,7115,WL,C,5.0
6,11.413000106811523,distr,48586.99989318848,Tue Apr 01 2025 16:41:22 GMT-0500 (Central Daylight Time),742626.5,B,vall,O,l,179,1,4282.600000023842,738343.8999999762,7115,WL,C,5.0
6,11.579999923706055,distr,48420.000076293945,Tue Apr 01 2025 16:41:22 GMT-0500 (Central Daylight Time),742793.1999999881,B,valle,O,e,131,1,4449.300000011921,738343.8999999762,7115,WL,C,5.0
6,11.713000059127808,distr,48286.99994087219,Tue Apr 01 2025 16:41:22 GMT-0500 (Central Daylight Time),742926.2999999821,B,valley,O,y,99,1,4582.4000000059605,738343.8999999762,7115,WL,C,5.0
6,12.062000036239624,distr,47937.999963760376,Tue Apr 01 2025 16:41:22 GMT-0500 (Central Daylight Time),743275.2999999821,B,valleyenter,O,enter,321,1,4931.4000000059605,738343.8999999762,7115,WL,C,5.0
6,13.562000036239624,distr,46437.999963760376,Tue Apr 01 2025 16:41:22 GMT-0500 (Central Daylight Time),744775.599999994,B,t,O,t,1492,1,1500.0,743275.599999994,7115,WL,C,6.0
6,13.745000123977661,distr,46254.99987602234,Tue Apr 01 2025 16:41:22 GMT-0500 (Central Daylight Time),744958.0,B,to,O,o,146,1,1682.4000000059605,743275.599999994,7115,WL,C,6.0
6,13.894999980926514,distr,46105.000019073486,Tue Apr 01 2025 16:41:22 GMT-0500 (Central Daylight Time),745107.8999999762,B,too,O,o,142,1,1832.2999999821186,743275.599999994,7115,WL,C,6.0
6,14.26200008392334,distr,45737.99991607666,Tue Apr 01 2025 16:41:22 GMT-0500 (Central Daylight Time),745475.599999994,B,tool,O,l,355,1,2200.0,743275.599999994,7115,WL,C,6.0
6,14.760999917984009,distr,45239.00008201599,Tue Apr 01 2025 16:41:22 GMT-0500 (Central Daylight Time),745974.5,B,toolenter,O,enter,474,1,2698.9000000059605,743275.599999994,7115,WL,C,6.0
6,16.42799997329712,distr,43572.00002670288,Tue Apr 01 2025 16:41:22 GMT-0500 (Central Daylight Time),747641.599999994,B,m,O,m,1648,1,1666.800000011921,745974.7999999821,7115,WL,C,7.0
6,16.561000108718872,distr,43438.99989128113,Tue Apr 01 2025 16:41:22 GMT-0500 (Central Daylight Time),747773.7999999821,B,mo,O,o,105,1,1799.0,745974.7999999821,7115,WL,C,7.0
6,16.710000038146973,distr,43289.99996185303,Tue Apr 01 2025 16:41:22 GMT-0500 (Central Daylight Time),747923.6999999881,B,mon,O,n,126,1,1948.9000000059605,745974.7999999821,7115,WL,C,7.0
6,16.82699990272522,distr,43173.00009727478,Tue Apr 01 2025 16:41:22 GMT-0500 (Central Daylight Time),748040.2999999821,B,mone,O,e,96,1,2065.5,745974.7999999821,7115,WL,C,7.0
6,16.960000038146973,distr,43039.99996185303,Tue Apr 01 2025 16:41:22 GMT-0500 (Central Daylight Time),748173.6999999881,B,money,O,y,125,1,2198.9000000059605,745974.7999999821,7115,WL,C,7.0
6,17.49399995803833,distr,42506.00004196167,Tue Apr 01 2025 16:41:22 GMT-0500 (Central Daylight Time),748706.6999999881,B,moneyenter,O,enter,518,1,2731.9000000059605,745974.7999999821,7115,WL,C,7.0
6,17.97699999809265,distr,42023.00000190735,Tue Apr 01 2025 16:41:22 GMT-0500 (Central Daylight Time),749190.0,B,f,O,f,466,1,483.0,748707.0,7115,WL,C,8.0
6,18.05999994277954,distr,41940.00005722046,Tue Apr 01 2025 16:41:22 GMT-0500 (Central Daylight Time),749273.2999999821,B,fo,O,o,72,1,566.2999999821186,748707.0,7115,WL,C,8.0
6,18.210000038146973,distr,41789.99996185303,Tue Apr 01 2025 16:41:22 GMT-0500 (Central Daylight Time),749423.5,B,for,O,r,132,1,716.5,748707.0,7115,WL,C,8.0
6,18.30999994277954,distr,41690.00005722046,Tue Apr 01 2025 16:41:22 GMT-0500 (Central Daylight Time),749523.2999999821,B,fore,O,e,86,1,816.2999999821186,748707.0,7115,WL,C,8.0
6,18.693000078201294,distr,41306.999921798706,Tue Apr 01 2025 16:41:22 GMT-0500 (Central Daylight Time),749906.5,B,fores,O,s,361,1,1199.5,748707.0,7115,WL,C,8.0
6,18.842999935150146,distr,41157.00006484985,Tue Apr 01 2025 16:41:22 GMT-0500 (Central Daylight Time),750056.5,B,forest,O,t,129,1,1349.5,748707.0,7115,WL,C,8.0
6,19.210000038146973,distr,40789.99996185303,Tue Apr 01 2025 16:41:22 GMT-0500 (Central Daylight Time),750423.0,B,forestenter,O,enter,356,1,1716.0,748707.0,7115,WL,C,8.0
6,19.592999935150146,distr,40407.00006484985,Tue Apr 01 2025 16:41:22 GMT-0500 (Central Daylight Time),750806.1999999881,B,p,O,p,365,1,383.0,750423.1999999881,7115,WL,C,9.0
6,19.842999935150146,distr,40157.00006484985,Tue Apr 01 2025 16:41:22 GMT-0500 (Central Daylight Time),751056.1999999881,B,pl,O,l,230,1,633.0,750423.1999999881,7115,WL,C,9.0
6,19.943000078201294,distr,40056.999921798706,Tue Apr 01 2025 16:41:22 GMT-0500 (Central Daylight Time),751156.0,B,pla,O,a,76,1,732.8000000119209,750423.1999999881,7115,WL,C,9.0
6,20.042999982833862,distr,39957.00001716614,Tue Apr 01 2025 16:41:22 GMT-0500 (Central Daylight Time),751256.0,B,plan,O,n,90,1,832.8000000119209,750423.1999999881,7115,WL,C,9.0
6,20.20900011062622,distr,39790.99988937378,Tue Apr 01 2025 16:41:22 GMT-0500 (Central Daylight Time),751422.6999999881,B,plant,O,t,157,1,999.5,750423.1999999881,7115,WL,C,9.0
6,21.64199995994568,distr,38358.00004005432,Tue Apr 01 2025 16:41:22 GMT-0500 (Central Daylight Time),752855.1999999881,B,plantenter,O,enter,1413,1,2432.0,750423.1999999881,7115,WL,C,9.0
6,22.776000022888184,distr,37223.99997711182,Tue Apr 01 2025 16:41:22 GMT-0500 (Central Daylight Time),753989.6999999881,B,h,O,h,1119,1,1134.199999988079,752855.5,7115,WL,C,10.0
6,22.926000118255615,distr,37073.999881744385,Tue Apr 01 2025 16:41:22 GMT-0500 (Central Daylight Time),754139.1999999881,B,hl,O,l,110,1,1283.699999988079,752855.5,7115,WL,C,10.0
6,23.658999919891357,distr,36341.00008010864,Tue Apr 01 2025 16:41:22 GMT-0500 (Central Daylight Time),754872.599999994,B,h,O,backspace,705,1,2017.0999999940395,752855.5,7115,WL,C,10.0
6,23.79200005531311,distr,36207.99994468689,Tue Apr 01 2025 16:41:22 GMT-0500 (Central Daylight Time),755005.6999999881,B,ha,O,a,107,1,2150.199999988079,752855.5,7115,WL,C,10.0
6,23.993000030517578,distr,36006.99996948242,Tue Apr 01 2025 16:41:22 GMT-0500 (Central Daylight Time),755206.0,B,hal,O,l,173,1,2350.5,752855.5,7115,WL,C,10.0
6,24.158999919891357,distr,35841.00008010864,Tue Apr 01 2025 16:41:22 GMT-0500 (Central Daylight Time),755372.3999999762,B,hall,O,l,134,1,2516.899999976158,752855.5,7115,WL,C,10.0
6,24.407999992370605,distr,35592.000007629395,Tue Apr 01 2025 16:41:22 GMT-0500 (Central Daylight Time),755621.2999999821,B,hallenter,O,enter,215,1,2765.7999999821186,752855.5,7115,WL,C,10.0
6,25.05900001525879,distr,34940.99998474121,Tue Apr 01 2025 16:41:22 GMT-0500 (Central Daylight Time),756272.1999999881,B,h,O,h,633,1,650.5999999940395,755621.599999994,7115,WL,C,11.0
6,25.141000032424927,distr,34858.99996757507,Tue Apr 01 2025 16:41:22 GMT-0500 (Central Daylight Time),756354.1999999881,B,ho,O,o,52,1,732.5999999940395,755621.599999994,7115,WL,C,11.0
6,25.30900001525879,distr,34690.99998474121,Tue Apr 01 2025 16:41:22 GMT-0500 (Central Daylight Time),756521.7999999821,B,hot,O,t,148,1,900.1999999880791,755621.599999994,7115,WL,C,11.0
6,25.407999992370605,distr,34592.000007629395,Tue Apr 01 2025 16:41:22 GMT-0500 (Central Daylight Time),756621.099999994,B,hote,O,e,71,1,999.5,755621.599999994,7115,WL,C,11.0
6,25.54200005531311,distr,34457.99994468689,Tue Apr 01 2025 16:41:22 GMT-0500 (Central Daylight Time),756755.1999999881,B,hotel,O,l,110,1,1133.5999999940395,755621.599999994,7115,WL,C,11.0
6,26.341000080108643,distr,33658.99991989136,Tue Apr 01 2025 16:41:22 GMT-0500 (Central Daylight Time),757554.0,B,hotelenter,O,enter,763,1,1932.4000000059605,755621.599999994,7115,WL,C,11.0
6,31.19000005722046,distr,28809.99994277954,Tue Apr 01 2025 16:41:22 GMT-0500 (Central Daylight Time),762403.3999999762,B,m,O,m,4837,1,4849.0999999940395,757554.2999999821,7115,WL,C,12.0
6,31.322999954223633,distr,28677.000045776367,Tue Apr 01 2025 16:41:22 GMT-0500 (Central Daylight Time),762536.6999999881,B,mo,O,o,104,1,4982.4000000059605,757554.2999999821,7115,WL,C,12.0
6,31.456000089645386,distr,28543.999910354614,Tue Apr 01 2025 16:41:22 GMT-0500 (Central Daylight Time),762668.8999999762,B,mot,O,t,98,1,5114.5999999940395,757554.2999999821,7115,WL,C,12.0
6,31.572999954223633,distr,28427.000045776367,Tue Apr 01 2025 16:41:22 GMT-0500 (Central Daylight Time),762785.8999999762,B,moth,O,h,95,1,5231.5999999940395,757554.2999999821,7115,WL,C,12.0
6,31.655999898910522,distr,28344.000101089478,Tue Apr 01 2025 16:41:22 GMT-0500 (Central Daylight Time),762869.1999999881,B,mothe,O,e,58,1,5314.9000000059605,757554.2999999821,7115,WL,C,12.0
6,31.73900008201599,distr,28260.99991798401,Tue Apr 01 2025 16:41:22 GMT-0500 (Central Daylight Time),762952.099999994,B,mother,O,r,49,1,5397.800000011921,757554.2999999821,7115,WL,C,12.0
6,33.454999923706055,distr,26545.000076293945,Tue Apr 01 2025 16:41:22 GMT-0500 (Central Daylight Time),764668.2999999821,B,motherenter,O,enter,1680,1,7114.0,757554.2999999821,7115,WL,C,12.0
6,41.83699989318848,distr,18163.000106811523,Tue Apr 01 2025 16:41:22 GMT-0500 (Central Daylight Time),773049.6999999881,B,w,O,w,8363,1,8381.09999999404,764668.599999994,7115,WL,C,13.0
6,41.918999910354614,distr,18081.000089645386,Tue Apr 01 2025 16:41:22 GMT-0500 (Central Daylight Time),773132.1999999881,B,wi,O,i,32,1,8463.59999999404,764668.599999994,7115,WL,C,13.0
6,42.003000020980835,distr,17996.999979019165,Tue Apr 01 2025 16:41:22 GMT-0500 (Central Daylight Time),773215.6999999881,B,win,O,n,67,1,8547.09999999404,764668.599999994,7115,WL,C,13.0
6,42.069000005722046,distr,17930.999994277954,Tue Apr 01 2025 16:41:22 GMT-0500 (Central Daylight Time),773282.099999994,B,wint,O,t,37,1,8613.5,764668.599999994,7115,WL,C,13.0
6,42.18600010871887,distr,17813.999891281128,Tue Apr 01 2025 16:41:22 GMT-0500 (Central Daylight Time),773399.099999994,B,winte,O,e,106,1,8730.5,764668.599999994,7115,WL,C,13.0
6,42.30399990081787,distr,17696.00009918213,Tue Apr 01 2025 16:41:22 GMT-0500 (Central Daylight Time),773517.0,B,winter,O,r,82,1,8848.40000000596,764668.599999994,7115,WL,C,13.0
6,42.65300011634827,distr,17346.999883651733,Tue Apr 01 2025 16:41:22 GMT-0500 (Central Daylight Time),773865.2999999821,B,winterenter,O,enter,318,1,9196.699999988079,764668.599999994,7115,WL,C,13.0
6,45.65300011634827,distr,14346.999883651733,Tue Apr 01 2025 16:41:22 GMT-0500 (Central Daylight Time),776865.5,B,c,O,c,2990,1,2999.9000000059605,773865.599999994,7115,WL,C,14.0
6,45.734999895095825,distr,14265.000104904175,Tue Apr 01 2025 16:41:22 GMT-0500 (Central Daylight Time),776948.0,B,ch,O,h,56,1,3082.4000000059605,773865.599999994,7115,WL,C,14.0
6,45.95300006866455,distr,14046.99993133545,Tue Apr 01 2025 16:41:22 GMT-0500 (Central Daylight Time),777165.6999999881,B,chr,O,r,209,1,3300.0999999940395,773865.599999994,7115,WL,C,14.0
6,46.03500008583069,distr,13964.999914169312,Tue Apr 01 2025 16:41:22 GMT-0500 (Central Daylight Time),777247.599999994,B,chri,O,i,46,1,3382.0,773865.599999994,7115,WL,C,14.0
6,46.15300011634827,distr,13846.999883651733,Tue Apr 01 2025 16:41:22 GMT-0500 (Central Daylight Time),777365.8999999762,B,chris,O,s,104,1,3500.2999999821186,773865.599999994,7115,WL,C,14.0
6,46.30299997329712,distr,13697.00002670288,Tue Apr 01 2025 16:41:22 GMT-0500 (Central Daylight Time),777515.2999999821,B,christ,O,t,115,1,3649.699999988079,773865.599999994,7115,WL,C,14.0
6,46.569000005722046,distr,13430.999994277954,Tue Apr 01 2025 16:41:22 GMT-0500 (Central Daylight Time),777781.6999999881,B,christm,O,m,237,1,3916.0999999940395,773865.599999994,7115,WL,C,14.0
6,46.68499994277954,distr,13315.000057220459,Tue Apr 01 2025 16:41:22 GMT-0500 (Central Daylight Time),777897.7999999821,B,christma,O,a,79,1,4032.199999988079,773865.599999994,7115,WL,C,14.0
6,46.88499999046326,distr,13115.000009536743,Tue Apr 01 2025 16:41:22 GMT-0500 (Central Daylight Time),778098.1999999881,B,christmas,O,s,178,1,4232.5999999940395,773865.599999994,7115,WL,C,14.0
6,47.3510000705719,distr,12648.9999294281,Tue Apr 01 2025 16:41:22 GMT-0500 (Central Daylight Time),778563.8999999762,B,christmasenter,O,enter,443,1,4698.299999982119,773865.599999994,7115,WL,C,14.0
6,60.015000104904175,distr,-15.000104904174805,Tue Apr 01 2025 16:41:22 GMT-0500 (Central Daylight Time),791227.3999999762,B,None,O,None,12656,1,12663.199999988079,778564.1999999881,7115,WL,C,15.0
7,1.431999921798706,immed,58568.000078201294,Tue Apr 01 2025 16:41:22 GMT-0500 (Central Daylight Time),804806.2999999821,A,t,O,t,1402,1,1432.2999999821186,803374.0,7115,WL,C,1.0
7,1.5320000648498535,immed,58467.99993515015,Tue Apr 01 2025 16:41:22 GMT-0500 (Central Daylight Time),804905.5,A,to,O,o,67,1,1531.5,803374.0,7115,WL,C,1.0
7,1.6480000019073486,immed,58351.99999809265,Tue Apr 01 2025 16:41:22 GMT-0500 (Central Daylight Time),805022.0,A,tow,O,w,94,1,1648.0,803374.0,7115,WL,C,1.0
7,1.7320001125335693,immed,58267.99988746643,Tue Apr 01 2025 16:41:22 GMT-0500 (Central Daylight Time),805105.599999994,A,towe,O,e,58,1,1731.5999999940395,803374.0,7115,WL,C,1.0
7,1.8489999771118164,immed,58151.00002288818,Tue Apr 01 2025 16:41:22 GMT-0500 (Central Daylight Time),805222.7999999821,A,tower,O,r,87,1,1848.7999999821186,803374.0,7115,WL,C,1.0
7,2.5980000495910645,immed,57401.999950408936,Tue Apr 01 2025 16:41:22 GMT-0500 (Central Daylight Time),805971.2999999821,A,towerenter,O,enter,708,1,2597.2999999821186,803374.0,7115,WL,C,1.0
7,3.2320001125335693,immed,56767.99988746643,Tue Apr 01 2025 16:41:22 GMT-0500 (Central Daylight Time),806605.6999999881,A,w,O,w,620,1,634.0999999940395,805971.599999994,7115,WL,C,2.0
7,3.365000009536743,immed,56634.99999046326,Tue Apr 01 2025 16:41:22 GMT-0500 (Central Daylight Time),806739.0,A,wh,O,h,103,1,767.4000000059605,805971.599999994,7115,WL,C,2.0
7,3.4210000038146973,immed,56578.9999961853,Tue Apr 01 2025 16:41:22 GMT-0500 (Central Daylight Time),806794.599999994,A,whe,O,e,10,1,823.0,805971.599999994,7115,WL,C,2.0
7,3.5309998989105225,immed,56469.00010108948,Tue Apr 01 2025 16:41:22 GMT-0500 (Central Daylight Time),806905.099999994,A,whea,O,a,90,1,933.5,805971.599999994,7115,WL,C,2.0
7,3.6480000019073486,immed,56351.99999809265,Tue Apr 01 2025 16:41:22 GMT-0500 (Central Daylight Time),807021.7999999821,A,wheat,O,t,91,1,1050.199999988079,805971.599999994,7115,WL,C,2.0
7,4.313999891281128,immed,55686.00010871887,Tue Apr 01 2025 16:41:22 GMT-0500 (Central Daylight Time),807687.599999994,A,wheatenter,O,enter,629,1,1716.0,805971.599999994,7115,WL,C,2.0
7,4.832000017166138,immed,55167.99998283386,Tue Apr 01 2025 16:41:22 GMT-0500 (Central Daylight Time),808205.2999999821,A,q,O,q,495,1,517.5,807687.7999999821,7115,WL,C,3.0
7,4.9649999141693115,immed,55035.00008583069,Tue Apr 01 2025 16:41:22 GMT-0500 (Central Daylight Time),808338.5,A,qu,O,u,100,1,650.7000000178814,807687.7999999821,7115,WL,C,3.0
7,5.114000082015991,immed,54885.99991798401,Tue Apr 01 2025 16:41:22 GMT-0500 (Central Daylight Time),808488.1999999881,A,que,O,e,121,1,800.4000000059605,807687.7999999821,7115,WL,C,3.0
7,5.247999906539917,immed,54752.00009346008,Tue Apr 01 2025 16:41:22 GMT-0500 (Central Daylight Time),808621.5,A,quee,O,e,92,1,933.7000000178814,807687.7999999821,7115,WL,C,3.0
7,5.398000001907349,immed,54601.99999809265,Tue Apr 01 2025 16:41:22 GMT-0500 (Central Daylight Time),808771.3999999762,A,queen,O,n,112,1,1083.5999999940395,807687.7999999821,7115,WL,C,3.0
7,5.86299991607666,immed,54137.00008392334,Tue Apr 01 2025 16:41:22 GMT-0500 (Central Daylight Time),809237.0,A,queenenter,O,enter,429,1,1549.2000000178814,807687.7999999821,7115,WL,C,3.0
7,6.21399998664856,immed,53786.00001335144,Tue Apr 01 2025 16:41:22 GMT-0500 (Central Daylight Time),809588.099999994,A,s,O,s,330,1,350.80000001192093,809237.2999999821,7115,WL,C,4.0
7,6.296000003814697,immed,53703.9999961853,Tue Apr 01 2025 16:41:22 GMT-0500 (Central Daylight Time),809670.099999994,A,su,O,u,46,1,432.80000001192093,809237.2999999821,7115,WL,C,4.0
7,6.414000034332275,immed,53585.999965667725,Tue Apr 01 2025 16:41:22 GMT-0500 (Central Daylight Time),809787.5,A,sug,O,g,100,1,550.2000000178814,809237.2999999821,7115,WL,C,4.0
7,6.563999891281128,immed,53436.00010871887,Tue Apr 01 2025 16:41:22 GMT-0500 (Central Daylight Time),809937.8999999762,A,suga,O,a,122,1,700.5999999940395,809237.2999999821,7115,WL,C,4.0
7,6.680999994277954,immed,53319.000005722046,Tue Apr 01 2025 16:41:22 GMT-0500 (Central Daylight Time),810054.2999999821,A,sugar,O,r,91,1,817.0,809237.2999999821,7115,WL,C,4.0
7,7.663000106811523,immed,52336.99989318848,Tue Apr 01 2025 16:41:22 GMT-0500 (Central Daylight Time),811036.3999999762,A,sugarenter,O,enter,941,1,1799.0999999940395,809237.2999999821,7115,WL,C,4.0
7,8.19700002670288,immed,51802.99997329712,Tue Apr 01 2025 16:41:22 GMT-0500 (Central Daylight Time),811570.6999999881,A,b,O,b,515,1,534.0999999940395,811036.599999994,7115,WL,C,5.0
7,8.27999997138977,immed,51720.00002861023,Tue Apr 01 2025 16:41:22 GMT-0500 (Central Daylight Time),811653.3999999762,A,bo,O,o,49,1,616.7999999821186,811036.599999994,7115,WL,C,5.0
7,8.413000106811523,immed,51586.99989318848,Tue Apr 01 2025 16:41:22 GMT-0500 (Central Daylight Time),811787.2999999821,A,boy,O,y,113,1,750.6999999880791,811036.599999994,7115,WL,C,5.0
7,9.161999940872192,immed,50838.00005912781,Tue Apr 01 2025 16:41:22 GMT-0500 (Central Daylight Time),812536.0,A,boyenter,O,enter,718,1,1499.4000000059605,811036.599999994,7115,WL,C,5.0
7,9.680000066757202,immed,50319.9999332428,Tue Apr 01 2025 16:41:22 GMT-0500 (Central Daylight Time),813053.3999999762,A,d,O,d,503,1,517.0999999940395,812536.2999999821,7115,WL,C,6.0
7,9.746000051498413,immed,50253.99994850159,Tue Apr 01 2025 16:41:22 GMT-0500 (Central Daylight Time),813119.2999999821,A,do,O,o,35,1,583.0,812536.2999999821,7115,WL,C,6.0
7,9.879999876022339,immed,50120.00012397766,Tue Apr 01 2025 16:41:22 GMT-0500 (Central Daylight Time),813253.3999999762,A,doc,O,c,107,1,717.0999999940395,812536.2999999821,7115,WL,C,6.0
7,10.02999997138977,immed,49970.00002861023,Tue Apr 01 2025 16:41:22 GMT-0500 (Central Daylight Time),813403.3999999762,A,doct,O,t,119,1,867.0999999940395,812536.2999999821,7115,WL,C,6.0
7,10.128999948501587,immed,49871.00005149841,Tue Apr 01 2025 16:41:22 GMT-0500 (Central Daylight Time),813502.3999999762,A,docto,O,o,63,1,966.0999999940395,812536.2999999821,7115,WL,C,6.0
7,10.211999893188477,immed,49788.00010681152,Tue Apr 01 2025 16:41:22 GMT-0500 (Central Daylight Time),813586.099999994,A,doctor,O,r,66,1,1049.800000011921,812536.2999999821,7115,WL,C,6.0
7,10.76200008392334,immed,49237.99991607666,Tue Apr 01 2025 16:41:22 GMT-0500 (Central Daylight Time),814135.5,A,doctorenter,O,enter,532,1,1599.2000000178814,812536.2999999821,7115,WL,C,6.0
7,11.361999988555908,immed,48638.00001144409,Tue Apr 01 2025 16:41:22 GMT-0500 (Central Daylight Time),814736.1999999881,A,l,O,l,592,1,600.4000000059605,814135.7999999821,7115,WL,C,7.0
7,11.479000091552734,immed,48520.999908447266,Tue Apr 01 2025 16:41:22 GMT-0500 (Central Daylight Time),814852.3999999762,A,le,O,e,91,1,716.5999999940395,814135.7999999821,7115,WL,C,7.0
7,11.578999996185303,immed,48421.0000038147,Tue Apr 01 2025 16:41:22 GMT-0500 (Central Daylight Time),814952.8999999762,A,let,O,t,71,1,817.0999999940395,814135.7999999821,7115,WL,C,7.0
7,11.729000091552734,immed,48270.999908447266,Tue Apr 01 2025 16:41:22 GMT-0500 (Central Daylight Time),815102.2999999821,A,lett,O,t,125,1,966.5,814135.7999999821,7115,WL,C,7.0
7,11.911999940872192,immed,48088.00005912781,Tue Apr 01 2025 16:41:22 GMT-0500 (Central Daylight Time),815285.5,A,lette,O,e,152,1,1149.7000000178814,814135.7999999821,7115,WL,C,7.0
7,11.961999893188477,immed,48038.00010681152,Tue Apr 01 2025 16:41:22 GMT-0500 (Central Daylight Time),815335.2999999821,A,letter,O,r,28,1,1199.5,814135.7999999821,7115,WL,C,7.0
7,12.144000053405762,immed,47855.99994659424,Tue Apr 01 2025 16:41:22 GMT-0500 (Central Daylight Time),815518.1999999881,A,letterenter,O,enter,171,1,1382.4000000059605,814135.7999999821,7115,WL,C,7.0
7,12.578999996185303,immed,47421.0000038147,Tue Apr 01 2025 16:41:22 GMT-0500 (Central Daylight Time),815952.5,A,n,O,n,425,1,434.10000002384186,815518.3999999762,7115,WL,C,8.0
7,12.67799997329712,immed,47322.00002670288,Tue Apr 01 2025 16:41:22 GMT-0500 (Central Daylight Time),816051.599999994,A,na,O,a,58,1,533.2000000178814,815518.3999999762,7115,WL,C,8.0
