acc_sum,block,block_c,change,condition,correct,correct_response,datetime,endtime,face,project,response,response_time,row_sel,session_number,start_end,starttime,subject_id,task,task_vers,trial
0,prac,1,,1-Back,,,Wed Apr 16 2025 13:59:09 GMT-0400 (Eastern Daylight Time),,005_o_f_d_a.png,I,space,8139,1,1,,,9014,VNB,B,0
1,prac,1,0.0,1-Back,1,m,Wed Apr 16 2025 13:59:09 GMT-0400 (Eastern Daylight Time),138663.89999961853,020_y_f_n_a.png,I,m,813,2,1,1725.1999998092651,136938.69999980927,9014,VNB,B,1
2,prac,1,0.0,1-Back,1,m,Wed Apr 16 2025 13:59:09 GMT-0400 (Eastern Daylight Time),140380.5999994278,007_m_m_h_a.png,I,m,734,3,1,1665.1999998092651,138715.39999961853,9014,VNB,B,2
3,prac,1,0.0,1-Back,1,m,Wed Apr 16 2025 13:59:09 GMT-0400 (Eastern Daylight Time),142097.19999980927,016_y_m_d_a.png,I,m,721,4,1,1666.3000001907349,140430.89999961853,9014,VNB,B,3
4,prac,1,0.0,1-Back,1,m,Wed Apr 16 2025 13:59:09 GMT-0400 (Eastern Daylight Time),144080.30000019073,005_o_f_n_a.png,I,m,1000,5,1,1928.3000001907349,142152.0,9014,VNB,B,4
5,prac,1,1.0,1-Back,1,z,Wed Apr 16 2025 13:59:09 GMT-0400 (Eastern Daylight Time),145913.69999980927,016_y_m_n_a.png,I,z,826,6,1,1778.8000001907349,144134.89999961853,9014,VNB,B,5
6,prac,1,0.0,1-Back,1,m,Wed Apr 16 2025 13:59:09 GMT-0400 (Eastern Daylight Time),147863.80000019073,004_o_m_h_a.png,I,m,985,7,1,1890.7000007629395,145973.0999994278,9014,VNB,B,6
7,prac,1,0.0,1-Back,1,m,Wed Apr 16 2025 13:59:09 GMT-0400 (Eastern Daylight Time),149730.39999961853,011_m_f_d_a.png,I,m,885,8,1,1815.5,147914.89999961853,9014,VNB,B,7
8,prac,1,1.0,1-Back,1,z,Wed Apr 16 2025 13:59:09 GMT-0400 (Eastern Daylight Time),151380.19999980927,020_y_f_d_a.png,I,z,684,9,1,1597.8000001907349,149782.39999961853,9014,VNB,B,8
9,prac,1,0.0,1-Back,1,m,Wed Apr 16 2025 13:59:09 GMT-0400 (Eastern Daylight Time),153263.80000019073,007_m_m_n_a.png,I,m,892,10,1,1827.5,151436.30000019073,9014,VNB,B,9
10,prac,1,0.0,1-Back,1,m,Wed Apr 16 2025 13:59:09 GMT-0400 (Eastern Daylight Time),155063.80000019073,005_o_f_h_a.png,I,m,813,11,1,1749.1000003814697,153314.69999980927,9014,VNB,B,10
11,prac,1,0.0,1-Back,1,m,Wed Apr 16 2025 13:59:09 GMT-0400 (Eastern Daylight Time),156780.30000019073,016_y_m_d_a.png,I,m,727,12,1,1665.4000005722046,155114.89999961853,9014,VNB,B,11
0,test,1,0.0,1-Back,,,Wed Apr 16 2025 13:59:09 GMT-0400 (Eastern Daylight Time),156780.30000019073,020_y_f_d_a.png,I,space,8120,1,1,1665.4000005722046,155114.89999961853,9014,VNB,B,0
1,test,1,0.0,1-Back,1,m,Wed Apr 16 2025 13:59:09 GMT-0400 (Eastern Daylight Time),174530.0999994278,011_m_f_n_a.png,I,m,1527,2,1,2549.699999809265,171980.39999961853,9014,VNB,B,1
2,test,1,0.0,1-Back,1,m,Wed Apr 16 2025 13:59:09 GMT-0400 (Eastern Daylight Time),176346.39999961853,004_o_m_h_a.png,I,m,735,3,1,1769.3000001907349,174577.0999994278,9014,VNB,B,2
3,test,1,1.0,1-Back,1,z,Wed Apr 16 2025 13:59:09 GMT-0400 (Eastern Daylight Time),178446.39999961853,007_m_m_h_a.png,I,z,1047,4,1,2053.699999809265,176392.69999980927,9014,VNB,B,3
4,test,1,0.0,1-Back,1,m,Wed Apr 16 2025 13:59:09 GMT-0400 (Eastern Daylight Time),180163.5999994278,005_o_f_n_a.png,I,m,660,5,1,1671.5,178492.0999994278,9014,VNB,B,4
5,test,1,0.0,1-Back,1,m,Wed Apr 16 2025 13:59:09 GMT-0400 (Eastern Daylight Time),182030.30000019073,016_y_m_d_a.png,I,m,799,6,1,1817.1000003814697,180213.19999980927,9014,VNB,B,5
6,test,1,1.0,1-Back,1,z,Wed Apr 16 2025 13:59:09 GMT-0400 (Eastern Daylight Time),183863.5999994278,011_m_f_d_a.png,I,z,773,7,1,1798.5,182065.0999994278,9014,VNB,B,6
7,test,1,0.0,1-Back,1,m,Wed Apr 16 2025 13:59:09 GMT-0400 (Eastern Daylight Time),185530.19999980927,020_y_f_h_a.png,I,m,586,8,1,1615.8999996185303,183914.30000019073,9014,VNB,B,7
8,test,1,0.0,1-Back,1,m,Wed Apr 16 2025 13:59:09 GMT-0400 (Eastern Daylight Time),187546.80000019073,004_o_m_n_a.png,I,m,935,9,1,1967.1000003814697,185579.69999980927,9014,VNB,B,8
9,test,1,0.0,1-Back,1,m,Wed Apr 16 2025 13:59:09 GMT-0400 (Eastern Daylight Time),189580.19999980927,016_y_m_h_a.png,I,m,950,10,1,1986.6000003814697,187593.5999994278,9014,VNB,B,9
10,test,1,0.0,1-Back,1,m,Wed Apr 16 2025 13:59:09 GMT-0400 (Eastern Daylight Time),191313.5999994278,004_o_m_d_a.png,I,m,662,11,1,1683.5,189630.0999994278,9014,VNB,B,10
11,test,1,1.0,1-Back,1,z,Wed Apr 16 2025 13:59:09 GMT-0400 (Eastern Daylight Time),193046.80000019073,005_o_f_d_a.png,I,z,657,12,1,1682.0,191364.80000019073,9014,VNB,B,11
12,test,1,0.0,1-Back,1,m,Wed Apr 16 2025 13:59:09 GMT-0400 (Eastern Daylight Time),194830.19999980927,007_m_m_n_a.png,I,m,715,13,1,1737.3000001907349,193092.89999961853,9014,VNB,B,12
13,test,1,1.0,1-Back,1,z,Wed Apr 16 2025 13:59:09 GMT-0400 (Eastern Daylight Time),196663.5,020_y_f_n_a.png,I,z,772,14,1,1786.8000001907349,194876.69999980927,9014,VNB,B,13
14,test,1,0.0,1-Back,1,m,Wed Apr 16 2025 13:59:09 GMT-0400 (Eastern Daylight Time),198363.80000019073,011_m_f_h_a.png,I,m,618,15,1,1647.1000003814697,196716.69999980927,9014,VNB,B,14
15,test,1,0.0,1-Back,1,m,Wed Apr 16 2025 13:59:09 GMT-0400 (Eastern Daylight Time),200863.30000019073,007_m_m_d_a.png,I,m,1447,16,1,2472.1000003814697,198391.19999980927,9014,VNB,B,15
15,test,1,0.0,1-Back,0,m,Wed Apr 16 2025 13:59:09 GMT-0400 (Eastern Daylight Time),202630.19999980927,016_y_m_n_a.png,I,z,691,17,1,1717.3000001907349,200912.89999961853,9014,VNB,B,16
16,test,1,0.0,1-Back,1,m,Wed Apr 16 2025 13:59:09 GMT-0400 (Eastern Daylight Time),204696.89999961853,005_o_f_h_a.png,I,m,987,18,1,2026.8000001907349,202670.0999994278,9014,VNB,B,17
0,test,2,0.0,1-Back,,,Wed Apr 16 2025 13:59:09 GMT-0400 (Eastern Daylight Time),204696.89999961853,016_y_m_n_a.png,I,space,1994,1,1,2026.8000001907349,202670.0999994278,9014,VNB,B,0
1,test,2,0.0,1-Back,1,m,Wed Apr 16 2025 13:59:09 GMT-0400 (Eastern Daylight Time),210430.30000019073,020_y_f_h_a.png,I,m,649,2,1,1669.0,208761.30000019073,9014,VNB,B,1
2,test,2,1.0,1-Back,1,m,Wed Apr 16 2025 13:59:09 GMT-0400 (Eastern Daylight Time),212413.5,004_o_m_n_a.png,I,m,916,3,1,1939.4000005722046,210474.0999994278,9014,VNB,B,2
3,test,2,0.0,1-Back,1,m,Wed Apr 16 2025 13:59:09 GMT-0400 (Eastern Daylight Time),214380.30000019073,011_m_f_d_a.png,I,m,884,4,1,1917.1000003814697,212463.19999980927,9014,VNB,B,3
4,test,2,0.0,1-Back,1,z,Wed Apr 16 2025 13:59:09 GMT-0400 (Eastern Daylight Time),216014.19999980927,007_m_m_d_a.png,I,z,582,5,1,1594.6999998092651,214419.5,9014,VNB,B,4
5,test,2,0.0,1-Back,1,m,Wed Apr 16 2025 13:59:09 GMT-0400 (Eastern Daylight Time),217563.0999994278,016_y_m_h_a.png,I,m,484,6,1,1502.7999992370605,216060.30000019073,9014,VNB,B,5
5,test,2,1.0,1-Back,0,z,Wed Apr 16 2025 13:59:09 GMT-0400 (Eastern Daylight Time),219197.0,005_o_f_h_a.png,I,m,566,7,1,1600.5,217596.5,9014,VNB,B,6
6,test,2,0.0,1-Back,1,m,Wed Apr 16 2025 13:59:09 GMT-0400 (Eastern Daylight Time),221214.0,011_m_f_n_a.png,I,m,948,8,1,1965.4000005722046,219248.5999994278,9014,VNB,B,7
6,test,2,0.0,1-Back,0,m,Wed Apr 16 2025 13:59:09 GMT-0400 (Eastern Daylight Time),222913.30000019073,020_y_f_d_a.png,I,z,645,9,1,1658.1000003814697,221255.19999980927,9014,VNB,B,8
7,test,2,0.0,1-Back,1,m,Wed Apr 16 2025 13:59:09 GMT-0400 (Eastern Daylight Time),224730.19999980927,007_m_m_n_a.png,I,m,736,10,1,1768.8999996185303,222961.30000019073,9014,VNB,B,9
8,test,2,1.0,1-Back,1,m,Wed Apr 16 2025 13:59:09 GMT-0400 (Eastern Daylight Time),226480.0,011_m_f_h_a.png,I,m,696,11,1,1714.1999998092651,224765.80000019073,9014,VNB,B,10
9,test,2,0.0,1-Back,1,z,Wed Apr 16 2025 13:59:09 GMT-0400 (Eastern Daylight Time),228430.30000019073,004_o_m_h_a.png,I,z,898,12,1,1908.7000007629395,226521.5999994278,9014,VNB,B,11
10,test,2,0.0,1-Back,1,m,Wed Apr 16 2025 13:59:09 GMT-0400 (Eastern Daylight Time),230246.89999961853,016_y_m_d_a.png,I,m,756,13,1,1780.0,228466.89999961853,9014,VNB,B,12
11,test,2,0.0,1-Back,1,m,Wed Apr 16 2025 13:59:09 GMT-0400 (Eastern Daylight Time),232363.39999961853,005_o_f_n_a.png,I,m,1035,14,1,2069.0,230294.39999961853,9014,VNB,B,13
12,test,2,0.0,1-Back,1,z,Wed Apr 16 2025 13:59:09 GMT-0400 (Eastern Daylight Time),234096.69999980927,020_y_f_n_a.png,I,z,662,15,1,1689.6000003814697,232407.0999994278,9014,VNB,B,14
13,test,2,1.0,1-Back,1,m,Wed Apr 16 2025 13:59:09 GMT-0400 (Eastern Daylight Time),235813.5,007_m_m_h_a.png,I,m,642,16,1,1669.8000001907349,234143.69999980927,9014,VNB,B,15
14,test,2,0.0,1-Back,1,m,Wed Apr 16 2025 13:59:09 GMT-0400 (Eastern Daylight Time),237463.5,005_o_f_d_a.png,I,m,588,17,1,1617.9000005722046,235845.5999994278,9014,VNB,B,16
15,test,2,1.0,1-Back,1,z,Wed Apr 16 2025 13:59:09 GMT-0400 (Eastern Daylight Time),239080.19999980927,004_o_m_d_a.png,I,z,554,18,1,1570.3999996185303,237509.80000019073,9014,VNB,B,17
0,test,3,1.0,1-Back,,,Wed Apr 16 2025 13:59:09 GMT-0400 (Eastern Daylight Time),239080.19999980927,005_o_f_h_a.png,I,space,1779,1,1,1570.3999996185303,237509.80000019073,9014,VNB,B,0
1,test,3,0.0,1-Back,1,m,Wed Apr 16 2025 13:59:09 GMT-0400 (Eastern Daylight Time),244830.30000019073,011_m_f_d_a.png,I,m,715,2,1,1734.6000003814697,243095.69999980927,9014,VNB,B,1
2,test,3,1.0,1-Back,1,m,Wed Apr 16 2025 13:59:09 GMT-0400 (Eastern Daylight Time),246596.80000019073,007_m_m_n_a.png,I,m,708,3,1,1730.0,244866.80000019073,9014,VNB,B,2
3,test,3,0.0,1-Back,1,z,Wed Apr 16 2025 13:59:09 GMT-0400 (Eastern Daylight Time),248430.19999980927,005_o_f_n_a.png,I,z,766,4,1,1785.3000001907349,246644.89999961853,9014,VNB,B,3
4,test,3,1.0,1-Back,1,m,Wed Apr 16 2025 13:59:09 GMT-0400 (Eastern Daylight Time),250046.5,004_o_m_d_a.png,I,m,565,5,1,1589.3000001907349,248457.19999980927,9014,VNB,B,4
5,test,3,0.0,1-Back,1,m,Wed Apr 16 2025 13:59:09 GMT-0400 (Eastern Daylight Time),252013.5,020_y_f_h_a.png,I,m,883,6,1,1916.1999998092651,250097.30000019073,9014,VNB,B,5
6,test,3,0.0,1-Back,1,z,Wed Apr 16 2025 13:59:09 GMT-0400 (Eastern Daylight Time),254180.0999994278,016_y_m_h_a.png,I,z,1093,7,1,2132.3999996185303,252047.69999980927,9014,VNB,B,6
7,test,3,0.0,1-Back,1,m,Wed Apr 16 2025 13:59:09 GMT-0400 (Eastern Daylight Time),255896.69999980927,011_m_f_n_a.png,I,m,637,8,1,1662.0,254234.69999980927,9014,VNB,B,7
7,test,3,0.0,1-Back,0,m,Wed Apr 16 2025 13:59:09 GMT-0400 (Eastern Daylight Time),257779.89999961853,020_y_f_d_a.png,I,z,809,9,1,1837.8000001907349,255942.0999994278,9014,VNB,B,8
8,test,3,1.0,1-Back,1,m,Wed Apr 16 2025 13:59:09 GMT-0400 (Eastern Daylight Time),259713.5,004_o_m_n_a.png,I,m,861,10,1,1885.6000003814697,257827.89999961853,9014,VNB,B,9
9,test,3,0.0,1-Back,1,m,Wed Apr 16 2025 13:59:09 GMT-0400 (Eastern Daylight Time),261530.19999980927,007_m_m_h_a.png,I,m,752,11,1,1786.5,259743.69999980927,9014,VNB,B,10
10,test,3,0.0,1-Back,1,z,Wed Apr 16 2025 13:59:09 GMT-0400 (Eastern Daylight Time),263263.0999994278,011_m_f_h_a.png,I,z,663,12,1,1685.8999996185303,261577.19999980927,9014,VNB,B,11
11,test,3,1.0,1-Back,1,m,Wed Apr 16 2025 13:59:09 GMT-0400 (Eastern Daylight Time),265030.0999994278,005_o_f_d_a.png,I,m,706,13,1,1734.7999992370605,263295.30000019073,9014,VNB,B,12
12,test,3,0.0,1-Back,1,z,Wed Apr 16 2025 13:59:09 GMT-0400 (Eastern Daylight Time),266813.19999980927,007_m_m_d_a.png,I,z,700,14,1,1735.8000001907349,265077.39999961853,9014,VNB,B,13
13,test,3,0.0,1-Back,1,m,Wed Apr 16 2025 13:59:09 GMT-0400 (Eastern Daylight Time),268463.0999994278,016_y_m_n_a.png,I,m,597,15,1,1618.5999994277954,266844.5,9014,VNB,B,14
14,test,3,1.0,1-Back,1,m,Wed Apr 16 2025 13:59:09 GMT-0400 (Eastern Daylight Time),270296.80000019073,004_o_m_h_a.png,I,m,771,16,1,1785.6000003814697,268511.19999980927,9014,VNB,B,15
15,test,3,0.0,1-Back,1,m,Wed Apr 16 2025 13:59:09 GMT-0400 (Eastern Daylight Time),272196.80000019073,016_y_m_d_a.png,I,m,841,17,1,1866.0,270330.80000019073,9014,VNB,B,16
16,test,3,1.0,1-Back,1,m,Wed Apr 16 2025 13:59:09 GMT-0400 (Eastern Daylight Time),274196.89999961853,020_y_f_n_a.png,I,m,925,18,1,1950.0,272246.89999961853,9014,VNB,B,17
0,test,4,1.0,1-Back,,,Wed Apr 16 2025 13:59:09 GMT-0400 (Eastern Daylight Time),274196.89999961853,007_m_m_d_a.png,I,space,2023,1,1,1950.0,272246.89999961853,9014,VNB,B,0
1,test,4,0.0,1-Back,1,z,Wed Apr 16 2025 13:59:09 GMT-0400 (Eastern Daylight Time),280763.39999961853,004_o_m_d_a.png,I,z,1453,2,1,2470.199999809265,278293.19999980927,9014,VNB,B,1
2,test,4,0.0,1-Back,1,m,Wed Apr 16 2025 13:59:09 GMT-0400 (Eastern Daylight Time),282446.19999980927,016_y_m_h_a.png,I,m,631,3,1,1645.3000001907349,280800.89999961853,9014,VNB,B,2
3,test,4,0.0,1-Back,1,m,Wed Apr 16 2025 13:59:09 GMT-0400 (Eastern Daylight Time),284296.69999980927,011_m_f_n_a.png,I,m,787,4,1,1801.6000003814697,282495.0999994278,9014,VNB,B,3
4,test,4,1.0,1-Back,1,m,Wed Apr 16 2025 13:59:09 GMT-0400 (Eastern Daylight Time),286013.89999961853,005_o_f_h_a.png,I,m,665,5,1,1683.0999994277954,284330.80000019073,9014,VNB,B,4
5,test,4,0.0,1-Back,1,m,Wed Apr 16 2025 13:59:09 GMT-0400 (Eastern Daylight Time),287830.0999994278,007_m_m_n_a.png,I,m,740,6,1,1768.0,286062.0999994278,9014,VNB,B,5
6,test,4,0.0,1-Back,1,m,Wed Apr 16 2025 13:59:09 GMT-0400 (Eastern Daylight Time),289630.19999980927,016_y_m_d_a.png,I,m,748,7,1,1768.1000003814697,287862.0999994278,9014,VNB,B,6
7,test,4,1.0,1-Back,1,z,Wed Apr 16 2025 13:59:09 GMT-0400 (Eastern Daylight Time),291296.69999980927,020_y_f_d_a.png,I,z,596,8,1,1617.5,289679.19999980927,9014,VNB,B,7
8,test,4,0.0,1-Back,1,m,Wed Apr 16 2025 13:59:09 GMT-0400 (Eastern Daylight Time),293130.0,011_m_f_h_a.png,I,m,752,9,1,1788.6999998092651,291341.30000019073,9014,VNB,B,8
9,test,4,0.0,1-Back,1,z,Wed Apr 16 2025 13:59:09 GMT-0400 (Eastern Daylight Time),295046.80000019073,004_o_m_h_a.png,I,z,839,10,1,1871.1000003814697,293175.69999980927,9014,VNB,B,9
10,test,4,1.0,1-Back,1,m,Wed Apr 16 2025 13:59:09 GMT-0400 (Eastern Daylight Time),296730.0,005_o_f_n_a.png,I,m,620,11,1,1646.6999998092651,295083.30000019073,9014,VNB,B,10
11,test,4,0.0,1-Back,1,m,Wed Apr 16 2025 13:59:09 GMT-0400 (Eastern Daylight Time),298663.30000019073,011_m_f_d_a.png,I,m,855,12,1,1886.1000003814697,296777.19999980927,9014,VNB,B,11
12,test,4,0.0,1-Back,1,m,Wed Apr 16 2025 13:59:09 GMT-0400 (Eastern Daylight Time),300413.19999980927,020_y_f_n_a.png,I,m,683,13,1,1717.3000001907349,298695.89999961853,9014,VNB,B,12
13,test,4,0.0,1-Back,1,m,Wed Apr 16 2025 13:59:09 GMT-0400 (Eastern Daylight Time),302496.5999994278,005_o_f_d_a.png,I,m,1013,14,1,2032.0999994277954,300464.5,9014,VNB,B,13
14,test,4,0.0,1-Back,1,m,Wed Apr 16 2025 13:59:09 GMT-0400 (Eastern Daylight Time),304229.89999961853,020_y_f_h_a.png,I,m,673,15,1,1697.0,302532.89999961853,9014,VNB,B,14
15,test,4,1.0,1-Back,1,z,Wed Apr 16 2025 13:59:09 GMT-0400 (Eastern Daylight Time),305996.19999980927,007_m_m_h_a.png,I,z,684,16,1,1724.6999998092651,304271.5,9014,VNB,B,15
16,test,4,0.0,1-Back,1,m,Wed Apr 16 2025 13:59:09 GMT-0400 (Eastern Daylight Time),307796.80000019073,004_o_m_n_a.png,I,m,741,17,1,1774.3000001907349,306022.5,9014,VNB,B,16
17,test,4,1.0,1-Back,1,z,Wed Apr 16 2025 13:59:09 GMT-0400 (Eastern Daylight Time),309546.69999980927,016_y_m_n_a.png,I,z,670,18,1,1698.1000003814697,307848.5999994278,9014,VNB,B,17
0,test,5,1.0,1-Back,,,Wed Apr 16 2025 13:59:09 GMT-0400 (Eastern Daylight Time),309546.69999980927,004_o_m_n_a.png,I,space,1832,1,1,1698.1000003814697,307848.5999994278,9014,VNB,B,0
1,test,5,1.0,1-Back,1,m,Wed Apr 16 2025 13:59:09 GMT-0400 (Eastern Daylight Time),315130.0,005_o_f_h_a.png,I,m,653,2,1,1669.6000003814697,313460.39999961853,9014,VNB,B,1
2,test,5,0.0,1-Back,1,m,Wed Apr 16 2025 13:59:09 GMT-0400 (Eastern Daylight Time),316980.0,016_y_m_d_a.png,I,m,792,3,1,1818.1999998092651,315161.80000019073,9014,VNB,B,2
3,test,5,0.0,1-Back,1,z,Wed Apr 16 2025 13:59:09 GMT-0400 (Eastern Daylight Time),318646.5999994278,004_o_m_d_a.png,I,z,606,4,1,1617.6999998092651,317028.89999961853,9014,VNB,B,3
4,test,5,0.0,1-Back,1,m,Wed Apr 16 2025 13:59:09 GMT-0400 (Eastern Daylight Time),320313.30000019073,011_m_f_h_a.png,I,m,603,5,1,1635.3000001907349,318678.0,9014,VNB,B,4
5,test,5,0.0,1-Back,1,m,Wed Apr 16 2025 13:59:09 GMT-0400 (Eastern Daylight Time),322296.80000019073,020_y_f_n_a.png,I,m,904,6,1,1936.7000007629395,320360.0999994278,9014,VNB,B,5
6,test,5,1.0,1-Back,1,z,Wed Apr 16 2025 13:59:09 GMT-0400 (Eastern Daylight Time),324263.0999994278,005_o_f_n_a.png,I,z,889,7,1,1916.8999996185303,322346.19999980927,9014,VNB,B,6
7,test,5,0.0,1-Back,1,m,Wed Apr 16 2025 13:59:09 GMT-0400 (Eastern Daylight Time),326263.30000019073,011_m_f_d_a.png,I,m,940,8,1,1954.1000003814697,324309.19999980927,9014,VNB,B,7
8,test,5,0.0,1-Back,1,m,Wed Apr 16 2025 13:59:09 GMT-0400 (Eastern Daylight Time),328296.69999980927,016_y_m_h_a.png,I,m,954,9,1,1983.8999996185303,326312.80000019073,9014,VNB,B,8
9,test,5,0.0,1-Back,1,m,Wed Apr 16 2025 13:59:09 GMT-0400 (Eastern Daylight Time),330263.30000019073,020_y_f_d_a.png,I,m,889,10,1,1917.0,328346.30000019073,9014,VNB,B,9
10,test,5,0.0,1-Back,1,m,Wed Apr 16 2025 13:59:09 GMT-0400 (Eastern Daylight Time),332430.0999994278,007_m_m_n_a.png,I,m,1098,11,1,2120.5999994277954,330309.5,9014,VNB,B,10
11,test,5,1.0,1-Back,1,z,Wed Apr 16 2025 13:59:09 GMT-0400 (Eastern Daylight Time),334146.5999994278,011_m_f_n_a.png,I,z,643,12,1,1669.0,332477.5999994278,9014,VNB,B,11
12,test,5,0.0,1-Back,1,m,Wed Apr 16 2025 13:59:09 GMT-0400 (Eastern Daylight Time),335996.80000019073,004_o_m_h_a.png,I,m,767,13,1,1809.1000003814697,334187.69999980927,9014,VNB,B,12
12,test,5,0.0,1-Back,0,z,Wed Apr 16 2025 13:59:09 GMT-0400 (Eastern Daylight Time),337713.0999994278,007_m_m_h_a.png,I,m,662,14,1,1676.6999998092651,336036.39999961853,9014,VNB,B,13
13,test,5,1.0,1-Back,1,m,Wed Apr 16 2025 13:59:09 GMT-0400 (Eastern Daylight Time),339479.80000019073,005_o_f_d_a.png,I,m,705,15,1,1726.4000005722046,337753.39999961853,9014,VNB,B,14
14,test,5,0.0,1-Back,1,m,Wed Apr 16 2025 13:59:09 GMT-0400 (Eastern Daylight Time),341264.0,016_y_m_n_a.png,I,m,713,16,1,1734.0,339530.0,9014,VNB,B,15
15,test,5,0.0,1-Back,1,m,Wed Apr 16 2025 13:59:09 GMT-0400 (Eastern Daylight Time),343030.0,020_y_f_h_a.png,I,m,707,17,1,1728.8000001907349,341301.19999980927,9014,VNB,B,16
16,test,5,0.0,1-Back,1,m,Wed Apr 16 2025 13:59:09 GMT-0400 (Eastern Daylight Time),344896.5,007_m_m_d_a.png,I,m,812,18,1,1825.6000003814697,343070.89999961853,9014,VNB,B,17
0,prac,1,0.0,2-Back,,,Wed Apr 16 2025 13:59:09 GMT-0400 (Eastern Daylight Time),344896.5,011_m_f_n_a.png,I,space,9472,1,1,1825.6000003814697,343070.89999961853,9014,VNB,B,0
0,prac,1,0.0,2-Back,,,Wed Apr 16 2025 13:59:09 GMT-0400 (Eastern Daylight Time),344896.5,005_o_f_h_a.png,I,space,9472,2,1,1825.6000003814697,343070.89999961853,9014,VNB,B,0
1,prac,1,0.0,2-Back,1,m,Wed Apr 16 2025 13:59:09 GMT-0400 (Eastern Daylight Time),441813.39999961853,004_o_m_d_a.png,I,m,1161,3,1,2138.300000190735,439675.0999994278,9014,VNB,B,1
1,prac,1,1.0,2-Back,0,z,Wed Apr 16 2025 13:59:09 GMT-0400 (Eastern Daylight Time),444680.0,007_m_m_h_a.png,I,m,1719,4,1,2799.300000190735,441880.69999980927,9014,VNB,B,2
2,prac,1,0.0,2-Back,1,m,Wed Apr 16 2025 13:59:09 GMT-0400 (Eastern Daylight Time),447513.19999980927,020_y_f_n_a.png,I,m,1746,5,1,2780.199999809265,444733.0,9014,VNB,B,3
3,prac,1,1.0,2-Back,1,z,Wed Apr 16 2025 13:59:09 GMT-0400 (Eastern Daylight Time),449996.39999961853,004_o_m_h_a.png,I,z,1412,6,1,2431.699999809265,447564.69999980927,9014,VNB,B,4
4,prac,1,1.0,2-Back,1,z,Wed Apr 16 2025 13:59:09 GMT-0400 (Eastern Daylight Time),452646.5999994278,016_y_m_n_a.png,I,z,1455,7,1,2593.0,450053.5999994278,9014,VNB,B,5
5,prac,1,0.0,2-Back,1,m,Wed Apr 16 2025 13:59:09 GMT-0400 (Eastern Daylight Time),454929.80000019073,011_m_f_d_a.png,I,m,1195,8,1,2231.7000007629395,452698.0999994278,9014,VNB,B,6
6,prac,1,0.0,2-Back,1,m,Wed Apr 16 2025 13:59:09 GMT-0400 (Eastern Daylight Time),457429.89999961853,005_o_f_d_a.png,I,m,1404,9,1,2448.5,454981.39999961853,9014,VNB,B,7
6,prac,1,0.0,2-Back,0,m,Wed Apr 16 2025 13:59:09 GMT-0400 (Eastern Daylight Time),459413.19999980927,007_m_m_h_a.png,I,z,865,10,1,1931.3000001907349,457481.89999961853,9014,VNB,B,8
7,prac,1,1.0,2-Back,1,z,Wed Apr 16 2025 13:59:09 GMT-0400 (Eastern Daylight Time),461613.19999980927,020_y_f_d_a.png,I,z,1133,11,1,2148.199999809265,459465.0,9014,VNB,B,9
7,prac,1,0.0,2-Back,0,m,Wed Apr 16 2025 13:59:09 GMT-0400 (Eastern Daylight Time),463596.5,004_o_m_n_a.png,I,z,930,12,1,1928.4000005722046,461668.0999994278,9014,VNB,B,10
0,test,1,0.0,2-Back,,,Wed Apr 16 2025 13:59:09 GMT-0400 (Eastern Daylight Time),463596.5,016_y_m_h_a.png,I,space,14452,1,1,1928.4000005722046,461668.0999994278,9014,VNB,B,0
0,test,1,0.0,2-Back,,,Wed Apr 16 2025 13:59:09 GMT-0400 (Eastern Daylight Time),463596.5,005_o_f_n_a.png,I,space,14452,2,1,1928.4000005722046,461668.0999994278,9014,VNB,B,0
1,test,1,0.0,2-Back,1,z,Wed Apr 16 2025 13:59:09 GMT-0400 (Eastern Daylight Time),512030.0,004_o_m_h_a.png,I,z,1616,3,1,2653.199999809265,509376.80000019073,9014,VNB,B,1
2,test,1,0.0,2-Back,1,m,Wed Apr 16 2025 13:59:09 GMT-0400 (Eastern Daylight Time),514663.0,011_m_f_d_a.png,I,m,1555,4,1,2581.199999809265,512081.80000019073,9014,VNB,B,2
2,test,1,1.0,2-Back,0,m,Wed Apr 16 2025 13:59:09 GMT-0400 (Eastern Daylight Time),516746.5,016_y_m_n_a.png,I,z,1019,5,1,2034.6000003814697,514711.89999961853,9014,VNB,B,3
2,test,1,0.0,2-Back,0,z,Wed Apr 16 2025 13:59:09 GMT-0400 (Eastern Daylight Time),518979.69999980927,020_y_f_d_a.png,I,m,1159,6,1,2198.699999809265,516781.0,9014,VNB,B,4
2,test,1,0.0,2-Back,0,m,Wed Apr 16 2025 13:59:09 GMT-0400 (Eastern Daylight Time),521029.80000019073,007_m_m_h_a.png,I,z,975,7,1,1999.3000001907349,519030.5,9014,VNB,B,5
3,test,1,1.0,2-Back,1,m,Wed Apr 16 2025 13:59:09 GMT-0400 (Eastern Daylight Time),523229.5999994278,020_y_f_n_a.png,I,m,1147,8,1,2163.0,521066.5999994278,9014,VNB,B,6
4,test,1,0.0,2-Back,1,z,Wed Apr 16 2025 13:59:09 GMT-0400 (Eastern Daylight Time),525963.0,005_o_f_h_a.png,I,z,1668,9,1,2686.6000003814697,523276.39999961853,9014,VNB,B,7
5,test,1,0.0,2-Back,1,m,Wed Apr 16 2025 13:59:09 GMT-0400 (Eastern Daylight Time),528613.0,004_o_m_d_a.png,I,m,1591,10,1,2616.4000005722046,525996.5999994278,9014,VNB,B,8
6,test,1,1.0,2-Back,1,m,Wed Apr 16 2025 13:59:09 GMT-0400 (Eastern Daylight Time),531163.0,007_m_m_d_a.png,I,m,1468,11,1,2502.699999809265,528660.3000001907,9014,VNB,B,9
6,test,1,0.0,2-Back,0,m,Wed Apr 16 2025 13:59:09 GMT-0400 (Eastern Daylight Time),533079.8000001907,011_m_f_n_a.png,I,z,855,12,1,1885.1000003814697,531194.6999998093,9014,VNB,B,10
7,test,1,0.0,2-Back,1,m,Wed Apr 16 2025 13:59:09 GMT-0400 (Eastern Daylight Time),535596.5,020_y_f_h_a.png,I,m,1450,13,1,2472.199999809265,533124.3000001907,9014,VNB,B,11
7,test,1,0.0,2-Back,0,z,Wed Apr 16 2025 13:59:09 GMT-0400 (Eastern Daylight Time),537979.6999998093,007_m_m_n_a.png,I,m,1301,14,1,2347.0,535632.6999998093,9014,VNB,B,12
7,test,1,0.0,2-Back,0,m,Wed Apr 16 2025 13:59:09 GMT-0400 (Eastern Daylight Time),540146.3000001907,016_y_m_d_a.png,I,z,1094,15,1,2129.2000007629395,538017.0999994278,9014,VNB,B,13
8,test,1,1.0,2-Back,1,m,Wed Apr 16 2025 13:59:09 GMT-0400 (Eastern Daylight Time),541913.0,011_m_f_h_a.png,I,m,704,16,1,1732.9000005722046,540180.0999994278,9014,VNB,B,14
8,test,1,0.0,2-Back,0,z,Wed Apr 16 2025 13:59:09 GMT-0400 (Eastern Daylight Time),544462.6999998093,005_o_f_d_a.png,I,m,1480,17,1,2498.800000190735,541963.8999996185,9014,VNB,B,15
8,test,1,0.0,2-Back,0,m,Wed Apr 16 2025 13:59:09 GMT-0400 (Eastern Daylight Time),546462.6999998093,004_o_m_n_a.png,I,z,930,18,1,1952.5,544510.1999998093,9014,VNB,B,16
0,test,2,0.0,2-Back,,,Wed Apr 16 2025 13:59:09 GMT-0400 (Eastern Daylight Time),546462.6999998093,007_m_m_h_a.png,I,space,1941,1,1,1952.5,544510.1999998093,9014,VNB,B,0
0,test,2,0.0,2-Back,,,Wed Apr 16 2025 13:59:09 GMT-0400 (Eastern Daylight Time),546462.6999998093,020_y_f_n_a.png,I,space,1941,2,1,1952.5,544510.1999998093,9014,VNB,B,0
1,test,2,1.0,2-Back,1,z,Wed Apr 16 2025 13:59:09 GMT-0400 (Eastern Daylight Time),555829.0999994278,005_o_f_h_a.png,I,z,990,3,1,2016.5999994277954,553812.5,9014,VNB,B,1
2,test,2,0.0,2-Back,1,m,Wed Apr 16 2025 13:59:09 GMT-0400 (Eastern Daylight Time),558396.3000001907,004_o_m_d_a.png,I,m,1501,4,1,2532.1000003814697,555864.1999998093,9014,VNB,B,2
2,test,2,0.0,2-Back,0,m,Wed Apr 16 2025 13:59:09 GMT-0400 (Eastern Daylight Time),561013.0999994278,011_m_f_d_a.png,I,z,1542,5,1,2563.199999809265,558449.8999996185,9014,VNB,B,3
3,test,2,0.0,2-Back,1,m,Wed Apr 16 2025 13:59:09 GMT-0400 (Eastern Daylight Time),563429.5999994278,016_y_m_h_a.png,I,m,1340,6,1,2365.199999809265,561064.3999996185,9014,VNB,B,4
4,test,2,0.0,2-Back,1,m,Wed Apr 16 2025 13:59:09 GMT-0400 (Eastern Daylight Time),565629.6999998093,005_o_f_n_a.png,I,m,1132,7,1,2150.1000003814697,563479.5999994278,9014,VNB,B,5
5,test,2,1.0,2-Back,1,z,Wed Apr 16 2025 13:59:09 GMT-0400 (Eastern Daylight Time),567746.1999998093,004_o_m_h_a.png,I,z,1060,8,1,2085.6000003814697,565660.5999994278,9014,VNB,B,6
5,test,2,0.0,2-Back,0,m,Wed Apr 16 2025 13:59:09 GMT-0400 (Eastern Daylight Time),570679.6999998093,020_y_f_d_a.png,I,z,1855,9,1,2886.800000190735,567792.8999996185,9014,VNB,B,7
5,test,2,0.0,2-Back,0,m,Wed Apr 16 2025 13:59:09 GMT-0400 (Eastern Daylight Time),573763.0,016_y_m_d_a.png,I,None,2016,10,1,3033.199999809265,570729.8000001907,9014,VNB,B,8
6,test,2,0.0,2-Back,1,m,Wed Apr 16 2025 13:59:09 GMT-0400 (Eastern Daylight Time),576696.3000001907,007_m_m_n_a.png,I,m,1855,11,1,2883.0,573813.3000001907,9014,VNB,B,9
6,test,2,0.0,2-Back,0,m,Wed Apr 16 2025 13:59:09 GMT-0400 (Eastern Daylight Time),579779.6999998093,011_m_f_h_a.png,I,None,2016,12,1,3051.0,576728.6999998093,9014,VNB,B,10
6,test,2,1.0,2-Back,0,z,Wed Apr 16 2025 13:59:09 GMT-0400 (Eastern Daylight Time),582646.3000001907,004_o_m_n_a.png,I,m,1789,13,1,2818.7000007629395,579827.5999994278,9014,VNB,B,11
6,test,2,0.0,2-Back,0,m,Wed Apr 16 2025 13:59:09 GMT-0400 (Eastern Daylight Time),584779.5999994278,005_o_f_d_a.png,I,z,1051,14,1,2092.5999994277954,582687.0,9014,VNB,B,12
7,test,2,0.0,2-Back,1,m,Wed Apr 16 2025 13:59:09 GMT-0400 (Eastern Daylight Time),587146.3000001907,020_y_f_h_a.png,I,m,1286,15,1,2319.1000003814697,584827.1999998093,9014,VNB,B,13
7,test,2,0.0,2-Back,0,z,Wed Apr 16 2025 13:59:09 GMT-0400 (Eastern Daylight Time),589512.8000001907,007_m_m_d_a.png,I,m,1266,16,1,2337.6000003814697,587175.1999998093,9014,VNB,B,14
8,test,2,0.0,2-Back,1,m,Wed Apr 16 2025 13:59:09 GMT-0400 (Eastern Daylight Time),592279.6999998093,016_y_m_n_a.png,I,m,1688,17,1,2717.300000190735,589562.3999996185,9014,VNB,B,15
8,test,2,1.0,2-Back,0,m,Wed Apr 16 2025 13:59:09 GMT-0400 (Eastern Daylight Time),594946.3000001907,011_m_f_n_a.png,I,z,1610,18,1,2631.7000007629395,592314.5999994278,9014,VNB,B,16
0,test,3,1.0,2-Back,,,Wed Apr 16 2025 13:59:09 GMT-0400 (Eastern Daylight Time),594946.3000001907,004_o_m_n_a.png,I,space,1881,1,1,2631.7000007629395,592314.5999994278,9014,VNB,B,0
0,test,3,1.0,2-Back,,,Wed Apr 16 2025 13:59:09 GMT-0400 (Eastern Daylight Time),594946.3000001907,005_o_f_d_a.png,I,space,1881,2,1,2631.7000007629395,592314.5999994278,9014,VNB,B,0
1,test,3,0.0,2-Back,1,m,Wed Apr 16 2025 13:59:09 GMT-0400 (Eastern Daylight Time),604146.0,020_y_f_h_a.png,I,m,895,3,1,1902.1000003814697,602243.8999996185,9014,VNB,B,1
2,test,3,0.0,2-Back,1,z,Wed Apr 16 2025 13:59:09 GMT-0400 (Eastern Daylight Time),606112.8999996185,011_m_f_d_a.png,I,z,896,4,1,1922.5999994277954,604190.3000001907,9014,VNB,B,2
3,test,3,1.0,2-Back,1,m,Wed Apr 16 2025 13:59:09 GMT-0400 (Eastern Daylight Time),608262.8000001907,016_y_m_n_a.png,I,m,1089,5,1,2106.4000005722046,606156.3999996185,9014,VNB,B,3
3,test,3,0.0,2-Back,0,m,Wed Apr 16 2025 13:59:09 GMT-0400 (Eastern Daylight Time),610146.0999994278,004_o_m_h_a.png,I,z,827,6,1,1848.7999992370605,608297.3000001907,9014,VNB,B,4
4,test,3,0.0,2-Back,1,z,Wed Apr 16 2025 13:59:09 GMT-0400 (Eastern Daylight Time),612512.3999996185,020_y_f_n_a.png,I,z,1294,7,1,2325.800000190735,610186.5999994278,9014,VNB,B,5
4,test,3,1.0,2-Back,0,m,Wed Apr 16 2025 13:59:09 GMT-0400 (Eastern Daylight Time),614329.5,007_m_m_d_a.png,I,z,753,8,1,1780.6999998092651,612548.8000001907,9014,VNB,B,6
5,test,3,0.0,2-Back,1,m,Wed Apr 16 2025 13:59:09 GMT-0400 (Eastern Daylight Time),616762.6999998093,016_y_m_d_a.png,I,m,1351,9,1,2390.800000190735,614371.8999996185,9014,VNB,B,7
6,test,3,0.0,2-Back,1,m,Wed Apr 16 2025 13:59:09 GMT-0400 (Eastern Daylight Time),619462.8000001907,005_o_f_h_a.png,I,m,1639,10,1,2659.7000007629395,616803.0999994278,9014,VNB,B,8
7,test,3,1.0,2-Back,1,m,Wed Apr 16 2025 13:59:09 GMT-0400 (Eastern Daylight Time),621829.6999998093,011_m_f_n_a.png,I,m,1306,11,1,2327.1000003814697,619502.5999994278,9014,VNB,B,9
8,test,3,1.0,2-Back,1,z,Wed Apr 16 2025 13:59:09 GMT-0400 (Eastern Daylight Time),624646.1999998093,007_m_m_h_a.png,I,z,1740,12,1,2765.3999996185303,621880.8000001907,9014,VNB,B,10
9,test,3,0.0,2-Back,1,m,Wed Apr 16 2025 13:59:09 GMT-0400 (Eastern Daylight Time),627162.8999996185,020_y_f_d_a.png,I,m,1452,13,1,2480.0999994277954,624682.8000001907,9014,VNB,B,11
9,test,3,0.0,2-Back,0,m,Wed Apr 16 2025 13:59:09 GMT-0400 (Eastern Daylight Time),630229.8000001907,005_o_f_n_a.png,I,None,2015,14,1,3026.300000190735,627203.5,9014,VNB,B,12
9,test,3,0.0,2-Back,0,z,Wed Apr 16 2025 13:59:09 GMT-0400 (Eastern Daylight Time),632429.5999994278,004_o_m_d_a.png,I,m,1149,15,1,2174.5,630255.0999994278,9014,VNB,B,13
9,test,3,1.0,2-Back,0,m,Wed Apr 16 2025 13:59:09 GMT-0400 (Eastern Daylight Time),634598.8999996185,011_m_f_h_a.png,I,z,1092,16,1,2122.699999809265,632476.1999998093,9014,VNB,B,14
10,test,3,0.0,2-Back,1,m,Wed Apr 16 2025 13:59:09 GMT-0400 (Eastern Daylight Time),636812.8999996185,007_m_m_n_a.png,I,m,1133,17,1,2165.0,634647.8999996185,9014,VNB,B,15
10,test,3,0.0,2-Back,0,z,Wed Apr 16 2025 13:59:09 GMT-0400 (Eastern Daylight Time),639296.0,016_y_m_h_a.png,I,m,1412,18,1,2433.6000003814697,636862.3999996185,9014,VNB,B,16
0,test,4,0.0,2-Back,,,Wed Apr 16 2025 13:59:09 GMT-0400 (Eastern Daylight Time),639296.0,011_m_f_n_a.png,I,space,2099,1,1,2433.6000003814697,636862.3999996185,9014,VNB,B,0
0,test,4,0.0,2-Back,,,Wed Apr 16 2025 13:59:09 GMT-0400 (Eastern Daylight Time),639296.0,004_o_m_n_a.png,I,space,2099,2,1,2433.6000003814697,636862.3999996185,9014,VNB,B,0
1,test,4,1.0,2-Back,1,m,Wed Apr 16 2025 13:59:09 GMT-0400 (Eastern Daylight Time),648829.5999994278,016_y_m_h_a.png,I,m,1015,3,1,2034.6999998092651,646794.8999996185,9014,VNB,B,1
2,test,4,1.0,2-Back,1,m,Wed Apr 16 2025 13:59:09 GMT-0400 (Eastern Daylight Time),650946.0999994278,005_o_f_d_a.png,I,m,1061,4,1,2083.699999809265,648862.3999996185,9014,VNB,B,2
3,test,4,0.0,2-Back,1,z,Wed Apr 16 2025 13:59:09 GMT-0400 (Eastern Daylight Time),653029.5999994278,004_o_m_h_a.png,I,z,1007,5,1,2035.7999992370605,650993.8000001907,9014,VNB,B,3
3,test,4,0.0,2-Back,0,m,Wed Apr 16 2025 13:59:09 GMT-0400 (Eastern Daylight Time),655529.6999998093,007_m_m_n_a.png,I,z,1420,6,1,2450.3999996185303,653079.3000001907,9014,VNB,B,4
4,test,4,0.0,2-Back,1,m,Wed Apr 16 2025 13:59:09 GMT-0400 (Eastern Daylight Time),657879.3000001907,011_m_f_d_a.png,I,m,1289,7,1,2314.5,655564.8000001907,9014,VNB,B,5
4,test,4,0.0,2-Back,0,z,Wed Apr 16 2025 13:59:09 GMT-0400 (Eastern Daylight Time),660229.5,020_y_f_n_a.png,I,m,1291,8,1,2307.1000003814697,657922.3999996185,9014,VNB,B,6
4,test,4,1.0,2-Back,0,m,Wed Apr 16 2025 13:59:09 GMT-0400 (Eastern Daylight Time),662012.6999998093,005_o_f_h_a.png,I,z,700,9,1,1738.5,660274.1999998093,9014,VNB,B,7
4,test,4,0.0,2-Back,0,m,Wed Apr 16 2025 13:59:09 GMT-0400 (Eastern Daylight Time),665096.0999994278,007_m_m_h_a.png,I,None,2016,10,1,3032.199999809265,662063.8999996185,9014,VNB,B,8
5,test,4,0.0,2-Back,1,m,Wed Apr 16 2025 13:59:09 GMT-0400 (Eastern Daylight Time),667495.8999996185,020_y_f_d_a.png,I,m,1337,11,1,2361.300000190735,665134.5999994278,9014,VNB,B,9
5,test,4,0.0,2-Back,0,m,Wed Apr 16 2025 13:59:09 GMT-0400 (Eastern Daylight Time),669345.8999996185,016_y_m_n_a.png,I,z,776,12,1,1806.5999994277954,667539.3000001907,9014,VNB,B,10
6,test,4,0.0,2-Back,1,z,Wed Apr 16 2025 13:59:09 GMT-0400 (Eastern Daylight Time),671429.5,004_o_m_d_a.png,I,z,1024,13,1,2044.6999998092651,669384.8000001907,9014,VNB,B,11
6,test,4,1.0,2-Back,0,m,Wed Apr 16 2025 13:59:09 GMT-0400 (Eastern Daylight Time),673712.5999994278,011_m_f_h_a.png,I,z,1212,14,1,2240.7999992370605,671471.8000001907,9014,VNB,B,12
7,test,4,1.0,2-Back,1,m,Wed Apr 16 2025 13:59:09 GMT-0400 (Eastern Daylight Time),676079.3999996185,020_y_f_h_a.png,I,m,1313,15,1,2339.699999809265,673739.6999998093,9014,VNB,B,13
7,test,4,0.0,2-Back,0,m,Wed Apr 16 2025 13:59:09 GMT-0400 (Eastern Daylight Time),678812.8999996185,005_o_f_n_a.png,I,z,1599,16,1,2692.5,676120.3999996185,9014,VNB,B,14
7,test,4,0.0,2-Back,0,m,Wed Apr 16 2025 13:59:09 GMT-0400 (Eastern Daylight Time),681212.8000001907,016_y_m_d_a.png,I,z,1316,17,1,2355.300000190735,678857.5,9014,VNB,B,15
7,test,4,1.0,2-Back,0,m,Wed Apr 16 2025 13:59:09 GMT-0400 (Eastern Daylight Time),684296.0999994278,007_m_m_d_a.png,I,None,2015,18,1,3036.199999809265,681259.8999996185,9014,VNB,B,16
0,test,5,1.0,2-Back,,,Wed Apr 16 2025 13:59:09 GMT-0400 (Eastern Daylight Time),684296.0999994278,020_y_f_d_a.png,I,space,1979,1,1,3036.199999809265,681259.8999996185,9014,VNB,B,0
0,test,5,1.0,2-Back,,,Wed Apr 16 2025 13:59:09 GMT-0400 (Eastern Daylight Time),684296.0999994278,005_o_f_h_a.png,I,space,1979,2,1,3036.199999809265,681259.8999996185,9014,VNB,B,0
1,test,5,1.0,2-Back,1,z,Wed Apr 16 2025 13:59:09 GMT-0400 (Eastern Daylight Time),694346.1999998093,004_o_m_d_a.png,I,z,1653,3,1,2683.1000003814697,691663.0999994278,9014,VNB,B,1
2,test,5,1.0,2-Back,1,m,Wed Apr 16 2025 13:59:09 GMT-0400 (Eastern Daylight Time),696396.0999994278,011_m_f_n_a.png,I,m,967,4,1,2006.3999996185303,694389.6999998093,9014,VNB,B,2
2,test,5,0.0,2-Back,0,m,Wed Apr 16 2025 13:59:09 GMT-0400 (Eastern Daylight Time),698579.5999994278,007_m_m_h_a.png,I,z,1109,5,1,2135.5,696444.0999994278,9014,VNB,B,3
3,test,5,0.0,2-Back,1,z,Wed Apr 16 2025 13:59:09 GMT-0400 (Eastern Daylight Time),701212.6999998093,020_y_f_n_a.png,I,z,1569,6,1,2592.8999996185303,698619.8000001907,9014,VNB,B,4
4,test,5,0.0,2-Back,1,m,Wed Apr 16 2025 13:59:09 GMT-0400 (Eastern Daylight Time),704112.5,005_o_f_d_a.png,I,m,1829,7,1,2855.1000003814697,701257.3999996185,9014,VNB,B,5
5,test,5,0.0,2-Back,1,m,Wed Apr 16 2025 13:59:09 GMT-0400 (Eastern Daylight Time),707129.1999998093,004_o_m_h_a.png,I,m,1937,8,1,2967.1000003814697,704162.0999994278,9014,VNB,B,6
6,test,5,1.0,2-Back,1,z,Wed Apr 16 2025 13:59:09 GMT-0400 (Eastern Daylight Time),708879.3999996185,011_m_f_d_a.png,I,z,680,9,1,1701.3999996185303,707178.0,9014,VNB,B,7
7,test,5,0.0,2-Back,1,m,Wed Apr 16 2025 13:59:09 GMT-0400 (Eastern Daylight Time),711445.5,016_y_m_n_a.png,I,m,1489,10,1,2521.5,708924.0,9014,VNB,B,8
7,test,5,0.0,2-Back,0,m,Wed Apr 16 2025 13:59:09 GMT-0400 (Eastern Daylight Time),713429.5,007_m_m_n_a.png,I,z,907,11,1,1924.6000003814697,711504.8999996185,9014,VNB,B,9
7,test,5,0.0,2-Back,0,m,Wed Apr 16 2025 13:59:09 GMT-0400 (Eastern Daylight Time),716196.0999994278,020_y_f_h_a.png,I,z,1692,12,1,2715.2999992370605,713480.8000001907,9014,VNB,B,10
8,test,5,0.0,2-Back,1,m,Wed Apr 16 2025 13:59:09 GMT-0400 (Eastern Daylight Time),718345.8999996185,016_y_m_d_a.png,I,m,1069,13,1,2100.300000190735,716245.5999994278,9014,VNB,B,11
9,test,5,1.0,2-Back,1,z,Wed Apr 16 2025 13:59:09 GMT-0400 (Eastern Daylight Time),720696.0999994278,011_m_f_h_a.png,I,z,1288,14,1,2315.8999996185303,718380.1999998093,9014,VNB,B,12
9,test,5,0.0,2-Back,0,m,Wed Apr 16 2025 13:59:09 GMT-0400 (Eastern Daylight Time),722946.0999994278,004_o_m_n_a.png,I,z,1154,15,1,2201.8999996185303,720744.1999998093,9014,VNB,B,13
10,test,5,0.0,2-Back,1,m,Wed Apr 16 2025 13:59:09 GMT-0400 (Eastern Daylight Time),725662.3000001907,007_m_m_d_a.png,I,m,1664,16,1,2676.5,722985.8000001907,9014,VNB,B,14
10,test,5,0.0,2-Back,0,z,Wed Apr 16 2025 13:59:09 GMT-0400 (Eastern Daylight Time),728729.6999998093,005_o_f_n_a.png,I,None,2015,17,1,3022.699999809265,725707.0,9014,VNB,B,15
11,test,5,1.0,2-Back,1,m,Wed Apr 16 2025 13:59:09 GMT-0400 (Eastern Daylight Time),731246.0999994278,016_y_m_h_a.png,I,m,1448,18,1,2482.699999809265,728763.3999996185,9014,VNB,B,16
