Q,Q1,Q2,Q3,Q4,acc_sum,block,block_c,correct,correct_response,datetime,endtime,project,response,response_time,row_sel,session_number,squiggle1,squiggle1x,squiggle1y,squiggle2,squiggle2x,squiggle2y,squiggle3,squiggle3x,squiggle3y,squiggle4,squiggle4x,squiggle4y,start_end,starttime,subject_id,target_congruent,task,task_vers,testsquiggle,testsquigglex,testsquiggley,time_practice_delay,time_practice_fixation,time_practice_stimuli,time_practice_study,time_test_delay,time_test_fixation,time_test_stimuli,time_test_study,trial
1,1,0,0,0,0,prac,1,0,z,Fri Sep 20 2024 18:12:05 GMT-0500 (Central Daylight Time),130858.79999999981,I,m,1505,1,1,16.bmp,-120,-120,17.bmp,120,-120,18.bmp,-120,120,19.bmp,120,120,10326.700000000186,120532.09999999963,8006,yes,SM,B,16.bmp,-120,-120,121212,115184,123229,117197,,,,,1
3,0,0,1,0,1,prac,1,1,m,Fri Sep 20 2024 18:12:05 GMT-0500 (Central Daylight Time),141355.5,I,m,1679,2,1,20.bmp,-120,-120,21.bmp,120,-120,22.bmp,-120,120,23.bmp,120,120,10492.800000000745,130862.69999999925,8006,no,SM,B,23.bmp,-120,120,131542,125515,133559,127527,,,,,2
4,0,0,0,1,2,prac,1,1,m,Fri Sep 20 2024 18:12:05 GMT-0500 (Central Daylight Time),150852.5,I,m,671,3,1,24.bmp,-120,-120,25.bmp,120,-120,26.bmp,-120,120,27.bmp,120,120,9494.0,141358.5,8006,no,SM,B,24.bmp,120,120,142039,136011,144055,138024,,,,,3
2,0,1,0,0,3,prac,1,1,z,Fri Sep 20 2024 18:12:05 GMT-0500 (Central Daylight Time),160816.09999999963,I,z,1134,4,1,28.bmp,-120,-120,29.bmp,120,-120,30.bmp,-120,120,31.bmp,120,120,9960.200000000186,150855.89999999944,8006,yes,SM,B,29.bmp,120,-120,151536,145508,153552,147521,,,,,4
3,0,0,1,0,4,prac,1,1,z,Fri Sep 20 2024 18:12:05 GMT-0500 (Central Daylight Time),170779.7999999998,I,z,1146,5,1,32.bmp,-120,-120,33.bmp,120,-120,34.bmp,-120,120,35.bmp,120,120,9960.5,160819.2999999998,8006,yes,SM,B,34.bmp,-120,120,161500,155472,163516,157484,,,,,5
1,1,0,0,0,4,prac,1,0,m,Fri Sep 20 2024 18:12:05 GMT-0500 (Central Daylight Time),180426.5,I,z,823,6,1,36.bmp,-120,-120,37.bmp,120,-120,38.bmp,-120,120,39.bmp,120,120,9643.200000000186,170783.2999999998,8006,no,SM,B,39.bmp,-120,-120,171463,165436,173479,167448,,,,,6
2,0,1,0,0,5,prac,1,1,m,Fri Sep 20 2024 18:12:05 GMT-0500 (Central Daylight Time),190373.59999999963,I,m,1128,7,1,40.bmp,-120,-120,41.bmp,120,-120,42.bmp,-120,120,43.bmp,120,120,9943.799999999814,180429.7999999998,8006,no,SM,B,40.bmp,120,-120,181110,175082,183126,177095,,,,,7
4,0,0,0,1,5,prac,1,0,z,Fri Sep 20 2024 18:12:05 GMT-0500 (Central Daylight Time),201170.19999999925,I,m,1974,8,1,44.bmp,-120,-120,45.bmp,120,-120,46.bmp,-120,120,47.bmp,120,120,10792.699999999255,190377.5,8006,yes,SM,B,47.bmp,120,120,191057,185030,193073,187042,,,,,8
4,0,0,0,1,1,test,1,1,m,Fri Sep 20 2024 18:12:05 GMT-0500 (Central Daylight Time),227728.39999999944,I,m,1235,1,1,48.bmp,-120,-120,49.bmp,120,-120,50.bmp,-120,120,43.bmp,120,120,9294.700000000186,218433.69999999925,8006,yes,SM,B,50.bmp,120,120,191057,185030,193073,187042,219115.0,213086.0,221131.0,215100.0,1
2,0,1,0,0,2,test,1,1,m,Fri Sep 20 2024 18:12:05 GMT-0500 (Central Daylight Time),237142.19999999925,I,m,1362,2,1,1.bmp,-120,-120,2.bmp,120,-120,3.bmp,-120,120,4.bmp,120,120,9410.599999999627,227731.59999999963,8006,yes,SM,B,3.bmp,120,-120,191057,185030,193073,187042,228412.0,222384.0,230428.0,224397.0,2
1,1,0,0,0,3,test,1,1,z,Fri Sep 20 2024 18:12:05 GMT-0500 (Central Daylight Time),246755.7999999998,I,z,1556,3,1,5.bmp,-120,-120,6.bmp,120,-120,7.bmp,-120,120,8.bmp,120,120,9610.400000000373,237145.39999999944,8006,yes,SM,B,5.bmp,-120,-120,191057,185030,193073,187042,237826.0,231798.0,239842.0,233811.0,3
3,0,0,1,0,3,test,1,0,m,Fri Sep 20 2024 18:12:05 GMT-0500 (Central Daylight Time),256052.89999999944,I,z,1247,4,1,9.bmp,-120,-120,10.bmp,120,-120,11.bmp,-120,120,12.bmp,120,120,9293.700000000186,246759.19999999925,8006,yes,SM,B,9.bmp,-120,120,191057,185030,193073,187042,247439.0,241411.0,249455.0,243424.0,4
2,0,1,0,0,4,test,1,1,z,Fri Sep 20 2024 18:12:05 GMT-0500 (Central Daylight Time),265066.69999999925,I,z,965,5,1,13.bmp,-120,-120,14.bmp,120,-120,15.bmp,-120,120,16.bmp,120,120,9010.599999999627,256056.09999999963,8006,yes,SM,B,14.bmp,120,-120,191057,185030,193073,187042,256736.0,250708.0,258753.0,252721.0,5
3,0,0,1,0,5,test,1,1,z,Fri Sep 20 2024 18:12:05 GMT-0500 (Central Daylight Time),274130.7999999998,I,z,1000,6,1,17.bmp,-120,-120,18.bmp,120,-120,19.bmp,-120,120,20.bmp,120,120,9060.900000000373,265069.89999999944,8006,yes,SM,B,19.bmp,-120,120,191057,185030,193073,187042,265751.0,259722.0,267766.0,261735.0,6
4,0,0,0,1,6,test,1,1,z,Fri Sep 20 2024 18:12:05 GMT-0500 (Central Daylight Time),283444.39999999944,I,z,1256,7,1,21.bmp,-120,-120,22.bmp,120,-120,23.bmp,-120,120,24.bmp,120,120,9310.700000000186,274133.69999999925,8006,yes,SM,B,24.bmp,120,120,191057,185030,193073,187042,274814.0,268786.0,276830.0,270799.0,7
2,0,1,0,0,7,test,1,1,m,Fri Sep 20 2024 18:12:05 GMT-0500 (Central Daylight Time),292591.2999999998,I,m,1095,8,1,25.bmp,-120,-120,26.bmp,120,-120,27.bmp,-120,120,28.bmp,120,120,9144.0,283447.2999999998,8006,yes,SM,B,25.bmp,120,-120,191057,185030,193073,187042,284128.0,278100.0,286144.0,280113.0,8
3,0,0,1,0,8,test,1,1,m,Fri Sep 20 2024 18:12:05 GMT-0500 (Central Daylight Time),302382.7999999998,I,m,1744,9,1,29.bmp,-120,-120,30.bmp,120,-120,31.bmp,-120,120,32.bmp,120,120,9788.299999999814,292594.5,8006,yes,SM,B,30.bmp,-120,120,191057,185030,193073,187042,293275.0,287247.0,295291.0,289260.0,9
4,0,0,0,1,9,test,1,1,z,Fri Sep 20 2024 18:12:05 GMT-0500 (Central Daylight Time),312151.89999999944,I,z,1720,10,1,37.bmp,-120,-120,38.bmp,120,-120,39.bmp,-120,120,40.bmp,120,120,9765.299999999814,302386.5999999996,8006,yes,SM,B,40.bmp,120,120,191057,185030,193073,187042,303055.0,297039.0,305071.0,299040.0,10
3,0,0,1,0,10,test,1,1,z,Fri Sep 20 2024 18:12:05 GMT-0500 (Central Daylight Time),321249.0999999996,I,z,1034,11,1,33.bmp,-120,-120,34.bmp,120,-120,35.bmp,-120,120,36.bmp,120,120,9093.799999999814,312155.2999999998,8006,yes,SM,B,35.bmp,-120,120,191057,185030,193073,187042,312837.0,306808.0,314852.0,308820.0,11
2,0,1,0,0,11,test,1,1,m,Fri Sep 20 2024 18:12:05 GMT-0500 (Central Daylight Time),330313.0999999996,I,m,1001,12,1,41.bmp,-120,-120,42.bmp,120,-120,43.bmp,-120,120,44.bmp,120,120,9060.799999999814,321252.2999999998,8006,yes,SM,B,41.bmp,120,-120,191057,185030,193073,187042,321933.0,315905.0,323949.0,317917.0,12
3,0,0,1,0,12,test,1,1,m,Fri Sep 20 2024 18:12:05 GMT-0500 (Central Daylight Time),340093.19999999925,I,m,1721,13,1,45.bmp,-120,-120,46.bmp,120,-120,47.bmp,-120,120,48.bmp,120,120,9777.099999999627,330316.0999999996,8006,yes,SM,B,46.bmp,-120,120,191057,185030,193073,187042,330997.0,324968.0,333013.0,326981.0,13
1,1,0,0,0,13,test,1,1,z,Fri Sep 20 2024 18:12:05 GMT-0500 (Central Daylight Time),349456.5,I,z,1310,14,1,49.bmp,-120,-120,50.bmp,120,-120,4.bmp,-120,120,1.bmp,120,120,9360.200000000186,340096.2999999998,8006,yes,SM,B,49.bmp,-120,-120,191057,185030,193073,187042,340777.0,334748.0,342793.0,336762.0,14
4,0,0,0,1,13,test,1,0,m,Fri Sep 20 2024 18:12:05 GMT-0500 (Central Daylight Time),358720.69999999925,I,z,1209,15,1,10.bmp,-120,-120,11.bmp,120,-120,12.bmp,-120,120,13.bmp,120,120,9258.699999999255,349462.0,8006,yes,SM,B,11.bmp,120,120,191057,185030,193073,187042,350141.0,344114.0,352157.0,346125.0,15
1,1,0,0,0,14,test,1,1,m,Fri Sep 20 2024 18:12:05 GMT-0500 (Central Daylight Time),368101.0999999996,I,m,1322,16,1,2.bmp,-120,-120,3.bmp,120,-120,4.bmp,-120,120,5.bmp,120,120,9377.299999999814,358723.7999999998,8006,yes,SM,B,5.bmp,-120,-120,191057,185030,193073,187042,359404.0,353376.0,361421.0,355389.0,16
3,0,0,1,0,14,test,1,0,m,Fri Sep 20 2024 18:12:05 GMT-0500 (Central Daylight Time),378164.7999999998,I,None,2016,17,1,22.bmp,-120,-120,23.bmp,120,-120,24.bmp,-120,120,25.bmp,120,120,10060.799999999814,368104.0,8006,yes,SM,B,22.bmp,-120,120,191057,185030,193073,187042,368785.0,362756.0,370801.0,364769.0,17
1,1,0,0,0,15,test,1,1,z,Fri Sep 20 2024 18:12:05 GMT-0500 (Central Daylight Time),387378.19999999925,I,z,1150,18,1,6.bmp,-120,-120,7.bmp,120,-120,8.bmp,-120,120,9.bmp,120,120,9210.299999999814,378167.89999999944,8006,yes,SM,B,6.bmp,-120,-120,191057,185030,193073,187042,378848.0,372820.0,380864.0,374833.0,18
2,0,1,0,0,16,test,1,1,z,Fri Sep 20 2024 18:12:05 GMT-0500 (Central Daylight Time),396658.5999999996,I,z,1231,19,1,26.bmp,-120,-120,27.bmp,120,-120,28.bmp,-120,120,29.bmp,120,120,9277.099999999627,387381.5,8006,yes,SM,B,27.bmp,120,-120,191057,185030,193073,187042,388062.0,382034.0,390079.0,384047.0,19
3,0,0,1,0,17,test,1,1,z,Fri Sep 20 2024 18:12:05 GMT-0500 (Central Daylight Time),405972.7999999998,I,z,1256,20,1,30.bmp,-120,-120,31.bmp,120,-120,32.bmp,-120,120,33.bmp,120,120,9310.299999999814,396662.5,8006,yes,SM,B,32.bmp,-120,120,191057,185030,193073,187042,397343.0,391315.0,399359.0,393327.0,20
1,1,0,0,0,17,test,1,0,m,Fri Sep 20 2024 18:12:05 GMT-0500 (Central Daylight Time),416036.0999999996,I,None,2015,21,1,14.bmp,-120,-120,15.bmp,120,-120,16.bmp,-120,120,17.bmp,120,120,10060.200000000186,405975.89999999944,8006,yes,SM,B,16.bmp,-120,-120,191057,185030,193073,187042,406656.0,400628.0,408672.0,402641.0,21
4,0,0,0,1,18,test,1,1,z,Fri Sep 20 2024 18:12:05 GMT-0500 (Central Daylight Time),425433.19999999925,I,z,1334,22,1,18.bmp,-120,-120,19.bmp,120,-120,20.bmp,-120,120,21.bmp,120,120,9393.899999999441,416039.2999999998,8006,yes,SM,B,21.bmp,120,120,191057,185030,193073,187042,416720.0,410691.0,418736.0,412704.0,22
1,1,0,0,0,19,test,1,1,m,Fri Sep 20 2024 18:12:05 GMT-0500 (Central Daylight Time),434680.0999999996,I,m,1186,23,1,34.bmp,-120,-120,35.bmp,120,-120,36.bmp,-120,120,37.bmp,120,120,9244.0,425436.0999999996,8006,yes,SM,B,37.bmp,-120,-120,191057,185030,193073,187042,426117.0,420088.0,428133.0,422102.0,23
2,0,1,0,0,20,test,1,1,z,Fri Sep 20 2024 18:12:05 GMT-0500 (Central Daylight Time),443760.2999999998,I,z,1026,24,1,42.bmp,-120,-120,43.bmp,120,-120,44.bmp,-120,120,45.bmp,120,120,9077.299999999814,434683.0,8006,yes,SM,B,43.bmp,120,-120,191057,185030,193073,187042,435364.0,429335.0,437380.0,431348.0,24
4,0,0,0,1,21,test,1,1,m,Fri Sep 20 2024 18:12:05 GMT-0500 (Central Daylight Time),452824.39999999944,I,m,1011,25,1,46.bmp,-120,-120,47.bmp,120,-120,48.bmp,-120,120,49.bmp,120,120,9061.399999999441,443763.0,8006,yes,SM,B,48.bmp,120,120,191057,185030,193073,187042,444444.0,438415.0,446460.0,440429.0,25
1,1,0,0,0,22,test,1,1,z,Fri Sep 20 2024 18:12:05 GMT-0500 (Central Daylight Time),461704.89999999944,I,z,827,26,1,38.bmp,-120,-120,39.bmp,120,-120,40.bmp,-120,120,41.bmp,120,120,8877.5,452827.39999999944,8006,yes,SM,B,38.bmp,-120,-120,191057,185030,193073,187042,453508.0,447480.0,455524.0,449493.0,26
4,0,0,0,1,23,test,1,1,z,Fri Sep 20 2024 18:12:05 GMT-0500 (Central Daylight Time),470735.69999999925,I,z,978,27,1,50.bmp,-120,-120,11.bmp,120,-120,1.bmp,-120,120,2.bmp,120,120,9027.299999999814,461708.39999999944,8006,yes,SM,B,2.bmp,120,120,191057,185030,193073,187042,462388.0,456360.0,464405.0,458373.0,27
3,0,0,1,0,23,test,1,0,m,Fri Sep 20 2024 18:12:05 GMT-0500 (Central Daylight Time),479682.5,I,z,890,28,1,3.bmp,-120,-120,4.bmp,120,-120,5.bmp,-120,120,6.bmp,120,120,8941.700000000186,470740.7999999998,8006,yes,SM,B,3.bmp,-120,120,191057,185030,193073,187042,471419.0,465393.0,473436.0,467404.0,28
2,0,1,0,0,24,test,1,1,z,Fri Sep 20 2024 18:12:05 GMT-0500 (Central Daylight Time),488646.5999999996,I,z,912,29,1,7.bmp,-120,-120,8.bmp,120,-120,9.bmp,-120,120,10.bmp,120,120,8960.799999999814,479685.7999999998,8006,yes,SM,B,8.bmp,120,-120,191057,185030,193073,187042,480366.0,474338.0,482383.0,476351.0,29
3,0,0,1,0,25,test,1,1,z,Fri Sep 20 2024 18:12:05 GMT-0500 (Central Daylight Time),497277.2999999998,I,z,588,30,1,11.bmp,-120,-120,12.bmp,120,-120,13.bmp,-120,120,14.bmp,120,120,8627.600000000559,488649.69999999925,8006,yes,SM,B,13.bmp,-120,120,191057,185030,193073,187042,489313.0,483302.0,491330.0,485309.0,30
1,1,0,0,0,26,test,1,1,z,Fri Sep 20 2024 18:12:05 GMT-0500 (Central Daylight Time),506407.5999999996,I,z,1078,31,1,15.bmp,-120,-120,16.bmp,120,-120,17.bmp,-120,120,18.bmp,120,120,9127.099999999627,497280.5,8006,yes,SM,B,15.bmp,-120,-120,191057,185030,193073,187042,497961.0,491933.0,499977.0,493946.0,31
2,0,1,0,0,27,test,1,1,m,Fri Sep 20 2024 18:12:05 GMT-0500 (Central Daylight Time),516271.19999999925,I,m,1811,32,1,19.bmp,-120,-120,20.bmp,120,-120,21.bmp,-120,120,22.bmp,120,120,9860.399999999441,506410.7999999998,8006,yes,SM,B,19.bmp,120,-120,191057,185030,193073,187042,507091.0,501063.0,509108.0,503076.0,32
4,0,0,0,1,28,test,1,1,z,Fri Sep 20 2024 18:12:05 GMT-0500 (Central Daylight Time),525451.5,I,z,1123,33,1,31.bmp,-120,-120,32.bmp,120,-120,33.bmp,-120,120,34.bmp,120,120,9177.300000000745,516274.19999999925,8006,yes,SM,B,34.bmp,120,120,191057,185030,193073,187042,516955.0,510926.0,518971.0,512940.0,33
2,0,1,0,0,29,test,1,1,z,Fri Sep 20 2024 18:12:05 GMT-0500 (Central Daylight Time),534748.6999999993,I,z,1239,34,1,23.bmp,-120,-120,24.bmp,120,-120,25.bmp,-120,120,26.bmp,120,120,9294.399999999441,525454.2999999998,8006,yes,SM,B,24.bmp,120,-120,191057,185030,193073,187042,526135.0,520107.0,528151.0,522120.0,34
4,0,0,0,1,30,test,1,1,m,Fri Sep 20 2024 18:12:05 GMT-0500 (Central Daylight Time),543896.0,I,m,1085,35,1,27.bmp,-120,-120,28.bmp,120,-120,29.bmp,-120,120,30.bmp,120,120,9143.900000000373,534752.0999999996,8006,yes,SM,B,29.bmp,120,120,191057,185030,193073,187042,535433.0,529404.0,537448.0,531417.0,35
3,0,0,1,0,31,test,1,1,m,Fri Sep 20 2024 18:12:05 GMT-0500 (Central Daylight Time),553009.6999999993,I,m,1059,36,1,35.bmp,-120,-120,36.bmp,120,-120,37.bmp,-120,120,38.bmp,120,120,9110.699999999255,543899.0,8006,yes,SM,B,35.bmp,-120,120,191057,185030,193073,187042,544580.0,538551.0,546596.0,540564.0,36
1,1,0,0,0,32,test,1,1,m,Fri Sep 20 2024 18:12:05 GMT-0500 (Central Daylight Time),562173.5999999996,I,m,1060,37,1,39.bmp,-120,-120,40.bmp,120,-120,41.bmp,-120,120,42.bmp,120,120,9161.099999999627,553012.5,8006,yes,SM,B,40.bmp,-120,-120,191057,185030,193073,187042,553693.0,547665.0,555755.0,549678.0,37
2,0,1,0,0,33,test,1,1,m,Fri Sep 20 2024 18:12:05 GMT-0500 (Central Daylight Time),571253.8999999994,I,m,1022,38,1,43.bmp,-120,-120,44.bmp,120,-120,45.bmp,-120,120,46.bmp,120,120,9077.099999999627,562176.7999999998,8006,yes,SM,B,45.bmp,120,-120,191057,185030,193073,187042,562857.0,556829.0,564873.0,558842.0,38
4,0,0,0,1,34,test,1,1,z,Fri Sep 20 2024 18:12:05 GMT-0500 (Central Daylight Time),580517.6999999993,I,z,1212,39,1,47.bmp,-120,-120,48.bmp,120,-120,49.bmp,-120,120,50.bmp,120,120,9261.0,571256.6999999993,8006,yes,SM,B,50.bmp,120,120,191057,185030,193073,187042,571938.0,565909.0,573954.0,567922.0,39
3,0,0,1,0,35,test,1,1,m,Fri Sep 20 2024 18:12:05 GMT-0500 (Central Daylight Time),589465.0,I,m,893,40,1,4.bmp,-120,-120,5.bmp,120,-120,6.bmp,-120,120,7.bmp,120,120,8944.200000000186,580520.7999999998,8006,yes,SM,B,5.bmp,-120,120,191057,185030,193073,187042,581201.0,575173.0,583218.0,577187.0,40
1,1,0,0,0,36,test,1,1,z,Fri Sep 20 2024 18:12:05 GMT-0500 (Central Daylight Time),598545.3999999994,I,z,1018,41,1,8.bmp,-120,-120,9.bmp,120,-120,10.bmp,-120,120,11.bmp,120,120,9077.599999999627,589467.7999999998,8006,yes,SM,B,8.bmp,-120,-120,191057,185030,193073,187042,590148.0,584120.0,592165.0,586133.0,41
4,0,0,0,1,37,test,1,1,z,Fri Sep 20 2024 18:12:05 GMT-0500 (Central Daylight Time),607675.8999999994,I,z,1081,42,1,12.bmp,-120,-120,13.bmp,120,-120,14.bmp,-120,120,15.bmp,120,120,9127.899999999441,598548.0,8006,yes,SM,B,15.bmp,120,120,191057,185030,193073,187042,599229.0,593200.0,601245.0,595214.0,42
1,1,0,0,0,38,test,1,1,z,Fri Sep 20 2024 18:12:05 GMT-0500 (Central Daylight Time),616573.1999999993,I,z,839,43,1,16.bmp,-120,-120,17.bmp,120,-120,18.bmp,-120,120,19.bmp,120,120,8894.699999999255,607678.5,8006,yes,SM,B,16.bmp,-120,-120,191057,185030,193073,187042,608360.0,602331.0,610376.0,604344.0,43
4,0,0,0,1,39,test,1,1,m,Fri Sep 20 2024 18:12:05 GMT-0500 (Central Daylight Time),625636.8999999994,I,m,1006,44,1,4.bmp,-120,-120,1.bmp,120,-120,2.bmp,-120,120,3.bmp,120,120,9060.700000000186,616576.1999999993,8006,yes,SM,B,4.bmp,120,120,191057,185030,193073,187042,617257.0,611228.0,619273.0,613241.0,44
1,1,0,0,0,40,test,1,1,m,Fri Sep 20 2024 18:12:05 GMT-0500 (Central Daylight Time),634601.7999999998,I,m,901,45,1,28.bmp,-120,-120,29.bmp,120,-120,30.bmp,-120,120,31.bmp,120,120,8961.900000000373,625639.8999999994,8006,yes,SM,B,31.bmp,-120,-120,191057,185030,193073,187042,626334.0,620292.0,628338.0,622305.0,45
1,1,0,0,0,41,test,1,1,m,Fri Sep 20 2024 18:12:05 GMT-0500 (Central Daylight Time),643548.0999999996,I,m,897,46,1,20.bmp,-120,-120,21.bmp,120,-120,22.bmp,-120,120,23.bmp,120,120,8942.900000000373,634605.1999999993,8006,yes,SM,B,21.bmp,-120,-120,191057,185030,193073,187042,635285.0,629258.0,637301.0,631269.0,46
3,0,0,1,0,42,test,1,1,z,Fri Sep 20 2024 18:12:05 GMT-0500 (Central Daylight Time),653045.0,I,z,1439,47,1,24.bmp,-120,-120,25.bmp,120,-120,26.bmp,-120,120,27.bmp,120,120,9494.100000000559,643550.8999999994,8006,yes,SM,B,26.bmp,-120,120,191057,185030,193073,187042,644231.0,638203.0,646248.0,640216.0,47
3,0,0,1,0,43,test,1,1,z,Fri Sep 20 2024 18:12:05 GMT-0500 (Central Daylight Time),662158.6999999993,I,z,1062,48,1,40.bmp,-120,-120,41.bmp,120,-120,42.bmp,-120,120,43.bmp,120,120,9110.5,653048.1999999993,8006,yes,SM,B,42.bmp,-120,120,191057,185030,193073,187042,653729.0,647700.0,655745.0,649713.0,48
2,0,1,0,0,44,test,1,1,z,Fri Sep 20 2024 18:12:05 GMT-0500 (Central Daylight Time),671555.5999999996,I,z,1348,49,1,36.bmp,-120,-120,37.bmp,120,-120,38.bmp,-120,120,39.bmp,120,120,9393.700000000186,662161.8999999994,8006,yes,SM,B,37.bmp,120,-120,191057,185030,193073,187042,662843.0,656814.0,664859.0,658827.0,49
3,0,0,1,0,44,test,1,0,m,Fri Sep 20 2024 18:12:05 GMT-0500 (Central Daylight Time),681036.1999999993,I,z,1423,50,1,32.bmp,-120,-120,33.bmp,120,-120,34.bmp,-120,120,35.bmp,120,120,9477.599999999627,671558.5999999996,8006,yes,SM,B,32.bmp,-120,120,191057,185030,193073,187042,672239.0,666211.0,674256.0,668224.0,50
2,0,1,0,0,45,test,1,1,z,Fri Sep 20 2024 18:12:05 GMT-0500 (Central Daylight Time),690301.0999999996,I,z,1215,51,1,44.bmp,-120,-120,45.bmp,120,-120,46.bmp,-120,120,47.bmp,120,120,9261.700000000186,681039.3999999994,8006,yes,SM,B,45.bmp,120,-120,191057,185030,193073,187042,681720.0,675692.0,683736.0,677705.0,51
4,0,0,0,1,46,test,1,1,m,Fri Sep 20 2024 18:12:05 GMT-0500 (Central Daylight Time),699480.3999999994,I,m,1127,52,1,48.bmp,-120,-120,49.bmp,120,-120,50.bmp,-120,120,31.bmp,120,120,9176.200000000186,690304.1999999993,8006,yes,SM,B,48.bmp,120,120,191057,185030,193073,187042,690984.0,684956.0,693000.0,686968.0,52
3,0,0,1,0,47,test,1,1,z,Fri Sep 20 2024 18:12:05 GMT-0500 (Central Daylight Time),708527.5999999996,I,z,987,53,1,1.bmp,-120,-120,2.bmp,120,-120,3.bmp,-120,120,4.bmp,120,120,9044.299999999814,699483.2999999998,8006,yes,SM,B,3.bmp,-120,120,191057,185030,193073,187042,700164.0,694135.0,702180.0,696149.0,53
1,1,0,0,0,47,test,1,0,m,Fri Sep 20 2024 18:12:05 GMT-0500 (Central Daylight Time),718157.8999999994,I,z,1572,54,1,5.bmp,-120,-120,6.bmp,120,-120,7.bmp,-120,120,8.bmp,120,120,9626.200000000186,708531.6999999993,8006,yes,SM,B,7.bmp,-120,-120,191057,185030,193073,187042,709211.0,703184.0,711227.0,705196.0,54
4,0,0,0,1,48,test,1,1,z,Fri Sep 20 2024 18:12:05 GMT-0500 (Central Daylight Time),727305.0999999996,I,z,1093,55,1,9.bmp,-120,-120,10.bmp,120,-120,11.bmp,-120,120,12.bmp,120,120,9144.400000000373,718160.6999999993,8006,yes,SM,B,12.bmp,120,120,191057,185030,193073,187042,718841.0,712813.0,720858.0,714826.0,55
2,0,1,0,0,49,test,1,1,m,Fri Sep 20 2024 18:12:05 GMT-0500 (Central Daylight Time),736385.6999999993,I,m,1026,56,1,13.bmp,-120,-120,14.bmp,120,-120,15.bmp,-120,120,16.bmp,120,120,9077.699999999255,727308.0,8006,yes,SM,B,13.bmp,120,-120,191057,185030,193073,187042,727989.0,721960.0,730005.0,723974.0,56
4,0,0,0,1,49,test,1,0,m,Fri Sep 20 2024 18:12:05 GMT-0500 (Central Daylight Time),745349.3999999994,I,z,906,57,1,17.bmp,-120,-120,18.bmp,120,-120,19.bmp,-120,120,20.bmp,120,120,8961.0,736388.3999999994,8006,yes,SM,B,18.bmp,120,120,191057,185030,193073,187042,737069.0,731041.0,739085.0,733054.0,57
3,0,0,1,0,50,test,1,1,z,Fri Sep 20 2024 18:12:05 GMT-0500 (Central Daylight Time),754563.1999999993,I,z,1158,58,1,21.bmp,-120,-120,22.bmp,120,-120,23.bmp,-120,120,24.bmp,120,120,9210.699999999255,745352.5,8006,yes,SM,B,23.bmp,-120,120,191057,185030,193073,187042,746033.0,740005.0,748049.0,742018.0,58
2,0,1,0,0,50,test,1,0,m,Fri Sep 20 2024 18:12:05 GMT-0500 (Central Daylight Time),764593.2999999998,I,z,1968,59,1,25.bmp,-120,-120,26.bmp,120,-120,27.bmp,-120,120,28.bmp,120,120,10027.0,754566.2999999998,8006,yes,SM,B,28.bmp,120,-120,191057,185030,193073,187042,755247.0,749218.0,757263.0,751231.0,59
1,1,0,0,0,51,test,1,1,z,Fri Sep 20 2024 18:12:05 GMT-0500 (Central Daylight Time),773873.6999999993,I,z,1226,60,1,29.bmp,-120,-120,30.bmp,120,-120,31.bmp,-120,120,32.bmp,120,120,9277.0,764596.6999999993,8006,yes,SM,B,29.bmp,-120,-120,191057,185030,193073,187042,765277.0,759249.0,767293.0,761262.0,60
2,0,1,0,0,52,test,1,1,z,Fri Sep 20 2024 18:12:05 GMT-0500 (Central Daylight Time),782870.7999999998,I,z,945,61,1,33.bmp,-120,-120,34.bmp,120,-120,35.bmp,-120,120,36.bmp,120,120,8994.200000000186,773876.5999999996,8006,yes,SM,B,34.bmp,120,-120,191057,185030,193073,187042,774557.0,768529.0,776574.0,770542.0,61
4,0,0,0,1,53,test,1,1,z,Fri Sep 20 2024 18:12:05 GMT-0500 (Central Daylight Time),792034.6999999993,I,z,1100,62,1,41.bmp,-120,-120,42.bmp,120,-120,43.bmp,-120,120,44.bmp,120,120,9161.199999999255,782873.5,8006,yes,SM,B,44.bmp,120,120,191057,185030,193073,187042,783555.0,777526.0,785571.0,779539.0,62
1,1,0,0,0,53,test,1,0,m,Fri Sep 20 2024 18:12:05 GMT-0500 (Central Daylight Time),801881.6999999993,I,z,1785,63,1,45.bmp,-120,-120,46.bmp,120,-120,47.bmp,-120,120,48.bmp,120,120,9844.099999999627,792037.5999999996,8006,yes,SM,B,45.bmp,-120,120,191057,185030,193073,187042,792718.0,786690.0,794734.0,788704.0,63
2,0,1,0,0,54,test,1,1,z,Fri Sep 20 2024 18:12:05 GMT-0500 (Central Daylight Time),811079.0,I,z,1137,64,1,49.bmp,-120,-120,50.bmp,120,-120,12.bmp,-120,120,1.bmp,120,120,9194.400000000373,801884.5999999996,8006,yes,SM,B,50.bmp,120,-120,191057,185030,193073,187042,802565.0,796537.0,804582.0,798550.0,64
4,0,0,0,1,54,test,1,0,m,Fri Sep 20 2024 18:12:05 GMT-0500 (Central Daylight Time),821142.3999999994,I,None,2015,65,1,2.bmp,-120,-120,3.bmp,120,-120,4.bmp,-120,120,5.bmp,120,120,10060.599999999627,811081.7999999998,8006,yes,SM,B,4.bmp,120,120,191057,185030,193073,187042,811762.0,805734.0,813779.0,807747.0,65
3,0,0,1,0,55,test,1,1,m,Fri Sep 20 2024 18:12:05 GMT-0500 (Central Daylight Time),830306.0999999996,I,m,1101,66,1,6.bmp,-120,-120,7.bmp,120,-120,8.bmp,-120,120,9.bmp,120,120,9160.599999999627,821145.5,8006,yes,SM,B,9.bmp,-120,120,191057,185030,193073,187042,821826.0,815798.0,823842.0,817811.0,66
2,0,1,0,0,56,test,1,1,m,Fri Sep 20 2024 18:12:05 GMT-0500 (Central Daylight Time),839336.6999999993,I,m,969,67,1,37.bmp,-120,-120,38.bmp,120,-120,39.bmp,-120,120,40.bmp,120,120,9027.599999999627,830309.0999999996,8006,yes,SM,B,39.bmp,120,-120,191057,185030,193073,187042,830990.0,824961.0,833006.0,826974.0,67
3,0,0,1,0,57,test,1,1,z,Fri Sep 20 2024 18:12:05 GMT-0500 (Central Daylight Time),848267.0,I,z,882,68,1,10.bmp,-120,-120,11.bmp,120,-120,12.bmp,-120,120,13.bmp,120,120,8927.700000000186,839339.2999999998,8006,yes,SM,B,12.bmp,-120,120,191057,185030,193073,187042,840020.0,833992.0,842036.0,836005.0,68
1,1,0,0,0,58,test,1,1,m,Fri Sep 20 2024 18:12:05 GMT-0500 (Central Daylight Time),857764.0999999996,I,m,1440,69,1,14.bmp,-120,-120,15.bmp,120,-120,16.bmp,-120,120,17.bmp,120,120,9494.5,848269.5999999996,8006,yes,SM,B,15.bmp,-120,-120,191057,185030,193073,187042,848951.0,842922.0,850967.0,844936.0,69
2,0,1,0,0,59,test,1,1,m,Fri Sep 20 2024 18:12:05 GMT-0500 (Central Daylight Time),866945.3999999994,I,m,1119,70,1,18.bmp,-120,-120,19.bmp,120,-120,20.bmp,-120,120,21.bmp,120,120,9178.399999999441,857767.0,8006,yes,SM,B,20.bmp,120,-120,191057,185030,193073,187042,858448.0,852419.0,860464.0,854433.0,70
4,0,0,0,1,60,test,1,1,z,Fri Sep 20 2024 18:12:05 GMT-0500 (Central Daylight Time),876458.1999999993,I,z,1459,71,1,22.bmp,-120,-120,23.bmp,120,-120,24.bmp,-120,120,25.bmp,120,120,9510.0,866948.1999999993,8006,yes,SM,B,25.bmp,120,120,191057,185030,193073,187042,867628.0,861600.0,869644.0,863613.0,71
1,1,0,0,0,61,test,1,1,z,Fri Sep 20 2024 18:12:05 GMT-0500 (Central Daylight Time),885605.3999999994,I,z,1089,72,1,26.bmp,-120,-120,27.bmp,120,-120,28.bmp,-120,120,29.bmp,120,120,9144.299999999814,876461.0999999996,8006,yes,SM,B,26.bmp,-120,-120,191057,185030,193073,187042,877142.0,871113.0,879158.0,873127.0,72
2,0,1,0,0,62,test,1,1,z,Fri Sep 20 2024 18:12:05 GMT-0500 (Central Daylight Time),894869.1999999993,I,z,1214,73,1,30.bmp,-120,-120,31.bmp,120,-120,32.bmp,-120,120,33.bmp,120,120,9260.899999999441,885608.2999999998,8006,yes,SM,B,31.bmp,120,-120,191057,185030,193073,187042,886289.0,880260.0,888305.0,882274.0,73
4,0,0,0,1,63,test,1,1,m,Fri Sep 20 2024 18:12:05 GMT-0500 (Central Daylight Time),904599.5999999996,I,m,1670,74,1,34.bmp,-120,-120,35.bmp,120,-120,36.bmp,-120,120,37.bmp,120,120,9727.299999999814,894872.2999999998,8006,yes,SM,B,36.bmp,120,120,191057,185030,193073,187042,895553.0,889524.0,897569.0,891537.0,74
2,0,1,0,0,63,test,1,0,m,Fri Sep 20 2024 18:12:05 GMT-0500 (Central Daylight Time),913846.6999999993,I,z,1188,75,1,38.bmp,-120,-120,39.bmp,120,-120,40.bmp,-120,120,41.bmp,120,120,9243.899999999441,904602.7999999998,8006,yes,SM,B,41.bmp,120,-120,191057,185030,193073,187042,905283.0,899255.0,907299.0,901268.0,75
1,1,0,0,0,64,test,1,1,z,Fri Sep 20 2024 18:12:05 GMT-0500 (Central Daylight Time),922843.6999999993,I,z,941,76,1,42.bmp,-120,-120,43.bmp,120,-120,44.bmp,-120,120,45.bmp,120,120,8994.099999999627,913849.5999999996,8006,yes,SM,B,42.bmp,-120,-120,191057,185030,193073,187042,914530.0,908502.0,916546.0,910515.0,76
3,0,0,1,0,65,test,1,1,z,Fri Sep 20 2024 18:12:05 GMT-0500 (Central Daylight Time),931840.8999999994,I,z,935,77,1,50.bmp,-120,-120,11.bmp,120,-120,1.bmp,-120,120,2.bmp,120,120,8994.099999999627,922846.7999999998,8006,yes,SM,B,1.bmp,-120,120,191057,185030,193073,187042,923527.0,917499.0,925544.0,919513.0,77
1,1,0,0,0,66,test,1,1,m,Fri Sep 20 2024 18:12:05 GMT-0500 (Central Daylight Time),941188.0,I,m,1307,78,1,46.bmp,-120,-120,47.bmp,120,-120,48.bmp,-120,120,49.bmp,120,120,9344.0,931844.0,8006,yes,SM,B,47.bmp,-120,-120,191057,185030,193073,187042,932519.0,926496.0,934524.0,928509.0,78
4,0,0,0,1,67,test,1,1,m,Fri Sep 20 2024 18:12:05 GMT-0500 (Central Daylight Time),950451.6999999993,I,m,1207,79,1,7.bmp,-120,-120,8.bmp,120,-120,9.bmp,-120,120,10.bmp,120,120,9256.199999999255,941195.5,8006,yes,SM,B,7.bmp,120,120,191057,185030,193073,187042,941873.0,935848.0,943888.0,937856.0,79
3,0,0,1,0,68,test,1,1,m,Fri Sep 20 2024 18:12:05 GMT-0500 (Central Daylight Time),959848.7999999998,I,m,1336,80,1,3.bmp,-120,-120,4.bmp,120,-120,5.bmp,-120,120,6.bmp,120,120,9393.900000000373,950454.8999999994,8006,yes,SM,B,6.bmp,-120,120,191057,185030,193073,187042,951136.0,945107.0,953151.0,947120.0,80
