Q,Q1,Q2,Q3,Q4,acc_sum,block,block_c,correct,correct_response,datetime,endtime,project,response,response_time,row_sel,session_number,squiggle1,squiggle1x,squiggle1y,squiggle2,squiggle2x,squiggle2y,squiggle3,squiggle3x,squiggle3y,squiggle4,squiggle4x,squiggle4y,start_end,starttime,subject_id,target_congruent,task,task_vers,testsquiggle,testsquigglex,testsquiggley,time_practice_delay,time_practice_fixation,time_practice_stimuli,time_practice_study,time_test_delay,time_test_fixation,time_test_stimuli,time_test_study,trial
1,1,0,0,0,1,prac,1,1,z,Tue Apr 15 2025 17:56:42 GMT-0500 (Central Daylight Time),101381.40000000037,I,z,1244,1,3,66.bmp,-120,-120,67.bmp,120,-120,68.bmp,-120,120,69.bmp,120,120,10060.599999999627,91320.80000000075,8006,yes,SM,C,66.bmp,-120,-120,95531,89502,97547,91515,,,,,1
3,0,0,1,0,2,prac,1,1,m,Tue Apr 15 2025 17:56:42 GMT-0500 (Central Daylight Time),111628.30000000075,I,m,1420,2,3,70.bmp,-120,-120,71.bmp,120,-120,72.bmp,-120,120,73.bmp,120,120,10243.300000000745,101385.0,8006,no,SM,C,73.bmp,-120,120,105594,99566,107610,101579,,,,,2
4,0,0,0,1,3,prac,1,1,m,Tue Apr 15 2025 17:56:42 GMT-0500 (Central Daylight Time),121575.10000000056,I,m,1118,3,3,74.bmp,-120,-120,75.bmp,120,-120,76.bmp,-120,120,77.bmp,120,120,9943.200000000186,111631.90000000037,8006,no,SM,C,74.bmp,120,120,115841,109813,117857,111826,,,,,3
2,0,1,0,0,4,prac,1,1,z,Tue Apr 15 2025 17:56:42 GMT-0500 (Central Daylight Time),132040.30000000075,I,z,1635,4,3,78.bmp,-120,-120,79.bmp,120,-120,80.bmp,-120,120,81.bmp,120,120,10462.0,121578.30000000075,8006,yes,SM,C,79.bmp,120,-120,125787,119760,127804,121773,,,,,4
3,0,0,1,0,5,prac,1,1,z,Tue Apr 15 2025 17:56:42 GMT-0500 (Central Daylight Time),142101.80000000075,I,z,1244,5,3,82.bmp,-120,-120,83.bmp,120,-120,84.bmp,-120,120,85.bmp,120,120,10055.400000000373,132046.40000000037,8006,yes,SM,C,84.bmp,-120,120,136251,130228,138267,132236,,,,,5
1,1,0,0,0,6,prac,1,1,m,Tue Apr 15 2025 17:56:42 GMT-0500 (Central Daylight Time),152615.40000000037,I,m,1692,6,3,86.bmp,-120,-120,87.bmp,120,-120,88.bmp,-120,120,89.bmp,120,120,10510.200000000186,142105.2000000002,8006,no,SM,C,89.bmp,-120,-120,146314,140286,148331,142299,,,,,6
2,0,1,0,0,7,prac,1,1,m,Tue Apr 15 2025 17:56:42 GMT-0500 (Central Daylight Time),163012.2000000002,I,m,1579,7,3,90.bmp,-120,-120,91.bmp,120,-120,92.bmp,-120,120,93.bmp,120,120,10393.299999999814,152618.90000000037,8006,no,SM,C,90.bmp,120,-120,156828,150800,158844,152813,,,,,7
4,0,0,0,1,8,prac,1,1,z,Tue Apr 15 2025 17:56:42 GMT-0500 (Central Daylight Time),173225.60000000056,I,z,1390,8,3,94.bmp,-120,-120,95.bmp,120,-120,96.bmp,-120,120,97.bmp,120,120,10209.5,163016.10000000056,8006,yes,SM,C,97.bmp,120,120,167224,161197,169241,163209,,,,,8
4,0,0,0,1,1,test,1,1,m,Tue Apr 15 2025 17:56:42 GMT-0500 (Central Daylight Time),186238.2000000002,I,m,1637,1,3,98.bmp,-120,-120,99.bmp,120,-120,100.bmp,-120,120,93.bmp,120,120,9694.599999999627,176543.60000000056,8006,yes,SM,C,100.bmp,120,120,167224,161197,169241,163209,180754.0,174725.0,182770.0,176739.0,1
2,0,1,0,0,2,test,1,1,m,Tue Apr 15 2025 17:56:42 GMT-0500 (Central Daylight Time),195435.2000000002,I,m,1140,2,3,51.bmp,-120,-120,52.bmp,120,-120,53.bmp,-120,120,54.bmp,120,120,9193.799999999814,186241.40000000037,8006,yes,SM,C,53.bmp,120,-120,167224,161197,169241,163209,190451.0,184423.0,192467.0,186435.0,2
1,1,0,0,0,3,test,1,1,z,Tue Apr 15 2025 17:56:42 GMT-0500 (Central Daylight Time),204349.0,I,z,863,3,3,55.bmp,-120,-120,56.bmp,120,-120,57.bmp,-120,120,58.bmp,120,120,8910.699999999255,195438.30000000075,8006,yes,SM,C,55.bmp,-120,-120,167224,161197,169241,163209,199648.0,193620.0,201664.0,195633.0,3
3,0,0,1,0,4,test,1,1,m,Tue Apr 15 2025 17:56:42 GMT-0500 (Central Daylight Time),214095.80000000075,I,m,1693,4,3,59.bmp,-120,-120,60.bmp,120,-120,61.bmp,-120,120,62.bmp,120,120,9739.800000000745,204356.0,8006,yes,SM,C,59.bmp,-120,120,167224,161197,169241,163209,208563.0,202537.0,210578.0,204546.0,4
2,0,1,0,0,5,test,1,1,z,Tue Apr 15 2025 17:56:42 GMT-0500 (Central Daylight Time),223259.7000000002,I,z,1114,5,3,63.bmp,-120,-120,64.bmp,120,-120,65.bmp,-120,120,66.bmp,120,120,9160.799999999814,214098.90000000037,8006,yes,SM,C,64.bmp,120,-120,167224,161197,169241,163209,218309.0,212280.0,220325.0,214294.0,5
3,0,0,1,0,6,test,1,1,z,Tue Apr 15 2025 17:56:42 GMT-0500 (Central Daylight Time),232407.2000000002,I,z,1086,6,3,67.bmp,-120,-120,68.bmp,120,-120,69.bmp,-120,120,70.bmp,120,120,9144.099999999627,223263.10000000056,8006,yes,SM,C,69.bmp,-120,120,167224,161197,169241,163209,227473.0,221444.0,229489.0,223457.0,6
4,0,0,0,1,7,test,1,1,z,Tue Apr 15 2025 17:56:42 GMT-0500 (Central Daylight Time),241703.90000000037,I,z,1235,7,3,71.bmp,-120,-120,72.bmp,120,-120,73.bmp,-120,120,74.bmp,120,120,9293.700000000186,232410.2000000002,8006,yes,SM,C,74.bmp,120,120,167224,161197,169241,163209,236619.0,230591.0,238636.0,232604.0,7
2,0,1,0,0,8,test,1,1,m,Tue Apr 15 2025 17:56:42 GMT-0500 (Central Daylight Time),250984.30000000075,I,m,1223,8,3,75.bmp,-120,-120,76.bmp,120,-120,77.bmp,-120,120,78.bmp,120,120,9277.400000000373,241706.90000000037,8006,yes,SM,C,75.bmp,120,-120,167224,161197,169241,163209,245917.0,239888.0,247928.0,241902.0,8
3,0,0,1,0,9,test,1,1,m,Tue Apr 15 2025 17:56:42 GMT-0500 (Central Daylight Time),259998.0,I,m,962,9,3,79.bmp,-120,-120,80.bmp,120,-120,81.bmp,-120,120,82.bmp,120,120,9010.899999999441,250987.10000000056,8006,yes,SM,C,80.bmp,-120,120,167224,161197,169241,163209,255197.0,249168.0,257213.0,251182.0,9
4,0,0,0,1,10,test,1,1,z,Tue Apr 15 2025 17:56:42 GMT-0500 (Central Daylight Time),269178.7000000002,I,z,1124,10,3,87.bmp,-120,-120,88.bmp,120,-120,89.bmp,-120,120,90.bmp,120,120,9177.5,260001.2000000002,8006,yes,SM,C,90.bmp,120,120,167224,161197,169241,163209,264211.0,258182.0,266227.0,260196.0,10
3,0,0,1,0,11,test,1,1,z,Tue Apr 15 2025 17:56:42 GMT-0500 (Central Daylight Time),278225.5,I,z,992,11,3,83.bmp,-120,-120,84.bmp,120,-120,85.bmp,-120,120,86.bmp,120,120,9043.399999999441,269182.10000000056,8006,yes,SM,C,85.bmp,-120,120,167224,161197,169241,163209,273391.0,267363.0,275407.0,269376.0,11
2,0,1,0,0,12,test,1,1,m,Tue Apr 15 2025 17:56:42 GMT-0500 (Central Daylight Time),287173.10000000056,I,m,896,12,3,91.bmp,-120,-120,92.bmp,120,-120,93.bmp,-120,120,94.bmp,120,120,8943.900000000373,278229.2000000002,8006,yes,SM,C,91.bmp,120,-120,167224,161197,169241,163209,282438.0,276410.0,284455.0,278424.0,12
3,0,0,1,0,13,test,1,1,m,Tue Apr 15 2025 17:56:42 GMT-0500 (Central Daylight Time),296203.30000000075,I,m,981,13,3,95.bmp,-120,-120,96.bmp,120,-120,97.bmp,-120,120,98.bmp,120,120,9027.0,287176.30000000075,8006,yes,SM,C,96.bmp,-120,120,167224,161197,169241,163209,291386.0,285358.0,293402.0,287371.0,13
1,1,0,0,0,14,test,1,1,z,Tue Apr 15 2025 17:56:42 GMT-0500 (Central Daylight Time),305317.2000000002,I,z,1062,14,3,99.bmp,-120,-120,100.bmp,120,-120,54.bmp,-120,120,51.bmp,120,120,9110.599999999627,296206.60000000056,8006,yes,SM,C,99.bmp,-120,-120,167224,161197,169241,163209,300416.0,294388.0,302433.0,296401.0,14
4,0,0,0,1,14,test,1,0,m,Tue Apr 15 2025 17:56:42 GMT-0500 (Central Daylight Time),314364.5,I,z,996,15,3,60.bmp,-120,-120,61.bmp,120,-120,62.bmp,-120,120,63.bmp,120,120,9043.699999999255,305320.80000000075,8006,yes,SM,C,61.bmp,120,120,167224,161197,169241,163209,309530.0,303502.0,311547.0,305515.0,15
1,1,0,0,0,15,test,1,1,m,Tue Apr 15 2025 17:56:42 GMT-0500 (Central Daylight Time),323511.7000000002,I,m,1094,16,3,52.bmp,-120,-120,53.bmp,120,-120,54.bmp,-120,120,55.bmp,120,120,9143.799999999814,314367.9000000004,8006,yes,SM,C,55.bmp,-120,-120,167224,161197,169241,163209,318577.0,312549.0,320593.0,314562.0,16
3,0,0,1,0,15,test,1,0,m,Tue Apr 15 2025 17:56:42 GMT-0500 (Central Daylight Time),333575.30000000075,I,None,2015,17,3,72.bmp,-120,-120,73.bmp,120,-120,74.bmp,-120,120,75.bmp,120,120,10060.0,323515.30000000075,8006,yes,SM,C,72.bmp,-120,120,167224,161197,169241,163209,327724.0,321697.0,329741.0,323709.0,17
1,1,0,0,0,16,test,1,1,z,Tue Apr 15 2025 17:56:42 GMT-0500 (Central Daylight Time),342472.4000000004,I,z,843,18,3,56.bmp,-120,-120,57.bmp,120,-120,58.bmp,-120,120,59.bmp,120,120,8894.0,333578.4000000004,8006,yes,SM,C,56.bmp,-120,-120,167224,161197,169241,163209,337788.0,331760.0,339804.0,333773.0,18
2,0,1,0,0,17,test,1,1,z,Tue Apr 15 2025 17:56:42 GMT-0500 (Central Daylight Time),351852.80000000075,I,z,1322,19,3,76.bmp,-120,-120,77.bmp,120,-120,78.bmp,-120,120,79.bmp,120,120,9377.100000000559,342475.7000000002,8006,yes,SM,C,77.bmp,120,-120,167224,161197,169241,163209,346685.0,340657.0,348701.0,342670.0,19
3,0,0,1,0,17,test,1,0,z,Tue Apr 15 2025 17:56:42 GMT-0500 (Central Daylight Time),361599.7000000002,I,m,1693,20,3,80.bmp,-120,-120,81.bmp,120,-120,82.bmp,-120,120,83.bmp,120,120,9743.599999999627,351856.10000000056,8006,yes,SM,C,82.bmp,-120,120,167224,161197,169241,163209,356065.0,350037.0,358082.0,352050.0,20
1,1,0,0,0,17,test,1,0,m,Tue Apr 15 2025 17:56:42 GMT-0500 (Central Daylight Time),370630.2000000002,I,z,970,21,3,64.bmp,-120,-120,65.bmp,120,-120,66.bmp,-120,120,67.bmp,120,120,9027.799999999814,361602.4000000004,8006,yes,SM,C,66.bmp,-120,-120,167224,161197,169241,163209,365812.0,359784.0,367829.0,361797.0,21
4,0,0,0,1,18,test,1,1,z,Tue Apr 15 2025 17:56:42 GMT-0500 (Central Daylight Time),379827.2000000002,I,z,1140,22,3,68.bmp,-120,-120,69.bmp,120,-120,70.bmp,-120,120,71.bmp,120,120,9194.0,370633.2000000002,8006,yes,SM,C,71.bmp,120,120,167224,161197,169241,163209,374843.0,368814.0,376859.0,370828.0,22
1,1,0,0,0,19,test,1,1,m,Tue Apr 15 2025 17:56:42 GMT-0500 (Central Daylight Time),388874.4000000004,I,m,983,23,3,84.bmp,-120,-120,85.bmp,120,-120,86.bmp,-120,120,87.bmp,120,120,9044.400000000373,379830.0,8006,yes,SM,C,87.bmp,-120,-120,167224,161197,169241,163209,384040.0,378011.0,386056.0,380025.0,23
2,0,1,0,0,20,test,1,1,z,Tue Apr 15 2025 17:56:42 GMT-0500 (Central Daylight Time),398422.60000000056,I,z,1404,24,3,92.bmp,-120,-120,93.bmp,120,-120,94.bmp,-120,120,95.bmp,120,120,9545.100000000559,388877.5,8006,yes,SM,C,93.bmp,120,-120,167224,161197,169241,163209,393170.0,387059.0,395187.0,389166.0,24
4,0,0,0,1,21,test,1,1,m,Tue Apr 15 2025 17:56:42 GMT-0500 (Central Daylight Time),407651.9000000004,I,m,1180,25,3,96.bmp,-120,-120,97.bmp,120,-120,98.bmp,-120,120,99.bmp,120,120,9226.0,398425.9000000004,8006,yes,SM,C,98.bmp,120,120,167224,161197,169241,163209,402634.0,396607.0,404651.0,398620.0,25
1,1,0,0,0,21,test,1,0,z,Tue Apr 15 2025 17:56:42 GMT-0500 (Central Daylight Time),417482.30000000075,I,m,1766,26,3,88.bmp,-120,-120,89.bmp,120,-120,90.bmp,-120,120,91.bmp,120,120,9826.900000000373,407655.4000000004,8006,yes,SM,C,88.bmp,-120,-120,167224,161197,169241,163209,411864.0,405837.0,413881.0,407849.0,26
4,0,0,0,1,22,test,1,1,z,Tue Apr 15 2025 17:56:42 GMT-0500 (Central Daylight Time),426596.0,I,z,1056,27,3,100.bmp,-120,-120,61.bmp,120,-120,51.bmp,-120,120,52.bmp,120,120,9110.399999999441,417485.60000000056,8006,yes,SM,C,52.bmp,120,120,167224,161197,169241,163209,421695.0,415667.0,423711.0,417680.0,27
3,0,0,1,0,22,test,1,0,m,Tue Apr 15 2025 17:56:42 GMT-0500 (Central Daylight Time),435543.30000000075,I,z,894,28,3,53.bmp,-120,-120,54.bmp,120,-120,55.bmp,-120,120,56.bmp,120,120,8944.0,426599.30000000075,8006,yes,SM,C,53.bmp,-120,120,167224,161197,169241,163209,430809.0,424785.0,432825.0,426793.0,28
2,0,1,0,0,23,test,1,1,z,Tue Apr 15 2025 17:56:42 GMT-0500 (Central Daylight Time),444806.9000000004,I,z,1211,29,3,57.bmp,-120,-120,58.bmp,120,-120,59.bmp,-120,120,60.bmp,120,120,9260.299999999814,435546.60000000056,8006,yes,SM,C,58.bmp,120,-120,167224,161197,169241,163209,439756.0,433728.0,441772.0,435742.0,29
3,0,0,1,0,24,test,1,1,z,Tue Apr 15 2025 17:56:42 GMT-0500 (Central Daylight Time),454154.0,I,z,1283,30,3,61.bmp,-120,-120,62.bmp,120,-120,63.bmp,-120,120,64.bmp,120,120,9343.199999999255,444810.80000000075,8006,yes,SM,C,63.bmp,-120,120,167224,161197,169241,163209,449020.0,442992.0,451036.0,445005.0,30
1,1,0,0,0,25,test,1,1,z,Tue Apr 15 2025 17:56:42 GMT-0500 (Central Daylight Time),463117.9000000004,I,z,904,31,3,65.bmp,-120,-120,66.bmp,120,-120,67.bmp,-120,120,68.bmp,120,120,8961.0,454156.9000000004,8006,yes,SM,C,65.bmp,-120,-120,167224,161197,169241,163209,458367.0,452338.0,460383.0,454351.0,31
2,0,1,0,0,26,test,1,1,m,Tue Apr 15 2025 17:56:42 GMT-0500 (Central Daylight Time),472431.5,I,m,1260,32,3,69.bmp,-120,-120,70.bmp,120,-120,71.bmp,-120,120,72.bmp,120,120,9310.299999999814,463121.2000000002,8006,yes,SM,C,69.bmp,120,-120,167224,161197,169241,163209,467331.0,461302.0,469347.0,463315.0,32
4,0,0,0,1,27,test,1,1,z,Tue Apr 15 2025 17:56:42 GMT-0500 (Central Daylight Time),481562.10000000056,I,z,1083,33,3,81.bmp,-120,-120,82.bmp,120,-120,83.bmp,-120,120,84.bmp,120,120,9127.400000000373,472434.7000000002,8006,yes,SM,C,84.bmp,120,120,167224,161197,169241,163209,476644.0,470616.0,478660.0,472629.0,33
2,0,1,0,0,28,test,1,1,z,Tue Apr 15 2025 17:56:42 GMT-0500 (Central Daylight Time),491409.0,I,z,1782,34,3,73.bmp,-120,-120,74.bmp,120,-120,75.bmp,-120,120,76.bmp,120,120,9844.299999999814,481564.7000000002,8006,yes,SM,C,74.bmp,120,-120,167224,161197,169241,163209,485775.0,479746.0,487793.0,481760.0,34
4,0,0,0,1,29,test,1,1,m,Tue Apr 15 2025 17:56:42 GMT-0500 (Central Daylight Time),500722.60000000056,I,m,1265,35,3,77.bmp,-120,-120,78.bmp,120,-120,79.bmp,-120,120,80.bmp,120,120,9310.100000000559,491412.5,8006,yes,SM,C,79.bmp,120,120,167224,161197,169241,163209,495622.0,489594.0,497638.0,491606.0,35
3,0,0,1,0,29,test,1,0,m,Tue Apr 15 2025 17:56:42 GMT-0500 (Central Daylight Time),509769.7000000002,I,z,983,36,3,85.bmp,-120,-120,86.bmp,120,-120,87.bmp,-120,120,88.bmp,120,120,9044.399999999441,500725.30000000075,8006,yes,SM,C,85.bmp,-120,120,167224,161197,169241,163209,504935.0,498906.0,506952.0,500920.0,36
1,1,0,0,0,30,test,1,1,m,Tue Apr 15 2025 17:56:42 GMT-0500 (Central Daylight Time),519616.80000000075,I,m,1792,37,3,89.bmp,-120,-120,90.bmp,120,-120,91.bmp,-120,120,92.bmp,120,120,9843.800000000745,509773.0,8006,yes,SM,C,90.bmp,-120,-120,167224,161197,169241,163209,513983.0,507954.0,515999.0,509967.0,37
2,0,1,0,0,31,test,1,1,m,Tue Apr 15 2025 17:56:42 GMT-0500 (Central Daylight Time),528597.2000000002,I,m,921,38,3,93.bmp,-120,-120,94.bmp,120,-120,95.bmp,-120,120,96.bmp,120,120,8977.299999999814,519619.9000000004,8006,yes,SM,C,95.bmp,120,-120,167224,161197,169241,163209,523829.0,517801.0,525846.0,519814.0,38
4,0,0,0,1,32,test,1,1,z,Tue Apr 15 2025 17:56:42 GMT-0500 (Central Daylight Time),537761.1000000006,I,z,1109,39,3,97.bmp,-120,-120,98.bmp,120,-120,99.bmp,-120,120,100.bmp,120,120,9161.100000000559,528600.0,8006,yes,SM,C,100.bmp,120,120,167224,161197,169241,163209,532811.0,526781.0,534826.0,528795.0,39
3,0,0,1,0,33,test,1,1,m,Tue Apr 15 2025 17:56:42 GMT-0500 (Central Daylight Time),546758.6000000006,I,m,945,40,3,54.bmp,-120,-120,55.bmp,120,-120,56.bmp,-120,120,57.bmp,120,120,8994.200000000186,537764.4000000004,8006,yes,SM,C,55.bmp,-120,120,167224,161197,169241,163209,541974.0,535946.0,543990.0,537959.0,40
1,1,0,0,0,34,test,1,1,z,Tue Apr 15 2025 17:56:42 GMT-0500 (Central Daylight Time),555938.8000000007,I,z,1124,41,3,58.bmp,-120,-120,59.bmp,120,-120,60.bmp,-120,120,61.bmp,120,120,9176.200000000186,546762.6000000006,8006,yes,SM,C,58.bmp,-120,-120,167224,161197,169241,163209,550971.0,544944.0,552987.0,546956.0,41
4,0,0,0,1,35,test,1,1,z,Tue Apr 15 2025 17:56:42 GMT-0500 (Central Daylight Time),565102.5,I,z,1111,42,3,62.bmp,-120,-120,63.bmp,120,-120,64.bmp,-120,120,65.bmp,120,120,9160.399999999441,555942.1000000006,8006,yes,SM,C,65.bmp,120,120,167224,161197,169241,163209,560151.0,554123.0,562168.0,556137.0,42
1,1,0,0,0,36,test,1,1,z,Tue Apr 15 2025 17:56:42 GMT-0500 (Central Daylight Time),574166.3000000007,I,z,1012,43,3,66.bmp,-120,-120,67.bmp,120,-120,68.bmp,-120,120,69.bmp,120,120,9060.900000000373,565105.4000000004,8006,yes,SM,C,66.bmp,-120,-120,167224,161197,169241,163209,569315.0,563287.0,571331.0,565300.0,43
4,0,0,0,1,37,test,1,1,m,Tue Apr 15 2025 17:56:42 GMT-0500 (Central Daylight Time),583246.9000000004,I,m,1019,44,3,54.bmp,-120,-120,51.bmp,120,-120,52.bmp,-120,120,53.bmp,120,120,9077.799999999814,574169.1000000006,8006,yes,SM,C,54.bmp,120,120,167224,161197,169241,163209,578379.0,572350.0,580396.0,574364.0,44
1,1,0,0,0,38,test,1,1,m,Tue Apr 15 2025 17:56:42 GMT-0500 (Central Daylight Time),592310.7000000002,I,m,1011,45,3,78.bmp,-120,-120,79.bmp,120,-120,80.bmp,-120,120,81.bmp,120,120,9060.299999999814,583250.4000000004,8006,yes,SM,C,81.bmp,-120,-120,167224,161197,169241,163209,587460.0,581432.0,589476.0,583444.0,45
1,1,0,0,0,39,test,1,1,m,Tue Apr 15 2025 17:56:42 GMT-0500 (Central Daylight Time),601341.2000000002,I,m,979,46,3,70.bmp,-120,-120,71.bmp,120,-120,72.bmp,-120,120,73.bmp,120,120,9027.5,592313.7000000002,8006,yes,SM,C,71.bmp,-120,-120,167224,161197,169241,163209,596523.0,590495.0,598540.0,592508.0,46
3,0,0,1,0,40,test,1,1,z,Tue Apr 15 2025 17:56:42 GMT-0500 (Central Daylight Time),610588.2000000002,I,z,1197,47,3,74.bmp,-120,-120,75.bmp,120,-120,76.bmp,-120,120,77.bmp,120,120,9244.299999999814,601343.9000000004,8006,yes,SM,C,76.bmp,-120,120,167224,161197,169241,163209,605554.0,599525.0,607570.0,601539.0,47
3,0,0,1,0,41,test,1,1,z,Tue Apr 15 2025 17:56:42 GMT-0500 (Central Daylight Time),619652.1000000006,I,z,1006,48,3,90.bmp,-120,-120,91.bmp,120,-120,92.bmp,-120,120,93.bmp,120,120,9060.799999999814,610591.3000000007,8006,yes,SM,C,92.bmp,-120,120,167224,161197,169241,163209,614801.0,608773.0,616817.0,610786.0,48
2,0,1,0,0,42,test,1,1,z,Tue Apr 15 2025 17:56:42 GMT-0500 (Central Daylight Time),628949.2000000002,I,z,1246,49,3,86.bmp,-120,-120,87.bmp,120,-120,88.bmp,-120,120,89.bmp,120,120,9293.399999999441,619655.8000000007,8006,yes,SM,C,87.bmp,120,-120,167224,161197,169241,163209,623865.0,617837.0,625881.0,619849.0,49
3,0,0,1,0,42,test,1,0,m,Tue Apr 15 2025 17:56:42 GMT-0500 (Central Daylight Time),638029.6000000006,I,z,1029,50,3,82.bmp,-120,-120,83.bmp,120,-120,84.bmp,-120,120,85.bmp,120,120,9077.600000000559,628952.0,8006,yes,SM,C,82.bmp,-120,120,167224,161197,169241,163209,633162.0,627133.0,635178.0,629147.0,50
2,0,1,0,0,43,test,1,1,z,Tue Apr 15 2025 17:56:42 GMT-0500 (Central Daylight Time),647026.7000000002,I,z,948,51,3,94.bmp,-120,-120,95.bmp,120,-120,96.bmp,-120,120,97.bmp,120,120,8994.0,638032.7000000002,8006,yes,SM,C,95.bmp,120,-120,167224,161197,169241,163209,642242.0,636214.0,644259.0,638227.0,51
4,0,0,0,1,44,test,1,1,m,Tue Apr 15 2025 17:56:42 GMT-0500 (Central Daylight Time),656357.4000000004,I,m,1279,52,3,98.bmp,-120,-120,99.bmp,120,-120,100.bmp,-120,120,81.bmp,120,120,9327.599999999627,647029.8000000007,8006,yes,SM,C,98.bmp,120,120,167224,161197,169241,163209,651239.0,645211.0,653256.0,647224.0,52
3,0,0,1,0,45,test,1,1,z,Tue Apr 15 2025 17:56:42 GMT-0500 (Central Daylight Time),665554.5,I,z,1149,53,3,51.bmp,-120,-120,52.bmp,120,-120,53.bmp,-120,120,54.bmp,120,120,9193.899999999441,656360.6000000006,8006,yes,SM,C,53.bmp,-120,120,167224,161197,169241,163209,660570.0,654542.0,662586.0,656555.0,53
1,1,0,0,0,45,test,1,0,m,Tue Apr 15 2025 17:56:42 GMT-0500 (Central Daylight Time),674768.1000000006,I,z,1160,54,3,55.bmp,-120,-120,56.bmp,120,-120,57.bmp,-120,120,58.bmp,120,120,9210.799999999814,665557.3000000007,8006,yes,SM,C,57.bmp,-120,-120,167224,161197,169241,163209,669767.0,663738.0,671783.0,665752.0,54
4,0,0,0,1,45,test,1,0,z,Tue Apr 15 2025 17:56:42 GMT-0500 (Central Daylight Time),683831.9000000004,I,m,1010,55,3,59.bmp,-120,-120,60.bmp,120,-120,61.bmp,-120,120,62.bmp,120,120,9060.299999999814,674771.6000000006,8006,yes,SM,C,62.bmp,120,120,167224,161197,169241,163209,678981.0,672953.0,680997.0,674966.0,55
2,0,1,0,0,46,test,1,1,m,Tue Apr 15 2025 17:56:42 GMT-0500 (Central Daylight Time),692812.4000000004,I,m,922,56,3,63.bmp,-120,-120,64.bmp,120,-120,65.bmp,-120,120,66.bmp,120,120,8977.400000000373,683835.0,8006,yes,SM,C,63.bmp,120,-120,167224,161197,169241,163209,688045.0,682016.0,690061.0,684029.0,56
4,0,0,0,1,46,test,1,0,m,Tue Apr 15 2025 17:56:42 GMT-0500 (Central Daylight Time),701976.3000000007,I,z,1109,57,3,67.bmp,-120,-120,68.bmp,120,-120,69.bmp,-120,120,70.bmp,120,120,9160.800000000745,692815.5,8006,yes,SM,C,68.bmp,120,120,167224,161197,169241,163209,697025.0,690997.0,699042.0,693010.0,57
3,0,0,1,0,47,test,1,1,z,Tue Apr 15 2025 17:56:42 GMT-0500 (Central Daylight Time),711040.0,I,z,1002,58,3,71.bmp,-120,-120,72.bmp,120,-120,73.bmp,-120,120,74.bmp,120,120,9060.5,701979.5,8006,yes,SM,C,73.bmp,-120,120,167224,161197,169241,163209,706189.0,700161.0,708205.0,702174.0,58
2,0,1,0,0,47,test,1,0,m,Tue Apr 15 2025 17:56:42 GMT-0500 (Central Daylight Time),720054.0,I,z,962,59,3,75.bmp,-120,-120,76.bmp,120,-120,77.bmp,-120,120,78.bmp,120,120,9011.0,711043.0,8006,yes,SM,C,78.bmp,120,-120,167224,161197,169241,163209,715253.0,709224.0,717269.0,711238.0,59
1,1,0,0,0,48,test,1,1,z,Tue Apr 15 2025 17:56:42 GMT-0500 (Central Daylight Time),729134.3000000007,I,z,1028,60,3,79.bmp,-120,-120,80.bmp,120,-120,81.bmp,-120,120,82.bmp,120,120,9077.400000000373,720056.9000000004,8006,yes,SM,C,79.bmp,-120,-120,167224,161197,169241,163209,724266.0,718238.0,726283.0,720252.0,60
2,0,1,0,0,49,test,1,1,z,Tue Apr 15 2025 17:56:42 GMT-0500 (Central Daylight Time),738081.6000000006,I,z,892,61,3,83.bmp,-120,-120,84.bmp,120,-120,85.bmp,-120,120,86.bmp,120,120,8944.200000000186,729137.4000000004,8006,yes,SM,C,84.bmp,120,-120,167224,161197,169241,163209,733347.0,727319.0,735363.0,729332.0,61
4,0,0,0,1,50,test,1,1,z,Tue Apr 15 2025 17:56:42 GMT-0500 (Central Daylight Time),747145.5,I,z,1008,62,3,91.bmp,-120,-120,92.bmp,120,-120,93.bmp,-120,120,94.bmp,120,120,9060.699999999255,738084.8000000007,8006,yes,SM,C,94.bmp,120,120,167224,161197,169241,163209,742295.0,736266.0,744311.0,738279.0,62
1,1,0,0,0,50,test,1,0,m,Tue Apr 15 2025 17:56:42 GMT-0500 (Central Daylight Time),756159.3000000007,I,z,953,63,3,95.bmp,-120,-120,96.bmp,120,-120,97.bmp,-120,120,98.bmp,120,120,9011.0,747148.3000000007,8006,yes,SM,C,95.bmp,-120,120,167224,161197,169241,163209,751358.0,745330.0,753374.0,747343.0,63
2,0,1,0,0,51,test,1,1,z,Tue Apr 15 2025 17:56:42 GMT-0500 (Central Daylight Time),765356.4000000004,I,z,1147,64,3,99.bmp,-120,-120,100.bmp,120,-120,62.bmp,-120,120,51.bmp,120,120,9194.0,756162.4000000004,8006,yes,SM,C,100.bmp,120,-120,167224,161197,169241,163209,760372.0,754344.0,762388.0,756357.0,64
4,0,0,0,1,52,test,1,1,m,Tue Apr 15 2025 17:56:42 GMT-0500 (Central Daylight Time),774220.0,I,m,814,65,3,52.bmp,-120,-120,53.bmp,120,-120,54.bmp,-120,120,55.bmp,120,120,8861.0,765359.0,8006,yes,SM,C,54.bmp,120,120,167224,161197,169241,163209,769569.0,763540.0,771585.0,765552.0,65
3,0,0,1,0,53,test,1,1,m,Tue Apr 15 2025 17:56:42 GMT-0500 (Central Daylight Time),783068.7000000002,I,m,798,66,3,56.bmp,-120,-120,57.bmp,120,-120,58.bmp,-120,120,59.bmp,120,120,8845.799999999814,774222.9000000004,8006,yes,SM,C,59.bmp,-120,120,167224,161197,169241,163209,778433.0,772404.0,780449.0,774418.0,66
2,0,1,0,0,54,test,1,1,m,Tue Apr 15 2025 17:56:42 GMT-0500 (Central Daylight Time),791964.9000000004,I,m,837,67,3,87.bmp,-120,-120,88.bmp,120,-120,89.bmp,-120,120,90.bmp,120,120,8893.299999999814,783071.6000000006,8006,yes,SM,C,89.bmp,120,-120,167224,161197,169241,163209,787280.0,781253.0,789298.0,783265.0,67
3,0,0,1,0,55,test,1,1,z,Tue Apr 15 2025 17:56:42 GMT-0500 (Central Daylight Time),800728.8000000007,I,z,709,68,3,60.bmp,-120,-120,61.bmp,120,-120,62.bmp,-120,120,63.bmp,120,120,8761.0,791967.8000000007,8006,yes,SM,C,62.bmp,-120,120,167224,161197,169241,163209,796178.0,790149.0,798194.0,792162.0,68
1,1,0,0,0,56,test,1,1,m,Tue Apr 15 2025 17:56:42 GMT-0500 (Central Daylight Time),809626.0,I,m,842,69,3,64.bmp,-120,-120,65.bmp,120,-120,66.bmp,-120,120,67.bmp,120,120,8894.199999999255,800731.8000000007,8006,yes,SM,C,65.bmp,-120,-120,167224,161197,169241,163209,804942.0,798913.0,806957.0,800926.0,69
2,0,1,0,0,57,test,1,1,m,Tue Apr 15 2025 17:56:42 GMT-0500 (Central Daylight Time),818756.3000000007,I,m,1072,70,3,68.bmp,-120,-120,69.bmp,120,-120,70.bmp,-120,120,71.bmp,120,120,9127.300000000745,809629.0,8006,yes,SM,C,70.bmp,120,-120,167224,161197,169241,163209,813838.0,807810.0,815855.0,809823.0,70
4,0,0,0,1,58,test,1,1,z,Tue Apr 15 2025 17:56:42 GMT-0500 (Central Daylight Time),827820.2000000002,I,z,1006,71,3,72.bmp,-120,-120,73.bmp,120,-120,74.bmp,-120,120,75.bmp,120,120,9060.799999999814,818759.4000000004,8006,yes,SM,C,75.bmp,120,120,167224,161197,169241,163209,822969.0,816941.0,824985.0,818954.0,71
1,1,0,0,0,59,test,1,1,z,Tue Apr 15 2025 17:56:42 GMT-0500 (Central Daylight Time),837050.6000000006,I,z,1174,72,3,76.bmp,-120,-120,77.bmp,120,-120,78.bmp,-120,120,79.bmp,120,120,9227.5,827823.1000000006,8006,yes,SM,C,76.bmp,-120,-120,167224,161197,169241,163209,832033.0,826004.0,834049.0,828018.0,72
2,0,1,0,0,60,test,1,1,z,Tue Apr 15 2025 17:56:42 GMT-0500 (Central Daylight Time),846147.8000000007,I,z,1039,73,3,80.bmp,-120,-120,81.bmp,120,-120,82.bmp,-120,120,83.bmp,120,120,9094.100000000559,837053.7000000002,8006,yes,SM,C,81.bmp,120,-120,167224,161197,169241,163209,841263.0,835235.0,843280.0,837248.0,73
4,0,0,0,1,61,test,1,1,m,Tue Apr 15 2025 17:56:42 GMT-0500 (Central Daylight Time),855078.4000000004,I,m,878,74,3,84.bmp,-120,-120,85.bmp,120,-120,86.bmp,-120,120,87.bmp,120,120,8927.299999999814,846151.1000000006,8006,yes,SM,C,86.bmp,120,120,167224,161197,169241,163209,850360.0,844332.0,852377.0,846345.0,74
2,0,1,0,0,61,test,1,0,m,Tue Apr 15 2025 17:56:42 GMT-0500 (Central Daylight Time),864125.4000000004,I,z,988,75,3,88.bmp,-120,-120,89.bmp,120,-120,90.bmp,-120,120,91.bmp,120,120,9043.599999999627,855081.8000000007,8006,yes,SM,C,91.bmp,120,-120,167224,161197,169241,163209,859291.0,853263.0,861307.0,855276.0,75
1,1,0,0,0,62,test,1,1,z,Tue Apr 15 2025 17:56:42 GMT-0500 (Central Daylight Time),873039.2000000002,I,z,860,76,3,92.bmp,-120,-120,93.bmp,120,-120,94.bmp,-120,120,95.bmp,120,120,8910.799999999814,864128.4000000004,8006,yes,SM,C,92.bmp,-120,-120,167224,161197,169241,163209,868338.0,862310.0,870355.0,864323.0,76
3,0,0,1,0,63,test,1,1,z,Tue Apr 15 2025 17:56:42 GMT-0500 (Central Daylight Time),881953.4000000004,I,z,851,77,3,100.bmp,-120,-120,61.bmp,120,-120,51.bmp,-120,120,52.bmp,120,120,8911.0,873042.4000000004,8006,yes,SM,C,51.bmp,-120,120,167224,161197,169241,163209,877252.0,871224.0,879268.0,873238.0,77
1,1,0,0,0,64,test,1,1,m,Tue Apr 15 2025 17:56:42 GMT-0500 (Central Daylight Time),891167.1000000006,I,m,1153,78,3,96.bmp,-120,-120,97.bmp,120,-120,98.bmp,-120,120,99.bmp,120,120,9210.5,881956.6000000006,8006,yes,SM,C,97.bmp,-120,-120,167224,161197,169241,163209,886166.0,880138.0,888182.0,882151.0,78
4,0,0,0,1,65,test,1,1,m,Tue Apr 15 2025 17:56:42 GMT-0500 (Central Daylight Time),900180.9000000004,I,m,955,79,3,57.bmp,-120,-120,58.bmp,120,-120,59.bmp,-120,120,60.bmp,120,120,9005.700000000186,891175.2000000002,8006,yes,SM,C,57.bmp,120,120,167224,161197,169241,163209,895380.0,889356.0,897396.0,891364.0,79
3,0,0,1,0,66,test,1,1,m,Tue Apr 15 2025 17:56:42 GMT-0500 (Central Daylight Time),909094.8000000007,I,m,853,80,3,53.bmp,-120,-120,54.bmp,120,-120,55.bmp,-120,120,56.bmp,120,120,8910.700000000186,900184.1000000006,8006,yes,SM,C,56.bmp,-120,120,167224,161197,169241,163209,904393.0,898365.0,906410.0,900378.0,80
