acc_sum,block,block_c,change,condition,correct,correct_response,datetime,endtime,face,project,response,response_time,row_sel,session_number,start_end,starttime,subject_id,task,task_vers,trial
0,prac,1,,1-Back,,,Mon Oct 28 2024 15:55:13 GMT-0500 (Central Daylight Time),,005_o_f_d_a.png,O,space,10401,1,1,,,7028,VNB,B,0
1,prac,1,0.0,1-Back,1,m,Mon Oct 28 2024 15:55:13 GMT-0500 (Central Daylight Time),142459.0,020_y_f_n_a.png,O,m,1281,2,1,2142.5,140316.5,7028,VNB,B,1
1,prac,1,0.0,1-Back,0,m,Mon Oct 28 2024 15:55:13 GMT-0500 (Central Daylight Time),145358.10000000056,007_m_m_h_a.png,O,None,2015,3,1,2893.7000000001863,142464.40000000037,7028,VNB,B,2
2,prac,1,0.0,1-Back,1,m,Mon Oct 28 2024 15:55:13 GMT-0500 (Central Daylight Time),147657.30000000075,016_y_m_d_a.png,O,m,1395,4,1,2293.300000000745,145364.0,7028,VNB,B,3
3,prac,1,0.0,1-Back,1,m,Mon Oct 28 2024 15:55:13 GMT-0500 (Central Daylight Time),149989.5,005_o_f_n_a.png,O,m,1442,5,1,2326.399999999441,147663.10000000056,7028,VNB,B,4
4,prac,1,1.0,1-Back,1,z,Mon Oct 28 2024 15:55:13 GMT-0500 (Central Daylight Time),152738.80000000075,016_y_m_n_a.png,O,z,1859,6,1,2743.300000000745,149995.5,7028,VNB,B,5
5,prac,1,0.0,1-Back,1,m,Mon Oct 28 2024 15:55:13 GMT-0500 (Central Daylight Time),154954.80000000075,004_o_m_h_a.png,O,m,1347,7,1,2210.300000000745,152744.5,7028,VNB,B,6
6,prac,1,0.0,1-Back,1,m,Mon Oct 28 2024 15:55:13 GMT-0500 (Central Daylight Time),156871.10000000056,011_m_f_d_a.png,O,m,1032,8,1,1910.7000000001863,154960.40000000037,7028,VNB,B,7
6,prac,1,1.0,1-Back,0,z,Mon Oct 28 2024 15:55:13 GMT-0500 (Central Daylight Time),159103.5,020_y_f_d_a.png,O,m,1359,9,1,2226.699999999255,156876.80000000075,7028,VNB,B,8
6,prac,1,0.0,1-Back,0,m,Mon Oct 28 2024 15:55:13 GMT-0500 (Central Daylight Time),161902.7000000002,007_m_m_n_a.png,O,z,1909,10,1,2793.399999999441,159109.30000000075,7028,VNB,B,9
7,prac,1,0.0,1-Back,1,m,Mon Oct 28 2024 15:55:13 GMT-0500 (Central Daylight Time),164219.80000000075,005_o_f_h_a.png,O,m,1427,11,1,2311.5,161908.30000000075,7028,VNB,B,10
8,prac,1,0.0,1-Back,1,m,Mon Oct 28 2024 15:55:13 GMT-0500 (Central Daylight Time),166284.5,016_y_m_d_a.png,O,m,1167,12,1,2058.7999999998137,164225.7000000002,7028,VNB,B,11
0,test,1,0.0,1-Back,,,Mon Oct 28 2024 15:55:13 GMT-0500 (Central Daylight Time),166284.5,020_y_f_d_a.png,O,space,11028,1,1,2058.7999999998137,164225.7000000002,7028,VNB,B,0
1,test,1,0.0,1-Back,1,m,Mon Oct 28 2024 15:55:13 GMT-0500 (Central Daylight Time),185778.40000000037,011_m_f_n_a.png,O,m,866,2,1,1894.7999999998137,183883.60000000056,7028,VNB,B,1
2,test,1,0.0,1-Back,1,m,Mon Oct 28 2024 15:55:13 GMT-0500 (Central Daylight Time),187677.80000000075,004_o_m_h_a.png,O,m,845,3,1,1895.7000000001863,185782.10000000056,7028,VNB,B,2
3,test,1,1.0,1-Back,1,z,Mon Oct 28 2024 15:55:13 GMT-0500 (Central Daylight Time),189311.80000000075,007_m_m_h_a.png,O,z,570,4,1,1630.2000000001863,187681.60000000056,7028,VNB,B,3
4,test,1,0.0,1-Back,1,m,Mon Oct 28 2024 15:55:13 GMT-0500 (Central Daylight Time),191276.60000000056,005_o_f_n_a.png,O,m,778,5,1,1960.7000000001863,189315.90000000037,7028,VNB,B,4
5,test,1,0.0,1-Back,1,m,Mon Oct 28 2024 15:55:13 GMT-0500 (Central Daylight Time),193109.40000000037,016_y_m_d_a.png,O,m,779,6,1,1828.7000000001863,191280.7000000002,7028,VNB,B,5
6,test,1,1.0,1-Back,1,z,Mon Oct 28 2024 15:55:13 GMT-0500 (Central Daylight Time),195942.0,011_m_f_d_a.png,O,z,1770,7,1,2828.899999999441,193113.10000000056,7028,VNB,B,6
7,test,1,0.0,1-Back,1,m,Mon Oct 28 2024 15:55:13 GMT-0500 (Central Daylight Time),197974.5,020_y_f_h_a.png,O,m,978,8,1,2028.2999999998137,195946.2000000002,7028,VNB,B,7
8,test,1,0.0,1-Back,1,m,Mon Oct 28 2024 15:55:13 GMT-0500 (Central Daylight Time),200823.7000000002,004_o_m_n_a.png,O,m,1793,9,1,2845.2000000001863,197978.5,7028,VNB,B,8
9,test,1,0.0,1-Back,1,m,Mon Oct 28 2024 15:55:13 GMT-0500 (Central Daylight Time),202973.0,016_y_m_h_a.png,O,m,1088,10,1,2145.399999999441,200827.60000000056,7028,VNB,B,9
10,test,1,0.0,1-Back,1,m,Mon Oct 28 2024 15:55:13 GMT-0500 (Central Daylight Time),205290.2000000002,004_o_m_d_a.png,O,m,1267,11,1,2313.2000000001863,202977.0,7028,VNB,B,10
11,test,1,1.0,1-Back,1,z,Mon Oct 28 2024 15:55:13 GMT-0500 (Central Daylight Time),207488.2000000002,005_o_f_d_a.png,O,z,1135,12,1,2194.2999999998137,205293.90000000037,7028,VNB,B,11
12,test,1,0.0,1-Back,1,m,Mon Oct 28 2024 15:55:13 GMT-0500 (Central Daylight Time),209471.0,007_m_m_n_a.png,O,m,920,13,1,1978.7999999998137,207492.2000000002,7028,VNB,B,12
13,test,1,1.0,1-Back,1,z,Mon Oct 28 2024 15:55:13 GMT-0500 (Central Daylight Time),211787.90000000037,020_y_f_n_a.png,O,z,1265,14,1,2313.0999999996275,209474.80000000075,7028,VNB,B,13
14,test,1,0.0,1-Back,1,m,Mon Oct 28 2024 15:55:13 GMT-0500 (Central Daylight Time),214019.30000000075,011_m_f_h_a.png,O,m,1173,15,1,2227.5,211791.80000000075,7028,VNB,B,14
14,test,1,0.0,1-Back,0,m,Mon Oct 28 2024 15:55:13 GMT-0500 (Central Daylight Time),216368.80000000075,007_m_m_d_a.png,O,z,1276,16,1,2345.300000000745,214023.5,7028,VNB,B,15
14,test,1,0.0,1-Back,0,m,Mon Oct 28 2024 15:55:13 GMT-0500 (Central Daylight Time),219434.7000000002,016_y_m_n_a.png,O,None,2015,17,1,3062.0,216372.7000000002,7028,VNB,B,16
15,test,1,0.0,1-Back,1,m,Mon Oct 28 2024 15:55:13 GMT-0500 (Central Daylight Time),222266.80000000075,005_o_f_h_a.png,O,m,1781,18,1,2828.5,219438.30000000075,7028,VNB,B,17
0,test,2,0.0,1-Back,,,Mon Oct 28 2024 15:55:13 GMT-0500 (Central Daylight Time),222266.80000000075,016_y_m_n_a.png,O,space,1559,1,1,2828.5,219438.30000000075,7028,VNB,B,0
1,test,2,0.0,1-Back,1,m,Mon Oct 28 2024 15:55:13 GMT-0500 (Central Daylight Time),227815.2000000002,020_y_f_h_a.png,O,m,936,2,1,1961.8999999994412,225853.30000000075,7028,VNB,B,1
2,test,2,1.0,1-Back,1,m,Mon Oct 28 2024 15:55:13 GMT-0500 (Central Daylight Time),230164.5,004_o_m_n_a.png,O,m,1322,3,1,2345.399999999441,227819.10000000056,7028,VNB,B,2
3,test,2,0.0,1-Back,1,m,Mon Oct 28 2024 15:55:13 GMT-0500 (Central Daylight Time),232747.10000000056,011_m_f_d_a.png,O,m,1557,4,1,2578.7000000001863,230168.40000000037,7028,VNB,B,3
4,test,2,0.0,1-Back,1,z,Mon Oct 28 2024 15:55:13 GMT-0500 (Central Daylight Time),234880.90000000037,007_m_m_d_a.png,O,z,1102,5,1,2129.7999999998137,232751.10000000056,7028,VNB,B,4
5,test,2,0.0,1-Back,1,m,Mon Oct 28 2024 15:55:13 GMT-0500 (Central Daylight Time),236895.80000000075,016_y_m_h_a.png,O,m,960,6,1,2010.5,234885.30000000075,7028,VNB,B,5
6,test,2,1.0,1-Back,1,z,Mon Oct 28 2024 15:55:13 GMT-0500 (Central Daylight Time),238678.5,005_o_f_h_a.png,O,z,728,7,1,1778.5,236900.0,7028,VNB,B,6
7,test,2,0.0,1-Back,1,m,Mon Oct 28 2024 15:55:13 GMT-0500 (Central Daylight Time),240478.10000000056,011_m_f_n_a.png,O,m,738,8,1,1795.5,238682.60000000056,7028,VNB,B,7
8,test,2,0.0,1-Back,1,m,Mon Oct 28 2024 15:55:13 GMT-0500 (Central Daylight Time),242877.0,020_y_f_d_a.png,O,m,1338,9,1,2395.199999999255,240481.80000000075,7028,VNB,B,8
9,test,2,0.0,1-Back,1,m,Mon Oct 28 2024 15:55:13 GMT-0500 (Central Daylight Time),245343.0,007_m_m_n_a.png,O,m,1403,10,1,2462.0,242881.0,7028,VNB,B,9
10,test,2,1.0,1-Back,1,m,Mon Oct 28 2024 15:55:13 GMT-0500 (Central Daylight Time),247460.2000000002,011_m_f_h_a.png,O,m,1065,11,1,2113.0999999996275,245347.10000000056,7028,VNB,B,10
11,test,2,0.0,1-Back,1,z,Mon Oct 28 2024 15:55:13 GMT-0500 (Central Daylight Time),249358.40000000037,004_o_m_h_a.png,O,z,836,12,1,1894.7999999998137,247463.60000000056,7028,VNB,B,11
12,test,2,0.0,1-Back,1,m,Mon Oct 28 2024 15:55:13 GMT-0500 (Central Daylight Time),251274.60000000056,016_y_m_d_a.png,O,m,866,13,1,1912.2999999998137,249362.30000000075,7028,VNB,B,12
13,test,2,0.0,1-Back,1,m,Mon Oct 28 2024 15:55:13 GMT-0500 (Central Daylight Time),253823.7000000002,005_o_f_n_a.png,O,m,1493,14,1,2544.899999999441,251278.80000000075,7028,VNB,B,13
14,test,2,0.0,1-Back,1,z,Mon Oct 28 2024 15:55:13 GMT-0500 (Central Daylight Time),256023.10000000056,020_y_f_n_a.png,O,z,1128,15,1,2195.4000000003725,253827.7000000002,7028,VNB,B,14
15,test,2,1.0,1-Back,1,m,Mon Oct 28 2024 15:55:13 GMT-0500 (Central Daylight Time),258255.60000000056,007_m_m_h_a.png,O,m,1169,16,1,2228.600000000559,256027.0,7028,VNB,B,15
16,test,2,0.0,1-Back,1,m,Mon Oct 28 2024 15:55:13 GMT-0500 (Central Daylight Time),260105.0,005_o_f_d_a.png,O,m,793,17,1,1845.5999999996275,258259.40000000037,7028,VNB,B,16
17,test,2,1.0,1-Back,1,z,Mon Oct 28 2024 15:55:13 GMT-0500 (Central Daylight Time),262372.2000000002,004_o_m_d_a.png,O,z,1215,18,1,2262.899999999441,260109.30000000075,7028,VNB,B,17
0,test,3,1.0,1-Back,,,Mon Oct 28 2024 15:55:13 GMT-0500 (Central Daylight Time),262372.2000000002,005_o_f_h_a.png,O,space,1389,1,1,2262.899999999441,260109.30000000075,7028,VNB,B,0
1,test,3,0.0,1-Back,1,m,Mon Oct 28 2024 15:55:13 GMT-0500 (Central Daylight Time),268602.5,011_m_f_d_a.png,O,m,1649,2,1,2711.2999999998137,265891.2000000002,7028,VNB,B,1
2,test,3,1.0,1-Back,1,m,Mon Oct 28 2024 15:55:13 GMT-0500 (Central Daylight Time),271001.5,007_m_m_n_a.png,O,m,1342,3,1,2394.899999999441,268606.60000000056,7028,VNB,B,2
3,test,3,0.0,1-Back,1,z,Mon Oct 28 2024 15:55:13 GMT-0500 (Central Daylight Time),273151.0,005_o_f_n_a.png,O,z,1094,4,1,2145.2999999998137,271005.7000000002,7028,VNB,B,3
4,test,3,1.0,1-Back,1,m,Mon Oct 28 2024 15:55:13 GMT-0500 (Central Daylight Time),275117.10000000056,004_o_m_d_a.png,O,m,888,5,1,1962.1000000005588,273155.0,7028,VNB,B,4
5,test,3,0.0,1-Back,1,m,Mon Oct 28 2024 15:55:13 GMT-0500 (Central Daylight Time),277282.9000000004,020_y_f_h_a.png,O,m,1115,6,1,2162.5,275120.4000000004,7028,VNB,B,5
6,test,3,0.0,1-Back,1,z,Mon Oct 28 2024 15:55:13 GMT-0500 (Central Daylight Time),278915.9000000004,016_y_m_h_a.png,O,z,573,7,1,1629.5999999996275,277286.30000000075,7028,VNB,B,6
7,test,3,0.0,1-Back,1,m,Mon Oct 28 2024 15:55:13 GMT-0500 (Central Daylight Time),280798.4000000004,011_m_f_n_a.png,O,m,812,8,1,1879.4000000003725,278919.0,7028,VNB,B,7
8,test,3,0.0,1-Back,1,m,Mon Oct 28 2024 15:55:13 GMT-0500 (Central Daylight Time),283314.60000000056,020_y_f_d_a.png,O,m,1450,9,1,2512.2000000001863,280802.4000000004,7028,VNB,B,8
9,test,3,1.0,1-Back,1,m,Mon Oct 28 2024 15:55:13 GMT-0500 (Central Daylight Time),286330.2000000002,004_o_m_n_a.png,O,m,1877,10,1,3011.2000000001863,283319.0,7028,VNB,B,9
10,test,3,0.0,1-Back,1,m,Mon Oct 28 2024 15:55:13 GMT-0500 (Central Daylight Time),288496.2000000002,007_m_m_h_a.png,O,m,1110,11,1,2162.5,286333.7000000002,7028,VNB,B,10
11,test,3,0.0,1-Back,1,z,Mon Oct 28 2024 15:55:13 GMT-0500 (Central Daylight Time),290279.0,011_m_f_h_a.png,O,z,719,12,1,1779.5,288499.5,7028,VNB,B,11
12,test,3,1.0,1-Back,1,m,Mon Oct 28 2024 15:55:13 GMT-0500 (Central Daylight Time),292795.80000000075,005_o_f_d_a.png,O,m,1465,13,1,2513.100000000559,290282.7000000002,7028,VNB,B,12
13,test,3,0.0,1-Back,1,z,Mon Oct 28 2024 15:55:13 GMT-0500 (Central Daylight Time),294810.60000000056,007_m_m_d_a.png,O,z,957,14,1,2010.5,292800.10000000056,7028,VNB,B,13
14,test,3,0.0,1-Back,1,m,Mon Oct 28 2024 15:55:13 GMT-0500 (Central Daylight Time),297260.10000000056,016_y_m_n_a.png,O,m,1389,15,1,2445.7000000001863,294814.4000000004,7028,VNB,B,14
15,test,3,1.0,1-Back,1,m,Mon Oct 28 2024 15:55:13 GMT-0500 (Central Daylight Time),299309.4000000004,004_o_m_h_a.png,O,m,988,16,1,2045.4000000003725,297264.0,7028,VNB,B,15
16,test,3,0.0,1-Back,1,m,Mon Oct 28 2024 15:55:13 GMT-0500 (Central Daylight Time),301142.30000000075,016_y_m_d_a.png,O,m,754,17,1,1829.5,299312.80000000075,7028,VNB,B,16
17,test,3,1.0,1-Back,1,m,Mon Oct 28 2024 15:55:13 GMT-0500 (Central Daylight Time),303258.2000000002,020_y_f_n_a.png,O,m,1066,18,1,2111.899999999441,301146.30000000075,7028,VNB,B,17
0,test,4,1.0,1-Back,,,Mon Oct 28 2024 15:55:13 GMT-0500 (Central Daylight Time),303258.2000000002,007_m_m_d_a.png,O,space,1615,1,1,2111.899999999441,301146.30000000075,7028,VNB,B,0
1,test,4,0.0,1-Back,1,z,Mon Oct 28 2024 15:55:13 GMT-0500 (Central Daylight Time),309289.60000000056,004_o_m_d_a.png,O,z,1286,2,1,2394.7000000001863,306894.9000000004,7028,VNB,B,1
2,test,4,0.0,1-Back,1,m,Mon Oct 28 2024 15:55:13 GMT-0500 (Central Daylight Time),311255.60000000056,016_y_m_h_a.png,O,m,936,3,1,1962.1000000005588,309293.5,7028,VNB,B,2
3,test,4,0.0,1-Back,1,m,Mon Oct 28 2024 15:55:13 GMT-0500 (Central Daylight Time),313005.10000000056,011_m_f_n_a.png,O,m,722,4,1,1745.6000000005588,311259.5,7028,VNB,B,3
4,test,4,1.0,1-Back,1,m,Mon Oct 28 2024 15:55:13 GMT-0500 (Central Daylight Time),314971.30000000075,005_o_f_h_a.png,O,m,940,5,1,1962.5,313008.80000000075,7028,VNB,B,4
5,test,4,0.0,1-Back,1,m,Mon Oct 28 2024 15:55:13 GMT-0500 (Central Daylight Time),317170.5,007_m_m_n_a.png,O,m,1182,6,1,2195.0999999996275,314975.4000000004,7028,VNB,B,5
6,test,4,0.0,1-Back,1,m,Mon Oct 28 2024 15:55:13 GMT-0500 (Central Daylight Time),319153.5,016_y_m_d_a.png,O,m,951,7,1,1979.0,317174.5,7028,VNB,B,6
7,test,4,1.0,1-Back,1,z,Mon Oct 28 2024 15:55:13 GMT-0500 (Central Daylight Time),321452.4000000004,020_y_f_d_a.png,O,z,1280,8,1,2295.0999999996275,319157.30000000075,7028,VNB,B,7
8,test,4,0.0,1-Back,1,m,Mon Oct 28 2024 15:55:13 GMT-0500 (Central Daylight Time),323351.80000000075,011_m_f_h_a.png,O,m,869,9,1,1894.7000000001863,321457.10000000056,7028,VNB,B,8
9,test,4,0.0,1-Back,1,z,Mon Oct 28 2024 15:55:13 GMT-0500 (Central Daylight Time),325601.2000000002,004_o_m_h_a.png,O,z,1217,10,1,2245.5,323355.7000000002,7028,VNB,B,9
10,test,4,1.0,1-Back,1,m,Mon Oct 28 2024 15:55:13 GMT-0500 (Central Daylight Time),327800.4000000004,005_o_f_n_a.png,O,m,1176,11,1,2195.0,325605.4000000004,7028,VNB,B,10
11,test,4,0.0,1-Back,1,m,Mon Oct 28 2024 15:55:13 GMT-0500 (Central Daylight Time),330549.60000000056,011_m_f_d_a.png,O,m,1719,12,1,2745.2999999998137,327804.30000000075,7028,VNB,B,11
12,test,4,0.0,1-Back,1,m,Mon Oct 28 2024 15:55:13 GMT-0500 (Central Daylight Time),333498.60000000056,020_y_f_n_a.png,O,m,1846,13,1,2945.5,330553.10000000056,7028,VNB,B,12
13,test,4,0.0,1-Back,1,m,Mon Oct 28 2024 15:55:13 GMT-0500 (Central Daylight Time),335732.5,005_o_f_d_a.png,O,m,1181,14,1,2229.7999999998137,333502.7000000002,7028,VNB,B,13
14,test,4,0.0,1-Back,1,m,Mon Oct 28 2024 15:55:13 GMT-0500 (Central Daylight Time),337730.5,020_y_f_h_a.png,O,m,933,15,1,1994.5999999996275,335735.9000000004,7028,VNB,B,14
15,test,4,1.0,1-Back,1,z,Mon Oct 28 2024 15:55:13 GMT-0500 (Central Daylight Time),339646.80000000075,007_m_m_h_a.png,O,z,861,16,1,1912.5,337734.30000000075,7028,VNB,B,15
16,test,4,0.0,1-Back,1,m,Mon Oct 28 2024 15:55:13 GMT-0500 (Central Daylight Time),341579.5,004_o_m_n_a.png,O,m,881,17,1,1928.7999999998137,339650.7000000002,7028,VNB,B,16
16,test,4,1.0,1-Back,0,z,Mon Oct 28 2024 15:55:13 GMT-0500 (Central Daylight Time),343362.2000000002,016_y_m_n_a.png,O,m,708,18,1,1778.3999999994412,341583.80000000075,7028,VNB,B,17
0,test,5,1.0,1-Back,,,Mon Oct 28 2024 15:55:13 GMT-0500 (Central Daylight Time),343362.2000000002,004_o_m_n_a.png,O,space,1343,1,1,1778.3999999994412,341583.80000000075,7028,VNB,B,0
1,test,5,1.0,1-Back,1,m,Mon Oct 28 2024 15:55:13 GMT-0500 (Central Daylight Time),349327.10000000056,005_o_f_h_a.png,O,m,1570,2,1,2595.100000000559,346732.0,7028,VNB,B,1
2,test,5,0.0,1-Back,1,m,Mon Oct 28 2024 15:55:13 GMT-0500 (Central Daylight Time),351376.30000000075,016_y_m_d_a.png,O,m,1027,3,1,2045.4000000003725,349330.9000000004,7028,VNB,B,2
3,test,5,0.0,1-Back,1,z,Mon Oct 28 2024 15:55:13 GMT-0500 (Central Daylight Time),353375.80000000075,004_o_m_d_a.png,O,z,969,4,1,1996.2000000001863,351379.60000000056,7028,VNB,B,3
4,test,5,0.0,1-Back,1,m,Mon Oct 28 2024 15:55:13 GMT-0500 (Central Daylight Time),355458.5,011_m_f_h_a.png,O,m,1050,5,1,2078.699999999255,353379.80000000075,7028,VNB,B,4
5,test,5,0.0,1-Back,1,m,Mon Oct 28 2024 15:55:13 GMT-0500 (Central Daylight Time),357326.0,020_y_f_n_a.png,O,m,847,6,1,1863.699999999255,355462.30000000075,7028,VNB,B,5
6,test,5,1.0,1-Back,1,z,Mon Oct 28 2024 15:55:13 GMT-0500 (Central Daylight Time),359640.4000000004,005_o_f_n_a.png,O,z,1285,7,1,2310.9000000003725,357329.5,7028,VNB,B,6
7,test,5,0.0,1-Back,1,m,Mon Oct 28 2024 15:55:13 GMT-0500 (Central Daylight Time),362206.30000000075,011_m_f_d_a.png,O,m,1545,8,1,2561.800000000745,359644.5,7028,VNB,B,7
8,test,5,0.0,1-Back,1,m,Mon Oct 28 2024 15:55:13 GMT-0500 (Central Daylight Time),364372.4000000004,016_y_m_h_a.png,O,m,1147,9,1,2162.2999999998137,362210.10000000056,7028,VNB,B,8
9,test,5,0.0,1-Back,1,m,Mon Oct 28 2024 15:55:13 GMT-0500 (Central Daylight Time),366788.30000000075,020_y_f_d_a.png,O,m,1389,10,1,2412.300000000745,364376.0,7028,VNB,B,9
10,test,5,0.0,1-Back,1,m,Mon Oct 28 2024 15:55:13 GMT-0500 (Central Daylight Time),368987.60000000056,007_m_m_n_a.png,O,m,1181,11,1,2195.4000000003725,366792.2000000002,7028,VNB,B,10
11,test,5,1.0,1-Back,1,z,Mon Oct 28 2024 15:55:13 GMT-0500 (Central Daylight Time),371353.4000000004,011_m_f_n_a.png,O,z,1342,12,1,2361.5999999996275,368991.80000000075,7028,VNB,B,11
12,test,5,0.0,1-Back,1,m,Mon Oct 28 2024 15:55:13 GMT-0500 (Central Daylight Time),373386.10000000056,004_o_m_h_a.png,O,m,1000,13,1,2029.2999999998137,371356.80000000075,7028,VNB,B,12
13,test,5,0.0,1-Back,1,z,Mon Oct 28 2024 15:55:13 GMT-0500 (Central Daylight Time),375585.4000000004,007_m_m_h_a.png,O,z,1167,14,1,2195.5999999996275,373389.80000000075,7028,VNB,B,13
14,test,5,1.0,1-Back,1,m,Mon Oct 28 2024 15:55:13 GMT-0500 (Central Daylight Time),377452.60000000056,005_o_f_d_a.png,O,m,848,15,1,1863.5,375589.10000000056,7028,VNB,B,14
15,test,5,0.0,1-Back,1,m,Mon Oct 28 2024 15:55:13 GMT-0500 (Central Daylight Time),379734.30000000075,016_y_m_n_a.png,O,m,1165,16,1,2278.2000000001863,377456.10000000056,7028,VNB,B,15
16,test,5,0.0,1-Back,1,m,Mon Oct 28 2024 15:55:13 GMT-0500 (Central Daylight Time),381716.9000000004,020_y_f_h_a.png,O,m,963,17,1,1978.4000000003725,379738.5,7028,VNB,B,16
17,test,5,0.0,1-Back,1,m,Mon Oct 28 2024 15:55:13 GMT-0500 (Central Daylight Time),384449.2000000002,007_m_m_d_a.png,O,m,1708,18,1,2728.399999999441,381720.80000000075,7028,VNB,B,17
0,prac,1,0.0,2-Back,,,Mon Oct 28 2024 15:55:13 GMT-0500 (Central Daylight Time),384449.2000000002,011_m_f_n_a.png,O,space,6236,1,1,2728.399999999441,381720.80000000075,7028,VNB,B,0
0,prac,1,0.0,2-Back,,,Mon Oct 28 2024 15:55:13 GMT-0500 (Central Daylight Time),384449.2000000002,005_o_f_h_a.png,O,space,6236,2,1,2728.399999999441,381720.80000000075,7028,VNB,B,0
0,prac,1,0.0,2-Back,0,m,Mon Oct 28 2024 15:55:13 GMT-0500 (Central Daylight Time),487184.10000000056,004_o_m_d_a.png,O,None,2007,3,1,2860.5,484323.60000000056,7028,VNB,B,1
1,prac,1,1.0,2-Back,1,z,Mon Oct 28 2024 15:55:13 GMT-0500 (Central Daylight Time),489466.4000000004,007_m_m_h_a.png,O,z,1397,4,1,2277.2999999998137,487189.10000000056,7028,VNB,B,2
1,prac,1,0.0,2-Back,0,m,Mon Oct 28 2024 15:55:13 GMT-0500 (Central Daylight Time),492298.9000000004,020_y_f_n_a.png,O,z,1958,5,1,2826.7000000001863,489472.2000000002,7028,VNB,B,3
1,prac,1,1.0,2-Back,0,z,Mon Oct 28 2024 15:55:13 GMT-0500 (Central Daylight Time),494998.30000000075,004_o_m_h_a.png,O,m,1826,6,1,2694.300000000745,492304.0,7028,VNB,B,4
1,prac,1,1.0,2-Back,0,z,Mon Oct 28 2024 15:55:13 GMT-0500 (Central Daylight Time),497897.10000000056,016_y_m_n_a.png,O,None,2014,7,1,2893.5,495003.60000000056,7028,VNB,B,5
2,prac,1,0.0,2-Back,1,m,Mon Oct 28 2024 15:55:13 GMT-0500 (Central Daylight Time),500080.10000000056,011_m_f_d_a.png,O,m,1298,8,1,2177.2000000001863,497902.9000000004,7028,VNB,B,6
3,prac,1,0.0,2-Back,1,m,Mon Oct 28 2024 15:55:13 GMT-0500 (Central Daylight Time),502445.7000000002,005_o_f_d_a.png,O,m,1474,9,1,2360.2999999998137,500085.4000000004,7028,VNB,B,7
4,prac,1,0.0,2-Back,1,m,Mon Oct 28 2024 15:55:13 GMT-0500 (Central Daylight Time),503778.7000000002,007_m_m_h_a.png,O,m,521,10,1,1290.2999999998137,502488.4000000004,7028,VNB,B,8
4,prac,1,1.0,2-Back,0,z,Mon Oct 28 2024 15:55:13 GMT-0500 (Central Daylight Time),504961.7000000002,020_y_f_d_a.png,O,m,316,11,1,1178.5,503783.2000000002,7028,VNB,B,9
5,prac,1,0.0,2-Back,1,m,Mon Oct 28 2024 15:55:13 GMT-0500 (Central Daylight Time),506294.80000000075,004_o_m_n_a.png,O,m,467,12,1,1327.7000000001863,504967.10000000056,7028,VNB,B,10
0,test,1,0.0,2-Back,,,Mon Oct 28 2024 15:55:13 GMT-0500 (Central Daylight Time),506294.80000000075,016_y_m_h_a.png,O,space,9051,1,1,1327.7000000001863,504967.10000000056,7028,VNB,B,0
0,test,1,0.0,2-Back,,,Mon Oct 28 2024 15:55:13 GMT-0500 (Central Daylight Time),506294.80000000075,005_o_f_n_a.png,O,space,9051,2,1,1327.7000000001863,504967.10000000056,7028,VNB,B,0
1,test,1,0.0,2-Back,1,z,Mon Oct 28 2024 15:55:13 GMT-0500 (Central Daylight Time),543401.0,004_o_m_h_a.png,O,z,976,3,1,2047.5999999996275,541353.4000000004,7028,VNB,B,1
2,test,1,0.0,2-Back,1,m,Mon Oct 28 2024 15:55:13 GMT-0500 (Central Daylight Time),545765.4000000004,011_m_f_d_a.png,O,m,1346,4,1,2360.7000000001863,543404.7000000002,7028,VNB,B,2
3,test,1,1.0,2-Back,1,m,Mon Oct 28 2024 15:55:13 GMT-0500 (Central Daylight Time),548814.4000000004,016_y_m_n_a.png,O,m,1995,5,1,3045.2000000001863,545769.2000000002,7028,VNB,B,3
3,test,1,0.0,2-Back,0,z,Mon Oct 28 2024 15:55:13 GMT-0500 (Central Daylight Time),551146.8000000007,020_y_f_d_a.png,O,m,1282,6,1,2328.600000000559,548818.2000000002,7028,VNB,B,4
4,test,1,0.0,2-Back,1,m,Mon Oct 28 2024 15:55:13 GMT-0500 (Central Daylight Time),553196.4000000004,007_m_m_h_a.png,O,m,997,7,1,2045.7999999998137,551150.6000000006,7028,VNB,B,5
5,test,1,1.0,2-Back,1,m,Mon Oct 28 2024 15:55:13 GMT-0500 (Central Daylight Time),555280.2000000002,020_y_f_n_a.png,O,m,1028,8,1,2080.5,553199.7000000002,7028,VNB,B,6
6,test,1,0.0,2-Back,1,z,Mon Oct 28 2024 15:55:13 GMT-0500 (Central Daylight Time),556945.1000000006,005_o_f_h_a.png,O,z,601,9,1,1661.0,555284.1000000006,7028,VNB,B,7
6,test,1,0.0,2-Back,0,m,Mon Oct 28 2024 15:55:13 GMT-0500 (Central Daylight Time),559194.6000000006,004_o_m_d_a.png,O,z,1174,10,1,2245.2999999998137,556949.3000000007,7028,VNB,B,8
6,test,1,1.0,2-Back,0,m,Mon Oct 28 2024 15:55:13 GMT-0500 (Central Daylight Time),562260.4000000004,007_m_m_d_a.png,O,None,2015,11,1,3061.9000000003725,559198.5,7028,VNB,B,9
7,test,1,0.0,2-Back,1,m,Mon Oct 28 2024 15:55:13 GMT-0500 (Central Daylight Time),564676.2000000002,011_m_f_n_a.png,O,m,1364,12,1,2412.0999999996275,562264.1000000006,7028,VNB,B,10
8,test,1,0.0,2-Back,1,m,Mon Oct 28 2024 15:55:13 GMT-0500 (Central Daylight Time),566773.8000000007,020_y_f_h_a.png,O,m,1048,13,1,2093.7000000001863,564680.1000000006,7028,VNB,B,11
9,test,1,0.0,2-Back,1,z,Mon Oct 28 2024 15:55:13 GMT-0500 (Central Daylight Time),569008.0,007_m_m_n_a.png,O,z,1210,14,1,2231.0,566777.0,7028,VNB,B,12
10,test,1,0.0,2-Back,1,m,Mon Oct 28 2024 15:55:13 GMT-0500 (Central Daylight Time),570724.3000000007,016_y_m_d_a.png,O,m,697,15,1,1712.9000000003725,569011.4000000004,7028,VNB,B,13
11,test,1,1.0,2-Back,1,m,Mon Oct 28 2024 15:55:13 GMT-0500 (Central Daylight Time),573406.7000000002,011_m_f_h_a.png,O,m,1653,16,1,2678.2999999998137,570728.4000000004,7028,VNB,B,14
12,test,1,0.0,2-Back,1,z,Mon Oct 28 2024 15:55:13 GMT-0500 (Central Daylight Time),575556.1000000006,005_o_f_d_a.png,O,z,1123,17,1,2145.5,573410.6000000006,7028,VNB,B,15
13,test,1,0.0,2-Back,1,m,Mon Oct 28 2024 15:55:13 GMT-0500 (Central Daylight Time),577522.0,004_o_m_n_a.png,O,m,941,18,1,1962.0,575560.0,7028,VNB,B,16
0,test,2,0.0,2-Back,,,Mon Oct 28 2024 15:55:13 GMT-0500 (Central Daylight Time),577522.0,007_m_m_h_a.png,O,space,1655,1,1,1962.0,575560.0,7028,VNB,B,0
0,test,2,0.0,2-Back,,,Mon Oct 28 2024 15:55:13 GMT-0500 (Central Daylight Time),577522.0,020_y_f_n_a.png,O,space,1655,2,1,1962.0,575560.0,7028,VNB,B,0
1,test,2,1.0,2-Back,1,z,Mon Oct 28 2024 15:55:13 GMT-0500 (Central Daylight Time),586419.0,005_o_f_h_a.png,O,z,982,3,1,1994.8999999994412,584424.1000000006,7028,VNB,B,1
2,test,2,0.0,2-Back,1,m,Mon Oct 28 2024 15:55:13 GMT-0500 (Central Daylight Time),588268.6000000006,004_o_m_d_a.png,O,m,830,4,1,1846.2000000001863,586422.4000000004,7028,VNB,B,2
3,test,2,0.0,2-Back,1,m,Mon Oct 28 2024 15:55:13 GMT-0500 (Central Daylight Time),591152.4000000004,011_m_f_d_a.png,O,m,1852,5,1,2880.0,588272.4000000004,7028,VNB,B,3
4,test,2,0.0,2-Back,1,m,Mon Oct 28 2024 15:55:13 GMT-0500 (Central Daylight Time),593434.0,016_y_m_h_a.png,O,m,1258,6,1,2278.5999999996275,591155.4000000004,7028,VNB,B,4
4,test,2,0.0,2-Back,0,m,Mon Oct 28 2024 15:55:13 GMT-0500 (Central Daylight Time),596466.2000000002,005_o_f_n_a.png,O,None,2015,7,1,3028.5999999996275,593437.6000000006,7028,VNB,B,5
4,test,2,1.0,2-Back,0,z,Mon Oct 28 2024 15:55:13 GMT-0500 (Central Daylight Time),599498.7000000002,004_o_m_h_a.png,O,None,2016,8,1,3028.2999999998137,596470.4000000004,7028,VNB,B,6
4,test,2,0.0,2-Back,0,m,Mon Oct 28 2024 15:55:13 GMT-0500 (Central Daylight Time),601698.6000000006,020_y_f_d_a.png,O,z,1183,9,1,2196.4000000003725,599502.2000000002,7028,VNB,B,7
5,test,2,0.0,2-Back,1,m,Mon Oct 28 2024 15:55:13 GMT-0500 (Central Daylight Time),603897.1000000006,016_y_m_d_a.png,O,m,1175,10,1,2194.7999999998137,601702.3000000007,7028,VNB,B,8
6,test,2,0.0,2-Back,1,m,Mon Oct 28 2024 15:55:13 GMT-0500 (Central Daylight Time),606413.0,007_m_m_n_a.png,O,m,1488,11,1,2512.0999999996275,603900.9000000004,7028,VNB,B,9
7,test,2,0.0,2-Back,1,m,Mon Oct 28 2024 15:55:13 GMT-0500 (Central Daylight Time),608345.8000000007,011_m_f_h_a.png,O,m,899,12,1,1929.0,606416.8000000007,7028,VNB,B,10
8,test,2,1.0,2-Back,1,z,Mon Oct 28 2024 15:55:13 GMT-0500 (Central Daylight Time),610928.2000000002,004_o_m_n_a.png,O,z,1560,13,1,2578.5999999996275,608349.6000000006,7028,VNB,B,11
9,test,2,0.0,2-Back,1,m,Mon Oct 28 2024 15:55:13 GMT-0500 (Central Daylight Time),612744.4000000004,005_o_f_d_a.png,O,m,793,14,1,1812.5,610931.9000000004,7028,VNB,B,12
10,test,2,0.0,2-Back,1,m,Mon Oct 28 2024 15:55:13 GMT-0500 (Central Daylight Time),615593.3000000007,020_y_f_h_a.png,O,m,1780,15,1,2845.300000000745,612748.0,7028,VNB,B,13
10,test,2,0.0,2-Back,0,z,Mon Oct 28 2024 15:55:13 GMT-0500 (Central Daylight Time),618142.7000000002,007_m_m_d_a.png,O,m,1528,16,1,2545.5,615597.2000000002,7028,VNB,B,14
10,test,2,0.0,2-Back,0,m,Mon Oct 28 2024 15:55:13 GMT-0500 (Central Daylight Time),621175.2000000002,016_y_m_n_a.png,O,None,2016,17,1,3029.0999999996275,618146.1000000006,7028,VNB,B,15
10,test,2,1.0,2-Back,0,m,Mon Oct 28 2024 15:55:13 GMT-0500 (Central Daylight Time),624207.3000000007,011_m_f_n_a.png,O,None,2015,18,1,3028.800000000745,621178.5,7028,VNB,B,16
0,test,3,1.0,2-Back,,,Mon Oct 28 2024 15:55:13 GMT-0500 (Central Daylight Time),624207.3000000007,004_o_m_n_a.png,O,space,1730,1,1,3028.800000000745,621178.5,7028,VNB,B,0
0,test,3,1.0,2-Back,,,Mon Oct 28 2024 15:55:13 GMT-0500 (Central Daylight Time),624207.3000000007,005_o_f_d_a.png,O,space,1730,2,1,3028.800000000745,621178.5,7028,VNB,B,0
1,test,3,0.0,2-Back,1,m,Mon Oct 28 2024 15:55:13 GMT-0500 (Central Daylight Time),633804.6000000006,020_y_f_h_a.png,O,m,1788,3,1,2812.0,630992.6000000006,7028,VNB,B,1
2,test,3,0.0,2-Back,1,z,Mon Oct 28 2024 15:55:13 GMT-0500 (Central Daylight Time),636087.0,011_m_f_d_a.png,O,z,1261,4,1,2278.399999999441,633808.6000000006,7028,VNB,B,2
3,test,3,1.0,2-Back,1,m,Mon Oct 28 2024 15:55:13 GMT-0500 (Central Daylight Time),638119.7000000002,016_y_m_n_a.png,O,m,1002,5,1,2029.5999999996275,636090.1000000006,7028,VNB,B,3
4,test,3,0.0,2-Back,1,m,Mon Oct 28 2024 15:55:13 GMT-0500 (Central Daylight Time),640668.9000000004,004_o_m_h_a.png,O,m,1522,6,1,2545.2000000001863,638123.7000000002,7028,VNB,B,4
5,test,3,0.0,2-Back,1,z,Mon Oct 28 2024 15:55:13 GMT-0500 (Central Daylight Time),643618.2000000002,020_y_f_n_a.png,O,z,1925,7,1,2945.7999999998137,640672.4000000004,7028,VNB,B,5
6,test,3,1.0,2-Back,1,m,Mon Oct 28 2024 15:55:13 GMT-0500 (Central Daylight Time),645750.7000000002,007_m_m_d_a.png,O,m,1103,8,1,2129.2999999998137,643621.4000000004,7028,VNB,B,6
7,test,3,0.0,2-Back,1,m,Mon Oct 28 2024 15:55:13 GMT-0500 (Central Daylight Time),647950.0,016_y_m_d_a.png,O,m,1171,9,1,2195.0999999996275,645754.9000000004,7028,VNB,B,7
8,test,3,0.0,2-Back,1,m,Mon Oct 28 2024 15:55:13 GMT-0500 (Central Daylight Time),650732.3000000007,005_o_f_h_a.png,O,m,1762,10,1,2778.600000000559,647953.7000000002,7028,VNB,B,8
9,test,3,1.0,2-Back,1,m,Mon Oct 28 2024 15:55:13 GMT-0500 (Central Daylight Time),653216.1000000006,011_m_f_n_a.png,O,m,1420,11,1,2479.7999999998137,650736.3000000007,7028,VNB,B,9
10,test,3,1.0,2-Back,1,z,Mon Oct 28 2024 15:55:13 GMT-0500 (Central Daylight Time),655097.8000000007,007_m_m_h_a.png,O,z,817,12,1,1877.9000000003725,653219.9000000004,7028,VNB,B,10
11,test,3,0.0,2-Back,1,m,Mon Oct 28 2024 15:55:13 GMT-0500 (Central Daylight Time),657897.0,020_y_f_d_a.png,O,m,1741,13,1,2795.399999999441,655101.6000000006,7028,VNB,B,11
11,test,3,0.0,2-Back,0,m,Mon Oct 28 2024 15:55:13 GMT-0500 (Central Daylight Time),661007.0,005_o_f_n_a.png,O,None,2060,14,1,3105.899999999441,657901.1000000006,7028,VNB,B,12
11,test,3,0.0,2-Back,0,z,Mon Oct 28 2024 15:55:13 GMT-0500 (Central Daylight Time),664045.0,004_o_m_d_a.png,O,None,2016,15,1,3033.2999999998137,661011.7000000002,7028,VNB,B,13
12,test,3,1.0,2-Back,1,m,Mon Oct 28 2024 15:55:13 GMT-0500 (Central Daylight Time),666645.2000000002,011_m_f_h_a.png,O,m,1539,16,1,2596.0999999996275,664049.1000000006,7028,VNB,B,14
13,test,3,0.0,2-Back,1,m,Mon Oct 28 2024 15:55:13 GMT-0500 (Central Daylight Time),669376.5,007_m_m_n_a.png,O,m,1676,17,1,2726.899999999441,666649.6000000006,7028,VNB,B,15
14,test,3,0.0,2-Back,1,z,Mon Oct 28 2024 15:55:13 GMT-0500 (Central Daylight Time),671092.7000000002,016_y_m_h_a.png,O,z,639,18,1,1712.3999999994412,669380.3000000007,7028,VNB,B,16
0,test,4,0.0,2-Back,,,Mon Oct 28 2024 15:55:13 GMT-0500 (Central Daylight Time),671092.7000000002,011_m_f_n_a.png,O,space,1245,1,1,1712.3999999994412,669380.3000000007,7028,VNB,B,0
0,test,4,0.0,2-Back,,,Mon Oct 28 2024 15:55:13 GMT-0500 (Central Daylight Time),671092.7000000002,004_o_m_n_a.png,O,space,1245,2,1,1712.3999999994412,669380.3000000007,7028,VNB,B,0
1,test,4,1.0,2-Back,1,m,Mon Oct 28 2024 15:55:13 GMT-0500 (Central Daylight Time),679441.3000000007,016_y_m_h_a.png,O,m,835,3,1,1863.5,677577.8000000007,7028,VNB,B,1
2,test,4,1.0,2-Back,1,m,Mon Oct 28 2024 15:55:13 GMT-0500 (Central Daylight Time),681506.3000000007,005_o_f_d_a.png,O,m,1049,4,1,2061.7000000001863,679444.6000000006,7028,VNB,B,2
3,test,4,0.0,2-Back,1,z,Mon Oct 28 2024 15:55:13 GMT-0500 (Central Daylight Time),683072.3000000007,004_o_m_h_a.png,O,z,542,5,1,1562.4000000003725,681509.9000000004,7028,VNB,B,3
4,test,4,0.0,2-Back,1,m,Mon Oct 28 2024 15:55:13 GMT-0500 (Central Daylight Time),685121.6000000006,007_m_m_n_a.png,O,m,1017,6,1,2045.6000000005588,683076.0,7028,VNB,B,4
5,test,4,0.0,2-Back,1,m,Mon Oct 28 2024 15:55:13 GMT-0500 (Central Daylight Time),687154.3000000007,011_m_f_d_a.png,O,m,1008,7,1,2028.7000000001863,685125.6000000006,7028,VNB,B,5
6,test,4,0.0,2-Back,1,z,Mon Oct 28 2024 15:55:13 GMT-0500 (Central Daylight Time),689370.3000000007,020_y_f_n_a.png,O,z,1183,8,1,2212.5,687157.8000000007,7028,VNB,B,6
7,test,4,1.0,2-Back,1,m,Mon Oct 28 2024 15:55:13 GMT-0500 (Central Daylight Time),691436.4000000004,005_o_f_h_a.png,O,m,1046,9,1,2061.9000000003725,689374.5,7028,VNB,B,7
7,test,4,0.0,2-Back,0,m,Mon Oct 28 2024 15:55:13 GMT-0500 (Central Daylight Time),694468.8000000007,007_m_m_h_a.png,O,None,2016,10,1,3028.600000000559,691440.2000000002,7028,VNB,B,8
8,test,4,0.0,2-Back,1,m,Mon Oct 28 2024 15:55:13 GMT-0500 (Central Daylight Time),696251.4000000004,020_y_f_d_a.png,O,m,765,11,1,1778.5,694472.9000000004,7028,VNB,B,9
9,test,4,0.0,2-Back,1,m,Mon Oct 28 2024 15:55:13 GMT-0500 (Central Daylight Time),699117.2000000002,016_y_m_n_a.png,O,m,1838,12,1,2861.7999999998137,696255.4000000004,7028,VNB,B,10
9,test,4,0.0,2-Back,0,z,Mon Oct 28 2024 15:55:13 GMT-0500 (Central Daylight Time),701816.6000000006,004_o_m_d_a.png,O,m,1668,13,1,2695.4000000003725,699121.2000000002,7028,VNB,B,11
10,test,4,1.0,2-Back,1,m,Mon Oct 28 2024 15:55:13 GMT-0500 (Central Daylight Time),703915.7000000002,011_m_f_h_a.png,O,m,1073,14,1,2096.0999999996275,701819.6000000006,7028,VNB,B,12
10,test,4,1.0,2-Back,0,m,Mon Oct 28 2024 15:55:13 GMT-0500 (Central Daylight Time),706948.1000000006,020_y_f_h_a.png,O,None,2016,15,1,3028.2000000001863,703919.9000000004,7028,VNB,B,13
10,test,4,0.0,2-Back,0,m,Mon Oct 28 2024 15:55:13 GMT-0500 (Central Daylight Time),710097.0,005_o_f_n_a.png,O,None,2006,16,1,3145.2999999998137,706951.7000000002,7028,VNB,B,14
11,test,4,0.0,2-Back,1,m,Mon Oct 28 2024 15:55:13 GMT-0500 (Central Daylight Time),712129.7000000002,016_y_m_d_a.png,O,m,1007,17,1,2028.5999999996275,710101.1000000006,7028,VNB,B,15
11,test,4,1.0,2-Back,0,m,Mon Oct 28 2024 15:55:13 GMT-0500 (Central Daylight Time),714912.2000000002,007_m_m_d_a.png,O,z,1760,18,1,2779.0999999996275,712133.1000000006,7028,VNB,B,16
0,test,5,1.0,2-Back,,,Mon Oct 28 2024 15:55:13 GMT-0500 (Central Daylight Time),714912.2000000002,020_y_f_d_a.png,O,space,1217,1,1,2779.0999999996275,712133.1000000006,7028,VNB,B,0
0,test,5,1.0,2-Back,,,Mon Oct 28 2024 15:55:13 GMT-0500 (Central Daylight Time),714912.2000000002,005_o_f_h_a.png,O,space,1217,2,1,2779.0999999996275,712133.1000000006,7028,VNB,B,0
1,test,5,1.0,2-Back,1,z,Mon Oct 28 2024 15:55:13 GMT-0500 (Central Daylight Time),724026.0,004_o_m_d_a.png,O,z,1608,3,1,2629.2999999998137,721396.7000000002,7028,VNB,B,1
2,test,5,1.0,2-Back,1,m,Mon Oct 28 2024 15:55:13 GMT-0500 (Central Daylight Time),726009.0,011_m_f_n_a.png,O,m,951,4,1,1979.2999999998137,724029.7000000002,7028,VNB,B,2
2,test,5,0.0,2-Back,0,m,Mon Oct 28 2024 15:55:13 GMT-0500 (Central Daylight Time),729041.1000000006,007_m_m_h_a.png,O,None,2014,5,1,3028.2000000001863,726012.9000000004,7028,VNB,B,3
2,test,5,0.0,2-Back,0,z,Mon Oct 28 2024 15:55:13 GMT-0500 (Central Daylight Time),732073.8000000007,020_y_f_n_a.png,O,None,2016,6,1,3028.7000000001863,729045.1000000006,7028,VNB,B,4
3,test,5,0.0,2-Back,1,m,Mon Oct 28 2024 15:55:13 GMT-0500 (Central Daylight Time),734506.3000000007,005_o_f_d_a.png,O,m,1416,7,1,2429.300000000745,732077.0,7028,VNB,B,5
4,test,5,0.0,2-Back,1,m,Mon Oct 28 2024 15:55:13 GMT-0500 (Central Daylight Time),736822.0,004_o_m_h_a.png,O,m,1287,8,1,2312.2999999998137,734509.7000000002,7028,VNB,B,6
5,test,5,1.0,2-Back,1,z,Mon Oct 28 2024 15:55:13 GMT-0500 (Central Daylight Time),739038.2000000002,011_m_f_d_a.png,O,z,1195,9,1,2212.5,736825.7000000002,7028,VNB,B,7
6,test,5,0.0,2-Back,1,m,Mon Oct 28 2024 15:55:13 GMT-0500 (Central Daylight Time),741404.0,016_y_m_n_a.png,O,m,1339,10,1,2362.5,739041.5,7028,VNB,B,8
7,test,5,0.0,2-Back,1,m,Mon Oct 28 2024 15:55:13 GMT-0500 (Central Daylight Time),744419.8000000007,007_m_m_n_a.png,O,m,1996,11,1,3012.7000000001863,741407.1000000006,7028,VNB,B,9
8,test,5,0.0,2-Back,1,m,Mon Oct 28 2024 15:55:13 GMT-0500 (Central Daylight Time),746602.2000000002,020_y_f_h_a.png,O,m,1166,12,1,2178.7999999998137,744423.4000000004,7028,VNB,B,10
9,test,5,0.0,2-Back,1,m,Mon Oct 28 2024 15:55:13 GMT-0500 (Central Daylight Time),749168.0,016_y_m_d_a.png,O,m,1535,13,1,2562.0999999996275,746605.9000000004,7028,VNB,B,11
10,test,5,1.0,2-Back,1,z,Mon Oct 28 2024 15:55:13 GMT-0500 (Central Daylight Time),750850.8000000007,011_m_f_h_a.png,O,z,665,14,1,1679.1000000005588,749171.7000000002,7028,VNB,B,12
11,test,5,0.0,2-Back,1,m,Mon Oct 28 2024 15:55:13 GMT-0500 (Central Daylight Time),752900.4000000004,004_o_m_n_a.png,O,m,1022,15,1,2045.9000000003725,750854.5,7028,VNB,B,13
12,test,5,0.0,2-Back,1,m,Mon Oct 28 2024 15:55:13 GMT-0500 (Central Daylight Time),755615.9000000004,007_m_m_d_a.png,O,m,1685,16,1,2711.7999999998137,752904.1000000006,7028,VNB,B,14
13,test,5,0.0,2-Back,1,z,Mon Oct 28 2024 15:55:13 GMT-0500 (Central Daylight Time),757816.6000000006,005_o_f_n_a.png,O,z,1177,17,1,2197.600000000559,755619.0,7028,VNB,B,15
14,test,5,1.0,2-Back,1,m,Mon Oct 28 2024 15:55:13 GMT-0500 (Central Daylight Time),760231.4000000004,016_y_m_h_a.png,O,m,1386,18,1,2411.0,757820.4000000004,7028,VNB,B,16
