block_c,block_dur,condition,countdown,datetime,endtime,list,multichar_response,project,response,response_time,session_number,start_end,starttime,subject_id,task,task_vers,trial
,,,,Fri Mar 28 2025 13:44:56 GMT-0500 (Central Daylight Time),,,,O,space,189,1,,,7084,WL,A,
prac,,0,,Fri Mar 28 2025 13:44:56 GMT-0500 (Central Daylight Time),,NA,b,O,b,1798,1,,,7084,WL,A,1.0
prac,,0,,Fri Mar 28 2025 13:44:56 GMT-0500 (Central Daylight Time),,NA,bo,O,o,286,1,,,7084,WL,A,1.0
prac,,0,,Fri Mar 28 2025 13:44:56 GMT-0500 (Central Daylight Time),,NA,boo,O,o,160,1,,,7084,WL,A,1.0
prac,,0,,Fri Mar 28 2025 13:44:56 GMT-0500 (Central Daylight Time),,NA,boos,O,s,156,1,,,7084,WL,A,1.0
prac,,0,,Fri Mar 28 2025 13:44:56 GMT-0500 (Central Daylight Time),,NA,boosy,O,y,157,1,,,7084,WL,A,1.0
prac,,0,,Fri Mar 28 2025 13:44:56 GMT-0500 (Central Daylight Time),,NA,boos,O,backspace,855,1,,,7084,WL,A,1.0
prac,,0,,Fri Mar 28 2025 13:44:56 GMT-0500 (Central Daylight Time),,NA,boost,O,t,484,1,,,7084,WL,A,1.0
prac,,0,,Fri Mar 28 2025 13:44:56 GMT-0500 (Central Daylight Time),,NA,boostenter,O,enter,1064,1,,,7084,WL,A,1.0
1,2.2149999141693115,learn,57785.00008583069,Fri Mar 28 2025 13:44:56 GMT-0500 (Central Daylight Time),131611.09999999404,A,h,O,h,2204,1,2215.2999999821186,129395.80000001192,7084,WL,A,1.0
1,2.364000082015991,learn,57635.99991798401,Fri Mar 28 2025 13:44:56 GMT-0500 (Central Daylight Time),131760.40000000596,A,ha,O,a,141,1,2364.5999999940395,129395.80000001192,7084,WL,A,1.0
1,2.6649999618530273,learn,57335.00003814697,Fri Mar 28 2025 13:44:56 GMT-0500 (Central Daylight Time),132060.59999999404,A,har,O,r,279,1,2664.7999999821186,129395.80000001192,7084,WL,A,1.0
1,3.6640000343322754,learn,56335.999965667725,Fri Mar 28 2025 13:44:56 GMT-0500 (Central Daylight Time),133059.69999998808,A,harp,O,p,987,1,3663.899999976158,129395.80000001192,7084,WL,A,1.0
1,5.11299991607666,learn,54887.00008392334,Fri Mar 28 2025 13:44:56 GMT-0500 (Central Daylight Time),134509.30000001192,A,harpenter,O,enter,1444,1,5113.5,129395.80000001192,7084,WL,A,1.0
1,6.062999963760376,learn,53937.000036239624,Fri Mar 28 2025 13:44:56 GMT-0500 (Central Daylight Time),135459.19999998808,A,t,O,t,938,1,949.5999999940395,134509.59999999404,7084,WL,A,2.0
1,6.230000019073486,learn,53769.999980926514,Fri Mar 28 2025 13:44:56 GMT-0500 (Central Daylight Time),135626.19999998808,A,tr,O,r,148,1,1116.5999999940395,134509.59999999404,7084,WL,A,2.0
1,6.412999868392944,learn,53587.000131607056,Fri Mar 28 2025 13:44:56 GMT-0500 (Central Daylight Time),135808.59999999404,A,tra,O,a,173,1,1299.0,134509.59999999404,7084,WL,A,2.0
1,6.596999883651733,learn,53403.00011634827,Fri Mar 28 2025 13:44:56 GMT-0500 (Central Daylight Time),135993.0,A,trai,O,i,175,1,1483.4000000059605,134509.59999999404,7084,WL,A,2.0
1,6.7790000438690186,learn,53220.99995613098,Fri Mar 28 2025 13:44:56 GMT-0500 (Central Daylight Time),136175.40000000596,A,train,O,n,175,1,1665.800000011921,134509.59999999404,7084,WL,A,2.0
1,7.412999868392944,learn,52587.000131607056,Fri Mar 28 2025 13:44:56 GMT-0500 (Central Daylight Time),136808.40000000596,A,trainenter,O,enter,616,1,2298.800000011921,134509.59999999404,7084,WL,A,2.0
1,8.29699993133545,learn,51703.00006866455,Fri Mar 28 2025 13:44:56 GMT-0500 (Central Daylight Time),137692.90000000596,A,m,O,m,880,1,884.2000000178814,136808.69999998808,7084,WL,A,3.0
1,8.430000066757202,learn,51569.9999332428,Fri Mar 28 2025 13:44:56 GMT-0500 (Central Daylight Time),137825.5,A,me,O,e,123,1,1016.8000000119209,136808.69999998808,7084,WL,A,3.0
1,8.562999963760376,learn,51437.000036239624,Fri Mar 28 2025 13:44:56 GMT-0500 (Central Daylight Time),137958.90000000596,A,mea,O,a,118,1,1150.2000000178814,136808.69999998808,7084,WL,A,3.0
1,8.76200008392334,learn,51237.99991607666,Fri Mar 28 2025 13:44:56 GMT-0500 (Central Daylight Time),138158.30000001192,A,mead,O,d,185,1,1349.6000000238419,136808.69999998808,7084,WL,A,3.0
1,8.986000061035156,learn,51013.999938964844,Fri Mar 28 2025 13:44:56 GMT-0500 (Central Daylight Time),138381.5,A,meado,O,o,219,1,1572.800000011921,136808.69999998808,7084,WL,A,3.0
1,9.233000040054321,learn,50766.99995994568,Fri Mar 28 2025 13:44:56 GMT-0500 (Central Daylight Time),138629.0,A,meadow,O,w,235,1,1820.300000011921,136808.69999998808,7084,WL,A,3.0
1,9.595999956130981,learn,50404.00004386902,Fri Mar 28 2025 13:44:56 GMT-0500 (Central Daylight Time),138992.19999998808,A,meadowenter,O,enter,347,1,2183.5,136808.69999998808,7084,WL,A,3.0
1,10.09500002861023,learn,49904.99997138977,Fri Mar 28 2025 13:44:56 GMT-0500 (Central Daylight Time),139491.0,A,f,O,f,479,1,498.40000000596046,138992.59999999404,7084,WL,A,4.0
1,10.263000011444092,learn,49736.99998855591,Fri Mar 28 2025 13:44:56 GMT-0500 (Central Daylight Time),139658.40000000596,A,fi,O,i,158,1,665.8000000119209,138992.59999999404,7084,WL,A,4.0
1,10.428999900817871,learn,49571.00009918213,Fri Mar 28 2025 13:44:56 GMT-0500 (Central Daylight Time),139824.40000000596,A,fin,O,n,146,1,831.8000000119209,138992.59999999404,7084,WL,A,4.0
1,10.678999900817871,learn,49321.00009918213,Fri Mar 28 2025 13:44:56 GMT-0500 (Central Daylight Time),140074.90000000596,A,fing,O,g,232,1,1082.300000011921,138992.59999999404,7084,WL,A,4.0
1,10.812000036239624,learn,49187.999963760376,Fri Mar 28 2025 13:44:56 GMT-0500 (Central Daylight Time),140208.0,A,finge,O,e,117,1,1215.4000000059605,138992.59999999404,7084,WL,A,4.0
1,10.944999933242798,learn,49055.0000667572,Fri Mar 28 2025 13:44:56 GMT-0500 (Central Daylight Time),140341.0,A,finger,O,r,120,1,1348.4000000059605,138992.59999999404,7084,WL,A,4.0
1,11.244999885559082,learn,48755.00011444092,Fri Mar 28 2025 13:44:56 GMT-0500 (Central Daylight Time),140640.59999999404,A,fingerenter,O,enter,281,1,1648.0,138992.59999999404,7084,WL,A,4.0
1,11.560999870300293,learn,48439.00012969971,Fri Mar 28 2025 13:44:56 GMT-0500 (Central Daylight Time),140957.30000001192,A,s,O,s,312,1,316.40000000596046,140640.90000000596,7084,WL,A,5.0
1,11.711999893188477,learn,48288.00010681152,Fri Mar 28 2025 13:44:56 GMT-0500 (Central Daylight Time),141107.59999999404,A,sa,O,a,139,1,466.69999998807907,140640.90000000596,7084,WL,A,5.0
1,11.961999893188477,learn,48038.00010681152,Fri Mar 28 2025 13:44:56 GMT-0500 (Central Daylight Time),141358.0,A,sal,O,l,236,1,717.0999999940395,140640.90000000596,7084,WL,A,5.0
1,12.57800006866455,learn,47421.99993133545,Fri Mar 28 2025 13:44:56 GMT-0500 (Central Daylight Time),141974.40000000596,A,salt,O,t,602,1,1333.5,140640.90000000596,7084,WL,A,5.0
1,13.694000005722046,learn,46305.999994277954,Fri Mar 28 2025 13:44:56 GMT-0500 (Central Daylight Time),143090.0,A,saltenter,O,enter,1097,1,2449.0999999940395,140640.90000000596,7084,WL,A,5.0
1,14.211999893188477,learn,45788.00010681152,Fri Mar 28 2025 13:44:56 GMT-0500 (Central Daylight Time),143607.90000000596,A,k,O,k,502,1,517.7000000178814,143090.19999998808,7084,WL,A,6.0
1,14.496999979019165,learn,45503.000020980835,Fri Mar 28 2025 13:44:56 GMT-0500 (Central Daylight Time),143892.40000000596,A,ke,O,e,265,1,802.2000000178814,143090.19999998808,7084,WL,A,6.0
1,14.67799997329712,learn,45322.00002670288,Fri Mar 28 2025 13:44:56 GMT-0500 (Central Daylight Time),144073.5,A,key,O,y,163,1,983.3000000119209,143090.19999998808,7084,WL,A,6.0
1,15.394999980926514,learn,44605.000019073486,Fri Mar 28 2025 13:44:56 GMT-0500 (Central Daylight Time),144790.69999998808,A,keyenter,O,enter,701,1,1700.5,143090.19999998808,7084,WL,A,6.0
1,19.693000078201294,learn,40306.999921798706,Fri Mar 28 2025 13:44:56 GMT-0500 (Central Daylight Time),149089.40000000596,A,t,O,t,4292,1,4298.5,144790.90000000596,7084,WL,A,7.0
1,19.91100001335144,learn,40088.99998664856,Fri Mar 28 2025 13:44:56 GMT-0500 (Central Daylight Time),149306.69999998808,A,tr,O,r,197,1,4515.799999982119,144790.90000000596,7084,WL,A,7.0
1,20.07699990272522,learn,39923.00009727478,Fri Mar 28 2025 13:44:56 GMT-0500 (Central Daylight Time),149472.5,A,tra,O,a,156,1,4681.5999999940395,144790.90000000596,7084,WL,A,7.0
1,20.210999965667725,learn,39789.000034332275,Fri Mar 28 2025 13:44:56 GMT-0500 (Central Daylight Time),149606.5,A,trai,O,i,120,1,4815.5999999940395,144790.90000000596,7084,WL,A,7.0
1,20.37999987602234,learn,39620.00012397766,Fri Mar 28 2025 13:44:56 GMT-0500 (Central Daylight Time),149775.69999998808,A,train,O,n,154,1,4984.799999982119,144790.90000000596,7084,WL,A,7.0
1,20.82699990272522,learn,39173.00009727478,Fri Mar 28 2025 13:44:56 GMT-0500 (Central Daylight Time),150223.40000000596,A,trainenter,O,enter,436,1,5432.5,144790.90000000596,7084,WL,A,7.0
1,24.243000030517578,learn,35756.99996948242,Fri Mar 28 2025 13:44:56 GMT-0500 (Central Daylight Time),153639.0,A,f,O,f,3401,1,3415.199999988079,150223.80000001192,7084,WL,A,8.0
1,24.377000093460083,learn,35622.99990653992,Fri Mar 28 2025 13:44:56 GMT-0500 (Central Daylight Time),153772.69999998808,A,fl,O,l,119,1,3548.899999976158,150223.80000001192,7084,WL,A,8.0
1,24.64299988746643,learn,35357.00011253357,Fri Mar 28 2025 13:44:56 GMT-0500 (Central Daylight Time),154039.09999999404,A,flo,O,o,251,1,3815.2999999821186,150223.80000001192,7084,WL,A,8.0
1,24.776999950408936,learn,35223.000049591064,Fri Mar 28 2025 13:44:56 GMT-0500 (Central Daylight Time),154173.30000001192,A,flow,O,w,128,1,3949.5,150223.80000001192,7084,WL,A,8.0
1,25.009999990463257,learn,34990.00000953674,Fri Mar 28 2025 13:44:56 GMT-0500 (Central Daylight Time),154405.69999998808,A,flowe,O,e,219,1,4181.899999976158,150223.80000001192,7084,WL,A,8.0
1,25.20899987220764,learn,34791.00012779236,Fri Mar 28 2025 13:44:56 GMT-0500 (Central Daylight Time),154604.40000000596,A,flower,O,r,186,1,4380.5999999940395,150223.80000001192,7084,WL,A,8.0
1,25.52500009536743,learn,34474.99990463257,Fri Mar 28 2025 13:44:56 GMT-0500 (Central Daylight Time),154921.30000001192,A,flowerenter,O,enter,299,1,4697.5,150223.80000001192,7084,WL,A,8.0
1,26.259000062942505,learn,33740.999937057495,Fri Mar 28 2025 13:44:56 GMT-0500 (Central Daylight Time),155655.40000000596,A,a,O,a,728,1,733.7000000178814,154921.69999998808,7084,WL,A,9.0
1,26.57699990272522,learn,33423.00009727478,Fri Mar 28 2025 13:44:56 GMT-0500 (Central Daylight Time),155972.90000000596,A,ap,O,p,306,1,1051.2000000178814,154921.69999998808,7084,WL,A,9.0
1,26.77500009536743,learn,33224.99990463257,Fri Mar 28 2025 13:44:56 GMT-0500 (Central Daylight Time),156171.5,A,app,O,p,178,1,1249.800000011921,154921.69999998808,7084,WL,A,9.0
1,26.907000064849854,learn,33092.99993515015,Fri Mar 28 2025 13:44:56 GMT-0500 (Central Daylight Time),156302.69999998808,A,appl,O,l,123,1,1381.0,154921.69999998808,7084,WL,A,9.0
1,27.10800004005432,learn,32891.99995994568,Fri Mar 28 2025 13:44:56 GMT-0500 (Central Daylight Time),156504.09999999404,A,apple,O,e,186,1,1582.4000000059605,154921.69999998808,7084,WL,A,9.0
1,27.308000087738037,learn,32691.999912261963,Fri Mar 28 2025 13:44:56 GMT-0500 (Central Daylight Time),156703.5,A,appleenter,O,enter,183,1,1781.800000011921,154921.69999998808,7084,WL,A,9.0
1,35.17300009727478,learn,24826.99990272522,Fri Mar 28 2025 13:44:56 GMT-0500 (Central Daylight Time),164569.30000001192,A,l,O,l,7848,1,7865.600000023842,156703.69999998808,7084,WL,A,10.0
1,35.42300009727478,learn,24576.99990272522,Fri Mar 28 2025 13:44:56 GMT-0500 (Central Daylight Time),164818.90000000596,A,lo,O,o,230,1,8115.200000017881,156703.69999998808,7084,WL,A,10.0
1,35.69099998474121,learn,24309.00001525879,Fri Mar 28 2025 13:44:56 GMT-0500 (Central Daylight Time),165086.5,A,log,O,g,262,1,8382.800000011921,156703.69999998808,7084,WL,A,10.0
1,36.105000019073486,learn,23894.999980926514,Fri Mar 28 2025 13:44:56 GMT-0500 (Central Daylight Time),165500.80000001192,A,logenter,O,enter,392,1,8797.100000023842,156703.69999998808,7084,WL,A,10.0
1,53.43300008773804,learn,6566.999912261963,Fri Mar 28 2025 13:44:56 GMT-0500 (Central Daylight Time),182829.69999998808,A,r,O,r,17315,1,17328.69999998808,165501.0,7084,WL,A,11.0
1,53.53200006484985,learn,6467.9999351501465,Fri Mar 28 2025 13:44:56 GMT-0500 (Central Daylight Time),182928.59999999404,A,ru,O,u,81,1,17427.59999999404,165501.0,7084,WL,A,11.0
1,53.698999881744385,learn,6301.000118255615,Fri Mar 28 2025 13:44:56 GMT-0500 (Central Daylight Time),183095.5,A,rug,O,g,159,1,17594.5,165501.0,7084,WL,A,11.0
1,53.950000047683716,learn,6049.999952316284,Fri Mar 28 2025 13:44:56 GMT-0500 (Central Daylight Time),183346.40000000596,A,rugenter,O,enter,231,1,17845.40000000596,165501.0,7084,WL,A,11.0
1,54.348999977111816,learn,5651.000022888184,Fri Mar 28 2025 13:44:56 GMT-0500 (Central Daylight Time),183745.40000000596,A,enter,O,enter,380,1,398.7000000178814,183346.69999998808,7084,WL,A,12.0
1,54.698999881744385,learn,5301.000118255615,Fri Mar 28 2025 13:44:56 GMT-0500 (Central Daylight Time),184095.30000001192,A,enter,O,enter,344,1,349.60000002384186,183745.69999998808,7084,WL,A,13.0
1,55.049999952316284,learn,4950.000047683716,Fri Mar 28 2025 13:44:56 GMT-0500 (Central Daylight Time),184445.80000001192,A,enter,O,enter,336,1,350.2000000178814,184095.59999999404,7084,WL,A,14.0
1,55.46499991416931,learn,4535.0000858306885,Fri Mar 28 2025 13:44:56 GMT-0500 (Central Daylight Time),184861.5,A,enter,O,enter,410,1,415.40000000596046,184446.09999999404,7084,WL,A,15.0
2,0.9690001010894775,learn,59030.99989891052,Fri Mar 28 2025 13:44:56 GMT-0500 (Central Daylight Time),251975.40000000596,A,g,O,g,965,1,968.5999999940395,251006.80000001192,7084,WL,A,1.0
2,1.1670000553131104,learn,58832.99994468689,Fri Mar 28 2025 13:44:56 GMT-0500 (Central Daylight Time),252173.90000000596,A,gi,O,i,183,1,1167.0999999940395,251006.80000001192,7084,WL,A,1.0
2,2.2009999752044678,learn,57799.00002479553,Fri Mar 28 2025 13:44:56 GMT-0500 (Central Daylight Time),253207.19999998808,A,g,O,backspace,1018,1,2200.399999976158,251006.80000001192,7084,WL,A,1.0
2,2.501000165939331,learn,57498.99983406067,Fri Mar 28 2025 13:44:56 GMT-0500 (Central Daylight Time),253507.5,A,go,O,o,279,1,2500.699999988079,251006.80000001192,7084,WL,A,1.0
2,2.751000165939331,learn,57248.99983406067,Fri Mar 28 2025 13:44:56 GMT-0500 (Central Daylight Time),253757.40000000596,A,gol,O,l,236,1,2750.5999999940395,251006.80000001192,7084,WL,A,1.0
2,2.9840002059936523,learn,57015.99979400635,Fri Mar 28 2025 13:44:56 GMT-0500 (Central Daylight Time),253990.59999999404,A,gold,O,d,217,1,2983.7999999821186,251006.80000001192,7084,WL,A,1.0
2,3.1670000553131104,learn,56832.99994468689,Fri Mar 28 2025 13:44:56 GMT-0500 (Central Daylight Time),254173.59999999404,A,goldenter,O,enter,169,1,3166.7999999821186,251006.80000001192,7084,WL,A,1.0
2,3.937000036239624,learn,56062.999963760376,Fri Mar 28 2025 13:44:56 GMT-0500 (Central Daylight Time),254943.90000000596,A,f,O,f,764,1,770.0999999940395,254173.80000001192,7084,WL,A,2.0
2,4.133000135421753,learn,55866.99986457825,Fri Mar 28 2025 13:44:56 GMT-0500 (Central Daylight Time),255139.90000000596,A,fl,O,l,174,1,966.0999999940395,254173.80000001192,7084,WL,A,2.0
2,4.334000110626221,learn,55665.99988937378,Fri Mar 28 2025 13:44:56 GMT-0500 (Central Daylight Time),255340.30000001192,A,flo,O,o,178,1,1166.5,254173.80000001192,7084,WL,A,2.0
2,4.5,learn,55500.0,Fri Mar 28 2025 13:44:56 GMT-0500 (Central Daylight Time),255506.30000001192,A,flow,O,w,147,1,1332.5,254173.80000001192,7084,WL,A,2.0
2,4.7170000076293945,learn,55282.999992370605,Fri Mar 28 2025 13:44:56 GMT-0500 (Central Daylight Time),255723.59999999404,A,flowe,O,e,196,1,1549.7999999821186,254173.80000001192,7084,WL,A,2.0
2,4.869000196456909,learn,55130.99980354309,Fri Mar 28 2025 13:44:56 GMT-0500 (Central Daylight Time),255875.19999998808,A,flower,O,r,129,1,1701.3999999761581,254173.80000001192,7084,WL,A,2.0
2,5.0350000858306885,learn,54964.99991416931,Fri Mar 28 2025 13:44:56 GMT-0500 (Central Daylight Time),256041.59999999404,A,flowerenter,O,enter,149,1,1867.7999999821186,254173.80000001192,7084,WL,A,2.0
2,5.417999982833862,learn,54582.00001716614,Fri Mar 28 2025 13:44:56 GMT-0500 (Central Daylight Time),256424.40000000596,A,b,O,b,378,1,382.09999999403954,256042.30000001192,7084,WL,A,3.0
2,5.699000120162964,learn,54300.999879837036,Fri Mar 28 2025 13:44:56 GMT-0500 (Central Daylight Time),256705.90000000596,A,bo,O,o,261,1,663.5999999940395,256042.30000001192,7084,WL,A,3.0
2,5.848999977111816,learn,54151.00002288818,Fri Mar 28 2025 13:44:56 GMT-0500 (Central Daylight Time),256855.19999998808,A,boo,O,o,141,1,812.8999999761581,256042.30000001192,7084,WL,A,3.0
2,5.949000120162964,learn,54050.999879837036,Fri Mar 28 2025 13:44:56 GMT-0500 (Central Daylight Time),256955.59999999404,A,book,O,k,87,1,913.2999999821186,256042.30000001192,7084,WL,A,3.0
2,6.166000127792358,learn,53833.99987220764,Fri Mar 28 2025 13:44:56 GMT-0500 (Central Daylight Time),257172.19999998808,A,bookenter,O,enter,195,1,1129.8999999761581,256042.30000001192,7084,WL,A,3.0
2,6.516000032424927,learn,53483.99996757507,Fri Mar 28 2025 13:44:56 GMT-0500 (Central Daylight Time),257522.5,A,c,O,c,332,1,349.90000000596046,257172.59999999404,7084,WL,A,4.0
2,6.765000104904175,learn,53234.999895095825,Fri Mar 28 2025 13:44:56 GMT-0500 (Central Daylight Time),257771.59999999404,A,ch,O,h,228,1,599.0,257172.59999999404,7084,WL,A,4.0
2,6.8480000495910645,learn,53151.999950408936,Fri Mar 28 2025 13:44:56 GMT-0500 (Central Daylight Time),257854.69999998808,A,chi,O,i,74,1,682.0999999940395,257172.59999999404,7084,WL,A,4.0
2,7.065000057220459,learn,52934.99994277954,Fri Mar 28 2025 13:44:56 GMT-0500 (Central Daylight Time),258071.19999998808,A,chim,O,m,200,1,898.5999999940395,257172.59999999404,7084,WL,A,4.0
2,7.299000024795532,learn,52700.99997520447,Fri Mar 28 2025 13:44:56 GMT-0500 (Central Daylight Time),258305.59999999404,A,chimn,O,n,224,1,1133.0,257172.59999999404,7084,WL,A,4.0
2,7.565999984741211,learn,52434.00001525879,Fri Mar 28 2025 13:44:56 GMT-0500 (Central Daylight Time),258572.5,A,chimne,O,e,253,1,1399.9000000059605,257172.59999999404,7084,WL,A,4.0
2,7.75,learn,52250.0,Fri Mar 28 2025 13:44:56 GMT-0500 (Central Daylight Time),258756.90000000596,A,chimney,O,y,178,1,1584.300000011921,257172.59999999404,7084,WL,A,4.0
2,8.083000183105469,learn,51916.99981689453,Fri Mar 28 2025 13:44:56 GMT-0500 (Central Daylight Time),259089.19999998808,A,chimneyenter,O,enter,314,1,1916.5999999940395,257172.59999999404,7084,WL,A,4.0
2,8.466000080108643,learn,51533.99991989136,Fri Mar 28 2025 13:44:56 GMT-0500 (Central Daylight Time),259472.90000000596,A,f,O,f,374,1,383.5,259089.40000000596,7084,WL,A,5.0
2,8.648000001907349,learn,51351.99999809265,Fri Mar 28 2025 13:44:56 GMT-0500 (Central Daylight Time),259654.80000001192,A,fi,O,i,165,1,565.4000000059605,259089.40000000596,7084,WL,A,5.0
2,8.831000089645386,learn,51168.999910354614,Fri Mar 28 2025 13:44:56 GMT-0500 (Central Daylight Time),259837.59999999404,A,fin,O,n,168,1,748.1999999880791,259089.40000000596,7084,WL,A,5.0
2,9.082000017166138,learn,50917.99998283386,Fri Mar 28 2025 13:44:56 GMT-0500 (Central Daylight Time),260088.90000000596,A,fing,O,g,233,1,999.5,259089.40000000596,7084,WL,A,5.0
2,9.216000080108643,learn,50783.99991989136,Fri Mar 28 2025 13:44:56 GMT-0500 (Central Daylight Time),260222.40000000596,A,finge,O,e,127,1,1133.0,259089.40000000596,7084,WL,A,5.0
2,9.348000049591064,learn,50651.999950408936,Fri Mar 28 2025 13:44:56 GMT-0500 (Central Daylight Time),260354.69999998808,A,finger,O,r,120,1,1265.2999999821186,259089.40000000596,7084,WL,A,5.0
2,10.115000009536743,learn,49884.99999046326,Fri Mar 28 2025 13:44:56 GMT-0500 (Central Daylight Time),261121.19999998808,A,fingerenter,O,enter,748,1,2031.7999999821186,259089.40000000596,7084,WL,A,5.0
2,10.897000074386597,learn,49102.9999256134,Fri Mar 28 2025 13:44:56 GMT-0500 (Central Daylight Time),261904.09999999404,A,r,O,r,767,1,782.5,261121.59999999404,7084,WL,A,6.0
2,11.04800009727478,learn,48951.99990272522,Fri Mar 28 2025 13:44:56 GMT-0500 (Central Daylight Time),262054.5,A,ra,O,a,144,1,932.9000000059605,261121.59999999404,7084,WL,A,6.0
2,11.281000137329102,learn,48718.9998626709,Fri Mar 28 2025 13:44:56 GMT-0500 (Central Daylight Time),262288.0,A,rat,O,t,216,1,1166.4000000059605,261121.59999999404,7084,WL,A,6.0
2,11.432000160217285,learn,48567.999839782715,Fri Mar 28 2025 13:44:56 GMT-0500 (Central Daylight Time),262438.8000000119,A,ratt,O,t,135,1,1317.2000000178814,261121.59999999404,7084,WL,A,6.0
2,11.999000072479248,learn,48000.99992752075,Fri Mar 28 2025 13:44:56 GMT-0500 (Central Daylight Time),263005.6999999881,A,rattl,O,l,560,1,1884.0999999940395,261121.59999999404,7084,WL,A,6.0
2,12.25,learn,47750.0,Fri Mar 28 2025 13:44:56 GMT-0500 (Central Daylight Time),263256.1999999881,A,rattle,O,e,241,1,2134.5999999940395,261121.59999999404,7084,WL,A,6.0
2,12.96399998664856,learn,47036.00001335144,Fri Mar 28 2025 13:44:56 GMT-0500 (Central Daylight Time),263970.8000000119,A,rattleenter,O,enter,702,1,2849.2000000178814,261121.59999999404,7084,WL,A,6.0
2,14.366000175476074,learn,45633.999824523926,Fri Mar 28 2025 13:44:56 GMT-0500 (Central Daylight Time),265372.09999999404,A,l,O,l,1380,1,1401.0,263971.09999999404,7084,WL,A,7.0
2,14.581000089645386,learn,45418.999910354614,Fri Mar 28 2025 13:44:56 GMT-0500 (Central Daylight Time),265587.09999999404,A,lo,O,o,194,1,1616.0,263971.09999999404,7084,WL,A,7.0
2,14.86300015449524,learn,45136.99984550476,Fri Mar 28 2025 13:44:56 GMT-0500 (Central Daylight Time),265869.8000000119,A,log,O,g,268,1,1898.7000000178814,263971.09999999404,7084,WL,A,7.0
2,15.21500015258789,learn,44784.99984741211,Fri Mar 28 2025 13:44:56 GMT-0500 (Central Daylight Time),266221.09999999404,A,logenter,O,enter,346,1,2250.0,263971.09999999404,7084,WL,A,7.0
2,15.546000003814697,learn,44453.9999961853,Fri Mar 28 2025 13:44:56 GMT-0500 (Central Daylight Time),266552.6999999881,A,r,O,r,314,1,331.2999999821186,266221.40000000596,7084,WL,A,8.0
2,15.729000091552734,learn,44270.999908447266,Fri Mar 28 2025 13:44:56 GMT-0500 (Central Daylight Time),266735.09999999404,A,ru,O,u,167,1,513.6999999880791,266221.40000000596,7084,WL,A,8.0
2,16.046000003814697,learn,43953.9999961853,Fri Mar 28 2025 13:44:56 GMT-0500 (Central Daylight Time),267052.40000000596,A,rug,O,g,303,1,831.0,266221.40000000596,7084,WL,A,8.0
2,16.379000186920166,learn,43620.999813079834,Fri Mar 28 2025 13:44:56 GMT-0500 (Central Daylight Time),267385.6999999881,A,rugenter,O,enter,324,1,1164.2999999821186,266221.40000000596,7084,WL,A,8.0
2,16.77900004386902,learn,43220.99995613098,Fri Mar 28 2025 13:44:56 GMT-0500 (Central Daylight Time),267785.8000000119,A,k,O,k,383,1,399.80000001192093,267386.0,7084,WL,A,9.0
2,17.081000089645386,learn,42918.999910354614,Fri Mar 28 2025 13:44:56 GMT-0500 (Central Daylight Time),268087.40000000596,A,ke,O,e,295,1,701.4000000059605,267386.0,7084,WL,A,9.0
2,17.2810001373291,learn,42718.9998626709,Fri Mar 28 2025 13:44:56 GMT-0500 (Central Daylight Time),268287.3000000119,A,key,O,y,192,1,901.3000000119209,267386.0,7084,WL,A,9.0
2,17.695000171661377,learn,42304.99982833862,Fri Mar 28 2025 13:44:56 GMT-0500 (Central Daylight Time),268701.8000000119,A,keyenter,O,enter,398,1,1315.800000011921,267386.0,7084,WL,A,9.0
2,19.24400019645691,learn,40755.99980354309,Fri Mar 28 2025 13:44:56 GMT-0500 (Central Daylight Time),270250.90000000596,A,t,O,t,1530,1,1549.0,268701.90000000596,7084,WL,A,10.0
2,19.545000076293945,learn,40454.999923706055,Fri Mar 28 2025 13:44:56 GMT-0500 (Central Daylight Time),270551.59999999404,A,tr,O,r,286,1,1849.699999988079,268701.90000000596,7084,WL,A,10.0
2,19.761000156402588,learn,40238.99984359741,Fri Mar 28 2025 13:44:56 GMT-0500 (Central Daylight Time),270767.90000000596,A,tra,O,a,198,1,2066.0,268701.90000000596,7084,WL,A,10.0
2,19.978000164031982,learn,40021.99983596802,Fri Mar 28 2025 13:44:56 GMT-0500 (Central Daylight Time),270984.8000000119,A,trai,O,i,197,1,2282.9000000059605,268701.90000000596,7084,WL,A,10.0
2,20.09600019454956,learn,39903.99980545044,Fri Mar 28 2025 13:44:56 GMT-0500 (Central Daylight Time),271102.6999999881,A,train,O,n,110,1,2400.7999999821186,268701.90000000596,7084,WL,A,10.0
2,20.41000008583069,learn,39589.99991416931,Fri Mar 28 2025 13:44:56 GMT-0500 (Central Daylight Time),271416.8000000119,A,trainenter,O,enter,303,1,2714.9000000059605,268701.90000000596,7084,WL,A,10.0
2,20.64400005340576,learn,39355.99994659424,Fri Mar 28 2025 13:44:56 GMT-0500 (Central Daylight Time),271650.5,A,f,O,f,224,1,233.5,271417.0,7084,WL,A,11.0
2,20.794000148773193,learn,39205.99985122681,Fri Mar 28 2025 13:44:56 GMT-0500 (Central Daylight Time),271800.3000000119,A,fi,O,i,139,1,383.30000001192093,271417.0,7084,WL,A,11.0
2,21.044000148773193,learn,38955.99985122681,Fri Mar 28 2025 13:44:56 GMT-0500 (Central Daylight Time),272050.09999999404,A,fin,O,n,230,1,633.0999999940395,271417.0,7084,WL,A,11.0
2,21.41100001335144,learn,38588.99998664856,Fri Mar 28 2025 13:44:56 GMT-0500 (Central Daylight Time),272417.59999999404,A,fing,O,g,348,1,1000.5999999940395,271417.0,7084,WL,A,11.0
2,21.628000020980835,learn,38371.999979019165,Fri Mar 28 2025 13:44:56 GMT-0500 (Central Daylight Time),272634.59999999404,A,finge,O,e,197,1,1217.5999999940395,271417.0,7084,WL,A,11.0
2,21.759999990463257,learn,38240.00000953674,Fri Mar 28 2025 13:44:56 GMT-0500 (Central Daylight Time),272766.90000000596,A,finger,O,r,115,1,1349.9000000059605,271417.0,7084,WL,A,11.0
2,22.09500002861023,learn,37904.99997138977,Fri Mar 28 2025 13:44:56 GMT-0500 (Central Daylight Time),273101.0,A,fingerenter,O,enter,321,1,1684.0,271417.0,7084,WL,A,11.0
2,24.176000118255615,learn,35823.999881744385,Fri Mar 28 2025 13:44:56 GMT-0500 (Central Daylight Time),275182.90000000596,A,m,O,m,2078,1,2081.7000000178814,273101.1999999881,7084,WL,A,12.0
2,24.377000093460083,learn,35622.99990653992,Fri Mar 28 2025 13:44:56 GMT-0500 (Central Daylight Time),275382.90000000596,A,me,O,e,195,1,2281.7000000178814,273101.1999999881,7084,WL,A,12.0
2,24.47699999809265,learn,35523.00000190735,Fri Mar 28 2025 13:44:56 GMT-0500 (Central Daylight Time),275483.1999999881,A,mea,O,a,90,1,2382.0,273101.1999999881,7084,WL,A,12.0
2,25.22699999809265,learn,34773.00000190735,Fri Mar 28 2025 13:44:56 GMT-0500 (Central Daylight Time),276233.3000000119,A,mead,O,d,730,1,3132.100000023842,273101.1999999881,7084,WL,A,12.0
2,25.443000078201294,learn,34556.999921798706,Fri Mar 28 2025 13:44:56 GMT-0500 (Central Daylight Time),276449.3000000119,A,meado,O,o,207,1,3348.100000023842,273101.1999999881,7084,WL,A,12.0
2,25.66000008583069,learn,34339.99991416931,Fri Mar 28 2025 13:44:56 GMT-0500 (Central Daylight Time),276666.09999999404,A,meadow,O,w,206,1,3564.9000000059605,273101.1999999881,7084,WL,A,12.0
2,25.859000205993652,learn,34140.99979400635,Fri Mar 28 2025 13:44:56 GMT-0500 (Central Daylight Time),276865.1999999881,A,meadowenter,O,enter,180,1,3764.0,273101.1999999881,7084,WL,A,12.0
2,26.825999975204468,learn,33174.00002479553,Fri Mar 28 2025 13:44:56 GMT-0500 (Central Daylight Time),277832.59999999404,A,h,O,h,950,1,967.0999999940395,276865.5,7084,WL,A,13.0
2,26.92799997329712,learn,33072.00002670288,Fri Mar 28 2025 13:44:56 GMT-0500 (Central Daylight Time),277934.5,A,ha,O,a,96,1,1069.0,276865.5,7084,WL,A,13.0
2,27.125,learn,32875.0,Fri Mar 28 2025 13:44:56 GMT-0500 (Central Daylight Time),278131.5,A,har,O,r,179,1,1266.0,276865.5,7084,WL,A,13.0
2,27.425000190734863,learn,32574.999809265137,Fri Mar 28 2025 13:44:56 GMT-0500 (Central Daylight Time),278431.6999999881,A,harp,O,p,283,1,1566.199999988079,276865.5,7084,WL,A,13.0
2,27.692000150680542,learn,32307.999849319458,Fri Mar 28 2025 13:44:56 GMT-0500 (Central Daylight Time),278698.40000000596,A,harpenter,O,enter,256,1,1832.9000000059605,276865.5,7084,WL,A,13.0
2,31.27400016784668,learn,28725.99983215332,Fri Mar 28 2025 13:44:56 GMT-0500 (Central Daylight Time),282281.0,A,s,O,s,3565,1,3582.300000011921,278698.6999999881,7084,WL,A,14.0
2,31.409000158309937,learn,28590.999841690063,Fri Mar 28 2025 13:44:56 GMT-0500 (Central Daylight Time),282415.6999999881,A,sa,O,a,127,1,3717.0,278698.6999999881,7084,WL,A,14.0
2,31.558000087738037,learn,28441.999912261963,Fri Mar 28 2025 13:44:56 GMT-0500 (Central Daylight Time),282564.8000000119,A,sal,O,l,128,1,3866.100000023842,278698.6999999881,7084,WL,A,14.0
2,31.79200005531311,learn,28207.99994468689,Fri Mar 28 2025 13:44:56 GMT-0500 (Central Daylight Time),282797.90000000596,A,salt,O,t,220,1,4099.200000017881,278698.6999999881,7084,WL,A,14.0
2,32.20800018310547,learn,27791.99981689453,Fri Mar 28 2025 13:44:56 GMT-0500 (Central Daylight Time),283214.3000000119,A,saltenter,O,enter,411,1,4515.600000023842,278698.6999999881,7084,WL,A,14.0
2,35.17400002479553,learn,24825.999975204468,Fri Mar 28 2025 13:44:56 GMT-0500 (Central Daylight Time),286180.8000000119,A,t,O,t,2954,1,2966.300000011921,283214.5,7084,WL,A,15.0
2,35.289000034332275,learn,24710.999965667725,Fri Mar 28 2025 13:44:56 GMT-0500 (Central Daylight Time),286295.90000000596,A,tr,O,r,100,1,3081.4000000059605,283214.5,7084,WL,A,15.0
2,35.42400002479553,learn,24575.999975204468,Fri Mar 28 2025 13:44:56 GMT-0500 (Central Daylight Time),286430.8000000119,A,tra,O,a,118,1,3216.300000011921,283214.5,7084,WL,A,15.0
2,35.57300019264221,learn,24426.999807357788,Fri Mar 28 2025 13:44:56 GMT-0500 (Central Daylight Time),286579.5,A,trai,O,i,137,1,3365.0,283214.5,7084,WL,A,15.0
2,35.6560001373291,learn,24343.9998626709,Fri Mar 28 2025 13:44:56 GMT-0500 (Central Daylight Time),286662.59999999404,A,train,O,n,78,1,3448.0999999940395,283214.5,7084,WL,A,15.0
2,35.98900008201599,learn,24010.99991798401,Fri Mar 28 2025 13:44:56 GMT-0500 (Central Daylight Time),286994.90000000596,A,trainenter,O,enter,319,1,3780.4000000059605,283214.5,7084,WL,A,15.0
3,0.7349998950958252,learn,59265.000104904175,Fri Mar 28 2025 13:44:56 GMT-0500 (Central Daylight Time),354275.6999999881,A,b,O,b,722,1,734.7999999821186,353540.90000000596,7084,WL,A,1.0
3,0.935999870300293,learn,59064.00012969971,Fri Mar 28 2025 13:44:56 GMT-0500 (Central Daylight Time),354476.1999999881,A,bu,O,u,191,1,935.2999999821186,353540.90000000596,7084,WL,A,1.0
3,1.2339999675750732,learn,58766.00003242493,Fri Mar 28 2025 13:44:56 GMT-0500 (Central Daylight Time),354775.09999999404,A,but,O,t,280,1,1234.199999988079,353540.90000000596,7084,WL,A,1.0
3,1.36899995803833,learn,58631.00004196167,Fri Mar 28 2025 13:44:56 GMT-0500 (Central Daylight Time),354909.40000000596,A,butt,O,t,127,1,1368.5,353540.90000000596,7084,WL,A,1.0
3,1.6009998321533203,learn,58399.00016784668,Fri Mar 28 2025 13:44:56 GMT-0500 (Central Daylight Time),355141.90000000596,A,butto,O,o,212,1,1601.0,353540.90000000596,7084,WL,A,1.0
3,1.8179998397827148,learn,58182.000160217285,Fri Mar 28 2025 13:44:56 GMT-0500 (Central Daylight Time),355359.09999999404,A,button,O,n,199,1,1818.199999988079,353540.90000000596,7084,WL,A,1.0
3,2.2159998416900635,learn,57784.00015830994,Fri Mar 28 2025 13:44:56 GMT-0500 (Central Daylight Time),355757.0,A,buttonenter,O,enter,379,1,2216.0999999940395,353540.90000000596,7084,WL,A,1.0
3,2.7189998626708984,learn,57281.0001373291,Fri Mar 28 2025 13:44:56 GMT-0500 (Central Daylight Time),356259.40000000596,A,g,O,g,483,1,502.2000000178814,355757.1999999881,7084,WL,A,2.0
3,2.882999897003174,learn,57117.000102996826,Fri Mar 28 2025 13:44:56 GMT-0500 (Central Daylight Time),356423.5,A,go,O,o,153,1,666.3000000119209,355757.1999999881,7084,WL,A,2.0
3,3.134999990463257,learn,56865.00000953674,Fri Mar 28 2025 13:44:56 GMT-0500 (Central Daylight Time),356675.40000000596,A,gol,O,l,228,1,918.2000000178814,355757.1999999881,7084,WL,A,2.0
3,3.700000047683716,learn,56299.999952316284,Fri Mar 28 2025 13:44:56 GMT-0500 (Central Daylight Time),357241.3000000119,A,gold,O,d,555,1,1484.1000000238419,355757.1999999881,7084,WL,A,2.0
3,4.582000017166138,learn,55417.99998283386,Fri Mar 28 2025 13:44:56 GMT-0500 (Central Daylight Time),358123.1999999881,A,goldenter,O,enter,869,1,2366.0,355757.1999999881,7084,WL,A,2.0
3,5.598999977111816,learn,54401.00002288818,Fri Mar 28 2025 13:44:56 GMT-0500 (Central Daylight Time),359140.40000000596,A,b,O,b,1004,1,1016.9000000059605,358123.5,7084,WL,A,3.0
3,5.934000015258789,learn,54065.99998474121,Fri Mar 28 2025 13:44:56 GMT-0500 (Central Daylight Time),359474.59999999404,A,bo,O,o,314,1,1351.0999999940395,358123.5,7084,WL,A,3.0
3,6.098999977111816,learn,53901.00002288818,Fri Mar 28 2025 13:44:56 GMT-0500 (Central Daylight Time),359640.1999999881,A,boo,O,o,140,1,1516.699999988079,358123.5,7084,WL,A,3.0
3,6.180999994277954,learn,53819.000005722046,Fri Mar 28 2025 13:44:56 GMT-0500 (Central Daylight Time),359721.90000000596,A,book,O,k,61,1,1598.4000000059605,358123.5,7084,WL,A,3.0
3,6.448999881744385,learn,53551.000118255615,Fri Mar 28 2025 13:44:56 GMT-0500 (Central Daylight Time),359990.0,A,bookenter,O,enter,251,1,1866.5,358123.5,7084,WL,A,3.0
3,6.733000040054321,learn,53266.99995994568,Fri Mar 28 2025 13:44:56 GMT-0500 (Central Daylight Time),360273.6999999881,A,f,O,f,266,1,283.5,359990.1999999881,7084,WL,A,4.0
3,6.898999929428101,learn,53101.0000705719,Fri Mar 28 2025 13:44:56 GMT-0500 (Central Daylight Time),360440.1999999881,A,fl,O,l,148,1,450.0,359990.1999999881,7084,WL,A,4.0
3,7.115000009536743,learn,52884.99999046326,Fri Mar 28 2025 13:44:56 GMT-0500 (Central Daylight Time),360655.90000000596,A,flo,O,o,207,1,665.7000000178814,359990.1999999881,7084,WL,A,4.0
3,7.2809998989105225,learn,52719.00010108948,Fri Mar 28 2025 13:44:56 GMT-0500 (Central Daylight Time),360822.3000000119,A,flow,O,w,148,1,832.1000000238419,359990.1999999881,7084,WL,A,4.0
3,7.648000001907349,learn,52351.99999809265,Fri Mar 28 2025 13:44:56 GMT-0500 (Central Daylight Time),361189.59999999404,A,flowe,O,e,354,1,1199.4000000059605,359990.1999999881,7084,WL,A,4.0
3,8.030999898910522,learn,51969.00010108948,Fri Mar 28 2025 13:44:56 GMT-0500 (Central Daylight Time),361572.09999999404,A,flower,O,r,364,1,1581.9000000059605,359990.1999999881,7084,WL,A,4.0
3,8.447999954223633,learn,51552.00004577637,Fri Mar 28 2025 13:44:56 GMT-0500 (Central Daylight Time),361989.0,A,flowerenter,O,enter,389,1,1998.800000011921,359990.1999999881,7084,WL,A,4.0
3,8.865000009536743,learn,51134.99999046326,Fri Mar 28 2025 13:44:56 GMT-0500 (Central Daylight Time),362405.90000000596,A,r,O,r,403,1,416.7000000178814,361989.1999999881,7084,WL,A,5.0
3,9.180999994277954,learn,50819.000005722046,Fri Mar 28 2025 13:44:56 GMT-0500 (Central Daylight Time),362722.1999999881,A,ru,O,u,295,1,733.0,361989.1999999881,7084,WL,A,5.0
3,9.365999937057495,learn,50634.000062942505,Fri Mar 28 2025 13:44:56 GMT-0500 (Central Daylight Time),362906.59999999404,A,rug,O,g,171,1,917.4000000059605,361989.1999999881,7084,WL,A,5.0
3,9.764999866485596,learn,50235.000133514404,Fri Mar 28 2025 13:44:56 GMT-0500 (Central Daylight Time),363305.6999999881,A,rugenter,O,enter,382,1,1316.5,361989.1999999881,7084,WL,A,5.0
3,10.098000049591064,learn,49901.999950408936,Fri Mar 28 2025 13:44:56 GMT-0500 (Central Daylight Time),363639.09999999404,A,t,O,t,326,1,333.19999998807907,363305.90000000596,7084,WL,A,6.0
3,10.233000040054321,learn,49766.99995994568,Fri Mar 28 2025 13:44:56 GMT-0500 (Central Daylight Time),363774.1999999881,A,tr,O,r,125,1,468.2999999821186,363305.90000000596,7084,WL,A,6.0
3,10.38100004196167,learn,49618.99995803833,Fri Mar 28 2025 13:44:56 GMT-0500 (Central Daylight Time),363921.6999999881,A,tra,O,a,137,1,615.7999999821186,363305.90000000596,7084,WL,A,6.0
3,10.56499981880188,learn,49435.00018119812,Fri Mar 28 2025 13:44:56 GMT-0500 (Central Daylight Time),364105.5,A,trai,O,i,175,1,799.5999999940395,363305.90000000596,7084,WL,A,6.0
3,10.680999994277954,learn,49319.000005722046,Fri Mar 28 2025 13:44:56 GMT-0500 (Central Daylight Time),364221.8000000119,A,train,O,n,109,1,915.9000000059605,363305.90000000596,7084,WL,A,6.0
3,11.096999883651733,learn,48903.00011634827,Fri Mar 28 2025 13:44:56 GMT-0500 (Central Daylight Time),364637.90000000596,A,trainenter,O,enter,400,1,1332.0,363305.90000000596,7084,WL,A,6.0
3,11.396999835968018,learn,48603.00016403198,Fri Mar 28 2025 13:44:56 GMT-0500 (Central Daylight Time),364938.0,A,h,O,h,290,1,299.80000001192093,364638.1999999881,7084,WL,A,7.0
3,11.530999898910522,learn,48469.00010108948,Fri Mar 28 2025 13:44:56 GMT-0500 (Central Daylight Time),365071.59999999404,A,ha,O,a,128,1,433.40000000596046,364638.1999999881,7084,WL,A,7.0
3,12.096999883651733,learn,47903.00011634827,Fri Mar 28 2025 13:44:56 GMT-0500 (Central Daylight Time),365638.3000000119,A,har,O,r,552,1,1000.1000000238419,364638.1999999881,7084,WL,A,7.0
3,12.648000001907349,learn,47351.99999809265,Fri Mar 28 2025 13:44:56 GMT-0500 (Central Daylight Time),366189.40000000596,A,harp,O,p,530,1,1551.2000000178814,364638.1999999881,7084,WL,A,7.0
3,13.29699993133545,learn,46703.00006866455,Fri Mar 28 2025 13:44:56 GMT-0500 (Central Daylight Time),366838.09999999404,A,harpenter,O,enter,643,1,2199.9000000059605,364638.1999999881,7084,WL,A,7.0
3,13.69700002670288,learn,46302.99997329712,Fri Mar 28 2025 13:44:56 GMT-0500 (Central Daylight Time),367237.90000000596,A,c,O,c,386,1,399.5,366838.40000000596,7084,WL,A,8.0
3,14.129999876022339,learn,45870.00012397766,Fri Mar 28 2025 13:44:56 GMT-0500 (Central Daylight Time),367671.40000000596,A,ch,O,h,425,1,833.0,366838.40000000596,7084,WL,A,8.0
3,14.228999853134155,learn,45771.000146865845,Fri Mar 28 2025 13:44:56 GMT-0500 (Central Daylight Time),367769.6999999881,A,chi,O,i,85,1,931.2999999821186,366838.40000000596,7084,WL,A,8.0
3,14.480000019073486,learn,45519.999980926514,Fri Mar 28 2025 13:44:56 GMT-0500 (Central Daylight Time),368021.0,A,chim,O,m,229,1,1182.5999999940395,366838.40000000596,7084,WL,A,8.0
3,14.69700002670288,learn,45302.99997329712,Fri Mar 28 2025 13:44:56 GMT-0500 (Central Daylight Time),368238.09999999404,A,chimn,O,n,201,1,1399.699999988079,366838.40000000596,7084,WL,A,8.0
3,15.461999893188477,learn,44538.00010681152,Fri Mar 28 2025 13:44:56 GMT-0500 (Central Daylight Time),369003.0,A,chimne,O,e,753,1,2164.5999999940395,366838.40000000596,7084,WL,A,8.0
3,15.679999828338623,learn,44320.00017166138,Fri Mar 28 2025 13:44:56 GMT-0500 (Central Daylight Time),369220.90000000596,A,chimney,O,y,198,1,2382.5,366838.40000000596,7084,WL,A,8.0
3,16.478999853134155,learn,43521.000146865845,Fri Mar 28 2025 13:44:56 GMT-0500 (Central Daylight Time),370019.40000000596,A,chimneyenter,O,enter,778,1,3181.0,366838.40000000596,7084,WL,A,8.0
3,17.12999987602234,learn,42870.00012397766,Fri Mar 28 2025 13:44:56 GMT-0500 (Central Daylight Time),370671.40000000596,A,s,O,s,646,1,651.7000000178814,370019.6999999881,7084,WL,A,9.0
3,17.312000036239624,learn,42687.999963760376,Fri Mar 28 2025 13:44:56 GMT-0500 (Central Daylight Time),370853.1999999881,A,sa,O,a,167,1,833.5,370019.6999999881,7084,WL,A,9.0
3,17.494999885559082,learn,42505.00011444092,Fri Mar 28 2025 13:44:56 GMT-0500 (Central Daylight Time),371036.3000000119,A,sal,O,l,170,1,1016.6000000238419,370019.6999999881,7084,WL,A,9.0
3,17.777999877929688,learn,42222.00012207031,Fri Mar 28 2025 13:44:56 GMT-0500 (Central Daylight Time),371319.40000000596,A,salt,O,t,276,1,1299.7000000178814,370019.6999999881,7084,WL,A,9.0
3,18.044999837875366,learn,41955.000162124634,Fri Mar 28 2025 13:44:56 GMT-0500 (Central Daylight Time),371586.3000000119,A,saltenter,O,enter,245,1,1566.6000000238419,370019.6999999881,7084,WL,A,9.0
3,18.69700002670288,learn,41302.99997329712,Fri Mar 28 2025 13:44:56 GMT-0500 (Central Daylight Time),372237.90000000596,A,r,O,r,630,1,651.4000000059605,371586.5,7084,WL,A,10.0
3,18.894999980926514,learn,41105.000019073486,Fri Mar 28 2025 13:44:56 GMT-0500 (Central Daylight Time),372436.1999999881,A,ra,O,a,184,1,849.6999999880791,371586.5,7084,WL,A,10.0
3,19.09500002861023,learn,40904.99997138977,Fri Mar 28 2025 13:44:56 GMT-0500 (Central Daylight Time),372636.3000000119,A,rat,O,t,180,1,1049.800000011921,371586.5,7084,WL,A,10.0
3,19.24399995803833,learn,40756.00004196167,Fri Mar 28 2025 13:44:56 GMT-0500 (Central Daylight Time),372785.5,A,ratt,O,t,138,1,1199.0,371586.5,7084,WL,A,10.0
3,19.77900004386902,learn,40220.99995613098,Fri Mar 28 2025 13:44:56 GMT-0500 (Central Daylight Time),373320.0,A,rattl,O,l,529,1,1733.5,371586.5,7084,WL,A,10.0
3,20.378999948501587,learn,39621.00005149841,Fri Mar 28 2025 13:44:56 GMT-0500 (Central Daylight Time),373919.5,A,rattle,O,e,585,1,2333.0,371586.5,7084,WL,A,10.0
3,20.677000045776367,learn,39322.99995422363,Fri Mar 28 2025 13:44:56 GMT-0500 (Central Daylight Time),374217.90000000596,A,rattleenter,O,enter,279,1,2631.4000000059605,371586.5,7084,WL,A,10.0
3,28.307999849319458,learn,31692.000150680542,Fri Mar 28 2025 13:44:56 GMT-0500 (Central Daylight Time),381849.3000000119,A,k,O,k,7614,1,7631.200000017881,374218.09999999404,7084,WL,A,11.0
3,28.658999919891357,learn,31341.000080108643,Fri Mar 28 2025 13:44:56 GMT-0500 (Central Daylight Time),382199.59999999404,A,ke,O,e,335,1,7981.5,374218.09999999404,7084,WL,A,11.0
3,28.85800004005432,learn,31141.99995994568,Fri Mar 28 2025 13:44:56 GMT-0500 (Central Daylight Time),382398.90000000596,A,key,O,y,183,1,8180.800000011921,374218.09999999404,7084,WL,A,11.0
3,29.20899987220764,learn,30791.00012779236,Fri Mar 28 2025 13:44:56 GMT-0500 (Central Daylight Time),382750.1999999881,A,keyenter,O,enter,345,1,8532.09999999404,374218.09999999404,7084,WL,A,11.0
3,29.592000007629395,learn,30407.999992370605,Fri Mar 28 2025 13:44:56 GMT-0500 (Central Daylight Time),383133.3000000119,A,l,O,l,361,1,382.80000001192093,382750.5,7084,WL,A,12.0
3,29.94099998474121,learn,30059.00001525879,Fri Mar 28 2025 13:44:56 GMT-0500 (Central Daylight Time),383481.5,A,lo,O,o,328,1,731.0,382750.5,7084,WL,A,12.0
3,30.358999967575073,learn,29641.000032424927,Fri Mar 28 2025 13:44:56 GMT-0500 (Central Daylight Time),383899.59999999404,A,log,O,g,397,1,1149.0999999940395,382750.5,7084,WL,A,12.0
3,30.907999992370605,learn,29092.000007629395,Fri Mar 28 2025 13:44:56 GMT-0500 (Central Daylight Time),384449.3000000119,A,logenter,O,enter,530,1,1698.800000011921,382750.5,7084,WL,A,12.0
3,34.09099984169006,learn,25909.000158309937,Fri Mar 28 2025 13:44:56 GMT-0500 (Central Daylight Time),387631.90000000596,A,h,O,h,3177,1,3182.300000011921,384449.59999999404,7084,WL,A,13.0
3,34.306999921798706,learn,25693.000078201294,Fri Mar 28 2025 13:44:56 GMT-0500 (Central Daylight Time),387847.8000000119,A,ha,O,a,207,1,3398.2000000178814,384449.59999999404,7084,WL,A,13.0
3,34.47499990463257,learn,25525.00009536743,Fri Mar 28 2025 13:44:56 GMT-0500 (Central Daylight Time),388015.5,A,har,O,r,159,1,3565.9000000059605,384449.59999999404,7084,WL,A,13.0
3,34.72199988365173,learn,25278.000116348267,Fri Mar 28 2025 13:44:56 GMT-0500 (Central Daylight Time),388263.40000000596,A,harp,O,p,232,1,3813.800000011921,384449.59999999404,7084,WL,A,13.0
3,35.056999921798706,learn,24943.000078201294,Fri Mar 28 2025 13:44:56 GMT-0500 (Central Daylight Time),388597.6999999881,A,harpenter,O,enter,319,1,4148.0999999940395,384449.59999999404,7084,WL,A,13.0
3,35.805999994277954,learn,24194.000005722046,Fri Mar 28 2025 13:44:56 GMT-0500 (Central Daylight Time),389346.90000000596,A,m,O,m,738,1,748.9000000059605,388598.0,7084,WL,A,14.0
3,35.93899989128113,learn,24061.000108718872,Fri Mar 28 2025 13:44:56 GMT-0500 (Central Daylight Time),389479.6999999881,A,me,O,e,125,1,881.6999999880791,388598.0,7084,WL,A,14.0
3,36.08899998664856,learn,23911.00001335144,Fri Mar 28 2025 13:44:56 GMT-0500 (Central Daylight Time),389629.5,A,mea,O,a,142,1,1031.5,388598.0,7084,WL,A,14.0
3,36.32099986076355,learn,23679.00013923645,Fri Mar 28 2025 13:44:56 GMT-0500 (Central Daylight Time),389862.09999999404,A,mead,O,d,220,1,1264.0999999940395,388598.0,7084,WL,A,14.0
3,36.53999996185303,learn,23460.000038146973,Fri Mar 28 2025 13:44:56 GMT-0500 (Central Daylight Time),390081.0,A,meado,O,o,215,1,1483.0,388598.0,7084,WL,A,14.0
3,36.78999996185303,learn,23210.000038146973,Fri Mar 28 2025 13:44:56 GMT-0500 (Central Daylight Time),390331.40000000596,A,meadow,O,w,238,1,1733.4000000059605,388598.0,7084,WL,A,14.0
3,37.17199993133545,learn,22828.00006866455,Fri Mar 28 2025 13:44:56 GMT-0500 (Central Daylight Time),390712.8000000119,A,meadowenter,O,enter,371,1,2114.800000011921,388598.0,7084,WL,A,14.0
3,42.05499982833862,learn,17945.000171661377,Fri Mar 28 2025 13:44:56 GMT-0500 (Central Daylight Time),395596.09999999404,A,f,O,f,4863,1,4883.0,390713.09999999404,7084,WL,A,15.0
3,42.25600004196167,learn,17743.99995803833,Fri Mar 28 2025 13:44:56 GMT-0500 (Central Daylight Time),395796.40000000596,A,fl,O,l,188,1,5083.300000011921,390713.09999999404,7084,WL,A,15.0
3,42.4539999961853,learn,17546.000003814697,Fri Mar 28 2025 13:44:56 GMT-0500 (Central Daylight Time),395994.5,A,flo,O,o,178,1,5281.4000000059605,390713.09999999404,7084,WL,A,15.0
3,42.6029999256134,learn,17397.000074386597,Fri Mar 28 2025 13:44:56 GMT-0500 (Central Daylight Time),396144.09999999404,A,flow,O,w,140,1,5431.0,390713.09999999404,7084,WL,A,15.0
3,42.82099986076355,learn,17179.00013923645,Fri Mar 28 2025 13:44:56 GMT-0500 (Central Daylight Time),396361.5,A,flowe,O,e,200,1,5648.4000000059605,390713.09999999404,7084,WL,A,15.0
3,42.937000036239624,learn,17062.999963760376,Fri Mar 28 2025 13:44:56 GMT-0500 (Central Daylight Time),396478.09999999404,A,flower,O,r,102,1,5765.0,390713.09999999404,7084,WL,A,15.0
3,43.19199991226196,learn,16808.000087738037,Fri Mar 28 2025 13:44:56 GMT-0500 (Central Daylight Time),396732.5,A,flowerenter,O,enter,239,1,6019.4000000059605,390713.09999999404,7084,WL,A,15.0
4,0.9830000400543213,learn,59016.99995994568,Fri Mar 28 2025 13:44:56 GMT-0500 (Central Daylight Time),462291.1999999881,A,k,O,k,970,1,982.8999999761581,461308.3000000119,7084,WL,A,1.0
4,1.3999998569488525,learn,58600.00014305115,Fri Mar 28 2025 13:44:56 GMT-0500 (Central Daylight Time),462708.1999999881,A,ke,O,e,403,1,1399.8999999761581,461308.3000000119,7084,WL,A,1.0
4,1.565999984741211,learn,58434.00001525879,Fri Mar 28 2025 13:44:56 GMT-0500 (Central Daylight Time),462874.09999999404,A,key,O,y,155,1,1565.7999999821186,461308.3000000119,7084,WL,A,1.0
4,1.8659999370574951,learn,58134.000062942505,Fri Mar 28 2025 13:44:56 GMT-0500 (Central Daylight Time),463173.8000000119,A,keyenter,O,enter,291,1,1865.5,461308.3000000119,7084,WL,A,1.0
4,2.134000062942505,learn,57865.999937057495,Fri Mar 28 2025 13:44:56 GMT-0500 (Central Daylight Time),463442.59999999404,A,r,O,r,250,1,268.40000000596046,463174.1999999881,7084,WL,A,2.0
4,2.3489999771118164,learn,57651.00002288818,Fri Mar 28 2025 13:44:56 GMT-0500 (Central Daylight Time),463657.5,A,ra,O,a,203,1,483.30000001192093,463174.1999999881,7084,WL,A,2.0
4,2.5149998664855957,learn,57485.000133514404,Fri Mar 28 2025 13:44:56 GMT-0500 (Central Daylight Time),463822.90000000596,A,rat,O,t,159,1,648.7000000178814,463174.1999999881,7084,WL,A,2.0
4,2.697999954223633,learn,57302.00004577637,Fri Mar 28 2025 13:44:56 GMT-0500 (Central Daylight Time),464006.6999999881,A,ratt,O,t,174,1,832.5,463174.1999999881,7084,WL,A,2.0
4,3.365000009536743,learn,56634.99999046326,Fri Mar 28 2025 13:44:56 GMT-0500 (Central Daylight Time),464673.59999999404,A,rattl,O,l,658,1,1499.4000000059605,463174.1999999881,7084,WL,A,2.0
4,3.616999864578247,learn,56383.00013542175,Fri Mar 28 2025 13:44:56 GMT-0500 (Central Daylight Time),464924.90000000596,A,rattle,O,e,231,1,1750.7000000178814,463174.1999999881,7084,WL,A,2.0
4,3.865000009536743,learn,56134.99999046326,Fri Mar 28 2025 13:44:56 GMT-0500 (Central Daylight Time),465173.6999999881,A,rattleenter,O,enter,225,1,1999.5,463174.1999999881,7084,WL,A,2.0
4,4.5309998989105225,learn,55469.00010108948,Fri Mar 28 2025 13:44:56 GMT-0500 (Central Daylight Time),465839.59999999404,A,g,O,g,658,1,665.6999999880791,465173.90000000596,7084,WL,A,3.0
4,4.716000080108643,learn,55283.99991989136,Fri Mar 28 2025 13:44:56 GMT-0500 (Central Daylight Time),466023.6999999881,A,go,O,o,166,1,849.7999999821186,465173.90000000596,7084,WL,A,3.0
4,5.164000034332275,learn,54835.999965667725,Fri Mar 28 2025 13:44:56 GMT-0500 (Central Daylight Time),466472.59999999404,A,gol,O,l,427,1,1298.699999988079,465173.90000000596,7084,WL,A,3.0
4,5.398000001907349,learn,54601.99999809265,Fri Mar 28 2025 13:44:56 GMT-0500 (Central Daylight Time),466706.59999999404,A,gold,O,d,223,1,1532.699999988079,465173.90000000596,7084,WL,A,3.0
4,5.746999979019165,learn,54253.000020980835,Fri Mar 28 2025 13:44:56 GMT-0500 (Central Daylight Time),467055.59999999404,A,goldenter,O,enter,329,1,1881.699999988079,465173.90000000596,7084,WL,A,3.0
4,6.263999938964844,learn,53736.000061035156,Fri Mar 28 2025 13:44:56 GMT-0500 (Central Daylight Time),467572.5,A,b,O,b,503,1,516.5999999940395,467055.90000000596,7084,WL,A,4.0
4,6.680000066757202,learn,53319.9999332428,Fri Mar 28 2025 13:44:56 GMT-0500 (Central Daylight Time),467988.5,A,bo,O,o,404,1,932.5999999940395,467055.90000000596,7084,WL,A,4.0
4,6.980999946594238,learn,53019.00005340576,Fri Mar 28 2025 13:44:56 GMT-0500 (Central Daylight Time),468289.09999999404,A,boo,O,o,283,1,1233.199999988079,467055.90000000596,7084,WL,A,4.0
4,7.197999954223633,learn,52802.00004577637,Fri Mar 28 2025 13:44:56 GMT-0500 (Central Daylight Time),468506.09999999404,A,book,O,k,199,1,1450.199999988079,467055.90000000596,7084,WL,A,4.0
4,7.513999938964844,learn,52486.000061035156,Fri Mar 28 2025 13:44:56 GMT-0500 (Central Daylight Time),468822.5,A,bookenter,O,enter,300,1,1766.5999999940395,467055.90000000596,7084,WL,A,4.0
4,8.02999997138977,learn,51970.00002861023,Fri Mar 28 2025 13:44:56 GMT-0500 (Central Daylight Time),469338.09999999404,A,f,O,f,497,1,515.2999999821186,468822.8000000119,7084,WL,A,5.0
4,8.180999994277954,learn,51819.000005722046,Fri Mar 28 2025 13:44:56 GMT-0500 (Central Daylight Time),469489.1999999881,A,fl,O,l,144,1,666.3999999761581,468822.8000000119,7084,WL,A,5.0
4,8.414999961853027,learn,51585.00003814697,Fri Mar 28 2025 13:44:56 GMT-0500 (Central Daylight Time),469723.40000000596,A,flo,O,o,222,1,900.5999999940395,468822.8000000119,7084,WL,A,5.0
4,8.631999969482422,learn,51368.00003051758,Fri Mar 28 2025 13:44:56 GMT-0500 (Central Daylight Time),469940.0,A,flow,O,w,193,1,1117.199999988079,468822.8000000119,7084,WL,A,5.0
4,8.897000074386597,learn,51102.9999256134,Fri Mar 28 2025 13:44:56 GMT-0500 (Central Daylight Time),470205.09999999404,A,flowe,O,e,251,1,1382.2999999821186,468822.8000000119,7084,WL,A,5.0
4,9.230999946594238,learn,50769.00005340576,Fri Mar 28 2025 13:44:56 GMT-0500 (Central Daylight Time),470538.6999999881,A,flower,O,r,312,1,1715.8999999761581,468822.8000000119,7084,WL,A,5.0
4,9.546000003814697,learn,50453.9999961853,Fri Mar 28 2025 13:44:56 GMT-0500 (Central Daylight Time),470854.5,A,flowerenter,O,enter,300,1,2031.699999988079,468822.8000000119,7084,WL,A,5.0
4,9.963000059127808,learn,50036.99994087219,Fri Mar 28 2025 13:44:56 GMT-0500 (Central Daylight Time),471271.0,A,t,O,t,409,1,416.19999998807907,470854.8000000119,7084,WL,A,6.0
4,10.128999948501587,learn,49871.00005149841,Fri Mar 28 2025 13:44:56 GMT-0500 (Central Daylight Time),471437.5,A,tr,O,r,151,1,582.6999999880791,470854.8000000119,7084,WL,A,6.0
4,10.296000003814697,learn,49703.9999961853,Fri Mar 28 2025 13:44:56 GMT-0500 (Central Daylight Time),471603.8000000119,A,tra,O,a,152,1,749.0,470854.8000000119,7084,WL,A,6.0
4,10.444999933242798,learn,49555.0000667572,Fri Mar 28 2025 13:44:56 GMT-0500 (Central Daylight Time),471753.6999999881,A,trai,O,i,130,1,898.8999999761581,470854.8000000119,7084,WL,A,6.0
4,10.69599986076355,learn,49304.00013923645,Fri Mar 28 2025 13:44:56 GMT-0500 (Central Daylight Time),472004.09999999404,A,train,O,n,224,1,1149.2999999821186,470854.8000000119,7084,WL,A,6.0
4,11.095999956130981,learn,48904.00004386902,Fri Mar 28 2025 13:44:56 GMT-0500 (Central Daylight Time),472404.0,A,trainenter,O,enter,386,1,1549.199999988079,470854.8000000119,7084,WL,A,6.0
4,11.54699993133545,learn,48453.00006866455,Fri Mar 28 2025 13:44:56 GMT-0500 (Central Daylight Time),472855.1999999881,A,r,O,r,431,1,450.89999997615814,472404.3000000119,7084,WL,A,7.0
4,11.763000011444092,learn,48236.99998855591,Fri Mar 28 2025 13:44:56 GMT-0500 (Central Daylight Time),473071.5,A,ru,O,u,192,1,667.1999999880791,472404.3000000119,7084,WL,A,7.0
4,11.996000051498413,learn,48003.99994850159,Fri Mar 28 2025 13:44:56 GMT-0500 (Central Daylight Time),473304.59999999404,A,rug,O,g,214,1,900.2999999821186,472404.3000000119,7084,WL,A,7.0
4,12.812999963760376,learn,47187.000036239624,Fri Mar 28 2025 13:44:56 GMT-0500 (Central Daylight Time),474121.1999999881,A,rugenter,O,enter,807,1,1716.8999999761581,472404.3000000119,7084,WL,A,7.0
4,13.19599986076355,learn,46804.00013923645,Fri Mar 28 2025 13:44:56 GMT-0500 (Central Daylight Time),474504.09999999404,A,m,O,m,367,1,382.7999999821186,474121.3000000119,7084,WL,A,8.0
4,13.378999948501587,learn,46621.00005149841,Fri Mar 28 2025 13:44:56 GMT-0500 (Central Daylight Time),474687.59999999404,A,me,O,e,167,1,566.2999999821186,474121.3000000119,7084,WL,A,8.0
4,13.496000051498413,learn,46503.99994850159,Fri Mar 28 2025 13:44:56 GMT-0500 (Central Daylight Time),474804.0,A,mea,O,a,93,1,682.6999999880791,474121.3000000119,7084,WL,A,8.0
4,13.763000011444092,learn,46236.99998855591,Fri Mar 28 2025 13:44:56 GMT-0500 (Central Daylight Time),475070.6999999881,A,mead,O,d,249,1,949.3999999761581,474121.3000000119,7084,WL,A,8.0
4,13.99399995803833,learn,46006.00004196167,Fri Mar 28 2025 13:44:56 GMT-0500 (Central Daylight Time),475302.40000000596,A,meado,O,o,226,1,1181.0999999940395,474121.3000000119,7084,WL,A,8.0
4,14.312000036239624,learn,45687.999963760376,Fri Mar 28 2025 13:44:56 GMT-0500 (Central Daylight Time),475620.09999999404,A,meadow,O,w,297,1,1498.7999999821186,474121.3000000119,7084,WL,A,8.0
4,14.527999877929688,learn,45472.00012207031,Fri Mar 28 2025 13:44:56 GMT-0500 (Central Daylight Time),475836.0,A,meadowenter,O,enter,194,1,1714.699999988079,474121.3000000119,7084,WL,A,8.0
4,14.845999956130981,learn,45154.00004386902,Fri Mar 28 2025 13:44:56 GMT-0500 (Central Daylight Time),476154.0,A,h,O,h,300,1,317.69999998807907,475836.3000000119,7084,WL,A,9.0
4,14.996000051498413,learn,45003.99994850159,Fri Mar 28 2025 13:44:56 GMT-0500 (Central Daylight Time),476303.90000000596,A,ha,O,a,132,1,467.59999999403954,475836.3000000119,7084,WL,A,9.0
4,15.244999885559082,learn,44755.00011444092,Fri Mar 28 2025 13:44:56 GMT-0500 (Central Daylight Time),476553.09999999404,A,har,O,r,239,1,716.7999999821186,475836.3000000119,7084,WL,A,9.0
4,15.477999925613403,learn,44522.0000743866,Fri Mar 28 2025 13:44:56 GMT-0500 (Central Daylight Time),476786.0,A,harp,O,p,215,1,949.6999999880791,475836.3000000119,7084,WL,A,9.0
4,15.76200008392334,learn,44237.99991607666,Fri Mar 28 2025 13:44:56 GMT-0500 (Central Daylight Time),477069.6999999881,A,harpenter,O,enter,260,1,1233.3999999761581,475836.3000000119,7084,WL,A,9.0
4,15.979000091552734,learn,44020.999908447266,Fri Mar 28 2025 13:44:56 GMT-0500 (Central Daylight Time),477287.90000000596,A,s,O,s,202,1,218.0,477069.90000000596,7084,WL,A,10.0
4,16.11299991607666,learn,43887.00008392334,Fri Mar 28 2025 13:44:56 GMT-0500 (Central Daylight Time),477421.59999999404,A,sa,O,a,120,1,351.69999998807907,477069.90000000596,7084,WL,A,10.0
4,16.312000036239624,learn,43687.999963760376,Fri Mar 28 2025 13:44:56 GMT-0500 (Central Daylight Time),477619.90000000596,A,sal,O,l,178,1,550.0,477069.90000000596,7084,WL,A,10.0
4,16.729000091552734,learn,43270.999908447266,Fri Mar 28 2025 13:44:56 GMT-0500 (Central Daylight Time),478037.6999999881,A,salt,O,t,404,1,967.7999999821186,477069.90000000596,7084,WL,A,10.0
4,17.109999895095825,learn,42890.000104904175,Fri Mar 28 2025 13:44:56 GMT-0500 (Central Daylight Time),478418.1999999881,A,saltenter,O,enter,365,1,1348.2999999821186,477069.90000000596,7084,WL,A,10.0
4,17.361000061035156,learn,42638.999938964844,Fri Mar 28 2025 13:44:56 GMT-0500 (Central Daylight Time),478669.6999999881,A,f,O,f,246,1,251.19999998807907,478418.5,7084,WL,A,11.0
4,17.545000076293945,learn,42454.999923706055,Fri Mar 28 2025 13:44:56 GMT-0500 (Central Daylight Time),478853.0,A,fi,O,i,159,1,434.5,478418.5,7084,WL,A,11.0
4,17.694000005722046,learn,42305.999994277954,Fri Mar 28 2025 13:44:56 GMT-0500 (Central Daylight Time),479002.5,A,fin,O,n,129,1,584.0,478418.5,7084,WL,A,11.0
4,17.943000078201294,learn,42056.999921798706,Fri Mar 28 2025 13:44:56 GMT-0500 (Central Daylight Time),479251.1999999881,A,fing,O,g,236,1,832.6999999880791,478418.5,7084,WL,A,11.0
4,18.194000005722046,learn,41805.999994277954,Fri Mar 28 2025 13:44:56 GMT-0500 (Central Daylight Time),479502.1999999881,A,finge,O,e,243,1,1083.699999988079,478418.5,7084,WL,A,11.0
4,18.358999967575073,learn,41641.00003242493,Fri Mar 28 2025 13:44:56 GMT-0500 (Central Daylight Time),479667.8000000119,A,finger,O,r,151,1,1249.300000011921,478418.5,7084,WL,A,11.0
4,18.658999919891357,learn,41341.00008010864,Fri Mar 28 2025 13:44:56 GMT-0500 (Central Daylight Time),479967.59999999404,A,fingerenter,O,enter,281,1,1549.0999999940395,478418.5,7084,WL,A,11.0
4,19.694999933242798,learn,40305.0000667572,Fri Mar 28 2025 13:44:56 GMT-0500 (Central Daylight Time),481003.40000000596,A,b,O,b,1015,1,1035.5999999940395,479967.8000000119,7084,WL,A,12.0
4,19.91000008583069,learn,40089.99991416931,Fri Mar 28 2025 13:44:56 GMT-0500 (Central Daylight Time),481218.3000000119,A,bu,O,u,192,1,1250.5,479967.8000000119,7084,WL,A,12.0
4,20.16000008583069,learn,39839.99991416931,Fri Mar 28 2025 13:44:56 GMT-0500 (Central Daylight Time),481468.3000000119,A,but,O,t,236,1,1500.5,479967.8000000119,7084,WL,A,12.0
4,20.292999982833862,learn,39707.00001716614,Fri Mar 28 2025 13:44:56 GMT-0500 (Central Daylight Time),481601.5,A,butt,O,t,120,1,1633.699999988079,479967.8000000119,7084,WL,A,12.0
4,20.993000030517578,learn,39006.99996948242,Fri Mar 28 2025 13:44:56 GMT-0500 (Central Daylight Time),482301.59999999404,A,butto,O,o,676,1,2333.7999999821186,479967.8000000119,7084,WL,A,12.0
4,21.177000045776367,learn,38822.99995422363,Fri Mar 28 2025 13:44:56 GMT-0500 (Central Daylight Time),482485.09999999404,A,button,O,n,160,1,2517.2999999821186,479967.8000000119,7084,WL,A,12.0
4,21.608999967575073,learn,38391.00003242493,Fri Mar 28 2025 13:44:56 GMT-0500 (Central Daylight Time),482917.6999999881,A,buttonenter,O,enter,418,1,2949.899999976158,479967.8000000119,7084,WL,A,12.0
4,21.907999992370605,learn,38092.000007629395,Fri Mar 28 2025 13:44:56 GMT-0500 (Central Daylight Time),483216.59999999404,A,r,O,r,290,1,298.69999998807907,482917.90000000596,7084,WL,A,13.0
4,22.058000087738037,learn,37941.99991226196,Fri Mar 28 2025 13:44:56 GMT-0500 (Central Daylight Time),483366.90000000596,A,ra,O,a,142,1,449.0,482917.90000000596,7084,WL,A,13.0
4,22.274999856948853,learn,37725.00014305115,Fri Mar 28 2025 13:44:56 GMT-0500 (Central Daylight Time),483583.40000000596,A,rat,O,t,208,1,665.5,482917.90000000596,7084,WL,A,13.0
4,22.424999952316284,learn,37575.000047683716,Fri Mar 28 2025 13:44:56 GMT-0500 (Central Daylight Time),483733.8000000119,A,ratt,O,t,143,1,815.9000000059605,482917.90000000596,7084,WL,A,13.0
4,23.125999927520752,learn,36874.00007247925,Fri Mar 28 2025 13:44:56 GMT-0500 (Central Daylight Time),484434.0,A,rattl,O,l,690,1,1516.0999999940395,482917.90000000596,7084,WL,A,13.0
4,23.407999992370605,learn,36592.000007629395,Fri Mar 28 2025 13:44:56 GMT-0500 (Central Daylight Time),484716.90000000596,A,rattle,O,e,270,1,1799.0,482917.90000000596,7084,WL,A,13.0
4,23.674999952316284,learn,36325.000047683716,Fri Mar 28 2025 13:44:56 GMT-0500 (Central Daylight Time),484983.6999999881,A,rattleenter,O,enter,259,1,2065.7999999821186,482917.90000000596,7084,WL,A,13.0
4,24.60699987411499,learn,35393.00012588501,Fri Mar 28 2025 13:44:56 GMT-0500 (Central Daylight Time),485915.90000000596,A,l,O,l,921,1,932.0,484983.90000000596,7084,WL,A,14.0
4,24.85800004005432,learn,35141.99995994568,Fri Mar 28 2025 13:44:56 GMT-0500 (Central Daylight Time),486166.59999999404,A,lo,O,o,246,1,1182.699999988079,484983.90000000596,7084,WL,A,14.0
4,25.473000049591064,learn,34526.999950408936,Fri Mar 28 2025 13:44:56 GMT-0500 (Central Daylight Time),486781.8000000119,A,log,O,g,602,1,1797.9000000059605,484983.90000000596,7084,WL,A,14.0
4,27.4229998588562,learn,32577.0001411438,Fri Mar 28 2025 13:44:56 GMT-0500 (Central Daylight Time),488731.3000000119,A,logenter,O,enter,1937,1,3747.4000000059605,484983.90000000596,7084,WL,A,14.0
4,28.124000072479248,learn,31875.999927520752,Fri Mar 28 2025 13:44:56 GMT-0500 (Central Daylight Time),489432.40000000596,A,k,O,k,685,1,700.8000000119209,488731.59999999404,7084,WL,A,15.0
4,28.405999898910522,learn,31594.000101089478,Fri Mar 28 2025 13:44:56 GMT-0500 (Central Daylight Time),489714.5,A,ke,O,e,272,1,982.9000000059605,488731.59999999404,7084,WL,A,15.0
4,28.60599994659424,learn,31394.00005340576,Fri Mar 28 2025 13:44:56 GMT-0500 (Central Daylight Time),489914.90000000596,A,key,O,y,181,1,1183.300000011921,488731.59999999404,7084,WL,A,15.0
4,28.938999891281128,learn,31061.000108718872,Fri Mar 28 2025 13:44:56 GMT-0500 (Central Daylight Time),490247.6999999881,A,keyenter,O,enter,325,1,1516.0999999940395,488731.59999999404,7084,WL,A,15.0
5,0.9660000801086426,learn,60000.0,Fri Mar 28 2025 13:44:56 GMT-0500 (Central Daylight Time),556960.099999994,A,k,O,k,947,1,965.6999999880791,555994.400000006,7084,WL,A,1.0
5,1.315999984741211,learn,60000.0,Fri Mar 28 2025 13:44:56 GMT-0500 (Central Daylight Time),557309.6999999881,A,ke,O,e,342,1,1315.2999999821186,555994.400000006,7084,WL,A,1.0
5,1.566999912261963,learn,60000.0,Fri Mar 28 2025 13:44:56 GMT-0500 (Central Daylight Time),557560.8000000119,A,key,O,y,242,1,1566.4000000059605,555994.400000006,7084,WL,A,1.0
5,1.9160001277923584,learn,60000.0,Fri Mar 28 2025 13:44:56 GMT-0500 (Central Daylight Time),557909.8000000119,A,keyenter,O,enter,341,1,1915.4000000059605,555994.400000006,7084,WL,A,1.0
5,2.2170000076293945,learn,60000.0,Fri Mar 28 2025 13:44:56 GMT-0500 (Central Daylight Time),558210.6999999881,A,r,O,r,281,1,300.59999999403954,557910.099999994,7084,WL,A,2.0
5,2.4160001277923584,learn,60000.0,Fri Mar 28 2025 13:44:56 GMT-0500 (Central Daylight Time),558410.099999994,A,ra,O,a,188,1,500.0,557910.099999994,7084,WL,A,2.0
5,2.633000135421753,learn,60000.0,Fri Mar 28 2025 13:44:56 GMT-0500 (Central Daylight Time),558626.599999994,A,rat,O,t,196,1,716.5,557910.099999994,7084,WL,A,2.0
5,2.815999984741211,learn,60000.0,Fri Mar 28 2025 13:44:56 GMT-0500 (Central Daylight Time),558810.099999994,A,ratt,O,t,163,1,900.0,557910.099999994,7084,WL,A,2.0
5,3.0320000648498535,learn,60000.0,Fri Mar 28 2025 13:44:56 GMT-0500 (Central Daylight Time),559025.8000000119,A,rattl,O,l,194,1,1115.7000000178814,557910.099999994,7084,WL,A,2.0
5,3.2990000247955322,learn,60000.0,Fri Mar 28 2025 13:44:56 GMT-0500 (Central Daylight Time),559292.900000006,A,rattle,O,e,245,1,1382.800000011921,557910.099999994,7084,WL,A,2.0
5,3.565999984741211,learn,60000.0,Fri Mar 28 2025 13:44:56 GMT-0500 (Central Daylight Time),559559.1999999881,A,rattleenter,O,enter,255,1,1649.0999999940395,557910.099999994,7084,WL,A,2.0
5,3.950000047683716,learn,60000.0,Fri Mar 28 2025 13:44:56 GMT-0500 (Central Daylight Time),559943.900000006,A,g,O,g,379,1,384.40000000596046,559559.5,7084,WL,A,3.0
5,4.115000009536743,learn,60000.0,Fri Mar 28 2025 13:44:56 GMT-0500 (Central Daylight Time),560109.099999994,A,go,O,o,151,1,549.5999999940395,559559.5,7084,WL,A,3.0
5,4.3470001220703125,learn,60000.0,Fri Mar 28 2025 13:44:56 GMT-0500 (Central Daylight Time),560340.8000000119,A,gol,O,l,225,1,781.3000000119209,559559.5,7084,WL,A,3.0
5,4.5329999923706055,learn,60000.0,Fri Mar 28 2025 13:44:56 GMT-0500 (Central Daylight Time),560526.6999999881,A,gold,O,d,173,1,967.1999999880791,559559.5,7084,WL,A,3.0
5,4.765000104904175,learn,60000.0,Fri Mar 28 2025 13:44:56 GMT-0500 (Central Daylight Time),560758.5,A,goldenter,O,enter,216,1,1199.0,559559.5,7084,WL,A,3.0
5,5.199000120162964,learn,60000.0,Fri Mar 28 2025 13:44:56 GMT-0500 (Central Daylight Time),561192.1999999881,A,c,O,c,416,1,433.5,560758.6999999881,7084,WL,A,4.0
5,5.749000072479248,learn,60000.0,Fri Mar 28 2025 13:44:56 GMT-0500 (Central Daylight Time),561742.900000006,A,,O,backspace,533,1,984.2000000178814,560758.6999999881,7084,WL,A,4.0
5,5.982000112533569,learn,60000.0,Fri Mar 28 2025 13:44:56 GMT-0500 (Central Daylight Time),561975.8000000119,A,f,O,f,216,1,1217.1000000238419,560758.6999999881,7084,WL,A,4.0
5,6.131999969482422,learn,60000.0,Fri Mar 28 2025 13:44:56 GMT-0500 (Central Daylight Time),562125.599999994,A,fl,O,l,134,1,1366.9000000059605,560758.6999999881,7084,WL,A,4.0
5,6.315999984741211,learn,60000.0,Fri Mar 28 2025 13:44:56 GMT-0500 (Central Daylight Time),562309.599999994,A,flo,O,o,169,1,1550.9000000059605,560758.6999999881,7084,WL,A,4.0
5,6.4649999141693115,learn,60000.0,Fri Mar 28 2025 13:44:56 GMT-0500 (Central Daylight Time),562458.400000006,A,flow,O,w,139,1,1699.7000000178814,560758.6999999881,7084,WL,A,4.0
5,6.699000120162964,learn,60000.0,Fri Mar 28 2025 13:44:56 GMT-0500 (Central Daylight Time),562692.599999994,A,flowe,O,e,212,1,1933.9000000059605,560758.6999999881,7084,WL,A,4.0
5,6.8480000495910645,learn,60000.0,Fri Mar 28 2025 13:44:56 GMT-0500 (Central Daylight Time),562841.400000006,A,flower,O,r,137,1,2082.7000000178814,560758.6999999881,7084,WL,A,4.0
5,6.980999946594238,learn,60000.0,Fri Mar 28 2025 13:44:56 GMT-0500 (Central Daylight Time),562974.3000000119,A,flowerenter,O,enter,124,1,2215.600000023842,560758.6999999881,7084,WL,A,4.0
5,7.365999937057495,learn,60000.0,Fri Mar 28 2025 13:44:56 GMT-0500 (Central Daylight Time),563359.599999994,A,b,O,b,368,1,385.0,562974.599999994,7084,WL,A,5.0
5,7.630000114440918,learn,60000.0,Fri Mar 28 2025 13:44:56 GMT-0500 (Central Daylight Time),563624.099999994,A,bo,O,o,248,1,649.5,562974.599999994,7084,WL,A,5.0
5,7.815000057220459,learn,60000.0,Fri Mar 28 2025 13:44:56 GMT-0500 (Central Daylight Time),563809.0,A,boo,O,o,174,1,834.4000000059605,562974.599999994,7084,WL,A,5.0
5,7.950000047683716,learn,60000.0,Fri Mar 28 2025 13:44:56 GMT-0500 (Central Daylight Time),563943.400000006,A,book,O,k,128,1,968.8000000119209,562974.599999994,7084,WL,A,5.0
5,8.263999938964844,learn,60000.0,Fri Mar 28 2025 13:44:56 GMT-0500 (Central Daylight Time),564257.400000006,A,bookenter,O,enter,295,1,1282.800000011921,562974.599999994,7084,WL,A,5.0
5,8.532000064849854,learn,60000.0,Fri Mar 28 2025 13:44:56 GMT-0500 (Central Daylight Time),564525.6999999881,A,t,O,t,263,1,268.0,564257.6999999881,7084,WL,A,6.0
5,8.680999994277954,learn,60000.0,Fri Mar 28 2025 13:44:56 GMT-0500 (Central Daylight Time),564674.3000000119,A,tr,O,r,129,1,416.60000002384186,564257.6999999881,7084,WL,A,6.0
5,8.79699993133545,learn,60000.0,Fri Mar 28 2025 13:44:56 GMT-0500 (Central Daylight Time),564791.0,A,tra,O,a,109,1,533.3000000119209,564257.6999999881,7084,WL,A,6.0
5,8.930000066757202,learn,60000.0,Fri Mar 28 2025 13:44:56 GMT-0500 (Central Daylight Time),564923.900000006,A,trai,O,i,118,1,666.2000000178814,564257.6999999881,7084,WL,A,6.0
5,9.064000129699707,learn,60000.0,Fri Mar 28 2025 13:44:56 GMT-0500 (Central Daylight Time),565057.3000000119,A,train,O,n,124,1,799.6000000238419,564257.6999999881,7084,WL,A,6.0
5,9.430000066757202,learn,60000.0,Fri Mar 28 2025 13:44:56 GMT-0500 (Central Daylight Time),565424.0,A,trainenter,O,enter,358,1,1166.300000011921,564257.6999999881,7084,WL,A,6.0
5,9.86299991607666,learn,60000.0,Fri Mar 28 2025 13:44:56 GMT-0500 (Central Daylight Time),565856.8000000119,A,r,O,r,423,1,432.40000000596046,565424.400000006,7084,WL,A,7.0
5,10.13100004196167,learn,60000.0,Fri Mar 28 2025 13:44:56 GMT-0500 (Central Daylight Time),566124.599999994,A,ru,O,u,246,1,700.1999999880791,565424.400000006,7084,WL,A,7.0
5,10.263000011444092,learn,60000.0,Fri Mar 28 2025 13:44:56 GMT-0500 (Central Daylight Time),566256.6999999881,A,rug,O,g,122,1,832.2999999821186,565424.400000006,7084,WL,A,7.0
5,11.079999923706055,learn,60000.0,Fri Mar 28 2025 13:44:56 GMT-0500 (Central Daylight Time),567074.0,A,rugenter,O,enter,807,1,1649.5999999940395,565424.400000006,7084,WL,A,7.0
5,12.42799997329712,learn,60000.0,Fri Mar 28 2025 13:44:56 GMT-0500 (Central Daylight Time),568422.3000000119,A,m,O,m,1334,1,1348.0,567074.3000000119,7084,WL,A,8.0
5,12.628999948501587,learn,60000.0,Fri Mar 28 2025 13:44:56 GMT-0500 (Central Daylight Time),568622.599999994,A,me,O,e,184,1,1548.2999999821186,567074.3000000119,7084,WL,A,8.0
5,12.77999997138977,learn,60000.0,Fri Mar 28 2025 13:44:56 GMT-0500 (Central Daylight Time),568773.8000000119,A,mea,O,a,126,1,1699.5,567074.3000000119,7084,WL,A,8.0
5,12.980999946594238,learn,60000.0,Fri Mar 28 2025 13:44:56 GMT-0500 (Central Daylight Time),568974.5,A,mead,O,d,192,1,1900.199999988079,567074.3000000119,7084,WL,A,8.0
5,13.196000099182129,learn,60000.0,Fri Mar 28 2025 13:44:56 GMT-0500 (Central Daylight Time),569189.900000006,A,meado,O,o,199,1,2115.5999999940395,567074.3000000119,7084,WL,A,8.0
5,13.52999997138977,learn,60000.0,Fri Mar 28 2025 13:44:56 GMT-0500 (Central Daylight Time),569523.8000000119,A,meadow,O,w,324,1,2449.5,567074.3000000119,7084,WL,A,8.0
5,13.84500002861023,learn,60000.0,Fri Mar 28 2025 13:44:56 GMT-0500 (Central Daylight Time),569838.400000006,A,meadowenter,O,enter,298,1,2764.0999999940395,567074.3000000119,7084,WL,A,8.0
5,14.246000051498413,learn,60000.0,Fri Mar 28 2025 13:44:56 GMT-0500 (Central Daylight Time),570239.6999999881,A,h,O,h,385,1,401.0,569838.6999999881,7084,WL,A,9.0
5,14.378000020980835,learn,60000.0,Fri Mar 28 2025 13:44:56 GMT-0500 (Central Daylight Time),570372.099999994,A,ha,O,a,120,1,533.4000000059605,569838.6999999881,7084,WL,A,9.0
5,14.614000082015991,learn,60000.0,Fri Mar 28 2025 13:44:56 GMT-0500 (Central Daylight Time),570607.1999999881,A,har,O,r,226,1,768.5,569838.6999999881,7084,WL,A,9.0
5,14.809999942779541,learn,60000.0,Fri Mar 28 2025 13:44:56 GMT-0500 (Central Daylight Time),570804.099999994,A,harp,O,p,189,1,965.4000000059605,569838.6999999881,7084,WL,A,9.0
5,15.061000108718872,learn,60000.0,Fri Mar 28 2025 13:44:56 GMT-0500 (Central Daylight Time),571054.900000006,A,harpenter,O,enter,245,1,1216.2000000178814,569838.6999999881,7084,WL,A,9.0
5,15.29699993133545,learn,60000.0,Fri Mar 28 2025 13:44:56 GMT-0500 (Central Daylight Time),571290.8000000119,A,s,O,s,217,1,235.60000002384186,571055.1999999881,7084,WL,A,10.0
5,15.380000114440918,learn,60000.0,Fri Mar 28 2025 13:44:56 GMT-0500 (Central Daylight Time),571373.599999994,A,sa,O,a,77,1,318.40000000596046,571055.1999999881,7084,WL,A,10.0
5,15.595999956130981,learn,60000.0,Fri Mar 28 2025 13:44:56 GMT-0500 (Central Daylight Time),571589.400000006,A,sal,O,l,203,1,534.2000000178814,571055.1999999881,7084,WL,A,10.0
5,15.92900013923645,learn,60000.0,Fri Mar 28 2025 13:44:56 GMT-0500 (Central Daylight Time),571922.400000006,A,salt,O,t,313,1,867.2000000178814,571055.1999999881,7084,WL,A,10.0
5,16.212000131607056,learn,60000.0,Fri Mar 28 2025 13:44:56 GMT-0500 (Central Daylight Time),572205.599999994,A,saltf,O,f,268,1,1150.4000000059605,571055.1999999881,7084,WL,A,10.0
5,16.276999950408936,learn,60000.0,Fri Mar 28 2025 13:44:56 GMT-0500 (Central Daylight Time),572271.0,A,saltfi,O,i,56,1,1215.800000011921,571055.1999999881,7084,WL,A,10.0
5,16.430000066757202,learn,60000.0,Fri Mar 28 2025 13:44:56 GMT-0500 (Central Daylight Time),572424.099999994,A,saltfin,O,n,146,1,1368.9000000059605,571055.1999999881,7084,WL,A,10.0
5,16.646000146865845,learn,60000.0,Fri Mar 28 2025 13:44:56 GMT-0500 (Central Daylight Time),572639.6999999881,A,saltfing,O,g,208,1,1584.5,571055.1999999881,7084,WL,A,10.0
5,16.828999996185303,learn,60000.0,Fri Mar 28 2025 13:44:56 GMT-0500 (Central Daylight Time),572822.5,A,saltfinge,O,e,177,1,1767.300000011921,571055.1999999881,7084,WL,A,10.0
5,17.17900013923645,learn,60000.0,Fri Mar 28 2025 13:44:56 GMT-0500 (Central Daylight Time),573172.5,A,saltfing,O,backspace,343,1,2117.300000011921,571055.1999999881,7084,WL,A,10.0
5,17.378999948501587,learn,60000.0,Fri Mar 28 2025 13:44:56 GMT-0500 (Central Daylight Time),573372.5,A,saltfin,O,backspace,179,1,2317.300000011921,571055.1999999881,7084,WL,A,10.0
5,17.528000116348267,learn,60000.0,Fri Mar 28 2025 13:44:56 GMT-0500 (Central Daylight Time),573521.599999994,A,saltfi,O,backspace,137,1,2466.4000000059605,571055.1999999881,7084,WL,A,10.0
5,17.694000005722046,learn,60000.0,Fri Mar 28 2025 13:44:56 GMT-0500 (Central Daylight Time),573687.1999999881,A,saltf,O,backspace,148,1,2632.0,571055.1999999881,7084,WL,A,10.0
5,17.878000020980835,learn,60000.0,Fri Mar 28 2025 13:44:56 GMT-0500 (Central Daylight Time),573871.8000000119,A,salt,O,backspace,178,1,2816.600000023842,571055.1999999881,7084,WL,A,10.0
5,18.42799997329712,learn,60000.0,Fri Mar 28 2025 13:44:56 GMT-0500 (Central Daylight Time),574422.099999994,A,saltenter,O,enter,544,1,3366.9000000059605,571055.1999999881,7084,WL,A,10.0
5,18.877000093460083,learn,60000.0,Fri Mar 28 2025 13:44:56 GMT-0500 (Central Daylight Time),574870.5,A,f,O,f,442,1,448.19999998807907,574422.3000000119,7084,WL,A,11.0
5,19.061000108718872,learn,60000.0,Fri Mar 28 2025 13:44:56 GMT-0500 (Central Daylight Time),575055.1999999881,A,fi,O,i,166,1,632.8999999761581,574422.3000000119,7084,WL,A,11.0
5,19.210999965667725,learn,60000.0,Fri Mar 28 2025 13:44:56 GMT-0500 (Central Daylight Time),575205.099999994,A,fin,O,n,144,1,782.7999999821186,574422.3000000119,7084,WL,A,11.0
5,19.51099991798401,learn,60000.0,Fri Mar 28 2025 13:44:56 GMT-0500 (Central Daylight Time),575505.0,A,fing,O,g,283,1,1082.699999988079,574422.3000000119,7084,WL,A,11.0
5,19.69600009918213,learn,60000.0,Fri Mar 28 2025 13:44:56 GMT-0500 (Central Daylight Time),575689.400000006,A,finge,O,e,178,1,1267.0999999940395,574422.3000000119,7084,WL,A,11.0
5,19.878000020980835,learn,60000.0,Fri Mar 28 2025 13:44:56 GMT-0500 (Central Daylight Time),575871.8000000119,A,finger,O,r,167,1,1449.5,574422.3000000119,7084,WL,A,11.0
5,20.16000008583069,learn,60000.0,Fri Mar 28 2025 13:44:56 GMT-0500 (Central Daylight Time),576153.8000000119,A,fingerenter,O,enter,262,1,1731.5,574422.3000000119,7084,WL,A,11.0
5,20.44600009918213,learn,60000.0,Fri Mar 28 2025 13:44:56 GMT-0500 (Central Daylight Time),576439.400000006,A,a,O,a,280,1,285.40000000596046,576154.0,7084,WL,A,12.0
5,20.878000020980835,learn,60000.0,Fri Mar 28 2025 13:44:56 GMT-0500 (Central Daylight Time),576871.1999999881,A,ap,O,p,425,1,717.1999999880791,576154.0,7084,WL,A,12.0
5,21.042999982833862,learn,60000.0,Fri Mar 28 2025 13:44:56 GMT-0500 (Central Daylight Time),577036.6999999881,A,app,O,p,159,1,882.6999999880791,576154.0,7084,WL,A,12.0
5,21.194999933242798,learn,60000.0,Fri Mar 28 2025 13:44:56 GMT-0500 (Central Daylight Time),577188.6999999881,A,appl,O,l,133,1,1034.699999988079,576154.0,7084,WL,A,12.0
5,21.49500012397766,learn,60000.0,Fri Mar 28 2025 13:44:56 GMT-0500 (Central Daylight Time),577488.599999994,A,apple,O,e,294,1,1334.5999999940395,576154.0,7084,WL,A,12.0
5,21.608999967575073,learn,60000.0,Fri Mar 28 2025 13:44:56 GMT-0500 (Central Daylight Time),577602.6999999881,A,appleenter,O,enter,104,1,1448.699999988079,576154.0,7084,WL,A,12.0
5,21.8270001411438,learn,60000.0,Fri Mar 28 2025 13:44:56 GMT-0500 (Central Daylight Time),577820.6999999881,A,c,O,c,206,1,217.69999998807907,577603.0,7084,WL,A,13.0
5,22.046000003814697,learn,60000.0,Fri Mar 28 2025 13:44:56 GMT-0500 (Central Daylight Time),578039.900000006,A,ch,O,h,214,1,436.90000000596046,577603.0,7084,WL,A,13.0
5,22.16100001335144,learn,60000.0,Fri Mar 28 2025 13:44:56 GMT-0500 (Central Daylight Time),578154.900000006,A,chi,O,i,95,1,551.9000000059605,577603.0,7084,WL,A,13.0
5,22.377000093460083,learn,60000.0,Fri Mar 28 2025 13:44:56 GMT-0500 (Central Daylight Time),578370.3000000119,A,chim,O,m,196,1,767.3000000119209,577603.0,7084,WL,A,13.0
5,22.625999927520752,learn,60000.0,Fri Mar 28 2025 13:44:56 GMT-0500 (Central Daylight Time),578619.8000000119,A,chimn,O,n,227,1,1016.8000000119209,577603.0,7084,WL,A,13.0
5,23.009000062942505,learn,60000.0,Fri Mar 28 2025 13:44:56 GMT-0500 (Central Daylight Time),579003.099999994,A,chimne,O,e,372,1,1400.0999999940395,577603.0,7084,WL,A,13.0
5,23.325999975204468,learn,60000.0,Fri Mar 28 2025 13:44:56 GMT-0500 (Central Daylight Time),579319.900000006,A,chimney,O,y,310,1,1716.9000000059605,577603.0,7084,WL,A,13.0
5,24.042999982833862,learn,60000.0,Fri Mar 28 2025 13:44:56 GMT-0500 (Central Daylight Time),580036.900000006,A,chimneyenter,O,enter,702,1,2433.9000000059605,577603.0,7084,WL,A,13.0
5,24.49399995803833,learn,60000.0,Fri Mar 28 2025 13:44:56 GMT-0500 (Central Daylight Time),580487.6999999881,A,b,O,b,428,1,450.5,580037.1999999881,7084,WL,A,14.0
5,24.759999990463257,learn,60000.0,Fri Mar 28 2025 13:44:56 GMT-0500 (Central Daylight Time),580754.0,A,bu,O,u,245,1,716.8000000119209,580037.1999999881,7084,WL,A,14.0
5,24.95900011062622,learn,60000.0,Fri Mar 28 2025 13:44:56 GMT-0500 (Central Daylight Time),580952.3000000119,A,but,O,t,190,1,915.1000000238419,580037.1999999881,7084,WL,A,14.0
5,25.125999927520752,learn,60000.0,Fri Mar 28 2025 13:44:56 GMT-0500 (Central Daylight Time),581120.099999994,A,butt,O,t,150,1,1082.9000000059605,580037.1999999881,7084,WL,A,14.0
5,25.325000047683716,learn,60000.0,Fri Mar 28 2025 13:44:56 GMT-0500 (Central Daylight Time),581318.6999999881,A,butto,O,o,180,1,1281.5,580037.1999999881,7084,WL,A,14.0
5,25.492000102996826,learn,60000.0,Fri Mar 28 2025 13:44:56 GMT-0500 (Central Daylight Time),581486.0,A,button,O,n,153,1,1448.800000011921,580037.1999999881,7084,WL,A,14.0
5,25.7260000705719,learn,60000.0,Fri Mar 28 2025 13:44:56 GMT-0500 (Central Daylight Time),581719.5,A,buttonenter,O,enter,227,1,1682.300000011921,580037.1999999881,7084,WL,A,14.0
5,26.058000087738037,learn,60000.0,Fri Mar 28 2025 13:44:56 GMT-0500 (Central Daylight Time),582051.900000006,A,l,O,l,322,1,332.09999999403954,581719.8000000119,7084,WL,A,15.0
5,26.259000062942505,learn,60000.0,Fri Mar 28 2025 13:44:56 GMT-0500 (Central Daylight Time),582252.400000006,A,lo,O,o,187,1,532.5999999940395,581719.8000000119,7084,WL,A,15.0
5,26.592000007629395,learn,60000.0,Fri Mar 28 2025 13:44:56 GMT-0500 (Central Daylight Time),582585.3000000119,A,log,O,g,323,1,865.5,581719.8000000119,7084,WL,A,15.0
5,26.941999912261963,learn,60000.0,Fri Mar 28 2025 13:44:56 GMT-0500 (Central Daylight Time),582935.1999999881,A,logenter,O,enter,335,1,1215.3999999761581,581719.8000000119,7084,WL,A,15.0
6,2.384000062942505,distr,57615.999937057495,Fri Mar 28 2025 13:44:56 GMT-0500 (Central Daylight Time),669207.8000000119,B,b,O,b,2377,1,2383.0,666824.8000000119,7084,WL,A,1.0
6,2.6000001430511475,distr,57399.99985694885,Fri Mar 28 2025 13:44:56 GMT-0500 (Central Daylight Time),669424.1999999881,B,bo,O,o,200,1,2599.399999976158,666824.8000000119,7084,WL,A,1.0
6,2.884000062942505,distr,57115.999937057495,Fri Mar 28 2025 13:44:56 GMT-0500 (Central Daylight Time),669708.099999994,B,bow,O,w,262,1,2883.2999999821186,666824.8000000119,7084,WL,A,1.0
6,3.067000150680542,distr,56932.99984931946,Fri Mar 28 2025 13:44:56 GMT-0500 (Central Daylight Time),669891.099999994,B,bowl,O,l,171,1,3066.2999999821186,666824.8000000119,7084,WL,A,1.0
6,3.56600022315979,distr,56433.99977684021,Fri Mar 28 2025 13:44:56 GMT-0500 (Central Daylight Time),670390.0,B,bowlenter,O,enter,493,1,3565.199999988079,666824.8000000119,7084,WL,A,1.0
6,4.999000072479248,distr,55000.99992752075,Fri Mar 28 2025 13:44:56 GMT-0500 (Central Daylight Time),671822.900000006,B,m,O,m,1426,1,1432.7000000178814,670390.1999999881,7084,WL,A,2.0
6,5.199000120162964,distr,54800.999879837036,Fri Mar 28 2025 13:44:56 GMT-0500 (Central Daylight Time),672022.6999999881,B,me,O,e,184,1,1632.5,670390.1999999881,7084,WL,A,2.0
6,5.3490002155303955,distr,54650.999784469604,Fri Mar 28 2025 13:44:56 GMT-0500 (Central Daylight Time),672172.900000006,B,mea,O,a,137,1,1782.7000000178814,670390.1999999881,7084,WL,A,2.0
6,6.082000017166138,distr,53917.99998283386,Fri Mar 28 2025 13:44:56 GMT-0500 (Central Daylight Time),672906.5,B,meal,O,l,713,1,2516.300000011921,670390.1999999881,7084,WL,A,2.0
6,6.733000040054321,distr,53266.99995994568,Fri Mar 28 2025 13:44:56 GMT-0500 (Central Daylight Time),673557.1999999881,B,mealenter,O,enter,644,1,3167.0,670390.1999999881,7084,WL,A,2.0
6,7.199000120162964,distr,52800.999879837036,Fri Mar 28 2025 13:44:56 GMT-0500 (Central Daylight Time),674023.3000000119,B,d,O,d,450,1,465.90000000596046,673557.400000006,7084,WL,A,3.0
6,7.39900016784668,distr,52600.99983215332,Fri Mar 28 2025 13:44:56 GMT-0500 (Central Daylight Time),674223.5,B,da,O,a,184,1,666.0999999940395,673557.400000006,7084,WL,A,3.0
6,7.64900016784668,distr,52350.99983215332,Fri Mar 28 2025 13:44:56 GMT-0500 (Central Daylight Time),674473.3000000119,B,daw,O,w,241,1,915.9000000059605,673557.400000006,7084,WL,A,3.0
6,7.933000087738037,distr,52066.99991226196,Fri Mar 28 2025 13:44:56 GMT-0500 (Central Daylight Time),674757.0,B,dawn,O,n,278,1,1199.5999999940395,673557.400000006,7084,WL,A,3.0
6,8.29800009727478,distr,51701.99990272522,Fri Mar 28 2025 13:44:56 GMT-0500 (Central Daylight Time),675122.5,B,dawnenter,O,enter,354,1,1565.0999999940395,673557.400000006,7084,WL,A,3.0
6,8.550000190734863,distr,51449.99980926514,Fri Mar 28 2025 13:44:56 GMT-0500 (Central Daylight Time),675373.900000006,B,j,O,j,246,1,251.2000000178814,675122.6999999881,7084,WL,A,4.0
6,8.782000064849854,distr,51217.99993515015,Fri Mar 28 2025 13:44:56 GMT-0500 (Central Daylight Time),675606.400000006,B,ju,O,u,217,1,483.7000000178814,675122.6999999881,7084,WL,A,4.0
6,9.032000064849854,distr,50967.99993515015,Fri Mar 28 2025 13:44:56 GMT-0500 (Central Daylight Time),675856.099999994,B,jud,O,d,243,1,733.4000000059605,675122.6999999881,7084,WL,A,4.0
6,9.265000104904175,distr,50734.999895095825,Fri Mar 28 2025 13:44:56 GMT-0500 (Central Daylight Time),676089.099999994,B,judg,O,g,215,1,966.4000000059605,675122.6999999881,7084,WL,A,4.0
6,10.180999994277954,distr,49819.000005722046,Fri Mar 28 2025 13:44:56 GMT-0500 (Central Daylight Time),677004.900000006,B,judge,O,e,902,1,1882.2000000178814,675122.6999999881,7084,WL,A,4.0
6,10.69700002670288,distr,49302.99997329712,Fri Mar 28 2025 13:44:56 GMT-0500 (Central Daylight Time),677521.5,B,judgeenter,O,enter,507,1,2398.800000011921,675122.6999999881,7084,WL,A,4.0
6,14.09600019454956,distr,45903.99980545044,Fri Mar 28 2025 13:44:56 GMT-0500 (Central Daylight Time),680920.3000000119,B,s,O,s,3381,1,3398.5,677521.8000000119,7084,WL,A,5.0
6,14.230000019073486,distr,45769.999980926514,Fri Mar 28 2025 13:44:56 GMT-0500 (Central Daylight Time),681054.1999999881,B,sh,O,h,119,1,3532.399999976158,677521.8000000119,7084,WL,A,5.0
6,14.480000019073486,distr,45519.999980926514,Fri Mar 28 2025 13:44:56 GMT-0500 (Central Daylight Time),681304.0,B,she,O,e,232,1,3782.199999988079,677521.8000000119,7084,WL,A,5.0
6,14.647000074386597,distr,45352.9999256134,Fri Mar 28 2025 13:44:56 GMT-0500 (Central Daylight Time),681471.099999994,B,shee,O,e,149,1,3949.2999999821186,677521.8000000119,7084,WL,A,5.0
6,14.930000066757202,distr,45069.9999332428,Fri Mar 28 2025 13:44:56 GMT-0500 (Central Daylight Time),681754.1999999881,B,sheep,O,p,261,1,4232.399999976158,677521.8000000119,7084,WL,A,5.0
6,15.19700002670288,distr,44802.99997329712,Fri Mar 28 2025 13:44:56 GMT-0500 (Central Daylight Time),682021.400000006,B,sheepenter,O,enter,260,1,4499.5999999940395,677521.8000000119,7084,WL,A,5.0
6,15.380000114440918,distr,44619.99988555908,Fri Mar 28 2025 13:44:56 GMT-0500 (Central Daylight Time),682204.1999999881,B,c,O,c,170,1,182.5,682021.6999999881,7084,WL,A,6.0
6,15.578999996185303,distr,44421.0000038147,Fri Mar 28 2025 13:44:56 GMT-0500 (Central Daylight Time),682403.5,B,ch,O,h,178,1,381.80000001192093,682021.6999999881,7084,WL,A,6.0
6,15.713000059127808,distr,44286.99994087219,Fri Mar 28 2025 13:44:56 GMT-0500 (Central Daylight Time),682537.3000000119,B,cha,O,a,115,1,515.6000000238419,682021.6999999881,7084,WL,A,6.0
6,15.847000122070312,distr,44152.99987792969,Fri Mar 28 2025 13:44:56 GMT-0500 (Central Daylight Time),682671.5,B,chai,O,i,128,1,649.8000000119209,682021.6999999881,7084,WL,A,6.0
6,16.395000219345093,distr,43604.99978065491,Fri Mar 28 2025 13:44:56 GMT-0500 (Central Daylight Time),683219.6999999881,B,chair,O,r,534,1,1198.0,682021.6999999881,7084,WL,A,6.0
6,16.94600009918213,distr,43053.99990081787,Fri Mar 28 2025 13:44:56 GMT-0500 (Central Daylight Time),683769.900000006,B,chairenter,O,enter,540,1,1748.2000000178814,682021.6999999881,7084,WL,A,6.0
6,23.89300012588501,distr,36106.99987411499,Fri Mar 28 2025 13:44:56 GMT-0500 (Central Daylight Time),690717.6999999881,B,c,O,c,6935,1,6947.5,683770.1999999881,7084,WL,A,7.0
6,24.110000133514404,distr,35889.999866485596,Fri Mar 28 2025 13:44:56 GMT-0500 (Central Daylight Time),690934.400000006,B,co,O,o,202,1,7164.200000017881,683770.1999999881,7084,WL,A,7.0
6,24.360000133514404,distr,35639.999866485596,Fri Mar 28 2025 13:44:56 GMT-0500 (Central Daylight Time),691184.400000006,B,coa,O,a,232,1,7414.200000017881,683770.1999999881,7084,WL,A,7.0
6,24.79100012779236,distr,35208.99987220764,Fri Mar 28 2025 13:44:56 GMT-0500 (Central Daylight Time),691615.400000006,B,coat,O,t,413,1,7845.200000017881,683770.1999999881,7084,WL,A,7.0
6,25.2260000705719,distr,34773.9999294281,Fri Mar 28 2025 13:44:56 GMT-0500 (Central Daylight Time),692050.599999994,B,coatenter,O,enter,417,1,8280.40000000596,683770.1999999881,7084,WL,A,7.0
6,33.35800004005432,distr,26641.99995994568,Fri Mar 28 2025 13:44:56 GMT-0500 (Central Daylight Time),700182.400000006,B,s,O,s,8118,1,8131.5999999940395,692050.8000000119,7084,WL,A,8.0
6,33.77400016784668,distr,26225.99983215332,Fri Mar 28 2025 13:44:56 GMT-0500 (Central Daylight Time),700598.1999999881,B,se,O,e,408,1,8547.399999976158,692050.8000000119,7084,WL,A,8.0
6,33.97500014305115,distr,26024.999856948853,Fri Mar 28 2025 13:44:56 GMT-0500 (Central Daylight Time),700799.3000000119,B,see,O,e,191,1,8748.5,692050.8000000119,7084,WL,A,8.0
6,34.35800004005432,distr,25641.99995994568,Fri Mar 28 2025 13:44:56 GMT-0500 (Central Daylight Time),701182.599999994,B,seed,O,d,367,1,9131.799999982119,692050.8000000119,7084,WL,A,8.0
6,35.07300019264221,distr,24926.999807357788,Fri Mar 28 2025 13:44:56 GMT-0500 (Central Daylight Time),701897.400000006,B,seedenter,O,enter,704,1,9846.59999999404,692050.8000000119,7084,WL,A,8.0
6,37.0220000743866,distr,22977.999925613403,Fri Mar 28 2025 13:44:56 GMT-0500 (Central Daylight Time),703846.6999999881,B,d,O,d,1934,1,1949.0,701897.6999999881,7084,WL,A,9.0
6,37.34000015258789,distr,22659.99984741211,Fri Mar 28 2025 13:44:56 GMT-0500 (Central Daylight Time),704164.599999994,B,da,O,a,291,1,2266.9000000059605,701897.6999999881,7084,WL,A,9.0
6,37.539000034332275,distr,22460.999965667725,Fri Mar 28 2025 13:44:56 GMT-0500 (Central Daylight Time),704363.5,B,daw,O,w,186,1,2465.800000011921,701897.6999999881,7084,WL,A,9.0
6,37.790000200271606,distr,22209.999799728394,Fri Mar 28 2025 13:44:56 GMT-0500 (Central Daylight Time),704614.400000006,B,dawn,O,n,234,1,2716.7000000178814,701897.6999999881,7084,WL,A,9.0
6,38.125,distr,21875.0,Fri Mar 28 2025 13:44:56 GMT-0500 (Central Daylight Time),704949.0,B,dawnenter,O,enter,325,1,3051.300000011921,701897.6999999881,7084,WL,A,9.0
6,38.455000162124634,distr,21544.999837875366,Fri Mar 28 2025 13:44:56 GMT-0500 (Central Daylight Time),705278.900000006,B,enter,O,enter,314,1,329.7000000178814,704949.1999999881,7084,WL,A,10.0
6,38.73900008201599,distr,21260.99991798401,Fri Mar 28 2025 13:44:56 GMT-0500 (Central Daylight Time),705563.400000006,B,enter,O,enter,264,1,284.2000000178814,705279.1999999881,7084,WL,A,11.0
6,39.0550000667572,distr,20944.999933242798,Fri Mar 28 2025 13:44:56 GMT-0500 (Central Daylight Time),705878.900000006,B,enter,O,enter,311,1,315.2000000178814,705563.6999999881,7084,WL,A,12.0
6,39.42300009727478,distr,20576.99990272522,Fri Mar 28 2025 13:44:56 GMT-0500 (Central Daylight Time),706247.0,B,enter,O,enter,363,1,367.80000001192093,705879.1999999881,7084,WL,A,13.0
6,39.855000019073486,distr,20144.999980926514,Fri Mar 28 2025 13:44:56 GMT-0500 (Central Daylight Time),706679.0,B,enter,O,enter,417,1,431.69999998807907,706247.3000000119,7084,WL,A,14.0
6,40.40500020980835,distr,19594.99979019165,Fri Mar 28 2025 13:44:56 GMT-0500 (Central Daylight Time),707229.0,B,enter,O,enter,537,1,549.6999999880791,706679.3000000119,7084,WL,A,15.0
7,1.0489997863769531,immed,58951.00021362305,Fri Mar 28 2025 13:44:56 GMT-0500 (Central Daylight Time),716426.5,A,f,O,f,1028,1,1048.800000011921,715377.6999999881,7084,WL,A,1.0
7,1.2319998741149902,immed,58768.00012588501,Fri Mar 28 2025 13:44:56 GMT-0500 (Central Daylight Time),716608.8000000119,A,fl,O,l,172,1,1231.1000000238419,715377.6999999881,7084,WL,A,1.0
7,1.4849998950958252,immed,58515.000104904175,Fri Mar 28 2025 13:44:56 GMT-0500 (Central Daylight Time),716861.900000006,A,flo,O,o,238,1,1484.2000000178814,715377.6999999881,7084,WL,A,1.0
7,1.6659998893737793,immed,58334.00011062622,Fri Mar 28 2025 13:44:56 GMT-0500 (Central Daylight Time),717043.599999994,A,flow,O,w,153,1,1665.9000000059605,715377.6999999881,7084,WL,A,1.0
7,1.8999998569488525,immed,58100.00014305115,Fri Mar 28 2025 13:44:56 GMT-0500 (Central Daylight Time),717277.099999994,A,flowe,O,e,225,1,1899.4000000059605,715377.6999999881,7084,WL,A,1.0
7,2.1649999618530273,immed,57835.00003814697,Fri Mar 28 2025 13:44:56 GMT-0500 (Central Daylight Time),717542.5,A,flower,O,r,242,1,2164.800000011921,715377.6999999881,7084,WL,A,1.0
7,2.4819998741149902,immed,57518.00012588501,Fri Mar 28 2025 13:44:56 GMT-0500 (Central Daylight Time),717859.1999999881,A,flowerenter,O,enter,293,1,2481.5,715377.6999999881,7084,WL,A,1.0
7,2.9149999618530273,immed,57085.00003814697,Fri Mar 28 2025 13:44:56 GMT-0500 (Central Daylight Time),718292.099999994,A,b,O,b,420,1,432.59999999403954,717859.5,7084,WL,A,2.0
7,3.2139999866485596,immed,56786.00001335144,Fri Mar 28 2025 13:44:56 GMT-0500 (Central Daylight Time),718591.6999999881,A,bo,O,o,292,1,732.1999999880791,717859.5,7084,WL,A,2.0
7,3.432999849319458,immed,56567.00015068054,Fri Mar 28 2025 13:44:56 GMT-0500 (Central Daylight Time),718810.3000000119,A,boo,O,o,206,1,950.8000000119209,717859.5,7084,WL,A,2.0
7,3.5969998836517334,immed,56403.00011634827,Fri Mar 28 2025 13:44:56 GMT-0500 (Central Daylight Time),718975.0,A,book,O,k,152,1,1115.5,717859.5,7084,WL,A,2.0
7,4.229999780654907,immed,55770.00021934509,Fri Mar 28 2025 13:44:56 GMT-0500 (Central Daylight Time),719607.8000000119,A,bookenter,O,enter,611,1,1748.300000011921,717859.5,7084,WL,A,2.0
7,5.548999786376953,immed,54451.00021362305,Fri Mar 28 2025 13:44:56 GMT-0500 (Central Daylight Time),720926.400000006,A,t,O,t,1304,1,1318.300000011921,719608.099999994,7084,WL,A,3.0
7,5.696999788284302,immed,54303.0002117157,Fri Mar 28 2025 13:44:56 GMT-0500 (Central Daylight Time),721074.599999994,A,tr,O,r,125,1,1466.5,719608.099999994,7084,WL,A,3.0
7,5.898000001907349,immed,54101.99999809265,Fri Mar 28 2025 13:44:56 GMT-0500 (Central Daylight Time),721275.099999994,A,tra,O,a,186,1,1667.0,719608.099999994,7084,WL,A,3.0
7,6.063999891281128,immed,53936.00010871887,Fri Mar 28 2025 13:44:56 GMT-0500 (Central Daylight Time),721441.599999994,A,trai,O,i,151,1,1833.5,719608.099999994,7084,WL,A,3.0
7,6.245999813079834,immed,53754.000186920166,Fri Mar 28 2025 13:44:56 GMT-0500 (Central Daylight Time),721623.599999994,A,train,O,n,164,1,2015.5,719608.099999994,7084,WL,A,3.0
7,6.563999891281128,immed,53436.00010871887,Fri Mar 28 2025 13:44:56 GMT-0500 (Central Daylight Time),721941.599999994,A,trainenter,O,enter,300,1,2333.5,719608.099999994,7084,WL,A,3.0
7,6.846999883651733,immed,53153.00011634827,Fri Mar 28 2025 13:44:56 GMT-0500 (Central Daylight Time),722224.099999994,A,r,O,r,266,1,282.2999999821186,721941.8000000119,7084,WL,A,4.0
7,7.080999851226807,immed,52919.00014877319,Fri Mar 28 2025 13:44:56 GMT-0500 (Central Daylight Time),722458.0,A,ru,O,u,208,1,516.1999999880791,721941.8000000119,7084,WL,A,4.0
7,7.2789998054504395,immed,52721.00019454956,Fri Mar 28 2025 13:44:56 GMT-0500 (Central Daylight Time),722656.599999994,A,rug,O,g,188,1,714.7999999821186,721941.8000000119,7084,WL,A,4.0
7,7.678999900817871,immed,52321.00009918213,Fri Mar 28 2025 13:44:56 GMT-0500 (Central Daylight Time),723056.8000000119,A,rugenter,O,enter,389,1,1115.0,721941.8000000119,7084,WL,A,4.0
7,8.046000003814697,immed,51953.9999961853,Fri Mar 28 2025 13:44:56 GMT-0500 (Central Daylight Time),723423.900000006,A,m,O,m,358,1,366.90000000596046,723057.0,7084,WL,A,5.0
7,8.196999788284302,immed,51803.0002117157,Fri Mar 28 2025 13:44:56 GMT-0500 (Central Daylight Time),723574.1999999881,A,me,O,e,144,1,517.1999999880791,723057.0,7084,WL,A,5.0
7,8.330999851226807,immed,51669.00014877319,Fri Mar 28 2025 13:44:56 GMT-0500 (Central Daylight Time),723708.1999999881,A,mea,O,a,113,1,651.1999999880791,723057.0,7084,WL,A,5.0
7,8.513999938964844,immed,51486.000061035156,Fri Mar 28 2025 13:44:56 GMT-0500 (Central Daylight Time),723891.1999999881,A,mead,O,d,161,1,834.1999999880791,723057.0,7084,WL,A,5.0
7,8.679999828338623,immed,51320.00017166138,Fri Mar 28 2025 13:44:56 GMT-0500 (Central Daylight Time),724057.599999994,A,meado,O,o,148,1,1000.5999999940395,723057.0,7084,WL,A,5.0
7,8.912999868392944,immed,51087.000131607056,Fri Mar 28 2025 13:44:56 GMT-0500 (Central Daylight Time),724290.900000006,A,meadow,O,w,214,1,1233.9000000059605,723057.0,7084,WL,A,5.0
7,9.146999835968018,immed,50853.00016403198,Fri Mar 28 2025 13:44:56 GMT-0500 (Central Daylight Time),724524.3000000119,A,meadowenter,O,enter,220,1,1467.300000011921,723057.0,7084,WL,A,5.0
7,9.645999908447266,immed,50354.000091552734,Fri Mar 28 2025 13:44:56 GMT-0500 (Central Daylight Time),725023.8000000119,A,h,O,h,483,1,499.30000001192093,724524.5,7084,WL,A,6.0
7,9.796000003814697,immed,50203.9999961853,Fri Mar 28 2025 13:44:56 GMT-0500 (Central Daylight Time),725173.6999999881,A,ha,O,a,144,1,649.1999999880791,724524.5,7084,WL,A,6.0
7,10.128999948501587,immed,49871.00005149841,Fri Mar 28 2025 13:44:56 GMT-0500 (Central Daylight Time),725506.8000000119,A,har,O,r,322,1,982.3000000119209,724524.5,7084,WL,A,6.0
7,10.346999883651733,immed,49653.00011634827,Fri Mar 28 2025 13:44:56 GMT-0500 (Central Daylight Time),725723.900000006,A,harp,O,p,196,1,1199.4000000059605,724524.5,7084,WL,A,6.0
7,10.59499979019165,immed,49405.00020980835,Fri Mar 28 2025 13:44:56 GMT-0500 (Central Daylight Time),725972.400000006,A,harpenter,O,enter,233,1,1447.9000000059605,724524.5,7084,WL,A,6.0
7,10.829999923706055,immed,49170.000076293945,Fri Mar 28 2025 13:44:56 GMT-0500 (Central Daylight Time),726207.1999999881,A,s,O,s,228,1,234.69999998807907,725972.5,7084,WL,A,7.0
7,10.978999853134155,immed,49021.000146865845,Fri Mar 28 2025 13:44:56 GMT-0500 (Central Daylight Time),726356.3000000119,A,sa,O,a,142,1,383.80000001192093,725972.5,7084,WL,A,7.0
7,11.296000003814697,immed,48703.9999961853,Fri Mar 28 2025 13:44:56 GMT-0500 (Central Daylight Time),726673.1999999881,A,sal,O,l,299,1,700.6999999880791,725972.5,7084,WL,A,7.0
7,11.69599986076355,immed,48304.00013923645,Fri Mar 28 2025 13:44:56 GMT-0500 (Central Daylight Time),727073.400000006,A,salt,O,t,382,1,1100.9000000059605,725972.5,7084,WL,A,7.0
7,12.060999870300293,immed,47939.00012969971,Fri Mar 28 2025 13:44:56 GMT-0500 (Central Daylight Time),727438.099999994,A,saltenter,O,enter,359,1,1465.5999999940395,725972.5,7084,WL,A,7.0
7,12.478999853134155,immed,47521.000146865845,Fri Mar 28 2025 13:44:56 GMT-0500 (Central Daylight Time),727856.8000000119,A,f,O,f,410,1,418.40000000596046,727438.400000006,7084,WL,A,8.0
7,12.644999980926514,immed,47355.000019073486,Fri Mar 28 2025 13:44:56 GMT-0500 (Central Daylight Time),728022.900000006,A,fi,O,i,159,1,584.5,727438.400000006,7084,WL,A,8.0
7,12.813999891281128,immed,47186.00010871887,Fri Mar 28 2025 13:44:56 GMT-0500 (Central Daylight Time),728191.0,A,fin,O,n,153,1,752.5999999940395,727438.400000006,7084,WL,A,8.0
7,13.061999797821045,immed,46938.000202178955,Fri Mar 28 2025 13:44:56 GMT-0500 (Central Daylight Time),728439.1999999881,A,fing,O,g,223,1,1000.7999999821186,727438.400000006,7084,WL,A,8.0
7,13.245999813079834,immed,46754.000186920166,Fri Mar 28 2025 13:44:56 GMT-0500 (Central Daylight Time),728623.0,A,finge,O,e,177,1,1184.5999999940395,727438.400000006,7084,WL,A,8.0
7,13.377999782562256,immed,46622.000217437744,Fri Mar 28 2025 13:44:56 GMT-0500 (Central Daylight Time),728755.599999994,A,finger,O,r,119,1,1317.199999988079,727438.400000006,7084,WL,A,8.0
7,13.593999862670898,immed,46406.0001373291,Fri Mar 28 2025 13:44:56 GMT-0500 (Central Daylight Time),728971.3000000119,A,fingerenter,O,enter,193,1,1532.9000000059605,727438.400000006,7084,WL,A,8.0
7,13.961999893188477,immed,46038.00010681152,Fri Mar 28 2025 13:44:56 GMT-0500 (Central Daylight Time),729339.6999999881,A,a,O,a,350,1,368.2999999821186,728971.400000006,7084,WL,A,9.0
7,14.276999950408936,immed,45723.000049591064,Fri Mar 28 2025 13:44:56 GMT-0500 (Central Daylight Time),729654.900000006,A,ap,O,p,300,1,683.5,728971.400000006,7084,WL,A,9.0
7,14.429999828338623,immed,45570.00017166138,Fri Mar 28 2025 13:44:56 GMT-0500 (Central Daylight Time),729807.099999994,A,app,O,p,146,1,835.6999999880791,728971.400000006,7084,WL,A,9.0
7,14.59499979019165,immed,45405.00020980835,Fri Mar 28 2025 13:44:56 GMT-0500 (Central Daylight Time),729972.599999994,A,appl,O,l,143,1,1001.1999999880791,728971.400000006,7084,WL,A,9.0
7,15.311999797821045,immed,44688.000202178955,Fri Mar 28 2025 13:44:56 GMT-0500 (Central Daylight Time),730689.099999994,A,apple,O,e,707,1,1717.699999988079,728971.400000006,7084,WL,A,9.0
7,16.90999984741211,immed,43090.00015258789,Fri Mar 28 2025 13:44:56 GMT-0500 (Central Daylight Time),732287.599999994,A,applel,O,l,1590,1,3316.199999988079,728971.400000006,7084,WL,A,9.0
7,17.17799997329712,immed,42822.00002670288,Fri Mar 28 2025 13:44:56 GMT-0500 (Central Daylight Time),732555.099999994,A,applelo,O,o,246,1,3583.699999988079,728971.400000006,7084,WL,A,9.0
7,17.55999994277954,immed,42440.00005722046,Fri Mar 28 2025 13:44:56 GMT-0500 (Central Daylight Time),732937.6999999881,A,applelog,O,g,363,1,3966.2999999821186,728971.400000006,7084,WL,A,9.0
7,18.459999799728394,immed,41540.00020027161,Fri Mar 28 2025 13:44:56 GMT-0500 (Central Daylight Time),733837.0,A,applelo,O,backspace,886,1,4865.5999999940395,728971.400000006,7084,WL,A,9.0
7,18.742999792099,immed,41257.000207901,Fri Mar 28 2025 13:44:56 GMT-0500 (Central Daylight Time),734120.0,A,applel,O,backspace,275,1,5148.5999999940395,728971.400000006,7084,WL,A,9.0
7,19.09499979019165,immed,40905.00020980835,Fri Mar 28 2025 13:44:56 GMT-0500 (Central Daylight Time),734471.900000006,A,apple,O,backspace,347,1,5500.5,728971.400000006,7084,WL,A,9.0
7,19.492999792099,immed,40507.000207901,Fri Mar 28 2025 13:44:56 GMT-0500 (Central Daylight Time),734870.3000000119,A,appleenter,O,enter,393,1,5898.9000000059605,728971.400000006,7084,WL,A,9.0
7,19.925999879837036,immed,40074.000120162964,Fri Mar 28 2025 13:44:56 GMT-0500 (Central Daylight Time),735303.6999999881,A,l,O,l,417,1,433.19999998807907,734870.5,7084,WL,A,10.0
7,20.242999792099,immed,39757.000207901,Fri Mar 28 2025 13:44:56 GMT-0500 (Central Daylight Time),735620.0,A,lo,O,o,304,1,749.5,734870.5,7084,WL,A,10.0
7,20.90999984741211,immed,39090.00015258789,Fri Mar 28 2025 13:44:56 GMT-0500 (Central Daylight Time),736287.8000000119,A,log,O,g,662,1,1417.300000011921,734870.5,7084,WL,A,10.0
7,21.625999927520752,immed,38374.00007247925,Fri Mar 28 2025 13:44:56 GMT-0500 (Central Daylight Time),737003.5,A,logenter,O,enter,694,1,2133.0,734870.5,7084,WL,A,10.0
7,22.024999856948853,immed,37975.00014305115,Fri Mar 28 2025 13:44:56 GMT-0500 (Central Daylight Time),737402.5,A,c,O,c,380,1,398.69999998807907,737003.8000000119,7084,WL,A,11.0
7,22.20799994468689,immed,37792.00005531311,Fri Mar 28 2025 13:44:56 GMT-0500 (Central Daylight Time),737585.6999999881,A,ch,O,h,163,1,581.8999999761581,737003.8000000119,7084,WL,A,11.0
7,22.29199981689453,immed,37708.00018310547,Fri Mar 28 2025 13:44:56 GMT-0500 (Central Daylight Time),737669.1999999881,A,chi,O,i,68,1,665.3999999761581,737003.8000000119,7084,WL,A,11.0
7,22.524999856948853,immed,37475.00014305115,Fri Mar 28 2025 13:44:56 GMT-0500 (Central Daylight Time),737902.900000006,A,chim,O,m,225,1,899.0999999940395,737003.8000000119,7084,WL,A,11.0
