block_c,block_dur,condition,countdown,datetime,endtime,list,multichar_response,project,response,response_time,session_number,start_end,starttime,subject_id,task,task_vers,trial
,,,,Fri Feb 14 2025 14:14:20 GMT-0600 (Central Standard Time),,,,O,space,801,1,,,7057,WL,C,
prac,,0,,Fri Feb 14 2025 14:14:20 GMT-0600 (Central Standard Time),,NA,b,O,b,6846,1,,,7057,WL,C,1.0
prac,,0,,Fri Feb 14 2025 14:14:20 GMT-0600 (Central Standard Time),,NA,bo,O,o,1977,1,,,7057,WL,C,1.0
prac,,0,,Fri Feb 14 2025 14:14:20 GMT-0600 (Central Standard Time),,NA,boo,O,o,159,1,,,7057,WL,C,1.0
prac,,0,,Fri Feb 14 2025 14:14:20 GMT-0600 (Central Standard Time),,NA,boos,O,s,249,1,,,7057,WL,C,1.0
prac,,0,,Fri Feb 14 2025 14:14:20 GMT-0600 (Central Standard Time),,NA,boost,O,t,328,1,,,7057,WL,C,1.0
prac,,0,,Fri Feb 14 2025 14:14:20 GMT-0600 (Central Standard Time),,NA,boostenter,O,enter,1858,1,,,7057,WL,C,1.0
1,1.3530001640319824,learn,58646.99983596802,Fri Feb 14 2025 14:14:20 GMT-0600 (Central Standard Time),151316.10000002384,A,t,O,t,1337,1,1352.3999999761581,149963.70000004768,7057,WL,C,1.0
1,1.569000005722046,learn,58430.999994277954,Fri Feb 14 2025 14:14:20 GMT-0600 (Central Standard Time),151532.0,A,to,O,o,200,1,1568.2999999523163,149963.70000004768,7057,WL,C,1.0
1,1.9860000610351562,learn,58013.999938964844,Fri Feb 14 2025 14:14:20 GMT-0600 (Central Standard Time),151949.0,A,tow,O,w,408,1,1985.2999999523163,149963.70000004768,7057,WL,C,1.0
1,2.134999990463257,learn,57865.00000953674,Fri Feb 14 2025 14:14:20 GMT-0600 (Central Standard Time),152098.60000002384,A,towe,O,e,133,1,2134.899999976158,149963.70000004768,7057,WL,C,1.0
1,2.4680001735687256,learn,57531.999826431274,Fri Feb 14 2025 14:14:20 GMT-0600 (Central Standard Time),152431.30000007153,A,tower,O,r,320,1,2467.600000023842,149963.70000004768,7057,WL,C,1.0
1,3.883000135421753,learn,56116.99986457825,Fri Feb 14 2025 14:14:20 GMT-0600 (Central Standard Time),153845.80000007153,A,towerenter,O,enter,1393,1,3882.100000023842,149963.70000004768,7057,WL,C,1.0
1,4.835000038146973,learn,55164.99996185303,Fri Feb 14 2025 14:14:20 GMT-0600 (Central Standard Time),154798.0,A,w,O,w,943,1,951.6999999284744,153846.30000007153,7057,WL,C,2.0
1,5.134999990463257,learn,54865.00000953674,Fri Feb 14 2025 14:14:20 GMT-0600 (Central Standard Time),155098.10000002384,A,wh,O,h,273,1,1251.7999999523163,153846.30000007153,7057,WL,C,2.0
1,5.402000188827515,learn,54597.999811172485,Fri Feb 14 2025 14:14:20 GMT-0600 (Central Standard Time),155365.40000009537,A,whe,O,e,258,1,1519.1000000238419,153846.30000007153,7057,WL,C,2.0
1,5.818000078201294,learn,54181.999921798706,Fri Feb 14 2025 14:14:20 GMT-0600 (Central Standard Time),155780.90000009537,A,whea,O,a,396,1,1934.6000000238419,153846.30000007153,7057,WL,C,2.0
1,5.968000173568726,learn,54031.999826431274,Fri Feb 14 2025 14:14:20 GMT-0600 (Central Standard Time),155931.30000007153,A,wheat,O,t,133,1,2085.0,153846.30000007153,7057,WL,C,2.0
1,7.233999967575073,learn,52766.00003242493,Fri Feb 14 2025 14:14:20 GMT-0600 (Central Standard Time),157196.80000007153,A,wheatenter,O,enter,1246,1,3350.5,153846.30000007153,7057,WL,C,2.0
1,8.532999992370605,learn,51467.000007629395,Fri Feb 14 2025 14:14:20 GMT-0600 (Central Standard Time),158496.60000002384,A,q,O,q,1277,1,1299.3999999761581,157197.20000004768,7057,WL,C,3.0
1,9.249000072479248,learn,50750.99992752075,Fri Feb 14 2025 14:14:20 GMT-0600 (Central Standard Time),159212.90000009537,A,qu,O,u,708,1,2015.7000000476837,157197.20000004768,7057,WL,C,3.0
1,9.633000135421753,learn,50366.99986457825,Fri Feb 14 2025 14:14:20 GMT-0600 (Central Standard Time),159596.0,A,que,O,e,366,1,2398.7999999523163,157197.20000004768,7057,WL,C,3.0
1,9.833000183105469,learn,50166.99981689453,Fri Feb 14 2025 14:14:20 GMT-0600 (Central Standard Time),159796.70000004768,A,quee,O,e,183,1,2599.5,157197.20000004768,7057,WL,C,3.0
1,10.001000165939331,learn,49998.99983406067,Fri Feb 14 2025 14:14:20 GMT-0600 (Central Standard Time),159963.80000007153,A,queen,O,n,157,1,2766.600000023842,157197.20000004768,7057,WL,C,3.0
1,10.866000175476074,learn,49133.999824523926,Fri Feb 14 2025 14:14:20 GMT-0600 (Central Standard Time),160829.20000004768,A,queenenter,O,enter,845,1,3632.0,157197.20000004768,7057,WL,C,3.0
1,11.799000024795532,learn,48200.99997520447,Fri Feb 14 2025 14:14:20 GMT-0600 (Central Standard Time),161761.80000007153,A,b,O,b,924,1,932.3000000715256,160829.5,7057,WL,C,4.0
1,12.114000082015991,learn,47885.99991798401,Fri Feb 14 2025 14:14:20 GMT-0600 (Central Standard Time),162077.30000007153,A,bo,O,o,307,1,1247.8000000715256,160829.5,7057,WL,C,4.0
1,12.365000009536743,learn,47634.99999046326,Fri Feb 14 2025 14:14:20 GMT-0600 (Central Standard Time),162328.0,A,bot,O,t,241,1,1498.5,160829.5,7057,WL,C,4.0
1,13.582000017166138,learn,46417.99998283386,Fri Feb 14 2025 14:14:20 GMT-0600 (Central Standard Time),163545.10000002384,A,bo,O,backspace,1195,1,2715.600000023842,160829.5,7057,WL,C,4.0
1,14.098000049591064,learn,45901.999950408936,Fri Feb 14 2025 14:14:20 GMT-0600 (Central Standard Time),164061.70000004768,A,boy,O,y,498,1,3232.2000000476837,160829.5,7057,WL,C,4.0
1,14.781000137329102,learn,45218.9998626709,Fri Feb 14 2025 14:14:20 GMT-0600 (Central Standard Time),164744.80000007153,A,boyenter,O,enter,661,1,3915.3000000715256,160829.5,7057,WL,C,4.0
1,15.815000057220459,learn,44184.99994277954,Fri Feb 14 2025 14:14:20 GMT-0600 (Central Standard Time),165778.10000002384,A,b,O,b,1008,1,1033.1000000238419,164745.0,7057,WL,C,5.0
1,16.40000009536743,learn,43599.99990463257,Fri Feb 14 2025 14:14:20 GMT-0600 (Central Standard Time),166362.80000007153,A,bo,O,o,575,1,1617.8000000715256,164745.0,7057,WL,C,5.0
1,16.647000074386597,learn,43352.9999256134,Fri Feb 14 2025 14:14:20 GMT-0600 (Central Standard Time),166610.40000009537,A,bod,O,d,231,1,1865.4000000953674,164745.0,7057,WL,C,5.0
1,16.897000074386597,learn,43102.9999256134,Fri Feb 14 2025 14:14:20 GMT-0600 (Central Standard Time),166860.40000009537,A,body,O,y,241,1,2115.4000000953674,164745.0,7057,WL,C,5.0
1,17.77999997138977,learn,42220.00002861023,Fri Feb 14 2025 14:14:20 GMT-0600 (Central Standard Time),167743.5,A,bodyenter,O,enter,862,1,2998.5,164745.0,7057,WL,C,5.0
1,18.847000122070312,learn,41152.99987792969,Fri Feb 14 2025 14:14:20 GMT-0600 (Central Standard Time),168810.0,A,s,O,s,1042,1,1066.0999999046326,167743.90000009537,7057,WL,C,6.0
1,19.016000032424927,learn,40983.99996757507,Fri Feb 14 2025 14:14:20 GMT-0600 (Central Standard Time),168979.0,A,sh,O,h,144,1,1235.0999999046326,167743.90000009537,7057,WL,C,6.0
1,19.430000066757202,learn,40569.9999332428,Fri Feb 14 2025 14:14:20 GMT-0600 (Central Standard Time),169393.10000002384,A,sho,O,o,399,1,1649.1999999284744,167743.90000009537,7057,WL,C,6.0
1,19.763000011444092,learn,40236.99998855591,Fri Feb 14 2025 14:14:20 GMT-0600 (Central Standard Time),169726.20000004768,A,shor,O,r,315,1,1982.2999999523163,167743.90000009537,7057,WL,C,6.0
1,19.962000131607056,learn,40037.999868392944,Fri Feb 14 2025 14:14:20 GMT-0600 (Central Standard Time),169925.30000007153,A,shore,O,e,187,1,2181.399999976158,167743.90000009537,7057,WL,C,6.0
1,20.59600019454956,learn,39403.99980545044,Fri Feb 14 2025 14:14:20 GMT-0600 (Central Standard Time),170559.5,A,shoreenter,O,enter,612,1,2815.5999999046326,167743.90000009537,7057,WL,C,6.0
1,23.17799997329712,learn,36822.00002670288,Fri Feb 14 2025 14:14:20 GMT-0600 (Central Standard Time),173141.0,A,l,O,l,2563,1,2581.1999999284744,170559.80000007153,7057,WL,C,7.0
1,23.41200017929077,learn,36587.99982070923,Fri Feb 14 2025 14:14:20 GMT-0600 (Central Standard Time),173375.10000002384,A,le,O,e,222,1,2815.2999999523163,170559.80000007153,7057,WL,C,7.0
1,23.680000066757202,learn,36319.9999332428,Fri Feb 14 2025 14:14:20 GMT-0600 (Central Standard Time),173642.90000009537,A,let,O,t,260,1,3083.100000023842,170559.80000007153,7057,WL,C,7.0
1,23.84500002861023,learn,36154.99997138977,Fri Feb 14 2025 14:14:20 GMT-0600 (Central Standard Time),173808.10000002384,A,lett,O,t,151,1,3248.2999999523163,170559.80000007153,7057,WL,C,7.0
1,24.028000116348267,learn,35971.99988365173,Fri Feb 14 2025 14:14:20 GMT-0600 (Central Standard Time),173991.70000004768,A,lette,O,e,171,1,3431.899999976158,170559.80000007153,7057,WL,C,7.0
1,24.24400019645691,learn,35755.99980354309,Fri Feb 14 2025 14:14:20 GMT-0600 (Central Standard Time),174207.40000009537,A,letter,O,r,195,1,3647.600000023842,170559.80000007153,7057,WL,C,7.0
1,25.528000116348267,learn,34471.99988365173,Fri Feb 14 2025 14:14:20 GMT-0600 (Central Standard Time),175491.0,A,letterenter,O,enter,1267,1,4931.199999928474,170559.80000007153,7057,WL,C,7.0
1,60.01600003242493,learn,-16.000032424926758,Fri Feb 14 2025 14:14:20 GMT-0600 (Central Standard Time),209979.90000009537,A,None,O,None,34480,1,34488.60000002384,175491.30000007153,7057,WL,C,8.0
2,1.566999912261963,learn,58433.00008773804,Fri Feb 14 2025 14:14:20 GMT-0600 (Central Standard Time),294354.2000000477,A,t,O,t,1545,1,1567.1000000238419,292787.10000002384,7057,WL,C,1.0
2,1.93399977684021,learn,58066.00022315979,Fri Feb 14 2025 14:14:20 GMT-0600 (Central Standard Time),294720.8000000715,A,to,O,o,345,1,1933.7000000476837,292787.10000002384,7057,WL,C,1.0
2,2.298999786376953,learn,57701.00021362305,Fri Feb 14 2025 14:14:20 GMT-0600 (Central Standard Time),295085.8000000715,A,tow,O,w,346,1,2298.7000000476837,292787.10000002384,7057,WL,C,1.0
2,2.381999969482422,learn,57618.00003051758,Fri Feb 14 2025 14:14:20 GMT-0600 (Central Standard Time),295168.90000009537,A,towe,O,e,68,1,2381.8000000715256,292787.10000002384,7057,WL,C,1.0
2,2.697999954223633,learn,57302.00004577637,Fri Feb 14 2025 14:14:20 GMT-0600 (Central Standard Time),295485.2000000477,A,tower,O,r,309,1,2698.100000023842,292787.10000002384,7057,WL,C,1.0
2,3.3319997787475586,learn,56668.00022125244,Fri Feb 14 2025 14:14:20 GMT-0600 (Central Standard Time),296119.0,A,towerw,O,w,622,1,3331.899999976158,292787.10000002384,7057,WL,C,1.0
2,3.5179998874664307,learn,56482.00011253357,Fri Feb 14 2025 14:14:20 GMT-0600 (Central Standard Time),296304.90000009537,A,towerwh,O,h,173,1,3517.8000000715256,292787.10000002384,7057,WL,C,1.0
2,3.8489999771118164,learn,56151.00002288818,Fri Feb 14 2025 14:14:20 GMT-0600 (Central Standard Time),296636.2000000477,A,towerwhe,O,e,324,1,3849.100000023842,292787.10000002384,7057,WL,C,1.0
2,4.182999849319458,learn,55817.00015068054,Fri Feb 14 2025 14:14:20 GMT-0600 (Central Standard Time),296970.40000009537,A,towerwhea,O,a,321,1,4183.300000071526,292787.10000002384,7057,WL,C,1.0
2,4.848999977111816,learn,55151.00002288818,Fri Feb 14 2025 14:14:20 GMT-0600 (Central Standard Time),297636.40000009537,A,towerwhe,O,backspace,660,1,4849.300000071526,292787.10000002384,7057,WL,C,1.0
2,5.0309998989105225,learn,54969.00010108948,Fri Feb 14 2025 14:14:20 GMT-0600 (Central Standard Time),297818.90000009537,A,towerwh,O,backspace,167,1,5031.800000071526,292787.10000002384,7057,WL,C,1.0
2,5.23199987411499,learn,54768.00012588501,Fri Feb 14 2025 14:14:20 GMT-0600 (Central Standard Time),298019.40000009537,A,towerw,O,backspace,186,1,5232.300000071526,292787.10000002384,7057,WL,C,1.0
2,5.414999961853027,learn,54585.00003814697,Fri Feb 14 2025 14:14:20 GMT-0600 (Central Standard Time),298202.7000000477,A,tower,O,backspace,176,1,5415.600000023842,292787.10000002384,7057,WL,C,1.0
2,5.613999843597412,learn,54386.00015640259,Fri Feb 14 2025 14:14:20 GMT-0600 (Central Standard Time),298401.8000000715,A,towe,O,backspace,181,1,5614.700000047684,292787.10000002384,7057,WL,C,1.0
2,6.8459999561309814,learn,53154.00004386902,Fri Feb 14 2025 14:14:20 GMT-0600 (Central Standard Time),299633.90000009537,A,tower,O,r,1219,1,6846.800000071526,292787.10000002384,7057,WL,C,1.0
2,7.430999994277954,learn,52569.000005722046,Fri Feb 14 2025 14:14:20 GMT-0600 (Central Standard Time),300218.10000002384,A,towerenter,O,enter,570,1,7431.0,292787.10000002384,7057,WL,C,1.0
2,8.462999820709229,learn,51537.00017929077,Fri Feb 14 2025 14:14:20 GMT-0600 (Central Standard Time),301250.60000002384,A,w,O,w,1016,1,1032.2999999523163,300218.3000000715,7057,WL,C,2.0
2,8.631999969482422,learn,51368.00003051758,Fri Feb 14 2025 14:14:20 GMT-0600 (Central Standard Time),301419.10000002384,A,wh,O,h,161,1,1200.7999999523163,300218.3000000715,7057,WL,C,2.0
2,8.830999851226807,learn,51169.00014877319,Fri Feb 14 2025 14:14:20 GMT-0600 (Central Standard Time),301618.2000000477,A,whe,O,e,175,1,1399.8999999761581,300218.3000000715,7057,WL,C,2.0
2,9.179999828338623,learn,50820.00017166138,Fri Feb 14 2025 14:14:20 GMT-0600 (Central Standard Time),301967.7000000477,A,whea,O,a,328,1,1749.3999999761581,300218.3000000715,7057,WL,C,2.0
2,9.346999883651733,learn,50653.00011634827,Fri Feb 14 2025 14:14:20 GMT-0600 (Central Standard Time),302134.7000000477,A,wheat,O,t,143,1,1916.3999999761581,300218.3000000715,7057,WL,C,2.0
2,10.196999788284302,learn,49803.0002117157,Fri Feb 14 2025 14:14:20 GMT-0600 (Central Standard Time),302984.2000000477,A,wheatenter,O,enter,835,1,2765.899999976158,300218.3000000715,7057,WL,C,2.0
2,11.429999828338623,learn,48570.00017166138,Fri Feb 14 2025 14:14:20 GMT-0600 (Central Standard Time),304217.3000000715,A,q,O,q,1212,1,1232.6000000238419,302984.7000000477,7057,WL,C,3.0
2,11.61299991607666,learn,48387.00008392334,Fri Feb 14 2025 14:14:20 GMT-0600 (Central Standard Time),304400.10000002384,A,qu,O,u,161,1,1415.3999999761581,302984.7000000477,7057,WL,C,3.0
2,11.793999910354614,learn,48206.000089645386,Fri Feb 14 2025 14:14:20 GMT-0600 (Central Standard Time),304581.10000002384,A,que,O,e,170,1,1596.3999999761581,302984.7000000477,7057,WL,C,3.0
2,12.162999868392944,learn,47837.000131607056,Fri Feb 14 2025 14:14:20 GMT-0600 (Central Standard Time),304950.2000000477,A,quee,O,e,362,1,1965.5,302984.7000000477,7057,WL,C,3.0
2,12.377999782562256,learn,47622.000217437744,Fri Feb 14 2025 14:14:20 GMT-0600 (Central Standard Time),305165.5,A,queen,O,n,205,1,2180.7999999523163,302984.7000000477,7057,WL,C,3.0
2,13.227999925613403,learn,46772.0000743866,Fri Feb 14 2025 14:14:20 GMT-0600 (Central Standard Time),306015.5,A,queenenter,O,enter,838,1,3030.7999999523163,302984.7000000477,7057,WL,C,3.0
2,14.178999900817871,learn,45821.00009918213,Fri Feb 14 2025 14:14:20 GMT-0600 (Central Standard Time),306966.5,A,d,O,d,939,1,950.6999999284744,306015.8000000715,7057,WL,C,4.0
2,14.328999996185303,learn,45671.0000038147,Fri Feb 14 2025 14:14:20 GMT-0600 (Central Standard Time),307116.2000000477,A,do,O,o,132,1,1100.3999999761581,306015.8000000715,7057,WL,C,4.0
2,14.510999917984009,learn,45489.00008201599,Fri Feb 14 2025 14:14:20 GMT-0600 (Central Standard Time),307298.90000009537,A,doc,O,c,175,1,1283.1000000238419,306015.8000000715,7057,WL,C,4.0
2,14.876999855041504,learn,45123.000144958496,Fri Feb 14 2025 14:14:20 GMT-0600 (Central Standard Time),307665.10000002384,A,doct,O,t,353,1,1649.2999999523163,306015.8000000715,7057,WL,C,4.0
2,15.111999988555908,learn,44888.00001144409,Fri Feb 14 2025 14:14:20 GMT-0600 (Central Standard Time),307899.5,A,docto,O,o,220,1,1883.6999999284744,306015.8000000715,7057,WL,C,4.0
2,15.478999853134155,learn,44521.000146865845,Fri Feb 14 2025 14:14:20 GMT-0600 (Central Standard Time),308266.2000000477,A,doctor,O,r,344,1,2250.399999976158,306015.8000000715,7057,WL,C,4.0
2,16.127999782562256,learn,43872.000217437744,Fri Feb 14 2025 14:14:20 GMT-0600 (Central Standard Time),308916.0,A,doctorenter,O,enter,638,1,2900.1999999284744,306015.8000000715,7057,WL,C,4.0
2,17.627999782562256,learn,42372.000217437744,Fri Feb 14 2025 14:14:20 GMT-0600 (Central Standard Time),310415.3000000715,A,h,O,h,1479,1,1499.0,308916.3000000715,7057,WL,C,5.0
2,17.80999994277954,learn,42190.00005722046,Fri Feb 14 2025 14:14:20 GMT-0600 (Central Standard Time),310598.0,A,ho,O,o,162,1,1681.6999999284744,308916.3000000715,7057,WL,C,5.0
2,18.127999782562256,learn,41872.000217437744,Fri Feb 14 2025 14:14:20 GMT-0600 (Central Standard Time),310915.10000002384,A,hom,O,m,294,1,1998.7999999523163,308916.3000000715,7057,WL,C,5.0
2,18.40999984741211,learn,41590.00015258789,Fri Feb 14 2025 14:14:20 GMT-0600 (Central Standard Time),311197.40000009537,A,home,O,e,276,1,2281.100000023842,308916.3000000715,7057,WL,C,5.0
2,18.97599983215332,learn,41024.00016784668,Fri Feb 14 2025 14:14:20 GMT-0600 (Central Standard Time),311763.7000000477,A,homeenter,O,enter,559,1,2847.399999976158,308916.3000000715,7057,WL,C,5.0
2,19.80999994277954,learn,40190.00005722046,Fri Feb 14 2025 14:14:20 GMT-0600 (Central Standard Time),312597.90000009537,A,b,O,b,814,1,834.0,311763.90000009537,7057,WL,C,6.0
2,20.425999879837036,learn,39574.000120162964,Fri Feb 14 2025 14:14:20 GMT-0600 (Central Standard Time),313213.8000000715,A,bo,O,o,608,1,1449.8999999761581,311763.90000009537,7057,WL,C,6.0
2,20.709999799728394,learn,39290.00020027161,Fri Feb 14 2025 14:14:20 GMT-0600 (Central Standard Time),313497.10000002384,A,boy,O,y,270,1,1733.1999999284744,311763.90000009537,7057,WL,C,6.0
2,21.723999977111816,learn,38276.00002288818,Fri Feb 14 2025 14:14:20 GMT-0600 (Central Standard Time),314511.2000000477,A,boyenter,O,enter,993,1,2747.2999999523163,311763.90000009537,7057,WL,C,6.0
2,24.22599983215332,learn,35774.00016784668,Fri Feb 14 2025 14:14:20 GMT-0600 (Central Standard Time),317013.2000000477,A,l,O,l,2491,1,2501.7000000476837,314511.5,7057,WL,C,7.0
2,24.473999977111816,learn,35526.00002288818,Fri Feb 14 2025 14:14:20 GMT-0600 (Central Standard Time),317262.0,A,le,O,e,235,1,2750.5,314511.5,7057,WL,C,7.0
2,24.740999937057495,learn,35259.000062942505,Fri Feb 14 2025 14:14:20 GMT-0600 (Central Standard Time),317528.60000002384,A,let,O,t,255,1,3017.100000023842,314511.5,7057,WL,C,7.0
2,24.89199995994568,learn,35108.00004005432,Fri Feb 14 2025 14:14:20 GMT-0600 (Central Standard Time),317679.2000000477,A,lett,O,t,140,1,3167.7000000476837,314511.5,7057,WL,C,7.0
2,25.107999801635742,learn,34892.00019836426,Fri Feb 14 2025 14:14:20 GMT-0600 (Central Standard Time),317895.5,A,lette,O,e,195,1,3384.0,314511.5,7057,WL,C,7.0
2,25.242999792099,learn,34757.000207901,Fri Feb 14 2025 14:14:20 GMT-0600 (Central Standard Time),318030.7000000477,A,letter,O,r,122,1,3519.2000000476837,314511.5,7057,WL,C,7.0
2,26.906999826431274,learn,33093.000173568726,Fri Feb 14 2025 14:14:20 GMT-0600 (Central Standard Time),319695.0,A,letterenter,O,enter,1644,1,5183.5,314511.5,7057,WL,C,7.0
2,31.774999856948853,learn,28225.000143051147,Fri Feb 14 2025 14:14:20 GMT-0600 (Central Standard Time),324562.3000000715,A,c,O,c,4844,1,4866.899999976158,319695.40000009537,7057,WL,C,8.0
2,31.98799991607666,learn,28012.00008392334,Fri Feb 14 2025 14:14:20 GMT-0600 (Central Standard Time),324776.10000002384,A,ca,O,a,193,1,5080.699999928474,319695.40000009537,7057,WL,C,8.0
2,32.305999994277954,learn,27694.000005722046,Fri Feb 14 2025 14:14:20 GMT-0600 (Central Standard Time),325093.2000000477,A,cat,O,t,291,1,5397.799999952316,319695.40000009537,7057,WL,C,8.0
2,32.45699977874756,learn,27543.00022125244,Fri Feb 14 2025 14:14:20 GMT-0600 (Central Standard Time),325244.10000002384,A,catt,O,t,139,1,5548.699999928474,319695.40000009537,7057,WL,C,8.0
2,33.038999795913696,learn,26961.000204086304,Fri Feb 14 2025 14:14:20 GMT-0600 (Central Standard Time),325826.8000000715,A,cattl,O,l,567,1,6131.399999976158,319695.40000009537,7057,WL,C,8.0
2,33.305999994277954,learn,26694.000005722046,Fri Feb 14 2025 14:14:20 GMT-0600 (Central Standard Time),326093.2000000477,A,cattle,O,e,257,1,6397.799999952316,319695.40000009537,7057,WL,C,8.0
2,33.92799997329712,learn,26072.00002670288,Fri Feb 14 2025 14:14:20 GMT-0600 (Central Standard Time),326715.10000002384,A,cattleenter,O,enter,595,1,7019.699999928474,319695.40000009537,7057,WL,C,8.0
2,35.5719997882843,learn,24428.0002117157,Fri Feb 14 2025 14:14:20 GMT-0600 (Central Standard Time),328359.10000002384,A,n,O,n,1634,1,1643.7999999523163,326715.3000000715,7057,WL,C,9.0
2,35.8219997882843,learn,24178.0002117157,Fri Feb 14 2025 14:14:20 GMT-0600 (Central Standard Time),328609.10000002384,A,na,O,a,234,1,1893.7999999523163,326715.3000000715,7057,WL,C,9.0
2,36.08899998664856,learn,23911.00001335144,Fri Feb 14 2025 14:14:20 GMT-0600 (Central Standard Time),328876.3000000715,A,nai,O,i,251,1,2161.0,326715.3000000715,7057,WL,C,9.0
2,36.537999868392944,learn,23462.000131607056,Fri Feb 14 2025 14:14:20 GMT-0600 (Central Standard Time),329325.8000000715,A,nail,O,l,442,1,2610.5,326715.3000000715,7057,WL,C,9.0
2,38.21999979019165,learn,21780.00020980835,Fri Feb 14 2025 14:14:20 GMT-0600 (Central Standard Time),331007.90000009537,A,nailenter,O,enter,1661,1,4292.600000023842,326715.3000000715,7057,WL,C,9.0
2,38.73699998855591,learn,21263.00001144409,Fri Feb 14 2025 14:14:20 GMT-0600 (Central Standard Time),331524.3000000715,A,c,O,c,508,1,516.3000000715256,331008.0,7057,WL,C,10.0
2,38.888999938964844,learn,21111.000061035156,Fri Feb 14 2025 14:14:20 GMT-0600 (Central Standard Time),331676.3000000715,A,co,O,o,142,1,668.3000000715256,331008.0,7057,WL,C,10.0
2,39.120999813079834,learn,20879.000186920166,Fri Feb 14 2025 14:14:20 GMT-0600 (Central Standard Time),331909.0,A,cor,O,r,224,1,901.0,331008.0,7057,WL,C,10.0
2,39.353999853134155,learn,20646.000146865845,Fri Feb 14 2025 14:14:20 GMT-0600 (Central Standard Time),332141.90000009537,A,corn,O,n,222,1,1133.9000000953674,331008.0,7057,WL,C,10.0
2,40.151999950408936,learn,19848.000049591064,Fri Feb 14 2025 14:14:20 GMT-0600 (Central Standard Time),332939.8000000715,A,cornenter,O,enter,780,1,1931.8000000715256,331008.0,7057,WL,C,10.0
2,45.769999980926514,learn,14230.000019073486,Fri Feb 14 2025 14:14:20 GMT-0600 (Central Standard Time),338557.10000002384,A,s,O,s,5600,1,5617.100000023842,332940.0,7057,WL,C,11.0
2,45.95199990272522,learn,14048.00009727478,Fri Feb 14 2025 14:14:20 GMT-0600 (Central Standard Time),338739.8000000715,A,su,O,u,167,1,5799.800000071526,332940.0,7057,WL,C,11.0
2,46.23299980163574,learn,13767.000198364258,Fri Feb 14 2025 14:14:20 GMT-0600 (Central Standard Time),339020.7000000477,A,sug,O,g,262,1,6080.700000047684,332940.0,7057,WL,C,11.0
2,46.467000007629395,learn,13532.999992370605,Fri Feb 14 2025 14:14:20 GMT-0600 (Central Standard Time),339254.8000000715,A,suga,O,a,215,1,6314.800000071526,332940.0,7057,WL,C,11.0
2,46.633999824523926,learn,13366.000175476074,Fri Feb 14 2025 14:14:20 GMT-0600 (Central Standard Time),339421.90000009537,A,sugar,O,r,145,1,6481.900000095367,332940.0,7057,WL,C,11.0
2,47.66799998283386,learn,12332.000017166138,Fri Feb 14 2025 14:14:20 GMT-0600 (Central Standard Time),340455.90000009537,A,sugarenter,O,enter,1014,1,7515.900000095367,332940.0,7057,WL,C,11.0
2,60.014999866485596,learn,-14.999866485595703,Fri Feb 14 2025 14:14:20 GMT-0600 (Central Standard Time),352802.60000002384,A,None,O,None,12338,1,12346.5,340456.10000002384,7057,WL,C,12.0
3,1.4509999752044678,learn,58549.00002479553,Fri Feb 14 2025 14:14:20 GMT-0600 (Central Standard Time),426894.90000009537,A,t,O,t,1435,1,1451.3000000715256,425443.60000002384,7057,WL,C,1.0
3,1.6339998245239258,learn,58366.000175476074,Fri Feb 14 2025 14:14:20 GMT-0600 (Central Standard Time),427077.3000000715,A,to,O,o,163,1,1633.7000000476837,425443.60000002384,7057,WL,C,1.0
3,1.9679999351501465,learn,58032.00006484985,Fri Feb 14 2025 14:14:20 GMT-0600 (Central Standard Time),427411.3000000715,A,tow,O,w,326,1,1967.7000000476837,425443.60000002384,7057,WL,C,1.0
3,2.0839998722076416,learn,57916.00012779236,Fri Feb 14 2025 14:14:20 GMT-0600 (Central Standard Time),427527.8000000715,A,towe,O,e,104,1,2084.2000000476837,425443.60000002384,7057,WL,C,1.0
3,2.3999998569488525,learn,57600.00014305115,Fri Feb 14 2025 14:14:20 GMT-0600 (Central Standard Time),427843.7000000477,A,tower,O,r,298,1,2400.100000023842,425443.60000002384,7057,WL,C,1.0
3,4.382999897003174,learn,55617.000102996826,Fri Feb 14 2025 14:14:20 GMT-0600 (Central Standard Time),429826.10000002384,A,towerenter,O,enter,1968,1,4382.5,425443.60000002384,7057,WL,C,1.0
3,6.5,learn,53500.0,Fri Feb 14 2025 14:14:20 GMT-0600 (Central Standard Time),431943.10000002384,A,q,O,q,2108,1,2116.899999976158,429826.2000000477,7057,WL,C,2.0
3,6.747999906539917,learn,53252.00009346008,Fri Feb 14 2025 14:14:20 GMT-0600 (Central Standard Time),432191.8000000715,A,qu,O,u,227,1,2365.600000023842,429826.2000000477,7057,WL,C,2.0
3,7.033999919891357,learn,52966.00008010864,Fri Feb 14 2025 14:14:20 GMT-0600 (Central Standard Time),432477.7000000477,A,que,O,e,279,1,2651.5,429826.2000000477,7057,WL,C,2.0
3,7.233000040054321,learn,52766.99995994568,Fri Feb 14 2025 14:14:20 GMT-0600 (Central Standard Time),432676.3000000715,A,quee,O,e,191,1,2850.100000023842,429826.2000000477,7057,WL,C,2.0
3,7.434000015258789,learn,52565.99998474121,Fri Feb 14 2025 14:14:20 GMT-0600 (Central Standard Time),432877.5,A,queen,O,n,183,1,3051.2999999523163,429826.2000000477,7057,WL,C,2.0
3,8.6489999294281,learn,51351.0000705719,Fri Feb 14 2025 14:14:20 GMT-0600 (Central Standard Time),434092.2000000477,A,queenenter,O,enter,1205,1,4266.0,429826.2000000477,7057,WL,C,2.0
3,10.69599986076355,learn,49304.00013923645,Fri Feb 14 2025 14:14:20 GMT-0600 (Central Standard Time),436139.60000002384,A,d,O,d,2031,1,2047.1999999284744,434092.40000009537,7057,WL,C,3.0
3,10.898000001907349,learn,49101.99999809265,Fri Feb 14 2025 14:14:20 GMT-0600 (Central Standard Time),436341.0,A,do,O,o,185,1,2248.5999999046326,434092.40000009537,7057,WL,C,3.0
3,11.082000017166138,learn,48917.99998283386,Fri Feb 14 2025 14:14:20 GMT-0600 (Central Standard Time),436525.5,A,doc,O,c,167,1,2433.0999999046326,434092.40000009537,7057,WL,C,3.0
3,11.430999994277954,learn,48569.000005722046,Fri Feb 14 2025 14:14:20 GMT-0600 (Central Standard Time),436874.7000000477,A,doct,O,t,341,1,2782.2999999523163,434092.40000009537,7057,WL,C,3.0
3,11.664999961853027,learn,48335.00003814697,Fri Feb 14 2025 14:14:20 GMT-0600 (Central Standard Time),437108.60000002384,A,docto,O,o,224,1,3016.1999999284744,434092.40000009537,7057,WL,C,3.0
3,11.863999843597412,learn,48136.00015640259,Fri Feb 14 2025 14:14:20 GMT-0600 (Central Standard Time),437307.8000000715,A,doctor,O,r,194,1,3215.399999976158,434092.40000009537,7057,WL,C,3.0
3,12.896999835968018,learn,47103.00016403198,Fri Feb 14 2025 14:14:20 GMT-0600 (Central Standard Time),438340.2000000477,A,doctorenter,O,enter,1022,1,4247.799999952316,434092.40000009537,7057,WL,C,3.0
3,14.096999883651733,learn,45903.00011634827,Fri Feb 14 2025 14:14:20 GMT-0600 (Central Standard Time),439540.60000002384,A,h,O,h,1193,1,1200.1000000238419,438340.5,7057,WL,C,4.0
3,14.29699993133545,learn,45703.00006866455,Fri Feb 14 2025 14:14:20 GMT-0600 (Central Standard Time),439740.5,A,ho,O,o,179,1,1400.0,438340.5,7057,WL,C,4.0
3,14.71399998664856,learn,45286.00001335144,Fri Feb 14 2025 14:14:20 GMT-0600 (Central Standard Time),440157.60000002384,A,hom,O,m,398,1,1817.1000000238419,438340.5,7057,WL,C,4.0
3,15.214999914169312,learn,44785.00008583069,Fri Feb 14 2025 14:14:20 GMT-0600 (Central Standard Time),440658.0,A,home,O,e,478,1,2317.5,438340.5,7057,WL,C,4.0
3,16.096999883651733,learn,43903.00011634827,Fri Feb 14 2025 14:14:20 GMT-0600 (Central Standard Time),441540.2000000477,A,homeenter,O,enter,863,1,3199.7000000476837,438340.5,7057,WL,C,4.0
3,16.697999954223633,learn,43302.00004577637,Fri Feb 14 2025 14:14:20 GMT-0600 (Central Standard Time),442141.10000002384,A,b,O,b,593,1,600.6000000238419,441540.5,7057,WL,C,5.0
3,16.92899990081787,learn,43071.00009918213,Fri Feb 14 2025 14:14:20 GMT-0600 (Central Standard Time),442372.7000000477,A,bo,O,o,223,1,832.2000000476837,441540.5,7057,WL,C,5.0
3,17.562999963760376,learn,42437.000036239624,Fri Feb 14 2025 14:14:20 GMT-0600 (Central Standard Time),443006.40000009537,A,boy,O,y,609,1,1465.9000000953674,441540.5,7057,WL,C,5.0
3,18.465999841690063,learn,41534.00015830994,Fri Feb 14 2025 14:14:20 GMT-0600 (Central Standard Time),443909.0,A,boyenter,O,enter,883,1,2368.5,441540.5,7057,WL,C,5.0
3,19.346999883651733,learn,40653.00011634827,Fri Feb 14 2025 14:14:20 GMT-0600 (Central Standard Time),444789.90000009537,A,c,O,c,872,1,880.7000000476837,443909.2000000477,7057,WL,C,6.0
3,19.5939998626709,learn,40406.0001373291,Fri Feb 14 2025 14:14:20 GMT-0600 (Central Standard Time),445037.5,A,ca,O,a,238,1,1128.2999999523163,443909.2000000477,7057,WL,C,6.0
3,19.911999940872192,learn,40088.00005912781,Fri Feb 14 2025 14:14:20 GMT-0600 (Central Standard Time),445355.60000002384,A,cam,O,m,304,1,1446.3999999761581,443909.2000000477,7057,WL,C,6.0
3,20.34599995613098,learn,39654.00004386902,Fri Feb 14 2025 14:14:20 GMT-0600 (Central Standard Time),445790.0,A,camp,O,p,426,1,1880.7999999523163,443909.2000000477,7057,WL,C,6.0
3,21.176999807357788,learn,38823.00019264221,Fri Feb 14 2025 14:14:20 GMT-0600 (Central Standard Time),446620.5,A,campenter,O,enter,812,1,2711.2999999523163,443909.2000000477,7057,WL,C,6.0
3,28.942999839782715,learn,31057.000160217285,Fri Feb 14 2025 14:14:20 GMT-0600 (Central Standard Time),454386.10000002384,A,s,O,s,7751,1,7765.199999928474,446620.90000009537,7057,WL,C,7.0
3,29.092000007629395,learn,30907.999992370605,Fri Feb 14 2025 14:14:20 GMT-0600 (Central Standard Time),454536.0,A,sh,O,h,130,1,7915.099999904633,446620.90000009537,7057,WL,C,7.0
3,29.54199981689453,learn,30458.00018310547,Fri Feb 14 2025 14:14:20 GMT-0600 (Central Standard Time),454985.90000009537,A,sho,O,o,434,1,8365.0,446620.90000009537,7057,WL,C,7.0
3,29.960000038146973,learn,30039.999961853027,Fri Feb 14 2025 14:14:20 GMT-0600 (Central Standard Time),455403.10000002384,A,shor,O,r,402,1,8782.199999928474,446620.90000009537,7057,WL,C,7.0
3,30.194000005722046,learn,29805.999994277954,Fri Feb 14 2025 14:14:20 GMT-0600 (Central Standard Time),455637.3000000715,A,shore,O,e,227,1,9016.399999976158,446620.90000009537,7057,WL,C,7.0
3,31.007999897003174,learn,28992.000102996826,Fri Feb 14 2025 14:14:20 GMT-0600 (Central Standard Time),456451.2000000477,A,shoreenter,O,enter,788,1,9830.299999952316,446620.90000009537,7057,WL,C,7.0
3,34.94199991226196,learn,25058.000087738037,Fri Feb 14 2025 14:14:20 GMT-0600 (Central Standard Time),460385.0,A,n,O,n,3912,1,3933.5999999046326,456451.40000009537,7057,WL,C,8.0
3,35.174999952316284,learn,24825.000047683716,Fri Feb 14 2025 14:14:20 GMT-0600 (Central Standard Time),460618.2000000477,A,na,O,a,209,1,4166.799999952316,456451.40000009537,7057,WL,C,8.0
3,35.54199981689453,learn,24458.00018310547,Fri Feb 14 2025 14:14:20 GMT-0600 (Central Standard Time),460985.40000009537,A,nai,O,i,338,1,4534.0,456451.40000009537,7057,WL,C,8.0
3,35.806999921798706,learn,24193.000078201294,Fri Feb 14 2025 14:14:20 GMT-0600 (Central Standard Time),461250.7000000477,A,nail,O,l,246,1,4799.299999952316,456451.40000009537,7057,WL,C,8.0
3,36.289000034332275,learn,23710.999965667725,Fri Feb 14 2025 14:14:20 GMT-0600 (Central Standard Time),461732.60000002384,A,nailenter,O,enter,464,1,5281.199999928474,456451.40000009537,7057,WL,C,8.0
3,37.18999981880188,learn,22810.00018119812,Fri Feb 14 2025 14:14:20 GMT-0600 (Central Standard Time),462633.2000000477,A,f,O,f,878,1,900.2999999523163,461732.90000009537,7057,WL,C,9.0
3,37.388999938964844,learn,22611.000061035156,Fri Feb 14 2025 14:14:20 GMT-0600 (Central Standard Time),462833.0,A,fl,O,l,176,1,1100.0999999046326,461732.90000009537,7057,WL,C,9.0
3,37.78999996185303,learn,22210.000038146973,Fri Feb 14 2025 14:14:20 GMT-0600 (Central Standard Time),463233.2000000477,A,fla,O,a,384,1,1500.2999999523163,461732.90000009537,7057,WL,C,9.0
3,38.240999937057495,learn,21759.000062942505,Fri Feb 14 2025 14:14:20 GMT-0600 (Central Standard Time),463684.40000009537,A,flag,O,g,443,1,1951.5,461732.90000009537,7057,WL,C,9.0
3,39.57299995422363,learn,20427.000045776367,Fri Feb 14 2025 14:14:20 GMT-0600 (Central Standard Time),465016.10000002384,A,flagenter,O,enter,1314,1,3283.1999999284744,461732.90000009537,7057,WL,C,9.0
3,43.039000034332275,learn,16960.999965667725,Fri Feb 14 2025 14:14:20 GMT-0600 (Central Standard Time),468482.40000009537,A,n,O,n,3441,1,3466.100000023842,465016.3000000715,7057,WL,C,10.0
3,43.20599985122681,learn,16794.000148773193,Fri Feb 14 2025 14:14:20 GMT-0600 (Central Standard Time),468649.60000002384,A,na,O,a,136,1,3633.2999999523163,465016.3000000715,7057,WL,C,10.0
3,43.370999813079834,learn,16629.000186920166,Fri Feb 14 2025 14:14:20 GMT-0600 (Central Standard Time),468814.60000002384,A,nai,O,i,148,1,3798.2999999523163,465016.3000000715,7057,WL,C,10.0
3,43.82099986076355,learn,16179.00013923645,Fri Feb 14 2025 14:14:20 GMT-0600 (Central Standard Time),469265.0,A,nail,O,l,428,1,4248.699999928474,465016.3000000715,7057,WL,C,10.0
3,44.27199983596802,learn,15728.000164031982,Fri Feb 14 2025 14:14:20 GMT-0600 (Central Standard Time),469715.3000000715,A,nailenter,O,enter,427,1,4699.0,465016.3000000715,7057,WL,C,10.0
3,48.919999837875366,learn,11080.000162124634,Fri Feb 14 2025 14:14:20 GMT-0600 (Central Standard Time),474363.40000009537,A,c,O,c,4630,1,4647.900000095367,469715.5,7057,WL,C,11.0
3,49.20199990272522,learn,10798.00009727478,Fri Feb 14 2025 14:14:20 GMT-0600 (Central Standard Time),474645.40000009537,A,ca,O,a,271,1,4929.900000095367,469715.5,7057,WL,C,11.0
3,49.48799991607666,learn,10512.00008392334,Fri Feb 14 2025 14:14:20 GMT-0600 (Central Standard Time),474931.10000002384,A,cat,O,t,275,1,5215.600000023842,469715.5,7057,WL,C,11.0
3,49.669999837875366,learn,10330.000162124634,Fri Feb 14 2025 14:14:20 GMT-0600 (Central Standard Time),475113.0,A,catt,O,t,167,1,5397.5,469715.5,7057,WL,C,11.0
3,50.16799998283386,learn,9832.000017166138,Fri Feb 14 2025 14:14:20 GMT-0600 (Central Standard Time),475611.90000009537,A,cattl,O,l,483,1,5896.400000095367,469715.5,7057,WL,C,11.0
3,50.41799998283386,learn,9582.000017166138,Fri Feb 14 2025 14:14:20 GMT-0600 (Central Standard Time),475861.2000000477,A,cattle,O,e,229,1,6145.700000047684,469715.5,7057,WL,C,11.0
3,50.883999824523926,learn,9116.000175476074,Fri Feb 14 2025 14:14:20 GMT-0600 (Central Standard Time),476327.8000000715,A,cattleenter,O,enter,445,1,6612.300000071526,469715.5,7057,WL,C,11.0
3,57.49899983406067,learn,2501.000165939331,Fri Feb 14 2025 14:14:20 GMT-0600 (Central Standard Time),482942.60000002384,A,d,O,d,6594,1,6614.5,476328.10000002384,7057,WL,C,12.0
3,57.73399996757507,learn,2266.0000324249268,Fri Feb 14 2025 14:14:20 GMT-0600 (Central Standard Time),483177.40000009537,A,do,O,o,214,1,6849.300000071526,476328.10000002384,7057,WL,C,12.0
3,58.39999985694885,learn,1600.0001430511475,Fri Feb 14 2025 14:14:20 GMT-0600 (Central Standard Time),483843.90000009537,A,doc,O,c,655,1,7515.800000071526,476328.10000002384,7057,WL,C,12.0
3,58.75,learn,1250.0,Fri Feb 14 2025 14:14:20 GMT-0600 (Central Standard Time),484193.8000000715,A,doct,O,t,322,1,7865.700000047684,476328.10000002384,7057,WL,C,12.0
3,58.98399996757507,learn,1016.0000324249268,Fri Feb 14 2025 14:14:20 GMT-0600 (Central Standard Time),484427.5,A,docto,O,o,216,1,8099.399999976158,476328.10000002384,7057,WL,C,12.0
3,59.31699991226196,learn,683.0000877380371,Fri Feb 14 2025 14:14:20 GMT-0600 (Central Standard Time),484760.40000009537,A,doctor,O,r,317,1,8432.300000071526,476328.10000002384,7057,WL,C,12.0
3,60.014999866485596,learn,-14.999866485595703,Fri Feb 14 2025 14:14:20 GMT-0600 (Central Standard Time),485459.2000000477,A,doctorNone,O,None,685,1,9131.100000023842,476328.10000002384,7057,WL,C,12.0
4,1.1480000019073486,learn,58851.99999809265,Fri Feb 14 2025 14:14:20 GMT-0600 (Central Standard Time),557953.1000000238,A,t,O,t,1126,1,1147.5,556805.6000000238,7057,WL,C,1.0
4,1.3320000171661377,learn,58667.99998283386,Fri Feb 14 2025 14:14:20 GMT-0600 (Central Standard Time),558137.0,A,to,O,o,161,1,1331.3999999761581,556805.6000000238,7057,WL,C,1.0
4,1.815000057220459,learn,58184.99994277954,Fri Feb 14 2025 14:14:20 GMT-0600 (Central Standard Time),558620.0,A,tow,O,w,476,1,1814.3999999761581,556805.6000000238,7057,WL,C,1.0
4,1.9140000343322754,learn,58085.999965667725,Fri Feb 14 2025 14:14:20 GMT-0600 (Central Standard Time),558719.3000000715,A,towe,O,e,84,1,1913.7000000476837,556805.6000000238,7057,WL,C,1.0
4,2.2310001850128174,learn,57768.99981498718,Fri Feb 14 2025 14:14:20 GMT-0600 (Central Standard Time),559036.1000000238,A,tower,O,r,300,1,2230.5,556805.6000000238,7057,WL,C,1.0
4,3.180999994277954,learn,56819.000005722046,Fri Feb 14 2025 14:14:20 GMT-0600 (Central Standard Time),559986.3000000715,A,towerenter,O,enter,925,1,3180.7000000476837,556805.6000000238,7057,WL,C,1.0
4,4.164000034332275,learn,55835.999965667725,Fri Feb 14 2025 14:14:20 GMT-0600 (Central Standard Time),560969.0,A,w,O,w,961,1,982.3999999761581,559986.6000000238,7057,WL,C,2.0
4,4.3460001945495605,learn,55653.99980545044,Fri Feb 14 2025 14:14:20 GMT-0600 (Central Standard Time),561151.4000000954,A,wh,O,h,170,1,1164.8000000715256,559986.6000000238,7057,WL,C,2.0
4,4.513000011444092,learn,55486.99998855591,Fri Feb 14 2025 14:14:20 GMT-0600 (Central Standard Time),561318.8000000715,A,whe,O,e,149,1,1332.2000000476837,559986.6000000238,7057,WL,C,2.0
4,4.884000062942505,learn,55115.999937057495,Fri Feb 14 2025 14:14:20 GMT-0600 (Central Standard Time),561689.5,A,whea,O,a,356,1,1702.8999999761581,559986.6000000238,7057,WL,C,2.0
4,5.0970001220703125,learn,54902.99987792969,Fri Feb 14 2025 14:14:20 GMT-0600 (Central Standard Time),561902.5,A,wheat,O,t,191,1,1915.8999999761581,559986.6000000238,7057,WL,C,2.0
4,5.979000091552734,learn,54020.999908447266,Fri Feb 14 2025 14:14:20 GMT-0600 (Central Standard Time),562784.1000000238,A,wheatenter,O,enter,867,1,2797.5,559986.6000000238,7057,WL,C,2.0
4,6.979000091552734,learn,53020.999908447266,Fri Feb 14 2025 14:14:20 GMT-0600 (Central Standard Time),563784.0,A,q,O,q,980,1,999.5,562784.5,7057,WL,C,3.0
4,7.361999988555908,learn,52638.00001144409,Fri Feb 14 2025 14:14:20 GMT-0600 (Central Standard Time),564166.9000000954,A,qu,O,u,373,1,1382.4000000953674,562784.5,7057,WL,C,3.0
4,7.5950000286102295,learn,52404.99997138977,Fri Feb 14 2025 14:14:20 GMT-0600 (Central Standard Time),564400.5,A,que,O,e,221,1,1616.0,562784.5,7057,WL,C,3.0
4,7.8460001945495605,learn,52153.99980545044,Fri Feb 14 2025 14:14:20 GMT-0600 (Central Standard Time),564651.7000000477,A,quee,O,e,243,1,1867.2000000476837,562784.5,7057,WL,C,3.0
4,8.047000169754028,learn,51952.99983024597,Fri Feb 14 2025 14:14:20 GMT-0600 (Central Standard Time),564852.1000000238,A,queen,O,n,195,1,2067.600000023842,562784.5,7057,WL,C,3.0
4,8.644999980926514,learn,51355.000019073486,Fri Feb 14 2025 14:14:20 GMT-0600 (Central Standard Time),565449.8000000715,A,queenenter,O,enter,581,1,2665.3000000715256,562784.5,7057,WL,C,3.0
4,9.34500002861023,learn,50654.99997138977,Fri Feb 14 2025 14:14:20 GMT-0600 (Central Standard Time),566150.3000000715,A,d,O,d,681,1,700.2000000476837,565450.1000000238,7057,WL,C,4.0
4,9.545000076293945,learn,50454.999923706055,Fri Feb 14 2025 14:14:20 GMT-0600 (Central Standard Time),566350.1000000238,A,do,O,o,177,1,900.0,565450.1000000238,7057,WL,C,4.0
4,9.74400019645691,learn,50255.99980354309,Fri Feb 14 2025 14:14:20 GMT-0600 (Central Standard Time),566549.6000000238,A,doc,O,c,181,1,1099.5,565450.1000000238,7057,WL,C,4.0
4,10.128000020980835,learn,49871.999979019165,Fri Feb 14 2025 14:14:20 GMT-0600 (Central Standard Time),566933.1000000238,A,doct,O,t,374,1,1483.0,565450.1000000238,7057,WL,C,4.0
4,10.32800006866455,learn,49671.99993133545,Fri Feb 14 2025 14:14:20 GMT-0600 (Central Standard Time),567133.4000000954,A,docto,O,o,182,1,1683.3000000715256,565450.1000000238,7057,WL,C,4.0
4,10.56000018119812,learn,49439.99981880188,Fri Feb 14 2025 14:14:20 GMT-0600 (Central Standard Time),567365.5,A,doctor,O,r,222,1,1915.3999999761581,565450.1000000238,7057,WL,C,4.0
4,11.111999988555908,learn,48888.00001144409,Fri Feb 14 2025 14:14:20 GMT-0600 (Central Standard Time),567917.0,A,doctorenter,O,enter,532,1,2466.899999976158,565450.1000000238,7057,WL,C,4.0
4,12.259999990463257,learn,47740.00000953674,Fri Feb 14 2025 14:14:20 GMT-0600 (Central Standard Time),569065.2000000477,A,h,O,h,1134,1,1148.0,567917.2000000477,7057,WL,C,5.0
4,12.461000204086304,learn,47538.999795913696,Fri Feb 14 2025 14:14:20 GMT-0600 (Central Standard Time),569266.4000000954,A,ho,O,o,185,1,1349.2000000476837,567917.2000000477,7057,WL,C,5.0
4,12.71399998664856,learn,47286.00001335144,Fri Feb 14 2025 14:14:20 GMT-0600 (Central Standard Time),569518.9000000954,A,hom,O,m,247,1,1601.7000000476837,567917.2000000477,7057,WL,C,5.0
4,12.99400019645691,learn,47005.99980354309,Fri Feb 14 2025 14:14:20 GMT-0600 (Central Standard Time),569799.1000000238,A,home,O,e,260,1,1881.8999999761581,567917.2000000477,7057,WL,C,5.0
4,13.49400019645691,learn,46505.99980354309,Fri Feb 14 2025 14:14:20 GMT-0600 (Central Standard Time),570299.0,A,homeenter,O,enter,490,1,2381.7999999523163,567917.2000000477,7057,WL,C,5.0
4,13.945000171661377,learn,46054.99982833862,Fri Feb 14 2025 14:14:20 GMT-0600 (Central Standard Time),570750.0,A,b,O,b,431,1,450.39999997615814,570299.6000000238,7057,WL,C,6.0
4,14.278000116348267,learn,45721.99988365173,Fri Feb 14 2025 14:14:20 GMT-0600 (Central Standard Time),571082.9000000954,A,bo,O,o,308,1,783.3000000715256,570299.6000000238,7057,WL,C,6.0
4,14.694000005722046,learn,45305.999994277954,Fri Feb 14 2025 14:14:20 GMT-0600 (Central Standard Time),571499.6000000238,A,boy,O,y,401,1,1200.0,570299.6000000238,7057,WL,C,6.0
4,16.008000135421753,learn,43991.99986457825,Fri Feb 14 2025 14:14:20 GMT-0600 (Central Standard Time),572813.8000000715,A,boyenter,O,enter,1305,1,2514.2000000476837,570299.6000000238,7057,WL,C,6.0
4,17.29200005531311,learn,42707.99994468689,Fri Feb 14 2025 14:14:20 GMT-0600 (Central Standard Time),574097.0,A,s,O,s,1268,1,1282.8999999761581,572814.1000000238,7057,WL,C,7.0
4,17.493000030517578,learn,42506.99996948242,Fri Feb 14 2025 14:14:20 GMT-0600 (Central Standard Time),574298.4000000954,A,su,O,u,179,1,1484.3000000715256,572814.1000000238,7057,WL,C,7.0
4,17.776000022888184,learn,42223.99997711182,Fri Feb 14 2025 14:14:20 GMT-0600 (Central Standard Time),574580.9000000954,A,sug,O,g,258,1,1766.8000000715256,572814.1000000238,7057,WL,C,7.0
4,17.943000078201294,learn,42056.999921798706,Fri Feb 14 2025 14:14:20 GMT-0600 (Central Standard Time),574748.0,A,suga,O,a,159,1,1933.8999999761581,572814.1000000238,7057,WL,C,7.0
4,18.076000213623047,learn,41923.99978637695,Fri Feb 14 2025 14:14:20 GMT-0600 (Central Standard Time),574881.5,A,sugar,O,r,119,1,2067.399999976158,572814.1000000238,7057,WL,C,7.0
4,18.576000213623047,learn,41423.99978637695,Fri Feb 14 2025 14:14:20 GMT-0600 (Central Standard Time),575381.2000000477,A,sugarenter,O,enter,480,1,2567.100000023842,572814.1000000238,7057,WL,C,7.0
4,19.02400016784668,learn,40975.99983215332,Fri Feb 14 2025 14:14:20 GMT-0600 (Central Standard Time),575829.8000000715,A,f,O,f,432,1,448.3000000715256,575381.5,7057,WL,C,8.0
4,19.192000150680542,learn,40807.99984931946,Fri Feb 14 2025 14:14:20 GMT-0600 (Central Standard Time),575997.4000000954,A,fl,O,l,159,1,615.9000000953674,575381.5,7057,WL,C,8.0
4,19.54200005531311,learn,40457.99994468689,Fri Feb 14 2025 14:14:20 GMT-0600 (Central Standard Time),576347.0,A,fla,O,a,334,1,965.5,575381.5,7057,WL,C,8.0
4,20.375,learn,39625.0,Fri Feb 14 2025 14:14:20 GMT-0600 (Central Standard Time),577179.9000000954,A,flag,O,g,817,1,1798.4000000953674,575381.5,7057,WL,C,8.0
4,21.257000207901,learn,38742.999792099,Fri Feb 14 2025 14:14:20 GMT-0600 (Central Standard Time),578062.5,A,flagenter,O,enter,871,1,2681.0,575381.5,7057,WL,C,8.0
4,21.907999992370605,learn,38092.000007629395,Fri Feb 14 2025 14:14:20 GMT-0600 (Central Standard Time),578713.3000000715,A,b,O,b,627,1,650.6000000238419,578062.7000000477,7057,WL,C,9.0
4,22.125,learn,37875.0,Fri Feb 14 2025 14:14:20 GMT-0600 (Central Standard Time),578929.9000000954,A,bo,O,o,202,1,867.2000000476837,578062.7000000477,7057,WL,C,9.0
4,22.640000104904175,learn,37359.999895095825,Fri Feb 14 2025 14:14:20 GMT-0600 (Central Standard Time),579444.9000000954,A,boy,O,y,507,1,1382.2000000476837,578062.7000000477,7057,WL,C,9.0
4,23.157999992370605,learn,36842.000007629395,Fri Feb 14 2025 14:14:20 GMT-0600 (Central Standard Time),579963.5,A,boyenter,O,enter,511,1,1900.7999999523163,578062.7000000477,7057,WL,C,9.0
4,23.69099998474121,learn,36309.00001525879,Fri Feb 14 2025 14:14:20 GMT-0600 (Central Standard Time),580496.0,A,c,O,c,521,1,532.2999999523163,579963.7000000477,7057,WL,C,10.0
4,24.19099998474121,learn,35809.00001525879,Fri Feb 14 2025 14:14:20 GMT-0600 (Central Standard Time),580995.9000000954,A,ca,O,a,484,1,1032.2000000476837,579963.7000000477,7057,WL,C,10.0
4,25.33899998664856,learn,34661.00001335144,Fri Feb 14 2025 14:14:20 GMT-0600 (Central Standard Time),582144.5,A,cam,O,m,1136,1,2180.7999999523163,579963.7000000477,7057,WL,C,10.0
4,25.657000064849854,learn,34342.99993515015,Fri Feb 14 2025 14:14:20 GMT-0600 (Central Standard Time),582462.6000000238,A,camp,O,p,311,1,2498.899999976158,579963.7000000477,7057,WL,C,10.0
4,26.073000192642212,learn,33926.99980735779,Fri Feb 14 2025 14:14:20 GMT-0600 (Central Standard Time),582878.6000000238,A,campenter,O,enter,403,1,2914.899999976158,579963.7000000477,7057,WL,C,10.0
4,27.674000024795532,learn,32325.999975204468,Fri Feb 14 2025 14:14:20 GMT-0600 (Central Standard Time),584479.0,A,d,O,d,1582,1,1600.0999999046326,582878.9000000954,7057,WL,C,11.0
4,27.82200002670288,learn,32177.99997329712,Fri Feb 14 2025 14:14:20 GMT-0600 (Central Standard Time),584627.7000000477,A,do,O,o,140,1,1748.7999999523163,582878.9000000954,7057,WL,C,11.0
4,28.106000185012817,learn,31893.999814987183,Fri Feb 14 2025 14:14:20 GMT-0600 (Central Standard Time),584911.1000000238,A,doc,O,c,269,1,2032.1999999284744,582878.9000000954,7057,WL,C,11.0
4,28.47000002861023,learn,31529.99997138977,Fri Feb 14 2025 14:14:20 GMT-0600 (Central Standard Time),585275.3000000715,A,doct,O,t,344,1,2396.399999976158,582878.9000000954,7057,WL,C,11.0
4,28.640000104904175,learn,31359.999895095825,Fri Feb 14 2025 14:14:20 GMT-0600 (Central Standard Time),585445.6000000238,A,docto,O,o,155,1,2566.6999999284744,582878.9000000954,7057,WL,C,11.0
4,28.888000011444092,learn,31111.99998855591,Fri Feb 14 2025 14:14:20 GMT-0600 (Central Standard Time),585693.6000000238,A,doctor,O,r,236,1,2814.6999999284744,582878.9000000954,7057,WL,C,11.0
4,29.705000162124634,learn,30294.999837875366,Fri Feb 14 2025 14:14:20 GMT-0600 (Central Standard Time),586510.0,A,doctorenter,O,enter,794,1,3631.0999999046326,582878.9000000954,7057,WL,C,11.0
4,30.82100009918213,learn,29178.99990081787,Fri Feb 14 2025 14:14:20 GMT-0600 (Central Standard Time),587626.6000000238,A,n,O,n,1101,1,1116.1999999284744,586510.4000000954,7057,WL,C,12.0
4,31.07200002670288,learn,28927.99997329712,Fri Feb 14 2025 14:14:20 GMT-0600 (Central Standard Time),587876.8000000715,A,na,O,a,233,1,1366.3999999761581,586510.4000000954,7057,WL,C,12.0
4,31.32100009918213,learn,28678.99990081787,Fri Feb 14 2025 14:14:20 GMT-0600 (Central Standard Time),588126.8000000715,A,nai,O,i,237,1,1616.3999999761581,586510.4000000954,7057,WL,C,12.0
4,31.65500020980835,learn,28344.99979019165,Fri Feb 14 2025 14:14:20 GMT-0600 (Central Standard Time),588460.2000000477,A,nail,O,l,319,1,1949.7999999523163,586510.4000000954,7057,WL,C,12.0
4,32.12100005149841,learn,27878.999948501587,Fri Feb 14 2025 14:14:20 GMT-0600 (Central Standard Time),588926.5,A,nailenter,O,enter,453,1,2416.0999999046326,586510.4000000954,7057,WL,C,12.0
4,32.486000061035156,learn,27513.999938964844,Fri Feb 14 2025 14:14:20 GMT-0600 (Central Standard Time),589291.9000000954,A,c,O,c,349,1,365.2000000476837,588926.7000000477,7057,WL,C,13.0
4,32.78800010681152,learn,27211.999893188477,Fri Feb 14 2025 14:14:20 GMT-0600 (Central Standard Time),589593.0,A,ca,O,a,287,1,666.2999999523163,588926.7000000477,7057,WL,C,13.0
4,32.955000162124634,learn,27044.999837875366,Fri Feb 14 2025 14:14:20 GMT-0600 (Central Standard Time),589759.9000000954,A,cat,O,t,154,1,833.2000000476837,588926.7000000477,7057,WL,C,13.0
4,33.13700008392334,learn,26862.99991607666,Fri Feb 14 2025 14:14:20 GMT-0600 (Central Standard Time),589942.0,A,catt,O,t,169,1,1015.2999999523163,588926.7000000477,7057,WL,C,13.0
4,33.65400004386902,learn,26345.99995613098,Fri Feb 14 2025 14:14:20 GMT-0600 (Central Standard Time),590459.2000000477,A,cattl,O,l,499,1,1532.5,588926.7000000477,7057,WL,C,13.0
4,34.004000186920166,learn,25995.999813079834,Fri Feb 14 2025 14:14:20 GMT-0600 (Central Standard Time),590809.1000000238,A,cattle,O,e,336,1,1882.3999999761581,588926.7000000477,7057,WL,C,13.0
4,34.80400013923645,learn,25195.99986076355,Fri Feb 14 2025 14:14:20 GMT-0600 (Central Standard Time),591609.3000000715,A,cattleenter,O,enter,788,1,2682.600000023842,588926.7000000477,7057,WL,C,13.0
4,35.319000005722046,learn,24680.999994277954,Fri Feb 14 2025 14:14:20 GMT-0600 (Central Standard Time),592124.4000000954,A,s,O,s,498,1,514.8000000715256,591609.6000000238,7057,WL,C,14.0
4,35.48699998855591,learn,24513.00001144409,Fri Feb 14 2025 14:14:20 GMT-0600 (Central Standard Time),592292.7000000477,A,sh,O,h,150,1,683.1000000238419,591609.6000000238,7057,WL,C,14.0
4,35.97000002861023,learn,24029.99997138977,Fri Feb 14 2025 14:14:20 GMT-0600 (Central Standard Time),592775.2000000477,A,sho,O,o,468,1,1165.6000000238419,591609.6000000238,7057,WL,C,14.0
4,36.37000012397766,learn,23629.99987602234,Fri Feb 14 2025 14:14:20 GMT-0600 (Central Standard Time),593175.7000000477,A,shot,O,t,389,1,1566.1000000238419,591609.6000000238,7057,WL,C,14.0
4,36.9210000038147,learn,23078.999996185303,Fri Feb 14 2025 14:14:20 GMT-0600 (Central Standard Time),593725.9000000954,A,sho,O,backspace,539,1,2116.3000000715256,591609.6000000238,7057,WL,C,14.0
4,37.20300006866455,learn,22796.99993133545,Fri Feb 14 2025 14:14:20 GMT-0600 (Central Standard Time),594008.8000000715,A,shor,O,r,261,1,2399.2000000476837,591609.6000000238,7057,WL,C,14.0
4,37.217000007629395,learn,22782.999992370605,Fri Feb 14 2025 14:14:20 GMT-0600 (Central Standard Time),594022.2000000477,A,shore,O,e,0,1,2412.600000023842,591609.6000000238,7057,WL,C,14.0
4,38.93600010871887,learn,21063.999891281128,Fri Feb 14 2025 14:14:20 GMT-0600 (Central Standard Time),595741.4000000954,A,shoreenter,O,enter,1705,1,4131.800000071526,591609.6000000238,7057,WL,C,14.0
4,40.16900014877319,learn,19830.999851226807,Fri Feb 14 2025 14:14:20 GMT-0600 (Central Standard Time),596974.4000000954,A,c,O,c,1214,1,1232.6000000238419,595741.8000000715,7057,WL,C,15.0
4,40.3030002117157,learn,19696.9997882843,Fri Feb 14 2025 14:14:20 GMT-0600 (Central Standard Time),597109.2000000477,A,ca,O,a,116,1,1367.3999999761581,595741.8000000715,7057,WL,C,15.0
4,40.55200004577637,learn,19447.999954223633,Fri Feb 14 2025 14:14:20 GMT-0600 (Central Standard Time),597357.4000000954,A,cat,O,t,230,1,1615.6000000238419,595741.8000000715,7057,WL,C,15.0
4,40.70100021362305,learn,19298.999786376953,Fri Feb 14 2025 14:14:20 GMT-0600 (Central Standard Time),597507.2000000477,A,catt,O,t,134,1,1765.3999999761581,595741.8000000715,7057,WL,C,15.0
4,41.318000078201294,learn,18681.999921798706,Fri Feb 14 2025 14:14:20 GMT-0600 (Central Standard Time),598123.5,A,cattl,O,l,602,1,2381.6999999284744,595741.8000000715,7057,WL,C,15.0
4,41.62000012397766,learn,18379.99987602234,Fri Feb 14 2025 14:14:20 GMT-0600 (Central Standard Time),598425.8000000715,A,cattle,O,e,280,1,2684.0,595741.8000000715,7057,WL,C,15.0
4,42.3510000705719,learn,17648.9999294281,Fri Feb 14 2025 14:14:20 GMT-0600 (Central Standard Time),599157.0,A,cattleenter,O,enter,724,1,3415.1999999284744,595741.8000000715,7057,WL,C,15.0
5,1.433000087738037,learn,60000.0,Fri Feb 14 2025 14:14:20 GMT-0600 (Central Standard Time),673166.8000000715,A,t,O,t,1429,1,1433.8999999761581,671732.9000000954,7057,WL,C,1.0
5,1.6159999370574951,learn,60000.0,Fri Feb 14 2025 14:14:20 GMT-0600 (Central Standard Time),673349.5,A,to,O,o,175,1,1616.5999999046326,671732.9000000954,7057,WL,C,1.0
5,2.1010000705718994,learn,60000.0,Fri Feb 14 2025 14:14:20 GMT-0600 (Central Standard Time),673833.9000000954,A,tow,O,w,460,1,2101.0,671732.9000000954,7057,WL,C,1.0
5,2.199000120162964,learn,60000.0,Fri Feb 14 2025 14:14:20 GMT-0600 (Central Standard Time),673932.0,A,towe,O,e,88,1,2199.0999999046326,671732.9000000954,7057,WL,C,1.0
5,2.5340001583099365,learn,60000.0,Fri Feb 14 2025 14:14:20 GMT-0600 (Central Standard Time),674266.9000000954,A,tower,O,r,310,1,2534.0,671732.9000000954,7057,WL,C,1.0
5,3.315000057220459,learn,60000.0,Fri Feb 14 2025 14:14:20 GMT-0600 (Central Standard Time),675048.2000000477,A,towerenter,O,enter,760,1,3315.2999999523163,671732.9000000954,7057,WL,C,1.0
5,3.9670000076293945,learn,60000.0,Fri Feb 14 2025 14:14:20 GMT-0600 (Central Standard Time),675700.5,A,w,O,w,645,1,652.0,675048.5,7057,WL,C,2.0
5,4.148000001907349,learn,60000.0,Fri Feb 14 2025 14:14:20 GMT-0600 (Central Standard Time),675881.6000000238,A,wh,O,h,158,1,833.1000000238419,675048.5,7057,WL,C,2.0
5,4.2820000648498535,learn,60000.0,Fri Feb 14 2025 14:14:20 GMT-0600 (Central Standard Time),676015.1000000238,A,whe,O,e,119,1,966.6000000238419,675048.5,7057,WL,C,2.0
5,4.682000160217285,learn,60000.0,Fri Feb 14 2025 14:14:20 GMT-0600 (Central Standard Time),676415.6000000238,A,whea,O,a,381,1,1367.1000000238419,675048.5,7057,WL,C,2.0
5,4.865999937057495,learn,60000.0,Fri Feb 14 2025 14:14:20 GMT-0600 (Central Standard Time),676598.9000000954,A,wheat,O,t,163,1,1550.4000000953674,675048.5,7057,WL,C,2.0
5,6.150000095367432,learn,60000.0,Fri Feb 14 2025 14:14:20 GMT-0600 (Central Standard Time),677882.8000000715,A,wheatenter,O,enter,1278,1,2834.3000000715256,675048.5,7057,WL,C,2.0
5,8.480000019073486,learn,60000.0,Fri Feb 14 2025 14:14:20 GMT-0600 (Central Standard Time),680213.6000000238,A,q,O,q,2312,1,2330.5,677883.1000000238,7057,WL,C,3.0
5,8.680999994277954,learn,60000.0,Fri Feb 14 2025 14:14:20 GMT-0600 (Central Standard Time),680413.9000000954,A,qu,O,u,181,1,2530.8000000715256,677883.1000000238,7057,WL,C,3.0
5,8.999000072479248,learn,60000.0,Fri Feb 14 2025 14:14:20 GMT-0600 (Central Standard Time),680732.1000000238,A,que,O,e,295,1,2849.0,677883.1000000238,7057,WL,C,3.0
5,9.297000169754028,learn,60000.0,Fri Feb 14 2025 14:14:20 GMT-0600 (Central Standard Time),681030.3000000715,A,quee,O,e,279,1,3147.2000000476837,677883.1000000238,7057,WL,C,3.0
5,9.498000144958496,learn,60000.0,Fri Feb 14 2025 14:14:20 GMT-0600 (Central Standard Time),681231.2000000477,A,queen,O,n,190,1,3348.100000023842,677883.1000000238,7057,WL,C,3.0
5,10.21500015258789,learn,60000.0,Fri Feb 14 2025 14:14:20 GMT-0600 (Central Standard Time),681947.7000000477,A,queenenter,O,enter,701,1,4064.600000023842,677883.1000000238,7057,WL,C,3.0
5,12.513000011444092,learn,60000.0,Fri Feb 14 2025 14:14:20 GMT-0600 (Central Standard Time),684245.8000000715,A,d,O,d,2274,1,2297.8000000715256,681948.0,7057,WL,C,4.0
5,12.713000059127808,learn,60000.0,Fri Feb 14 2025 14:14:20 GMT-0600 (Central Standard Time),684445.8000000715,A,do,O,o,193,1,2497.8000000715256,681948.0,7057,WL,C,4.0
5,12.996999979019165,learn,60000.0,Fri Feb 14 2025 14:14:20 GMT-0600 (Central Standard Time),684730.1000000238,A,doc,O,c,261,1,2782.100000023842,681948.0,7057,WL,C,4.0
5,13.328999996185303,learn,60000.0,Fri Feb 14 2025 14:14:20 GMT-0600 (Central Standard Time),685062.4000000954,A,doct,O,t,309,1,3114.4000000953674,681948.0,7057,WL,C,4.0
5,13.496000051498413,learn,60000.0,Fri Feb 14 2025 14:14:20 GMT-0600 (Central Standard Time),685228.9000000954,A,docto,O,o,151,1,3280.9000000953674,681948.0,7057,WL,C,4.0
5,13.781000137329102,learn,60000.0,Fri Feb 14 2025 14:14:20 GMT-0600 (Central Standard Time),685514.1000000238,A,doctor,O,r,276,1,3566.100000023842,681948.0,7057,WL,C,4.0
5,14.562000036239624,learn,60000.0,Fri Feb 14 2025 14:14:20 GMT-0600 (Central Standard Time),686295.5,A,doctorenter,O,enter,761,1,4347.5,681948.0,7057,WL,C,4.0
5,16.094000101089478,learn,60000.0,Fri Feb 14 2025 14:14:20 GMT-0600 (Central Standard Time),687827.1000000238,A,s,O,s,1515,1,1531.2999999523163,686295.8000000715,7057,WL,C,5.0
5,16.328999996185303,learn,60000.0,Fri Feb 14 2025 14:14:20 GMT-0600 (Central Standard Time),688061.7000000477,A,su,O,u,215,1,1765.8999999761581,686295.8000000715,7057,WL,C,5.0
5,16.597000122070312,learn,60000.0,Fri Feb 14 2025 14:14:20 GMT-0600 (Central Standard Time),688330.5,A,sug,O,g,245,1,2034.6999999284744,686295.8000000715,7057,WL,C,5.0
5,16.746000051498413,learn,60000.0,Fri Feb 14 2025 14:14:20 GMT-0600 (Central Standard Time),688479.1000000238,A,suga,O,a,137,1,2183.2999999523163,686295.8000000715,7057,WL,C,5.0
5,16.927000045776367,learn,60000.0,Fri Feb 14 2025 14:14:20 GMT-0600 (Central Standard Time),688660.6000000238,A,sugar,O,r,173,1,2364.7999999523163,686295.8000000715,7057,WL,C,5.0
5,17.960999965667725,learn,60000.0,Fri Feb 14 2025 14:14:20 GMT-0600 (Central Standard Time),689694.6000000238,A,sugarenter,O,enter,1021,1,3398.7999999523163,686295.8000000715,7057,WL,C,5.0
5,18.74399995803833,learn,60000.0,Fri Feb 14 2025 14:14:20 GMT-0600 (Central Standard Time),690477.1000000238,A,b,O,b,775,1,782.1999999284744,689694.9000000954,7057,WL,C,6.0
5,19.32800006866455,learn,60000.0,Fri Feb 14 2025 14:14:20 GMT-0600 (Central Standard Time),691061.3000000715,A,bo,O,o,575,1,1366.3999999761581,689694.9000000954,7057,WL,C,6.0
5,19.644999980926514,learn,60000.0,Fri Feb 14 2025 14:14:20 GMT-0600 (Central Standard Time),691378.1000000238,A,boy,O,y,303,1,1683.1999999284744,689694.9000000954,7057,WL,C,6.0
5,20.759000062942505,learn,60000.0,Fri Feb 14 2025 14:14:20 GMT-0600 (Central Standard Time),692492.7000000477,A,boyenter,O,enter,1106,1,2797.7999999523163,689694.9000000954,7057,WL,C,6.0
5,21.344000101089478,learn,60000.0,Fri Feb 14 2025 14:14:20 GMT-0600 (Central Standard Time),693077.2000000477,A,h,O,h,568,1,584.2999999523163,692492.9000000954,7057,WL,C,7.0
5,21.776000022888184,learn,60000.0,Fri Feb 14 2025 14:14:20 GMT-0600 (Central Standard Time),693509.1000000238,A,ho,O,o,415,1,1016.1999999284744,692492.9000000954,7057,WL,C,7.0
5,21.99399995803833,learn,60000.0,Fri Feb 14 2025 14:14:20 GMT-0600 (Central Standard Time),693726.8000000715,A,hom,O,m,199,1,1233.8999999761581,692492.9000000954,7057,WL,C,7.0
5,22.259000062942505,learn,60000.0,Fri Feb 14 2025 14:14:20 GMT-0600 (Central Standard Time),693992.5,A,home,O,e,243,1,1499.5999999046326,692492.9000000954,7057,WL,C,7.0
5,22.89199995994568,learn,60000.0,Fri Feb 14 2025 14:14:20 GMT-0600 (Central Standard Time),694625.4000000954,A,homeenter,O,enter,610,1,2132.5,692492.9000000954,7057,WL,C,7.0
5,25.54200005531311,learn,60000.0,Fri Feb 14 2025 14:14:20 GMT-0600 (Central Standard Time),697275.1000000238,A,b,O,b,2633,1,2649.399999976158,694625.7000000477,7057,WL,C,8.0
5,26.242000102996826,learn,60000.0,Fri Feb 14 2025 14:14:20 GMT-0600 (Central Standard Time),697974.9000000954,A,bo,O,o,681,1,3349.2000000476837,694625.7000000477,7057,WL,C,8.0
5,26.407999992370605,learn,60000.0,Fri Feb 14 2025 14:14:20 GMT-0600 (Central Standard Time),698141.4000000954,A,boy,O,y,156,1,3515.7000000476837,694625.7000000477,7057,WL,C,8.0
5,26.80900001525879,learn,60000.0,Fri Feb 14 2025 14:14:20 GMT-0600 (Central Standard Time),698542.1000000238,A,boyenter,O,enter,390,1,3916.399999976158,694625.7000000477,7057,WL,C,8.0
5,28.008000135421753,learn,60000.0,Fri Feb 14 2025 14:14:20 GMT-0600 (Central Standard Time),699740.9000000954,A,n,O,n,1190,1,1198.5,698542.4000000954,7057,WL,C,9.0
5,28.240000009536743,learn,60000.0,Fri Feb 14 2025 14:14:20 GMT-0600 (Central Standard Time),699973.2000000477,A,na,O,a,220,1,1430.7999999523163,698542.4000000954,7057,WL,C,9.0
5,28.457000017166138,learn,60000.0,Fri Feb 14 2025 14:14:20 GMT-0600 (Central Standard Time),700190.4000000954,A,nai,O,i,208,1,1648.0,698542.4000000954,7057,WL,C,9.0
5,28.77500009536743,learn,60000.0,Fri Feb 14 2025 14:14:20 GMT-0600 (Central Standard Time),700508.2000000477,A,nail,O,l,293,1,1965.7999999523163,698542.4000000954,7057,WL,C,9.0
5,29.240999937057495,learn,60000.0,Fri Feb 14 2025 14:14:20 GMT-0600 (Central Standard Time),700974.2000000477,A,nailenter,O,enter,451,1,2431.7999999523163,698542.4000000954,7057,WL,C,9.0
5,29.657000064849854,learn,60000.0,Fri Feb 14 2025 14:14:20 GMT-0600 (Central Standard Time),701390.5,A,c,O,c,405,1,416.0,700974.5,7057,WL,C,10.0
5,29.94099998474121,learn,60000.0,Fri Feb 14 2025 14:14:20 GMT-0600 (Central Standard Time),701673.9000000954,A,ca,O,a,270,1,699.4000000953674,700974.5,7057,WL,C,10.0
5,30.141000032424927,learn,60000.0,Fri Feb 14 2025 14:14:20 GMT-0600 (Central Standard Time),701874.7000000477,A,cat,O,t,176,1,900.2000000476837,700974.5,7057,WL,C,10.0
5,30.35700011253357,learn,60000.0,Fri Feb 14 2025 14:14:20 GMT-0600 (Central Standard Time),702089.9000000954,A,catt,O,t,194,1,1115.4000000953674,700974.5,7057,WL,C,10.0
5,30.539999961853027,learn,60000.0,Fri Feb 14 2025 14:14:20 GMT-0600 (Central Standard Time),702273.1000000238,A,cattt,O,t,170,1,1298.6000000238419,700974.5,7057,WL,C,10.0
5,31.907000064849854,learn,60000.0,Fri Feb 14 2025 14:14:20 GMT-0600 (Central Standard Time),703640.3000000715,A,catt,O,backspace,1357,1,2665.8000000715256,700974.5,7057,WL,C,10.0
5,32.805999994277954,learn,60000.0,Fri Feb 14 2025 14:14:20 GMT-0600 (Central Standard Time),704538.8000000715,A,cattl,O,l,883,1,3564.3000000715256,700974.5,7057,WL,C,10.0
5,33.02400016784668,learn,60000.0,Fri Feb 14 2025 14:14:20 GMT-0600 (Central Standard Time),704757.5,A,cattle,O,e,212,1,3783.0,700974.5,7057,WL,C,10.0
5,33.78999996185303,learn,60000.0,Fri Feb 14 2025 14:14:20 GMT-0600 (Central Standard Time),705522.8000000715,A,cattleenter,O,enter,749,1,4548.300000071526,700974.5,7057,WL,C,10.0
5,34.805999994277954,learn,60000.0,Fri Feb 14 2025 14:14:20 GMT-0600 (Central Standard Time),706539.4000000954,A,n,O,n,1001,1,1016.2000000476837,705523.2000000477,7057,WL,C,11.0
5,35.00800013542175,learn,60000.0,Fri Feb 14 2025 14:14:20 GMT-0600 (Central Standard Time),706741.6000000238,A,na,O,a,195,1,1218.3999999761581,705523.2000000477,7057,WL,C,11.0
5,35.223000049591064,learn,60000.0,Fri Feb 14 2025 14:14:20 GMT-0600 (Central Standard Time),706955.9000000954,A,nai,O,i,208,1,1432.7000000476837,705523.2000000477,7057,WL,C,11.0
5,35.57200002670288,learn,60000.0,Fri Feb 14 2025 14:14:20 GMT-0600 (Central Standard Time),707305.2000000477,A,nail,O,l,326,1,1782.0,705523.2000000477,7057,WL,C,11.0
5,36.15499997138977,learn,60000.0,Fri Feb 14 2025 14:14:20 GMT-0600 (Central Standard Time),707888.0,A,nailenter,O,enter,571,1,2364.7999999523163,705523.2000000477,7057,WL,C,11.0
5,37.08899998664856,learn,60000.0,Fri Feb 14 2025 14:14:20 GMT-0600 (Central Standard Time),708822.1000000238,A,c,O,c,915,1,933.7999999523163,707888.3000000715,7057,WL,C,12.0
5,37.32200002670288,learn,60000.0,Fri Feb 14 2025 14:14:20 GMT-0600 (Central Standard Time),709055.2000000477,A,ca,O,a,211,1,1166.8999999761581,707888.3000000715,7057,WL,C,12.0
5,37.640000104904175,learn,60000.0,Fri Feb 14 2025 14:14:20 GMT-0600 (Central Standard Time),709372.9000000954,A,cam,O,m,310,1,1484.6000000238419,707888.3000000715,7057,WL,C,12.0
5,38.23800015449524,learn,60000.0,Fri Feb 14 2025 14:14:20 GMT-0600 (Central Standard Time),709971.1000000238,A,camp,O,p,584,1,2082.7999999523163,707888.3000000715,7057,WL,C,12.0
5,38.82200002670288,learn,60000.0,Fri Feb 14 2025 14:14:20 GMT-0600 (Central Standard Time),710555.6000000238,A,campenter,O,enter,579,1,2667.2999999523163,707888.3000000715,7057,WL,C,12.0
5,41.93600010871887,learn,60000.0,Fri Feb 14 2025 14:14:20 GMT-0600 (Central Standard Time),713669.4000000954,A,s,O,s,3097,1,3113.5,710555.9000000954,7057,WL,C,13.0
5,42.10300016403198,learn,60000.0,Fri Feb 14 2025 14:14:20 GMT-0600 (Central Standard Time),713836.6000000238,A,sh,O,h,148,1,3280.6999999284744,710555.9000000954,7057,WL,C,13.0
5,42.5550000667572,learn,60000.0,Fri Feb 14 2025 14:14:20 GMT-0600 (Central Standard Time),714287.9000000954,A,sho,O,o,437,1,3732.0,710555.9000000954,7057,WL,C,13.0
5,42.97000002861023,learn,60000.0,Fri Feb 14 2025 14:14:20 GMT-0600 (Central Standard Time),714703.0,A,shor,O,r,398,1,4147.099999904633,710555.9000000954,7057,WL,C,13.0
5,43.205000162124634,learn,60000.0,Fri Feb 14 2025 14:14:20 GMT-0600 (Central Standard Time),714938.1000000238,A,shore,O,e,213,1,4382.199999928474,710555.9000000954,7057,WL,C,13.0
5,43.687000036239624,learn,60000.0,Fri Feb 14 2025 14:14:20 GMT-0600 (Central Standard Time),715420.1000000238,A,shoreenter,O,enter,467,1,4864.199999928474,710555.9000000954,7057,WL,C,13.0
5,73.89600014686584,learn,60000.0,Fri Feb 14 2025 14:14:20 GMT-0600 (Central Standard Time),745629.4000000954,A,f,O,f,30201,1,30209.100000023842,715420.3000000715,7057,WL,C,14.0
6,1.569000005722046,distr,58430.999994277954,Fri Feb 14 2025 14:14:20 GMT-0600 (Central Standard Time),833250.7000000477,B,s,O,s,1552,1,1568.0,831682.7000000477,7057,WL,C,1.0
6,1.7670001983642578,distr,58232.99980163574,Fri Feb 14 2025 14:14:20 GMT-0600 (Central Standard Time),833449.4000000954,B,sk,O,k,184,1,1766.7000000476837,831682.7000000477,7057,WL,C,1.0
6,2.2820000648498535,distr,57717.99993515015,Fri Feb 14 2025 14:14:20 GMT-0600 (Central Standard Time),833964.2000000477,B,sky,O,y,504,1,2281.5,831682.7000000477,7057,WL,C,1.0
6,3.315000057220459,distr,56684.99994277954,Fri Feb 14 2025 14:14:20 GMT-0600 (Central Standard Time),834997.3000000715,B,skyenter,O,enter,1020,1,3314.600000023842,831682.7000000477,7057,WL,C,1.0
6,4.366000175476074,distr,55633.999824523926,Fri Feb 14 2025 14:14:20 GMT-0600 (Central Standard Time),836047.6000000238,B,m,O,m,1029,1,1050.0,834997.6000000238,7057,WL,C,2.0
6,4.751000165939331,distr,55248.99983406067,Fri Feb 14 2025 14:14:20 GMT-0600 (Central Standard Time),836433.0,B,mo,O,o,355,1,1435.3999999761581,834997.6000000238,7057,WL,C,2.0
6,5.25,distr,54750.0,Fri Feb 14 2025 14:14:20 GMT-0600 (Central Standard Time),836932.7000000477,B,mon,O,n,480,1,1935.1000000238419,834997.6000000238,7057,WL,C,2.0
6,5.551000118255615,distr,54448.999881744385,Fri Feb 14 2025 14:14:20 GMT-0600 (Central Standard Time),837233.2000000477,B,mone,O,e,278,1,2235.600000023842,834997.6000000238,7057,WL,C,2.0
6,5.682000160217285,distr,54317.999839782715,Fri Feb 14 2025 14:14:20 GMT-0600 (Central Standard Time),837364.9000000954,B,money,O,y,114,1,2367.3000000715256,834997.6000000238,7057,WL,C,2.0
6,6.5320000648498535,distr,53467.99993515015,Fri Feb 14 2025 14:14:20 GMT-0600 (Central Standard Time),838214.0,B,moneyenter,O,enter,821,1,3216.399999976158,834997.6000000238,7057,WL,C,2.0
6,7.416000127792358,distr,52583.99987220764,Fri Feb 14 2025 14:14:20 GMT-0600 (Central Standard Time),839098.2000000477,B,t,O,t,861,1,883.8999999761581,838214.3000000715,7057,WL,C,3.0
6,7.79800009727478,distr,52201.99990272522,Fri Feb 14 2025 14:14:20 GMT-0600 (Central Standard Time),839480.5,B,to,O,o,354,1,1266.1999999284744,838214.3000000715,7057,WL,C,3.0
6,7.963000059127808,distr,52036.99994087219,Fri Feb 14 2025 14:14:20 GMT-0600 (Central Standard Time),839645.8000000715,B,too,O,o,144,1,1431.5,838214.3000000715,7057,WL,C,3.0
6,8.148000001907349,distr,51851.99999809265,Fri Feb 14 2025 14:14:20 GMT-0600 (Central Standard Time),839830.1000000238,B,tool,O,l,174,1,1615.7999999523163,838214.3000000715,7057,WL,C,3.0
6,8.981000185012817,distr,51018.99981498718,Fri Feb 14 2025 14:14:20 GMT-0600 (Central Standard Time),840663.6000000238,B,toolenter,O,enter,814,1,2449.2999999523163,838214.3000000715,7057,WL,C,3.0
6,11.03000020980835,distr,48969.99979019165,Fri Feb 14 2025 14:14:20 GMT-0600 (Central Standard Time),842712.9000000954,B,n,O,n,2027,1,2049.100000023842,840663.8000000715,7057,WL,C,4.0
6,11.748000144958496,distr,48251.999855041504,Fri Feb 14 2025 14:14:20 GMT-0600 (Central Standard Time),843430.1000000238,B,,O,backspace,707,1,2766.2999999523163,840663.8000000715,7057,WL,C,4.0
6,12.266000032424927,distr,47733.99996757507,Fri Feb 14 2025 14:14:20 GMT-0600 (Central Standard Time),843949.0,B,m,O,m,496,1,3285.1999999284744,840663.8000000715,7057,WL,C,4.0
6,12.69700002670288,distr,47302.99997329712,Fri Feb 14 2025 14:14:20 GMT-0600 (Central Standard Time),844379.5,B,me,O,e,416,1,3715.6999999284744,840663.8000000715,7057,WL,C,4.0
6,13.212000131607056,distr,46787.999868392944,Fri Feb 14 2025 14:14:20 GMT-0600 (Central Standard Time),844894.8000000715,B,mea,O,a,502,1,4231.0,840663.8000000715,7057,WL,C,4.0
6,13.430000066757202,distr,46569.9999332428,Fri Feb 14 2025 14:14:20 GMT-0600 (Central Standard Time),845112.6000000238,B,meat,O,t,196,1,4448.799999952316,840663.8000000715,7057,WL,C,4.0
6,15.26200008392334,distr,44737.99991607666,Fri Feb 14 2025 14:14:20 GMT-0600 (Central Standard Time),846944.3000000715,B,meatenter,O,enter,1811,1,6280.5,840663.8000000715,7057,WL,C,4.0
6,22.094000101089478,distr,37905.99989891052,Fri Feb 14 2025 14:14:20 GMT-0600 (Central Standard Time),853776.5,B,p,O,p,6811,1,6831.899999976158,846944.6000000238,7057,WL,C,5.0
6,22.243000030517578,distr,37756.99996948242,Fri Feb 14 2025 14:14:20 GMT-0600 (Central Standard Time),853925.6000000238,B,pl,O,l,129,1,6981.0,846944.6000000238,7057,WL,C,5.0
6,22.461000204086304,distr,37538.999795913696,Fri Feb 14 2025 14:14:20 GMT-0600 (Central Standard Time),854143.4000000954,B,pla,O,a,209,1,7198.800000071526,846944.6000000238,7057,WL,C,5.0
6,22.627000093460083,distr,37372.99990653992,Fri Feb 14 2025 14:14:20 GMT-0600 (Central Standard Time),854309.4000000954,B,plan,O,n,159,1,7364.800000071526,846944.6000000238,7057,WL,C,5.0
6,22.9760000705719,distr,37023.9999294281,Fri Feb 14 2025 14:14:20 GMT-0600 (Central Standard Time),854658.9000000954,B,plant,O,t,333,1,7714.300000071526,846944.6000000238,7057,WL,C,5.0
6,23.961000204086304,distr,36038.999795913696,Fri Feb 14 2025 14:14:20 GMT-0600 (Central Standard Time),855643.1000000238,B,plantenter,O,enter,977,1,8698.5,846944.6000000238,7057,WL,C,5.0
6,30.055999994277954,distr,29944.000005722046,Fri Feb 14 2025 14:14:20 GMT-0600 (Central Standard Time),861738.4000000954,B,b,O,b,6071,1,6095.0,855643.4000000954,7057,WL,C,6.0
6,30.455000162124634,distr,29544.999837875366,Fri Feb 14 2025 14:14:20 GMT-0600 (Central Standard Time),862137.8000000715,B,bu,O,u,396,1,6494.399999976158,855643.4000000954,7057,WL,C,6.0
6,30.790000200271606,distr,29209.999799728394,Fri Feb 14 2025 14:14:20 GMT-0600 (Central Standard Time),862472.1000000238,B,but,O,t,316,1,6828.699999928474,855643.4000000954,7057,WL,C,6.0
6,30.974000215530396,distr,29025.999784469604,Fri Feb 14 2025 14:14:20 GMT-0600 (Central Standard Time),862656.6000000238,B,butt,O,t,160,1,7013.199999928474,855643.4000000954,7057,WL,C,6.0
6,31.157000064849854,distr,28842.999935150146,Fri Feb 14 2025 14:14:20 GMT-0600 (Central Standard Time),862839.9000000954,B,butte,O,e,167,1,7196.5,855643.4000000954,7057,WL,C,6.0
6,31.324000120162964,distr,28675.999879837036,Fri Feb 14 2025 14:14:20 GMT-0600 (Central Standard Time),863006.8000000715,B,butter,O,r,149,1,7363.399999976158,855643.4000000954,7057,WL,C,6.0
6,33.00500011444092,distr,26994.999885559082,Fri Feb 14 2025 14:14:20 GMT-0600 (Central Standard Time),864687.4000000954,B,butterenter,O,enter,1656,1,9044.0,855643.4000000954,7057,WL,C,6.0
6,35.80800008773804,distr,24191.999912261963,Fri Feb 14 2025 14:14:20 GMT-0600 (Central Standard Time),867490.0,B,c,O,c,2795,1,2802.1999999284744,864687.8000000715,7057,WL,C,7.0
6,35.93900012969971,distr,24060.999870300293,Fri Feb 14 2025 14:14:20 GMT-0600 (Central Standard Time),867621.2000000477,B,ch,O,h,126,1,2933.399999976158,864687.8000000715,7057,WL,C,7.0
6,36.355000019073486,distr,23644.999980926514,Fri Feb 14 2025 14:14:20 GMT-0600 (Central Standard Time),868037.1000000238,B,chr,O,r,396,1,3349.2999999523163,864687.8000000715,7057,WL,C,7.0
6,36.83899998664856,distr,23161.00001335144,Fri Feb 14 2025 14:14:20 GMT-0600 (Central Standard Time),868521.1000000238,B,chri,O,i,470,1,3833.2999999523163,864687.8000000715,7057,WL,C,7.0
6,37.38800001144409,distr,22611.99998855591,Fri Feb 14 2025 14:14:20 GMT-0600 (Central Standard Time),869070.9000000954,B,chrit,O,t,532,1,4383.100000023842,864687.8000000715,7057,WL,C,7.0
6,39.52300000190735,distr,20476.99999809265,Fri Feb 14 2025 14:14:20 GMT-0600 (Central Standard Time),871205.0,B,chri,O,backspace,2128,1,6517.199999928474,864687.8000000715,7057,WL,C,7.0
6,40.55400013923645,distr,19445.99986076355,Fri Feb 14 2025 14:14:20 GMT-0600 (Central Standard Time),872236.7000000477,B,chris,O,s,1022,1,7548.899999976158,864687.8000000715,7057,WL,C,7.0
6,40.7039999961853,distr,19296.000003814697,Fri Feb 14 2025 14:14:20 GMT-0600 (Central Standard Time),872386.2000000477,B,christ,O,t,133,1,7698.399999976158,864687.8000000715,7057,WL,C,7.0
6,41.3050000667572,distr,18694.999933242798,Fri Feb 14 2025 14:14:20 GMT-0600 (Central Standard Time),872987.8000000715,B,christn,O,n,594,1,8300.0,864687.8000000715,7057,WL,C,7.0
6,41.97100019454956,distr,18028.99980545044,Fri Feb 14 2025 14:14:20 GMT-0600 (Central Standard Time),873653.1000000238,B,christ,O,backspace,647,1,8965.299999952316,864687.8000000715,7057,WL,C,7.0
6,42.48699998855591,distr,17513.00001144409,Fri Feb 14 2025 14:14:20 GMT-0600 (Central Standard Time),874169.2000000477,B,christm,O,m,504,1,9481.399999976158,864687.8000000715,7057,WL,C,7.0
6,42.78700017929077,distr,17212.99982070923,Fri Feb 14 2025 14:14:20 GMT-0600 (Central Standard Time),874469.1000000238,B,christma,O,a,283,1,9781.299999952316,864687.8000000715,7057,WL,C,7.0
6,43.07000017166138,distr,16929.999828338623,Fri Feb 14 2025 14:14:20 GMT-0600 (Central Standard Time),874752.7000000477,B,christmas,O,s,271,1,10064.899999976158,864687.8000000715,7057,WL,C,7.0
6,44.35300016403198,distr,15646.999835968018,Fri Feb 14 2025 14:14:20 GMT-0600 (Central Standard Time),876035.1000000238,B,christmasenter,O,enter,1266,1,11347.299999952316,864687.8000000715,7057,WL,C,7.0
6,60.01400017738342,distr,-14.000177383422852,Fri Feb 14 2025 14:14:20 GMT-0600 (Central Standard Time),891696.1000000238,B,None,O,None,15654,1,15660.799999952316,876035.3000000715,7057,WL,C,8.0
7,7.13100004196167,immed,52868.99995803833,Fri Feb 14 2025 14:14:20 GMT-0600 (Central Standard Time),921588.2000000477,A,t,O,t,7109,1,7130.899999976158,914457.3000000715,7057,WL,C,1.0
7,7.297999858856201,immed,52702.0001411438,Fri Feb 14 2025 14:14:20 GMT-0600 (Central Standard Time),921755.2000000477,A,to,O,o,140,1,7297.899999976158,914457.3000000715,7057,WL,C,1.0
7,7.697999954223633,immed,52302.00004577637,Fri Feb 14 2025 14:14:20 GMT-0600 (Central Standard Time),922155.3000000715,A,tow,O,w,393,1,7698.0,914457.3000000715,7057,WL,C,1.0
7,7.829999923706055,immed,52170.000076293945,Fri Feb 14 2025 14:14:20 GMT-0600 (Central Standard Time),922286.8000000715,A,towe,O,e,112,1,7829.5,914457.3000000715,7057,WL,C,1.0
7,8.13100004196167,immed,51868.99995803833,Fri Feb 14 2025 14:14:20 GMT-0600 (Central Standard Time),922588.1000000238,A,tower,O,r,294,1,8130.799999952316,914457.3000000715,7057,WL,C,1.0
7,9.02999997138977,immed,50970.00002861023,Fri Feb 14 2025 14:14:20 GMT-0600 (Central Standard Time),923486.8000000715,A,towerenter,O,enter,878,1,9029.5,914457.3000000715,7057,WL,C,1.0
7,10.44599986076355,immed,49554.00013923645,Fri Feb 14 2025 14:14:20 GMT-0600 (Central Standard Time),924902.6000000238,A,q,O,q,1404,1,1415.5,923487.1000000238,7057,WL,C,2.0
7,10.595999956130981,immed,49404.00004386902,Fri Feb 14 2025 14:14:20 GMT-0600 (Central Standard Time),925052.4000000954,A,qu,O,u,134,1,1565.3000000715256,923487.1000000238,7057,WL,C,2.0
7,10.942999839782715,immed,49057.000160217285,Fri Feb 14 2025 14:14:20 GMT-0600 (Central Standard Time),925400.3000000715,A,que,O,e,324,1,1913.2000000476837,923487.1000000238,7057,WL,C,2.0
7,11.13100004196167,immed,48868.99995803833,Fri Feb 14 2025 14:14:20 GMT-0600 (Central Standard Time),925587.6000000238,A,quee,O,e,182,1,2100.5,923487.1000000238,7057,WL,C,2.0
7,11.312999963760376,immed,48687.000036239624,Fri Feb 14 2025 14:14:20 GMT-0600 (Central Standard Time),925769.7000000477,A,queen,O,n,160,1,2282.600000023842,923487.1000000238,7057,WL,C,2.0
7,12.26199984550476,immed,47738.00015449524,Fri Feb 14 2025 14:14:20 GMT-0600 (Central Standard Time),926718.6000000238,A,queenenter,O,enter,936,1,3231.5,923487.1000000238,7057,WL,C,2.0
7,12.92799997329712,immed,47072.00002670288,Fri Feb 14 2025 14:14:20 GMT-0600 (Central Standard Time),927385.1000000238,A,s,O,s,644,1,666.1999999284744,926718.9000000954,7057,WL,C,3.0
7,13.164000034332275,immed,46835.999965667725,Fri Feb 14 2025 14:14:20 GMT-0600 (Central Standard Time),927620.8000000715,A,su,O,u,229,1,901.8999999761581,926718.9000000954,7057,WL,C,3.0
7,13.495999813079834,immed,46504.000186920166,Fri Feb 14 2025 14:14:20 GMT-0600 (Central Standard Time),927953.0,A,sug,O,g,320,1,1234.0999999046326,926718.9000000954,7057,WL,C,3.0
7,13.727999925613403,immed,46272.0000743866,Fri Feb 14 2025 14:14:20 GMT-0600 (Central Standard Time),928184.7000000477,A,suga,O,a,217,1,1465.7999999523163,926718.9000000954,7057,WL,C,3.0
7,14.07699990272522,immed,45923.00009727478,Fri Feb 14 2025 14:14:20 GMT-0600 (Central Standard Time),928534.0,A,sugar,O,r,339,1,1815.0999999046326,926718.9000000954,7057,WL,C,3.0
7,15.461999893188477,immed,44538.00010681152,Fri Feb 14 2025 14:14:20 GMT-0600 (Central Standard Time),929918.6000000238,A,sugarenter,O,enter,1366,1,3199.6999999284744,926718.9000000954,7057,WL,C,3.0
7,16.64299988746643,immed,43357.00011253357,Fri Feb 14 2025 14:14:20 GMT-0600 (Central Standard Time),931100.2000000477,A,n,O,n,1163,1,1181.2999999523163,929918.9000000954,7057,WL,C,4.0
7,16.8439998626709,immed,43156.0001373291,Fri Feb 14 2025 14:14:20 GMT-0600 (Central Standard Time),931300.9000000954,A,na,O,a,192,1,1382.0,929918.9000000954,7057,WL,C,4.0
7,17.092999935150146,immed,42907.00006484985,Fri Feb 14 2025 14:14:20 GMT-0600 (Central Standard Time),931550.0,A,nai,O,i,230,1,1631.0999999046326,929918.9000000954,7057,WL,C,4.0
7,17.361999988555908,immed,42638.00001144409,Fri Feb 14 2025 14:14:20 GMT-0600 (Central Standard Time),931818.9000000954,A,nail,O,l,245,1,1900.0,929918.9000000954,7057,WL,C,4.0
7,17.77900004386902,immed,42220.99995613098,Fri Feb 14 2025 14:14:20 GMT-0600 (Central Standard Time),932235.5,A,nailenter,O,enter,410,1,2316.5999999046326,929918.9000000954,7057,WL,C,4.0
7,18.194000005722046,immed,41805.999994277954,Fri Feb 14 2025 14:14:20 GMT-0600 (Central Standard Time),932651.2000000477,A,c,O,c,393,1,415.5,932235.7000000477,7057,WL,C,5.0
7,18.460000038146973,immed,41539.99996185303,Fri Feb 14 2025 14:14:20 GMT-0600 (Central Standard Time),932916.9000000954,A,ca,O,a,256,1,681.2000000476837,932235.7000000477,7057,WL,C,5.0
7,18.64299988746643,immed,41357.00011253357,Fri Feb 14 2025 14:14:20 GMT-0600 (Central Standard Time),933100.2000000477,A,cat,O,t,165,1,864.5,932235.7000000477,7057,WL,C,5.0
7,18.794999837875366,immed,41205.000162124634,Fri Feb 14 2025 14:14:20 GMT-0600 (Central Standard Time),933251.4000000954,A,catt,O,t,145,1,1015.7000000476837,932235.7000000477,7057,WL,C,5.0
7,19.444000005722046,immed,40555.999994277954,Fri Feb 14 2025 14:14:20 GMT-0600 (Central Standard Time),933900.5,A,cattl,O,l,634,1,1664.7999999523163,932235.7000000477,7057,WL,C,5.0
7,19.727999925613403,immed,40272.0000743866,Fri Feb 14 2025 14:14:20 GMT-0600 (Central Standard Time),934184.5,A,cattle,O,e,272,1,1948.7999999523163,932235.7000000477,7057,WL,C,5.0
7,20.243000030517578,immed,39756.99996948242,Fri Feb 14 2025 14:14:20 GMT-0600 (Central Standard Time),934699.4000000954,A,cattleenter,O,enter,507,1,2463.7000000476837,932235.7000000477,7057,WL,C,5.0
7,22.691999912261963,immed,37308.00008773804,Fri Feb 14 2025 14:14:20 GMT-0600 (Central Standard Time),937148.4000000954,A,s,O,s,2441,1,2448.7000000476837,934699.7000000477,7057,WL,C,6.0
7,22.876999855041504,immed,37123.000144958496,Fri Feb 14 2025 14:14:20 GMT-0600 (Central Standard Time),937333.7000000477,A,su,O,u,175,1,2634.0,934699.7000000477,7057,WL,C,6.0
7,23.14199995994568,immed,36858.00004005432,Fri Feb 14 2025 14:14:20 GMT-0600 (Central Standard Time),937599.4000000954,A,sug,O,g,245,1,2899.7000000476837,934699.7000000477,7057,WL,C,6.0
7,23.32699990272522,immed,36673.00009727478,Fri Feb 14 2025 14:14:20 GMT-0600 (Central Standard Time),937783.5,A,suga,O,a,171,1,3083.7999999523163,934699.7000000477,7057,WL,C,6.0
7,23.478999853134155,immed,36521.000146865845,Fri Feb 14 2025 14:14:20 GMT-0600 (Central Standard Time),937935.9000000954,A,sugar,O,r,143,1,3236.2000000476837,934699.7000000477,7057,WL,C,6.0
7,24.741999864578247,immed,35258.00013542175,Fri Feb 14 2025 14:14:20 GMT-0600 (Central Standard Time),939198.6000000238,A,sugarenter,O,enter,1247,1,4498.899999976158,934699.7000000477,7057,WL,C,6.0
7,25.141000032424927,immed,34858.99996757507,Fri Feb 14 2025 14:14:20 GMT-0600 (Central Standard Time),939597.8000000715,A,q,O,q,381,1,399.0,939198.8000000715,7057,WL,C,7.0
7,25.491999864578247,immed,34508.00013542175,Fri Feb 14 2025 14:14:20 GMT-0600 (Central Standard Time),939948.5,A,qu,O,u,334,1,749.6999999284744,939198.8000000715,7057,WL,C,7.0
7,25.674999952316284,immed,34325.000047683716,Fri Feb 14 2025 14:14:20 GMT-0600 (Central Standard Time),940132.2000000477,A,quu,O,u,160,1,933.3999999761581,939198.8000000715,7057,WL,C,7.0
7,26.657999992370605,immed,33342.000007629395,Fri Feb 14 2025 14:14:20 GMT-0600 (Central Standard Time),941114.8000000715,A,qu,O,backspace,956,1,1916.0,939198.8000000715,7057,WL,C,7.0
7,27.057999849319458,immed,32942.00015068054,Fri Feb 14 2025 14:14:20 GMT-0600 (Central Standard Time),941514.4000000954,A,que,O,e,387,1,2315.600000023842,939198.8000000715,7057,WL,C,7.0
7,27.258999824523926,immed,32741.000175476074,Fri Feb 14 2025 14:14:20 GMT-0600 (Central Standard Time),941716.2000000477,A,quee,O,e,195,1,2517.399999976158,939198.8000000715,7057,WL,C,7.0
7,27.407999992370605,immed,32592.000007629395,Fri Feb 14 2025 14:14:20 GMT-0600 (Central Standard Time),941864.5,A,queen,O,n,126,1,2665.6999999284744,939198.8000000715,7057,WL,C,7.0
7,28.740000009536743,immed,31259.999990463257,Fri Feb 14 2025 14:14:20 GMT-0600 (Central Standard Time),943196.5,A,queenenter,O,enter,1315,1,3997.6999999284744,939198.8000000715,7057,WL,C,7.0
7,32.24000000953674,immed,27759.999990463257,Fri Feb 14 2025 14:14:20 GMT-0600 (Central Standard Time),946696.8000000715,A,c,O,c,3487,1,3500.100000023842,943196.7000000477,7057,WL,C,8.0
7,32.45700001716614,immed,27542.999982833862,Fri Feb 14 2025 14:14:20 GMT-0600 (Central Standard Time),946914.3000000715,A,ca,O,a,210,1,3717.600000023842,943196.7000000477,7057,WL,C,8.0
7,32.77300000190735,immed,27226.99999809265,Fri Feb 14 2025 14:14:20 GMT-0600 (Central Standard Time),947229.9000000954,A,cam,O,m,294,1,4033.2000000476837,943196.7000000477,7057,WL,C,8.0
7,33.23899984359741,immed,26761.000156402588,Fri Feb 14 2025 14:14:20 GMT-0600 (Central Standard Time),947696.4000000954,A,camp,O,p,444,1,4499.700000047684,943196.7000000477,7057,WL,C,8.0
7,34.15499997138977,immed,25845.00002861023,Fri Feb 14 2025 14:14:20 GMT-0600 (Central Standard Time),948612.3000000715,A,campenter,O,enter,897,1,5415.600000023842,943196.7000000477,7057,WL,C,8.0
7,36.07099986076355,immed,23929.00013923645,Fri Feb 14 2025 14:14:20 GMT-0600 (Central Standard Time),950527.7000000477,A,s,O,s,1904,1,1915.2000000476837,948612.5,7057,WL,C,9.0
7,36.2039999961853,immed,23796.000003814697,Fri Feb 14 2025 14:14:20 GMT-0600 (Central Standard Time),950661.2000000477,A,sh,O,h,125,1,2048.7000000476837,948612.5,7057,WL,C,9.0
7,36.57200002670288,immed,23427.99997329712,Fri Feb 14 2025 14:14:20 GMT-0600 (Central Standard Time),951029.2000000477,A,sho,O,o,349,1,2416.7000000476837,948612.5,7057,WL,C,9.0
7,37.00499987602234,immed,22995.00012397766,Fri Feb 14 2025 14:14:20 GMT-0600 (Central Standard Time),951462.1000000238,A,shor,O,r,414,1,2849.600000023842,948612.5,7057,WL,C,9.0
7,37.15499997138977,immed,22845.00002861023,Fri Feb 14 2025 14:14:20 GMT-0600 (Central Standard Time),951612.0,A,shore,O,e,132,1,2999.5,948612.5,7057,WL,C,9.0
7,38.52199983596802,immed,21478.000164031982,Fri Feb 14 2025 14:14:20 GMT-0600 (Central Standard Time),952979.1000000238,A,shoreenter,O,enter,1362,1,4366.600000023842,948612.5,7057,WL,C,9.0
7,39.12299990653992,immed,20877.000093460083,Fri Feb 14 2025 14:14:20 GMT-0600 (Central Standard Time),953579.6000000238,A,d,O,d,577,1,600.1999999284744,952979.4000000954,7057,WL,C,10.0
7,39.25600004196167,immed,20743.99995803833,Fri Feb 14 2025 14:14:20 GMT-0600 (Central Standard Time),953713.4000000954,A,do,O,o,110,1,734.0,952979.4000000954,7057,WL,C,10.0
7,39.48599982261658,immed,20514.000177383423,Fri Feb 14 2025 14:14:20 GMT-0600 (Central Standard Time),953943.1000000238,A,doc,O,c,207,1,963.6999999284744,952979.4000000954,7057,WL,C,10.0
7,39.73899984359741,immed,20261.000156402588,Fri Feb 14 2025 14:14:20 GMT-0600 (Central Standard Time),954195.5,A,doct,O,t,228,1,1216.0999999046326,952979.4000000954,7057,WL,C,10.0
7,40.2039999961853,immed,19796.000003814697,Fri Feb 14 2025 14:14:20 GMT-0600 (Central Standard Time),954660.7000000477,A,docto,O,o,457,1,1681.2999999523163,952979.4000000954,7057,WL,C,10.0
7,40.40499997138977,immed,19595.00002861023,Fri Feb 14 2025 14:14:20 GMT-0600 (Central Standard Time),954861.5,A,doctor,O,r,191,1,1882.0999999046326,952979.4000000954,7057,WL,C,10.0
7,40.63599991798401,immed,19364.00008201599,Fri Feb 14 2025 14:14:20 GMT-0600 (Central Standard Time),955093.1000000238,A,doctore,O,e,214,1,2113.6999999284744,952979.4000000954,7057,WL,C,10.0
7,41.537999868392944,immed,18462.000131607056,Fri Feb 14 2025 14:14:20 GMT-0600 (Central Standard Time),955994.5,A,doctor,O,backspace,888,1,3015.0999999046326,952979.4000000954,7057,WL,C,10.0
7,42.234999895095825,immed,17765.000104904175,Fri Feb 14 2025 14:14:20 GMT-0600 (Central Standard Time),956692.7000000477,A,doctorenter,O,enter,690,1,3713.2999999523163,952979.4000000954,7057,WL,C,10.0
7,48.70199990272522,immed,11298.00009727478,Fri Feb 14 2025 14:14:20 GMT-0600 (Central Standard Time),963159.0,A,f,O,f,6450,1,6466.0,956693.0,7057,WL,C,11.0
7,49.23300004005432,immed,10766.999959945679,Fri Feb 14 2025 14:14:20 GMT-0600 (Central Standard Time),963690.1000000238,A,fl,O,l,520,1,6997.100000023842,956693.0,7057,WL,C,11.0
7,49.41699981689453,immed,10583.000183105469,Fri Feb 14 2025 14:14:20 GMT-0600 (Central Standard Time),963874.8000000715,A,fla,O,a,162,1,7181.800000071526,956693.0,7057,WL,C,11.0
7,49.66699981689453,immed,10333.000183105469,Fri Feb 14 2025 14:14:20 GMT-0600 (Central Standard Time),964124.0,A,flag,O,g,242,1,7431.0,956693.0,7057,WL,C,11.0
7,50.948999881744385,immed,9051.000118255615,Fri Feb 14 2025 14:14:20 GMT-0600 (Central Standard Time),965406.4000000954,A,flagenter,O,enter,1261,1,8713.400000095367,956693.0,7057,WL,C,11.0
7,55.764999866485596,immed,4235.000133514404,Fri Feb 14 2025 14:14:20 GMT-0600 (Central Standard Time),970222.7000000477,A,l,O,l,4808,1,4816.100000023842,965406.6000000238,7057,WL,C,12.0
7,56.08099985122681,immed,3919.0001487731934,Fri Feb 14 2025 14:14:20 GMT-0600 (Central Standard Time),970538.3000000715,A,le,O,e,300,1,5131.700000047684,965406.6000000238,7057,WL,C,12.0
7,56.348000049591064,immed,3651.9999504089355,Fri Feb 14 2025 14:14:20 GMT-0600 (Central Standard Time),970805.4000000954,A,let,O,t,251,1,5398.800000071526,965406.6000000238,7057,WL,C,12.0
7,56.514999866485596,immed,3485.0001335144043,Fri Feb 14 2025 14:14:20 GMT-0600 (Central Standard Time),970972.1000000238,A,lett,O,t,151,1,5565.5,965406.6000000238,7057,WL,C,12.0
7,56.69700002670288,immed,3302.999973297119,Fri Feb 14 2025 14:14:20 GMT-0600 (Central Standard Time),971154.6000000238,A,lette,O,e,161,1,5748.0,965406.6000000238,7057,WL,C,12.0
7,56.83099985122681,immed,3169.0001487731934,Fri Feb 14 2025 14:14:20 GMT-0600 (Central Standard Time),971288.2000000477,A,letter,O,r,121,1,5881.600000023842,965406.6000000238,7057,WL,C,12.0
7,57.39699983596802,immed,2603.0001640319824,Fri Feb 14 2025 14:14:20 GMT-0600 (Central Standard Time),971854.0,A,letterenter,O,enter,555,1,6447.399999976158,965406.6000000238,7057,WL,C,12.0
7,60.01300001144409,immed,-13.000011444091797,Fri Feb 14 2025 14:14:20 GMT-0600 (Central Standard Time),974470.7000000477,A,None,O,None,2610,1,2616.399999976158,971854.3000000715,7057,WL,C,13.0
