acc_sum,block,block_c,block_cond,con_img,correct,correct_response,datetime,endtime,face,jitter,line,project,response,response_time,row_sel,session_number,start_end,starttime,subject_id,task,task_vers,trial
1,prac,1,A,haborder.png,1,z,Tue Apr 22 2025 09:45:32 GMT-0500 (Central Daylight Time),42774.90000000596,CFD-BF-051-043-A.jpg,1000,solid,I,z,849,4,2,2632.2999999970198,40142.60000000894,8031,ATS,B,1
2,prac,1,A,haborder.png,1,z,Tue Apr 22 2025 09:45:32 GMT-0500 (Central Daylight Time),45374.29999999702,CFD-WF-013-015-A.jpg,1000,solid,I,z,802,12,2,5231.699999988079,40142.60000000894,8031,ATS,B,2
3,prac,1,A,haborder.png,1,m,Tue Apr 22 2025 09:45:32 GMT-0500 (Central Daylight Time),48572.79999999702,CFD-WM-012-007-HC.jpg,1700,solid,I,m,702,9,2,8430.199999988079,40142.60000000894,8031,ATS,B,3
4,prac,1,A,haborder.png,1,m,Tue Apr 22 2025 09:45:32 GMT-0500 (Central Daylight Time),51488.79999999702,CFD-WF-011-006-HC.jpg,1500,solid,I,m,631,11,2,11346.199999988079,40142.60000000894,8031,ATS,B,4
5,prac,1,A,haborder.png,1,z,Tue Apr 22 2025 09:45:32 GMT-0500 (Central Daylight Time),54804.5,CFD-WM-009-009-A.jpg,1900,solid,I,z,619,8,2,14661.89999999106,40142.60000000894,8031,ATS,B,5
6,prac,1,A,haborder.png,1,m,Tue Apr 22 2025 09:45:32 GMT-0500 (Central Daylight Time),57720.29999999702,CFD-BM-020-024-HC.jpg,1500,solid,I,m,625,3,2,17577.69999998808,40142.60000000894,8031,ATS,B,6
7,prac,1,A,haborder.png,1,z,Tue Apr 22 2025 09:45:32 GMT-0500 (Central Daylight Time),61185.90000000596,CFD-BM-037-041-A.jpg,1600,solid,I,z,1073,2,2,21043.29999999702,40142.60000000894,8031,ATS,B,7
8,prac,1,A,haborder.png,1,m,Tue Apr 22 2025 09:45:32 GMT-0500 (Central Daylight Time),64601.40000000596,CFD-BF-035-007-HC.jpg,2000,solid,I,m,527,5,2,24458.79999999702,40142.60000000894,8031,ATS,B,8
9,prac,1,A,haborder.png,1,z,Tue Apr 22 2025 09:45:32 GMT-0500 (Central Daylight Time),67667.20000000298,CFD-WF-026-008-A.jpg,1600,solid,I,z,671,10,2,27524.59999999404,40142.60000000894,8031,ATS,B,9
10,prac,1,A,haborder.png,1,z,Tue Apr 22 2025 09:45:32 GMT-0500 (Central Daylight Time),70416.29999999702,CFD-BF-050-012-A.jpg,1200,solid,I,z,750,6,2,30273.69999998808,40142.60000000894,8031,ATS,B,10
11,prac,1,A,haborder.png,1,m,Tue Apr 22 2025 09:45:32 GMT-0500 (Central Daylight Time),73398.79999999702,CFD-WM-011-006-HC.jpg,1400,solid,I,m,793,7,2,33256.19999998808,40142.60000000894,8031,ATS,B,11
12,prac,1,A,haborder.png,1,m,Tue Apr 22 2025 09:45:32 GMT-0500 (Central Daylight Time),76681.0,CFD-BM-015-017-HC.jpg,1700,solid,I,m,791,1,2,36538.39999999106,40142.60000000894,8031,ATS,B,12
1,prac,1,B,mfborder.png,1,m,Tue Apr 22 2025 09:45:32 GMT-0500 (Central Daylight Time),95025.5,CFD-BM-041-048-A.jpg,1600,dash,I,m,1090,2,2,3482.5,91543.0,8031,ATS,B,1
2,prac,1,B,mfborder.png,1,z,Tue Apr 22 2025 09:45:32 GMT-0500 (Central Daylight Time),98507.5,CFD-BF-027-013-HC.jpg,1500,dash,I,z,1188,3,2,6964.5,91543.0,8031,ATS,B,2
3,prac,1,B,mfborder.png,1,z,Tue Apr 22 2025 09:45:32 GMT-0500 (Central Daylight Time),100990.10000000894,CFD-WF-011-006-HC.jpg,1000,dash,I,z,685,12,2,9447.10000000894,91543.0,8031,ATS,B,3
4,prac,1,B,mfborder.png,1,m,Tue Apr 22 2025 09:45:32 GMT-0500 (Central Daylight Time),104255.70000000298,CFD-BM-020-024-HC.jpg,1700,dash,I,m,775,1,2,12712.70000000298,91543.0,8031,ATS,B,4
5,prac,1,B,mfborder.png,1,z,Tue Apr 22 2025 09:45:32 GMT-0500 (Central Daylight Time),106971.60000000894,CFD-BF-035-007-HC.jpg,1400,dash,I,z,529,7,2,15428.60000000894,91543.0,8031,ATS,B,5
6,prac,1,B,mfborder.png,1,m,Tue Apr 22 2025 09:45:32 GMT-0500 (Central Daylight Time),110120.5,CFD-WM-009-009-A.jpg,1700,dash,I,m,658,9,2,18577.5,91543.0,8031,ATS,B,6
7,prac,1,B,mfborder.png,1,z,Tue Apr 22 2025 09:45:32 GMT-0500 (Central Daylight Time),113652.79999999702,CFD-WF-027-007-HC.jpg,1900,dash,I,z,837,8,2,22109.79999999702,91543.0,8031,ATS,B,7
8,prac,1,B,mfborder.png,1,z,Tue Apr 22 2025 09:45:32 GMT-0500 (Central Daylight Time),116301.90000000596,CFD-BF-051-043-A.jpg,1000,dash,I,z,860,4,2,24758.90000000596,91543.0,8031,ATS,B,8
9,prac,1,B,mfborder.png,1,m,Tue Apr 22 2025 09:45:32 GMT-0500 (Central Daylight Time),119850.60000000894,CFD-BM-037-041-A.jpg,2000,dash,I,m,764,5,2,28307.60000000894,91543.0,8031,ATS,B,9
10,prac,1,B,mfborder.png,1,m,Tue Apr 22 2025 09:45:32 GMT-0500 (Central Daylight Time),123016.5,CFD-WM-012-007-HC.jpg,1600,dash,I,m,783,10,2,31473.5,91543.0,8031,ATS,B,10
11,prac,1,B,mfborder.png,1,z,Tue Apr 22 2025 09:45:32 GMT-0500 (Central Daylight Time),125998.90000000596,CFD-WF-026-008-A.jpg,1500,dash,I,z,685,11,2,34455.90000000596,91543.0,8031,ATS,B,11
12,prac,1,B,mfborder.png,1,m,Tue Apr 22 2025 09:45:32 GMT-0500 (Central Daylight Time),128814.70000000298,CFD-WM-037-060-A.jpg,1200,dash,I,m,818,6,2,37271.70000000298,91543.0,8031,ATS,B,12
1,test,1,A,haborder.png,1,z,Tue Apr 22 2025 09:45:32 GMT-0500 (Central Daylight Time),142427.0,CFD-BF-050-012-A.jpg,1200,solid,I,z,753,6,2,1982.5,140444.5,8031,ATS,B,1
2,test,1,A,haborder.png,1,m,Tue Apr 22 2025 09:45:32 GMT-0500 (Central Daylight Time),145059.79999999702,CFD-BF-035-007-HC.jpg,2000,solid,I,m,604,5,2,4615.29999999702,140444.5,8031,ATS,B,2
3,test,1,A,haborder.png,1,z,Tue Apr 22 2025 09:45:32 GMT-0500 (Central Daylight Time),147459.0,CFD-BM-037-041-A.jpg,1600,solid,I,z,774,2,2,7014.5,140444.5,8031,ATS,B,3
4,test,1,A,haborder.png,1,m,Tue Apr 22 2025 09:45:32 GMT-0500 (Central Daylight Time),149424.79999999702,CFD-WM-011-006-HC.jpg,1400,solid,I,m,542,7,2,8980.29999999702,140444.5,8031,ATS,B,4
5,test,1,A,haborder.png,1,m,Tue Apr 22 2025 09:45:32 GMT-0500 (Central Daylight Time),151757.29999999702,CFD-WM-012-007-HC.jpg,1700,solid,I,m,604,9,2,11312.79999999702,140444.5,8031,ATS,B,5
6,test,1,A,haborder.png,1,m,Tue Apr 22 2025 09:45:32 GMT-0500 (Central Daylight Time),154123.60000000894,CFD-WM-012-007-HC.jpg,1700,solid,I,m,648,9,2,13679.10000000894,140444.5,8031,ATS,B,6
7,test,1,A,haborder.png,1,z,Tue Apr 22 2025 09:45:32 GMT-0500 (Central Daylight Time),156422.60000000894,CFD-WF-026-008-A.jpg,1600,solid,I,z,670,10,2,15978.10000000894,140444.5,8031,ATS,B,7
8,test,1,A,haborder.png,1,m,Tue Apr 22 2025 09:45:32 GMT-0500 (Central Daylight Time),159021.90000000596,CFD-BF-035-007-HC.jpg,2000,solid,I,m,579,5,2,18577.40000000596,140444.5,8031,ATS,B,8
9,test,1,A,haborder.png,1,m,Tue Apr 22 2025 09:45:32 GMT-0500 (Central Daylight Time),161138.0,CFD-WF-011-006-HC.jpg,1500,solid,I,m,600,11,2,20693.5,140444.5,8031,ATS,B,9
10,test,1,A,haborder.png,1,m,Tue Apr 22 2025 09:45:32 GMT-0500 (Central Daylight Time),163304.0,CFD-BM-020-024-HC.jpg,1500,solid,I,m,635,3,2,22859.5,140444.5,8031,ATS,B,10
11,test,1,A,haborder.png,1,z,Tue Apr 22 2025 09:45:32 GMT-0500 (Central Daylight Time),165453.20000000298,CFD-BF-050-012-A.jpg,1200,solid,I,z,921,6,2,25008.70000000298,140444.5,8031,ATS,B,11
11,test,1,A,haborder.png,0,z,Tue Apr 22 2025 09:45:32 GMT-0500 (Central Daylight Time),167136.10000000894,CFD-WF-013-015-A.jpg,1000,solid,I,m,652,12,2,26691.60000000894,140444.5,8031,ATS,B,12
12,test,1,A,haborder.png,1,m,Tue Apr 22 2025 09:45:32 GMT-0500 (Central Daylight Time),169218.40000000596,CFD-WM-011-006-HC.jpg,1400,solid,I,m,665,7,2,28773.90000000596,140444.5,8031,ATS,B,13
13,test,1,A,haborder.png,1,z,Tue Apr 22 2025 09:45:32 GMT-0500 (Central Daylight Time),171567.79999999702,CFD-WF-026-008-A.jpg,1600,solid,I,z,719,10,2,31123.29999999702,140444.5,8031,ATS,B,14
14,test,1,A,haborder.png,1,z,Tue Apr 22 2025 09:45:32 GMT-0500 (Central Daylight Time),173217.29999999702,CFD-BF-051-043-A.jpg,1000,solid,I,z,617,4,2,32772.79999999702,140444.5,8031,ATS,B,15
15,test,1,A,haborder.png,1,z,Tue Apr 22 2025 09:45:32 GMT-0500 (Central Daylight Time),175733.29999999702,CFD-WM-009-009-A.jpg,1900,solid,I,z,596,8,2,35288.79999999702,140444.5,8031,ATS,B,16
16,test,1,A,haborder.png,1,z,Tue Apr 22 2025 09:45:32 GMT-0500 (Central Daylight Time),177999.40000000596,CFD-BM-037-041-A.jpg,1600,solid,I,z,644,2,2,37554.90000000596,140444.5,8031,ATS,B,17
17,test,1,A,haborder.png,1,m,Tue Apr 22 2025 09:45:32 GMT-0500 (Central Daylight Time),180381.79999999702,CFD-WF-011-006-HC.jpg,1500,solid,I,m,854,11,2,39937.29999999702,140444.5,8031,ATS,B,18
18,test,1,A,haborder.png,1,m,Tue Apr 22 2025 09:45:32 GMT-0500 (Central Daylight Time),182781.40000000596,CFD-BM-015-017-HC.jpg,1700,solid,I,m,672,1,2,42336.90000000596,140444.5,8031,ATS,B,19
19,test,1,A,haborder.png,1,m,Tue Apr 22 2025 09:45:32 GMT-0500 (Central Daylight Time),185063.70000000298,CFD-BM-015-017-HC.jpg,1700,solid,I,m,560,1,2,44619.20000000298,140444.5,8031,ATS,B,20
20,test,1,A,haborder.png,1,m,Tue Apr 22 2025 09:45:32 GMT-0500 (Central Daylight Time),187213.0,CFD-BM-020-024-HC.jpg,1500,solid,I,m,622,3,2,46768.5,140444.5,8031,ATS,B,21
21,test,1,A,haborder.png,1,z,Tue Apr 22 2025 09:45:32 GMT-0500 (Central Daylight Time),189029.20000000298,CFD-BF-051-043-A.jpg,1000,solid,I,z,788,4,2,48584.70000000298,140444.5,8031,ATS,B,22
22,test,1,A,haborder.png,1,z,Tue Apr 22 2025 09:45:32 GMT-0500 (Central Daylight Time),190861.79999999702,CFD-WF-013-015-A.jpg,1000,solid,I,z,812,12,2,50417.29999999702,140444.5,8031,ATS,B,23
23,test,1,A,haborder.png,1,z,Tue Apr 22 2025 09:45:32 GMT-0500 (Central Daylight Time),193727.70000000298,CFD-WM-009-009-A.jpg,1900,solid,I,z,932,8,2,53283.20000000298,140444.5,8031,ATS,B,24
1,test,1,B,mfborder.png,1,m,Tue Apr 22 2025 09:45:32 GMT-0500 (Central Daylight Time),203241.60000000894,CFD-BM-037-041-A.jpg,2000,dash,I,m,667,5,2,2699.4000000059605,200542.20000000298,8031,ATS,B,1
2,test,1,B,mfborder.png,1,m,Tue Apr 22 2025 09:45:32 GMT-0500 (Central Daylight Time),205424.0,CFD-BM-041-048-A.jpg,1600,dash,I,m,552,2,2,4881.79999999702,200542.20000000298,8031,ATS,B,2
2,test,1,B,mfborder.png,0,z,Tue Apr 22 2025 09:45:32 GMT-0500 (Central Daylight Time),207423.5,CFD-BF-035-007-HC.jpg,1400,dash,I,m,577,7,2,6881.29999999702,200542.20000000298,8031,ATS,B,3
3,test,1,B,mfborder.png,1,m,Tue Apr 22 2025 09:45:32 GMT-0500 (Central Daylight Time),210272.5,CFD-BM-037-041-A.jpg,2000,dash,I,m,826,5,2,9730.29999999702,200542.20000000298,8031,ATS,B,4
4,test,1,B,mfborder.png,1,z,Tue Apr 22 2025 09:45:32 GMT-0500 (Central Daylight Time),212388.5,CFD-WF-026-008-A.jpg,1500,dash,I,z,589,11,2,11846.29999999702,200542.20000000298,8031,ATS,B,5
5,test,1,B,mfborder.png,1,z,Tue Apr 22 2025 09:45:32 GMT-0500 (Central Daylight Time),214554.29999999702,CFD-BF-027-013-HC.jpg,1500,dash,I,z,649,3,2,14012.09999999404,200542.20000000298,8031,ATS,B,6
6,test,1,B,mfborder.png,1,m,Tue Apr 22 2025 09:45:32 GMT-0500 (Central Daylight Time),217070.5,CFD-WM-009-009-A.jpg,1700,dash,I,m,795,9,2,16528.29999999702,200542.20000000298,8031,ATS,B,7
7,test,1,B,mfborder.png,1,z,Tue Apr 22 2025 09:45:32 GMT-0500 (Central Daylight Time),220036.10000000894,CFD-WF-027-007-HC.jpg,1900,dash,I,z,1039,8,2,19493.90000000596,200542.20000000298,8031,ATS,B,8
8,test,1,B,mfborder.png,1,z,Tue Apr 22 2025 09:45:32 GMT-0500 (Central Daylight Time),222202.20000000298,CFD-WF-026-008-A.jpg,1500,dash,I,z,633,11,2,21660.0,200542.20000000298,8031,ATS,B,9
9,test,1,B,mfborder.png,1,z,Tue Apr 22 2025 09:45:32 GMT-0500 (Central Daylight Time),223984.79999999702,CFD-WF-011-006-HC.jpg,1000,dash,I,z,759,12,2,23442.59999999404,200542.20000000298,8031,ATS,B,10
10,test,1,B,mfborder.png,1,m,Tue Apr 22 2025 09:45:32 GMT-0500 (Central Daylight Time),226200.79999999702,CFD-WM-037-060-A.jpg,1200,dash,I,m,992,6,2,25658.59999999404,200542.20000000298,8031,ATS,B,11
11,test,1,B,mfborder.png,1,m,Tue Apr 22 2025 09:45:32 GMT-0500 (Central Daylight Time),228653.29999999702,CFD-WM-012-007-HC.jpg,1600,dash,I,m,833,10,2,28111.09999999404,200542.20000000298,8031,ATS,B,12
12,test,1,B,mfborder.png,1,z,Tue Apr 22 2025 09:45:32 GMT-0500 (Central Daylight Time),230782.90000000596,CFD-BF-027-013-HC.jpg,1500,dash,I,z,603,3,2,30240.70000000298,200542.20000000298,8031,ATS,B,13
13,test,1,B,mfborder.png,1,m,Tue Apr 22 2025 09:45:32 GMT-0500 (Central Daylight Time),233115.10000000894,CFD-BM-020-024-HC.jpg,1700,dash,I,m,615,1,2,32572.90000000596,200542.20000000298,8031,ATS,B,14
14,test,1,B,mfborder.png,1,z,Tue Apr 22 2025 09:45:32 GMT-0500 (Central Daylight Time),234814.79999999702,CFD-BF-051-043-A.jpg,1000,dash,I,z,678,4,2,34272.59999999404,200542.20000000298,8031,ATS,B,15
15,test,1,B,mfborder.png,1,z,Tue Apr 22 2025 09:45:32 GMT-0500 (Central Daylight Time),236497.70000000298,CFD-WF-011-006-HC.jpg,1000,dash,I,z,658,12,2,35955.5,200542.20000000298,8031,ATS,B,16
16,test,1,B,mfborder.png,1,m,Tue Apr 22 2025 09:45:32 GMT-0500 (Central Daylight Time),238863.60000000894,CFD-BM-020-024-HC.jpg,1700,dash,I,m,643,1,2,38321.40000000596,200542.20000000298,8031,ATS,B,17
17,test,1,B,mfborder.png,1,z,Tue Apr 22 2025 09:45:32 GMT-0500 (Central Daylight Time),240979.70000000298,CFD-BF-035-007-HC.jpg,1400,dash,I,z,690,7,2,40437.5,200542.20000000298,8031,ATS,B,18
18,test,1,B,mfborder.png,1,m,Tue Apr 22 2025 09:45:32 GMT-0500 (Central Daylight Time),243228.70000000298,CFD-WM-012-007-HC.jpg,1600,dash,I,m,630,10,2,42686.5,200542.20000000298,8031,ATS,B,19
19,test,1,B,mfborder.png,1,m,Tue Apr 22 2025 09:45:32 GMT-0500 (Central Daylight Time),246177.79999999702,CFD-WM-009-009-A.jpg,1700,dash,I,m,1224,9,2,45635.59999999404,200542.20000000298,8031,ATS,B,20
20,test,1,B,mfborder.png,1,z,Tue Apr 22 2025 09:45:32 GMT-0500 (Central Daylight Time),249127.10000000894,CFD-WF-027-007-HC.jpg,1900,dash,I,z,1028,8,2,48584.90000000596,200542.20000000298,8031,ATS,B,21
21,test,1,B,mfborder.png,1,z,Tue Apr 22 2025 09:45:32 GMT-0500 (Central Daylight Time),250792.90000000596,CFD-BF-051-043-A.jpg,1000,dash,I,z,634,4,2,50250.70000000298,200542.20000000298,8031,ATS,B,22
22,test,1,B,mfborder.png,1,m,Tue Apr 22 2025 09:45:32 GMT-0500 (Central Daylight Time),253092.40000000596,CFD-BM-041-048-A.jpg,1600,dash,I,m,680,2,2,52550.20000000298,200542.20000000298,8031,ATS,B,23
23,test,1,B,mfborder.png,1,m,Tue Apr 22 2025 09:45:32 GMT-0500 (Central Daylight Time),254992.0,CFD-WM-037-060-A.jpg,1200,dash,I,m,673,6,2,54449.79999999702,200542.20000000298,8031,ATS,B,24
0,10,1,C,haborder.png,0,m,Tue Apr 22 2025 09:45:32 GMT-0500 (Central Daylight Time),290814.200000003,CFD-BM-020-024-HC.jpg,1500,solid,I,None,1515,prac,2,3799.0,287015.200000003,8031,ATS,B,1
1,11,1,C,haborder.png,1,m,Tue Apr 22 2025 09:45:32 GMT-0500 (Central Daylight Time),293496.40000000596,CFD-WM-011-006-HC.jpg,1000,dash,I,m,899,prac,2,6481.20000000298,287015.200000003,8031,ATS,B,2
1,5,1,C,mfborder.png,0,m,Tue Apr 22 2025 09:45:32 GMT-0500 (Central Daylight Time),296778.90000000596,CFD-BM-037-041-A.jpg,1200,dash,I,z,1297,prac,2,9763.70000000298,287015.200000003,8031,ATS,B,3
1,8,1,C,haborder.png,0,z,Tue Apr 22 2025 09:45:32 GMT-0500 (Central Daylight Time),300777.5,CFD-BF-050-012-A.jpg,1700,solid,I,None,1516,prac,2,13762.29999999702,287015.200000003,8031,ATS,B,4
1,1,1,C,mfborder.png,0,z,Tue Apr 22 2025 09:45:32 GMT-0500 (Central Daylight Time),304676.40000000596,CFD-WF-011-006-HC.jpg,1600,dash,I,None,1516,prac,2,17661.20000000298,287015.200000003,8031,ATS,B,5
2,12,1,C,haborder.png,1,m,Tue Apr 22 2025 09:45:32 GMT-0500 (Central Daylight Time),307991.90000000596,CFD-WM-011-006-HC.jpg,1400,solid,I,m,1125,prac,2,20976.70000000298,287015.200000003,8031,ATS,B,6
3,2,1,C,mfborder.png,1,z,Tue Apr 22 2025 09:45:32 GMT-0500 (Central Daylight Time),311474.10000000894,CFD-WF-013-015-A.jpg,1500,solid,I,z,1196,prac,2,24458.90000000596,287015.200000003,8031,ATS,B,7
4,4,1,C,mfborder.png,1,m,Tue Apr 22 2025 09:45:32 GMT-0500 (Central Daylight Time),315473.10000000894,CFD-BM-015-017-HC.jpg,2000,solid,I,m,1207,prac,2,28457.90000000596,287015.200000003,8031,ATS,B,8
5,6,1,C,mfborder.png,1,m,Tue Apr 22 2025 09:45:32 GMT-0500 (Central Daylight Time),318638.60000000894,CFD-WM-009-009-A.jpg,1700,solid,I,m,676,prac,2,31623.40000000596,287015.200000003,8031,ATS,B,9
6,9,1,C,haborder.png,1,z,Tue Apr 22 2025 09:45:32 GMT-0500 (Central Daylight Time),321971.0,CFD-WF-026-008-A.jpg,1600,dash,I,z,947,prac,2,34955.79999999702,287015.200000003,8031,ATS,B,10
6,3,1,C,mfborder.png,0,z,Tue Apr 22 2025 09:45:32 GMT-0500 (Central Daylight Time),325269.799999997,CFD-BF-035-007-HC.jpg,1000,dash,I,None,1515,prac,2,38254.59999999404,287015.200000003,8031,ATS,B,11
7,7,1,C,haborder.png,1,z,Tue Apr 22 2025 09:45:32 GMT-0500 (Central Daylight Time),329185.299999997,CFD-BF-051-043-A.jpg,1900,dash,I,z,1232,prac,2,42170.09999999404,287015.200000003,8031,ATS,B,12
0,test,1,C,mfborder.png,0,z,Tue Apr 22 2025 09:45:32 GMT-0500 (Central Daylight Time),348146.10000000894,CFD-BF-051-043-A.jpg,1600,dash,I,None,1512,2,2,3132.2000000029802,345013.90000000596,8031,ATS,B,1
1,test,1,C,mfborder.png,1,m,Tue Apr 22 2025 09:45:32 GMT-0500 (Central Daylight Time),350461.700000003,CFD-WM-012-007-HC.jpg,1000,dash,I,m,1294,4,2,5447.79999999702,345013.90000000596,8031,ATS,B,2
2,test,1,C,mfborder.png,1,m,Tue Apr 22 2025 09:45:32 GMT-0500 (Central Daylight Time),353027.90000000596,CFD-BM-020-024-HC.jpg,1200,dash,I,m,1347,6,2,8014.0,345013.90000000596,8031,ATS,B,3
2,test,1,C,haborder.png,0,m,Tue Apr 22 2025 09:45:32 GMT-0500 (Central Daylight Time),356160.200000003,CFD-BF-035-007-HC.jpg,1600,solid,I,None,1516,10,2,11146.29999999702,345013.90000000596,8031,ATS,B,4
2,test,1,C,mfborder.png,0,z,Tue Apr 22 2025 09:45:32 GMT-0500 (Central Daylight Time),359292.5,CFD-BF-051-043-A.jpg,1600,dash,I,None,1515,2,2,14278.59999999404,345013.90000000596,8031,ATS,B,5
3,test,1,C,haborder.png,1,m,Tue Apr 22 2025 09:45:32 GMT-0500 (Central Daylight Time),362125.10000000894,CFD-WF-027-007-HC.jpg,1500,solid,I,m,1313,11,2,17111.20000000298,345013.90000000596,8031,ATS,B,6
4,test,1,C,haborder.png,1,m,Tue Apr 22 2025 09:45:32 GMT-0500 (Central Daylight Time),364757.5,CFD-WF-027-007-HC.jpg,1500,solid,I,m,1105,11,2,19743.59999999404,345013.90000000596,8031,ATS,B,7
5,test,1,C,haborder.png,1,m,Tue Apr 22 2025 09:45:32 GMT-0500 (Central Daylight Time),367390.0,CFD-BF-035-007-HC.jpg,1600,solid,I,m,1012,10,2,22376.09999999404,345013.90000000596,8031,ATS,B,8
6,test,1,C,mfborder.png,1,m,Tue Apr 22 2025 09:45:32 GMT-0500 (Central Daylight Time),370938.799999997,CFD-WM-037-060-A.jpg,2000,dash,I,m,1451,5,2,25924.89999999106,345013.90000000596,8031,ATS,B,9
7,test,1,C,mfborder.png,1,z,Tue Apr 22 2025 09:45:32 GMT-0500 (Central Daylight Time),373404.90000000596,CFD-WF-026-008-A.jpg,1500,dash,I,z,938,3,2,28391.0,345013.90000000596,8031,ATS,B,10
8,test,1,C,haborder.png,1,m,Tue Apr 22 2025 09:45:32 GMT-0500 (Central Daylight Time),375404.299999997,CFD-WF-011-006-HC.jpg,1000,solid,I,m,976,12,2,30390.39999999106,345013.90000000596,8031,ATS,B,11
8,test,1,C,mfborder.png,0,m,Tue Apr 22 2025 09:45:32 GMT-0500 (Central Daylight Time),378936.299999997,CFD-WM-037-060-A.jpg,2000,dash,I,None,1515,5,2,33922.39999999106,345013.90000000596,8031,ATS,B,12
9,test,1,C,mfborder.png,1,m,Tue Apr 22 2025 09:45:32 GMT-0500 (Central Daylight Time),380686.10000000894,CFD-WM-012-007-HC.jpg,1000,dash,I,m,728,4,2,35672.20000000298,345013.90000000596,8031,ATS,B,13
9,test,1,C,haborder.png,0,z,Tue Apr 22 2025 09:45:32 GMT-0500 (Central Daylight Time),383918.299999997,CFD-BM-041-048-A.jpg,1700,solid,I,None,1516,9,2,38904.39999999106,345013.90000000596,8031,ATS,B,14
10,test,1,C,mfborder.png,1,m,Tue Apr 22 2025 09:45:32 GMT-0500 (Central Daylight Time),386517.10000000894,CFD-BM-020-024-HC.jpg,1200,dash,I,m,1371,6,2,41503.20000000298,345013.90000000596,8031,ATS,B,15
11,test,1,C,haborder.png,1,z,Tue Apr 22 2025 09:45:32 GMT-0500 (Central Daylight Time),389666.299999997,CFD-BM-041-048-A.jpg,1700,solid,I,z,1432,9,2,44652.39999999106,345013.90000000596,8031,ATS,B,16
12,test,1,C,haborder.png,1,z,Tue Apr 22 2025 09:45:32 GMT-0500 (Central Daylight Time),392148.90000000596,CFD-WM-009-009-A.jpg,1400,solid,I,z,1055,7,2,47135.0,345013.90000000596,8031,ATS,B,17
13,test,1,C,haborder.png,1,z,Tue Apr 22 2025 09:45:32 GMT-0500 (Central Daylight Time),394764.90000000596,CFD-BM-037-041-A.jpg,1900,solid,I,z,689,8,2,49751.0,345013.90000000596,8031,ATS,B,18
14,test,1,C,haborder.png,1,z,Tue Apr 22 2025 09:45:32 GMT-0500 (Central Daylight Time),397397.200000003,CFD-BM-037-041-A.jpg,1900,solid,I,z,705,8,2,52383.29999999702,345013.90000000596,8031,ATS,B,19
15,test,1,C,haborder.png,1,m,Tue Apr 22 2025 09:45:32 GMT-0500 (Central Daylight Time),399380.10000000894,CFD-WF-011-006-HC.jpg,1000,solid,I,m,956,12,2,54366.20000000298,345013.90000000596,8031,ATS,B,20
16,test,1,C,haborder.png,1,z,Tue Apr 22 2025 09:45:32 GMT-0500 (Central Daylight Time),401779.200000003,CFD-WM-009-009-A.jpg,1400,solid,I,z,973,7,2,56765.29999999702,345013.90000000596,8031,ATS,B,21
17,test,1,C,mfborder.png,1,z,Tue Apr 22 2025 09:45:32 GMT-0500 (Central Daylight Time),404095.10000000894,CFD-WF-026-008-A.jpg,1500,dash,I,z,786,3,2,59081.20000000298,345013.90000000596,8031,ATS,B,22
17,test,1,C,mfborder.png,0,z,Tue Apr 22 2025 09:45:32 GMT-0500 (Central Daylight Time),406711.0,CFD-BF-027-013-HC.jpg,1700,dash,I,m,894,1,2,61697.09999999404,345013.90000000596,8031,ATS,B,23
18,test,1,C,mfborder.png,1,z,Tue Apr 22 2025 09:45:32 GMT-0500 (Central Daylight Time),409226.60000000894,CFD-BF-027-013-HC.jpg,1700,dash,I,z,799,1,2,64212.70000000298,345013.90000000596,8031,ATS,B,24
0,test,2,C,mfborder.png,0,z,Tue Apr 22 2025 09:45:32 GMT-0500 (Central Daylight Time),415574.90000000596,CFD-WF-013-015-A.jpg,1600,dash,I,None,1516,2,2,3132.5,412442.40000000596,8031,ATS,B,1
0,test,2,C,haborder.png,0,z,Tue Apr 22 2025 09:45:32 GMT-0500 (Central Daylight Time),418507.299999997,CFD-WF-026-008-A.jpg,1700,solid,I,m,1206,9,2,6064.899999991059,412442.40000000596,8031,ATS,B,2
0,test,2,C,haborder.png,0,z,Tue Apr 22 2025 09:45:32 GMT-0500 (Central Daylight Time),421739.700000003,CFD-WF-026-008-A.jpg,1700,solid,I,None,1516,9,2,9297.29999999702,412442.40000000596,8031,ATS,B,3
1,test,2,C,mfborder.png,1,m,Tue Apr 22 2025 09:45:32 GMT-0500 (Central Daylight Time),424105.60000000894,CFD-WM-009-009-A.jpg,1200,dash,I,m,1142,6,2,11663.20000000298,412442.40000000596,8031,ATS,B,4
1,test,2,C,haborder.png,0,m,Tue Apr 22 2025 09:45:32 GMT-0500 (Central Daylight Time),426638.5,CFD-WM-011-006-HC.jpg,1000,solid,I,None,1516,12,2,14196.09999999404,412442.40000000596,8031,ATS,B,5
1,test,2,C,haborder.png,0,m,Tue Apr 22 2025 09:45:32 GMT-0500 (Central Daylight Time),429770.40000000596,CFD-BM-020-024-HC.jpg,1600,solid,I,None,1515,10,2,17328.0,412442.40000000596,8031,ATS,B,6
2,test,2,C,mfborder.png,1,z,Tue Apr 22 2025 09:45:32 GMT-0500 (Central Daylight Time),432419.40000000596,CFD-BF-035-007-HC.jpg,1500,dash,I,z,1131,3,2,19977.0,412442.40000000596,8031,ATS,B,7
3,test,2,C,mfborder.png,1,m,Tue Apr 22 2025 09:45:32 GMT-0500 (Central Daylight Time),434335.799999997,CFD-BM-015-017-HC.jpg,1000,dash,I,m,886,4,2,21893.39999999106,412442.40000000596,8031,ATS,B,8
4,test,2,C,mfborder.png,1,m,Tue Apr 22 2025 09:45:32 GMT-0500 (Central Daylight Time),437501.200000003,CFD-BM-037-041-A.jpg,2000,dash,I,m,1138,5,2,25058.79999999702,412442.40000000596,8031,ATS,B,9
4,test,2,C,haborder.png,0,m,Tue Apr 22 2025 09:45:32 GMT-0500 (Central Daylight Time),440533.799999997,CFD-WM-011-006-HC.jpg,1500,solid,I,None,1511,11,2,28091.39999999106,412442.40000000596,8031,ATS,B,10
5,test,2,C,mfborder.png,1,m,Tue Apr 22 2025 09:45:32 GMT-0500 (Central Daylight Time),443932.799999997,CFD-BM-037-041-A.jpg,2000,dash,I,m,1372,5,2,31490.39999999106,412442.40000000596,8031,ATS,B,11
6,test,2,C,haborder.png,1,m,Tue Apr 22 2025 09:45:32 GMT-0500 (Central Daylight Time),446931.90000000596,CFD-BM-020-024-HC.jpg,1600,solid,I,m,1373,10,2,34489.5,412442.40000000596,8031,ATS,B,12
6,test,2,C,mfborder.png,0,m,Tue Apr 22 2025 09:45:32 GMT-0500 (Central Daylight Time),449664.40000000596,CFD-WM-009-009-A.jpg,1200,dash,I,None,1515,6,2,37222.0,412442.40000000596,8031,ATS,B,13
7,test,2,C,mfborder.png,1,z,Tue Apr 22 2025 09:45:32 GMT-0500 (Central Daylight Time),452696.60000000894,CFD-WF-013-015-A.jpg,1600,dash,I,z,1401,2,2,40254.20000000298,412442.40000000596,8031,ATS,B,14
8,test,2,C,haborder.png,1,z,Tue Apr 22 2025 09:45:32 GMT-0500 (Central Daylight Time),455462.5,CFD-BF-051-043-A.jpg,1400,solid,I,z,1337,7,2,43020.09999999404,412442.40000000596,8031,ATS,B,15
9,test,2,C,mfborder.png,1,z,Tue Apr 22 2025 09:45:32 GMT-0500 (Central Daylight Time),458644.799999997,CFD-WF-011-006-HC.jpg,1700,dash,I,z,1463,1,2,46202.39999999106,412442.40000000596,8031,ATS,B,16
10,test,2,C,mfborder.png,1,z,Tue Apr 22 2025 09:45:32 GMT-0500 (Central Daylight Time),461094.0,CFD-WF-011-006-HC.jpg,1700,dash,I,z,720,1,2,48651.59999999404,412442.40000000596,8031,ATS,B,17
11,test,2,C,haborder.png,1,m,Tue Apr 22 2025 09:45:32 GMT-0500 (Central Daylight Time),463854.40000000596,CFD-WM-011-006-HC.jpg,1500,solid,I,m,1243,11,2,51412.0,412442.40000000596,8031,ATS,B,18
12,test,2,C,mfborder.png,1,m,Tue Apr 22 2025 09:45:32 GMT-0500 (Central Daylight Time),466308.90000000596,CFD-BM-015-017-HC.jpg,1000,dash,I,m,1446,4,2,53866.5,412442.40000000596,8031,ATS,B,19
13,test,2,C,haborder.png,1,z,Tue Apr 22 2025 09:45:32 GMT-0500 (Central Daylight Time),469408.0,CFD-BF-050-012-A.jpg,1900,solid,I,z,1168,8,2,56965.59999999404,412442.40000000596,8031,ATS,B,20
14,test,2,C,mfborder.png,1,z,Tue Apr 22 2025 09:45:32 GMT-0500 (Central Daylight Time),472257.10000000894,CFD-BF-035-007-HC.jpg,1500,dash,I,z,1325,3,2,59814.70000000298,412442.40000000596,8031,ATS,B,21
15,test,2,C,haborder.png,1,z,Tue Apr 22 2025 09:45:32 GMT-0500 (Central Daylight Time),475622.90000000596,CFD-BF-050-012-A.jpg,1900,solid,I,z,1444,8,2,63180.5,412442.40000000596,8031,ATS,B,22
16,test,2,C,haborder.png,1,z,Tue Apr 22 2025 09:45:32 GMT-0500 (Central Daylight Time),478105.299999997,CFD-BF-051-043-A.jpg,1400,solid,I,z,1050,7,2,65662.89999999106,412442.40000000596,8031,ATS,B,23
17,test,2,C,haborder.png,1,m,Tue Apr 22 2025 09:45:32 GMT-0500 (Central Daylight Time),480388.0,CFD-WM-011-006-HC.jpg,1000,solid,I,m,1264,12,2,67945.59999999404,412442.40000000596,8031,ATS,B,24
1,test,3,C,haborder.png,1,z,Tue Apr 22 2025 09:45:32 GMT-0500 (Central Daylight Time),485186.40000000596,CFD-BM-037-041-A.jpg,1900,solid,I,z,1337,8,2,3265.5,481920.90000000596,8031,ATS,B,1
2,test,3,C,haborder.png,1,m,Tue Apr 22 2025 09:45:32 GMT-0500 (Central Daylight Time),488002.200000003,CFD-BF-035-007-HC.jpg,1600,solid,I,m,1179,10,2,6081.29999999702,481920.90000000596,8031,ATS,B,2
3,test,3,C,haborder.png,1,z,Tue Apr 22 2025 09:45:32 GMT-0500 (Central Daylight Time),490534.799999997,CFD-WM-009-009-A.jpg,1400,solid,I,z,1103,7,2,8613.89999999106,481920.90000000596,8031,ATS,B,3
4,test,3,C,haborder.png,1,m,Tue Apr 22 2025 09:45:32 GMT-0500 (Central Daylight Time),492434.0,CFD-WF-011-006-HC.jpg,1000,solid,I,m,875,12,2,10513.09999999404,481920.90000000596,8031,ATS,B,4
4,test,3,C,mfborder.png,0,z,Tue Apr 22 2025 09:45:32 GMT-0500 (Central Daylight Time),495466.700000003,CFD-WF-026-008-A.jpg,1500,dash,I,None,1516,3,2,13545.79999999702,481920.90000000596,8031,ATS,B,5
5,test,3,C,mfborder.png,1,m,Tue Apr 22 2025 09:45:32 GMT-0500 (Central Daylight Time),498782.10000000894,CFD-WM-037-060-A.jpg,2000,dash,I,m,1287,5,2,16861.20000000298,481920.90000000596,8031,ATS,B,6
6,test,3,C,mfborder.png,1,z,Tue Apr 22 2025 09:45:32 GMT-0500 (Central Daylight Time),501497.90000000596,CFD-BF-051-043-A.jpg,1600,dash,I,z,1099,2,2,19577.0,481920.90000000596,8031,ATS,B,7
7,test,3,C,haborder.png,1,z,Tue Apr 22 2025 09:45:32 GMT-0500 (Central Daylight Time),504597.0,CFD-BM-041-048-A.jpg,1700,solid,I,z,1379,9,2,22676.09999999404,481920.90000000596,8031,ATS,B,8
8,test,3,C,mfborder.png,1,m,Tue Apr 22 2025 09:45:32 GMT-0500 (Central Daylight Time),506964.0,CFD-BM-020-024-HC.jpg,1200,dash,I,m,1148,6,2,25043.09999999404,481920.90000000596,8031,ATS,B,9
9,test,3,C,mfborder.png,1,z,Tue Apr 22 2025 09:45:32 GMT-0500 (Central Daylight Time),509812.0,CFD-BF-051-043-A.jpg,1600,dash,I,z,1231,2,2,27891.09999999404,481920.90000000596,8031,ATS,B,10
10,test,3,C,mfborder.png,1,z,Tue Apr 22 2025 09:45:32 GMT-0500 (Central Daylight Time),512528.0,CFD-BF-027-013-HC.jpg,1700,dash,I,z,985,1,2,30607.09999999404,481920.90000000596,8031,ATS,B,11
11,test,3,C,haborder.png,1,z,Tue Apr 22 2025 09:45:32 GMT-0500 (Central Daylight Time),515243.40000000596,CFD-WM-009-009-A.jpg,1400,solid,I,z,1297,7,2,33322.5,481920.90000000596,8031,ATS,B,12
12,test,3,C,mfborder.png,1,m,Tue Apr 22 2025 09:45:32 GMT-0500 (Central Daylight Time),517893.0,CFD-BM-020-024-HC.jpg,1200,dash,I,m,1421,6,2,35972.09999999404,481920.90000000596,8031,ATS,B,13
13,test,3,C,mfborder.png,1,z,Tue Apr 22 2025 09:45:32 GMT-0500 (Central Daylight Time),520541.799999997,CFD-BF-027-013-HC.jpg,1700,dash,I,z,929,1,2,38620.89999999106,481920.90000000596,8031,ATS,B,14
14,test,3,C,mfborder.png,1,m,Tue Apr 22 2025 09:45:32 GMT-0500 (Central Daylight Time),522857.799999997,CFD-WM-012-007-HC.jpg,1000,dash,I,m,1283,4,2,40936.89999999106,481920.90000000596,8031,ATS,B,15
15,test,3,C,haborder.png,1,z,Tue Apr 22 2025 09:45:32 GMT-0500 (Central Daylight Time),525990.400000006,CFD-BM-037-041-A.jpg,1900,solid,I,z,1211,8,2,44069.5,481920.90000000596,8031,ATS,B,16
16,test,3,C,haborder.png,1,m,Tue Apr 22 2025 09:45:32 GMT-0500 (Central Daylight Time),528373.200000003,CFD-WF-011-006-HC.jpg,1000,solid,I,m,1363,12,2,46452.29999999702,481920.90000000596,8031,ATS,B,17
17,test,3,C,haborder.png,1,m,Tue Apr 22 2025 09:45:32 GMT-0500 (Central Daylight Time),530838.900000006,CFD-WF-027-007-HC.jpg,1500,solid,I,m,936,11,2,48918.0,481920.90000000596,8031,ATS,B,18
17,test,3,C,mfborder.png,0,m,Tue Apr 22 2025 09:45:32 GMT-0500 (Central Daylight Time),534221.1000000089,CFD-WM-037-060-A.jpg,2000,dash,I,z,1355,5,2,52300.20000000298,481920.90000000596,8031,ATS,B,19
18,test,3,C,haborder.png,1,z,Tue Apr 22 2025 09:45:32 GMT-0500 (Central Daylight Time),537420.1000000089,CFD-BM-041-048-A.jpg,1700,solid,I,z,1477,9,2,55499.20000000298,481920.90000000596,8031,ATS,B,20
19,test,3,C,mfborder.png,1,m,Tue Apr 22 2025 09:45:32 GMT-0500 (Central Daylight Time),539752.6000000089,CFD-WM-012-007-HC.jpg,1000,dash,I,m,1301,4,2,57831.70000000298,481920.90000000596,8031,ATS,B,21
20,test,3,C,haborder.png,1,m,Tue Apr 22 2025 09:45:32 GMT-0500 (Central Daylight Time),542202.0,CFD-WF-027-007-HC.jpg,1500,solid,I,m,917,11,2,60281.09999999404,481920.90000000596,8031,ATS,B,22
21,test,3,C,haborder.png,1,m,Tue Apr 22 2025 09:45:32 GMT-0500 (Central Daylight Time),545067.799999997,CFD-BF-035-007-HC.jpg,1600,solid,I,m,1247,10,2,63146.89999999106,481920.90000000596,8031,ATS,B,23
22,test,3,C,mfborder.png,1,z,Tue Apr 22 2025 09:45:32 GMT-0500 (Central Daylight Time),547850.200000003,CFD-WF-026-008-A.jpg,1500,dash,I,z,1258,3,2,65929.29999999702,481920.90000000596,8031,ATS,B,24
1,test,4,C,haborder.png,1,m,Tue Apr 22 2025 09:45:32 GMT-0500 (Central Daylight Time),553248.5,CFD-WM-011-006-HC.jpg,1500,solid,I,m,1243,11,2,2765.8999999910593,550482.6000000089,8031,ATS,B,1
2,test,4,C,haborder.png,1,m,Tue Apr 22 2025 09:45:32 GMT-0500 (Central Daylight Time),555781.1000000089,CFD-BM-020-024-HC.jpg,1600,solid,I,m,905,10,2,5298.5,550482.6000000089,8031,ATS,B,2
3,test,4,C,mfborder.png,1,z,Tue Apr 22 2025 09:45:32 GMT-0500 (Central Daylight Time),558090.400000006,CFD-BF-035-007-HC.jpg,1500,dash,I,z,792,3,2,7607.79999999702,550482.6000000089,8031,ATS,B,3
3,test,4,C,haborder.png,0,z,Tue Apr 22 2025 09:45:32 GMT-0500 (Central Daylight Time),561012.700000003,CFD-BF-051-043-A.jpg,1400,solid,I,None,1516,7,2,10530.09999999404,550482.6000000089,8031,ATS,B,4
4,test,4,C,haborder.png,1,z,Tue Apr 22 2025 09:45:32 GMT-0500 (Central Daylight Time),563295.400000006,CFD-BF-051-043-A.jpg,1400,solid,I,z,853,7,2,12812.79999999702,550482.6000000089,8031,ATS,B,5
5,test,4,C,mfborder.png,1,m,Tue Apr 22 2025 09:45:32 GMT-0500 (Central Daylight Time),566577.6000000089,CFD-BM-037-041-A.jpg,2000,dash,I,m,1258,5,2,16095.0,550482.6000000089,8031,ATS,B,6
5,test,4,C,haborder.png,0,m,Tue Apr 22 2025 09:45:32 GMT-0500 (Central Daylight Time),569110.1000000089,CFD-WM-011-006-HC.jpg,1000,solid,I,None,1516,12,2,18627.5,550482.6000000089,8031,ATS,B,7
6,test,4,C,mfborder.png,1,z,Tue Apr 22 2025 09:45:32 GMT-0500 (Central Daylight Time),572209.5,CFD-WF-011-006-HC.jpg,1700,dash,I,z,1375,1,2,21726.89999999106,550482.6000000089,8031,ATS,B,8
7,test,4,C,mfborder.png,1,m,Tue Apr 22 2025 09:45:32 GMT-0500 (Central Daylight Time),574108.700000003,CFD-BM-015-017-HC.jpg,1000,dash,I,m,872,4,2,23626.09999999404,550482.6000000089,8031,ATS,B,9
8,test,4,C,mfborder.png,1,z,Tue Apr 22 2025 09:45:32 GMT-0500 (Central Daylight Time),576957.700000003,CFD-BF-035-007-HC.jpg,1500,dash,I,z,1321,3,2,26475.09999999404,550482.6000000089,8031,ATS,B,10
9,test,4,C,haborder.png,1,m,Tue Apr 22 2025 09:45:32 GMT-0500 (Central Daylight Time),579690.5,CFD-BM-020-024-HC.jpg,1600,solid,I,m,1116,10,2,29207.89999999106,550482.6000000089,8031,ATS,B,11
10,test,4,C,haborder.png,1,m,Tue Apr 22 2025 09:45:32 GMT-0500 (Central Daylight Time),581906.1000000089,CFD-WM-011-006-HC.jpg,1500,solid,I,m,679,11,2,31423.5,550482.6000000089,8031,ATS,B,12
10,test,4,C,mfborder.png,0,m,Tue Apr 22 2025 09:45:32 GMT-0500 (Central Daylight Time),585438.299999997,CFD-BM-037-041-A.jpg,2000,dash,I,None,1515,5,2,34955.69999998808,550482.6000000089,8031,ATS,B,13
11,test,4,C,haborder.png,1,z,Tue Apr 22 2025 09:45:32 GMT-0500 (Central Daylight Time),588487.5,CFD-BF-050-012-A.jpg,1900,solid,I,z,1119,8,2,38004.89999999106,550482.6000000089,8031,ATS,B,14
11,test,4,C,mfborder.png,0,m,Tue Apr 22 2025 09:45:32 GMT-0500 (Central Daylight Time),591220.200000003,CFD-WM-009-009-A.jpg,1200,dash,I,None,1516,6,2,40737.59999999404,550482.6000000089,8031,ATS,B,15
11,test,4,C,mfborder.png,0,z,Tue Apr 22 2025 09:45:32 GMT-0500 (Central Daylight Time),594452.299999997,CFD-WF-011-006-HC.jpg,1700,dash,I,None,1515,1,2,43969.69999998808,550482.6000000089,8031,ATS,B,16
12,test,4,C,mfborder.png,1,m,Tue Apr 22 2025 09:45:32 GMT-0500 (Central Daylight Time),596768.400000006,CFD-WM-009-009-A.jpg,1200,dash,I,m,1093,6,2,46285.79999999702,550482.6000000089,8031,ATS,B,17
13,test,4,C,haborder.png,1,z,Tue Apr 22 2025 09:45:32 GMT-0500 (Central Daylight Time),599867.0,CFD-WF-026-008-A.jpg,1700,solid,I,z,1373,9,2,49384.39999999106,550482.6000000089,8031,ATS,B,18
14,test,4,C,mfborder.png,1,z,Tue Apr 22 2025 09:45:32 GMT-0500 (Central Daylight Time),602816.200000003,CFD-WF-013-015-A.jpg,1600,dash,I,z,1318,2,2,52333.59999999404,550482.6000000089,8031,ATS,B,19
15,test,4,C,mfborder.png,1,z,Tue Apr 22 2025 09:45:32 GMT-0500 (Central Daylight Time),605209.700000003,CFD-WF-013-015-A.jpg,1600,dash,I,z,633,2,2,54727.09999999404,550482.6000000089,8031,ATS,B,20
16,test,4,C,haborder.png,1,z,Tue Apr 22 2025 09:45:32 GMT-0500 (Central Daylight Time),608098.0,CFD-WF-026-008-A.jpg,1700,solid,I,z,1158,9,2,57615.39999999106,550482.6000000089,8031,ATS,B,21
17,test,4,C,haborder.png,1,z,Tue Apr 22 2025 09:45:32 GMT-0500 (Central Daylight Time),611146.799999997,CFD-BF-050-012-A.jpg,1900,solid,I,z,1131,8,2,60664.19999998808,550482.6000000089,8031,ATS,B,22
18,test,4,C,haborder.png,1,m,Tue Apr 22 2025 09:45:32 GMT-0500 (Central Daylight Time),613063.299999997,CFD-WM-011-006-HC.jpg,1000,solid,I,m,886,12,2,62580.69999998808,550482.6000000089,8031,ATS,B,23
19,test,4,C,mfborder.png,1,m,Tue Apr 22 2025 09:45:32 GMT-0500 (Central Daylight Time),615512.200000003,CFD-BM-015-017-HC.jpg,1000,dash,I,m,1418,4,2,65029.59999999404,550482.6000000089,8031,ATS,B,24
