acc_sum,block,block_c,block_cond,con_img,correct,correct_response,datetime,endtime,face,jitter,line,project,response,response_time,row_sel,session_number,start_end,starttime,subject_id,task,task_vers,trial
1,prac,1,A,haborder.png,1,z,Fri Feb 21 2025 09:47:58 GMT-0600 (Central Standard Time),43134.5,CFD-BF-039-039-A.jpg,1200,solid,I,z,880,6,1,2850.3000000044703,40284.19999999553,8031,ATS,A,1
2,prac,1,A,haborder.png,1,m,Fri Feb 21 2025 09:47:58 GMT-0600 (Central Standard Time),46216.39999999851,CFD-WF-017-016-HC.jpg,1500,solid,I,m,787,11,1,5932.20000000298,40284.19999999553,8031,ATS,A,2
3,prac,1,A,haborder.png,1,m,Fri Feb 21 2025 09:47:58 GMT-0600 (Central Standard Time),49079.89999999851,CFD-WM-004-005-HC.jpg,1400,solid,I,m,677,7,1,8795.70000000298,40284.19999999553,8031,ATS,A,3
3,prac,1,A,haborder.png,0,m,Fri Feb 21 2025 09:47:58 GMT-0600 (Central Standard Time),53364.79999999702,CFD-BF-028-020-HC.jpg,2000,solid,I,None,1501,5,1,13080.60000000149,40284.19999999553,8031,ATS,A,4
4,prac,1,A,haborder.png,1,z,Fri Feb 21 2025 09:47:58 GMT-0600 (Central Standard Time),56662.5,CFD-BM-005-010-A.jpg,1600,solid,I,z,912,2,1,16378.30000000447,40284.19999999553,8031,ATS,A,5
5,prac,1,A,haborder.png,1,z,Fri Feb 21 2025 09:47:58 GMT-0600 (Central Standard Time),59759.0,CFD-WF-003-014-A.jpg,1600,solid,I,z,711,10,1,19474.80000000447,40284.19999999553,8031,ATS,A,6
6,prac,1,A,haborder.png,1,m,Fri Feb 21 2025 09:47:58 GMT-0600 (Central Standard Time),62927.59999999404,CFD-BM-017-052-HC.jpg,1700,solid,I,m,666,1,1,22643.39999999851,40284.19999999553,8031,ATS,A,7
7,prac,1,A,haborder.png,1,m,Fri Feb 21 2025 09:47:58 GMT-0600 (Central Standard Time),66076.59999999404,CFD-WM-006-013-HC.jpg,1700,solid,I,m,642,9,1,25792.39999999851,40284.19999999553,8031,ATS,A,8
8,prac,1,A,haborder.png,1,z,Fri Feb 21 2025 09:47:58 GMT-0600 (Central Standard Time),69641.59999999404,CFD-WM-013-015-A.jpg,1900,solid,I,z,868,8,1,29357.39999999851,40284.19999999553,8031,ATS,A,9
9,prac,1,A,haborder.png,1,m,Fri Feb 21 2025 09:47:58 GMT-0600 (Central Standard Time),72806.29999999702,CFD-BM-029-026-HC.jpg,1500,solid,I,m,862,3,1,32522.10000000149,40284.19999999553,8031,ATS,A,10
10,prac,1,A,haborder.png,1,z,Fri Feb 21 2025 09:47:58 GMT-0600 (Central Standard Time),75456.59999999404,CFD-WF-019-015-A.jpg,1000,solid,I,z,861,12,1,35172.39999999851,40284.19999999553,8031,ATS,A,11
11,prac,1,A,haborder.png,1,z,Fri Feb 21 2025 09:47:58 GMT-0600 (Central Standard Time),78155.09999999404,CFD-BF-023-013-A.jpg,1000,solid,I,z,916,4,1,37870.89999999851,40284.19999999553,8031,ATS,A,12
0,prac,1,B,mfborder.png,0,z,Fri Feb 21 2025 09:47:58 GMT-0600 (Central Standard Time),96549.39999999851,CFD-WF-017-016-HC.jpg,1000,dash,I,None,1516,12,1,3298.8000000044703,93250.59999999404,8031,ATS,A,1
1,prac,1,B,mfborder.png,1,m,Fri Feb 21 2025 09:47:58 GMT-0600 (Central Standard Time),100415.89999999851,CFD-BM-005-010-A.jpg,2000,dash,I,m,1094,5,1,7165.30000000447,93250.59999999404,8031,ATS,A,2
2,prac,1,B,mfborder.png,1,m,Fri Feb 21 2025 09:47:58 GMT-0600 (Central Standard Time),103497.19999999553,CFD-WM-019-013-A.jpg,1200,dash,I,m,1093,6,1,10246.60000000149,93250.59999999404,8031,ATS,A,3
3,prac,1,B,mfborder.png,1,z,Fri Feb 21 2025 09:47:58 GMT-0600 (Central Standard Time),106297.29999999702,CFD-BF-023-013-A.jpg,1000,dash,I,z,1011,4,1,13046.70000000298,93250.59999999404,8031,ATS,A,4
4,prac,1,B,mfborder.png,1,z,Fri Feb 21 2025 09:47:58 GMT-0600 (Central Standard Time),109261.69999999553,CFD-BF-010-005-HC.jpg,1500,dash,I,z,654,3,1,16011.10000000149,93250.59999999404,8031,ATS,A,5
5,prac,1,B,mfborder.png,1,z,Fri Feb 21 2025 09:47:58 GMT-0600 (Central Standard Time),112095.09999999404,CFD-BF-028-020-HC.jpg,1400,dash,I,z,646,7,1,18844.5,93250.59999999404,8031,ATS,A,6
6,prac,1,B,mfborder.png,1,z,Fri Feb 21 2025 09:47:58 GMT-0600 (Central Standard Time),115460.89999999851,CFD-WF-002-008-HC.jpg,1900,dash,I,z,682,8,1,22210.30000000447,93250.59999999404,8031,ATS,A,7
7,prac,1,B,mfborder.png,1,m,Fri Feb 21 2025 09:47:58 GMT-0600 (Central Standard Time),118839.39999999851,CFD-WM-013-015-A.jpg,1700,dash,I,m,893,9,1,25588.80000000447,93250.59999999404,8031,ATS,A,8
8,prac,1,B,mfborder.png,1,m,Fri Feb 21 2025 09:47:58 GMT-0600 (Central Standard Time),122493.29999999702,CFD-BM-029-026-HC.jpg,1700,dash,I,m,1160,1,1,29242.70000000298,93250.59999999404,8031,ATS,A,9
9,prac,1,B,mfborder.png,1,m,Fri Feb 21 2025 09:47:58 GMT-0600 (Central Standard Time),125658.0,CFD-BM-010-019-A.jpg,1600,dash,I,m,776,2,1,32407.40000000596,93250.59999999404,8031,ATS,A,10
10,prac,1,B,mfborder.png,1,m,Fri Feb 21 2025 09:47:58 GMT-0600 (Central Standard Time),128856.5,CFD-WM-006-013-HC.jpg,1600,dash,I,m,814,10,1,35605.90000000596,93250.59999999404,8031,ATS,A,11
11,prac,1,B,mfborder.png,1,z,Fri Feb 21 2025 09:47:58 GMT-0600 (Central Standard Time),131854.3999999985,CFD-WF-003-014-A.jpg,1500,dash,I,z,717,11,1,38603.80000000447,93250.59999999404,8031,ATS,A,12
0,test,1,A,haborder.png,0,m,Fri Feb 21 2025 09:47:58 GMT-0600 (Central Standard Time),148232.79999999702,CFD-BF-028-020-HC.jpg,2000,solid,I,None,1514,5,1,3531.7999999970198,144701.0,8031,ATS,A,1
1,test,1,A,haborder.png,1,m,Fri Feb 21 2025 09:47:58 GMT-0600 (Central Standard Time),150498.29999999702,CFD-WF-017-016-HC.jpg,1500,solid,I,m,737,11,1,5797.29999999702,144701.0,8031,ATS,A,2
2,test,1,A,haborder.png,1,z,Fri Feb 21 2025 09:47:58 GMT-0600 (Central Standard Time),152765.5,CFD-WF-003-014-A.jpg,1600,solid,I,z,632,10,1,8064.5,144701.0,8031,ATS,A,3
3,test,1,A,haborder.png,1,z,Fri Feb 21 2025 09:47:58 GMT-0600 (Central Standard Time),154729.69999999553,CFD-BF-039-039-A.jpg,1200,solid,I,z,733,6,1,10028.69999999553,144701.0,8031,ATS,A,4
4,test,1,A,haborder.png,1,z,Fri Feb 21 2025 09:47:58 GMT-0600 (Central Standard Time),156381.29999999702,CFD-BF-023-013-A.jpg,1000,solid,I,z,626,4,1,11680.29999999702,144701.0,8031,ATS,A,5
5,test,1,A,haborder.png,1,z,Fri Feb 21 2025 09:47:58 GMT-0600 (Central Standard Time),158647.19999999553,CFD-WF-003-014-A.jpg,1600,solid,I,z,642,10,1,13946.19999999553,144701.0,8031,ATS,A,6
6,test,1,A,haborder.png,1,z,Fri Feb 21 2025 09:47:58 GMT-0600 (Central Standard Time),160278.59999999404,CFD-WF-019-015-A.jpg,1000,solid,I,z,605,12,1,15577.59999999404,144701.0,8031,ATS,A,7
7,test,1,A,haborder.png,1,m,Fri Feb 21 2025 09:47:58 GMT-0600 (Central Standard Time),162761.5,CFD-BM-017-052-HC.jpg,1700,solid,I,m,750,1,1,18060.5,144701.0,8031,ATS,A,8
8,test,1,A,haborder.png,1,z,Fri Feb 21 2025 09:47:58 GMT-0600 (Central Standard Time),164413.79999999702,CFD-WF-019-015-A.jpg,1000,solid,I,z,617,12,1,19712.79999999702,144701.0,8031,ATS,A,9
9,test,1,A,haborder.png,1,z,Fri Feb 21 2025 09:47:58 GMT-0600 (Central Standard Time),166877.8999999985,CFD-BM-005-010-A.jpg,1600,solid,I,z,834,2,1,22176.89999999851,144701.0,8031,ATS,A,10
10,test,1,A,haborder.png,1,m,Fri Feb 21 2025 09:47:58 GMT-0600 (Central Standard Time),169225.8999999985,CFD-WM-006-013-HC.jpg,1700,solid,I,m,626,9,1,24524.89999999851,144701.0,8031,ATS,A,11
11,test,1,A,haborder.png,1,z,Fri Feb 21 2025 09:47:58 GMT-0600 (Central Standard Time),170876.3999999985,CFD-BF-023-013-A.jpg,1000,solid,I,z,615,4,1,26175.39999999851,144701.0,8031,ATS,A,12
12,test,1,A,haborder.png,1,m,Fri Feb 21 2025 09:47:58 GMT-0600 (Central Standard Time),173074.3999999985,CFD-WM-004-005-HC.jpg,1400,solid,I,m,776,7,1,28373.39999999851,144701.0,8031,ATS,A,13
13,test,1,A,haborder.png,1,m,Fri Feb 21 2025 09:47:58 GMT-0600 (Central Standard Time),175289.29999999702,CFD-BM-029-026-HC.jpg,1500,solid,I,m,693,3,1,30588.29999999702,144701.0,8031,ATS,A,14
14,test,1,A,haborder.png,1,m,Fri Feb 21 2025 09:47:58 GMT-0600 (Central Standard Time),177906.3999999985,CFD-BF-028-020-HC.jpg,2000,solid,I,m,595,5,1,33205.39999999851,144701.0,8031,ATS,A,15
15,test,1,A,haborder.png,1,m,Fri Feb 21 2025 09:47:58 GMT-0600 (Central Standard Time),179973.3999999985,CFD-WF-017-016-HC.jpg,1500,solid,I,m,541,11,1,35272.39999999851,144701.0,8031,ATS,A,16
16,test,1,A,haborder.png,1,z,Fri Feb 21 2025 09:47:58 GMT-0600 (Central Standard Time),182588.0,CFD-WM-013-015-A.jpg,1900,solid,I,z,692,8,1,37887.0,144701.0,8031,ATS,A,17
17,test,1,A,haborder.png,1,z,Fri Feb 21 2025 09:47:58 GMT-0600 (Central Standard Time),185838.79999999702,CFD-WM-013-015-A.jpg,1900,solid,I,z,1317,8,1,41137.79999999702,144701.0,8031,ATS,A,18
18,test,1,A,haborder.png,1,z,Fri Feb 21 2025 09:47:58 GMT-0600 (Central Standard Time),188604.0,CFD-BM-005-010-A.jpg,1600,solid,I,z,1134,2,1,43903.0,144701.0,8031,ATS,A,19
19,test,1,A,haborder.png,1,m,Fri Feb 21 2025 09:47:58 GMT-0600 (Central Standard Time),191169.09999999404,CFD-WM-006-013-HC.jpg,1700,solid,I,m,836,9,1,46468.09999999404,144701.0,8031,ATS,A,20
19,test,1,A,haborder.png,0,m,Fri Feb 21 2025 09:47:58 GMT-0600 (Central Standard Time),194402.5,CFD-BM-017-052-HC.jpg,1700,solid,I,None,1515,1,1,49701.5,144701.0,8031,ATS,A,21
20,test,1,A,haborder.png,1,m,Fri Feb 21 2025 09:47:58 GMT-0600 (Central Standard Time),196400.19999999553,CFD-WM-004-005-HC.jpg,1400,solid,I,m,579,7,1,51699.19999999553,144701.0,8031,ATS,A,22
21,test,1,A,haborder.png,1,m,Fri Feb 21 2025 09:47:58 GMT-0600 (Central Standard Time),198533.8999999985,CFD-BM-029-026-HC.jpg,1500,solid,I,m,615,3,1,53832.89999999851,144701.0,8031,ATS,A,23
22,test,1,A,haborder.png,1,z,Fri Feb 21 2025 09:47:58 GMT-0600 (Central Standard Time),200586.3999999985,CFD-BF-039-039-A.jpg,1200,solid,I,z,817,6,1,55885.39999999851,144701.0,8031,ATS,A,24
1,test,1,B,mfborder.png,1,m,Fri Feb 21 2025 09:47:58 GMT-0600 (Central Standard Time),211912.19999999553,CFD-WM-006-013-HC.jpg,1600,dash,I,m,538,10,1,2166.39999999851,209745.79999999702,8031,ATS,A,1
2,test,1,B,mfborder.png,1,m,Fri Feb 21 2025 09:47:58 GMT-0600 (Central Standard Time),213612.69999999553,CFD-WM-019-013-A.jpg,1200,dash,I,m,467,6,1,3866.89999999851,209745.79999999702,8031,ATS,A,2
3,test,1,B,mfborder.png,1,m,Fri Feb 21 2025 09:47:58 GMT-0600 (Central Standard Time),216327.69999999553,CFD-BM-005-010-A.jpg,2000,dash,I,m,687,5,1,6581.89999999851,209745.79999999702,8031,ATS,A,3
4,test,1,B,mfborder.png,1,m,Fri Feb 21 2025 09:47:58 GMT-0600 (Central Standard Time),218544.19999999553,CFD-WM-006-013-HC.jpg,1600,dash,I,m,588,10,1,8798.39999999851,209745.79999999702,8031,ATS,A,4
5,test,1,B,mfborder.png,1,m,Fri Feb 21 2025 09:47:58 GMT-0600 (Central Standard Time),220942.29999999702,CFD-BM-029-026-HC.jpg,1700,dash,I,m,678,1,1,11196.5,209745.79999999702,8031,ATS,A,5
6,test,1,B,mfborder.png,1,m,Fri Feb 21 2025 09:47:58 GMT-0600 (Central Standard Time),223276.09999999404,CFD-WM-013-015-A.jpg,1700,dash,I,m,607,9,1,13530.29999999702,209745.79999999702,8031,ATS,A,6
7,test,1,B,mfborder.png,1,m,Fri Feb 21 2025 09:47:58 GMT-0600 (Central Standard Time),225442.69999999553,CFD-BM-029-026-HC.jpg,1700,dash,I,m,445,1,1,15696.89999999851,209745.79999999702,8031,ATS,A,7
8,test,1,B,mfborder.png,1,m,Fri Feb 21 2025 09:47:58 GMT-0600 (Central Standard Time),227542.5,CFD-BM-010-019-A.jpg,1600,dash,I,m,483,2,1,17796.70000000298,209745.79999999702,8031,ATS,A,8
9,test,1,B,mfborder.png,1,m,Fri Feb 21 2025 09:47:58 GMT-0600 (Central Standard Time),230073.5,CFD-BM-005-010-A.jpg,2000,dash,I,m,512,5,1,20327.70000000298,209745.79999999702,8031,ATS,A,9
10,test,1,B,mfborder.png,1,z,Fri Feb 21 2025 09:47:58 GMT-0600 (Central Standard Time),231722.69999999553,CFD-BF-023-013-A.jpg,1000,dash,I,z,614,4,1,21976.89999999851,209745.79999999702,8031,ATS,A,10
11,test,1,B,mfborder.png,1,z,Fri Feb 21 2025 09:47:58 GMT-0600 (Central Standard Time),233240.5,CFD-WF-017-016-HC.jpg,1000,dash,I,z,497,12,1,23494.70000000298,209745.79999999702,8031,ATS,A,11
12,test,1,B,mfborder.png,1,m,Fri Feb 21 2025 09:47:58 GMT-0600 (Central Standard Time),235521.29999999702,CFD-WM-013-015-A.jpg,1700,dash,I,m,560,9,1,25775.5,209745.79999999702,8031,ATS,A,12
13,test,1,B,mfborder.png,1,z,Fri Feb 21 2025 09:47:58 GMT-0600 (Central Standard Time),237389.8999999985,CFD-BF-028-020-HC.jpg,1400,dash,I,z,451,7,1,27644.10000000149,209745.79999999702,8031,ATS,A,13
14,test,1,B,mfborder.png,1,m,Fri Feb 21 2025 09:47:58 GMT-0600 (Central Standard Time),239171.0,CFD-WM-019-013-A.jpg,1200,dash,I,m,552,6,1,29425.20000000298,209745.79999999702,8031,ATS,A,14
15,test,1,B,mfborder.png,1,z,Fri Feb 21 2025 09:47:58 GMT-0600 (Central Standard Time),241353.5,CFD-WF-003-014-A.jpg,1500,dash,I,z,653,11,1,31607.70000000298,209745.79999999702,8031,ATS,A,15
16,test,1,B,mfborder.png,1,z,Fri Feb 21 2025 09:47:58 GMT-0600 (Central Standard Time),243169.19999999553,CFD-WF-017-016-HC.jpg,1000,dash,I,z,794,12,1,33423.39999999851,209745.79999999702,8031,ATS,A,16
17,test,1,B,mfborder.png,1,z,Fri Feb 21 2025 09:47:58 GMT-0600 (Central Standard Time),245034.3999999985,CFD-BF-028-020-HC.jpg,1400,dash,I,z,443,7,1,35288.60000000149,209745.79999999702,8031,ATS,A,17
18,test,1,B,mfborder.png,1,m,Fri Feb 21 2025 09:47:58 GMT-0600 (Central Standard Time),247286.69999999553,CFD-BM-010-019-A.jpg,1600,dash,I,m,634,2,1,37540.89999999851,209745.79999999702,8031,ATS,A,18
19,test,1,B,mfborder.png,1,z,Fri Feb 21 2025 09:47:58 GMT-0600 (Central Standard Time),249832.79999999702,CFD-WF-002-008-HC.jpg,1900,dash,I,z,618,8,1,40087.0,209745.79999999702,8031,ATS,A,19
20,test,1,B,mfborder.png,1,z,Fri Feb 21 2025 09:47:58 GMT-0600 (Central Standard Time),251817.19999999553,CFD-WF-003-014-A.jpg,1500,dash,I,z,462,11,1,42071.39999999851,209745.79999999702,8031,ATS,A,20
21,test,1,B,mfborder.png,1,z,Fri Feb 21 2025 09:47:58 GMT-0600 (Central Standard Time),253816.79999999702,CFD-BF-010-005-HC.jpg,1500,dash,I,z,470,3,1,44071.0,209745.79999999702,8031,ATS,A,21
22,test,1,B,mfborder.png,1,z,Fri Feb 21 2025 09:47:58 GMT-0600 (Central Standard Time),255316.19999999553,CFD-BF-023-013-A.jpg,1000,dash,I,z,478,4,1,45570.39999999851,209745.79999999702,8031,ATS,A,22
23,test,1,B,mfborder.png,1,z,Fri Feb 21 2025 09:47:58 GMT-0600 (Central Standard Time),257264.8999999985,CFD-BF-010-005-HC.jpg,1500,dash,I,z,420,3,1,47519.10000000149,209745.79999999702,8031,ATS,A,23
24,test,1,B,mfborder.png,1,z,Fri Feb 21 2025 09:47:58 GMT-0600 (Central Standard Time),259605.29999999702,CFD-WF-002-008-HC.jpg,1900,dash,I,z,415,8,1,49859.5,209745.79999999702,8031,ATS,A,24
0,prac,1,C,haborder.png,0,m,Fri Feb 21 2025 09:47:58 GMT-0600 (Central Standard Time),291038.0,CFD-WM-004-005-HC.jpg,1400,solid,I,None,1516,12,1,3699.2000000029802,287338.799999997,8031,ATS,A,1
0,prac,1,C,mfborder.png,0,z,Fri Feb 21 2025 09:47:58 GMT-0600 (Central Standard Time),294320.19999999553,CFD-BF-028-020-HC.jpg,1000,dash,I,None,1501,3,1,6981.39999999851,287338.799999997,8031,ATS,A,2
0,prac,1,C,haborder.png,0,z,Fri Feb 21 2025 09:47:58 GMT-0600 (Central Standard Time),298518.19999999553,CFD-BF-023-013-A.jpg,1900,dash,I,None,1516,7,1,11179.39999999851,287338.799999997,8031,ATS,A,3
1,prac,1,C,haborder.png,1,z,Fri Feb 21 2025 09:47:58 GMT-0600 (Central Standard Time),301585.09999999404,CFD-WF-003-014-A.jpg,1600,dash,I,z,670,9,1,14246.29999999702,287338.799999997,8031,ATS,A,4
1,prac,1,C,mfborder.png,0,z,Fri Feb 21 2025 09:47:58 GMT-0600 (Central Standard Time),305134.09999999404,CFD-WF-019-015-A.jpg,1500,solid,I,m,1266,2,1,17795.29999999702,287338.799999997,8031,ATS,A,5
2,prac,1,C,haborder.png,1,z,Fri Feb 21 2025 09:47:58 GMT-0600 (Central Standard Time),308732.0,CFD-BF-039-039-A.jpg,1700,solid,I,z,1099,8,1,21393.20000000298,287338.799999997,8031,ATS,A,6
2,prac,1,C,mfborder.png,0,z,Fri Feb 21 2025 09:47:58 GMT-0600 (Central Standard Time),312364.799999997,CFD-WF-017-016-HC.jpg,1600,dash,I,m,1249,1,1,25026.0,287338.799999997,8031,ATS,A,7
2,prac,1,C,mfborder.png,0,m,Fri Feb 21 2025 09:47:58 GMT-0600 (Central Standard Time),315880.5,CFD-BM-005-010-A.jpg,1200,dash,I,None,1516,5,1,28541.70000000298,287338.799999997,8031,ATS,A,8
3,prac,1,C,haborder.png,1,m,Fri Feb 21 2025 09:47:58 GMT-0600 (Central Standard Time),319530.0,CFD-BM-029-026-HC.jpg,1500,solid,I,m,1360,10,1,32191.20000000298,287338.799999997,8031,ATS,A,9
4,prac,1,C,mfborder.png,1,m,Fri Feb 21 2025 09:47:58 GMT-0600 (Central Standard Time),323029.59999999404,CFD-WM-013-015-A.jpg,1700,solid,I,m,999,6,1,35690.79999999702,287338.799999997,8031,ATS,A,10
4,prac,1,C,haborder.png,0,m,Fri Feb 21 2025 09:47:58 GMT-0600 (Central Standard Time),326326.09999999404,CFD-WM-004-005-HC.jpg,1000,dash,I,None,1515,11,1,38987.29999999702,287338.799999997,8031,ATS,A,11
5,prac,1,C,mfborder.png,1,m,Fri Feb 21 2025 09:47:58 GMT-0600 (Central Standard Time),330410.299999997,CFD-BM-017-052-HC.jpg,2000,solid,I,m,1284,4,1,43071.5,287338.799999997,8031,ATS,A,12
0,prac,2,C,haborder.png,0,m,Fri Feb 21 2025 09:47:58 GMT-0600 (Central Standard Time),338988.799999997,CFD-BM-029-026-HC.jpg,1500,solid,I,None,1515,10,1,51650.0,287338.799999997,8031,ATS,A,1
1,prac,2,C,haborder.png,1,z,Fri Feb 21 2025 09:47:58 GMT-0600 (Central Standard Time),342688.0,CFD-BF-039-039-A.jpg,1700,solid,I,z,1202,8,1,55349.20000000298,287338.799999997,8031,ATS,A,2
2,prac,2,C,haborder.png,1,m,Fri Feb 21 2025 09:47:58 GMT-0600 (Central Standard Time),345570.59999999404,CFD-WM-004-005-HC.jpg,1000,dash,I,m,1092,11,1,58231.79999999702,287338.799999997,8031,ATS,A,3
3,prac,2,C,mfborder.png,1,z,Fri Feb 21 2025 09:47:58 GMT-0600 (Central Standard Time),348702.3999999985,CFD-BF-028-020-HC.jpg,1000,dash,I,z,1337,3,1,61363.60000000149,287338.799999997,8031,ATS,A,4
3,prac,2,C,mfborder.png,0,m,Fri Feb 21 2025 09:47:58 GMT-0600 (Central Standard Time),353002.299999997,CFD-BM-017-052-HC.jpg,2000,solid,I,None,1516,4,1,65663.5,287338.799999997,8031,ATS,A,5
4,prac,2,C,mfborder.png,1,z,Fri Feb 21 2025 09:47:58 GMT-0600 (Central Standard Time),356518.19999999553,CFD-WF-017-016-HC.jpg,1600,dash,I,z,1122,1,1,69179.39999999851,287338.799999997,8031,ATS,A,6
5,prac,2,C,mfborder.png,1,z,Fri Feb 21 2025 09:47:58 GMT-0600 (Central Standard Time),360115.59999999404,CFD-WF-019-015-A.jpg,1500,solid,I,z,1307,2,1,72776.79999999702,287338.799999997,8031,ATS,A,7
6,prac,2,C,haborder.png,1,z,Fri Feb 21 2025 09:47:58 GMT-0600 (Central Standard Time),363632.59999999404,CFD-WF-003-014-A.jpg,1600,dash,I,z,1116,9,1,76293.79999999702,287338.799999997,8031,ATS,A,8
7,prac,2,C,mfborder.png,1,m,Fri Feb 21 2025 09:47:58 GMT-0600 (Central Standard Time),367132.09999999404,CFD-WM-013-015-A.jpg,1700,solid,I,m,1009,6,1,79793.29999999702,287338.799999997,8031,ATS,A,9
8,prac,2,C,mfborder.png,1,m,Fri Feb 21 2025 09:47:58 GMT-0600 (Central Standard Time),370245.5,CFD-BM-005-010-A.jpg,1200,dash,I,m,1103,5,1,82906.70000000298,287338.799999997,8031,ATS,A,10
8,prac,2,C,haborder.png,0,m,Fri Feb 21 2025 09:47:58 GMT-0600 (Central Standard Time),373927.0,CFD-WM-004-005-HC.jpg,1400,solid,I,None,1501,12,1,86588.20000000298,287338.799999997,8031,ATS,A,11
9,prac,2,C,haborder.png,1,z,Fri Feb 21 2025 09:47:58 GMT-0600 (Central Standard Time),377877.799999997,CFD-BF-023-013-A.jpg,1900,dash,I,z,1266,7,1,90539.0,287338.799999997,8031,ATS,A,12
0,test,1,C,mfborder.png,0,m,Fri Feb 21 2025 09:47:58 GMT-0600 (Central Standard Time),394221.3999999985,CFD-WM-019-013-A.jpg,2000,dash,I,None,1515,5,1,3532.3000000044703,390689.09999999404,8031,ATS,A,1
1,test,1,C,mfborder.png,1,z,Fri Feb 21 2025 09:47:58 GMT-0600 (Central Standard Time),397403.3999999985,CFD-BF-010-005-HC.jpg,1700,dash,I,z,1443,1,1,6714.30000000447,390689.09999999404,8031,ATS,A,2
1,test,1,C,haborder.png,0,z,Fri Feb 21 2025 09:47:58 GMT-0600 (Central Standard Time),400452.5,CFD-BM-010-019-A.jpg,1700,solid,I,m,1324,9,1,9763.40000000596,390689.09999999404,8031,ATS,A,3
2,test,1,C,mfborder.png,1,m,Fri Feb 21 2025 09:47:58 GMT-0600 (Central Standard Time),402584.3999999985,CFD-WM-006-013-HC.jpg,1000,dash,I,m,1111,4,1,11895.30000000447,390689.09999999404,8031,ATS,A,4
3,test,1,C,haborder.png,1,z,Fri Feb 21 2025 09:47:58 GMT-0600 (Central Standard Time),405818.09999999404,CFD-BM-005-010-A.jpg,1900,solid,I,z,1303,8,1,15129.0,390689.09999999404,8031,ATS,A,5
4,test,1,C,haborder.png,1,m,Fri Feb 21 2025 09:47:58 GMT-0600 (Central Standard Time),408583.799999997,CFD-WF-002-008-HC.jpg,1500,solid,I,m,1239,11,1,17894.70000000298,390689.09999999404,8031,ATS,A,6
5,test,1,C,haborder.png,1,z,Fri Feb 21 2025 09:47:58 GMT-0600 (Central Standard Time),411682.19999999553,CFD-BM-005-010-A.jpg,1900,solid,I,z,1168,8,1,20993.10000000149,390689.09999999404,8031,ATS,A,7
6,test,1,C,haborder.png,1,m,Fri Feb 21 2025 09:47:58 GMT-0600 (Central Standard Time),413847.5,CFD-WF-017-016-HC.jpg,1000,solid,I,m,1144,12,1,23158.40000000596,390689.09999999404,8031,ATS,A,8
7,test,1,C,mfborder.png,1,m,Fri Feb 21 2025 09:47:58 GMT-0600 (Central Standard Time),415747.69999999553,CFD-WM-006-013-HC.jpg,1000,dash,I,m,867,4,1,25058.60000000149,390689.09999999404,8031,ATS,A,9
7,test,1,C,haborder.png,0,m,Fri Feb 21 2025 09:47:58 GMT-0600 (Central Standard Time),418281.19999999553,CFD-WF-017-016-HC.jpg,1000,solid,I,None,1508,12,1,27592.10000000149,390689.09999999404,8031,ATS,A,10
7,test,1,C,mfborder.png,0,z,Fri Feb 21 2025 09:47:58 GMT-0600 (Central Standard Time),421313.59999999404,CFD-WF-003-014-A.jpg,1500,dash,I,None,1514,3,1,30624.5,390689.09999999404,8031,ATS,A,11
7,test,1,C,mfborder.png,0,z,Fri Feb 21 2025 09:47:58 GMT-0600 (Central Standard Time),424546.69999999553,CFD-BF-010-005-HC.jpg,1700,dash,I,None,1517,1,1,33857.60000000149,390689.09999999404,8031,ATS,A,12
8,test,1,C,haborder.png,1,z,Fri Feb 21 2025 09:47:58 GMT-0600 (Central Standard Time),427344.0,CFD-WM-013-015-A.jpg,1400,solid,I,z,1370,7,1,36654.90000000596,390689.09999999404,8031,ATS,A,13
9,test,1,C,mfborder.png,1,m,Fri Feb 21 2025 09:47:58 GMT-0600 (Central Standard Time),430393.299999997,CFD-WM-019-013-A.jpg,2000,dash,I,m,1033,5,1,39704.20000000298,390689.09999999404,8031,ATS,A,14
10,test,1,C,haborder.png,1,z,Fri Feb 21 2025 09:47:58 GMT-0600 (Central Standard Time),433275.69999999553,CFD-WM-013-015-A.jpg,1400,solid,I,z,1453,7,1,42586.60000000149,390689.09999999404,8031,ATS,A,15
11,test,1,C,haborder.png,1,m,Fri Feb 21 2025 09:47:58 GMT-0600 (Central Standard Time),435725.3999999985,CFD-WF-002-008-HC.jpg,1500,solid,I,m,917,11,1,45036.30000000447,390689.09999999404,8031,ATS,A,16
11,test,1,C,mfborder.png,0,z,Fri Feb 21 2025 09:47:58 GMT-0600 (Central Standard Time),438756.3999999985,CFD-WF-003-014-A.jpg,1500,dash,I,None,1513,3,1,48067.30000000447,390689.09999999404,8031,ATS,A,17
12,test,1,C,mfborder.png,1,z,Fri Feb 21 2025 09:47:58 GMT-0600 (Central Standard Time),441206.5,CFD-BF-023-013-A.jpg,1600,dash,I,z,822,2,1,50517.40000000596,390689.09999999404,8031,ATS,A,18
13,test,1,C,mfborder.png,1,m,Fri Feb 21 2025 09:47:58 GMT-0600 (Central Standard Time),443557.8999999985,CFD-BM-029-026-HC.jpg,1200,dash,I,m,1134,6,1,52868.80000000447,390689.09999999404,8031,ATS,A,19
14,test,1,C,mfborder.png,1,m,Fri Feb 21 2025 09:47:58 GMT-0600 (Central Standard Time),445703.5,CFD-BM-029-026-HC.jpg,1200,dash,I,m,927,6,1,55014.40000000596,390689.09999999404,8031,ATS,A,20
14,test,1,C,haborder.png,0,z,Fri Feb 21 2025 09:47:58 GMT-0600 (Central Standard Time),448870.799999997,CFD-BM-010-019-A.jpg,1700,solid,I,m,1438,9,1,58181.70000000298,390689.09999999404,8031,ATS,A,21
14,test,1,C,haborder.png,0,m,Fri Feb 21 2025 09:47:58 GMT-0600 (Central Standard Time),452001.8999999985,CFD-BF-028-020-HC.jpg,1600,solid,I,None,1514,10,1,61312.80000000447,390689.09999999404,8031,ATS,A,22
15,test,1,C,mfborder.png,1,z,Fri Feb 21 2025 09:47:58 GMT-0600 (Central Standard Time),454985.59999999404,CFD-BF-023-013-A.jpg,1600,dash,I,z,1362,2,1,64296.5,390689.09999999404,8031,ATS,A,23
15,test,1,C,haborder.png,0,m,Fri Feb 21 2025 09:47:58 GMT-0600 (Central Standard Time),458117.5,CFD-BF-028-020-HC.jpg,1600,solid,I,None,1512,10,1,67428.40000000596,390689.09999999404,8031,ATS,A,24
1,test,2,C,mfborder.png,1,m,Fri Feb 21 2025 09:47:58 GMT-0600 (Central Standard Time),466714.59999999404,CFD-BM-017-052-HC.jpg,1000,dash,I,m,1143,4,1,2181.39999999851,464533.19999999553,8031,ATS,A,1
1,test,2,C,haborder.png,0,m,Fri Feb 21 2025 09:47:58 GMT-0600 (Central Standard Time),469747.3999999985,CFD-WM-004-005-HC.jpg,1500,solid,I,None,1508,11,1,5214.20000000298,464533.19999999553,8031,ATS,A,2
2,test,2,C,haborder.png,1,m,Fri Feb 21 2025 09:47:58 GMT-0600 (Central Standard Time),471479.59999999404,CFD-WM-004-005-HC.jpg,1000,solid,I,m,713,12,1,6946.39999999851,464533.19999999553,8031,ATS,A,3
3,test,2,C,mfborder.png,1,m,Fri Feb 21 2025 09:47:58 GMT-0600 (Central Standard Time),473861.0,CFD-WM-013-015-A.jpg,1200,dash,I,m,1163,6,1,9327.80000000447,464533.19999999553,8031,ATS,A,4
4,test,2,C,mfborder.png,1,z,Fri Feb 21 2025 09:47:58 GMT-0600 (Central Standard Time),476728.5,CFD-WF-019-015-A.jpg,1600,dash,I,z,1235,2,1,12195.30000000447,464533.19999999553,8031,ATS,A,5
4,test,2,C,mfborder.png,0,m,Fri Feb 21 2025 09:47:58 GMT-0600 (Central Standard Time),480245.59999999404,CFD-BM-005-010-A.jpg,2000,dash,I,None,1501,5,1,15712.39999999851,464533.19999999553,8031,ATS,A,6
4,test,2,C,mfborder.png,0,m,Fri Feb 21 2025 09:47:58 GMT-0600 (Central Standard Time),482784.19999999553,CFD-BM-017-052-HC.jpg,1000,dash,I,None,1514,4,1,18251.0,464533.19999999553,8031,ATS,A,7
5,test,2,C,mfborder.png,1,m,Fri Feb 21 2025 09:47:58 GMT-0600 (Central Standard Time),485526.8999999985,CFD-BM-005-010-A.jpg,2000,dash,I,m,724,5,1,20993.70000000298,464533.19999999553,8031,ATS,A,8
5,test,2,C,haborder.png,0,z,Fri Feb 21 2025 09:47:58 GMT-0600 (Central Standard Time),488458.19999999553,CFD-BF-023-013-A.jpg,1400,solid,I,None,1513,7,1,23925.0,464533.19999999553,8031,ATS,A,9
6,test,2,C,mfborder.png,1,m,Fri Feb 21 2025 09:47:58 GMT-0600 (Central Standard Time),490774.8999999985,CFD-WM-013-015-A.jpg,1200,dash,I,m,1089,6,1,26241.70000000298,464533.19999999553,8031,ATS,A,10
7,test,2,C,mfborder.png,1,z,Fri Feb 21 2025 09:47:58 GMT-0600 (Central Standard Time),493707.09999999404,CFD-WF-017-016-HC.jpg,1700,dash,I,z,1201,1,1,29173.89999999851,464533.19999999553,8031,ATS,A,11
7,test,2,C,haborder.png,0,m,Fri Feb 21 2025 09:47:58 GMT-0600 (Central Standard Time),496239.0,CFD-WM-004-005-HC.jpg,1000,solid,I,None,1515,12,1,31705.80000000447,464533.19999999553,8031,ATS,A,12
8,test,2,C,haborder.png,1,z,Fri Feb 21 2025 09:47:58 GMT-0600 (Central Standard Time),499206.0,CFD-BF-039-039-A.jpg,1900,solid,I,z,1049,8,1,34672.80000000447,464533.19999999553,8031,ATS,A,13
9,test,2,C,haborder.png,1,m,Fri Feb 21 2025 09:47:58 GMT-0600 (Central Standard Time),501770.8999999985,CFD-BM-029-026-HC.jpg,1600,solid,I,m,941,10,1,37237.70000000298,464533.19999999553,8031,ATS,A,14
10,test,2,C,haborder.png,1,z,Fri Feb 21 2025 09:47:58 GMT-0600 (Central Standard Time),504802.3999999985,CFD-BF-039-039-A.jpg,1900,solid,I,z,1108,8,1,40269.20000000298,464533.19999999553,8031,ATS,A,15
11,test,2,C,mfborder.png,1,z,Fri Feb 21 2025 09:47:58 GMT-0600 (Central Standard Time),507917.799999997,CFD-WF-019-015-A.jpg,1600,dash,I,z,1488,2,1,43384.60000000149,464533.19999999553,8031,ATS,A,16
11,test,2,C,haborder.png,0,z,Fri Feb 21 2025 09:47:58 GMT-0600 (Central Standard Time),510852.8999999985,CFD-BF-023-013-A.jpg,1400,solid,I,None,1520,7,1,46319.70000000298,464533.19999999553,8031,ATS,A,17
11,test,2,C,mfborder.png,0,z,Fri Feb 21 2025 09:47:58 GMT-0600 (Central Standard Time),513884.19999999553,CFD-BF-028-020-HC.jpg,1500,dash,I,None,1515,3,1,49351.0,464533.19999999553,8031,ATS,A,18
12,test,2,C,mfborder.png,1,z,Fri Feb 21 2025 09:47:58 GMT-0600 (Central Standard Time),516502.19999999553,CFD-BF-028-020-HC.jpg,1500,dash,I,z,1093,3,1,51969.0,464533.19999999553,8031,ATS,A,19
13,test,2,C,haborder.png,1,m,Fri Feb 21 2025 09:47:58 GMT-0600 (Central Standard Time),519314.69999999553,CFD-WM-004-005-HC.jpg,1500,solid,I,m,1292,11,1,54781.5,464533.19999999553,8031,ATS,A,20
13,test,2,C,haborder.png,0,z,Fri Feb 21 2025 09:47:58 GMT-0600 (Central Standard Time),522548.59999999404,CFD-WF-003-014-A.jpg,1700,solid,I,None,1516,9,1,58015.39999999851,464533.19999999553,8031,ATS,A,21
13,test,2,C,haborder.png,0,m,Fri Feb 21 2025 09:47:58 GMT-0600 (Central Standard Time),525679.299999997,CFD-BM-029-026-HC.jpg,1600,solid,I,None,1514,10,1,61146.10000000149,464533.19999999553,8031,ATS,A,22
14,test,2,C,mfborder.png,1,z,Fri Feb 21 2025 09:47:58 GMT-0600 (Central Standard Time),528761.099999994,CFD-WF-017-016-HC.jpg,1700,dash,I,z,1361,1,1,64227.89999999851,464533.19999999553,8031,ATS,A,23
14,test,2,C,haborder.png,0,z,Fri Feb 21 2025 09:47:58 GMT-0600 (Central Standard Time),531996.3999999985,CFD-WF-003-014-A.jpg,1700,solid,I,None,1516,9,1,67463.20000000298,464533.19999999553,8031,ATS,A,24
1,test,3,C,mfborder.png,1,m,Fri Feb 21 2025 09:47:58 GMT-0600 (Central Standard Time),535643.799999997,CFD-BM-029-026-HC.jpg,1200,dash,I,m,935,6,1,2166.39999999851,533477.3999999985,8031,ATS,A,1
2,test,3,C,haborder.png,1,z,Fri Feb 21 2025 09:47:58 GMT-0600 (Central Standard Time),538310.799999997,CFD-WM-013-015-A.jpg,1400,solid,I,z,1244,7,1,4833.39999999851,533477.3999999985,8031,ATS,A,2
3,test,3,C,haborder.png,1,z,Fri Feb 21 2025 09:47:58 GMT-0600 (Central Standard Time),541208.5,CFD-BM-005-010-A.jpg,1900,solid,I,z,971,8,1,7731.10000000149,533477.3999999985,8031,ATS,A,3
4,test,3,C,mfborder.png,1,z,Fri Feb 21 2025 09:47:58 GMT-0600 (Central Standard Time),544223.099999994,CFD-WF-003-014-A.jpg,1500,dash,I,z,1488,3,1,10745.69999999553,533477.3999999985,8031,ATS,A,4
4,test,3,C,mfborder.png,0,m,Fri Feb 21 2025 09:47:58 GMT-0600 (Central Standard Time),546756.799999997,CFD-WM-006-013-HC.jpg,1000,dash,I,None,1516,4,1,13279.39999999851,533477.3999999985,8031,ATS,A,5
4,test,3,C,haborder.png,0,m,Fri Feb 21 2025 09:47:58 GMT-0600 (Central Standard Time),549223.1999999955,CFD-BF-028-020-HC.jpg,1600,solid,I,z,839,10,1,15745.79999999702,533477.3999999985,8031,ATS,A,6
5,test,3,C,mfborder.png,1,z,Fri Feb 21 2025 09:47:58 GMT-0600 (Central Standard Time),551821.8999999985,CFD-WF-003-014-A.jpg,1500,dash,I,z,1074,3,1,18344.5,533477.3999999985,8031,ATS,A,7
6,test,3,C,haborder.png,1,m,Fri Feb 21 2025 09:47:58 GMT-0600 (Central Standard Time),554604.799999997,CFD-WF-002-008-HC.jpg,1500,solid,I,m,1249,11,1,21127.39999999851,533477.3999999985,8031,ATS,A,8
6,test,3,C,mfborder.png,0,m,Fri Feb 21 2025 09:47:58 GMT-0600 (Central Standard Time),558136.0,CFD-WM-019-013-A.jpg,2000,dash,I,None,1514,5,1,24658.60000000149,533477.3999999985,8031,ATS,A,9
7,test,3,C,mfborder.png,1,z,Fri Feb 21 2025 09:47:58 GMT-0600 (Central Standard Time),560802.0,CFD-BF-023-013-A.jpg,1600,dash,I,z,1037,2,1,27324.60000000149,533477.3999999985,8031,ATS,A,10
7,test,3,C,haborder.png,0,z,Fri Feb 21 2025 09:47:58 GMT-0600 (Central Standard Time),564219.3999999985,CFD-BM-005-010-A.jpg,1900,solid,I,None,1501,8,1,30742.0,533477.3999999985,8031,ATS,A,11
8,test,3,C,haborder.png,1,m,Fri Feb 21 2025 09:47:58 GMT-0600 (Central Standard Time),566850.8999999985,CFD-WF-002-008-HC.jpg,1500,solid,I,m,1113,11,1,33373.5,533477.3999999985,8031,ATS,A,12
9,test,3,C,mfborder.png,1,z,Fri Feb 21 2025 09:47:58 GMT-0600 (Central Standard Time),569833.299999997,CFD-BF-023-013-A.jpg,1600,dash,I,z,1354,2,1,36355.89999999851,533477.3999999985,8031,ATS,A,13
10,test,3,C,haborder.png,1,m,Fri Feb 21 2025 09:47:58 GMT-0600 (Central Standard Time),572915.6999999955,CFD-BF-028-020-HC.jpg,1600,solid,I,m,1450,10,1,39438.29999999702,533477.3999999985,8031,ATS,A,14
11,test,3,C,haborder.png,1,z,Fri Feb 21 2025 09:47:58 GMT-0600 (Central Standard Time),575479.8999999985,CFD-WM-013-015-A.jpg,1400,solid,I,z,1137,7,1,42002.5,533477.3999999985,8031,ATS,A,15
12,test,3,C,mfborder.png,1,z,Fri Feb 21 2025 09:47:58 GMT-0600 (Central Standard Time),578313.099999994,CFD-BF-010-005-HC.jpg,1700,dash,I,z,1103,1,1,44835.69999999553,533477.3999999985,8031,ATS,A,16
13,test,3,C,mfborder.png,1,z,Fri Feb 21 2025 09:47:58 GMT-0600 (Central Standard Time),580962.599999994,CFD-BF-010-005-HC.jpg,1700,dash,I,z,927,1,1,47485.19999999553,533477.3999999985,8031,ATS,A,17
13,test,3,C,haborder.png,0,z,Fri Feb 21 2025 09:47:58 GMT-0600 (Central Standard Time),584062.5,CFD-BM-010-019-A.jpg,1700,solid,I,m,1383,9,1,50585.10000000149,533477.3999999985,8031,ATS,A,18
13,test,3,C,haborder.png,0,z,Fri Feb 21 2025 09:47:58 GMT-0600 (Central Standard Time),586828.3999999985,CFD-BM-010-019-A.jpg,1700,solid,I,m,1043,9,1,53351.0,533477.3999999985,8031,ATS,A,19
13,test,3,C,mfborder.png,0,m,Fri Feb 21 2025 09:47:58 GMT-0600 (Central Standard Time),589359.6999999955,CFD-WM-006-013-HC.jpg,1000,dash,I,None,1514,4,1,55882.29999999702,533477.3999999985,8031,ATS,A,20
13,test,3,C,haborder.png,0,m,Fri Feb 21 2025 09:47:58 GMT-0600 (Central Standard Time),591874.1999999955,CFD-WF-017-016-HC.jpg,1000,solid,I,z,1492,12,1,58396.79999999702,533477.3999999985,8031,ATS,A,21
14,test,3,C,haborder.png,1,m,Fri Feb 21 2025 09:47:58 GMT-0600 (Central Standard Time),593559.599999994,CFD-WF-017-016-HC.jpg,1000,solid,I,m,666,12,1,60082.19999999553,533477.3999999985,8031,ATS,A,22
15,test,3,C,mfborder.png,1,m,Fri Feb 21 2025 09:47:58 GMT-0600 (Central Standard Time),597057.0,CFD-WM-019-013-A.jpg,2000,dash,I,m,1469,5,1,63579.60000000149,533477.3999999985,8031,ATS,A,23
16,test,3,C,mfborder.png,1,m,Fri Feb 21 2025 09:47:58 GMT-0600 (Central Standard Time),599523.5,CFD-BM-029-026-HC.jpg,1200,dash,I,m,1233,6,1,66046.10000000149,533477.3999999985,8031,ATS,A,24
1,test,4,C,haborder.png,1,z,Fri Feb 21 2025 09:47:58 GMT-0600 (Central Standard Time),604254.3999999985,CFD-WF-003-014-A.jpg,1700,solid,I,z,1405,9,1,3132.5,601121.8999999985,8031,ATS,A,1
1,test,4,C,mfborder.png,0,z,Fri Feb 21 2025 09:47:58 GMT-0600 (Central Standard Time),607389.3999999985,CFD-WF-019-015-A.jpg,1600,dash,I,None,1517,2,1,6267.5,601121.8999999985,8031,ATS,A,2
2,test,4,C,haborder.png,1,z,Fri Feb 21 2025 09:47:58 GMT-0600 (Central Standard Time),610336.6999999955,CFD-BF-039-039-A.jpg,1900,solid,I,z,1023,8,1,9214.79999999702,601121.8999999985,8031,ATS,A,3
2,test,4,C,mfborder.png,0,z,Fri Feb 21 2025 09:47:58 GMT-0600 (Central Standard Time),613351.799999997,CFD-BF-028-020-HC.jpg,1500,dash,I,m,1488,3,1,12229.89999999851,601121.8999999985,8031,ATS,A,4
2,test,4,C,mfborder.png,0,m,Fri Feb 21 2025 09:47:58 GMT-0600 (Central Standard Time),616885.3999999985,CFD-BM-005-010-A.jpg,2000,dash,I,None,1516,5,1,15763.5,601121.8999999985,8031,ATS,A,5
3,test,4,C,mfborder.png,1,z,Fri Feb 21 2025 09:47:58 GMT-0600 (Central Standard Time),619683.5,CFD-WF-019-015-A.jpg,1600,dash,I,z,1160,2,1,18561.60000000149,601121.8999999985,8031,ATS,A,6
4,test,4,C,haborder.png,1,z,Fri Feb 21 2025 09:47:58 GMT-0600 (Central Standard Time),622499.6999999955,CFD-BF-023-013-A.jpg,1400,solid,I,z,1395,7,1,21377.79999999702,601121.8999999985,8031,ATS,A,7
4,test,4,C,haborder.png,0,m,Fri Feb 21 2025 09:47:58 GMT-0600 (Central Standard Time),625532.0,CFD-WM-004-005-HC.jpg,1500,solid,I,None,1507,11,1,24410.10000000149,601121.8999999985,8031,ATS,A,8
5,test,4,C,haborder.png,1,m,Fri Feb 21 2025 09:47:58 GMT-0600 (Central Standard Time),628313.599999994,CFD-BM-029-026-HC.jpg,1600,solid,I,m,1160,10,1,27191.69999999553,601121.8999999985,8031,ATS,A,9
6,test,4,C,mfborder.png,1,z,Fri Feb 21 2025 09:47:58 GMT-0600 (Central Standard Time),631129.0,CFD-WF-017-016-HC.jpg,1700,dash,I,z,1095,1,1,30007.10000000149,601121.8999999985,8031,ATS,A,10
7,test,4,C,mfborder.png,1,z,Fri Feb 21 2025 09:47:58 GMT-0600 (Central Standard Time),633961.6999999955,CFD-WF-017-016-HC.jpg,1700,dash,I,z,1110,1,1,32839.79999999702,601121.8999999985,8031,ATS,A,11
8,test,4,C,haborder.png,1,m,Fri Feb 21 2025 09:47:58 GMT-0600 (Central Standard Time),636511.299999997,CFD-WM-004-005-HC.jpg,1500,solid,I,m,1023,11,1,35389.39999999851,601121.8999999985,8031,ATS,A,12
8,test,4,C,mfborder.png,0,m,Fri Feb 21 2025 09:47:58 GMT-0600 (Central Standard Time),639062.0,CFD-WM-013-015-A.jpg,1200,dash,I,z,1334,6,1,37940.10000000149,601121.8999999985,8031,ATS,A,13
9,test,4,C,mfborder.png,1,m,Fri Feb 21 2025 09:47:58 GMT-0600 (Central Standard Time),642192.799999997,CFD-BM-005-010-A.jpg,2000,dash,I,m,1106,5,1,41070.89999999851,601121.8999999985,8031,ATS,A,14
9,test,4,C,haborder.png,0,z,Fri Feb 21 2025 09:47:58 GMT-0600 (Central Standard Time),645126.3999999985,CFD-BF-023-013-A.jpg,1400,solid,I,None,1517,7,1,44004.5,601121.8999999985,8031,ATS,A,15
9,test,4,C,mfborder.png,0,m,Fri Feb 21 2025 09:47:58 GMT-0600 (Central Standard Time),647658.1999999955,CFD-BM-017-052-HC.jpg,1000,dash,I,None,1516,4,1,46536.29999999702,601121.8999999985,8031,ATS,A,16
10,test,4,C,haborder.png,1,z,Fri Feb 21 2025 09:47:58 GMT-0600 (Central Standard Time),650423.799999997,CFD-WF-003-014-A.jpg,1700,solid,I,z,1040,9,1,49301.89999999851,601121.8999999985,8031,ATS,A,17
10,test,4,C,mfborder.png,0,z,Fri Feb 21 2025 09:47:58 GMT-0600 (Central Standard Time),653455.5,CFD-BF-028-020-HC.jpg,1500,dash,I,None,1514,3,1,52333.60000000149,601121.8999999985,8031,ATS,A,18
11,test,4,C,haborder.png,1,z,Fri Feb 21 2025 09:47:58 GMT-0600 (Central Standard Time),656389.1999999955,CFD-BF-039-039-A.jpg,1900,solid,I,z,998,8,1,55267.29999999702,601121.8999999985,8031,ATS,A,19
12,test,4,C,haborder.png,1,m,Fri Feb 21 2025 09:47:58 GMT-0600 (Central Standard Time),658553.6999999955,CFD-WM-004-005-HC.jpg,1000,solid,I,m,1142,12,1,57431.79999999702,601121.8999999985,8031,ATS,A,20
12,test,4,C,mfborder.png,0,m,Fri Feb 21 2025 09:47:58 GMT-0600 (Central Standard Time),661087.299999997,CFD-BM-017-052-HC.jpg,1000,dash,I,None,1515,4,1,59965.39999999851,601121.8999999985,8031,ATS,A,21
12,test,4,C,mfborder.png,0,m,Fri Feb 21 2025 09:47:58 GMT-0600 (Central Standard Time),663819.0,CFD-WM-013-015-A.jpg,1200,dash,I,None,1514,6,1,62697.10000000149,601121.8999999985,8031,ATS,A,22
13,test,4,C,haborder.png,1,m,Fri Feb 21 2025 09:47:58 GMT-0600 (Central Standard Time),666886.6999999955,CFD-BM-029-026-HC.jpg,1600,solid,I,m,1448,10,1,65764.79999999702,601121.8999999985,8031,ATS,A,23
14,test,4,C,haborder.png,1,m,Fri Feb 21 2025 09:47:58 GMT-0600 (Central Standard Time),668899.799999997,CFD-WM-004-005-HC.jpg,1000,solid,I,m,981,12,1,67777.89999999851,601121.8999999985,8031,ATS,A,24
