acc_sum,block,block_c,block_cond,con_img,correct,correct_response,datetime,endtime,face,jitter,line,project,response,response_time,row_sel,session_number,start_end,starttime,subject_id,task,task_vers,trial
0,prac,1,A,haborder.png,0,m,Fri Feb 21 2025 16:10:08 GMT-0600 (Central Standard Time),60297.699999999255,CFD-BM-017-052-HC.jpg,1700,solid,O,None,1516,1,1,3999.0,56298.699999999255,7062,ATS,A,1
1,prac,1,A,haborder.png,1,m,Fri Feb 21 2025 16:10:08 GMT-0600 (Central Standard Time),64329.5,CFD-BF-028-020-HC.jpg,2000,solid,O,m,1236,5,1,8030.800000000745,56298.699999999255,7062,ATS,A,2
2,prac,1,A,haborder.png,1,z,Fri Feb 21 2025 16:10:08 GMT-0600 (Central Standard Time),66828.80000000075,CFD-WF-019-015-A.jpg,1000,solid,O,z,715,12,1,10530.10000000149,56298.699999999255,7062,ATS,A,3
3,prac,1,A,haborder.png,1,z,Fri Feb 21 2025 16:10:08 GMT-0600 (Central Standard Time),70261.09999999776,CFD-WM-013-015-A.jpg,1900,solid,O,z,741,8,1,13962.39999999851,56298.699999999255,7062,ATS,A,4
4,prac,1,A,haborder.png,1,z,Fri Feb 21 2025 16:10:08 GMT-0600 (Central Standard Time),73360.19999999925,CFD-BM-005-010-A.jpg,1600,solid,O,z,712,2,1,17061.5,56298.699999999255,7062,ATS,A,5
5,prac,1,A,haborder.png,1,z,Fri Feb 21 2025 16:10:08 GMT-0600 (Central Standard Time),76092.5,CFD-BF-039-039-A.jpg,1200,solid,O,z,741,6,1,19793.800000000745,56298.699999999255,7062,ATS,A,6
6,prac,1,A,haborder.png,1,z,Fri Feb 21 2025 16:10:08 GMT-0600 (Central Standard Time),78525.09999999776,CFD-BF-023-013-A.jpg,1000,solid,O,z,648,4,1,22226.39999999851,56298.699999999255,7062,ATS,A,7
7,prac,1,A,haborder.png,1,m,Fri Feb 21 2025 16:10:08 GMT-0600 (Central Standard Time),81707.5,CFD-WM-006-013-HC.jpg,1700,solid,O,m,691,9,1,25408.800000000745,56298.699999999255,7062,ATS,A,8
8,prac,1,A,haborder.png,1,m,Fri Feb 21 2025 16:10:08 GMT-0600 (Central Standard Time),84806.39999999851,CFD-WM-004-005-HC.jpg,1400,solid,O,m,914,7,1,28507.699999999255,56298.699999999255,7062,ATS,A,9
9,prac,1,A,haborder.png,1,m,Fri Feb 21 2025 16:10:08 GMT-0600 (Central Standard Time),87905.5,CFD-BM-029-026-HC.jpg,1500,solid,O,m,803,3,1,31606.800000000745,56298.699999999255,7062,ATS,A,10
10,prac,1,A,haborder.png,1,z,Fri Feb 21 2025 16:10:08 GMT-0600 (Central Standard Time),91137.89999999851,CFD-WF-003-014-A.jpg,1600,solid,O,z,844,10,1,34839.199999999255,56298.699999999255,7062,ATS,A,11
11,prac,1,A,haborder.png,1,m,Fri Feb 21 2025 16:10:08 GMT-0600 (Central Standard Time),94503.5,CFD-WF-017-016-HC.jpg,1500,solid,O,m,1079,11,1,38204.800000000745,56298.699999999255,7062,ATS,A,12
1,prac,1,B,mfborder.png,1,z,Fri Feb 21 2025 16:10:08 GMT-0600 (Central Standard Time),124643.89999999851,CFD-BF-023-013-A.jpg,1000,dash,O,z,859,4,1,2649.199999999255,121994.69999999925,7062,ATS,A,1
2,prac,1,B,mfborder.png,1,m,Fri Feb 21 2025 16:10:08 GMT-0600 (Central Standard Time),127776.39999999851,CFD-BM-029-026-HC.jpg,1700,dash,O,m,645,1,1,5781.699999999255,121994.69999999925,7062,ATS,A,2
3,prac,1,B,mfborder.png,1,z,Fri Feb 21 2025 16:10:08 GMT-0600 (Central Standard Time),131691.8999999985,CFD-WF-002-008-HC.jpg,1900,dash,O,z,1217,8,1,9697.199999999255,121994.69999999925,7062,ATS,A,3
4,prac,1,B,mfborder.png,1,z,Fri Feb 21 2025 16:10:08 GMT-0600 (Central Standard Time),134588.59999999776,CFD-BF-028-020-HC.jpg,1400,dash,O,z,633,7,1,12593.89999999851,121994.69999999925,7062,ATS,A,4
5,prac,1,B,mfborder.png,1,m,Fri Feb 21 2025 16:10:08 GMT-0600 (Central Standard Time),138056.3999999985,CFD-BM-005-010-A.jpg,2000,dash,O,m,678,5,1,16061.699999999255,121994.69999999925,7062,ATS,A,5
6,prac,1,B,mfborder.png,1,z,Fri Feb 21 2025 16:10:08 GMT-0600 (Central Standard Time),141055.30000000075,CFD-BF-010-005-HC.jpg,1500,dash,O,z,705,3,1,19060.60000000149,121994.69999999925,7062,ATS,A,6
7,prac,1,B,mfborder.png,1,z,Fri Feb 21 2025 16:10:08 GMT-0600 (Central Standard Time),143521.5,CFD-WF-017-016-HC.jpg,1000,dash,O,z,670,12,1,21526.800000000745,121994.69999999925,7062,ATS,A,7
8,prac,1,B,mfborder.png,1,z,Fri Feb 21 2025 16:10:08 GMT-0600 (Central Standard Time),146470.5,CFD-WF-003-014-A.jpg,1500,dash,O,z,656,11,1,24475.800000000745,121994.69999999925,7062,ATS,A,8
9,prac,1,B,mfborder.png,1,m,Fri Feb 21 2025 16:10:08 GMT-0600 (Central Standard Time),149586.19999999925,CFD-WM-006-013-HC.jpg,1600,dash,O,m,727,10,1,27591.5,121994.69999999925,7062,ATS,A,9
10,prac,1,B,mfborder.png,1,m,Fri Feb 21 2025 16:10:08 GMT-0600 (Central Standard Time),152835.19999999925,CFD-WM-013-015-A.jpg,1700,dash,O,m,759,9,1,30840.5,121994.69999999925,7062,ATS,A,10
11,prac,1,B,mfborder.png,1,m,Fri Feb 21 2025 16:10:08 GMT-0600 (Central Standard Time),155934.30000000075,CFD-BM-010-019-A.jpg,1600,dash,O,m,706,2,1,33939.60000000149,121994.69999999925,7062,ATS,A,11
12,prac,1,B,mfborder.png,1,m,Fri Feb 21 2025 16:10:08 GMT-0600 (Central Standard Time),158750.09999999776,CFD-WM-019-013-A.jpg,1200,dash,O,m,831,6,1,36755.39999999851,121994.69999999925,7062,ATS,A,12
1,test,1,A,haborder.png,1,z,Fri Feb 21 2025 16:10:08 GMT-0600 (Central Standard Time),181509.80000000075,CFD-BM-005-010-A.jpg,1600,solid,O,z,984,2,1,2615.900000002235,178893.8999999985,7062,ATS,A,1
2,test,1,A,haborder.png,1,z,Fri Feb 21 2025 16:10:08 GMT-0600 (Central Standard Time),183792.30000000075,CFD-BM-005-010-A.jpg,1600,solid,O,z,664,2,1,4898.400000002235,178893.8999999985,7062,ATS,A,2
3,test,1,A,haborder.png,1,z,Fri Feb 21 2025 16:10:08 GMT-0600 (Central Standard Time),185741.3999999985,CFD-BF-039-039-A.jpg,1200,solid,O,z,725,6,1,6847.5,178893.8999999985,7062,ATS,A,3
4,test,1,A,haborder.png,1,z,Fri Feb 21 2025 16:10:08 GMT-0600 (Central Standard Time),187424.30000000075,CFD-BF-023-013-A.jpg,1000,solid,O,z,664,4,1,8530.400000002235,178893.8999999985,7062,ATS,A,4
5,test,1,A,haborder.png,1,m,Fri Feb 21 2025 16:10:08 GMT-0600 (Central Standard Time),189606.8999999985,CFD-WF-017-016-HC.jpg,1500,solid,O,m,664,11,1,10713.0,178893.8999999985,7062,ATS,A,5
6,test,1,A,haborder.png,1,m,Fri Feb 21 2025 16:10:08 GMT-0600 (Central Standard Time),191989.5,CFD-WM-006-013-HC.jpg,1700,solid,O,m,658,9,1,13095.60000000149,178893.8999999985,7062,ATS,A,6
7,test,1,A,haborder.png,1,m,Fri Feb 21 2025 16:10:08 GMT-0600 (Central Standard Time),194822.30000000075,CFD-BM-017-052-HC.jpg,1700,solid,O,m,1108,1,1,15928.400000002235,178893.8999999985,7062,ATS,A,7
8,test,1,A,haborder.png,1,z,Fri Feb 21 2025 16:10:08 GMT-0600 (Central Standard Time),196638.19999999925,CFD-WF-019-015-A.jpg,1000,solid,O,z,784,12,1,17744.300000000745,178893.8999999985,7062,ATS,A,8
9,test,1,A,haborder.png,1,m,Fri Feb 21 2025 16:10:08 GMT-0600 (Central Standard Time),199004.09999999776,CFD-BM-029-026-HC.jpg,1500,solid,O,m,835,3,1,20110.199999999255,178893.8999999985,7062,ATS,A,9
10,test,1,A,haborder.png,1,m,Fri Feb 21 2025 16:10:08 GMT-0600 (Central Standard Time),201170.19999999925,CFD-WM-004-005-HC.jpg,1400,solid,O,m,737,7,1,22276.300000000745,178893.8999999985,7062,ATS,A,10
11,test,1,A,haborder.png,1,m,Fri Feb 21 2025 16:10:08 GMT-0600 (Central Standard Time),203502.69999999925,CFD-WM-006-013-HC.jpg,1700,solid,O,m,599,9,1,24608.800000000745,178893.8999999985,7062,ATS,A,11
12,test,1,A,haborder.png,1,z,Fri Feb 21 2025 16:10:08 GMT-0600 (Central Standard Time),206201.8999999985,CFD-WM-013-015-A.jpg,1900,solid,O,z,785,8,1,27308.0,178893.8999999985,7062,ATS,A,12
13,test,1,A,haborder.png,1,z,Fri Feb 21 2025 16:10:08 GMT-0600 (Central Standard Time),207918.09999999776,CFD-WF-019-015-A.jpg,1000,solid,O,z,683,12,1,29024.199999999255,178893.8999999985,7062,ATS,A,13
14,test,1,A,haborder.png,1,z,Fri Feb 21 2025 16:10:08 GMT-0600 (Central Standard Time),209650.80000000075,CFD-BF-023-013-A.jpg,1000,solid,O,z,703,4,1,30756.900000002235,178893.8999999985,7062,ATS,A,14
15,test,1,A,haborder.png,1,z,Fri Feb 21 2025 16:10:08 GMT-0600 (Central Standard Time),211916.80000000075,CFD-WF-003-014-A.jpg,1600,solid,O,z,642,10,1,33022.900000002235,178893.8999999985,7062,ATS,A,15
16,test,1,A,haborder.png,1,z,Fri Feb 21 2025 16:10:08 GMT-0600 (Central Standard Time),214116.0,CFD-WF-003-014-A.jpg,1600,solid,O,z,568,10,1,35222.10000000149,178893.8999999985,7062,ATS,A,16
17,test,1,A,haborder.png,1,m,Fri Feb 21 2025 16:10:08 GMT-0600 (Central Standard Time),216165.69999999925,CFD-WM-004-005-HC.jpg,1400,solid,O,m,625,7,1,37271.800000000745,178893.8999999985,7062,ATS,A,17
18,test,1,A,haborder.png,1,m,Fri Feb 21 2025 16:10:08 GMT-0600 (Central Standard Time),218548.19999999925,CFD-BM-017-052-HC.jpg,1700,solid,O,m,652,1,1,39654.300000000745,178893.8999999985,7062,ATS,A,18
19,test,1,A,haborder.png,1,m,Fri Feb 21 2025 16:10:08 GMT-0600 (Central Standard Time),221430.5,CFD-BF-028-020-HC.jpg,2000,solid,O,m,850,5,1,42536.60000000149,178893.8999999985,7062,ATS,A,19
20,test,1,A,haborder.png,1,z,Fri Feb 21 2025 16:10:08 GMT-0600 (Central Standard Time),224079.5,CFD-WM-013-015-A.jpg,1900,solid,O,z,731,8,1,45185.60000000149,178893.8999999985,7062,ATS,A,20
20,test,1,A,haborder.png,0,m,Fri Feb 21 2025 16:10:08 GMT-0600 (Central Standard Time),226828.80000000075,CFD-BF-028-020-HC.jpg,2000,solid,O,z,726,5,1,47934.900000002235,178893.8999999985,7062,ATS,A,21
21,test,1,A,haborder.png,1,m,Fri Feb 21 2025 16:10:08 GMT-0600 (Central Standard Time),229461.30000000075,CFD-WF-017-016-HC.jpg,1500,solid,O,m,1100,11,1,50567.400000002235,178893.8999999985,7062,ATS,A,22
22,test,1,A,haborder.png,1,z,Fri Feb 21 2025 16:10:08 GMT-0600 (Central Standard Time),231527.30000000075,CFD-BF-039-039-A.jpg,1200,solid,O,z,840,6,1,52633.400000002235,178893.8999999985,7062,ATS,A,23
23,test,1,A,haborder.png,1,m,Fri Feb 21 2025 16:10:08 GMT-0600 (Central Standard Time),233776.5,CFD-BM-029-026-HC.jpg,1500,solid,O,m,730,3,1,54882.60000000149,178893.8999999985,7062,ATS,A,24
1,test,1,B,mfborder.png,1,z,Fri Feb 21 2025 16:10:08 GMT-0600 (Central Standard Time),248921.8999999985,CFD-BF-023-013-A.jpg,1000,dash,O,z,1192,4,1,2216.0,246705.8999999985,7062,ATS,A,1
2,test,1,B,mfborder.png,1,m,Fri Feb 21 2025 16:10:08 GMT-0600 (Central Standard Time),251304.3999999985,CFD-WM-013-015-A.jpg,1700,dash,O,m,655,9,1,4598.5,246705.8999999985,7062,ATS,A,2
3,test,1,B,mfborder.png,1,z,Fri Feb 21 2025 16:10:08 GMT-0600 (Central Standard Time),253154.09999999776,CFD-BF-023-013-A.jpg,1000,dash,O,z,806,4,1,6448.199999999255,246705.8999999985,7062,ATS,A,3
4,test,1,B,mfborder.png,1,m,Fri Feb 21 2025 16:10:08 GMT-0600 (Central Standard Time),255503.09999999776,CFD-WM-013-015-A.jpg,1700,dash,O,m,624,9,1,8797.199999999255,246705.8999999985,7062,ATS,A,4
5,test,1,B,mfborder.png,1,z,Fri Feb 21 2025 16:10:08 GMT-0600 (Central Standard Time),257518.8999999985,CFD-WF-017-016-HC.jpg,1000,dash,O,z,998,12,1,10813.0,246705.8999999985,7062,ATS,A,5
6,test,1,B,mfborder.png,1,m,Fri Feb 21 2025 16:10:08 GMT-0600 (Central Standard Time),260035.0,CFD-WM-006-013-HC.jpg,1600,dash,O,m,894,10,1,13329.10000000149,246705.8999999985,7062,ATS,A,6
7,test,1,B,mfborder.png,1,z,Fri Feb 21 2025 16:10:08 GMT-0600 (Central Standard Time),262717.5,CFD-WF-002-008-HC.jpg,1900,dash,O,z,750,8,1,16011.60000000149,246705.8999999985,7062,ATS,A,7
8,test,1,B,mfborder.png,1,m,Fri Feb 21 2025 16:10:08 GMT-0600 (Central Standard Time),264967.0,CFD-BM-010-019-A.jpg,1600,dash,O,m,624,2,1,18261.10000000149,246705.8999999985,7062,ATS,A,8
9,test,1,B,mfborder.png,1,m,Fri Feb 21 2025 16:10:08 GMT-0600 (Central Standard Time),267282.80000000075,CFD-BM-010-019-A.jpg,1600,dash,O,m,686,2,1,20576.900000002235,246705.8999999985,7062,ATS,A,9
10,test,1,B,mfborder.png,1,z,Fri Feb 21 2025 16:10:08 GMT-0600 (Central Standard Time),269598.59999999776,CFD-WF-003-014-A.jpg,1500,dash,O,z,780,11,1,22892.699999999255,246705.8999999985,7062,ATS,A,10
11,test,1,B,mfborder.png,1,z,Fri Feb 21 2025 16:10:08 GMT-0600 (Central Standard Time),271764.59999999776,CFD-BF-010-005-HC.jpg,1500,dash,O,z,635,3,1,25058.699999999255,246705.8999999985,7062,ATS,A,11
12,test,1,B,mfborder.png,1,m,Fri Feb 21 2025 16:10:08 GMT-0600 (Central Standard Time),274430.59999999776,CFD-BM-005-010-A.jpg,2000,dash,O,m,641,5,1,27724.699999999255,246705.8999999985,7062,ATS,A,12
13,test,1,B,mfborder.png,1,z,Fri Feb 21 2025 16:10:08 GMT-0600 (Central Standard Time),276779.80000000075,CFD-BF-028-020-HC.jpg,1400,dash,O,z,895,7,1,30073.900000002235,246705.8999999985,7062,ATS,A,13
14,test,1,B,mfborder.png,1,m,Fri Feb 21 2025 16:10:08 GMT-0600 (Central Standard Time),279445.69999999925,CFD-BM-005-010-A.jpg,2000,dash,O,m,633,5,1,32739.800000000745,246705.8999999985,7062,ATS,A,14
15,test,1,B,mfborder.png,1,m,Fri Feb 21 2025 16:10:08 GMT-0600 (Central Standard Time),281545.0,CFD-WM-019-013-A.jpg,1200,dash,O,m,871,6,1,34839.10000000149,246705.8999999985,7062,ATS,A,15
16,test,1,B,mfborder.png,1,z,Fri Feb 21 2025 16:10:08 GMT-0600 (Central Standard Time),283294.3999999985,CFD-WF-017-016-HC.jpg,1000,dash,O,z,717,12,1,36588.5,246705.8999999985,7062,ATS,A,16
17,test,1,B,mfborder.png,1,m,Fri Feb 21 2025 16:10:08 GMT-0600 (Central Standard Time),285477.3999999985,CFD-WM-006-013-HC.jpg,1600,dash,O,m,551,10,1,38771.5,246705.8999999985,7062,ATS,A,17
18,test,1,B,mfborder.png,1,z,Fri Feb 21 2025 16:10:08 GMT-0600 (Central Standard Time),287659.30000000075,CFD-BF-010-005-HC.jpg,1500,dash,O,z,652,3,1,40953.400000002235,246705.8999999985,7062,ATS,A,18
19,test,1,B,mfborder.png,1,z,Fri Feb 21 2025 16:10:08 GMT-0600 (Central Standard Time),290658.80000000075,CFD-WF-002-008-HC.jpg,1900,dash,O,z,1078,8,1,43952.900000002235,246705.8999999985,7062,ATS,A,19
20,test,1,B,mfborder.png,1,m,Fri Feb 21 2025 16:10:08 GMT-0600 (Central Standard Time),293058.09999999776,CFD-BM-029-026-HC.jpg,1700,dash,O,m,677,1,1,46352.199999999255,246705.8999999985,7062,ATS,A,20
21,test,1,B,mfborder.png,1,m,Fri Feb 21 2025 16:10:08 GMT-0600 (Central Standard Time),295124.30000000075,CFD-WM-019-013-A.jpg,1200,dash,O,m,843,6,1,48418.400000002235,246705.8999999985,7062,ATS,A,21
22,test,1,B,mfborder.png,1,z,Fri Feb 21 2025 16:10:08 GMT-0600 (Central Standard Time),297256.69999999925,CFD-BF-028-020-HC.jpg,1400,dash,O,z,705,7,1,50550.800000000745,246705.8999999985,7062,ATS,A,22
23,test,1,B,mfborder.png,1,m,Fri Feb 21 2025 16:10:08 GMT-0600 (Central Standard Time),299616.59999999776,CFD-BM-029-026-HC.jpg,1700,dash,O,m,626,1,1,52910.699999999255,246705.8999999985,7062,ATS,A,23
24,test,1,B,mfborder.png,1,z,Fri Feb 21 2025 16:10:08 GMT-0600 (Central Standard Time),301805.5,CFD-WF-003-014-A.jpg,1500,dash,O,z,667,11,1,55099.60000000149,246705.8999999985,7062,ATS,A,24
0,prac,1,C,haborder.png,0,z,Fri Feb 21 2025 16:10:08 GMT-0600 (Central Standard Time),355755.30000000075,CFD-BF-039-039-A.jpg,1700,solid,O,None,1517,8,1,3998.900000002235,351756.3999999985,7062,ATS,A,1
1,prac,1,C,haborder.png,1,z,Fri Feb 21 2025 16:10:08 GMT-0600 (Central Standard Time),359054.3999999985,CFD-WF-003-014-A.jpg,1600,dash,O,z,906,9,1,7298.0,351756.3999999985,7062,ATS,A,2
2,prac,1,C,mfborder.png,1,m,Fri Feb 21 2025 16:10:08 GMT-0600 (Central Standard Time),362220.19999999925,CFD-BM-005-010-A.jpg,1200,dash,O,m,1167,5,1,10463.800000000745,351756.3999999985,7062,ATS,A,3
3,prac,1,C,mfborder.png,1,z,Fri Feb 21 2025 16:10:08 GMT-0600 (Central Standard Time),365435.3999999985,CFD-WF-017-016-HC.jpg,1600,dash,O,z,817,1,1,13679.0,351756.3999999985,7062,ATS,A,4
4,prac,1,C,haborder.png,1,m,Fri Feb 21 2025 16:10:08 GMT-0600 (Central Standard Time),368584.59999999776,CFD-WM-004-005-HC.jpg,1000,dash,O,m,1354,11,1,16828.199999999255,351756.3999999985,7062,ATS,A,5
4,prac,1,C,mfborder.png,0,z,Fri Feb 21 2025 16:10:08 GMT-0600 (Central Standard Time),371883.59999999776,CFD-BF-028-020-HC.jpg,1000,dash,O,None,1516,3,1,20127.199999999255,351756.3999999985,7062,ATS,A,6
5,prac,1,C,mfborder.png,1,m,Fri Feb 21 2025 16:10:08 GMT-0600 (Central Standard Time),375165.8999999985,CFD-WM-013-015-A.jpg,1700,solid,O,m,798,6,1,23409.5,351756.3999999985,7062,ATS,A,7
6,prac,1,C,haborder.png,1,m,Fri Feb 21 2025 16:10:08 GMT-0600 (Central Standard Time),378581.80000000075,CFD-BM-029-026-HC.jpg,1500,solid,O,m,1116,10,1,26825.400000002235,351756.3999999985,7062,ATS,A,8
7,prac,1,C,mfborder.png,1,z,Fri Feb 21 2025 16:10:08 GMT-0600 (Central Standard Time),382147.0,CFD-WF-019-015-A.jpg,1500,solid,O,z,1276,2,1,30390.60000000149,351756.3999999985,7062,ATS,A,9
7,prac,1,C,haborder.png,0,z,Fri Feb 21 2025 16:10:08 GMT-0600 (Central Standard Time),386345.5,CFD-BF-023-013-A.jpg,1900,dash,O,None,1515,7,1,34589.10000000149,351756.3999999985,7062,ATS,A,10
7,prac,1,C,haborder.png,0,m,Fri Feb 21 2025 16:10:08 GMT-0600 (Central Standard Time),390044.30000000075,CFD-WM-004-005-HC.jpg,1400,solid,O,None,1516,12,1,38287.900000002235,351756.3999999985,7062,ATS,A,11
7,prac,1,C,mfborder.png,0,m,Fri Feb 21 2025 16:10:08 GMT-0600 (Central Standard Time),394343.3999999985,CFD-BM-017-052-HC.jpg,2000,solid,O,None,1529,4,1,42587.0,351756.3999999985,7062,ATS,A,12
0,prac,2,C,mfborder.png,0,z,Fri Feb 21 2025 16:10:08 GMT-0600 (Central Standard Time),400841.5,CFD-BF-028-020-HC.jpg,1000,dash,O,None,1516,3,1,49085.10000000149,351756.3999999985,7062,ATS,A,1
1,prac,2,C,haborder.png,1,z,Fri Feb 21 2025 16:10:08 GMT-0600 (Central Standard Time),404706.5,CFD-BF-039-039-A.jpg,1700,solid,O,z,1368,8,1,52950.10000000149,351756.3999999985,7062,ATS,A,2
2,prac,2,C,mfborder.png,1,m,Fri Feb 21 2025 16:10:08 GMT-0600 (Central Standard Time),408338.8999999985,CFD-BM-017-052-HC.jpg,2000,solid,O,m,843,4,1,56582.5,351756.3999999985,7062,ATS,A,3
3,prac,2,C,haborder.png,1,m,Fri Feb 21 2025 16:10:08 GMT-0600 (Central Standard Time),411354.5,CFD-WM-004-005-HC.jpg,1000,dash,O,m,1218,11,1,59598.10000000149,351756.3999999985,7062,ATS,A,4
4,prac,2,C,mfborder.png,1,z,Fri Feb 21 2025 16:10:08 GMT-0600 (Central Standard Time),414820.19999999925,CFD-WF-017-016-HC.jpg,1600,dash,O,z,1076,1,1,63063.800000000745,351756.3999999985,7062,ATS,A,5
5,prac,2,C,haborder.png,1,m,Fri Feb 21 2025 16:10:08 GMT-0600 (Central Standard Time),418052.3999999985,CFD-WM-004-005-HC.jpg,1400,solid,O,m,912,12,1,66296.0,351756.3999999985,7062,ATS,A,6
6,prac,2,C,haborder.png,1,m,Fri Feb 21 2025 16:10:08 GMT-0600 (Central Standard Time),421151.5,CFD-BM-029-026-HC.jpg,1500,solid,O,m,805,10,1,69395.10000000149,351756.3999999985,7062,ATS,A,7
7,prac,2,C,haborder.png,1,z,Fri Feb 21 2025 16:10:08 GMT-0600 (Central Standard Time),425150.30000000075,CFD-BF-023-013-A.jpg,1900,dash,O,z,1314,7,1,73393.90000000224,351756.3999999985,7062,ATS,A,8
8,prac,2,C,mfborder.png,1,m,Fri Feb 21 2025 16:10:08 GMT-0600 (Central Standard Time),427799.3999999985,CFD-BM-005-010-A.jpg,1200,dash,O,m,663,5,1,76043.0,351756.3999999985,7062,ATS,A,9
9,prac,2,C,mfborder.png,1,m,Fri Feb 21 2025 16:10:08 GMT-0600 (Central Standard Time),431631.59999999776,CFD-WM-013-015-A.jpg,1700,solid,O,m,1338,6,1,79875.19999999925,351756.3999999985,7062,ATS,A,10
10,prac,2,C,mfborder.png,1,z,Fri Feb 21 2025 16:10:08 GMT-0600 (Central Standard Time),435013.80000000075,CFD-WF-019-015-A.jpg,1500,solid,O,z,1090,2,1,83257.40000000224,351756.3999999985,7062,ATS,A,11
11,prac,2,C,haborder.png,1,z,Fri Feb 21 2025 16:10:08 GMT-0600 (Central Standard Time),438212.80000000075,CFD-WF-003-014-A.jpg,1600,dash,O,z,816,9,1,86456.40000000224,351756.3999999985,7062,ATS,A,12
1,test,1,C,mfborder.png,1,m,Fri Feb 21 2025 16:10:08 GMT-0600 (Central Standard Time),456423.8999999985,CFD-BM-029-026-HC.jpg,1200,dash,O,m,1197,6,1,2416.0,454007.8999999985,7062,ATS,A,1
2,test,1,C,haborder.png,1,m,Fri Feb 21 2025 16:10:08 GMT-0600 (Central Standard Time),459422.8999999985,CFD-BF-028-020-HC.jpg,1600,solid,O,m,1382,10,1,5415.0,454007.8999999985,7062,ATS,A,2
2,test,1,C,haborder.png,0,m,Fri Feb 21 2025 16:10:08 GMT-0600 (Central Standard Time),461955.30000000075,CFD-WF-017-016-HC.jpg,1000,solid,O,None,1515,12,1,7947.400000002235,454007.8999999985,7062,ATS,A,3
3,test,1,C,mfborder.png,1,z,Fri Feb 21 2025 16:10:08 GMT-0600 (Central Standard Time),464604.5,CFD-WF-003-014-A.jpg,1500,dash,O,z,1126,3,1,10596.60000000149,454007.8999999985,7062,ATS,A,4
4,test,1,C,mfborder.png,1,m,Fri Feb 21 2025 16:10:08 GMT-0600 (Central Standard Time),466953.69999999925,CFD-WM-006-013-HC.jpg,1000,dash,O,m,1320,4,1,12945.800000000745,454007.8999999985,7062,ATS,A,5
5,test,1,C,haborder.png,1,m,Fri Feb 21 2025 16:10:08 GMT-0600 (Central Standard Time),469003.30000000075,CFD-WF-017-016-HC.jpg,1000,solid,O,m,1019,12,1,14995.400000002235,454007.8999999985,7062,ATS,A,6
5,test,1,C,haborder.png,0,z,Fri Feb 21 2025 16:10:08 GMT-0600 (Central Standard Time),472218.80000000075,CFD-BM-010-019-A.jpg,1700,solid,O,m,1494,9,1,18210.900000002235,454007.8999999985,7062,ATS,A,7
5,test,1,C,haborder.png,0,m,Fri Feb 21 2025 16:10:08 GMT-0600 (Central Standard Time),475251.3999999985,CFD-WF-002-008-HC.jpg,1500,solid,O,None,1515,11,1,21243.5,454007.8999999985,7062,ATS,A,8
5,test,1,C,haborder.png,0,m,Fri Feb 21 2025 16:10:08 GMT-0600 (Central Standard Time),478283.59999999776,CFD-WF-002-008-HC.jpg,1500,solid,O,None,1516,11,1,24275.699999999255,454007.8999999985,7062,ATS,A,9
6,test,1,C,mfborder.png,1,z,Fri Feb 21 2025 16:10:08 GMT-0600 (Central Standard Time),480866.09999999776,CFD-WF-003-014-A.jpg,1500,dash,O,z,1063,3,1,26858.199999999255,454007.8999999985,7062,ATS,A,10
6,test,1,C,haborder.png,0,z,Fri Feb 21 2025 16:10:08 GMT-0600 (Central Standard Time),483801.59999999776,CFD-WM-013-015-A.jpg,1400,solid,O,None,1515,7,1,29793.699999999255,454007.8999999985,7062,ATS,A,11
7,test,1,C,haborder.png,1,z,Fri Feb 21 2025 16:10:08 GMT-0600 (Central Standard Time),486931.0,CFD-BM-005-010-A.jpg,1900,solid,O,z,1203,8,1,32923.10000000149,454007.8999999985,7062,ATS,A,12
8,test,1,C,mfborder.png,1,m,Fri Feb 21 2025 16:10:08 GMT-0600 (Central Standard Time),490096.5,CFD-WM-019-013-A.jpg,2000,dash,O,m,1139,5,1,36088.60000000149,454007.8999999985,7062,ATS,A,13
9,test,1,C,haborder.png,1,z,Fri Feb 21 2025 16:10:08 GMT-0600 (Central Standard Time),492945.5,CFD-BM-010-019-A.jpg,1700,solid,O,z,1121,9,1,38937.60000000149,454007.8999999985,7062,ATS,A,14
10,test,1,C,mfborder.png,1,z,Fri Feb 21 2025 16:10:08 GMT-0600 (Central Standard Time),496028.09999999776,CFD-BF-023-013-A.jpg,1600,dash,O,z,1452,2,1,42020.199999999255,454007.8999999985,7062,ATS,A,15
11,test,1,C,mfborder.png,1,m,Fri Feb 21 2025 16:10:08 GMT-0600 (Central Standard Time),499427.0,CFD-WM-019-013-A.jpg,2000,dash,O,m,1378,5,1,45419.10000000149,454007.8999999985,7062,ATS,A,16
12,test,1,C,haborder.png,1,m,Fri Feb 21 2025 16:10:08 GMT-0600 (Central Standard Time),502342.80000000075,CFD-BF-028-020-HC.jpg,1600,solid,O,m,1299,10,1,48334.900000002235,454007.8999999985,7062,ATS,A,17
13,test,1,C,mfborder.png,1,m,Fri Feb 21 2025 16:10:08 GMT-0600 (Central Standard Time),504608.5,CFD-BM-029-026-HC.jpg,1200,dash,O,m,1038,6,1,50600.60000000149,454007.8999999985,7062,ATS,A,18
14,test,1,C,haborder.png,1,z,Fri Feb 21 2025 16:10:08 GMT-0600 (Central Standard Time),507407.80000000075,CFD-WM-013-015-A.jpg,1400,solid,O,z,1373,7,1,53399.900000002235,454007.8999999985,7062,ATS,A,19
15,test,1,C,mfborder.png,1,m,Fri Feb 21 2025 16:10:08 GMT-0600 (Central Standard Time),509757.09999999776,CFD-WM-006-013-HC.jpg,1000,dash,O,m,1326,4,1,55749.199999999255,454007.8999999985,7062,ATS,A,20
16,test,1,C,mfborder.png,1,z,Fri Feb 21 2025 16:10:08 GMT-0600 (Central Standard Time),512406.30000000075,CFD-BF-023-013-A.jpg,1600,dash,O,z,1026,2,1,58398.400000002235,454007.8999999985,7062,ATS,A,21
17,test,1,C,mfborder.png,1,z,Fri Feb 21 2025 16:10:08 GMT-0600 (Central Standard Time),515038.80000000075,CFD-BF-010-005-HC.jpg,1700,dash,O,z,916,1,1,61030.900000002235,454007.8999999985,7062,ATS,A,22
18,test,1,C,mfborder.png,1,z,Fri Feb 21 2025 16:10:08 GMT-0600 (Central Standard Time),517954.5,CFD-BF-010-005-HC.jpg,1700,dash,O,z,1196,1,1,63946.60000000149,454007.8999999985,7062,ATS,A,23
19,test,1,C,haborder.png,1,z,Fri Feb 21 2025 16:10:08 GMT-0600 (Central Standard Time),520953.5,CFD-BM-005-010-A.jpg,1900,solid,O,z,1079,8,1,66945.60000000149,454007.8999999985,7062,ATS,A,24
1,test,2,C,mfborder.png,1,z,Fri Feb 21 2025 16:10:08 GMT-0600 (Central Standard Time),526951.5,CFD-BF-028-020-HC.jpg,1500,dash,O,z,1282,3,1,2798.800000000745,524152.69999999925,7062,ATS,A,1
2,test,2,C,mfborder.png,1,m,Fri Feb 21 2025 16:10:08 GMT-0600 (Central Standard Time),528984.5,CFD-BM-017-052-HC.jpg,1000,dash,O,m,1001,4,1,4831.800000000745,524152.69999999925,7062,ATS,A,2
3,test,2,C,haborder.png,1,z,Fri Feb 21 2025 16:10:08 GMT-0600 (Central Standard Time),531700.1999999993,CFD-BF-023-013-A.jpg,1400,solid,O,z,1289,7,1,7547.5,524152.69999999925,7062,ATS,A,3
4,test,2,C,haborder.png,1,z,Fri Feb 21 2025 16:10:08 GMT-0600 (Central Standard Time),534333.0,CFD-WF-003-014-A.jpg,1700,solid,O,z,909,9,1,10180.300000000745,524152.69999999925,7062,ATS,A,4
5,test,2,C,mfborder.png,1,z,Fri Feb 21 2025 16:10:08 GMT-0600 (Central Standard Time),536965.5999999978,CFD-WF-019-015-A.jpg,1600,dash,O,z,1000,2,1,12812.89999999851,524152.69999999925,7062,ATS,A,5
6,test,2,C,haborder.png,1,m,Fri Feb 21 2025 16:10:08 GMT-0600 (Central Standard Time),539547.8999999985,CFD-WM-004-005-HC.jpg,1500,solid,O,m,1052,11,1,15395.199999999255,524152.69999999925,7062,ATS,A,6
7,test,2,C,mfborder.png,1,m,Fri Feb 21 2025 16:10:08 GMT-0600 (Central Standard Time),541880.1999999993,CFD-WM-013-015-A.jpg,1200,dash,O,m,1113,6,1,17727.5,524152.69999999925,7062,ATS,A,7
8,test,2,C,haborder.png,1,z,Fri Feb 21 2025 16:10:08 GMT-0600 (Central Standard Time),544446.3000000007,CFD-BF-023-013-A.jpg,1400,solid,O,z,1141,7,1,20293.60000000149,524152.69999999925,7062,ATS,A,8
9,test,2,C,haborder.png,1,m,Fri Feb 21 2025 16:10:08 GMT-0600 (Central Standard Time),546378.8999999985,CFD-WM-004-005-HC.jpg,1000,solid,O,m,911,12,1,22226.199999999255,524152.69999999925,7062,ATS,A,9
10,test,2,C,haborder.png,1,m,Fri Feb 21 2025 16:10:08 GMT-0600 (Central Standard Time),548694.8000000007,CFD-WM-004-005-HC.jpg,1500,solid,O,m,798,11,1,24542.10000000149,524152.69999999925,7062,ATS,A,10
11,test,2,C,haborder.png,1,m,Fri Feb 21 2025 16:10:08 GMT-0600 (Central Standard Time),551110.8999999985,CFD-BM-029-026-HC.jpg,1600,solid,O,m,799,10,1,26958.199999999255,524152.69999999925,7062,ATS,A,11
12,test,2,C,mfborder.png,1,z,Fri Feb 21 2025 16:10:08 GMT-0600 (Central Standard Time),553496.8999999985,CFD-WF-019-015-A.jpg,1600,dash,O,z,759,2,1,29344.199999999255,524152.69999999925,7062,ATS,A,12
13,test,2,C,mfborder.png,1,m,Fri Feb 21 2025 16:10:08 GMT-0600 (Central Standard Time),556309.3000000007,CFD-BM-005-010-A.jpg,2000,dash,O,m,784,5,1,32156.60000000149,524152.69999999925,7062,ATS,A,13
14,test,2,C,mfborder.png,1,z,Fri Feb 21 2025 16:10:08 GMT-0600 (Central Standard Time),559241.6999999993,CFD-WF-017-016-HC.jpg,1700,dash,O,z,1212,1,1,35089.0,524152.69999999925,7062,ATS,A,14
15,test,2,C,mfborder.png,1,z,Fri Feb 21 2025 16:10:08 GMT-0600 (Central Standard Time),561507.5999999978,CFD-BF-028-020-HC.jpg,1500,dash,O,z,744,3,1,37354.89999999851,524152.69999999925,7062,ATS,A,15
16,test,2,C,haborder.png,1,m,Fri Feb 21 2025 16:10:08 GMT-0600 (Central Standard Time),563307.0,CFD-WM-004-005-HC.jpg,1000,solid,O,m,778,12,1,39154.300000000745,524152.69999999925,7062,ATS,A,16
17,test,2,C,haborder.png,1,z,Fri Feb 21 2025 16:10:08 GMT-0600 (Central Standard Time),566422.8000000007,CFD-WF-003-014-A.jpg,1700,solid,O,z,1383,9,1,42270.10000000149,524152.69999999925,7062,ATS,A,17
18,test,2,C,haborder.png,1,z,Fri Feb 21 2025 16:10:08 GMT-0600 (Central Standard Time),569255.0999999978,CFD-BF-039-039-A.jpg,1900,solid,O,z,915,8,1,45102.39999999851,524152.69999999925,7062,ATS,A,18
19,test,2,C,mfborder.png,1,m,Fri Feb 21 2025 16:10:08 GMT-0600 (Central Standard Time),571454.5,CFD-WM-013-015-A.jpg,1200,dash,O,m,982,6,1,47301.800000000745,524152.69999999925,7062,ATS,A,19
20,test,2,C,mfborder.png,1,m,Fri Feb 21 2025 16:10:08 GMT-0600 (Central Standard Time),573204.0,CFD-BM-017-052-HC.jpg,1000,dash,O,m,720,4,1,49051.300000000745,524152.69999999925,7062,ATS,A,20
21,test,2,C,haborder.png,1,m,Fri Feb 21 2025 16:10:08 GMT-0600 (Central Standard Time),575903.0,CFD-BM-029-026-HC.jpg,1600,solid,O,m,1074,10,1,51750.300000000745,524152.69999999925,7062,ATS,A,21
22,test,2,C,mfborder.png,1,z,Fri Feb 21 2025 16:10:08 GMT-0600 (Central Standard Time),578535.3000000007,CFD-WF-017-016-HC.jpg,1700,dash,O,z,914,1,1,54382.60000000149,524152.69999999925,7062,ATS,A,22
23,test,2,C,mfborder.png,1,m,Fri Feb 21 2025 16:10:08 GMT-0600 (Central Standard Time),581301.5999999978,CFD-BM-005-010-A.jpg,2000,dash,O,m,743,5,1,57148.89999999851,524152.69999999925,7062,ATS,A,23
24,test,2,C,haborder.png,1,z,Fri Feb 21 2025 16:10:08 GMT-0600 (Central Standard Time),584067.1999999993,CFD-BF-039-039-A.jpg,1900,solid,O,z,845,8,1,59914.5,524152.69999999925,7062,ATS,A,24
0,test,3,C,haborder.png,0,z,Fri Feb 21 2025 16:10:08 GMT-0600 (Central Standard Time),590098.8999999985,CFD-WM-013-015-A.jpg,1400,solid,O,None,1516,7,1,2932.5,587166.3999999985,7062,ATS,A,1
0,test,3,C,haborder.png,0,m,Fri Feb 21 2025 16:10:08 GMT-0600 (Central Standard Time),593131.0999999978,CFD-WF-002-008-HC.jpg,1500,solid,O,None,1515,11,1,5964.699999999255,587166.3999999985,7062,ATS,A,2
1,test,3,C,mfborder.png,1,m,Fri Feb 21 2025 16:10:08 GMT-0600 (Central Standard Time),595863.3999999985,CFD-WM-019-013-A.jpg,2000,dash,O,m,706,5,1,8697.0,587166.3999999985,7062,ATS,A,3
2,test,3,C,haborder.png,1,z,Fri Feb 21 2025 16:10:08 GMT-0600 (Central Standard Time),598929.1999999993,CFD-BM-010-019-A.jpg,1700,solid,O,z,1338,9,1,11762.800000000745,587166.3999999985,7062,ATS,A,4
3,test,3,C,haborder.png,1,m,Fri Feb 21 2025 16:10:08 GMT-0600 (Central Standard Time),601511.8999999985,CFD-BF-028-020-HC.jpg,1600,solid,O,m,957,10,1,14345.5,587166.3999999985,7062,ATS,A,5
4,test,3,C,mfborder.png,1,m,Fri Feb 21 2025 16:10:08 GMT-0600 (Central Standard Time),603561.0999999978,CFD-WM-006-013-HC.jpg,1000,dash,O,m,1025,4,1,16394.699999999255,587166.3999999985,7062,ATS,A,6
5,test,3,C,haborder.png,1,z,Fri Feb 21 2025 16:10:08 GMT-0600 (Central Standard Time),606376.8000000007,CFD-BM-010-019-A.jpg,1700,solid,O,z,1097,9,1,19210.400000002235,587166.3999999985,7062,ATS,A,7
6,test,3,C,haborder.png,1,z,Fri Feb 21 2025 16:10:08 GMT-0600 (Central Standard Time),609542.8000000007,CFD-BM-005-010-A.jpg,1900,solid,O,z,1250,8,1,22376.400000002235,587166.3999999985,7062,ATS,A,8
7,test,3,C,mfborder.png,1,m,Fri Feb 21 2025 16:10:08 GMT-0600 (Central Standard Time),611575.3000000007,CFD-BM-029-026-HC.jpg,1200,dash,O,m,807,6,1,24408.900000002235,587166.3999999985,7062,ATS,A,9
7,test,3,C,haborder.png,0,m,Fri Feb 21 2025 16:10:08 GMT-0600 (Central Standard Time),614174.8000000007,CFD-BF-028-020-HC.jpg,1600,solid,O,z,965,10,1,27008.400000002235,587166.3999999985,7062,ATS,A,10
8,test,3,C,haborder.png,1,m,Fri Feb 21 2025 16:10:08 GMT-0600 (Central Standard Time),616093.8000000007,CFD-WF-017-016-HC.jpg,1000,solid,O,m,886,12,1,28927.400000002235,587166.3999999985,7062,ATS,A,11
9,test,3,C,mfborder.png,1,z,Fri Feb 21 2025 16:10:08 GMT-0600 (Central Standard Time),618639.5,CFD-WF-003-014-A.jpg,1500,dash,O,z,1024,3,1,31473.10000000149,587166.3999999985,7062,ATS,A,12
10,test,3,C,mfborder.png,1,z,Fri Feb 21 2025 16:10:08 GMT-0600 (Central Standard Time),620922.3999999985,CFD-WF-003-014-A.jpg,1500,dash,O,z,754,3,1,33756.0,587166.3999999985,7062,ATS,A,13
11,test,3,C,mfborder.png,1,m,Fri Feb 21 2025 16:10:08 GMT-0600 (Central Standard Time),623554.8000000007,CFD-WM-019-013-A.jpg,2000,dash,O,m,603,5,1,36388.400000002235,587166.3999999985,7062,ATS,A,14
11,test,3,C,mfborder.png,0,z,Fri Feb 21 2025 16:10:08 GMT-0600 (Central Standard Time),626787.1999999993,CFD-BF-010-005-HC.jpg,1700,dash,O,None,1511,1,1,39620.800000000745,587166.3999999985,7062,ATS,A,15
12,test,3,C,mfborder.png,1,z,Fri Feb 21 2025 16:10:08 GMT-0600 (Central Standard Time),629231.3000000007,CFD-BF-010-005-HC.jpg,1700,dash,O,z,582,1,1,42064.900000002235,587166.3999999985,7062,ATS,A,16
13,test,3,C,mfborder.png,1,m,Fri Feb 21 2025 16:10:08 GMT-0600 (Central Standard Time),630919.0,CFD-WM-006-013-HC.jpg,1000,dash,O,m,665,4,1,43752.60000000149,587166.3999999985,7062,ATS,A,17
14,test,3,C,haborder.png,1,z,Fri Feb 21 2025 16:10:08 GMT-0600 (Central Standard Time),633734.8999999985,CFD-BM-005-010-A.jpg,1900,solid,O,z,898,8,1,46568.5,587166.3999999985,7062,ATS,A,18
15,test,3,C,haborder.png,1,m,Fri Feb 21 2025 16:10:08 GMT-0600 (Central Standard Time),635784.3999999985,CFD-WF-017-016-HC.jpg,1000,solid,O,m,1018,12,1,48618.0,587166.3999999985,7062,ATS,A,19
16,test,3,C,mfborder.png,1,m,Fri Feb 21 2025 16:10:08 GMT-0600 (Central Standard Time),637900.5,CFD-BM-029-026-HC.jpg,1200,dash,O,m,885,6,1,50734.10000000149,587166.3999999985,7062,ATS,A,20
17,test,3,C,haborder.png,1,m,Fri Feb 21 2025 16:10:08 GMT-0600 (Central Standard Time),640616.3999999985,CFD-WF-002-008-HC.jpg,1500,solid,O,m,1198,11,1,53450.0,587166.3999999985,7062,ATS,A,21
18,test,3,C,haborder.png,1,z,Fri Feb 21 2025 16:10:08 GMT-0600 (Central Standard Time),642932.0999999978,CFD-WM-013-015-A.jpg,1400,solid,O,z,886,7,1,55765.699999999255,587166.3999999985,7062,ATS,A,22
19,test,3,C,mfborder.png,1,z,Fri Feb 21 2025 16:10:08 GMT-0600 (Central Standard Time),645381.5,CFD-BF-023-013-A.jpg,1600,dash,O,z,825,2,1,58215.10000000149,587166.3999999985,7062,ATS,A,23
20,test,3,C,mfborder.png,1,z,Fri Feb 21 2025 16:10:08 GMT-0600 (Central Standard Time),647780.8999999985,CFD-BF-023-013-A.jpg,1600,dash,O,z,777,2,1,60614.5,587166.3999999985,7062,ATS,A,24
0,test,4,C,haborder.png,0,z,Fri Feb 21 2025 16:10:08 GMT-0600 (Central Standard Time),652830.6999999993,CFD-BF-039-039-A.jpg,1900,solid,O,None,1501,8,1,3416.0,649414.6999999993,7062,ATS,A,1
1,test,4,C,mfborder.png,1,m,Fri Feb 21 2025 16:10:08 GMT-0600 (Central Standard Time),655561.6999999993,CFD-BM-005-010-A.jpg,2000,dash,O,m,701,5,1,6147.0,649414.6999999993,7062,ATS,A,2
2,test,4,C,haborder.png,1,z,Fri Feb 21 2025 16:10:08 GMT-0600 (Central Standard Time),657794.0999999978,CFD-BF-023-013-A.jpg,1400,solid,O,z,805,7,1,8379.39999999851,649414.6999999993,7062,ATS,A,3
3,test,4,C,haborder.png,1,m,Fri Feb 21 2025 16:10:08 GMT-0600 (Central Standard Time),660193.5,CFD-BM-029-026-HC.jpg,1600,solid,O,m,772,10,1,10778.800000000745,649414.6999999993,7062,ATS,A,4
4,test,4,C,haborder.png,1,m,Fri Feb 21 2025 16:10:08 GMT-0600 (Central Standard Time),661876.1999999993,CFD-WM-004-005-HC.jpg,1000,solid,O,m,661,12,1,12461.5,649414.6999999993,7062,ATS,A,5
5,test,4,C,mfborder.png,1,z,Fri Feb 21 2025 16:10:08 GMT-0600 (Central Standard Time),664142.3000000007,CFD-BF-028-020-HC.jpg,1500,dash,O,z,742,3,1,14727.60000000149,649414.6999999993,7062,ATS,A,6
6,test,4,C,haborder.png,1,z,Fri Feb 21 2025 16:10:08 GMT-0600 (Central Standard Time),666857.8999999985,CFD-WF-003-014-A.jpg,1700,solid,O,z,996,9,1,17443.199999999255,649414.6999999993,7062,ATS,A,7
7,test,4,C,mfborder.png,1,z,Fri Feb 21 2025 16:10:08 GMT-0600 (Central Standard Time),669374.3000000007,CFD-WF-019-015-A.jpg,1600,dash,O,z,883,2,1,19959.60000000149,649414.6999999993,7062,ATS,A,8
8,test,4,C,mfborder.png,1,m,Fri Feb 21 2025 16:10:08 GMT-0600 (Central Standard Time),672856.3000000007,CFD-BM-005-010-A.jpg,2000,dash,O,m,1465,5,1,23441.60000000149,649414.6999999993,7062,ATS,A,9
9,test,4,C,mfborder.png,1,m,Fri Feb 21 2025 16:10:08 GMT-0600 (Central Standard Time),674722.3000000007,CFD-WM-013-015-A.jpg,1200,dash,O,m,646,6,1,25307.60000000149,649414.6999999993,7062,ATS,A,10
9,test,4,C,haborder.png,0,m,Fri Feb 21 2025 16:10:08 GMT-0600 (Central Standard Time),677821.5,CFD-WM-004-005-HC.jpg,1500,solid,O,None,1505,11,1,28406.800000000745,649414.6999999993,7062,ATS,A,11
10,test,4,C,mfborder.png,1,z,Fri Feb 21 2025 16:10:08 GMT-0600 (Central Standard Time),680786.8999999985,CFD-BF-028-020-HC.jpg,1500,dash,O,z,1445,3,1,31372.199999999255,649414.6999999993,7062,ATS,A,12
11,test,4,C,mfborder.png,1,z,Fri Feb 21 2025 16:10:08 GMT-0600 (Central Standard Time),683202.8000000007,CFD-WF-017-016-HC.jpg,1700,dash,O,z,687,1,1,33788.10000000149,649414.6999999993,7062,ATS,A,13
12,test,4,C,haborder.png,1,z,Fri Feb 21 2025 16:10:08 GMT-0600 (Central Standard Time),685635.5999999978,CFD-BF-023-013-A.jpg,1400,solid,O,z,1003,7,1,36220.89999999851,649414.6999999993,7062,ATS,A,14
13,test,4,C,mfborder.png,1,m,Fri Feb 21 2025 16:10:08 GMT-0600 (Central Standard Time),688251.3000000007,CFD-WM-013-015-A.jpg,1200,dash,O,m,1386,6,1,38836.60000000149,649414.6999999993,7062,ATS,A,15
14,test,4,C,mfborder.png,1,z,Fri Feb 21 2025 16:10:08 GMT-0600 (Central Standard Time),690683.8000000007,CFD-WF-017-016-HC.jpg,1700,dash,O,z,702,1,1,41269.10000000149,649414.6999999993,7062,ATS,A,16
15,test,4,C,mfborder.png,1,m,Fri Feb 21 2025 16:10:08 GMT-0600 (Central Standard Time),692483.5999999978,CFD-BM-017-052-HC.jpg,1000,dash,O,m,778,4,1,43068.89999999851,649414.6999999993,7062,ATS,A,17
16,test,4,C,mfborder.png,1,m,Fri Feb 21 2025 16:10:08 GMT-0600 (Central Standard Time),694049.3999999985,CFD-BM-017-052-HC.jpg,1000,dash,O,m,538,4,1,44634.699999999255,649414.6999999993,7062,ATS,A,18
17,test,4,C,haborder.png,1,m,Fri Feb 21 2025 16:10:08 GMT-0600 (Central Standard Time),696432.3000000007,CFD-WM-004-005-HC.jpg,1000,solid,O,m,1364,12,1,47017.60000000149,649414.6999999993,7062,ATS,A,19
18,test,4,C,haborder.png,1,m,Fri Feb 21 2025 16:10:08 GMT-0600 (Central Standard Time),698931.3000000007,CFD-BM-029-026-HC.jpg,1600,solid,O,m,869,10,1,49516.60000000149,649414.6999999993,7062,ATS,A,20
19,test,4,C,haborder.png,1,z,Fri Feb 21 2025 16:10:08 GMT-0600 (Central Standard Time),701897.0999999978,CFD-BF-039-039-A.jpg,1900,solid,O,z,1047,8,1,52482.39999999851,649414.6999999993,7062,ATS,A,21
20,test,4,C,mfborder.png,1,z,Fri Feb 21 2025 16:10:08 GMT-0600 (Central Standard Time),704412.8999999985,CFD-WF-019-015-A.jpg,1600,dash,O,z,893,2,1,54998.199999999255,649414.6999999993,7062,ATS,A,22
21,test,4,C,haborder.png,1,m,Fri Feb 21 2025 16:10:08 GMT-0600 (Central Standard Time),707145.3999999985,CFD-WM-004-005-HC.jpg,1500,solid,O,m,1213,11,1,57730.699999999255,649414.6999999993,7062,ATS,A,23
22,test,4,C,haborder.png,1,z,Fri Feb 21 2025 16:10:08 GMT-0600 (Central Standard Time),710211.0999999978,CFD-WF-003-014-A.jpg,1700,solid,O,z,1336,9,1,60796.39999999851,649414.6999999993,7062,ATS,A,24
