acc_sum,block,block_c,block_cond,con_img,correct,correct_response,datetime,endtime,face,jitter,line,project,response,response_time,row_sel,session_number,start_end,starttime,subject_id,task,task_vers,trial
1,prac,1,A,haborder.png,1,z,Mon Mar 10 2025 15:02:39 GMT-0500 (Central Daylight Time),60688.69999998808,CFD-WM-036-018-A.jpg,1900,solid,O,z,1324,8,1,4014.699999988079,56674.0,7076,ATS,C,1
2,prac,1,A,haborder.png,1,z,Mon Mar 10 2025 15:02:39 GMT-0500 (Central Daylight Time),63371.0,CFD-WF-023-013-A.jpg,1000,solid,O,z,896,12,1,6697.0,56674.0,7076,ATS,C,2
3,prac,1,A,haborder.png,1,z,Mon Mar 10 2025 15:02:39 GMT-0500 (Central Daylight Time),66586.59999996424,CFD-WF-037-016-A.jpg,1600,solid,O,z,805,10,1,9912.599999964237,56674.0,7076,ATS,C,3
4,prac,1,A,haborder.png,1,z,Mon Mar 10 2025 15:02:39 GMT-0500 (Central Daylight Time),69253.29999995232,CFD-BF-031-020-A.jpg,1000,solid,O,z,872,4,1,12579.299999952316,56674.0,7076,ATS,C,4
5,prac,1,A,haborder.png,1,z,Mon Mar 10 2025 15:02:39 GMT-0500 (Central Daylight Time),71935.29999995232,CFD-BF-002-018-A.jpg,1200,solid,O,z,693,6,1,15261.299999952316,56674.0,7076,ATS,C,5
6,prac,1,A,haborder.png,1,m,Mon Mar 10 2025 15:02:39 GMT-0500 (Central Daylight Time),75218.69999998808,CFD-WM-035-036-HC.jpg,1700,solid,O,m,765,9,1,18544.69999998808,56674.0,7076,ATS,C,6
7,prac,1,A,haborder.png,1,m,Mon Mar 10 2025 15:02:39 GMT-0500 (Central Daylight Time),78115.89999997616,CFD-WM-028-005-HC.jpg,1400,solid,O,m,712,7,1,21441.899999976158,56674.0,7076,ATS,C,7
8,prac,1,A,haborder.png,1,m,Mon Mar 10 2025 15:02:39 GMT-0500 (Central Daylight Time),81266.5,CFD-BM-034-035-HC.jpg,1700,solid,O,m,667,1,1,24592.5,56674.0,7076,ATS,C,8
9,prac,1,A,haborder.png,1,m,Mon Mar 10 2025 15:02:39 GMT-0500 (Central Daylight Time),84728.69999998808,CFD-BF-019-004-HC.jpg,2000,solid,O,m,682,5,1,28054.69999998808,56674.0,7076,ATS,C,9
10,prac,1,A,haborder.png,1,m,Mon Mar 10 2025 15:02:39 GMT-0500 (Central Daylight Time),87580.79999995232,CFD-BM-022-004-HC.jpg,1500,solid,O,m,581,3,1,30906.799999952316,56674.0,7076,ATS,C,10
11,prac,1,A,haborder.png,1,z,Mon Mar 10 2025 15:02:39 GMT-0500 (Central Daylight Time),90895.09999996424,CFD-BM-043-014-A.jpg,1600,solid,O,z,916,2,1,34221.09999996424,56674.0,7076,ATS,C,11
12,prac,1,A,haborder.png,1,m,Mon Mar 10 2025 15:02:39 GMT-0500 (Central Daylight Time),94043.69999998808,CFD-WF-013-009-HC.jpg,1500,solid,O,m,861,11,1,37369.69999998808,56674.0,7076,ATS,C,12
1,prac,1,B,mfborder.png,1,z,Mon Mar 10 2025 15:02:39 GMT-0500 (Central Daylight Time),123069.69999998808,CFD-WF-013-009-HC.jpg,1000,12,O,z,1288,dash,1,3086.0,119983.69999998808,7076,ATS,C,1
2,prac,1,B,mfborder.png,1,m,Mon Mar 10 2025 15:02:39 GMT-0500 (Central Daylight Time),126252.39999997616,CFD-BM-021-026-A.jpg,1600,2,O,m,800,dash,1,6268.699999988079,119983.69999998808,7076,ATS,C,2
3,prac,1,B,mfborder.png,1,z,Mon Mar 10 2025 15:02:39 GMT-0500 (Central Daylight Time),129383.29999995232,CFD-BF-042-031-HC.jpg,1500,3,O,z,842,dash,1,9399.599999964237,119983.69999998808,7076,ATS,C,3
4,prac,1,B,mfborder.png,1,m,Mon Mar 10 2025 15:02:39 GMT-0500 (Central Daylight Time),132950.09999996424,CFD-BM-043-014-A.jpg,2000,5,O,m,781,dash,1,12966.399999976158,119983.69999998808,7076,ATS,C,4
5,prac,1,B,mfborder.png,1,z,Mon Mar 10 2025 15:02:39 GMT-0500 (Central Daylight Time),135415.29999995232,CFD-BF-031-020-A.jpg,1000,4,O,z,660,dash,1,15431.599999964237,119983.69999998808,7076,ATS,C,5
6,prac,1,B,mfborder.png,1,m,Mon Mar 10 2025 15:02:39 GMT-0500 (Central Daylight Time),138513.5,CFD-WM-035-036-HC.jpg,1600,10,O,m,715,dash,1,18529.80000001192,119983.69999998808,7076,ATS,C,6
7,prac,1,B,mfborder.png,1,m,Mon Mar 10 2025 15:02:39 GMT-0500 (Central Daylight Time),141696.09999996424,CFD-BM-022-004-HC.jpg,1700,1,O,m,684,dash,1,21712.399999976158,119983.69999998808,7076,ATS,C,7
8,prac,1,B,mfborder.png,1,m,Mon Mar 10 2025 15:02:39 GMT-0500 (Central Daylight Time),144246.39999997616,CFD-WM-034-040-A.jpg,1200,6,O,m,553,dash,1,24262.69999998808,119983.69999998808,7076,ATS,C,8
9,prac,1,B,mfborder.png,1,z,Mon Mar 10 2025 15:02:39 GMT-0500 (Central Daylight Time),147127.29999995232,CFD-BF-019-004-HC.jpg,1400,7,O,z,692,dash,1,27143.599999964237,119983.69999998808,7076,ATS,C,9
10,prac,1,B,mfborder.png,1,m,Mon Mar 10 2025 15:02:39 GMT-0500 (Central Daylight Time),150410.29999995232,CFD-WM-036-018-A.jpg,1700,9,O,m,789,dash,1,30426.599999964237,119983.69999998808,7076,ATS,C,10
11,prac,1,B,mfborder.png,1,z,Mon Mar 10 2025 15:02:39 GMT-0500 (Central Daylight Time),153893.5,CFD-WF-001-010-HC.jpg,1900,8,O,z,795,dash,1,33909.80000001192,119983.69999998808,7076,ATS,C,11
12,prac,1,B,mfborder.png,1,z,Mon Mar 10 2025 15:02:39 GMT-0500 (Central Daylight Time),156841.59999996424,CFD-WF-037-016-A.jpg,1500,11,O,z,657,dash,1,36857.89999997616,119983.69999998808,7076,ATS,C,12
1,test,1,A,haborder.png,1,z,Mon Mar 10 2025 15:02:39 GMT-0500 (Central Daylight Time),176318.19999998808,CFD-WF-037-016-A.jpg,1600,solid,O,z,711,10,1,2331.699999988079,173986.5,7076,ATS,C,1
2,test,1,A,haborder.png,1,m,Mon Mar 10 2025 15:02:39 GMT-0500 (Central Daylight Time),178437.39999997616,CFD-BM-022-004-HC.jpg,1500,solid,O,m,601,3,1,4450.899999976158,173986.5,7076,ATS,C,2
3,test,1,A,haborder.png,1,m,Mon Mar 10 2025 15:02:39 GMT-0500 (Central Daylight Time),181117.69999998808,CFD-BF-019-004-HC.jpg,2000,solid,O,m,665,5,1,7131.199999988079,173986.5,7076,ATS,C,3
4,test,1,A,haborder.png,1,z,Mon Mar 10 2025 15:02:39 GMT-0500 (Central Daylight Time),182799.79999995232,CFD-WF-023-013-A.jpg,1000,solid,O,z,652,12,1,8813.299999952316,173986.5,7076,ATS,C,4
5,test,1,A,haborder.png,1,m,Mon Mar 10 2025 15:02:39 GMT-0500 (Central Daylight Time),185115.69999998808,CFD-WF-013-009-HC.jpg,1500,solid,O,m,795,11,1,11129.199999988079,173986.5,7076,ATS,C,5
6,test,1,A,haborder.png,1,z,Mon Mar 10 2025 15:02:39 GMT-0500 (Central Daylight Time),186830.89999997616,CFD-WF-023-013-A.jpg,1000,solid,O,z,686,12,1,12844.399999976158,173986.5,7076,ATS,C,6
7,test,1,A,haborder.png,1,m,Mon Mar 10 2025 15:02:39 GMT-0500 (Central Daylight Time),189116.19999998808,CFD-BM-034-035-HC.jpg,1700,solid,O,m,566,1,1,15129.699999988079,173986.5,7076,ATS,C,7
8,test,1,A,haborder.png,1,m,Mon Mar 10 2025 15:02:39 GMT-0500 (Central Daylight Time),191397.39999997616,CFD-WM-035-036-HC.jpg,1700,solid,O,m,555,9,1,17410.899999976158,173986.5,7076,ATS,C,8
9,test,1,A,haborder.png,1,z,Mon Mar 10 2025 15:02:39 GMT-0500 (Central Daylight Time),193881.09999996424,CFD-BM-043-014-A.jpg,1600,solid,O,z,853,2,1,19894.599999964237,173986.5,7076,ATS,C,9
10,test,1,A,haborder.png,1,m,Mon Mar 10 2025 15:02:39 GMT-0500 (Central Daylight Time),195946.19999998808,CFD-WM-028-005-HC.jpg,1400,solid,O,m,634,7,1,21959.69999998808,173986.5,7076,ATS,C,10
11,test,1,A,haborder.png,1,z,Mon Mar 10 2025 15:02:39 GMT-0500 (Central Daylight Time),198213.19999998808,CFD-BM-043-014-A.jpg,1600,solid,O,z,650,2,1,24226.69999998808,173986.5,7076,ATS,C,11
12,test,1,A,haborder.png,1,z,Mon Mar 10 2025 15:02:39 GMT-0500 (Central Daylight Time),200460.79999995232,CFD-WF-037-016-A.jpg,1600,solid,O,z,623,10,1,26474.299999952316,173986.5,7076,ATS,C,12
13,test,1,A,haborder.png,1,m,Mon Mar 10 2025 15:02:39 GMT-0500 (Central Daylight Time),203275.5,CFD-BF-019-004-HC.jpg,2000,solid,O,m,787,5,1,29289.0,173986.5,7076,ATS,C,13
14,test,1,A,haborder.png,1,z,Mon Mar 10 2025 15:02:39 GMT-0500 (Central Daylight Time),205259.19999998808,CFD-BF-002-018-A.jpg,1200,solid,O,z,757,6,1,31272.69999998808,173986.5,7076,ATS,C,14
15,test,1,A,haborder.png,1,z,Mon Mar 10 2025 15:02:39 GMT-0500 (Central Daylight Time),208259.19999998808,CFD-WM-036-018-A.jpg,1900,solid,O,z,1075,8,1,34272.69999998808,173986.5,7076,ATS,C,15
16,test,1,A,haborder.png,1,m,Mon Mar 10 2025 15:02:39 GMT-0500 (Central Daylight Time),210658.19999998808,CFD-BM-034-035-HC.jpg,1700,solid,O,m,659,1,1,36671.69999998808,173986.5,7076,ATS,C,16
17,test,1,A,haborder.png,1,m,Mon Mar 10 2025 15:02:39 GMT-0500 (Central Daylight Time),212940.59999996424,CFD-WF-013-009-HC.jpg,1500,solid,O,m,757,11,1,38954.09999996424,173986.5,7076,ATS,C,17
18,test,1,A,haborder.png,1,z,Mon Mar 10 2025 15:02:39 GMT-0500 (Central Daylight Time),214623.5,CFD-BF-031-020-A.jpg,1000,solid,O,z,652,4,1,40637.0,173986.5,7076,ATS,C,18
19,test,1,A,haborder.png,1,m,Mon Mar 10 2025 15:02:39 GMT-0500 (Central Daylight Time),216989.19999998808,CFD-WM-035-036-HC.jpg,1700,solid,O,m,638,9,1,43002.69999998808,173986.5,7076,ATS,C,19
20,test,1,A,haborder.png,1,m,Mon Mar 10 2025 15:02:39 GMT-0500 (Central Daylight Time),219121.89999997616,CFD-BM-022-004-HC.jpg,1500,solid,O,m,599,3,1,45135.39999997616,173986.5,7076,ATS,C,20
21,test,1,A,haborder.png,1,z,Mon Mar 10 2025 15:02:39 GMT-0500 (Central Daylight Time),220991.0,CFD-BF-031-020-A.jpg,1000,solid,O,z,852,4,1,47004.5,173986.5,7076,ATS,C,21
22,test,1,A,haborder.png,1,z,Mon Mar 10 2025 15:02:39 GMT-0500 (Central Daylight Time),222919.79999995232,CFD-BF-002-018-A.jpg,1200,solid,O,z,711,6,1,48933.299999952316,173986.5,7076,ATS,C,22
23,test,1,A,haborder.png,1,m,Mon Mar 10 2025 15:02:39 GMT-0500 (Central Daylight Time),225054.0,CFD-WM-028-005-HC.jpg,1400,solid,O,m,715,7,1,51067.5,173986.5,7076,ATS,C,23
24,test,1,A,haborder.png,1,z,Mon Mar 10 2025 15:02:39 GMT-0500 (Central Daylight Time),227767.69999998808,CFD-WM-036-018-A.jpg,1900,solid,O,z,793,8,1,53781.19999998808,173986.5,7076,ATS,C,24
1,test,1,B,mfborder.png,1,m,Mon Mar 10 2025 15:02:39 GMT-0500 (Central Daylight Time),248845.89999997616,CFD-BM-022-004-HC.jpg,1700,dash,O,m,750,1,1,2481.699999988079,246364.19999998808,7076,ATS,C,1
2,test,1,B,mfborder.png,1,z,Mon Mar 10 2025 15:02:39 GMT-0500 (Central Daylight Time),250544.0,CFD-WF-013-009-HC.jpg,1000,dash,O,z,670,12,1,4179.800000011921,246364.19999998808,7076,ATS,C,2
3,test,1,B,mfborder.png,1,m,Mon Mar 10 2025 15:02:39 GMT-0500 (Central Daylight Time),253145.19999998808,CFD-WM-036-018-A.jpg,1700,dash,O,m,875,9,1,6781.0,246364.19999998808,7076,ATS,C,3
4,test,1,B,mfborder.png,1,z,Mon Mar 10 2025 15:02:39 GMT-0500 (Central Daylight Time),254797.19999998808,CFD-WF-013-009-HC.jpg,1000,dash,O,z,624,12,1,8433.0,246364.19999998808,7076,ATS,C,4
5,test,1,B,mfborder.png,1,z,Mon Mar 10 2025 15:02:39 GMT-0500 (Central Daylight Time),257210.79999995232,CFD-BF-042-031-HC.jpg,1500,dash,O,z,891,3,1,10846.599999964237,246364.19999998808,7076,ATS,C,5
6,test,1,B,mfborder.png,1,m,Mon Mar 10 2025 15:02:39 GMT-0500 (Central Daylight Time),259192.59999996424,CFD-WM-034-040-A.jpg,1200,dash,O,m,760,6,1,12828.399999976158,246364.19999998808,7076,ATS,C,6
7,test,1,B,mfborder.png,1,m,Mon Mar 10 2025 15:02:39 GMT-0500 (Central Daylight Time),261790.5,CFD-BM-043-014-A.jpg,2000,dash,O,m,577,5,1,15426.300000011921,246364.19999998808,7076,ATS,C,7
8,test,1,B,mfborder.png,1,z,Mon Mar 10 2025 15:02:39 GMT-0500 (Central Daylight Time),264124.89999997616,CFD-BF-042-031-HC.jpg,1500,dash,O,z,815,3,1,17760.69999998808,246364.19999998808,7076,ATS,C,8
9,test,1,B,mfborder.png,1,z,Mon Mar 10 2025 15:02:39 GMT-0500 (Central Daylight Time),265940.39999997616,CFD-BF-031-020-A.jpg,1000,dash,O,z,797,4,1,19576.19999998808,246364.19999998808,7076,ATS,C,9
10,test,1,B,mfborder.png,1,m,Mon Mar 10 2025 15:02:39 GMT-0500 (Central Daylight Time),268189.5,CFD-WM-035-036-HC.jpg,1600,dash,O,m,631,10,1,21825.30000001192,246364.19999998808,7076,ATS,C,10
11,test,1,B,mfborder.png,1,m,Mon Mar 10 2025 15:02:39 GMT-0500 (Central Daylight Time),270438.2999999523,CFD-BM-021-026-A.jpg,1600,dash,O,m,628,2,1,24074.099999964237,246364.19999998808,7076,ATS,C,11
12,test,1,B,mfborder.png,1,z,Mon Mar 10 2025 15:02:39 GMT-0500 (Central Daylight Time),272739.5,CFD-WF-037-016-A.jpg,1500,dash,O,z,783,11,1,26375.30000001192,246364.19999998808,7076,ATS,C,12
13,test,1,B,mfborder.png,1,m,Mon Mar 10 2025 15:02:39 GMT-0500 (Central Daylight Time),275404.0,CFD-BM-043-014-A.jpg,2000,dash,O,m,648,5,1,29039.80000001192,246364.19999998808,7076,ATS,C,13
14,test,1,B,mfborder.png,1,m,Mon Mar 10 2025 15:02:39 GMT-0500 (Central Daylight Time),277702.7999999523,CFD-WM-035-036-HC.jpg,1600,dash,O,m,680,10,1,31338.599999964237,246364.19999998808,7076,ATS,C,14
15,test,1,B,mfborder.png,1,m,Mon Mar 10 2025 15:02:39 GMT-0500 (Central Daylight Time),280101.7999999523,CFD-WM-036-018-A.jpg,1700,dash,O,m,671,9,1,33737.59999996424,246364.19999998808,7076,ATS,C,15
16,test,1,B,mfborder.png,1,z,Mon Mar 10 2025 15:02:39 GMT-0500 (Central Daylight Time),282235.2999999523,CFD-WF-037-016-A.jpg,1500,dash,O,z,615,11,1,35871.09999996424,246364.19999998808,7076,ATS,C,16
17,test,1,B,mfborder.png,1,z,Mon Mar 10 2025 15:02:39 GMT-0500 (Central Daylight Time),285452.09999996424,CFD-WF-001-010-HC.jpg,1900,dash,O,z,1298,8,1,39087.89999997616,246364.19999998808,7076,ATS,C,17
18,test,1,B,mfborder.png,1,m,Mon Mar 10 2025 15:02:39 GMT-0500 (Central Daylight Time),287765.39999997616,CFD-BM-022-004-HC.jpg,1700,dash,O,m,595,1,1,41401.19999998808,246364.19999998808,7076,ATS,C,18
19,test,1,B,mfborder.png,1,m,Mon Mar 10 2025 15:02:39 GMT-0500 (Central Daylight Time),289782.1999999881,CFD-WM-034-040-A.jpg,1200,dash,O,m,786,6,1,43418.0,246364.19999998808,7076,ATS,C,19
20,test,1,B,mfborder.png,1,z,Mon Mar 10 2025 15:02:39 GMT-0500 (Central Daylight Time),291948.6999999881,CFD-BF-019-004-HC.jpg,1400,dash,O,z,748,7,1,45584.5,246364.19999998808,7076,ATS,C,20
21,test,1,B,mfborder.png,1,z,Mon Mar 10 2025 15:02:39 GMT-0500 (Central Daylight Time),293664.39999997616,CFD-BF-031-020-A.jpg,1000,dash,O,z,691,4,1,47300.19999998808,246364.19999998808,7076,ATS,C,21
22,test,1,B,mfborder.png,1,m,Mon Mar 10 2025 15:02:39 GMT-0500 (Central Daylight Time),295895.89999997616,CFD-BM-021-026-A.jpg,1600,dash,O,m,600,2,1,49531.69999998808,246364.19999998808,7076,ATS,C,22
23,test,1,B,mfborder.png,1,z,Mon Mar 10 2025 15:02:39 GMT-0500 (Central Daylight Time),298564.2999999523,CFD-WF-001-010-HC.jpg,1900,dash,O,z,734,8,1,52200.09999996424,246364.19999998808,7076,ATS,C,23
24,test,1,B,mfborder.png,1,z,Mon Mar 10 2025 15:02:39 GMT-0500 (Central Daylight Time),300628.59999996424,CFD-BF-019-004-HC.jpg,1400,dash,O,z,633,7,1,54264.39999997616,246364.19999998808,7076,ATS,C,24
1,prac,1,C,mfborder.png,1,m,Mon Mar 10 2025 15:02:39 GMT-0500 (Central Daylight Time),370406.2999999523,CFD-WM-036-018-A.jpg,1700,solid,O,m,1401,7,1,3898.5,366507.7999999523,7076,ATS,C,1
1,prac,1,C,mfborder.png,0,z,Mon Mar 10 2025 15:02:39 GMT-0500 (Central Daylight Time),374206.39999997616,CFD-WF-023-013-A.jpg,1500,solid,O,None,1507,7,1,7698.600000023842,366507.7999999523,7076,ATS,C,2
1,prac,1,C,mfborder.png,0,m,Mon Mar 10 2025 15:02:39 GMT-0500 (Central Daylight Time),377704.5,CFD-BM-043-014-A.jpg,1200,dash,O,None,1515,7,1,11196.700000047684,366507.7999999523,7076,ATS,C,3
2,prac,1,C,mfborder.png,1,z,Mon Mar 10 2025 15:02:39 GMT-0500 (Central Daylight Time),381170.0,CFD-WF-013-009-HC.jpg,1600,dash,O,z,1081,7,1,14662.200000047684,366507.7999999523,7076,ATS,C,4
3,prac,1,C,mfborder.png,1,m,Mon Mar 10 2025 15:02:39 GMT-0500 (Central Daylight Time),385386.7999999523,CFD-BM-034-035-HC.jpg,2000,solid,O,m,1440,7,1,18879.0,366507.7999999523,7076,ATS,C,5
3,prac,1,C,haborder.png,0,z,Mon Mar 10 2025 15:02:39 GMT-0500 (Central Daylight Time),389584.0,CFD-BF-031-020-A.jpg,1900,dash,O,None,1517,7,1,23076.200000047684,366507.7999999523,7076,ATS,C,6
4,prac,1,C,haborder.png,1,m,Mon Mar 10 2025 15:02:39 GMT-0500 (Central Daylight Time),392917.5,CFD-WM-028-005-HC.jpg,1400,solid,O,m,1153,7,1,26409.700000047684,366507.7999999523,7076,ATS,C,7
5,prac,1,C,haborder.png,1,m,Mon Mar 10 2025 15:02:39 GMT-0500 (Central Daylight Time),396300.0,CFD-BM-022-004-HC.jpg,1500,solid,O,m,1105,7,1,29792.200000047684,366507.7999999523,7076,ATS,C,8
5,prac,1,C,haborder.png,0,z,Mon Mar 10 2025 15:02:39 GMT-0500 (Central Daylight Time),400298.09999996424,CFD-BF-002-018-A.jpg,1700,solid,O,None,1516,7,1,33790.30000001192,366507.7999999523,7076,ATS,C,9
6,prac,1,C,haborder.png,1,m,Mon Mar 10 2025 15:02:39 GMT-0500 (Central Daylight Time),402849.5,CFD-WM-028-005-HC.jpg,1000,dash,O,m,776,7,1,36341.700000047684,366507.7999999523,7076,ATS,C,10
6,prac,1,C,mfborder.png,0,z,Mon Mar 10 2025 15:02:39 GMT-0500 (Central Daylight Time),406146.59999996424,CFD-BF-019-004-HC.jpg,1000,dash,O,None,1518,7,1,39638.80000001192,366507.7999999523,7076,ATS,C,11
7,prac,1,C,haborder.png,1,z,Mon Mar 10 2025 15:02:39 GMT-0500 (Central Daylight Time),409595.39999997616,CFD-WF-037-016-A.jpg,1600,dash,O,z,1039,7,1,43087.60000002384,366507.7999999523,7076,ATS,C,12
1,prac,2,C,haborder.png,1,z,Mon Mar 10 2025 15:02:39 GMT-0500 (Central Daylight Time),419892.09999996424,CFD-BF-031-020-A.jpg,1900,dash,O,z,1119,7,1,53384.30000001192,366507.7999999523,7076,ATS,C,1
2,prac,2,C,haborder.png,1,m,Mon Mar 10 2025 15:02:39 GMT-0500 (Central Daylight Time),423041.2999999523,CFD-WM-028-005-HC.jpg,1400,solid,O,m,966,7,1,56533.5,366507.7999999523,7076,ATS,C,2
3,prac,2,C,haborder.png,1,m,Mon Mar 10 2025 15:02:39 GMT-0500 (Central Daylight Time),425590.6999999881,CFD-WM-028-005-HC.jpg,1000,dash,O,m,753,7,1,59082.90000003576,366507.7999999523,7076,ATS,C,3
4,prac,2,C,mfborder.png,1,z,Mon Mar 10 2025 15:02:39 GMT-0500 (Central Daylight Time),428223.0,CFD-BF-019-004-HC.jpg,1000,dash,O,z,844,7,1,61715.200000047684,366507.7999999523,7076,ATS,C,4
5,prac,2,C,mfborder.png,1,z,Mon Mar 10 2025 15:02:39 GMT-0500 (Central Daylight Time),431671.5,CFD-WF-013-009-HC.jpg,1600,dash,O,z,1033,7,1,65163.700000047684,366507.7999999523,7076,ATS,C,5
6,prac,2,C,mfborder.png,1,z,Mon Mar 10 2025 15:02:39 GMT-0500 (Central Daylight Time),435119.59999996424,CFD-WF-023-013-A.jpg,1500,solid,O,z,1150,7,1,68611.80000001192,366507.7999999523,7076,ATS,C,6
7,prac,2,C,mfborder.png,1,m,Mon Mar 10 2025 15:02:39 GMT-0500 (Central Daylight Time),438052.2999999523,CFD-BM-043-014-A.jpg,1200,dash,O,m,939,7,1,71544.5,366507.7999999523,7076,ATS,C,7
8,prac,2,C,haborder.png,1,m,Mon Mar 10 2025 15:02:39 GMT-0500 (Central Daylight Time),441150.5,CFD-BM-022-004-HC.jpg,1500,solid,O,m,809,7,1,74642.70000004768,366507.7999999523,7076,ATS,C,8
9,prac,2,C,mfborder.png,1,m,Mon Mar 10 2025 15:02:39 GMT-0500 (Central Daylight Time),444684.5,CFD-WM-036-018-A.jpg,1700,solid,O,m,1038,7,1,78176.70000004768,366507.7999999523,7076,ATS,C,9
10,prac,2,C,haborder.png,1,z,Mon Mar 10 2025 15:02:39 GMT-0500 (Central Daylight Time),448081.7999999523,CFD-BF-002-018-A.jpg,1700,solid,O,z,914,7,1,81574.0,366507.7999999523,7076,ATS,C,10
11,prac,2,C,haborder.png,1,z,Mon Mar 10 2025 15:02:39 GMT-0500 (Central Daylight Time),451249.09999996424,CFD-WF-037-016-A.jpg,1600,dash,O,z,778,7,1,84741.30000001192,366507.7999999523,7076,ATS,C,11
12,prac,2,C,mfborder.png,1,m,Mon Mar 10 2025 15:02:39 GMT-0500 (Central Daylight Time),454730.89999997616,CFD-BM-034-035-HC.jpg,2000,solid,O,m,714,7,1,88223.10000002384,366507.7999999523,7076,ATS,C,12
1,test,1,C,mfborder.png,1,m,Mon Mar 10 2025 15:02:39 GMT-0500 (Central Daylight Time),471858.39999997616,CFD-BM-022-004-HC.jpg,1200,dash,O,m,958,6,1,2182.100000023842,469676.2999999523,7076,ATS,C,1
1,test,1,C,haborder.png,0,z,Mon Mar 10 2025 15:02:39 GMT-0500 (Central Daylight Time),475291.89999997616,CFD-BM-043-014-A.jpg,1900,solid,O,None,1509,8,1,5615.600000023842,469676.2999999523,7076,ATS,C,2
1,test,1,C,haborder.png,0,m,Mon Mar 10 2025 15:02:39 GMT-0500 (Central Daylight Time),478023.09999996424,CFD-BF-019-004-HC.jpg,1600,solid,O,z,1102,10,1,8346.800000011921,469676.2999999523,7076,ATS,C,3
1,test,1,C,haborder.png,0,z,Mon Mar 10 2025 15:02:39 GMT-0500 (Central Daylight Time),480940.5,CFD-WM-036-018-A.jpg,1400,solid,O,None,1501,7,1,11264.200000047684,469676.2999999523,7076,ATS,C,4
2,test,1,C,haborder.png,1,z,Mon Mar 10 2025 15:02:39 GMT-0500 (Central Daylight Time),484205.39999997616,CFD-BM-043-014-A.jpg,1900,solid,O,z,1348,8,1,14529.100000023842,469676.2999999523,7076,ATS,C,5
3,test,1,C,mfborder.png,1,z,Mon Mar 10 2025 15:02:39 GMT-0500 (Central Daylight Time),487103.39999997616,CFD-BF-042-031-HC.jpg,1700,dash,O,z,1172,1,1,17427.100000023842,469676.2999999523,7076,ATS,C,6
4,test,1,C,haborder.png,1,m,Mon Mar 10 2025 15:02:39 GMT-0500 (Central Daylight Time),489634.59999996424,CFD-WF-001-010-HC.jpg,1500,solid,O,m,1006,11,1,19958.30000001192,469676.2999999523,7076,ATS,C,7
5,test,1,C,mfborder.png,1,z,Mon Mar 10 2025 15:02:39 GMT-0500 (Central Daylight Time),492135.1999999881,CFD-WF-037-016-A.jpg,1500,dash,O,z,968,3,1,22458.900000035763,469676.2999999523,7076,ATS,C,8
5,test,1,C,mfborder.png,0,m,Mon Mar 10 2025 15:02:39 GMT-0500 (Central Daylight Time),495668.2999999523,CFD-WM-034-040-A.jpg,2000,dash,O,None,1516,5,1,25992.0,469676.2999999523,7076,ATS,C,9
6,test,1,C,mfborder.png,1,z,Mon Mar 10 2025 15:02:39 GMT-0500 (Central Daylight Time),498283.09999996424,CFD-BF-031-020-A.jpg,1600,dash,O,z,991,2,1,28606.80000001192,469676.2999999523,7076,ATS,C,10
7,test,1,C,mfborder.png,1,m,Mon Mar 10 2025 15:02:39 GMT-0500 (Central Daylight Time),501366.2999999523,CFD-WM-034-040-A.jpg,2000,dash,O,m,1065,5,1,31690.0,469676.2999999523,7076,ATS,C,11
8,test,1,C,haborder.png,1,z,Mon Mar 10 2025 15:02:39 GMT-0500 (Central Daylight Time),504330.89999997616,CFD-BM-021-026-A.jpg,1700,solid,O,z,1248,9,1,34654.60000002384,469676.2999999523,7076,ATS,C,12
9,test,1,C,haborder.png,1,m,Mon Mar 10 2025 15:02:39 GMT-0500 (Central Daylight Time),506897.39999997616,CFD-WF-001-010-HC.jpg,1500,solid,O,m,1034,11,1,37221.10000002384,469676.2999999523,7076,ATS,C,13
10,test,1,C,mfborder.png,1,m,Mon Mar 10 2025 15:02:39 GMT-0500 (Central Daylight Time),508945.89999997616,CFD-BM-022-004-HC.jpg,1200,dash,O,m,816,6,1,39269.60000002384,469676.2999999523,7076,ATS,C,14
11,test,1,C,haborder.png,1,z,Mon Mar 10 2025 15:02:39 GMT-0500 (Central Daylight Time),511579.5,CFD-BM-021-026-A.jpg,1700,solid,O,z,901,9,1,41903.200000047684,469676.2999999523,7076,ATS,C,15
12,test,1,C,haborder.png,1,z,Mon Mar 10 2025 15:02:39 GMT-0500 (Central Daylight Time),513910.5,CFD-WM-036-018-A.jpg,1400,solid,O,z,903,7,1,44234.200000047684,469676.2999999523,7076,ATS,C,16
13,test,1,C,mfborder.png,1,z,Mon Mar 10 2025 15:02:39 GMT-0500 (Central Daylight Time),516292.7999999523,CFD-BF-031-020-A.jpg,1600,dash,O,z,755,2,1,46616.5,469676.2999999523,7076,ATS,C,17
14,test,1,C,haborder.png,1,m,Mon Mar 10 2025 15:02:39 GMT-0500 (Central Daylight Time),518176.7999999523,CFD-WF-013-009-HC.jpg,1000,solid,O,m,851,12,1,48500.5,469676.2999999523,7076,ATS,C,18
14,test,1,C,mfborder.png,0,m,Mon Mar 10 2025 15:02:39 GMT-0500 (Central Daylight Time),520292.39999997616,CFD-WM-035-036-HC.jpg,1000,dash,O,z,1089,4,1,50616.10000002384,469676.2999999523,7076,ATS,C,19
15,test,1,C,mfborder.png,1,z,Mon Mar 10 2025 15:02:39 GMT-0500 (Central Daylight Time),523141.7999999523,CFD-WF-037-016-A.jpg,1500,dash,O,z,1320,3,1,53465.5,469676.2999999523,7076,ATS,C,20
15,test,1,C,mfborder.png,0,m,Mon Mar 10 2025 15:02:39 GMT-0500 (Central Daylight Time),525673.3999999762,CFD-WM-035-036-HC.jpg,1000,dash,O,None,1507,4,1,55997.10000002384,469676.2999999523,7076,ATS,C,21
16,test,1,C,haborder.png,1,m,Mon Mar 10 2025 15:02:39 GMT-0500 (Central Daylight Time),527889.3999999762,CFD-WF-013-009-HC.jpg,1000,solid,O,m,1182,12,1,58213.10000002384,469676.2999999523,7076,ATS,C,22
17,test,1,C,mfborder.png,1,z,Mon Mar 10 2025 15:02:39 GMT-0500 (Central Daylight Time),530821.6999999881,CFD-BF-042-031-HC.jpg,1700,dash,O,z,1212,1,1,61145.40000003576,469676.2999999523,7076,ATS,C,23
18,test,1,C,haborder.png,1,m,Mon Mar 10 2025 15:02:39 GMT-0500 (Central Daylight Time),533404.8999999762,CFD-BF-019-004-HC.jpg,1600,solid,O,m,955,10,1,63728.60000002384,469676.2999999523,7076,ATS,C,24
1,test,2,C,haborder.png,1,z,Mon Mar 10 2025 15:02:39 GMT-0500 (Central Daylight Time),542934.3999999762,CFD-WF-037-016-A.jpg,1700,solid,O,z,784,9,1,2513.5,540420.8999999762,7076,ATS,C,1
2,test,2,C,haborder.png,1,z,Mon Mar 10 2025 15:02:39 GMT-0500 (Central Daylight Time),545101.5,CFD-BF-031-020-A.jpg,1400,solid,O,z,747,7,1,4680.600000023842,540420.8999999762,7076,ATS,C,2
3,test,2,C,haborder.png,1,m,Mon Mar 10 2025 15:02:39 GMT-0500 (Central Daylight Time),547618.6999999881,CFD-BM-022-004-HC.jpg,1600,solid,O,m,895,10,1,7197.800000011921,540420.8999999762,7076,ATS,C,3
4,test,2,C,mfborder.png,1,z,Mon Mar 10 2025 15:02:39 GMT-0500 (Central Daylight Time),550615.7999999523,CFD-WF-013-009-HC.jpg,1700,dash,O,z,1267,1,1,10194.899999976158,540420.8999999762,7076,ATS,C,4
5,test,2,C,mfborder.png,1,z,Mon Mar 10 2025 15:02:39 GMT-0500 (Central Daylight Time),553483.6999999881,CFD-WF-023-013-A.jpg,1600,dash,O,z,1249,2,1,13062.800000011921,540420.8999999762,7076,ATS,C,5
6,test,2,C,mfborder.png,1,m,Mon Mar 10 2025 15:02:39 GMT-0500 (Central Daylight Time),555198.2999999523,CFD-BM-034-035-HC.jpg,1000,dash,O,m,686,4,1,14777.399999976158,540420.8999999762,7076,ATS,C,6
7,test,2,C,mfborder.png,1,z,Mon Mar 10 2025 15:02:39 GMT-0500 (Central Daylight Time),557895.0,CFD-BF-019-004-HC.jpg,1500,dash,O,z,1166,3,1,17474.100000023842,540420.8999999762,7076,ATS,C,7
8,test,2,C,mfborder.png,1,m,Mon Mar 10 2025 15:02:39 GMT-0500 (Central Daylight Time),560063.3999999762,CFD-WM-036-018-A.jpg,1200,dash,O,m,945,6,1,19642.5,540420.8999999762,7076,ATS,C,8
9,test,2,C,haborder.png,1,z,Mon Mar 10 2025 15:02:39 GMT-0500 (Central Daylight Time),563246.0,CFD-BF-002-018-A.jpg,1900,solid,O,z,1255,8,1,22825.100000023842,540420.8999999762,7076,ATS,C,9
10,test,2,C,haborder.png,1,z,Mon Mar 10 2025 15:02:39 GMT-0500 (Central Daylight Time),565994.5,CFD-BF-002-018-A.jpg,1900,solid,O,z,825,8,1,25573.600000023842,540420.8999999762,7076,ATS,C,10
11,test,2,C,mfborder.png,1,m,Mon Mar 10 2025 15:02:39 GMT-0500 (Central Daylight Time),567860.0999999642,CFD-BM-034-035-HC.jpg,1000,dash,O,m,831,4,1,27439.19999998808,540420.8999999762,7076,ATS,C,11
12,test,2,C,haborder.png,1,z,Mon Mar 10 2025 15:02:39 GMT-0500 (Central Daylight Time),569993.0,CFD-BF-031-020-A.jpg,1400,solid,O,z,710,7,1,29572.100000023842,540420.8999999762,7076,ATS,C,12
13,test,2,C,mfborder.png,1,m,Mon Mar 10 2025 15:02:39 GMT-0500 (Central Daylight Time),573493.5999999642,CFD-BM-043-014-A.jpg,2000,dash,O,m,1482,5,1,33072.69999998808,540420.8999999762,7076,ATS,C,13
14,test,2,C,haborder.png,1,z,Mon Mar 10 2025 15:02:39 GMT-0500 (Central Daylight Time),575991.5999999642,CFD-WF-037-016-A.jpg,1700,solid,O,z,768,9,1,35570.69999998808,540420.8999999762,7076,ATS,C,14
15,test,2,C,haborder.png,1,m,Mon Mar 10 2025 15:02:39 GMT-0500 (Central Daylight Time),577973.8999999762,CFD-WM-028-005-HC.jpg,1000,solid,O,m,955,12,1,37553.0,540420.8999999762,7076,ATS,C,15
16,test,2,C,haborder.png,1,m,Mon Mar 10 2025 15:02:39 GMT-0500 (Central Daylight Time),579872.5999999642,CFD-WM-028-005-HC.jpg,1000,solid,O,m,876,12,1,39451.69999998808,540420.8999999762,7076,ATS,C,16
17,test,2,C,haborder.png,1,m,Mon Mar 10 2025 15:02:39 GMT-0500 (Central Daylight Time),582289.2999999523,CFD-BM-022-004-HC.jpg,1600,solid,O,m,791,10,1,41868.39999997616,540420.8999999762,7076,ATS,C,17
18,test,2,C,mfborder.png,1,z,Mon Mar 10 2025 15:02:39 GMT-0500 (Central Daylight Time),584705.0999999642,CFD-WF-023-013-A.jpg,1600,dash,O,z,792,2,1,44284.19999998808,540420.8999999762,7076,ATS,C,18
19,test,2,C,haborder.png,1,m,Mon Mar 10 2025 15:02:39 GMT-0500 (Central Daylight Time),586987.5,CFD-WM-028-005-HC.jpg,1500,solid,O,m,765,11,1,46566.60000002384,540420.8999999762,7076,ATS,C,19
20,test,2,C,mfborder.png,1,z,Mon Mar 10 2025 15:02:39 GMT-0500 (Central Daylight Time),590053.7999999523,CFD-WF-013-009-HC.jpg,1700,dash,O,z,1337,1,1,49632.89999997616,540420.8999999762,7076,ATS,C,20
21,test,2,C,mfborder.png,1,m,Mon Mar 10 2025 15:02:39 GMT-0500 (Central Daylight Time),593501.7999999523,CFD-BM-043-014-A.jpg,2000,dash,O,m,1427,5,1,53080.89999997616,540420.8999999762,7076,ATS,C,21
22,test,2,C,mfborder.png,1,m,Mon Mar 10 2025 15:02:39 GMT-0500 (Central Daylight Time),595951.5,CFD-WM-036-018-A.jpg,1200,dash,O,m,1218,6,1,55530.60000002384,540420.8999999762,7076,ATS,C,22
23,test,2,C,haborder.png,1,m,Mon Mar 10 2025 15:02:39 GMT-0500 (Central Daylight Time),598333.5999999642,CFD-WM-028-005-HC.jpg,1500,solid,O,m,862,11,1,57912.69999998808,540420.8999999762,7076,ATS,C,23
24,test,2,C,mfborder.png,1,z,Mon Mar 10 2025 15:02:39 GMT-0500 (Central Daylight Time),601234.2999999523,CFD-BF-019-004-HC.jpg,1500,dash,O,z,1383,3,1,60813.39999997616,540420.8999999762,7076,ATS,C,24
1,test,3,C,haborder.png,1,m,Mon Mar 10 2025 15:02:39 GMT-0500 (Central Daylight Time),610113.5999999642,CFD-WF-001-010-HC.jpg,1500,solid,O,m,1416,11,1,2949.899999976158,607163.6999999881,7076,ATS,C,1
2,test,3,C,mfborder.png,1,m,Mon Mar 10 2025 15:02:39 GMT-0500 (Central Daylight Time),612413.0999999642,CFD-BM-022-004-HC.jpg,1200,dash,O,m,1071,6,1,5249.399999976158,607163.6999999881,7076,ATS,C,2
2,test,3,C,haborder.png,0,z,Mon Mar 10 2025 15:02:39 GMT-0500 (Central Daylight Time),615654.2999999523,CFD-BM-021-026-A.jpg,1700,solid,O,None,1516,9,1,8490.599999964237,607163.6999999881,7076,ATS,C,3
2,test,3,C,mfborder.png,0,z,Mon Mar 10 2025 15:02:39 GMT-0500 (Central Daylight Time),618878.0,CFD-BF-042-031-HC.jpg,1700,dash,O,None,1515,1,1,11714.300000011921,607163.6999999881,7076,ATS,C,4
2,test,3,C,mfborder.png,0,m,Mon Mar 10 2025 15:02:39 GMT-0500 (Central Daylight Time),622342.5999999642,CFD-WM-034-040-A.jpg,2000,dash,O,z,1436,5,1,15178.899999976158,607163.6999999881,7076,ATS,C,5
3,test,3,C,mfborder.png,1,m,Mon Mar 10 2025 15:02:39 GMT-0500 (Central Daylight Time),625042.8999999762,CFD-BM-022-004-HC.jpg,1200,dash,O,m,1476,6,1,17879.19999998808,607163.6999999881,7076,ATS,C,6
3,test,3,C,haborder.png,0,m,Mon Mar 10 2025 15:02:39 GMT-0500 (Central Daylight Time),627757.6999999881,CFD-BF-019-004-HC.jpg,1600,solid,O,z,1094,10,1,20594.0,607163.6999999881,7076,ATS,C,7
4,test,3,C,mfborder.png,1,z,Mon Mar 10 2025 15:02:39 GMT-0500 (Central Daylight Time),630958.0,CFD-BF-042-031-HC.jpg,1700,dash,O,z,1483,1,1,23794.30000001192,607163.6999999881,7076,ATS,C,8
5,test,3,C,mfborder.png,1,z,Mon Mar 10 2025 15:02:39 GMT-0500 (Central Daylight Time),633805.3999999762,CFD-BF-031-020-A.jpg,1600,dash,O,z,1220,2,1,26641.69999998808,607163.6999999881,7076,ATS,C,9
6,test,3,C,mfborder.png,1,m,Mon Mar 10 2025 15:02:39 GMT-0500 (Central Daylight Time),636939.3999999762,CFD-WM-034-040-A.jpg,2000,dash,O,m,1108,5,1,29775.69999998808,607163.6999999881,7076,ATS,C,10
7,test,3,C,haborder.png,1,z,Mon Mar 10 2025 15:02:39 GMT-0500 (Central Daylight Time),639755.8999999762,CFD-BM-021-026-A.jpg,1700,solid,O,z,1098,9,1,32592.19999998808,607163.6999999881,7076,ATS,C,11
8,test,3,C,haborder.png,1,z,Mon Mar 10 2025 15:02:39 GMT-0500 (Central Daylight Time),642035.8999999762,CFD-WM-036-018-A.jpg,1400,solid,O,z,855,7,1,34872.19999998808,607163.6999999881,7076,ATS,C,12
9,test,3,C,haborder.png,1,m,Mon Mar 10 2025 15:02:39 GMT-0500 (Central Daylight Time),643868.8999999762,CFD-WF-013-009-HC.jpg,1000,solid,O,m,812,12,1,36705.19999998808,607163.6999999881,7076,ATS,C,13
10,test,3,C,mfborder.png,1,m,Mon Mar 10 2025 15:02:39 GMT-0500 (Central Daylight Time),645752.0999999642,CFD-WM-035-036-HC.jpg,1000,dash,O,m,857,4,1,38588.39999997616,607163.6999999881,7076,ATS,C,14
11,test,3,C,haborder.png,1,z,Mon Mar 10 2025 15:02:39 GMT-0500 (Central Daylight Time),648684.7999999523,CFD-BM-043-014-A.jpg,1900,solid,O,z,1015,8,1,41521.09999996424,607163.6999999881,7076,ATS,C,15
12,test,3,C,haborder.png,1,m,Mon Mar 10 2025 15:02:39 GMT-0500 (Central Daylight Time),651052.3999999762,CFD-WF-001-010-HC.jpg,1500,solid,O,m,830,11,1,43888.69999998808,607163.6999999881,7076,ATS,C,16
13,test,3,C,haborder.png,1,z,Mon Mar 10 2025 15:02:39 GMT-0500 (Central Daylight Time),653750.1999999881,CFD-WM-036-018-A.jpg,1400,solid,O,z,1268,7,1,46586.5,607163.6999999881,7076,ATS,C,17
14,test,3,C,mfborder.png,1,z,Mon Mar 10 2025 15:02:39 GMT-0500 (Central Daylight Time),656334.2999999523,CFD-BF-031-020-A.jpg,1600,dash,O,z,967,2,1,49170.59999996424,607163.6999999881,7076,ATS,C,18
15,test,3,C,mfborder.png,1,m,Mon Mar 10 2025 15:02:39 GMT-0500 (Central Daylight Time),658016.2999999523,CFD-WM-035-036-HC.jpg,1000,dash,O,m,661,4,1,50852.59999996424,607163.6999999881,7076,ATS,C,19
15,test,3,C,haborder.png,0,m,Mon Mar 10 2025 15:02:39 GMT-0500 (Central Daylight Time),660548.7999999523,CFD-WF-013-009-HC.jpg,1000,solid,O,None,1515,12,1,53385.09999996424,607163.6999999881,7076,ATS,C,20
16,test,3,C,haborder.png,1,m,Mon Mar 10 2025 15:02:39 GMT-0500 (Central Daylight Time),663014.2999999523,CFD-BF-019-004-HC.jpg,1600,solid,O,m,841,10,1,55850.59999996424,607163.6999999881,7076,ATS,C,21
17,test,3,C,mfborder.png,1,z,Mon Mar 10 2025 15:02:39 GMT-0500 (Central Daylight Time),665563.1999999881,CFD-WF-037-016-A.jpg,1500,dash,O,z,1015,3,1,58399.5,607163.6999999881,7076,ATS,C,22
18,test,3,C,mfborder.png,1,z,Mon Mar 10 2025 15:02:39 GMT-0500 (Central Daylight Time),667746.0,CFD-WF-037-016-A.jpg,1500,dash,O,z,650,3,1,60582.30000001192,607163.6999999881,7076,ATS,C,23
18,test,3,C,haborder.png,0,z,Mon Mar 10 2025 15:02:39 GMT-0500 (Central Daylight Time),670512.7999999523,CFD-BM-043-014-A.jpg,1900,solid,O,m,827,8,1,63349.09999996424,607163.6999999881,7076,ATS,C,24
0,test,4,C,mfborder.png,0,m,Mon Mar 10 2025 15:02:39 GMT-0500 (Central Daylight Time),676526.5,CFD-BM-034-035-HC.jpg,1000,dash,O,z,1241,4,1,2266.100000023842,674260.3999999762,7076,ATS,C,1
0,test,4,C,mfborder.png,0,z,Mon Mar 10 2025 15:02:39 GMT-0500 (Central Daylight Time),679558.1999999881,CFD-BF-019-004-HC.jpg,1500,dash,O,None,1507,3,1,5297.800000011921,674260.3999999762,7076,ATS,C,2
1,test,4,C,haborder.png,1,m,Mon Mar 10 2025 15:02:39 GMT-0500 (Central Daylight Time),682092.0999999642,CFD-BM-022-004-HC.jpg,1600,solid,O,m,908,10,1,7831.699999988079,674260.3999999762,7076,ATS,C,3
2,test,4,C,mfborder.png,1,z,Mon Mar 10 2025 15:02:39 GMT-0500 (Central Daylight Time),684890.5999999642,CFD-WF-013-009-HC.jpg,1700,dash,O,z,1067,1,1,10630.199999988079,674260.3999999762,7076,ATS,C,4
3,test,4,C,haborder.png,1,m,Mon Mar 10 2025 15:02:39 GMT-0500 (Central Daylight Time),686623.3999999762,CFD-WM-028-005-HC.jpg,1000,solid,O,m,700,12,1,12363.0,674260.3999999762,7076,ATS,C,5
4,test,4,C,mfborder.png,1,z,Mon Mar 10 2025 15:02:39 GMT-0500 (Central Daylight Time),689388.0,CFD-WF-013-009-HC.jpg,1700,dash,O,z,1037,1,1,15127.600000023842,674260.3999999762,7076,ATS,C,6
5,test,4,C,haborder.png,1,z,Mon Mar 10 2025 15:02:39 GMT-0500 (Central Daylight Time),692521.8999999762,CFD-BF-002-018-A.jpg,1900,solid,O,z,1207,8,1,18261.5,674260.3999999762,7076,ATS,C,7
6,test,4,C,haborder.png,1,z,Mon Mar 10 2025 15:02:39 GMT-0500 (Central Daylight Time),695020.2999999523,CFD-WF-037-016-A.jpg,1700,solid,O,z,771,9,1,20759.899999976158,674260.3999999762,7076,ATS,C,8
7,test,4,C,mfborder.png,1,z,Mon Mar 10 2025 15:02:39 GMT-0500 (Central Daylight Time),697702.6999999881,CFD-WF-023-013-A.jpg,1600,dash,O,z,1063,2,1,23442.30000001192,674260.3999999762,7076,ATS,C,9
8,test,4,C,mfborder.png,1,z,Mon Mar 10 2025 15:02:39 GMT-0500 (Central Daylight Time),700320.7999999523,CFD-WF-023-013-A.jpg,1600,dash,O,z,987,2,1,26060.399999976158,674260.3999999762,7076,ATS,C,10
9,test,4,C,haborder.png,1,z,Mon Mar 10 2025 15:02:39 GMT-0500 (Central Daylight Time),702916.6999999881,CFD-BF-031-020-A.jpg,1400,solid,O,z,1179,7,1,28656.30000001192,674260.3999999762,7076,ATS,C,11
10,test,4,C,haborder.png,1,m,Mon Mar 10 2025 15:02:39 GMT-0500 (Central Daylight Time),705517.0999999642,CFD-WM-028-005-HC.jpg,1500,solid,O,m,1066,11,1,31256.69999998808,674260.3999999762,7076,ATS,C,12
11,test,4,C,mfborder.png,1,m,Mon Mar 10 2025 15:02:39 GMT-0500 (Central Daylight Time),708781.3999999762,CFD-BM-043-014-A.jpg,2000,dash,O,m,1244,5,1,34521.0,674260.3999999762,7076,ATS,C,13
11,test,4,C,mfborder.png,0,m,Mon Mar 10 2025 15:02:39 GMT-0500 (Central Daylight Time),711514.6999999881,CFD-WM-036-018-A.jpg,1200,dash,O,None,1514,6,1,37254.30000001192,674260.3999999762,7076,ATS,C,14
12,test,4,C,mfborder.png,1,z,Mon Mar 10 2025 15:02:39 GMT-0500 (Central Daylight Time),714397.0999999642,CFD-BF-019-004-HC.jpg,1500,dash,O,z,1356,3,1,40136.69999998808,674260.3999999762,7076,ATS,C,15
13,test,4,C,mfborder.png,1,m,Mon Mar 10 2025 15:02:39 GMT-0500 (Central Daylight Time),716163.8999999762,CFD-BM-034-035-HC.jpg,1000,dash,O,m,739,4,1,41903.5,674260.3999999762,7076,ATS,C,16
14,test,4,C,haborder.png,1,m,Mon Mar 10 2025 15:02:39 GMT-0500 (Central Daylight Time),718014.0,CFD-WM-028-005-HC.jpg,1000,solid,O,m,831,12,1,43753.60000002384,674260.3999999762,7076,ATS,C,17
14,test,4,C,haborder.png,0,z,Mon Mar 10 2025 15:02:39 GMT-0500 (Central Daylight Time),720947.7999999523,CFD-BF-031-020-A.jpg,1400,solid,O,None,1517,7,1,46687.39999997616,674260.3999999762,7076,ATS,C,18
15,test,4,C,mfborder.png,1,m,Mon Mar 10 2025 15:02:39 GMT-0500 (Central Daylight Time),723910.3999999762,CFD-BM-043-014-A.jpg,2000,dash,O,m,937,5,1,49650.0,674260.3999999762,7076,ATS,C,19
16,test,4,C,haborder.png,1,z,Mon Mar 10 2025 15:02:39 GMT-0500 (Central Daylight Time),726361.7999999523,CFD-WF-037-016-A.jpg,1700,solid,O,z,733,9,1,52101.39999997616,674260.3999999762,7076,ATS,C,20
17,test,4,C,haborder.png,1,m,Mon Mar 10 2025 15:02:39 GMT-0500 (Central Daylight Time),728742.6999999881,CFD-WM-028-005-HC.jpg,1500,solid,O,m,863,11,1,54482.30000001192,674260.3999999762,7076,ATS,C,21
18,test,4,C,mfborder.png,1,m,Mon Mar 10 2025 15:02:39 GMT-0500 (Central Daylight Time),731008.6999999881,CFD-WM-036-018-A.jpg,1200,dash,O,m,1034,6,1,56748.30000001192,674260.3999999762,7076,ATS,C,22
19,test,4,C,haborder.png,1,m,Mon Mar 10 2025 15:02:39 GMT-0500 (Central Daylight Time),733457.3999999762,CFD-BM-022-004-HC.jpg,1600,solid,O,m,824,10,1,59197.0,674260.3999999762,7076,ATS,C,23
20,test,4,C,haborder.png,1,z,Mon Mar 10 2025 15:02:39 GMT-0500 (Central Daylight Time),736524.2999999523,CFD-BF-002-018-A.jpg,1900,solid,O,z,1140,8,1,62263.89999997616,674260.3999999762,7076,ATS,C,24
