acc_sum,block,block_c,change,condition,correct,correct_response,datetime,endtime,face,project,response,response_time,row_sel,session_number,start_end,starttime,subject_id,task,task_vers,trial
0,prac,1,,1-Back,,,Thu Mar 13 2025 08:55:57 GMT-0500 (Central Daylight Time),,012_o_f_d_a.png,O,space,7418,1,1,,,7105,VNB,C,0
1,prac,1,0.0,1-Back,1,m,Thu Mar 13 2025 08:55:57 GMT-0500 (Central Daylight Time),124114.29999999981,022_y_f_n_a.png,O,m,784,2,1,1689.5,122424.79999999981,7105,VNB,C,1
1,prac,1,0.0,1-Back,0,m,Thu Mar 13 2025 08:55:57 GMT-0500 (Central Daylight Time),126048.19999999972,014_m_m_h_a.png,O,z,1042,3,1,1926.5999999996275,124121.6000000001,7105,VNB,C,2
2,prac,1,0.0,1-Back,1,m,Thu Mar 13 2025 08:55:57 GMT-0500 (Central Daylight Time),127713.19999999972,025_y_m_d_a.png,O,m,783,4,1,1657.8999999999069,126055.29999999981,7105,VNB,C,3
3,prac,1,0.0,1-Back,1,m,Thu Mar 13 2025 08:55:57 GMT-0500 (Central Daylight Time),129329.19999999972,012_o_f_n_a.png,O,m,726,5,1,1609.7999999998137,127719.3999999999,7105,VNB,C,4
4,prac,1,1.0,1-Back,1,z,Thu Mar 13 2025 08:55:57 GMT-0500 (Central Daylight Time),130812.1000000001,025_y_m_n_a.png,O,z,608,6,1,1476.0,129336.1000000001,7105,VNB,C,5
5,prac,1,0.0,1-Back,1,m,Thu Mar 13 2025 08:55:57 GMT-0500 (Central Daylight Time),132395.0,015_o_m_h_a.png,O,m,675,7,1,1574.2000000001863,130820.79999999981,7105,VNB,C,6
6,prac,1,0.0,1-Back,1,m,Thu Mar 13 2025 08:55:57 GMT-0500 (Central Daylight Time),133994.5,019_m_f_d_a.png,O,m,700,8,1,1592.1000000000931,132402.3999999999,7105,VNB,C,7
7,prac,1,1.0,1-Back,1,z,Thu Mar 13 2025 08:55:57 GMT-0500 (Central Daylight Time),135410.7999999998,022_y_f_d_a.png,O,z,511,9,1,1410.1000000000931,134000.69999999972,7105,VNB,C,8
8,prac,1,0.0,1-Back,1,m,Thu Mar 13 2025 08:55:57 GMT-0500 (Central Daylight Time),137027.0,014_m_m_n_a.png,O,m,731,10,1,1608.3999999999069,135418.6000000001,7105,VNB,C,9
9,prac,1,0.0,1-Back,1,m,Thu Mar 13 2025 08:55:57 GMT-0500 (Central Daylight Time),138559.7999999998,012_o_f_h_a.png,O,m,627,11,1,1525.8999999999069,137033.8999999999,7105,VNB,C,10
10,prac,1,0.0,1-Back,1,m,Thu Mar 13 2025 08:55:57 GMT-0500 (Central Daylight Time),140026.1000000001,025_y_m_d_a.png,O,m,584,12,1,1458.7000000001863,138567.3999999999,7105,VNB,C,11
0,test,1,0.0,1-Back,,,Thu Mar 13 2025 08:55:57 GMT-0500 (Central Daylight Time),140026.1000000001,022_y_f_d_a.png,O,space,6932,1,1,1458.7000000001863,138567.3999999999,7105,VNB,C,0
1,test,1,0.0,1-Back,1,m,Thu Mar 13 2025 08:55:57 GMT-0500 (Central Daylight Time),156088.5,019_m_f_n_a.png,O,m,736,2,1,1762.0,154326.5,7105,VNB,C,1
2,test,1,0.0,1-Back,1,m,Thu Mar 13 2025 08:55:57 GMT-0500 (Central Daylight Time),157803.7999999998,015_o_m_h_a.png,O,m,690,3,1,1710.6999999997206,156093.1000000001,7105,VNB,C,2
3,test,1,1.0,1-Back,1,z,Thu Mar 13 2025 08:55:57 GMT-0500 (Central Daylight Time),159436.5,014_m_m_h_a.png,O,z,614,4,1,1628.1000000000931,157808.3999999999,7105,VNB,C,3
4,test,1,0.0,1-Back,1,m,Thu Mar 13 2025 08:55:57 GMT-0500 (Central Daylight Time),161086.0,012_o_f_n_a.png,O,m,629,5,1,1646.3000000002794,159439.69999999972,7105,VNB,C,4
5,test,1,0.0,1-Back,1,m,Thu Mar 13 2025 08:55:57 GMT-0500 (Central Daylight Time),162802.1000000001,025_y_m_d_a.png,O,m,691,6,1,1711.6000000000931,161090.5,7105,VNB,C,5
6,test,1,1.0,1-Back,1,z,Thu Mar 13 2025 08:55:57 GMT-0500 (Central Daylight Time),164501.3999999999,019_m_f_d_a.png,O,z,678,7,1,1695.7000000001863,162805.69999999972,7105,VNB,C,6
7,test,1,0.0,1-Back,1,m,Thu Mar 13 2025 08:55:57 GMT-0500 (Central Daylight Time),166084.69999999972,022_y_f_h_a.png,O,m,555,8,1,1579.0999999996275,164505.6000000001,7105,VNB,C,7
8,test,1,0.0,1-Back,1,m,Thu Mar 13 2025 08:55:57 GMT-0500 (Central Daylight Time),167733.7999999998,015_o_m_n_a.png,O,m,621,9,1,1644.6000000000931,166089.19999999972,7105,VNB,C,8
9,test,1,0.0,1-Back,1,m,Thu Mar 13 2025 08:55:57 GMT-0500 (Central Daylight Time),169417.69999999972,025_y_m_h_a.png,O,m,650,10,1,1679.3999999999069,167738.2999999998,7105,VNB,C,9
10,test,1,0.0,1-Back,1,m,Thu Mar 13 2025 08:55:57 GMT-0500 (Central Daylight Time),171016.1000000001,015_o_m_d_a.png,O,m,576,11,1,1593.7000000001863,169422.3999999999,7105,VNB,C,10
11,test,1,1.0,1-Back,1,z,Thu Mar 13 2025 08:55:57 GMT-0500 (Central Daylight Time),172799.1000000001,012_o_f_d_a.png,O,z,761,12,1,1779.4000000003725,171019.69999999972,7105,VNB,C,11
12,test,1,0.0,1-Back,1,m,Thu Mar 13 2025 08:55:57 GMT-0500 (Central Daylight Time),174431.69999999972,014_m_m_n_a.png,O,m,610,13,1,1629.2999999998137,172802.3999999999,7105,VNB,C,12
13,test,1,1.0,1-Back,1,z,Thu Mar 13 2025 08:55:57 GMT-0500 (Central Daylight Time),176214.5,022_y_f_n_a.png,O,z,716,14,1,1778.3999999999069,174436.1000000001,7105,VNB,C,13
14,test,1,0.0,1-Back,1,m,Thu Mar 13 2025 08:55:57 GMT-0500 (Central Daylight Time),177780.69999999972,019_m_f_h_a.png,O,m,538,15,1,1561.7999999998137,176218.8999999999,7105,VNB,C,14
15,test,1,0.0,1-Back,1,m,Thu Mar 13 2025 08:55:57 GMT-0500 (Central Daylight Time),180013.1000000001,014_m_m_d_a.png,O,m,1204,16,1,2229.0,177784.1000000001,7105,VNB,C,15
16,test,1,0.0,1-Back,1,m,Thu Mar 13 2025 08:55:57 GMT-0500 (Central Daylight Time),181929.2999999998,025_y_m_n_a.png,O,m,892,17,1,1911.7999999998137,180017.5,7105,VNB,C,16
17,test,1,0.0,1-Back,1,m,Thu Mar 13 2025 08:55:57 GMT-0500 (Central Daylight Time),183495.5,012_o_f_h_a.png,O,m,536,18,1,1562.2000000001863,181933.2999999998,7105,VNB,C,17
0,test,2,0.0,1-Back,,,Thu Mar 13 2025 08:55:57 GMT-0500 (Central Daylight Time),183495.5,025_y_m_n_a.png,O,space,2098,1,1,1562.2000000001863,181933.2999999998,7105,VNB,C,0
1,test,2,0.0,1-Back,1,m,Thu Mar 13 2025 08:55:57 GMT-0500 (Central Daylight Time),189543.6000000001,022_y_f_h_a.png,O,m,902,2,1,1928.3000000002794,187615.2999999998,7105,VNB,C,1
2,test,2,1.0,1-Back,1,m,Thu Mar 13 2025 08:55:57 GMT-0500 (Central Daylight Time),191126.7999999998,015_o_m_n_a.png,O,m,554,3,1,1578.5,189548.2999999998,7105,VNB,C,2
3,test,2,0.0,1-Back,1,m,Thu Mar 13 2025 08:55:57 GMT-0500 (Central Daylight Time),192909.2999999998,019_m_f_d_a.png,O,m,763,4,1,1778.0,191131.2999999998,7105,VNB,C,3
4,test,2,0.0,1-Back,1,z,Thu Mar 13 2025 08:55:57 GMT-0500 (Central Daylight Time),194525.2999999998,014_m_m_d_a.png,O,z,596,5,1,1611.6999999997206,192913.6000000001,7105,VNB,C,4
5,test,2,0.0,1-Back,1,m,Thu Mar 13 2025 08:55:57 GMT-0500 (Central Daylight Time),196042.3999999999,025_y_m_h_a.png,O,m,500,6,1,1512.2000000001863,194530.19999999972,7105,VNB,C,5
6,test,2,1.0,1-Back,1,z,Thu Mar 13 2025 08:55:57 GMT-0500 (Central Daylight Time),197657.8999999999,012_o_f_h_a.png,O,z,592,7,1,1611.5,196046.3999999999,7105,VNB,C,6
7,test,2,0.0,1-Back,1,m,Thu Mar 13 2025 08:55:57 GMT-0500 (Central Daylight Time),199197.3999999999,019_m_f_n_a.png,O,m,522,8,1,1535.1000000000931,197662.2999999998,7105,VNB,C,7
8,test,2,0.0,1-Back,1,m,Thu Mar 13 2025 08:55:57 GMT-0500 (Central Daylight Time),200756.8999999999,022_y_f_d_a.png,O,m,539,9,1,1554.8999999999069,199202.0,7105,VNB,C,8
9,test,2,0.0,1-Back,1,m,Thu Mar 13 2025 08:55:57 GMT-0500 (Central Daylight Time),202306.3999999999,014_m_m_n_a.png,O,m,517,10,1,1546.0,200760.3999999999,7105,VNB,C,9
10,test,2,1.0,1-Back,1,m,Thu Mar 13 2025 08:55:57 GMT-0500 (Central Daylight Time),203955.6000000001,019_m_f_h_a.png,O,m,631,11,1,1644.8000000002794,202310.7999999998,7105,VNB,C,10
11,test,2,0.0,1-Back,1,z,Thu Mar 13 2025 08:55:57 GMT-0500 (Central Daylight Time),205538.5,015_o_m_h_a.png,O,z,565,12,1,1579.3000000002794,203959.19999999972,7105,VNB,C,11
12,test,2,0.0,1-Back,1,m,Thu Mar 13 2025 08:55:57 GMT-0500 (Central Daylight Time),207038.1000000001,025_y_m_d_a.png,O,m,470,13,1,1495.3000000002794,205542.7999999998,7105,VNB,C,12
13,test,2,0.0,1-Back,1,m,Thu Mar 13 2025 08:55:57 GMT-0500 (Central Daylight Time),208671.1000000001,012_o_f_n_a.png,O,m,611,14,1,1628.8000000002794,207042.2999999998,7105,VNB,C,13
13,test,2,0.0,1-Back,0,z,Thu Mar 13 2025 08:55:57 GMT-0500 (Central Daylight Time),210220.3999999999,022_y_f_n_a.png,O,m,530,15,1,1544.5,208675.8999999999,7105,VNB,C,14
14,test,2,1.0,1-Back,1,m,Thu Mar 13 2025 08:55:57 GMT-0500 (Central Daylight Time),212136.69999999972,014_m_m_h_a.png,O,m,885,16,1,1912.6999999997206,210224.0,7105,VNB,C,15
15,test,2,0.0,1-Back,1,m,Thu Mar 13 2025 08:55:57 GMT-0500 (Central Daylight Time),213736.1000000001,012_o_f_d_a.png,O,m,568,17,1,1595.1000000000931,212141.0,7105,VNB,C,16
16,test,2,1.0,1-Back,1,z,Thu Mar 13 2025 08:55:57 GMT-0500 (Central Daylight Time),215252.5,015_o_m_d_a.png,O,z,489,18,1,1512.5,213740.0,7105,VNB,C,17
0,test,3,1.0,1-Back,,,Thu Mar 13 2025 08:55:57 GMT-0500 (Central Daylight Time),215252.5,012_o_f_h_a.png,O,space,2125,1,1,1512.5,213740.0,7105,VNB,C,0
1,test,3,0.0,1-Back,1,m,Thu Mar 13 2025 08:55:57 GMT-0500 (Central Daylight Time),221233.7999999998,019_m_f_d_a.png,O,m,708,2,1,1728.0,219505.7999999998,7105,VNB,C,1
2,test,3,1.0,1-Back,1,m,Thu Mar 13 2025 08:55:57 GMT-0500 (Central Daylight Time),223316.3999999999,014_m_m_n_a.png,O,m,1063,3,1,2077.600000000093,221238.7999999998,7105,VNB,C,2
3,test,3,0.0,1-Back,1,z,Thu Mar 13 2025 08:55:57 GMT-0500 (Central Daylight Time),225082.3999999999,012_o_f_n_a.png,O,z,734,4,1,1762.6000000000931,223319.7999999998,7105,VNB,C,3
4,test,3,1.0,1-Back,1,m,Thu Mar 13 2025 08:55:57 GMT-0500 (Central Daylight Time),227065.19999999972,015_o_m_d_a.png,O,m,959,5,1,1978.2999999998137,225086.8999999999,7105,VNB,C,4
5,test,3,0.0,1-Back,1,m,Thu Mar 13 2025 08:55:57 GMT-0500 (Central Daylight Time),228631.3999999999,022_y_f_h_a.png,O,m,544,6,1,1562.7000000001863,227068.69999999972,7105,VNB,C,5
6,test,3,0.0,1-Back,1,z,Thu Mar 13 2025 08:55:57 GMT-0500 (Central Daylight Time),230081.1000000001,025_y_m_h_a.png,O,z,426,7,1,1446.4000000003725,228634.69999999972,7105,VNB,C,6
7,test,3,0.0,1-Back,1,m,Thu Mar 13 2025 08:55:57 GMT-0500 (Central Daylight Time),231580.6000000001,019_m_f_n_a.png,O,m,472,8,1,1495.3000000002794,230085.2999999998,7105,VNB,C,7
8,test,3,0.0,1-Back,1,m,Thu Mar 13 2025 08:55:57 GMT-0500 (Central Daylight Time),233146.5,022_y_f_d_a.png,O,m,549,9,1,1561.5,231585.0,7105,VNB,C,8
9,test,3,1.0,1-Back,1,m,Thu Mar 13 2025 08:55:57 GMT-0500 (Central Daylight Time),234713.0,015_o_m_n_a.png,O,m,534,10,1,1562.3999999999069,233150.6000000001,7105,VNB,C,9
10,test,3,0.0,1-Back,1,m,Thu Mar 13 2025 08:55:57 GMT-0500 (Central Daylight Time),236279.0,014_m_m_h_a.png,O,m,536,11,1,1560.8000000002794,234718.19999999972,7105,VNB,C,10
11,test,3,0.0,1-Back,1,z,Thu Mar 13 2025 08:55:57 GMT-0500 (Central Daylight Time),237728.6000000001,019_m_f_h_a.png,O,z,418,12,1,1445.4000000003725,236283.19999999972,7105,VNB,C,11
12,test,3,1.0,1-Back,1,m,Thu Mar 13 2025 08:55:57 GMT-0500 (Central Daylight Time),239311.3999999999,012_o_f_d_a.png,O,m,560,13,1,1577.8999999999069,237733.5,7105,VNB,C,12
13,test,3,0.0,1-Back,1,z,Thu Mar 13 2025 08:55:57 GMT-0500 (Central Daylight Time),240911.0,014_m_m_d_a.png,O,z,578,14,1,1595.1000000000931,239315.8999999999,7105,VNB,C,13
14,test,3,0.0,1-Back,1,m,Thu Mar 13 2025 08:55:57 GMT-0500 (Central Daylight Time),242426.8999999999,025_y_m_n_a.png,O,m,498,15,1,1511.5,240915.3999999999,7105,VNB,C,14
15,test,3,1.0,1-Back,1,m,Thu Mar 13 2025 08:55:57 GMT-0500 (Central Daylight Time),243959.8999999999,015_o_m_h_a.png,O,m,509,16,1,1528.8999999999069,242431.0,7105,VNB,C,15
16,test,3,0.0,1-Back,1,m,Thu Mar 13 2025 08:55:57 GMT-0500 (Central Daylight Time),245442.7999999998,025_y_m_d_a.png,O,m,457,17,1,1478.1999999997206,243964.6000000001,7105,VNB,C,16
17,test,3,1.0,1-Back,1,m,Thu Mar 13 2025 08:55:57 GMT-0500 (Central Daylight Time),247009.0,022_y_f_n_a.png,O,m,535,18,1,1561.8999999999069,245447.1000000001,7105,VNB,C,17
0,test,4,1.0,1-Back,,,Thu Mar 13 2025 08:55:57 GMT-0500 (Central Daylight Time),247009.0,014_m_m_d_a.png,O,space,1552,1,1,1561.8999999999069,245447.1000000001,7105,VNB,C,0
1,test,4,0.0,1-Back,1,z,Thu Mar 13 2025 08:55:57 GMT-0500 (Central Daylight Time),252640.6000000001,015_o_m_d_a.png,O,z,1018,2,1,2044.8000000002794,250595.7999999998,7105,VNB,C,1
2,test,4,0.0,1-Back,1,m,Thu Mar 13 2025 08:55:57 GMT-0500 (Central Daylight Time),254190.1000000001,025_y_m_h_a.png,O,m,520,3,1,1545.3000000002794,252644.7999999998,7105,VNB,C,2
3,test,4,0.0,1-Back,1,m,Thu Mar 13 2025 08:55:57 GMT-0500 (Central Daylight Time),255756.2999999998,019_m_f_n_a.png,O,m,539,4,1,1562.1999999997206,254194.1000000001,7105,VNB,C,3
4,test,4,1.0,1-Back,1,m,Thu Mar 13 2025 08:55:57 GMT-0500 (Central Daylight Time),257338.8999999999,012_o_f_h_a.png,O,m,565,5,1,1579.3999999999069,255759.5,7105,VNB,C,4
5,test,4,0.0,1-Back,1,m,Thu Mar 13 2025 08:55:57 GMT-0500 (Central Daylight Time),258855.2999999998,014_m_m_n_a.png,O,m,486,6,1,1511.7999999998137,257343.5,7105,VNB,C,5
6,test,4,0.0,1-Back,1,m,Thu Mar 13 2025 08:55:57 GMT-0500 (Central Daylight Time),260454.7999999998,025_y_m_d_a.png,O,m,578,7,1,1595.3999999999069,258859.3999999999,7105,VNB,C,6
7,test,4,1.0,1-Back,1,z,Thu Mar 13 2025 08:55:57 GMT-0500 (Central Daylight Time),262004.19999999972,022_y_f_d_a.png,O,z,530,8,1,1545.3999999999069,260458.7999999998,7105,VNB,C,7
8,test,4,0.0,1-Back,1,m,Thu Mar 13 2025 08:55:57 GMT-0500 (Central Daylight Time),263553.7999999998,019_m_f_h_a.png,O,m,524,9,1,1545.6000000000931,262008.19999999972,7105,VNB,C,8
9,test,4,0.0,1-Back,1,z,Thu Mar 13 2025 08:55:57 GMT-0500 (Central Daylight Time),265121.1000000001,015_o_m_h_a.png,O,z,535,10,1,1562.1000000000931,263559.0,7105,VNB,C,9
10,test,4,1.0,1-Back,1,m,Thu Mar 13 2025 08:55:57 GMT-0500 (Central Daylight Time),266702.8999999999,012_o_f_n_a.png,O,m,553,11,1,1576.2999999998137,265126.6000000001,7105,VNB,C,10
11,test,4,0.0,1-Back,1,m,Thu Mar 13 2025 08:55:57 GMT-0500 (Central Daylight Time),268302.3999999999,019_m_f_d_a.png,O,m,570,12,1,1595.2000000001863,266707.1999999997,7105,VNB,C,11
12,test,4,0.0,1-Back,1,m,Thu Mar 13 2025 08:55:57 GMT-0500 (Central Daylight Time),269846.6000000001,022_y_f_n_a.png,O,m,527,13,1,1539.8000000002794,268306.7999999998,7105,VNB,C,12
13,test,4,0.0,1-Back,1,m,Thu Mar 13 2025 08:55:57 GMT-0500 (Central Daylight Time),271417.8999999999,012_o_f_d_a.png,O,m,549,14,1,1567.5,269850.3999999999,7105,VNB,C,13
14,test,4,0.0,1-Back,1,m,Thu Mar 13 2025 08:55:57 GMT-0500 (Central Daylight Time),272951.0,022_y_f_h_a.png,O,m,503,15,1,1528.8999999999069,271422.1000000001,7105,VNB,C,14
15,test,4,1.0,1-Back,1,z,Thu Mar 13 2025 08:55:57 GMT-0500 (Central Daylight Time),274600.5,014_m_m_h_a.png,O,z,618,16,1,1645.2000000001863,272955.2999999998,7105,VNB,C,15
16,test,4,0.0,1-Back,1,m,Thu Mar 13 2025 08:55:57 GMT-0500 (Central Daylight Time),276149.8999999999,015_o_m_n_a.png,O,m,529,17,1,1545.0,274604.8999999999,7105,VNB,C,16
17,test,4,1.0,1-Back,1,z,Thu Mar 13 2025 08:55:57 GMT-0500 (Central Daylight Time),277682.7999999998,025_y_m_n_a.png,O,z,507,18,1,1528.8999999999069,276153.8999999999,7105,VNB,C,17
0,test,5,1.0,1-Back,,,Thu Mar 13 2025 08:55:57 GMT-0500 (Central Daylight Time),277682.7999999998,015_o_m_n_a.png,O,space,1742,1,1,1528.8999999999069,276153.8999999999,7105,VNB,C,0
1,test,5,1.0,1-Back,1,m,Thu Mar 13 2025 08:55:57 GMT-0500 (Central Daylight Time),283197.7999999998,012_o_f_h_a.png,O,m,721,2,1,1745.6000000000931,281452.1999999997,7105,VNB,C,1
2,test,5,0.0,1-Back,1,m,Thu Mar 13 2025 08:55:57 GMT-0500 (Central Daylight Time),284747.1000000001,025_y_m_d_a.png,O,m,532,3,1,1545.1000000000931,283202.0,7105,VNB,C,2
3,test,5,0.0,1-Back,1,z,Thu Mar 13 2025 08:55:57 GMT-0500 (Central Daylight Time),286230.1000000001,015_o_m_d_a.png,O,z,454,4,1,1478.1000000000931,284752.0,7105,VNB,C,3
4,test,5,0.0,1-Back,1,m,Thu Mar 13 2025 08:55:57 GMT-0500 (Central Daylight Time),287929.3999999999,019_m_f_h_a.png,O,m,675,5,1,1694.3999999999069,286235.0,7105,VNB,C,4
5,test,5,0.0,1-Back,1,m,Thu Mar 13 2025 08:55:57 GMT-0500 (Central Daylight Time),289495.6000000001,022_y_f_n_a.png,O,m,536,6,1,1562.0,287933.6000000001,7105,VNB,C,5
5,test,5,1.0,1-Back,0,z,Thu Mar 13 2025 08:55:57 GMT-0500 (Central Daylight Time),291095.0,012_o_f_n_a.png,O,m,577,7,1,1594.3999999999069,289500.6000000001,7105,VNB,C,6
6,test,5,0.0,1-Back,1,m,Thu Mar 13 2025 08:55:57 GMT-0500 (Central Daylight Time),292794.6000000001,019_m_f_d_a.png,O,m,682,8,1,1695.5,291099.1000000001,7105,VNB,C,7
7,test,5,0.0,1-Back,1,m,Thu Mar 13 2025 08:55:57 GMT-0500 (Central Daylight Time),294360.8999999999,025_y_m_h_a.png,O,m,535,9,1,1562.1000000000931,292798.7999999998,7105,VNB,C,8
8,test,5,0.0,1-Back,1,m,Thu Mar 13 2025 08:55:57 GMT-0500 (Central Daylight Time),295943.6000000001,022_y_f_d_a.png,O,m,552,10,1,1578.6000000000931,294365.0,7105,VNB,C,9
9,test,5,0.0,1-Back,1,m,Thu Mar 13 2025 08:55:57 GMT-0500 (Central Daylight Time),297443.0,014_m_m_n_a.png,O,m,482,11,1,1495.0,295948.0,7105,VNB,C,10
10,test,5,1.0,1-Back,1,z,Thu Mar 13 2025 08:55:57 GMT-0500 (Central Daylight Time),299009.6000000001,019_m_f_n_a.png,O,z,542,12,1,1562.2000000001863,297447.3999999999,7105,VNB,C,11
11,test,5,0.0,1-Back,1,m,Thu Mar 13 2025 08:55:57 GMT-0500 (Central Daylight Time),300625.2999999998,015_o_m_h_a.png,O,m,583,13,1,1612.3999999999069,299012.8999999999,7105,VNB,C,12
12,test,5,0.0,1-Back,1,z,Thu Mar 13 2025 08:55:57 GMT-0500 (Central Daylight Time),302108.5,014_m_m_h_a.png,O,z,464,14,1,1479.5,300629.0,7105,VNB,C,13
13,test,5,1.0,1-Back,1,m,Thu Mar 13 2025 08:55:57 GMT-0500 (Central Daylight Time),303691.3999999999,012_o_f_d_a.png,O,m,557,15,1,1578.8999999999069,302112.5,7105,VNB,C,14
14,test,5,0.0,1-Back,1,m,Thu Mar 13 2025 08:55:57 GMT-0500 (Central Daylight Time),305224.1000000001,025_y_m_n_a.png,O,m,510,16,1,1529.6000000000931,303694.5,7105,VNB,C,15
15,test,5,0.0,1-Back,1,m,Thu Mar 13 2025 08:55:57 GMT-0500 (Central Daylight Time),306890.1000000001,022_y_f_h_a.png,O,m,633,17,1,1661.9000000003725,305228.1999999997,7105,VNB,C,16
16,test,5,0.0,1-Back,1,m,Thu Mar 13 2025 08:55:57 GMT-0500 (Central Daylight Time),308689.7999999998,014_m_m_d_a.png,O,m,767,18,1,1795.6000000000931,306894.1999999997,7105,VNB,C,17
0,prac,1,0.0,2-Back,,,Thu Mar 13 2025 08:55:57 GMT-0500 (Central Daylight Time),308689.7999999998,019_m_f_n_a.png,O,space,7623,1,1,1795.6000000000931,306894.1999999997,7105,VNB,C,0
0,prac,1,0.0,2-Back,,,Thu Mar 13 2025 08:55:57 GMT-0500 (Central Daylight Time),308689.7999999998,012_o_f_h_a.png,O,space,7623,2,1,1795.6000000000931,306894.1999999997,7105,VNB,C,0
1,prac,1,0.0,2-Back,1,m,Thu Mar 13 2025 08:55:57 GMT-0500 (Central Daylight Time),417838.8999999999,015_o_m_d_a.png,O,m,1214,3,1,2108.899999999907,415730.0,7105,VNB,C,1
2,prac,1,1.0,2-Back,1,z,Thu Mar 13 2025 08:55:57 GMT-0500 (Central Daylight Time),419655.0,014_m_m_h_a.png,O,z,926,4,1,1809.2000000001863,417845.7999999998,7105,VNB,C,2
3,prac,1,0.0,2-Back,1,m,Thu Mar 13 2025 08:55:57 GMT-0500 (Central Daylight Time),421921.1000000001,022_y_f_n_a.png,O,m,1364,5,1,2258.4000000003725,419662.6999999997,7105,VNB,C,3
4,prac,1,1.0,2-Back,1,z,Thu Mar 13 2025 08:55:57 GMT-0500 (Central Daylight Time),423953.6999999997,015_o_m_h_a.png,O,z,1126,6,1,2025.6999999997206,421928.0,7105,VNB,C,4
5,prac,1,1.0,2-Back,1,z,Thu Mar 13 2025 08:55:57 GMT-0500 (Central Daylight Time),425952.8999999999,025_y_m_n_a.png,O,z,1113,7,1,1992.5,423960.3999999999,7105,VNB,C,5
6,prac,1,0.0,2-Back,1,m,Thu Mar 13 2025 08:55:57 GMT-0500 (Central Daylight Time),427735.5,019_m_f_d_a.png,O,m,873,8,1,1776.5,425959.0,7105,VNB,C,6
7,prac,1,0.0,2-Back,1,m,Thu Mar 13 2025 08:55:57 GMT-0500 (Central Daylight Time),429568.6000000001,012_o_f_d_a.png,O,m,933,9,1,1825.6000000000931,427743.0,7105,VNB,C,7
8,prac,1,0.0,2-Back,1,m,Thu Mar 13 2025 08:55:57 GMT-0500 (Central Daylight Time),431501.6000000001,014_m_m_h_a.png,O,m,1155,10,1,1926.8000000002794,429574.7999999998,7105,VNB,C,8
9,prac,1,1.0,2-Back,1,z,Thu Mar 13 2025 08:55:57 GMT-0500 (Central Daylight Time),433184.1000000001,022_y_f_d_a.png,O,z,772,11,1,1675.9000000003725,431508.1999999997,7105,VNB,C,9
9,prac,1,0.0,2-Back,0,m,Thu Mar 13 2025 08:55:57 GMT-0500 (Central Daylight Time),435200.0,015_o_m_n_a.png,O,z,1134,12,1,2009.3999999999069,433190.6000000001,7105,VNB,C,10
0,test,1,0.0,2-Back,,,Thu Mar 13 2025 08:55:57 GMT-0500 (Central Daylight Time),435200.0,025_y_m_h_a.png,O,space,7021,1,1,2009.3999999999069,433190.6000000001,7105,VNB,C,0
0,test,1,0.0,2-Back,,,Thu Mar 13 2025 08:55:57 GMT-0500 (Central Daylight Time),435200.0,012_o_f_n_a.png,O,space,7021,2,1,2009.3999999999069,433190.6000000001,7105,VNB,C,0
1,test,1,0.0,2-Back,1,z,Thu Mar 13 2025 08:55:57 GMT-0500 (Central Daylight Time),454560.6999999997,015_o_m_h_a.png,O,z,1284,3,1,2311.7999999998137,452248.8999999999,7105,VNB,C,1
2,test,1,0.0,2-Back,1,m,Thu Mar 13 2025 08:55:57 GMT-0500 (Central Daylight Time),457043.2999999998,019_m_f_d_a.png,O,m,1465,4,1,2478.2999999998137,454565.0,7105,VNB,C,2
3,test,1,1.0,2-Back,1,m,Thu Mar 13 2025 08:55:57 GMT-0500 (Central Daylight Time),459226.0,025_y_m_n_a.png,O,m,1102,5,1,2179.100000000093,457046.8999999999,7105,VNB,C,3
4,test,1,0.0,2-Back,1,z,Thu Mar 13 2025 08:55:57 GMT-0500 (Central Daylight Time),461025.1999999997,022_y_f_d_a.png,O,z,767,6,1,1795.0,459230.1999999997,7105,VNB,C,4
4,test,1,0.0,2-Back,0,m,Thu Mar 13 2025 08:55:57 GMT-0500 (Central Daylight Time),463374.6000000001,014_m_m_h_a.png,O,z,1320,7,1,2345.4000000003725,461029.1999999997,7105,VNB,C,5
4,test,1,1.0,2-Back,0,m,Thu Mar 13 2025 08:55:57 GMT-0500 (Central Daylight Time),465640.3999999999,022_y_f_n_a.png,O,z,1243,8,1,2261.2999999998137,463379.1000000001,7105,VNB,C,6
4,test,1,0.0,2-Back,0,z,Thu Mar 13 2025 08:55:57 GMT-0500 (Central Daylight Time),467789.8999999999,012_o_f_h_a.png,O,m,1121,9,1,2145.2999999998137,465644.6000000001,7105,VNB,C,7
5,test,1,0.0,2-Back,1,m,Thu Mar 13 2025 08:55:57 GMT-0500 (Central Daylight Time),469772.5,015_o_m_d_a.png,O,m,955,10,1,1978.5,467794.0,7105,VNB,C,8
6,test,1,1.0,2-Back,1,m,Thu Mar 13 2025 08:55:57 GMT-0500 (Central Daylight Time),471505.1999999997,014_m_m_d_a.png,O,m,701,11,1,1728.5999999996275,469776.6000000001,7105,VNB,C,9
7,test,1,0.0,2-Back,1,m,Thu Mar 13 2025 08:55:57 GMT-0500 (Central Daylight Time),473588.0,019_m_f_n_a.png,O,m,1056,12,1,2078.2000000001863,471509.7999999998,7105,VNB,C,10
8,test,1,0.0,2-Back,1,m,Thu Mar 13 2025 08:55:57 GMT-0500 (Central Daylight Time),475470.6000000001,022_y_f_h_a.png,O,m,862,13,1,1878.8000000002794,473591.7999999998,7105,VNB,C,11
9,test,1,0.0,2-Back,1,z,Thu Mar 13 2025 08:55:57 GMT-0500 (Central Daylight Time),477003.6999999997,014_m_m_n_a.png,O,z,514,14,1,1529.1999999997206,475474.5,7105,VNB,C,12
10,test,1,0.0,2-Back,1,m,Thu Mar 13 2025 08:55:57 GMT-0500 (Central Daylight Time),479202.8999999999,025_y_m_d_a.png,O,m,1174,15,1,2195.7999999998137,477007.1000000001,7105,VNB,C,13
11,test,1,1.0,2-Back,1,m,Thu Mar 13 2025 08:55:57 GMT-0500 (Central Daylight Time),481202.1999999997,019_m_f_h_a.png,O,m,975,16,1,1995.3999999999069,479206.7999999998,7105,VNB,C,14
11,test,1,0.0,2-Back,0,z,Thu Mar 13 2025 08:55:57 GMT-0500 (Central Daylight Time),483068.1999999997,012_o_f_d_a.png,O,m,847,17,1,1862.1999999997206,481206.0,7105,VNB,C,15
12,test,1,0.0,2-Back,1,m,Thu Mar 13 2025 08:55:57 GMT-0500 (Central Daylight Time),485168.6999999997,015_o_m_n_a.png,O,m,1069,18,1,2096.5,483072.1999999997,7105,VNB,C,16
0,test,2,0.0,2-Back,,,Thu Mar 13 2025 08:55:57 GMT-0500 (Central Daylight Time),485168.6999999997,014_m_m_h_a.png,O,space,1633,1,1,2096.5,483072.1999999997,7105,VNB,C,0
0,test,2,0.0,2-Back,,,Thu Mar 13 2025 08:55:57 GMT-0500 (Central Daylight Time),485168.6999999997,022_y_f_n_a.png,O,space,1633,2,1,2096.5,483072.1999999997,7105,VNB,C,0
1,test,2,1.0,2-Back,1,z,Thu Mar 13 2025 08:55:57 GMT-0500 (Central Daylight Time),493765.1999999997,012_o_f_h_a.png,O,z,655,3,1,1679.1999999997206,492086.0,7105,VNB,C,1
2,test,2,0.0,2-Back,1,m,Thu Mar 13 2025 08:55:57 GMT-0500 (Central Daylight Time),495997.6000000001,015_o_m_d_a.png,O,m,1204,4,1,2228.600000000093,493769.0,7105,VNB,C,2
3,test,2,0.0,2-Back,1,m,Thu Mar 13 2025 08:55:57 GMT-0500 (Central Daylight Time),498230.2999999998,019_m_f_d_a.png,O,m,1203,5,1,2228.5,496001.7999999998,7105,VNB,C,3
4,test,2,0.0,2-Back,1,m,Thu Mar 13 2025 08:55:57 GMT-0500 (Central Daylight Time),500029.8999999999,025_y_m_h_a.png,O,m,771,6,1,1795.7999999998137,498234.1000000001,7105,VNB,C,4
5,test,2,0.0,2-Back,1,m,Thu Mar 13 2025 08:55:57 GMT-0500 (Central Daylight Time),501812.3999999999,012_o_f_n_a.png,O,m,763,7,1,1778.6000000000931,500033.7999999998,7105,VNB,C,5
6,test,2,1.0,2-Back,1,z,Thu Mar 13 2025 08:55:57 GMT-0500 (Central Daylight Time),503378.6999999997,015_o_m_h_a.png,O,z,549,8,1,1562.1999999997206,501816.5,7105,VNB,C,6
7,test,2,0.0,2-Back,1,m,Thu Mar 13 2025 08:55:57 GMT-0500 (Central Daylight Time),505444.7999999998,022_y_f_d_a.png,O,m,1038,9,1,2061.6999999997206,503383.1000000001,7105,VNB,C,7
7,test,2,0.0,2-Back,0,m,Thu Mar 13 2025 08:55:57 GMT-0500 (Central Daylight Time),507394.1000000001,025_y_m_d_a.png,O,z,916,10,1,1945.1000000000931,505449.0,7105,VNB,C,8
7,test,2,0.0,2-Back,0,m,Thu Mar 13 2025 08:55:57 GMT-0500 (Central Daylight Time),509210.2999999998,014_m_m_n_a.png,O,z,783,11,1,1812.3999999999069,507397.8999999999,7105,VNB,C,9
8,test,2,0.0,2-Back,1,m,Thu Mar 13 2025 08:55:57 GMT-0500 (Central Daylight Time),511359.5,019_m_f_h_a.png,O,m,1127,12,1,2145.399999999907,509214.1000000001,7105,VNB,C,10
8,test,2,1.0,2-Back,0,z,Thu Mar 13 2025 08:55:57 GMT-0500 (Central Daylight Time),513325.2999999998,015_o_m_n_a.png,O,m,945,13,1,1962.0,511363.2999999998,7105,VNB,C,11
8,test,2,0.0,2-Back,0,m,Thu Mar 13 2025 08:55:57 GMT-0500 (Central Daylight Time),515441.5,012_o_f_d_a.png,O,z,1092,14,1,2112.3000000002794,513329.1999999997,7105,VNB,C,12
8,test,2,0.0,2-Back,0,m,Thu Mar 13 2025 08:55:57 GMT-0500 (Central Daylight Time),517341.1000000001,022_y_f_h_a.png,O,z,871,15,1,1895.6000000000931,515445.5,7105,VNB,C,13
8,test,2,0.0,2-Back,0,z,Thu Mar 13 2025 08:55:57 GMT-0500 (Central Daylight Time),519706.6999999997,014_m_m_d_a.png,O,m,1348,16,1,2361.6999999997206,517345.0,7105,VNB,C,14
9,test,2,0.0,2-Back,1,m,Thu Mar 13 2025 08:55:57 GMT-0500 (Central Daylight Time),521489.5,025_y_m_n_a.png,O,m,759,17,1,1779.1000000000931,519710.3999999999,7105,VNB,C,15
10,test,2,1.0,2-Back,1,m,Thu Mar 13 2025 08:55:57 GMT-0500 (Central Daylight Time),523306.0,019_m_f_n_a.png,O,m,791,18,1,1812.1000000000931,521493.8999999999,7105,VNB,C,16
0,test,3,1.0,2-Back,,,Thu Mar 13 2025 08:55:57 GMT-0500 (Central Daylight Time),523306.0,015_o_m_n_a.png,O,space,1807,1,1,1812.1000000000931,521493.8999999999,7105,VNB,C,0
0,test,3,1.0,2-Back,,,Thu Mar 13 2025 08:55:57 GMT-0500 (Central Daylight Time),523306.0,012_o_f_d_a.png,O,space,1807,2,1,1812.1000000000931,521493.8999999999,7105,VNB,C,0
1,test,3,0.0,2-Back,1,m,Thu Mar 13 2025 08:55:57 GMT-0500 (Central Daylight Time),532202.6000000001,022_y_f_h_a.png,O,m,1015,3,1,2027.1000000000931,530175.5,7105,VNB,C,1
2,test,3,0.0,2-Back,1,z,Thu Mar 13 2025 08:55:57 GMT-0500 (Central Daylight Time),534119.1999999997,019_m_f_d_a.png,O,z,886,4,1,1913.0,532206.1999999997,7105,VNB,C,2
3,test,3,1.0,2-Back,1,m,Thu Mar 13 2025 08:55:57 GMT-0500 (Central Daylight Time),536401.6999999997,025_y_m_n_a.png,O,m,1250,5,1,2278.6999999997206,534123.0,7105,VNB,C,3
3,test,3,0.0,2-Back,0,m,Thu Mar 13 2025 08:55:57 GMT-0500 (Central Daylight Time),538434.3999999999,015_o_m_h_a.png,O,z,1015,6,1,2028.7999999998137,536405.6000000001,7105,VNB,C,4
4,test,3,0.0,2-Back,1,z,Thu Mar 13 2025 08:55:57 GMT-0500 (Central Daylight Time),540433.6000000001,022_y_f_n_a.png,O,z,967,7,1,1995.4000000003725,538438.1999999997,7105,VNB,C,5
5,test,3,1.0,2-Back,1,m,Thu Mar 13 2025 08:55:57 GMT-0500 (Central Daylight Time),542499.7999999998,014_m_m_d_a.png,O,m,1048,8,1,2063.100000000093,540436.6999999997,7105,VNB,C,6
6,test,3,0.0,2-Back,1,m,Thu Mar 13 2025 08:55:57 GMT-0500 (Central Daylight Time),544382.3999999999,025_y_m_d_a.png,O,m,854,9,1,1878.8999999999069,542503.5,7105,VNB,C,7
6,test,3,0.0,2-Back,0,m,Thu Mar 13 2025 08:55:57 GMT-0500 (Central Daylight Time),546148.5,012_o_f_h_a.png,O,z,747,10,1,1762.8000000002794,544385.6999999997,7105,VNB,C,8
7,test,3,1.0,2-Back,1,m,Thu Mar 13 2025 08:55:57 GMT-0500 (Central Daylight Time),548098.0,019_m_f_n_a.png,O,m,925,11,1,1945.1000000000931,546152.8999999999,7105,VNB,C,9
7,test,3,1.0,2-Back,0,z,Thu Mar 13 2025 08:55:57 GMT-0500 (Central Daylight Time),549947.1999999997,014_m_m_h_a.png,O,m,831,12,1,1845.2999999998137,548101.8999999999,7105,VNB,C,10
8,test,3,0.0,2-Back,1,m,Thu Mar 13 2025 08:55:57 GMT-0500 (Central Daylight Time),551746.6999999997,022_y_f_d_a.png,O,m,782,13,1,1795.7999999998137,549950.8999999999,7105,VNB,C,11
9,test,3,0.0,2-Back,1,m,Thu Mar 13 2025 08:55:57 GMT-0500 (Central Daylight Time),553563.1000000001,012_o_f_n_a.png,O,m,790,14,1,1812.2000000001863,551750.8999999999,7105,VNB,C,12
10,test,3,0.0,2-Back,1,z,Thu Mar 13 2025 08:55:57 GMT-0500 (Central Daylight Time),556028.8999999999,015_o_m_d_a.png,O,z,1446,15,1,2461.5,553567.3999999999,7105,VNB,C,13
11,test,3,1.0,2-Back,1,m,Thu Mar 13 2025 08:55:57 GMT-0500 (Central Daylight Time),557894.8999999999,019_m_f_h_a.png,O,m,844,16,1,1861.7999999998137,556033.1000000001,7105,VNB,C,14
12,test,3,0.0,2-Back,1,m,Thu Mar 13 2025 08:55:57 GMT-0500 (Central Daylight Time),559994.1999999997,014_m_m_n_a.png,O,m,1074,17,1,2095.1999999997206,557899.0,7105,VNB,C,15
13,test,3,0.0,2-Back,1,z,Thu Mar 13 2025 08:55:57 GMT-0500 (Central Daylight Time),561560.2999999998,025_y_m_h_a.png,O,z,543,18,1,1562.1000000000931,559998.1999999997,7105,VNB,C,16
0,test,4,0.0,2-Back,,,Thu Mar 13 2025 08:55:57 GMT-0500 (Central Daylight Time),561560.2999999998,019_m_f_n_a.png,O,space,1689,1,1,1562.1000000000931,559998.1999999997,7105,VNB,C,0
0,test,4,0.0,2-Back,,,Thu Mar 13 2025 08:55:57 GMT-0500 (Central Daylight Time),561560.2999999998,015_o_m_n_a.png,O,space,1689,2,1,1562.1000000000931,559998.1999999997,7105,VNB,C,0
1,test,4,1.0,2-Back,1,m,Thu Mar 13 2025 08:55:57 GMT-0500 (Central Daylight Time),570474.2999999998,025_y_m_h_a.png,O,m,901,3,1,1928.3999999999069,568545.8999999999,7105,VNB,C,1
2,test,4,1.0,2-Back,1,m,Thu Mar 13 2025 08:55:57 GMT-0500 (Central Daylight Time),572456.7999999998,012_o_f_d_a.png,O,m,951,4,1,1978.2999999998137,570478.5,7105,VNB,C,2
3,test,4,0.0,2-Back,1,z,Thu Mar 13 2025 08:55:57 GMT-0500 (Central Daylight Time),574190.0,015_o_m_h_a.png,O,z,704,5,1,1728.8999999999069,572461.1000000001,7105,VNB,C,3
4,test,4,0.0,2-Back,1,m,Thu Mar 13 2025 08:55:57 GMT-0500 (Central Daylight Time),576222.5,014_m_m_n_a.png,O,m,1011,6,1,2029.2000000001863,574193.2999999998,7105,VNB,C,4
5,test,4,0.0,2-Back,1,m,Thu Mar 13 2025 08:55:57 GMT-0500 (Central Daylight Time),578588.2999999998,019_m_f_d_a.png,O,m,1347,7,1,2362.0,576226.2999999998,7105,VNB,C,5
6,test,4,0.0,2-Back,1,z,Thu Mar 13 2025 08:55:57 GMT-0500 (Central Daylight Time),580538.2999999998,022_y_f_n_a.png,O,z,933,8,1,1946.3999999999069,578591.8999999999,7105,VNB,C,6
7,test,4,1.0,2-Back,1,m,Thu Mar 13 2025 08:55:57 GMT-0500 (Central Daylight Time),582586.8999999999,012_o_f_h_a.png,O,m,1031,9,1,2044.8999999999069,580542.0,7105,VNB,C,7
8,test,4,0.0,2-Back,1,m,Thu Mar 13 2025 08:55:57 GMT-0500 (Central Daylight Time),584436.6000000001,014_m_m_h_a.png,O,m,822,10,1,1846.1000000000931,582590.5,7105,VNB,C,8
9,test,4,0.0,2-Back,1,m,Thu Mar 13 2025 08:55:57 GMT-0500 (Central Daylight Time),586169.2999999998,022_y_f_d_a.png,O,m,709,11,1,1729.2999999998137,584440.0,7105,VNB,C,9
10,test,4,0.0,2-Back,1,m,Thu Mar 13 2025 08:55:57 GMT-0500 (Central Daylight Time),588068.6999999997,025_y_m_n_a.png,O,m,872,12,1,1895.3999999999069,586173.2999999998,7105,VNB,C,10
11,test,4,0.0,2-Back,1,z,Thu Mar 13 2025 08:55:57 GMT-0500 (Central Daylight Time),590151.2999999998,015_o_m_d_a.png,O,z,1060,13,1,2078.7999999998137,588072.5,7105,VNB,C,11
12,test,4,1.0,2-Back,1,m,Thu Mar 13 2025 08:55:57 GMT-0500 (Central Daylight Time),592084.2999999998,019_m_f_h_a.png,O,m,913,14,1,1929.1000000000931,590155.1999999997,7105,VNB,C,12
13,test,4,1.0,2-Back,1,m,Thu Mar 13 2025 08:55:57 GMT-0500 (Central Daylight Time),593850.5,022_y_f_h_a.png,O,m,734,15,1,1762.3999999999069,592088.1000000001,7105,VNB,C,13
14,test,4,0.0,2-Back,1,m,Thu Mar 13 2025 08:55:57 GMT-0500 (Central Daylight Time),595482.7999999998,012_o_f_n_a.png,O,m,615,16,1,1628.8999999999069,593853.8999999999,7105,VNB,C,14
15,test,4,0.0,2-Back,1,m,Thu Mar 13 2025 08:55:57 GMT-0500 (Central Daylight Time),597315.8999999999,025_y_m_d_a.png,O,m,814,17,1,1829.2999999998137,595486.6000000001,7105,VNB,C,15
16,test,4,1.0,2-Back,1,m,Thu Mar 13 2025 08:55:57 GMT-0500 (Central Daylight Time),599193.3999999999,014_m_m_d_a.png,O,m,860,18,1,1873.7999999998137,597319.6000000001,7105,VNB,C,16
0,test,5,1.0,2-Back,,,Thu Mar 13 2025 08:55:57 GMT-0500 (Central Daylight Time),599193.3999999999,022_y_f_d_a.png,O,space,1256,1,1,1873.7999999998137,597319.6000000001,7105,VNB,C,0
0,test,5,1.0,2-Back,,,Thu Mar 13 2025 08:55:57 GMT-0500 (Central Daylight Time),599193.3999999999,012_o_f_h_a.png,O,space,1256,2,1,1873.7999999998137,597319.6000000001,7105,VNB,C,0
1,test,5,1.0,2-Back,1,z,Thu Mar 13 2025 08:55:57 GMT-0500 (Central Daylight Time),608012.6000000001,015_o_m_d_a.png,O,z,1246,3,1,2261.7000000001863,605750.8999999999,7105,VNB,C,1
2,test,5,1.0,2-Back,1,m,Thu Mar 13 2025 08:55:57 GMT-0500 (Central Daylight Time),609928.6000000001,019_m_f_n_a.png,O,m,893,4,1,1912.1000000000931,608016.5,7105,VNB,C,2
3,test,5,0.0,2-Back,1,m,Thu Mar 13 2025 08:55:57 GMT-0500 (Central Daylight Time),611777.8999999999,014_m_m_h_a.png,O,m,817,5,1,1845.3999999999069,609932.5,7105,VNB,C,3
4,test,5,0.0,2-Back,1,z,Thu Mar 13 2025 08:55:57 GMT-0500 (Central Daylight Time),613560.7999999998,022_y_f_n_a.png,O,z,759,6,1,1779.1999999997206,611781.6000000001,7105,VNB,C,4
5,test,5,0.0,2-Back,1,m,Thu Mar 13 2025 08:55:57 GMT-0500 (Central Daylight Time),615277.0,012_o_f_d_a.png,O,m,689,7,1,1712.0,613565.0,7105,VNB,C,5
6,test,5,0.0,2-Back,1,m,Thu Mar 13 2025 08:55:57 GMT-0500 (Central Daylight Time),617092.7999999998,015_o_m_h_a.png,O,m,796,8,1,1812.0,615280.7999999998,7105,VNB,C,6
7,test,5,1.0,2-Back,1,z,Thu Mar 13 2025 08:55:57 GMT-0500 (Central Daylight Time),618942.2999999998,019_m_f_d_a.png,O,z,820,9,1,1845.6999999997206,617096.6000000001,7105,VNB,C,7
8,test,5,0.0,2-Back,1,m,Thu Mar 13 2025 08:55:57 GMT-0500 (Central Daylight Time),620741.8999999999,025_y_m_n_a.png,O,m,779,10,1,1795.8999999999069,618946.0,7105,VNB,C,8
9,test,5,0.0,2-Back,1,m,Thu Mar 13 2025 08:55:57 GMT-0500 (Central Daylight Time),622557.8999999999,014_m_m_n_a.png,O,m,787,11,1,1812.5,620745.3999999999,7105,VNB,C,9
10,test,5,0.0,2-Back,1,m,Thu Mar 13 2025 08:55:57 GMT-0500 (Central Daylight Time),624574.7999999998,022_y_f_h_a.png,O,m,987,12,1,2013.0,622561.7999999998,7105,VNB,C,10
11,test,5,0.0,2-Back,1,m,Thu Mar 13 2025 08:55:57 GMT-0500 (Central Daylight Time),626390.1999999997,025_y_m_d_a.png,O,m,787,13,1,1812.3999999999069,624577.7999999998,7105,VNB,C,11
12,test,5,1.0,2-Back,1,z,Thu Mar 13 2025 08:55:57 GMT-0500 (Central Daylight Time),627906.2999999998,019_m_f_h_a.png,O,z,491,14,1,1512.3999999999069,626393.8999999999,7105,VNB,C,12
13,test,5,0.0,2-Back,1,m,Thu Mar 13 2025 08:55:57 GMT-0500 (Central Daylight Time),629772.2999999998,015_o_m_n_a.png,O,m,847,15,1,1862.1999999997206,627910.1000000001,7105,VNB,C,13
13,test,5,0.0,2-Back,0,m,Thu Mar 13 2025 08:55:57 GMT-0500 (Central Daylight Time),631473.0,014_m_m_d_a.png,O,z,677,16,1,1696.3999999999069,629776.6000000001,7105,VNB,C,14
13,test,5,0.0,2-Back,0,z,Thu Mar 13 2025 08:55:57 GMT-0500 (Central Daylight Time),633304.2999999998,012_o_f_n_a.png,O,m,800,17,1,1827.0,631477.2999999998,7105,VNB,C,15
14,test,5,1.0,2-Back,1,m,Thu Mar 13 2025 08:55:57 GMT-0500 (Central Daylight Time),634954.0,025_y_m_h_a.png,O,m,616,18,1,1645.6000000000931,633308.3999999999,7105,VNB,C,16
