acc_sum,block_c,block_dur,condition,correct,correct_response,countdown,datetime,endtime,project,response,response_time,response_time_test1_response,response_time_test2_response,row_sel,same,session_number,start_end,starttime,stim1,stim2,subject_id,task,task_vers,time_test1,time_test2,trial
0,1,0.0,prac,0,m,30000.0,Tue Oct 01 2024 16:53:00 GMT-0500 (Central Daylight Time),42347.39999997616,O,z,1727,,,6,no,1,3256.7000000476837,39090.699999928474,practrial6.png,practrial6b.png,7022,PC,C,,,1
1,1,0.0,prac,1,z,30000.0,Tue Oct 01 2024 16:53:00 GMT-0500 (Central Daylight Time),45396.299999952316,O,z,1498,,,3,yes,1,3029.100000023842,42367.199999928474,practrial3.png,practrial3.png,7022,PC,C,,,2
2,1,0.0,prac,1,z,30000.0,Tue Oct 01 2024 16:53:00 GMT-0500 (Central Daylight Time),48378.59999990463,O,z,1436,,,5,yes,1,2965.6999999284744,45412.89999997616,practrial5.png,practrial5.png,7022,PC,C,,,3
3,1,0.0,prac,1,z,30000.0,Tue Oct 01 2024 16:53:00 GMT-0500 (Central Daylight Time),51244.299999952316,O,z,1326,,,1,yes,1,2848.600000023842,48395.699999928474,practrial1.png,practrial1.png,7022,PC,C,,,4
4,1,0.0,prac,1,m,30000.0,Tue Oct 01 2024 16:53:00 GMT-0500 (Central Daylight Time),54092.799999952316,O,m,1300,,,2,no,1,2832.2999999523163,51260.5,practrial2.png,practrial2b.png,7022,PC,C,,,5
5,1,0.0,prac,1,m,30000.0,Tue Oct 01 2024 16:53:00 GMT-0500 (Central Daylight Time),57192.299999952316,O,m,1577,,,4,no,1,3094.399999976158,54097.89999997616,practrial4.png,practrial4b.png,7022,PC,C,,,6
1,1,1.6329998970031738,test,1,z,28367.000102996826,Tue Oct 01 2024 16:53:00 GMT-0500 (Central Daylight Time),69205.59999990463,O,z,1610,1610,,1,yes,1,1622.2999999523163,67583.29999995232,test1trial1.png,test1trial1.png,7022,PC,C,61758,,1
2,1,2.9499998092651367,test,1,m,27050.000190734863,Tue Oct 01 2024 16:53:00 GMT-0500 (Central Daylight Time),70521.89999997616,O,m,1295,1295,,2,no,1,1304.3999999761581,69217.5,test1trial2.png,test1trial2b.png,7022,PC,C,63393,,2
3,1,4.698999881744385,test,1,z,25301.000118255615,Tue Oct 01 2024 16:53:00 GMT-0500 (Central Daylight Time),72270.79999995232,O,z,1732,1732,,3,yes,1,1737.1000000238419,70533.69999992847,test1trial3.png,test1trial3.png,7022,PC,C,64708,,3
4,1,6.148000001907349,test,1,m,23851.99999809265,Tue Oct 01 2024 16:53:00 GMT-0500 (Central Daylight Time),73720.29999995232,O,m,1423,1423,,4,no,1,1438.7999999523163,72281.5,test1trial4.png,test1trial4b.png,7022,PC,C,66457,,4
5,1,7.7809998989105225,test,1,z,22219.000101089478,Tue Oct 01 2024 16:53:00 GMT-0500 (Central Daylight Time),75353.09999990463,O,z,1614,1614,,5,yes,1,1621.7999999523163,73731.29999995232,test1trial5.png,test1trial5.png,7022,PC,C,67906,,5
6,1,9.164000034332275,test,1,m,20835.999965667725,Tue Oct 01 2024 16:53:00 GMT-0500 (Central Daylight Time),76736.0,O,m,1364,1364,,6,no,1,1371.2000000476837,75364.79999995232,test1trial6.png,test1trial6b.png,7022,PC,C,69540,,6
7,1,10.662999868392944,test,1,z,19337.000131607056,Tue Oct 01 2024 16:53:00 GMT-0500 (Central Daylight Time),78235.59999990463,O,z,1479,1479,,7,yes,1,1488.8999999761581,76746.69999992847,test1trial7.png,test1trial7.png,7022,PC,C,70921,,7
7,1,12.27899980545044,test,0,m,17721.00019454956,Tue Oct 01 2024 16:53:00 GMT-0500 (Central Daylight Time),79851.0,O,z,1593,1593,,8,no,1,1604.4000000953674,78246.59999990463,test1trial8.png,test1trial8b.png,7022,PC,C,72422,,8
8,1,13.812000036239624,test,1,z,16187.999963760376,Tue Oct 01 2024 16:53:00 GMT-0500 (Central Daylight Time),81383.89999997616,O,z,1516,1516,,9,yes,1,1529.5,79854.39999997616,test1trial9.png,test1trial9.png,7022,PC,C,74027,,9
9,1,15.178999900817871,test,1,m,14821.000099182129,Tue Oct 01 2024 16:53:00 GMT-0500 (Central Daylight Time),82750.69999992847,O,m,1352,1352,,10,no,1,1363.1999999284744,81387.5,test1trial10.png,test1trial10b.png,7022,PC,C,75560,,10
10,1,16.8439998626709,test,1,z,13156.000137329102,Tue Oct 01 2024 16:53:00 GMT-0500 (Central Daylight Time),84416.19999992847,O,z,1647,1647,,11,yes,1,1654.1000000238419,82762.09999990463,test1trial11.png,test1trial11.png,7022,PC,C,76936,,11
11,1,18.509999990463257,test,1,m,11490.000009536743,Tue Oct 01 2024 16:53:00 GMT-0500 (Central Daylight Time),86082.29999995232,O,m,1645,1645,,12,no,1,1661.1000000238419,84421.19999992847,test1trial12.png,test1trial12b.png,7022,PC,C,78594,,12
12,1,19.926999807357788,test,1,m,10073.000192642212,Tue Oct 01 2024 16:53:00 GMT-0500 (Central Daylight Time),87499.09999990463,O,m,1406,1406,,13,no,1,1413.6999999284744,86085.39999997616,test1trial13.png,test1trial13b.png,7022,PC,C,80258,,13
13,1,21.526999950408936,test,1,m,8473.000049591064,Tue Oct 01 2024 16:53:00 GMT-0500 (Central Daylight Time),89098.69999992847,O,m,1570,1570,,14,no,1,1588.5,87510.19999992847,test1trial14.png,test1trial14b.png,7022,PC,C,81686,,14
14,1,23.22599983215332,test,1,z,6774.00016784668,Tue Oct 01 2024 16:53:00 GMT-0500 (Central Daylight Time),90798.09999990463,O,z,1676,1676,,15,yes,1,1688.7999999523163,89109.29999995232,test1trial15.png,test1trial15.png,7022,PC,C,83284,,15
15,1,24.941999912261963,test,1,m,5058.000087738037,Tue Oct 01 2024 16:53:00 GMT-0500 (Central Daylight Time),92513.5,O,m,1695,1695,,16,no,1,1704.5,90809.0,test1trial16.png,test1trial16b.png,7022,PC,C,84984,,16
16,1,26.574999809265137,test,1,z,3425.0001907348633,Tue Oct 01 2024 16:53:00 GMT-0500 (Central Daylight Time),94147.0,O,z,1622,1622,,17,yes,1,1630.1000000238419,92516.89999997616,test1trial17.png,test1trial17.png,7022,PC,C,86690,,17
17,1,28.323999881744385,test,1,m,1676.0001182556152,Tue Oct 01 2024 16:53:00 GMT-0500 (Central Daylight Time),95896.39999997616,O,m,1723,1723,,18,no,1,1739.0,94157.39999997616,test1trial18.png,test1trial18b.png,7022,PC,C,88333,,18
17,1,30.0239999294281,test,0,m,-23.999929428100586,Tue Oct 01 2024 16:53:00 GMT-0500 (Central Daylight Time),97595.79999995232,O,None,1684,1684,,19,no,1,1688.8999999761581,95906.89999997616,test1trial19.png,test1trial19b.png,7022,PC,C,90083,,19
1,2,1.249000072479248,test,1,m,28750.999927520752,Tue Oct 01 2024 16:53:00 GMT-0500 (Central Daylight Time),102944.39999997616,O,m,1232,,1232.0,1,no,1,7037.5,95906.89999997616,test2trial1.png,test2trial1b.png,7022,PC,C,,95880.0,1
2,2,2.681999921798706,test,1,m,27318.000078201294,Tue Oct 01 2024 16:53:00 GMT-0500 (Central Daylight Time),104377.29999995232,O,m,1405,,1405.0,2,no,1,8470.399999976158,95906.89999997616,test2trial2.png,test2trial2b.png,7022,PC,C,,97131.0,2
3,2,3.88100004196167,test,1,z,26118.99995803833,Tue Oct 01 2024 16:53:00 GMT-0500 (Central Daylight Time),105576.59999990463,O,z,1182,,1182.0,3,yes,1,9669.699999928474,95906.89999997616,test2trial3.png,test2trial3.png,7022,PC,C,,98562.0,3
4,2,5.263999938964844,test,1,z,24736.000061035156,Tue Oct 01 2024 16:53:00 GMT-0500 (Central Daylight Time),106959.39999997616,O,z,1358,,1358.0,4,yes,1,11052.5,95906.89999997616,test2trial4.png,test2trial4.png,7022,PC,C,,99762.0,4
5,2,6.730999946594238,test,1,z,23269.00005340576,Tue Oct 01 2024 16:53:00 GMT-0500 (Central Daylight Time),108425.69999992847,O,z,1439,,1439.0,5,yes,1,12518.799999952316,95906.89999997616,test2trial5.png,test2trial5.png,7022,PC,C,,101144.0,5
6,2,8.263000011444092,test,1,z,21736.99998855591,Tue Oct 01 2024 16:53:00 GMT-0500 (Central Daylight Time),109958.39999997616,O,z,1509,,1509.0,6,yes,1,14051.5,95906.89999997616,test2trial6.png,test2trial6.png,7022,PC,C,,102611.0,6
7,2,9.630000114440918,test,1,m,20369.999885559082,Tue Oct 01 2024 16:53:00 GMT-0500 (Central Daylight Time),111325.0,O,m,1352,,1352.0,7,no,1,15418.100000023842,95906.89999997616,test2trial7.png,test2trial7b.png,7022,PC,C,,104144.0,7
8,2,11.128999948501587,test,1,m,18871.000051498413,Tue Oct 01 2024 16:53:00 GMT-0500 (Central Daylight Time),112824.09999990463,O,m,1474,,1474.0,8,no,1,16917.199999928474,95906.89999997616,test2trial8.png,test2trial8b.png,7022,PC,C,,105510.0,8
9,2,12.694999933242798,test,1,z,17305.000066757202,Tue Oct 01 2024 16:53:00 GMT-0500 (Central Daylight Time),114390.39999997616,O,z,1551,,1551.0,9,yes,1,18483.5,95906.89999997616,test2trial9.png,test2trial9.png,7022,PC,C,,107009.0,9
10,2,14.144000053405762,test,1,z,15855.999946594238,Tue Oct 01 2024 16:53:00 GMT-0500 (Central Daylight Time),115839.29999995232,O,z,1432,,1432.0,10,yes,1,19932.399999976158,95906.89999997616,test2trial10.png,test2trial10.png,7022,PC,C,,108575.0,10
11,2,15.710999965667725,test,1,m,14289.000034332275,Tue Oct 01 2024 16:53:00 GMT-0500 (Central Daylight Time),117406.09999990463,O,m,1552,,1552.0,11,no,1,21499.199999928474,95906.89999997616,test2trial11.png,test2trial11b.png,7022,PC,C,,110016.0,11
12,2,17.17799997329712,test,1,m,12822.00002670288,Tue Oct 01 2024 16:53:00 GMT-0500 (Central Daylight Time),118872.19999992847,O,m,1448,,1448.0,12,no,1,22965.299999952316,95906.89999997616,test2trial12.png,test2trial12b.png,7022,PC,C,,111592.0,12
13,2,18.710000038146973,test,1,z,11289.999961853027,Tue Oct 01 2024 16:53:00 GMT-0500 (Central Daylight Time),120404.79999995232,O,z,1518,,1518.0,13,yes,1,24497.899999976158,95906.89999997616,test2trial13.png,test2trial13.png,7022,PC,C,,113058.0,13
14,2,20.259999990463257,test,1,m,9740.000009536743,Tue Oct 01 2024 16:53:00 GMT-0500 (Central Daylight Time),121954.59999990463,O,m,1530,,1530.0,14,no,1,26047.699999928474,95906.89999997616,test2trial14.png,test2trial14b.png,7022,PC,C,,114590.0,14
15,2,21.792999982833862,test,1,m,8207.000017166138,Tue Oct 01 2024 16:53:00 GMT-0500 (Central Daylight Time),123487.29999995232,O,m,1516,,1516.0,15,no,1,27580.399999976158,95906.89999997616,test2trial15.png,test2trial15b.png,7022,PC,C,,116140.0,15
16,2,23.39199995994568,test,1,m,6608.000040054321,Tue Oct 01 2024 16:53:00 GMT-0500 (Central Daylight Time),125086.09999990463,O,m,1581,,1581.0,16,no,1,29179.199999928474,95906.89999997616,test2trial16.png,test2trial16b.png,7022,PC,C,,117673.0,16
17,2,24.941999912261963,test,1,z,5058.000087738037,Tue Oct 01 2024 16:53:00 GMT-0500 (Central Daylight Time),126636.19999992847,O,z,1530,,1530.0,17,yes,1,30729.299999952316,95906.89999997616,test2trial17.png,test2trial17.png,7022,PC,C,,119262.0,17
18,2,26.45799994468689,test,1,z,3542.0000553131104,Tue Oct 01 2024 16:53:00 GMT-0500 (Central Daylight Time),128152.5,O,z,1492,,1492.0,18,yes,1,32245.600000023842,95906.89999997616,test2trial18.png,test2trial18.png,7022,PC,C,,120820.0,18
19,2,28.04100012779236,test,1,z,1958.9998722076416,Tue Oct 01 2024 16:53:00 GMT-0500 (Central Daylight Time),129735.29999995232,O,z,1567,,1567.0,19,yes,1,33828.39999997616,95906.89999997616,test2trial19.png,test2trial19.png,7022,PC,C,,122337.0,19
20,2,29.539999961853027,test,1,z,460.00003814697266,Tue Oct 01 2024 16:53:00 GMT-0500 (Central Daylight Time),131234.79999995232,O,z,1480,,1480.0,20,yes,1,35327.89999997616,95906.89999997616,test2trial20.png,test2trial20.png,7022,PC,C,,123920.0,20
20,2,30.02300000190735,test,0,z,-23.000001907348633,Tue Oct 01 2024 16:53:00 GMT-0500 (Central Daylight Time),131717.89999997616,O,None,471,,471.0,21,yes,1,35811.0,95906.89999997616,test2trial21.png,test2trial21.png,7022,PC,C,,125419.0,21
