block_c,block_dur,condition,countdown,datetime,endtime,list,multichar_response,project,response,response_time,session_number,start_end,starttime,subject_id,task,task_vers,trial
,,,,Thu Nov 14 2024 17:10:33 GMT-0600 (Central Standard Time),,,,O,space,1481,1,,,7034,WL,C,
prac,,0,,Thu Nov 14 2024 17:10:33 GMT-0600 (Central Standard Time),,NA,b,O,b,11018,1,,,7034,WL,C,1.0
prac,,0,,Thu Nov 14 2024 17:10:33 GMT-0600 (Central Standard Time),,NA,bo,O,o,798,1,,,7034,WL,C,1.0
prac,,0,,Thu Nov 14 2024 17:10:33 GMT-0600 (Central Standard Time),,NA,boo,O,o,127,1,,,7034,WL,C,1.0
prac,,0,,Thu Nov 14 2024 17:10:33 GMT-0600 (Central Standard Time),,NA,boos,O,s,106,1,,,7034,WL,C,1.0
prac,,0,,Thu Nov 14 2024 17:10:33 GMT-0600 (Central Standard Time),,NA,boost,O,t,79,1,,,7034,WL,C,1.0
prac,,0,,Thu Nov 14 2024 17:10:33 GMT-0600 (Central Standard Time),,NA,boostenter,O,enter,1842,1,,,7034,WL,C,1.0
1,3.249000072479248,learn,56750.99992752075,Thu Nov 14 2024 17:10:33 GMT-0600 (Central Standard Time),168243.80000000075,A,c,O,c,3234,1,3248.7000000001863,164995.10000000056,7034,WL,C,1.0
1,3.3989999294281006,learn,56601.0000705719,Thu Nov 14 2024 17:10:33 GMT-0600 (Central Standard Time),168393.80000000075,A,ca,O,a,136,1,3398.7000000001863,164995.10000000056,7034,WL,C,1.0
1,3.5989999771118164,learn,56401.00002288818,Thu Nov 14 2024 17:10:33 GMT-0600 (Central Standard Time),168593.80000000075,A,cam,O,m,187,1,3598.7000000001863,164995.10000000056,7034,WL,C,1.0
1,3.815999984741211,learn,56184.00001525879,Thu Nov 14 2024 17:10:33 GMT-0600 (Central Standard Time),168810.30000000075,A,camp,O,p,195,1,3815.2000000001863,164995.10000000056,7034,WL,C,1.0
1,4.315999984741211,learn,55684.00001525879,Thu Nov 14 2024 17:10:33 GMT-0600 (Central Standard Time),169310.2000000002,A,campenter,O,enter,490,1,4315.0999999996275,164995.10000000056,7034,WL,C,1.0
1,4.982000112533569,learn,55017.99988746643,Thu Nov 14 2024 17:10:33 GMT-0600 (Central Standard Time),169976.30000000075,A,d,O,d,655,1,665.7000000001863,169310.60000000056,7034,WL,C,2.0
1,5.098999977111816,learn,54901.00002288818,Thu Nov 14 2024 17:10:33 GMT-0600 (Central Standard Time),170093.2000000002,A,do,O,o,108,1,782.5999999996275,169310.60000000056,7034,WL,C,2.0
1,5.5320000648498535,learn,54467.99993515015,Thu Nov 14 2024 17:10:33 GMT-0600 (Central Standard Time),170526.5,A,doc,O,c,424,1,1215.8999999994412,169310.60000000056,7034,WL,C,2.0
1,5.7820000648498535,learn,54217.99993515015,Thu Nov 14 2024 17:10:33 GMT-0600 (Central Standard Time),170776.5,A,doct,O,t,230,1,1465.8999999994412,169310.60000000056,7034,WL,C,2.0
1,5.881999969482422,learn,54118.00003051758,Thu Nov 14 2024 17:10:33 GMT-0600 (Central Standard Time),170876.30000000075,A,docto,O,o,85,1,1565.7000000001863,169310.60000000056,7034,WL,C,2.0
1,6.0320000648498535,learn,53967.99993515015,Thu Nov 14 2024 17:10:33 GMT-0600 (Central Standard Time),171026.2000000002,A,doctor,O,r,136,1,1715.5999999996275,169310.60000000056,7034,WL,C,2.0
1,6.232000112533569,learn,53767.99988746643,Thu Nov 14 2024 17:10:33 GMT-0600 (Central Standard Time),171226.30000000075,A,doctorenter,O,enter,178,1,1915.7000000001863,169310.60000000056,7034,WL,C,2.0
1,6.930999994277954,learn,53069.000005722046,Thu Nov 14 2024 17:10:33 GMT-0600 (Central Standard Time),171925.80000000075,A,q,O,q,692,1,699.0,171226.80000000075,7034,WL,C,3.0
1,7.13100004196167,learn,52868.99995803833,Thu Nov 14 2024 17:10:33 GMT-0600 (Central Standard Time),172125.7000000002,A,qu,O,u,183,1,898.8999999994412,171226.80000000075,7034,WL,C,3.0
1,7.281000137329102,learn,52718.9998626709,Thu Nov 14 2024 17:10:33 GMT-0600 (Central Standard Time),172275.80000000075,A,que,O,e,135,1,1049.0,171226.80000000075,7034,WL,C,3.0
1,7.447999954223633,learn,52552.00004577637,Thu Nov 14 2024 17:10:33 GMT-0600 (Central Standard Time),172442.10000000056,A,quee,O,e,145,1,1215.2999999998137,171226.80000000075,7034,WL,C,3.0
1,7.480999946594238,learn,52519.00005340576,Thu Nov 14 2024 17:10:33 GMT-0600 (Central Standard Time),172475.60000000056,A,queen,O,n,19,1,1248.7999999998137,171226.80000000075,7034,WL,C,3.0
1,7.814000129699707,learn,52185.99987030029,Thu Nov 14 2024 17:10:33 GMT-0600 (Central Standard Time),172809.10000000056,A,queenenter,O,enter,322,1,1582.2999999998137,171226.80000000075,7034,WL,C,3.0
1,8.730000019073486,learn,51269.999980926514,Thu Nov 14 2024 17:10:33 GMT-0600 (Central Standard Time),173725.30000000075,A,c,O,c,900,1,915.9000000003725,172809.40000000037,7034,WL,C,4.0
1,8.79699993133545,learn,51203.00006866455,Thu Nov 14 2024 17:10:33 GMT-0600 (Central Standard Time),173791.90000000037,A,co,O,o,56,1,982.5,172809.40000000037,7034,WL,C,4.0
1,8.930000066757202,learn,51069.9999332428,Thu Nov 14 2024 17:10:33 GMT-0600 (Central Standard Time),173925.30000000075,A,cor,O,r,125,1,1115.9000000003725,172809.40000000037,7034,WL,C,4.0
1,9.013000011444092,learn,50986.99998855591,Thu Nov 14 2024 17:10:33 GMT-0600 (Central Standard Time),174008.40000000037,A,corn,O,n,64,1,1199.0,172809.40000000037,7034,WL,C,4.0
1,9.263000011444092,learn,50736.99998855591,Thu Nov 14 2024 17:10:33 GMT-0600 (Central Standard Time),174258.60000000056,A,cornenter,O,enter,245,1,1449.2000000001863,172809.40000000037,7034,WL,C,4.0
1,13.812000036239624,learn,46187.999963760376,Thu Nov 14 2024 17:10:33 GMT-0600 (Central Standard Time),178807.10000000056,A,n,O,n,4539,1,4548.299999999814,174258.80000000075,7034,WL,C,5.0
1,13.911999940872192,learn,46088.00005912781,Thu Nov 14 2024 17:10:33 GMT-0600 (Central Standard Time),178907.0,A,na,O,a,87,1,4648.199999999255,174258.80000000075,7034,WL,C,5.0
1,14.029000043869019,learn,45970.99995613098,Thu Nov 14 2024 17:10:33 GMT-0600 (Central Standard Time),179023.90000000037,A,nai,O,i,98,1,4765.0999999996275,174258.80000000075,7034,WL,C,5.0
1,14.17799997329712,learn,45822.00002670288,Thu Nov 14 2024 17:10:33 GMT-0600 (Central Standard Time),179173.5,A,nail,O,l,133,1,4914.699999999255,174258.80000000075,7034,WL,C,5.0
1,14.411999940872192,learn,45588.00005912781,Thu Nov 14 2024 17:10:33 GMT-0600 (Central Standard Time),179406.90000000037,A,nailenter,O,enter,224,1,5148.0999999996275,174258.80000000075,7034,WL,C,5.0
1,19.009999990463257,learn,40990.00000953674,Thu Nov 14 2024 17:10:33 GMT-0600 (Central Standard Time),184005.30000000075,A,t,O,t,4590,1,4598.0,179407.30000000075,7034,WL,C,6.0
1,19.127000093460083,learn,40872.99990653992,Thu Nov 14 2024 17:10:33 GMT-0600 (Central Standard Time),184122.2000000002,A,to,O,o,96,1,4714.899999999441,179407.30000000075,7034,WL,C,6.0
1,19.177000045776367,learn,40822.99995422363,Thu Nov 14 2024 17:10:33 GMT-0600 (Central Standard Time),184171.80000000075,A,tow,O,w,43,1,4764.5,179407.30000000075,7034,WL,C,6.0
1,19.377000093460083,learn,40622.99990653992,Thu Nov 14 2024 17:10:33 GMT-0600 (Central Standard Time),184372.2000000002,A,towr,O,r,184,1,4964.899999999441,179407.30000000075,7034,WL,C,6.0
1,19.960000038146973,learn,40039.99996185303,Thu Nov 14 2024 17:10:33 GMT-0600 (Central Standard Time),184955.30000000075,A,tow,O,backspace,570,1,5548.0,179407.30000000075,7034,WL,C,6.0
1,20.0770001411438,learn,39922.9998588562,Thu Nov 14 2024 17:10:33 GMT-0600 (Central Standard Time),185071.90000000037,A,towe,O,e,98,1,5664.5999999996275,179407.30000000075,7034,WL,C,6.0
1,20.110000133514404,learn,39889.999866485596,Thu Nov 14 2024 17:10:33 GMT-0600 (Central Standard Time),185105.0,A,tower,O,r,12,1,5697.699999999255,179407.30000000075,7034,WL,C,6.0
1,20.30999994277954,learn,39690.00005722046,Thu Nov 14 2024 17:10:33 GMT-0600 (Central Standard Time),185304.90000000037,A,towerenter,O,enter,189,1,5897.5999999996275,179407.30000000075,7034,WL,C,6.0
1,29.907000064849854,learn,30092.999935150146,Thu Nov 14 2024 17:10:33 GMT-0600 (Central Standard Time),194901.90000000037,A,b,O,b,9580,1,9596.599999999627,185305.30000000075,7034,WL,C,7.0
1,30.123000144958496,learn,29876.999855041504,Thu Nov 14 2024 17:10:33 GMT-0600 (Central Standard Time),195118.5,A,bo,O,o,207,1,9813.199999999255,185305.30000000075,7034,WL,C,7.0
1,30.27300000190735,learn,29726.99999809265,Thu Nov 14 2024 17:10:33 GMT-0600 (Central Standard Time),195268.5,A,boy,O,y,143,1,9963.199999999255,185305.30000000075,7034,WL,C,7.0
1,30.506999969482422,learn,29493.000030517578,Thu Nov 14 2024 17:10:33 GMT-0600 (Central Standard Time),195501.90000000037,A,boyenter,O,enter,225,1,10196.599999999627,185305.30000000075,7034,WL,C,7.0
1,36.289000034332275,learn,23710.999965667725,Thu Nov 14 2024 17:10:33 GMT-0600 (Central Standard Time),201284.30000000075,A,g,O,g,5775,1,5782.0,195502.30000000075,7034,WL,C,8.0
1,36.47200012207031,learn,23527.999877929688,Thu Nov 14 2024 17:10:33 GMT-0600 (Central Standard Time),201467.0,A,gl,O,l,161,1,5964.699999999255,195502.30000000075,7034,WL,C,8.0
1,36.771000146865845,learn,23228.999853134155,Thu Nov 14 2024 17:10:33 GMT-0600 (Central Standard Time),201766.5,A,g,O,backspace,291,1,6264.199999999255,195502.30000000075,7034,WL,C,8.0
1,36.937999963760376,learn,23062.000036239624,Thu Nov 14 2024 17:10:33 GMT-0600 (Central Standard Time),201933.30000000075,A,,O,backspace,151,1,6431.0,195502.30000000075,7034,WL,C,8.0
1,37.28800010681152,learn,22711.999893188477,Thu Nov 14 2024 17:10:33 GMT-0600 (Central Standard Time),202283.10000000056,A,f,O,f,329,1,6780.799999999814,195502.30000000075,7034,WL,C,8.0
1,37.40400004386902,learn,22595.99995613098,Thu Nov 14 2024 17:10:33 GMT-0600 (Central Standard Time),202399.60000000056,A,fl,O,l,98,1,6897.299999999814,195502.30000000075,7034,WL,C,8.0
1,37.437999963760376,learn,22562.000036239624,Thu Nov 14 2024 17:10:33 GMT-0600 (Central Standard Time),202433.0,A,fla,O,a,23,1,6930.699999999255,195502.30000000075,7034,WL,C,8.0
1,37.53699994087219,learn,22463.000059127808,Thu Nov 14 2024 17:10:33 GMT-0600 (Central Standard Time),202532.60000000056,A,flag,O,g,93,1,7030.299999999814,195502.30000000075,7034,WL,C,8.0
1,37.75399994850159,learn,22246.000051498413,Thu Nov 14 2024 17:10:33 GMT-0600 (Central Standard Time),202749.40000000037,A,flagenter,O,enter,201,1,7247.0999999996275,195502.30000000075,7034,WL,C,8.0
1,60.013999938964844,learn,-13.99993896484375,Thu Nov 14 2024 17:10:33 GMT-0600 (Central Standard Time),225009.40000000037,A,None,O,None,22255,1,22259.599999999627,202749.80000000075,7034,WL,C,9.0
2,1.0329999923706055,learn,58967.000007629395,Thu Nov 14 2024 17:10:33 GMT-0600 (Central Standard Time),299519.4000000004,A,b,O,b,1016,1,1032.9000000003725,298486.5,7034,WL,C,1.0
2,1.8489999771118164,learn,58151.00002288818,Thu Nov 14 2024 17:10:33 GMT-0600 (Central Standard Time),300335.80000000075,A,bo,O,o,797,1,1849.300000000745,298486.5,7034,WL,C,1.0
2,2.0160000324249268,learn,57983.99996757507,Thu Nov 14 2024 17:10:33 GMT-0600 (Central Standard Time),300502.4000000004,A,bod,O,d,150,1,2015.9000000003725,298486.5,7034,WL,C,1.0
2,2.115999937057495,learn,57884.000062942505,Thu Nov 14 2024 17:10:33 GMT-0600 (Central Standard Time),300602.2000000002,A,body,O,y,87,1,2115.7000000001863,298486.5,7034,WL,C,1.0
2,2.4630000591278076,learn,57536.99994087219,Thu Nov 14 2024 17:10:33 GMT-0600 (Central Standard Time),300949.0,A,bodyenter,O,enter,204,1,2462.5,298486.5,7034,WL,C,1.0
2,2.815999984741211,learn,57184.00001525879,Thu Nov 14 2024 17:10:33 GMT-0600 (Central Standard Time),301301.9000000004,A,c,O,c,344,1,352.59999999962747,300949.30000000075,7034,WL,C,2.0
2,2.931999921798706,learn,57068.000078201294,Thu Nov 14 2024 17:10:33 GMT-0600 (Central Standard Time),301418.60000000056,A,ca,O,a,112,1,469.29999999981374,300949.30000000075,7034,WL,C,2.0
2,3.0989999771118164,learn,56901.00002288818,Thu Nov 14 2024 17:10:33 GMT-0600 (Central Standard Time),301585.30000000075,A,cat,O,t,155,1,636.0,300949.30000000075,7034,WL,C,2.0
2,3.249000072479248,learn,56750.99992752075,Thu Nov 14 2024 17:10:33 GMT-0600 (Central Standard Time),301735.2000000002,A,catt,O,t,132,1,785.8999999994412,300949.30000000075,7034,WL,C,2.0
2,3.3989999294281006,learn,56601.0000705719,Thu Nov 14 2024 17:10:33 GMT-0600 (Central Standard Time),301885.10000000056,A,cattl,O,l,134,1,935.7999999998137,300949.30000000075,7034,WL,C,2.0
2,3.5149998664855957,learn,56485.000133514404,Thu Nov 14 2024 17:10:33 GMT-0600 (Central Standard Time),302001.7000000002,A,cattle,O,e,96,1,1052.3999999994412,300949.30000000075,7034,WL,C,2.0
2,3.8489999771118164,learn,56151.00002288818,Thu Nov 14 2024 17:10:33 GMT-0600 (Central Standard Time),302335.10000000056,A,cattleenter,O,enter,324,1,1385.7999999998137,300949.30000000075,7034,WL,C,2.0
2,4.014999866485596,learn,55985.000133514404,Thu Nov 14 2024 17:10:33 GMT-0600 (Central Standard Time),302501.7000000002,A,s,O,s,150,1,166.29999999981374,302335.4000000004,7034,WL,C,3.0
2,4.131999969482422,learn,55868.00003051758,Thu Nov 14 2024 17:10:33 GMT-0600 (Central Standard Time),302618.30000000075,A,sh,O,h,105,1,282.90000000037253,302335.4000000004,7034,WL,C,3.0
2,4.197999954223633,learn,55802.00004577637,Thu Nov 14 2024 17:10:33 GMT-0600 (Central Standard Time),302684.60000000056,A,sho,O,o,58,1,349.20000000018626,302335.4000000004,7034,WL,C,3.0
2,4.997999906539917,learn,55002.00009346008,Thu Nov 14 2024 17:10:33 GMT-0600 (Central Standard Time),303484.4000000004,A,shor,O,r,784,1,1149.0,302335.4000000004,7034,WL,C,3.0
2,5.080999851226807,learn,54919.00014877319,Thu Nov 14 2024 17:10:33 GMT-0600 (Central Standard Time),303567.7000000002,A,shore,O,e,65,1,1232.2999999998137,302335.4000000004,7034,WL,C,3.0
2,5.398000001907349,learn,54601.99999809265,Thu Nov 14 2024 17:10:33 GMT-0600 (Central Standard Time),303884.7000000002,A,shoreenter,O,enter,302,1,1549.2999999998137,302335.4000000004,7034,WL,C,3.0
2,5.63100004196167,learn,54368.99995803833,Thu Nov 14 2024 17:10:33 GMT-0600 (Central Standard Time),304117.60000000056,A,n,O,n,225,1,232.6000000005588,303885.0,7034,WL,C,4.0
2,5.7809998989105225,learn,54219.00010108948,Thu Nov 14 2024 17:10:33 GMT-0600 (Central Standard Time),304267.80000000075,A,na,O,a,135,1,382.80000000074506,303885.0,7034,WL,C,4.0
2,5.865000009536743,learn,54134.99999046326,Thu Nov 14 2024 17:10:33 GMT-0600 (Central Standard Time),304351.30000000075,A,nai,O,i,66,1,466.30000000074506,303885.0,7034,WL,C,4.0
2,5.997999906539917,learn,54002.00009346008,Thu Nov 14 2024 17:10:33 GMT-0600 (Central Standard Time),304484.0,A,nail,O,l,118,1,599.0,303885.0,7034,WL,C,4.0
2,6.230999946594238,learn,53769.00005340576,Thu Nov 14 2024 17:10:33 GMT-0600 (Central Standard Time),304717.60000000056,A,nailenter,O,enter,217,1,832.6000000005588,303885.0,7034,WL,C,4.0
2,6.565000057220459,learn,53434.99994277954,Thu Nov 14 2024 17:10:33 GMT-0600 (Central Standard Time),305050.80000000075,A,b,O,b,320,1,332.80000000074506,304718.0,7034,WL,C,5.0
2,6.947999954223633,learn,53052.00004577637,Thu Nov 14 2024 17:10:33 GMT-0600 (Central Standard Time),305434.10000000056,A,bo,O,o,371,1,716.1000000005588,304718.0,7034,WL,C,5.0
2,7.563999891281128,learn,52436.00010871887,Thu Nov 14 2024 17:10:33 GMT-0600 (Central Standard Time),306050.60000000056,A,boy,O,y,596,1,1332.6000000005588,304718.0,7034,WL,C,5.0
2,7.7809998989105225,learn,52219.00010108948,Thu Nov 14 2024 17:10:33 GMT-0600 (Central Standard Time),306267.0,A,boyenter,O,enter,212,1,1549.0,304718.0,7034,WL,C,5.0
2,8.647000074386597,learn,51352.9999256134,Thu Nov 14 2024 17:10:33 GMT-0600 (Central Standard Time),307133.60000000056,A,d,O,d,852,1,866.4000000003725,306267.2000000002,7034,WL,C,6.0
2,8.746999979019165,learn,51253.000020980835,Thu Nov 14 2024 17:10:33 GMT-0600 (Central Standard Time),307233.4000000004,A,do,O,o,80,1,966.2000000001863,306267.2000000002,7034,WL,C,6.0
2,9.04699993133545,learn,50953.00006866455,Thu Nov 14 2024 17:10:33 GMT-0600 (Central Standard Time),307533.5,A,dot,O,t,292,1,1266.2999999998137,306267.2000000002,7034,WL,C,6.0
2,9.46399998664856,learn,50536.00001335144,Thu Nov 14 2024 17:10:33 GMT-0600 (Central Standard Time),307949.9000000004,A,do,O,backspace,400,1,1682.7000000001863,306267.2000000002,7034,WL,C,6.0
2,9.579999923706055,learn,50420.000076293945,Thu Nov 14 2024 17:10:33 GMT-0600 (Central Standard Time),308066.5,A,doc,O,c,104,1,1799.2999999998137,306267.2000000002,7034,WL,C,6.0
2,9.746999979019165,learn,50253.000020980835,Thu Nov 14 2024 17:10:33 GMT-0600 (Central Standard Time),308233.2000000002,A,doco,O,o,147,1,1966.0,306267.2000000002,7034,WL,C,6.0
2,9.79699993133545,learn,50203.00006866455,Thu Nov 14 2024 17:10:33 GMT-0600 (Central Standard Time),308283.10000000056,A,docot,O,t,44,1,2015.9000000003725,306267.2000000002,7034,WL,C,6.0
2,10.412999868392944,learn,49587.000131607056,Thu Nov 14 2024 17:10:33 GMT-0600 (Central Standard Time),308899.7000000002,A,doco,O,backspace,604,1,2632.5,306267.2000000002,7034,WL,C,6.0
2,10.579999923706055,learn,49420.000076293945,Thu Nov 14 2024 17:10:33 GMT-0600 (Central Standard Time),309066.4000000004,A,doc,O,backspace,146,1,2799.2000000001863,306267.2000000002,7034,WL,C,6.0
2,11.046000003814697,learn,48953.9999961853,Thu Nov 14 2024 17:10:33 GMT-0600 (Central Standard Time),309532.80000000075,A,doct,O,t,452,1,3265.600000000559,306267.2000000002,7034,WL,C,6.0
2,11.162999868392944,learn,48837.000131607056,Thu Nov 14 2024 17:10:33 GMT-0600 (Central Standard Time),309649.4000000004,A,docto,O,o,104,1,3382.2000000001863,306267.2000000002,7034,WL,C,6.0
2,11.329999923706055,learn,48670.000076293945,Thu Nov 14 2024 17:10:33 GMT-0600 (Central Standard Time),309815.9000000004,A,doctor,O,r,148,1,3548.7000000001863,306267.2000000002,7034,WL,C,6.0
2,11.746000051498413,learn,48253.99994850159,Thu Nov 14 2024 17:10:33 GMT-0600 (Central Standard Time),310232.30000000075,A,doctorenter,O,enter,397,1,3965.100000000559,306267.2000000002,7034,WL,C,6.0
2,12.062999963760376,learn,47937.000036239624,Thu Nov 14 2024 17:10:33 GMT-0600 (Central Standard Time),310549.0,A,l,O,l,309,1,316.29999999981374,310232.7000000002,7034,WL,C,7.0
2,12.162999868392944,learn,47837.000131607056,Thu Nov 14 2024 17:10:33 GMT-0600 (Central Standard Time),310649.10000000056,A,le,O,e,88,1,416.40000000037253,310232.7000000002,7034,WL,C,7.0
2,12.279000043869019,learn,47720.99995613098,Thu Nov 14 2024 17:10:33 GMT-0600 (Central Standard Time),310765.5,A,let,O,t,108,1,532.7999999998137,310232.7000000002,7034,WL,C,7.0
2,12.428999900817871,learn,47571.00009918213,Thu Nov 14 2024 17:10:33 GMT-0600 (Central Standard Time),310915.7000000002,A,lett,O,t,136,1,683.0,310232.7000000002,7034,WL,C,7.0
2,12.578999996185303,learn,47421.0000038147,Thu Nov 14 2024 17:10:33 GMT-0600 (Central Standard Time),311065.60000000056,A,lette,O,e,138,1,832.9000000003725,310232.7000000002,7034,WL,C,7.0
2,12.629999876022339,learn,47370.00012397766,Thu Nov 14 2024 17:10:33 GMT-0600 (Central Standard Time),311116.5,A,letter,O,r,44,1,883.7999999998137,310232.7000000002,7034,WL,C,7.0
2,13.046000003814697,learn,46953.9999961853,Thu Nov 14 2024 17:10:33 GMT-0600 (Central Standard Time),311532.0,A,letterenter,O,enter,409,1,1299.2999999998137,310232.7000000002,7034,WL,C,7.0
2,14.211999893188477,learn,45788.00010681152,Thu Nov 14 2024 17:10:33 GMT-0600 (Central Standard Time),312698.60000000056,A,s,O,s,1155,1,1166.4000000003725,311532.2000000002,7034,WL,C,8.0
2,14.444999933242798,learn,45555.0000667572,Thu Nov 14 2024 17:10:33 GMT-0600 (Central Standard Time),312931.60000000056,A,sg,O,g,227,1,1399.4000000003725,311532.2000000002,7034,WL,C,8.0
2,14.529000043869019,learn,45470.99995613098,Thu Nov 14 2024 17:10:33 GMT-0600 (Central Standard Time),313015.0,A,sga,O,a,74,1,1482.7999999998137,311532.2000000002,7034,WL,C,8.0
2,14.661999940872192,learn,45338.00005912781,Thu Nov 14 2024 17:10:33 GMT-0600 (Central Standard Time),313148.5,A,sgar,O,r,127,1,1616.2999999998137,311532.2000000002,7034,WL,C,8.0
2,15.111999988555908,learn,44888.00001144409,Thu Nov 14 2024 17:10:33 GMT-0600 (Central Standard Time),313597.9000000004,A,sga,O,backspace,433,1,2065.7000000001863,311532.2000000002,7034,WL,C,8.0
2,15.26199984550476,learn,44738.00015449524,Thu Nov 14 2024 17:10:33 GMT-0600 (Central Standard Time),313748.2000000002,A,sg,O,backspace,144,1,2216.0,311532.2000000002,7034,WL,C,8.0
2,15.42799997329712,learn,44572.00002670288,Thu Nov 14 2024 17:10:33 GMT-0600 (Central Standard Time),313914.60000000056,A,s,O,backspace,161,1,2382.4000000003725,311532.2000000002,7034,WL,C,8.0
2,15.911999940872192,learn,44088.00005912781,Thu Nov 14 2024 17:10:33 GMT-0600 (Central Standard Time),314397.9000000004,A,su,O,u,467,1,2865.7000000001863,311532.2000000002,7034,WL,C,8.0
2,16.07800006866455,learn,43921.99993133545,Thu Nov 14 2024 17:10:33 GMT-0600 (Central Standard Time),314564.60000000056,A,sug,O,g,161,1,3032.4000000003725,311532.2000000002,7034,WL,C,8.0
2,16.211999893188477,learn,43788.00010681152,Thu Nov 14 2024 17:10:33 GMT-0600 (Central Standard Time),314698.10000000056,A,suga,O,a,113,1,3165.9000000003725,311532.2000000002,7034,WL,C,8.0
2,16.312000036239624,learn,43687.999963760376,Thu Nov 14 2024 17:10:33 GMT-0600 (Central Standard Time),314797.9000000004,A,sugar,O,r,93,1,3265.7000000001863,311532.2000000002,7034,WL,C,8.0
2,16.57800006866455,learn,43421.99993133545,Thu Nov 14 2024 17:10:33 GMT-0600 (Central Standard Time),315064.4000000004,A,sugarenter,O,enter,256,1,3532.2000000001863,311532.2000000002,7034,WL,C,8.0
2,17.14400005340576,learn,42855.99994659424,Thu Nov 14 2024 17:10:33 GMT-0600 (Central Standard Time),315630.80000000075,A,w,O,w,557,1,566.0,315064.80000000075,7034,WL,C,9.0
2,17.26099991798401,learn,42739.00008201599,Thu Nov 14 2024 17:10:33 GMT-0600 (Central Standard Time),315747.7000000002,A,wh,O,h,103,1,682.8999999994412,315064.80000000075,7034,WL,C,9.0
2,17.39400005340576,learn,42605.99994659424,Thu Nov 14 2024 17:10:33 GMT-0600 (Central Standard Time),315880.7000000002,A,whe,O,e,122,1,815.8999999994412,315064.80000000075,7034,WL,C,9.0
2,17.67799997329712,learn,42322.00002670288,Thu Nov 14 2024 17:10:33 GMT-0600 (Central Standard Time),316164.0,A,whea,O,a,277,1,1099.199999999255,315064.80000000075,7034,WL,C,9.0
2,17.89400005340576,learn,42105.99994659424,Thu Nov 14 2024 17:10:33 GMT-0600 (Central Standard Time),316380.80000000075,A,wheat,O,t,210,1,1316.0,315064.80000000075,7034,WL,C,9.0
2,18.626999855041504,learn,41373.000144958496,Thu Nov 14 2024 17:10:33 GMT-0600 (Central Standard Time),317113.7000000002,A,wheatenter,O,enter,713,1,2048.899999999441,315064.80000000075,7034,WL,C,9.0
2,19.30999994277954,learn,40690.00005722046,Thu Nov 14 2024 17:10:33 GMT-0600 (Central Standard Time),317796.7000000002,A,c,O,c,677,1,682.7000000001863,317114.0,7034,WL,C,10.0
2,19.376999855041504,learn,40623.000144958496,Thu Nov 14 2024 17:10:33 GMT-0600 (Central Standard Time),317863.60000000056,A,ca,O,a,57,1,749.6000000005588,317114.0,7034,WL,C,10.0
2,19.89400005340576,learn,40105.99994659424,Thu Nov 14 2024 17:10:33 GMT-0600 (Central Standard Time),318379.9000000004,A,cat,O,t,502,1,1265.9000000003725,317114.0,7034,WL,C,10.0
2,20.05999994277954,learn,39940.00005722046,Thu Nov 14 2024 17:10:33 GMT-0600 (Central Standard Time),318546.7000000002,A,catt,O,t,162,1,1432.7000000001863,317114.0,7034,WL,C,10.0
2,20.210000038146973,learn,39789.99996185303,Thu Nov 14 2024 17:10:33 GMT-0600 (Central Standard Time),318696.80000000075,A,cattl,O,l,140,1,1582.800000000745,317114.0,7034,WL,C,10.0
2,20.32699990272522,learn,39673.00009727478,Thu Nov 14 2024 17:10:33 GMT-0600 (Central Standard Time),318813.30000000075,A,cattle,O,e,101,1,1699.300000000745,317114.0,7034,WL,C,10.0
2,20.493000030517578,learn,39506.99996948242,Thu Nov 14 2024 17:10:33 GMT-0600 (Central Standard Time),318979.60000000056,A,cattleenter,O,enter,160,1,1865.6000000005588,317114.0,7034,WL,C,10.0
2,20.842999935150146,learn,39157.00006484985,Thu Nov 14 2024 17:10:33 GMT-0600 (Central Standard Time),319329.30000000075,A,h,O,h,330,1,349.5,318979.80000000075,7034,WL,C,11.0
2,20.925999879837036,learn,39074.000120162964,Thu Nov 14 2024 17:10:33 GMT-0600 (Central Standard Time),319412.7000000002,A,ho,O,o,67,1,432.8999999994412,318979.80000000075,7034,WL,C,11.0
2,21.14299988746643,learn,38857.00011253357,Thu Nov 14 2024 17:10:33 GMT-0600 (Central Standard Time),319629.7000000002,A,hom,O,m,209,1,649.8999999994412,318979.80000000075,7034,WL,C,11.0
2,21.259999990463257,learn,38740.00000953674,Thu Nov 14 2024 17:10:33 GMT-0600 (Central Standard Time),319746.4000000004,A,home,O,e,96,1,766.5999999996275,318979.80000000075,7034,WL,C,11.0
2,21.675999879837036,learn,38324.000120162964,Thu Nov 14 2024 17:10:33 GMT-0600 (Central Standard Time),320162.80000000075,A,homeenter,O,enter,411,1,1183.0,318979.80000000075,7034,WL,C,11.0
2,24.20899987220764,learn,35791.00012779236,Thu Nov 14 2024 17:10:33 GMT-0600 (Central Standard Time),322695.4000000004,A,c,O,c,2523,1,2532.4000000003725,320163.0,7034,WL,C,12.0
2,24.95899987220764,learn,35041.00012779236,Thu Nov 14 2024 17:10:33 GMT-0600 (Central Standard Time),323445.0,A,co,O,o,734,1,3282.0,320163.0,7034,WL,C,12.0
2,25.075999975204468,learn,34924.00002479553,Thu Nov 14 2024 17:10:33 GMT-0600 (Central Standard Time),323562.0,A,cor,O,r,104,1,3399.0,320163.0,7034,WL,C,12.0
2,25.174999952316284,learn,34825.000047683716,Thu Nov 14 2024 17:10:33 GMT-0600 (Central Standard Time),323661.60000000056,A,corn,O,n,84,1,3498.600000000559,320163.0,7034,WL,C,12.0
2,25.491999864578247,learn,34508.00013542175,Thu Nov 14 2024 17:10:33 GMT-0600 (Central Standard Time),323978.2000000002,A,cornenter,O,enter,296,1,3815.2000000001863,320163.0,7034,WL,C,12.0
2,32.556999921798706,learn,27443.000078201294,Thu Nov 14 2024 17:10:33 GMT-0600 (Central Standard Time),331042.9000000004,A,f,O,f,7044,1,7064.4000000003725,323978.5,7034,WL,C,13.0
2,32.65599989891052,learn,27344.000101089478,Thu Nov 14 2024 17:10:33 GMT-0600 (Central Standard Time),331142.4000000004,A,fl,O,l,82,1,7163.9000000003725,323978.5,7034,WL,C,13.0
2,32.77300000190735,learn,27226.99999809265,Thu Nov 14 2024 17:10:33 GMT-0600 (Central Standard Time),331259.10000000056,A,fla,O,a,111,1,7280.600000000559,323978.5,7034,WL,C,13.0
2,32.9229998588562,learn,27077.0001411438,Thu Nov 14 2024 17:10:33 GMT-0600 (Central Standard Time),331409.30000000075,A,flag,O,g,139,1,7430.800000000745,323978.5,7034,WL,C,13.0
2,33.15599989891052,learn,26844.000101089478,Thu Nov 14 2024 17:10:33 GMT-0600 (Central Standard Time),331642.5,A,flagenter,O,enter,220,1,7664.0,323978.5,7034,WL,C,13.0
2,35.871999979019165,learn,24128.000020980835,Thu Nov 14 2024 17:10:33 GMT-0600 (Central Standard Time),334358.2000000002,A,q,O,q,2699,1,2715.399999999441,331642.80000000075,7034,WL,C,14.0
2,36.00499987602234,learn,23995.00012397766,Thu Nov 14 2024 17:10:33 GMT-0600 (Central Standard Time),334491.7000000002,A,qu,O,u,120,1,2848.899999999441,331642.80000000075,7034,WL,C,14.0
2,36.15599989891052,learn,23844.000101089478,Thu Nov 14 2024 17:10:33 GMT-0600 (Central Standard Time),334642.5,A,que,O,e,130,1,2999.699999999255,331642.80000000075,7034,WL,C,14.0
2,36.3050000667572,learn,23694.999933242798,Thu Nov 14 2024 17:10:33 GMT-0600 (Central Standard Time),334791.5,A,quee,O,e,138,1,3148.699999999255,331642.80000000075,7034,WL,C,14.0
2,36.371999979019165,learn,23628.000020980835,Thu Nov 14 2024 17:10:33 GMT-0600 (Central Standard Time),334858.10000000056,A,queen,O,n,46,1,3215.2999999998137,331642.80000000075,7034,WL,C,14.0
2,36.67199993133545,learn,23328.00006866455,Thu Nov 14 2024 17:10:33 GMT-0600 (Central Standard Time),335158.10000000056,A,queenenter,O,enter,285,1,3515.2999999998137,331642.80000000075,7034,WL,C,14.0
2,50.3510000705719,learn,9648.9999294281,Thu Nov 14 2024 17:10:33 GMT-0600 (Central Standard Time),348837.10000000056,A,b,O,b,13671,1,13678.700000000186,335158.4000000004,7034,WL,C,15.0
2,50.50099992752075,learn,9499.000072479248,Thu Nov 14 2024 17:10:33 GMT-0600 (Central Standard Time),348986.9000000004,A,bo,O,o,144,1,13828.5,335158.4000000004,7034,WL,C,15.0
2,50.70099997520447,learn,9299.000024795532,Thu Nov 14 2024 17:10:33 GMT-0600 (Central Standard Time),349186.9000000004,A,boy,O,y,187,1,14028.5,335158.4000000004,7034,WL,C,15.0
2,50.967000007629395,learn,9032.999992370605,Thu Nov 14 2024 17:10:33 GMT-0600 (Central Standard Time),349453.7000000002,A,boyenter,O,enter,251,1,14295.299999999814,335158.4000000004,7034,WL,C,15.0
3,1.0,learn,59000.0,Thu Nov 14 2024 17:10:33 GMT-0600 (Central Standard Time),420814.80000000075,A,c,O,c,992,1,999.8000000007451,419815.0,7034,WL,C,1.0
3,1.1329998970031738,learn,58867.000102996826,Thu Nov 14 2024 17:10:33 GMT-0600 (Central Standard Time),420947.9000000004,A,ca,O,a,127,1,1132.9000000003725,419815.0,7034,WL,C,1.0
3,1.2999999523162842,learn,58700.000047683716,Thu Nov 14 2024 17:10:33 GMT-0600 (Central Standard Time),421114.60000000056,A,cat,O,t,155,1,1299.6000000005588,419815.0,7034,WL,C,1.0
3,1.4500000476837158,learn,58549.999952316284,Thu Nov 14 2024 17:10:33 GMT-0600 (Central Standard Time),421264.7000000002,A,catt,O,t,139,1,1449.7000000001863,419815.0,7034,WL,C,1.0
3,1.5490000247955322,learn,58450.99997520447,Thu Nov 14 2024 17:10:33 GMT-0600 (Central Standard Time),421364.2000000002,A,cattl,O,l,93,1,1549.2000000001863,419815.0,7034,WL,C,1.0
3,1.7330000400543213,learn,58266.99995994568,Thu Nov 14 2024 17:10:33 GMT-0600 (Central Standard Time),421547.4000000004,A,cattle,O,e,177,1,1732.4000000003725,419815.0,7034,WL,C,1.0
3,1.9000000953674316,learn,58099.99990463257,Thu Nov 14 2024 17:10:33 GMT-0600 (Central Standard Time),421714.4000000004,A,cattleenter,O,enter,154,1,1899.4000000003725,419815.0,7034,WL,C,1.0
3,2.2990000247955322,learn,57700.99997520447,Thu Nov 14 2024 17:10:33 GMT-0600 (Central Standard Time),422114.10000000056,A,t,O,t,388,1,399.40000000037253,421714.7000000002,7034,WL,C,2.0
3,2.4159998893737793,learn,57584.00011062622,Thu Nov 14 2024 17:10:33 GMT-0600 (Central Standard Time),422230.7000000002,A,to,O,o,107,1,516.0,421714.7000000002,7034,WL,C,2.0
3,2.499000072479248,learn,57500.99992752075,Thu Nov 14 2024 17:10:33 GMT-0600 (Central Standard Time),422314.2000000002,A,tow,O,w,63,1,599.5,421714.7000000002,7034,WL,C,2.0
3,2.7160000801086426,learn,57283.99991989136,Thu Nov 14 2024 17:10:33 GMT-0600 (Central Standard Time),422530.9000000004,A,towr,O,r,212,1,816.2000000001863,421714.7000000002,7034,WL,C,2.0
3,3.2990000247955322,learn,56700.99997520447,Thu Nov 14 2024 17:10:33 GMT-0600 (Central Standard Time),423113.80000000075,A,tow,O,backspace,571,1,1399.1000000005588,421714.7000000002,7034,WL,C,2.0
3,3.381999969482422,learn,56618.00003051758,Thu Nov 14 2024 17:10:33 GMT-0600 (Central Standard Time),423197.2000000002,A,towe,O,e,76,1,1482.5,421714.7000000002,7034,WL,C,2.0
3,3.4660000801086426,learn,56533.99991989136,Thu Nov 14 2024 17:10:33 GMT-0600 (Central Standard Time),423280.5,A,tower,O,r,64,1,1565.7999999998137,421714.7000000002,7034,WL,C,2.0
3,3.615999937057495,learn,56384.000062942505,Thu Nov 14 2024 17:10:33 GMT-0600 (Central Standard Time),423430.5,A,towerenter,O,enter,141,1,1715.7999999998137,421714.7000000002,7034,WL,C,2.0
3,4.4649999141693115,learn,55535.00008583069,Thu Nov 14 2024 17:10:33 GMT-0600 (Central Standard Time),424280.2000000002,A,h,O,h,840,1,849.2999999998137,423430.9000000004,7034,WL,C,3.0
3,4.5320000648498535,learn,55467.99993515015,Thu Nov 14 2024 17:10:33 GMT-0600 (Central Standard Time),424346.7000000002,A,ho,O,o,61,1,915.7999999998137,423430.9000000004,7034,WL,C,3.0
3,4.697999954223633,learn,55302.00004577637,Thu Nov 14 2024 17:10:33 GMT-0600 (Central Standard Time),424513.2000000002,A,hom,O,m,156,1,1082.2999999998137,423430.9000000004,7034,WL,C,3.0
3,4.815000057220459,learn,55184.99994277954,Thu Nov 14 2024 17:10:33 GMT-0600 (Central Standard Time),424630.0,A,home,O,e,109,1,1199.0999999996275,423430.9000000004,7034,WL,C,3.0
3,5.098999977111816,learn,54901.00002288818,Thu Nov 14 2024 17:10:33 GMT-0600 (Central Standard Time),424913.5,A,homeenter,O,enter,264,1,1482.5999999996275,423430.9000000004,7034,WL,C,3.0
3,5.582000017166138,learn,54417.99998283386,Thu Nov 14 2024 17:10:33 GMT-0600 (Central Standard Time),425396.60000000056,A,q,O,q,476,1,482.79999999981374,424913.80000000075,7034,WL,C,4.0
3,5.7809998989105225,learn,54219.00010108948,Thu Nov 14 2024 17:10:33 GMT-0600 (Central Standard Time),425596.30000000075,A,qu,O,u,185,1,682.5,424913.80000000075,7034,WL,C,4.0
3,5.9649999141693115,learn,54035.00008583069,Thu Nov 14 2024 17:10:33 GMT-0600 (Central Standard Time),425779.60000000056,A,que,O,e,177,1,865.7999999998137,424913.80000000075,7034,WL,C,4.0
3,6.131999969482422,learn,53868.00003051758,Thu Nov 14 2024 17:10:33 GMT-0600 (Central Standard Time),425946.5,A,quee,O,e,154,1,1032.699999999255,424913.80000000075,7034,WL,C,4.0
3,6.230999946594238,learn,53769.00005340576,Thu Nov 14 2024 17:10:33 GMT-0600 (Central Standard Time),426046.4000000004,A,queen,O,n,83,1,1132.5999999996275,424913.80000000075,7034,WL,C,4.0
3,6.480999946594238,learn,53519.00005340576,Thu Nov 14 2024 17:10:33 GMT-0600 (Central Standard Time),426296.2000000002,A,queenenter,O,enter,239,1,1382.3999999994412,424913.80000000075,7034,WL,C,4.0
3,6.947999954223633,learn,53052.00004577637,Thu Nov 14 2024 17:10:33 GMT-0600 (Central Standard Time),426762.9000000004,A,s,O,s,447,1,466.40000000037253,426296.5,7034,WL,C,5.0
3,7.0980000495910645,learn,52901.999950408936,Thu Nov 14 2024 17:10:33 GMT-0600 (Central Standard Time),426912.60000000056,A,su,O,u,130,1,616.1000000005588,426296.5,7034,WL,C,5.0
3,7.164999961853027,learn,52835.00003814697,Thu Nov 14 2024 17:10:33 GMT-0600 (Central Standard Time),426979.4000000004,A,sug,O,g,53,1,682.9000000003725,426296.5,7034,WL,C,5.0
3,7.21399998664856,learn,52786.00001335144,Thu Nov 14 2024 17:10:33 GMT-0600 (Central Standard Time),427029.4000000004,A,suga,O,a,42,1,732.9000000003725,426296.5,7034,WL,C,5.0
3,7.3480000495910645,learn,52651.999950408936,Thu Nov 14 2024 17:10:33 GMT-0600 (Central Standard Time),427162.7000000002,A,sugar,O,r,128,1,866.2000000001863,426296.5,7034,WL,C,5.0
3,7.596999883651733,learn,52403.00011634827,Thu Nov 14 2024 17:10:33 GMT-0600 (Central Standard Time),427412.2000000002,A,sugarenter,O,enter,235,1,1115.7000000001863,426296.5,7034,WL,C,5.0
3,7.796999931335449,learn,52203.00006866455,Thu Nov 14 2024 17:10:33 GMT-0600 (Central Standard Time),427612.10000000056,A,s,O,s,185,1,199.6000000005588,427412.5,7034,WL,C,6.0
3,7.914000034332275,learn,52085.999965667725,Thu Nov 14 2024 17:10:33 GMT-0600 (Central Standard Time),427728.7000000002,A,sh,O,h,97,1,316.20000000018626,427412.5,7034,WL,C,6.0
3,8.04699993133545,learn,51953.00006866455,Thu Nov 14 2024 17:10:33 GMT-0600 (Central Standard Time),427862.10000000056,A,sho,O,o,125,1,449.6000000005588,427412.5,7034,WL,C,6.0
3,8.147000074386597,learn,51852.9999256134,Thu Nov 14 2024 17:10:33 GMT-0600 (Central Standard Time),427962.0,A,shoe,O,e,79,1,549.5,427412.5,7034,WL,C,6.0
3,8.21399998664856,learn,51786.00001335144,Thu Nov 14 2024 17:10:33 GMT-0600 (Central Standard Time),428028.60000000056,A,shoer,O,r,59,1,616.1000000005588,427412.5,7034,WL,C,6.0
3,8.980999946594238,learn,51019.00005340576,Thu Nov 14 2024 17:10:33 GMT-0600 (Central Standard Time),428795.60000000056,A,shoe,O,backspace,753,1,1383.1000000005588,427412.5,7034,WL,C,6.0
3,9.364000082015991,learn,50635.99991798401,Thu Nov 14 2024 17:10:33 GMT-0600 (Central Standard Time),429178.60000000056,A,shoer,O,r,370,1,1766.1000000005588,427412.5,7034,WL,C,6.0
3,9.63100004196167,learn,50368.99995803833,Thu Nov 14 2024 17:10:33 GMT-0600 (Central Standard Time),429445.30000000075,A,shoe,O,backspace,251,1,2032.800000000745,427412.5,7034,WL,C,6.0
3,9.79699993133545,learn,50203.00006866455,Thu Nov 14 2024 17:10:33 GMT-0600 (Central Standard Time),429611.7000000002,A,sho,O,backspace,153,1,2199.2000000001863,427412.5,7034,WL,C,6.0
3,9.930000066757202,learn,50069.9999332428,Thu Nov 14 2024 17:10:33 GMT-0600 (Central Standard Time),429745.0,A,shor,O,r,114,1,2332.5,427412.5,7034,WL,C,6.0
3,10.013999938964844,learn,49986.000061035156,Thu Nov 14 2024 17:10:33 GMT-0600 (Central Standard Time),429829.2000000002,A,shore,O,e,78,1,2416.7000000001863,427412.5,7034,WL,C,6.0
3,10.21399998664856,learn,49786.00001335144,Thu Nov 14 2024 17:10:33 GMT-0600 (Central Standard Time),430028.4000000004,A,shoreenter,O,enter,184,1,2615.9000000003725,427412.5,7034,WL,C,6.0
3,11.162999868392944,learn,48837.000131607056,Thu Nov 14 2024 17:10:33 GMT-0600 (Central Standard Time),430977.80000000075,A,b,O,b,929,1,949.1000000005588,430028.7000000002,7034,WL,C,7.0
3,11.29699993133545,learn,48703.00006866455,Thu Nov 14 2024 17:10:33 GMT-0600 (Central Standard Time),431111.5,A,bo,O,o,124,1,1082.7999999998137,430028.7000000002,7034,WL,C,7.0
3,11.513000011444092,learn,48486.99998855591,Thu Nov 14 2024 17:10:33 GMT-0600 (Central Standard Time),431327.9000000004,A,boy,O,y,198,1,1299.2000000001863,430028.7000000002,7034,WL,C,7.0
3,11.77999997138977,learn,48220.00002861023,Thu Nov 14 2024 17:10:33 GMT-0600 (Central Standard Time),431594.60000000056,A,boyenter,O,enter,254,1,1565.9000000003725,430028.7000000002,7034,WL,C,7.0
3,13.513000011444092,learn,46486.99998855591,Thu Nov 14 2024 17:10:33 GMT-0600 (Central Standard Time),433327.4000000004,A,l,O,l,1723,1,1732.5,431594.9000000004,7034,WL,C,8.0
3,13.611999988555908,learn,46388.00001144409,Thu Nov 14 2024 17:10:33 GMT-0600 (Central Standard Time),433427.10000000056,A,le,O,e,87,1,1832.2000000001863,431594.9000000004,7034,WL,C,8.0
3,13.779000043869019,learn,46220.99995613098,Thu Nov 14 2024 17:10:33 GMT-0600 (Central Standard Time),433593.7000000002,A,let,O,t,147,1,1998.7999999998137,431594.9000000004,7034,WL,C,8.0
3,13.961999893188477,learn,46038.00010681152,Thu Nov 14 2024 17:10:33 GMT-0600 (Central Standard Time),433777.2000000002,A,lett,O,t,164,1,2182.2999999998137,431594.9000000004,7034,WL,C,8.0
3,14.11299991607666,learn,45887.00008392334,Thu Nov 14 2024 17:10:33 GMT-0600 (Central Standard Time),433928.30000000075,A,lette,O,e,133,1,2333.4000000003725,431594.9000000004,7034,WL,C,8.0
3,14.211999893188477,learn,45788.00010681152,Thu Nov 14 2024 17:10:33 GMT-0600 (Central Standard Time),434027.0,A,letter,O,r,85,1,2432.0999999996275,431594.9000000004,7034,WL,C,8.0
3,14.661999940872192,learn,45338.00005912781,Thu Nov 14 2024 17:10:33 GMT-0600 (Central Standard Time),434477.0,A,letterenter,O,enter,436,1,2882.0999999996275,431594.9000000004,7034,WL,C,8.0
3,17.91100001335144,learn,42088.99998664856,Thu Nov 14 2024 17:10:33 GMT-0600 (Central Standard Time),437726.0,A,q,O,q,3233,1,3248.699999999255,434477.30000000075,7034,WL,C,9.0
3,18.07800006866455,learn,41921.99993133545,Thu Nov 14 2024 17:10:33 GMT-0600 (Central Standard Time),437892.60000000056,A,qu,O,u,151,1,3415.2999999998137,434477.30000000075,7034,WL,C,9.0
3,18.194000005722046,learn,41805.999994277954,Thu Nov 14 2024 17:10:33 GMT-0600 (Central Standard Time),438009.30000000075,A,que,O,e,106,1,3532.0,434477.30000000075,7034,WL,C,9.0
3,18.378000020980835,learn,41621.999979019165,Thu Nov 14 2024 17:10:33 GMT-0600 (Central Standard Time),438192.4000000004,A,quee,O,e,164,1,3715.0999999996275,434477.30000000075,7034,WL,C,9.0
3,18.477999925613403,learn,41522.0000743866,Thu Nov 14 2024 17:10:33 GMT-0600 (Central Standard Time),438292.60000000056,A,queen,O,n,94,1,3815.2999999998137,434477.30000000075,7034,WL,C,9.0
3,18.793999910354614,learn,41206.000089645386,Thu Nov 14 2024 17:10:33 GMT-0600 (Central Standard Time),438608.9000000004,A,queenenter,O,enter,306,1,4131.5999999996275,434477.30000000075,7034,WL,C,9.0
3,24.39299988746643,learn,35607.00011253357,Thu Nov 14 2024 17:10:33 GMT-0600 (Central Standard Time),444207.4000000004,A,s,O,s,5588,1,5597.9000000003725,438609.5,7034,WL,C,10.0
3,24.658999919891357,learn,35341.00008010864,Thu Nov 14 2024 17:10:33 GMT-0600 (Central Standard Time),444473.7000000002,A,su,O,u,246,1,5864.200000000186,438609.5,7034,WL,C,10.0
3,25.075999975204468,learn,34924.00002479553,Thu Nov 14 2024 17:10:33 GMT-0600 (Central Standard Time),444890.5,A,sug,O,g,404,1,6281.0,438609.5,7034,WL,C,10.0
3,25.276000022888184,learn,34723.99997711182,Thu Nov 14 2024 17:10:33 GMT-0600 (Central Standard Time),445090.4000000004,A,suga,O,a,179,1,6480.9000000003725,438609.5,7034,WL,C,10.0
3,25.375999927520752,learn,34624.00007247925,Thu Nov 14 2024 17:10:33 GMT-0600 (Central Standard Time),445190.30000000075,A,sugar,O,r,92,1,6580.800000000745,438609.5,7034,WL,C,10.0
3,25.858999967575073,learn,34141.00003242493,Thu Nov 14 2024 17:10:33 GMT-0600 (Central Standard Time),445673.60000000056,A,sugarenter,O,enter,463,1,7064.100000000559,438609.5,7034,WL,C,10.0
3,31.33999991416931,learn,28660.00008583069,Thu Nov 14 2024 17:10:33 GMT-0600 (Central Standard Time),451155.10000000056,A,h,O,h,5461,1,5481.200000000186,445673.9000000004,7034,WL,C,11.0
3,31.374000072479248,learn,28625.999927520752,Thu Nov 14 2024 17:10:33 GMT-0600 (Central Standard Time),451188.30000000075,A,ho,O,o,26,1,5514.4000000003725,445673.9000000004,7034,WL,C,11.0
3,31.58999991416931,learn,28410.00008583069,Thu Nov 14 2024 17:10:33 GMT-0600 (Central Standard Time),451405.0,A,hom,O,m,201,1,5731.0999999996275,445673.9000000004,7034,WL,C,11.0
3,31.756999969482422,learn,28243.000030517578,Thu Nov 14 2024 17:10:33 GMT-0600 (Central Standard Time),451571.4000000004,A,home,O,e,161,1,5897.5,445673.9000000004,7034,WL,C,11.0
3,31.94000005722046,learn,28059.99994277954,Thu Nov 14 2024 17:10:33 GMT-0600 (Central Standard Time),451754.7000000002,A,homeenter,O,enter,162,1,6080.799999999814,445673.9000000004,7034,WL,C,11.0
3,36.72199988365173,learn,23278.000116348267,Thu Nov 14 2024 17:10:33 GMT-0600 (Central Standard Time),456537.0,A,n,O,n,4764,1,4782.0,451755.0,7034,WL,C,12.0
3,36.855000019073486,learn,23144.999980926514,Thu Nov 14 2024 17:10:33 GMT-0600 (Central Standard Time),456670.2000000002,A,na,O,a,124,1,4915.200000000186,451755.0,7034,WL,C,12.0
3,36.93899989128113,learn,23061.000108718872,Thu Nov 14 2024 17:10:33 GMT-0600 (Central Standard Time),456753.30000000075,A,nai,O,i,72,1,4998.300000000745,451755.0,7034,WL,C,12.0
3,37.105000019073486,learn,22894.999980926514,Thu Nov 14 2024 17:10:33 GMT-0600 (Central Standard Time),456920.0,A,nail,O,l,148,1,5165.0,451755.0,7034,WL,C,12.0
3,37.437999963760376,learn,22562.000036239624,Thu Nov 14 2024 17:10:33 GMT-0600 (Central Standard Time),457253.10000000056,A,nailenter,O,enter,327,1,5498.100000000559,451755.0,7034,WL,C,12.0
3,40.4210000038147,learn,19578.999996185303,Thu Nov 14 2024 17:10:33 GMT-0600 (Central Standard Time),460235.4000000004,A,w,O,w,2977,1,2981.9000000003725,457253.5,7034,WL,C,13.0
3,40.58800005912781,learn,19411.999940872192,Thu Nov 14 2024 17:10:33 GMT-0600 (Central Standard Time),460402.4000000004,A,wh,O,h,146,1,3148.9000000003725,457253.5,7034,WL,C,13.0
3,40.75399994850159,learn,19246.000051498413,Thu Nov 14 2024 17:10:33 GMT-0600 (Central Standard Time),460568.7000000002,A,wha,O,a,155,1,3315.2000000001863,457253.5,7034,WL,C,13.0
3,41.187000036239624,learn,18812.999963760376,Thu Nov 14 2024 17:10:33 GMT-0600 (Central Standard Time),461001.9000000004,A,wh,O,backspace,413,1,3748.4000000003725,457253.5,7034,WL,C,13.0
3,41.25399994850159,learn,18746.000051498413,Thu Nov 14 2024 17:10:33 GMT-0600 (Central Standard Time),461068.5,A,whe,O,e,61,1,3815.0,457253.5,7034,WL,C,13.0
3,41.354000091552734,learn,18645.999908447266,Thu Nov 14 2024 17:10:33 GMT-0600 (Central Standard Time),461168.80000000075,A,whea,O,a,78,1,3915.300000000745,457253.5,7034,WL,C,13.0
3,41.45300006866455,learn,18546.99993133545,Thu Nov 14 2024 17:10:33 GMT-0600 (Central Standard Time),461268.30000000075,A,whear,O,r,94,1,4014.800000000745,457253.5,7034,WL,C,13.0
3,41.9539999961853,learn,18046.000003814697,Thu Nov 14 2024 17:10:33 GMT-0600 (Central Standard Time),461768.5,A,whea,O,backspace,489,1,4515.0,457253.5,7034,WL,C,13.0
3,42.11999988555908,learn,17880.000114440918,Thu Nov 14 2024 17:10:33 GMT-0600 (Central Standard Time),461935.0,A,wheat,O,t,158,1,4681.5,457253.5,7034,WL,C,13.0
3,42.269999980926514,learn,17730.000019073486,Thu Nov 14 2024 17:10:33 GMT-0600 (Central Standard Time),462085.10000000056,A,wheatenter,O,enter,143,1,4831.600000000559,457253.5,7034,WL,C,13.0
3,48.55200004577637,learn,11447.999954223633,Thu Nov 14 2024 17:10:33 GMT-0600 (Central Standard Time),468366.4000000004,A,b,O,b,6266,1,6281.0,462085.4000000004,7034,WL,C,14.0
3,48.66799998283386,learn,11332.000017166138,Thu Nov 14 2024 17:10:33 GMT-0600 (Central Standard Time),468483.10000000056,A,bo,O,o,96,1,6397.700000000186,462085.4000000004,7034,WL,C,14.0
3,49.43499994277954,learn,10565.000057220459,Thu Nov 14 2024 17:10:33 GMT-0600 (Central Standard Time),469249.5,A,bod,O,d,755,1,7164.0999999996275,462085.4000000004,7034,WL,C,14.0
3,49.550999879837036,learn,10449.000120162964,Thu Nov 14 2024 17:10:33 GMT-0600 (Central Standard Time),469366.0,A,body,O,y,101,1,7280.5999999996275,462085.4000000004,7034,WL,C,14.0
3,49.78500008583069,learn,10214.999914169312,Thu Nov 14 2024 17:10:33 GMT-0600 (Central Standard Time),469599.5,A,bodyenter,O,enter,215,1,7514.0999999996275,462085.4000000004,7034,WL,C,14.0
3,55.348000049591064,learn,4651.999950408936,Thu Nov 14 2024 17:10:33 GMT-0600 (Central Standard Time),475164.30000000075,A,c,O,c,5550,1,5564.600000000559,469599.7000000002,7034,WL,C,15.0
3,55.49799990653992,learn,4502.000093460083,Thu Nov 14 2024 17:10:33 GMT-0600 (Central Standard Time),475314.10000000056,A,ca,O,a,137,1,5714.4000000003725,469599.7000000002,7034,WL,C,15.0
3,55.53200006484985,learn,4467.9999351501465,Thu Nov 14 2024 17:10:33 GMT-0600 (Central Standard Time),475347.5,A,cam,O,m,19,1,5747.799999999814,469599.7000000002,7034,WL,C,15.0
3,55.71499991416931,learn,4285.0000858306885,Thu Nov 14 2024 17:10:33 GMT-0600 (Central Standard Time),475530.7000000002,A,camp,O,p,179,1,5931.0,469599.7000000002,7034,WL,C,15.0
3,56.23199987411499,learn,3768.0001258850098,Thu Nov 14 2024 17:10:33 GMT-0600 (Central Standard Time),476047.30000000075,A,campenter,O,enter,499,1,6447.600000000559,469599.7000000002,7034,WL,C,15.0
4,1.565999984741211,learn,58434.00001525879,Thu Nov 14 2024 17:10:33 GMT-0600 (Central Standard Time),544192.7000000002,A,t,O,t,1549,1,1565.8999999994412,542626.8000000007,7034,WL,C,1.0
4,1.7160000801086426,learn,58283.99991989136,Thu Nov 14 2024 17:10:33 GMT-0600 (Central Standard Time),544342.7000000002,A,to,O,o,140,1,1715.8999999994412,542626.8000000007,7034,WL,C,1.0
4,1.815999984741211,learn,58184.00001525879,Thu Nov 14 2024 17:10:33 GMT-0600 (Central Standard Time),544442.7000000002,A,tow,O,w,88,1,1815.8999999994412,542626.8000000007,7034,WL,C,1.0
4,2.0,learn,58000.0,Thu Nov 14 2024 17:10:33 GMT-0600 (Central Standard Time),544625.8000000007,A,towr,O,r,171,1,1999.0,542626.8000000007,7034,WL,C,1.0
4,2.433000087738037,learn,57566.99991226196,Thu Nov 14 2024 17:10:33 GMT-0600 (Central Standard Time),545059.0,A,tow,O,backspace,413,1,2432.199999999255,542626.8000000007,7034,WL,C,1.0
4,2.5490000247955322,learn,57450.99997520447,Thu Nov 14 2024 17:10:33 GMT-0600 (Central Standard Time),545175.6000000006,A,towe,O,e,99,1,2548.7999999998137,542626.8000000007,7034,WL,C,1.0
4,2.615999937057495,learn,57384.000062942505,Thu Nov 14 2024 17:10:33 GMT-0600 (Central Standard Time),545242.3000000007,A,tower,O,r,54,1,2615.5,542626.8000000007,7034,WL,C,1.0
4,2.881999969482422,learn,57118.00003051758,Thu Nov 14 2024 17:10:33 GMT-0600 (Central Standard Time),545508.7000000002,A,towerenter,O,enter,252,1,2881.899999999441,542626.8000000007,7034,WL,C,1.0
4,3.4160001277923584,learn,56583.99987220764,Thu Nov 14 2024 17:10:33 GMT-0600 (Central Standard Time),546042.2000000002,A,w,O,w,513,1,533.2000000001863,545509.0,7034,WL,C,2.0
4,3.5989999771118164,learn,56401.00002288818,Thu Nov 14 2024 17:10:33 GMT-0600 (Central Standard Time),546225.5,A,wh,O,h,164,1,716.5,545509.0,7034,WL,C,2.0
4,3.6660001277923584,learn,56333.99987220764,Thu Nov 14 2024 17:10:33 GMT-0600 (Central Standard Time),546291.9000000004,A,whe,O,e,53,1,782.9000000003725,545509.0,7034,WL,C,2.0
4,3.7820000648498535,learn,56217.99993515015,Thu Nov 14 2024 17:10:33 GMT-0600 (Central Standard Time),546408.5,A,whea,O,a,98,1,899.5,545509.0,7034,WL,C,2.0
4,3.999000072479248,learn,56000.99992752075,Thu Nov 14 2024 17:10:33 GMT-0600 (Central Standard Time),546625.2000000002,A,wheat,O,t,197,1,1116.2000000001863,545509.0,7034,WL,C,2.0
4,4.265000104904175,learn,55734.999895095825,Thu Nov 14 2024 17:10:33 GMT-0600 (Central Standard Time),546891.7000000002,A,wheatenter,O,enter,253,1,1382.7000000001863,545509.0,7034,WL,C,2.0
4,4.699000120162964,learn,55300.999879837036,Thu Nov 14 2024 17:10:33 GMT-0600 (Central Standard Time),547324.9000000004,A,q,O,q,426,1,432.79999999981374,546892.1000000006,7034,WL,C,3.0
4,4.898999929428101,learn,55101.0000705719,Thu Nov 14 2024 17:10:33 GMT-0600 (Central Standard Time),547525.0,A,qu,O,u,185,1,632.8999999994412,546892.1000000006,7034,WL,C,3.0
4,5.0329999923706055,learn,54967.000007629395,Thu Nov 14 2024 17:10:33 GMT-0600 (Central Standard Time),547658.9000000004,A,que,O,e,130,1,766.7999999998137,546892.1000000006,7034,WL,C,3.0
4,5.215000152587891,learn,54784.99984741211,Thu Nov 14 2024 17:10:33 GMT-0600 (Central Standard Time),547841.5,A,quee,O,e,163,1,949.3999999994412,546892.1000000006,7034,WL,C,3.0
4,5.265000104904175,learn,54734.999895095825,Thu Nov 14 2024 17:10:33 GMT-0600 (Central Standard Time),547891.2000000002,A,queen,O,n,44,1,999.0999999996275,546892.1000000006,7034,WL,C,3.0
4,5.498000144958496,learn,54501.999855041504,Thu Nov 14 2024 17:10:33 GMT-0600 (Central Standard Time),548124.7000000002,A,queenenter,O,enter,227,1,1232.5999999996275,546892.1000000006,7034,WL,C,3.0
4,5.648000001907349,learn,54351.99999809265,Thu Nov 14 2024 17:10:33 GMT-0600 (Central Standard Time),548274.7000000002,A,s,O,s,130,1,149.79999999981374,548124.9000000004,7034,WL,C,4.0
4,5.865000009536743,learn,54134.99999046326,Thu Nov 14 2024 17:10:33 GMT-0600 (Central Standard Time),548491.2000000002,A,sg,O,g,203,1,366.29999999981374,548124.9000000004,7034,WL,C,4.0
4,6.230999946594238,learn,53769.00005340576,Thu Nov 14 2024 17:10:33 GMT-0600 (Central Standard Time),548857.8000000007,A,s,O,backspace,355,1,732.9000000003725,548124.9000000004,7034,WL,C,4.0
4,6.431999921798706,learn,53568.000078201294,Thu Nov 14 2024 17:10:33 GMT-0600 (Central Standard Time),549057.8000000007,A,su,O,u,189,1,932.9000000003725,548124.9000000004,7034,WL,C,4.0
4,6.482000112533569,learn,53517.99988746643,Thu Nov 14 2024 17:10:33 GMT-0600 (Central Standard Time),549107.8000000007,A,sug,O,g,36,1,982.9000000003725,548124.9000000004,7034,WL,C,4.0
4,6.581000089645386,learn,53418.999910354614,Thu Nov 14 2024 17:10:33 GMT-0600 (Central Standard Time),549207.7000000002,A,suga,O,a,90,1,1082.7999999998137,548124.9000000004,7034,WL,C,4.0
4,6.680999994277954,learn,53319.000005722046,Thu Nov 14 2024 17:10:33 GMT-0600 (Central Standard Time),549307.4000000004,A,sugar,O,r,94,1,1182.5,548124.9000000004,7034,WL,C,4.0
4,7.031000137329102,learn,52968.9998626709,Thu Nov 14 2024 17:10:33 GMT-0600 (Central Standard Time),549657.7000000002,A,sugarenter,O,enter,330,1,1532.7999999998137,548124.9000000004,7034,WL,C,4.0
4,7.281000137329102,learn,52718.9998626709,Thu Nov 14 2024 17:10:33 GMT-0600 (Central Standard Time),549907.6000000006,A,c,O,c,237,1,249.6000000005588,549658.0,7034,WL,C,5.0
4,7.398000001907349,learn,52601.99999809265,Thu Nov 14 2024 17:10:33 GMT-0600 (Central Standard Time),550024.1000000006,A,ca,O,a,107,1,366.1000000005588,549658.0,7034,WL,C,5.0
4,7.614000082015991,learn,52385.99991798401,Thu Nov 14 2024 17:10:33 GMT-0600 (Central Standard Time),550240.6000000006,A,cat,O,t,198,1,582.6000000005588,549658.0,7034,WL,C,5.0
4,7.79800009727478,learn,52201.99990272522,Thu Nov 14 2024 17:10:33 GMT-0600 (Central Standard Time),550424.1000000006,A,catt,O,t,165,1,766.1000000005588,549658.0,7034,WL,C,5.0
4,7.930999994277954,learn,52069.000005722046,Thu Nov 14 2024 17:10:33 GMT-0600 (Central Standard Time),550557.4000000004,A,cattl,O,l,118,1,899.4000000003725,549658.0,7034,WL,C,5.0
4,8.081000089645386,learn,51918.999910354614,Thu Nov 14 2024 17:10:33 GMT-0600 (Central Standard Time),550707.0,A,cattle,O,e,145,1,1049.0,549658.0,7034,WL,C,5.0
4,8.430999994277954,learn,51569.000005722046,Thu Nov 14 2024 17:10:33 GMT-0600 (Central Standard Time),551057.5,A,cattleenter,O,enter,338,1,1399.5,549658.0,7034,WL,C,5.0
4,8.763999938964844,learn,51236.000061035156,Thu Nov 14 2024 17:10:33 GMT-0600 (Central Standard Time),551390.6000000006,A,d,O,d,316,1,332.90000000037253,551057.7000000002,7034,WL,C,6.0
4,8.864000082015991,learn,51135.99991798401,Thu Nov 14 2024 17:10:33 GMT-0600 (Central Standard Time),551490.4000000004,A,do,O,o,79,1,432.70000000018626,551057.7000000002,7034,WL,C,6.0
4,9.04699993133545,learn,50953.00006866455,Thu Nov 14 2024 17:10:33 GMT-0600 (Central Standard Time),551673.5,A,doc,O,c,171,1,615.7999999998137,551057.7000000002,7034,WL,C,6.0
4,9.27999997138977,learn,50720.00002861023,Thu Nov 14 2024 17:10:33 GMT-0600 (Central Standard Time),551906.8000000007,A,doct,O,t,221,1,849.1000000005588,551057.7000000002,7034,WL,C,6.0
4,9.364000082015991,learn,50635.99991798401,Thu Nov 14 2024 17:10:33 GMT-0600 (Central Standard Time),551990.2000000002,A,docto,O,o,67,1,932.5,551057.7000000002,7034,WL,C,6.0
4,9.513999938964844,learn,50486.000061035156,Thu Nov 14 2024 17:10:33 GMT-0600 (Central Standard Time),552140.0,A,doctor,O,r,144,1,1082.2999999998137,551057.7000000002,7034,WL,C,6.0
4,9.69700002670288,learn,50302.99997329712,Thu Nov 14 2024 17:10:33 GMT-0600 (Central Standard Time),552323.4000000004,A,doctorenter,O,enter,169,1,1265.7000000001863,551057.7000000002,7034,WL,C,6.0
4,10.246999979019165,learn,49753.000020980835,Thu Nov 14 2024 17:10:33 GMT-0600 (Central Standard Time),552873.2000000002,A,l,O,l,538,1,549.3999999994412,552323.8000000007,7034,WL,C,7.0
4,10.329999923706055,learn,49670.000076293945,Thu Nov 14 2024 17:10:33 GMT-0600 (Central Standard Time),552956.6000000006,A,le,O,e,78,1,632.7999999998137,552323.8000000007,7034,WL,C,7.0
4,10.46399998664856,learn,49536.00001335144,Thu Nov 14 2024 17:10:33 GMT-0600 (Central Standard Time),553089.9000000004,A,let,O,t,113,1,766.0999999996275,552323.8000000007,7034,WL,C,7.0
4,10.597000122070312,learn,49402.99987792969,Thu Nov 14 2024 17:10:33 GMT-0600 (Central Standard Time),553223.2000000002,A,lett,O,t,125,1,899.3999999994412,552323.8000000007,7034,WL,C,7.0
4,10.763000011444092,learn,49236.99998855591,Thu Nov 14 2024 17:10:33 GMT-0600 (Central Standard Time),553389.7000000002,A,lette,O,e,151,1,1065.8999999994412,552323.8000000007,7034,WL,C,7.0
4,10.812999963760376,learn,49187.000036239624,Thu Nov 14 2024 17:10:33 GMT-0600 (Central Standard Time),553439.7000000002,A,letter,O,r,40,1,1115.8999999994412,552323.8000000007,7034,WL,C,7.0
4,11.29699993133545,learn,48703.00006866455,Thu Nov 14 2024 17:10:33 GMT-0600 (Central Standard Time),553923.0,A,letterenter,O,enter,478,1,1599.199999999255,552323.8000000007,7034,WL,C,7.0
4,11.930000066757202,learn,48069.9999332428,Thu Nov 14 2024 17:10:33 GMT-0600 (Central Standard Time),554556.0,A,b,O,b,627,1,632.7999999998137,553923.2000000002,7034,WL,C,8.0
4,12.097000122070312,learn,47902.99987792969,Thu Nov 14 2024 17:10:33 GMT-0600 (Central Standard Time),554722.8000000007,A,bo,O,o,146,1,799.6000000005588,553923.2000000002,7034,WL,C,8.0
4,12.463000059127808,learn,47536.99994087219,Thu Nov 14 2024 17:10:33 GMT-0600 (Central Standard Time),555089.1000000006,A,bod,O,d,347,1,1165.9000000003725,553923.2000000002,7034,WL,C,8.0
4,13.095999956130981,learn,46904.00004386902,Thu Nov 14 2024 17:10:33 GMT-0600 (Central Standard Time),555722.4000000004,A,body,O,y,621,1,1799.2000000001863,553923.2000000002,7034,WL,C,8.0
4,13.345999956130981,learn,46654.00004386902,Thu Nov 14 2024 17:10:33 GMT-0600 (Central Standard Time),555972.3000000007,A,bodyenter,O,enter,244,1,2049.100000000559,553923.2000000002,7034,WL,C,8.0
4,13.962000131607056,learn,46037.999868392944,Thu Nov 14 2024 17:10:33 GMT-0600 (Central Standard Time),556588.7000000002,A,s,O,s,603,1,616.0999999996275,555972.6000000006,7034,WL,C,9.0
4,14.029000043869019,learn,45970.99995613098,Thu Nov 14 2024 17:10:33 GMT-0600 (Central Standard Time),556655.6000000006,A,sh,O,h,58,1,683.0,555972.6000000006,7034,WL,C,9.0
4,14.128999948501587,learn,45871.00005149841,Thu Nov 14 2024 17:10:33 GMT-0600 (Central Standard Time),556755.2000000002,A,sho,O,o,79,1,782.5999999996275,555972.6000000006,7034,WL,C,9.0
4,14.628999948501587,learn,45371.00005149841,Thu Nov 14 2024 17:10:33 GMT-0600 (Central Standard Time),557255.1000000006,A,shor,O,r,492,1,1282.5,555972.6000000006,7034,WL,C,9.0
4,14.746000051498413,learn,45253.99994850159,Thu Nov 14 2024 17:10:33 GMT-0600 (Central Standard Time),557371.8000000007,A,shore,O,e,103,1,1399.2000000001863,555972.6000000006,7034,WL,C,9.0
4,14.962000131607056,learn,45037.999868392944,Thu Nov 14 2024 17:10:33 GMT-0600 (Central Standard Time),557588.5,A,shoreenter,O,enter,202,1,1615.8999999994412,555972.6000000006,7034,WL,C,9.0
4,15.312000036239624,learn,44687.999963760376,Thu Nov 14 2024 17:10:33 GMT-0600 (Central Standard Time),557938.4000000004,A,b,O,b,338,1,349.59999999962747,557588.8000000007,7034,WL,C,10.0
4,15.495000123977661,learn,44504.99987602234,Thu Nov 14 2024 17:10:33 GMT-0600 (Central Standard Time),558121.6000000006,A,bo,O,o,172,1,532.7999999998137,557588.8000000007,7034,WL,C,10.0
4,15.712000131607056,learn,44287.999868392944,Thu Nov 14 2024 17:10:33 GMT-0600 (Central Standard Time),558338.4000000004,A,boy,O,y,196,1,749.5999999996275,557588.8000000007,7034,WL,C,10.0
4,16.24500012397766,learn,43754.99987602234,Thu Nov 14 2024 17:10:33 GMT-0600 (Central Standard Time),558871.5,A,boyenter,O,enter,515,1,1282.699999999255,557588.8000000007,7034,WL,C,10.0
4,16.778000116348267,learn,43221.99988365173,Thu Nov 14 2024 17:10:33 GMT-0600 (Central Standard Time),559404.5,A,n,O,n,518,1,532.6999999992549,558871.8000000007,7034,WL,C,11.0
4,16.944999933242798,learn,43055.0000667572,Thu Nov 14 2024 17:10:33 GMT-0600 (Central Standard Time),559571.2000000002,A,na,O,a,146,1,699.3999999994412,558871.8000000007,7034,WL,C,11.0
4,17.011000156402588,learn,42988.99984359741,Thu Nov 14 2024 17:10:33 GMT-0600 (Central Standard Time),559637.7000000002,A,nai,O,i,59,1,765.8999999994412,558871.8000000007,7034,WL,C,11.0
4,17.20900011062622,learn,42790.99988937378,Thu Nov 14 2024 17:10:33 GMT-0600 (Central Standard Time),559835.5,A,nail,O,l,193,1,963.6999999992549,558871.8000000007,7034,WL,C,11.0
4,17.447999954223633,learn,42552.00004577637,Thu Nov 14 2024 17:10:33 GMT-0600 (Central Standard Time),560073.9000000004,A,nailenter,O,enter,226,1,1202.0999999996275,558871.8000000007,7034,WL,C,11.0
4,23.493000030517578,learn,36506.99996948242,Thu Nov 14 2024 17:10:33 GMT-0600 (Central Standard Time),566119.0,A,c,O,c,6028,1,6044.899999999441,560074.1000000006,7034,WL,C,12.0
4,23.659000158309937,learn,36340.99984169006,Thu Nov 14 2024 17:10:33 GMT-0600 (Central Standard Time),566285.6000000006,A,ca,O,a,150,1,6211.5,560074.1000000006,7034,WL,C,12.0
4,23.743000030517578,learn,36256.99996948242,Thu Nov 14 2024 17:10:33 GMT-0600 (Central Standard Time),566368.9000000004,A,cam,O,m,64,1,6294.799999999814,560074.1000000006,7034,WL,C,12.0
4,23.89300012588501,learn,36106.99987411499,Thu Nov 14 2024 17:10:33 GMT-0600 (Central Standard Time),566519.1000000006,A,camp,O,p,142,1,6445.0,560074.1000000006,7034,WL,C,12.0
4,24.358999967575073,learn,35641.00003242493,Thu Nov 14 2024 17:10:33 GMT-0600 (Central Standard Time),566985.6000000006,A,campenter,O,enter,447,1,6911.5,560074.1000000006,7034,WL,C,12.0
4,34.9060001373291,learn,25093.9998626709,Thu Nov 14 2024 17:10:33 GMT-0600 (Central Standard Time),577532.3000000007,A,b,O,b,10532,1,10546.400000000373,566985.9000000004,7034,WL,C,13.0
4,35.039000034332275,learn,24960.999965667725,Thu Nov 14 2024 17:10:33 GMT-0600 (Central Standard Time),577665.5,A,bo,O,o,122,1,10679.599999999627,566985.9000000004,7034,WL,C,13.0
4,35.23900008201599,learn,24760.99991798401,Thu Nov 14 2024 17:10:33 GMT-0600 (Central Standard Time),577865.4000000004,A,boy,O,y,189,1,10879.5,566985.9000000004,7034,WL,C,13.0
4,35.92199993133545,learn,24078.00006866455,Thu Nov 14 2024 17:10:33 GMT-0600 (Central Standard Time),578548.5,A,boyenter,O,enter,676,1,11562.599999999627,566985.9000000004,7034,WL,C,13.0
4,48.68499994277954,learn,11315.000057220459,Thu Nov 14 2024 17:10:33 GMT-0600 (Central Standard Time),591311.2000000002,A,c,O,c,12746,1,12762.5,578548.7000000002,7034,WL,C,14.0
4,48.78600001335144,learn,11213.99998664856,Thu Nov 14 2024 17:10:33 GMT-0600 (Central Standard Time),591412.2000000002,A,ca,O,a,94,1,12863.5,578548.7000000002,7034,WL,C,14.0
4,49.3510000705719,learn,10648.9999294281,Thu Nov 14 2024 17:10:33 GMT-0600 (Central Standard Time),591977.6000000006,A,cat,O,t,553,1,13428.900000000373,578548.7000000002,7034,WL,C,14.0
4,49.53500008583069,learn,10464.999914169312,Thu Nov 14 2024 17:10:33 GMT-0600 (Central Standard Time),592160.9000000004,A,catt,O,t,172,1,13612.200000000186,578548.7000000002,7034,WL,C,14.0
4,49.651000022888184,learn,10348.999977111816,Thu Nov 14 2024 17:10:33 GMT-0600 (Central Standard Time),592277.6000000006,A,cattl,O,l,110,1,13728.900000000373,578548.7000000002,7034,WL,C,14.0
4,49.801000118255615,learn,10198.999881744385,Thu Nov 14 2024 17:10:33 GMT-0600 (Central Standard Time),592427.4000000004,A,cattle,O,e,144,1,13878.700000000186,578548.7000000002,7034,WL,C,14.0
4,50.06700015068054,learn,9932.999849319458,Thu Nov 14 2024 17:10:33 GMT-0600 (Central Standard Time),592694.0,A,cattleenter,O,enter,258,1,14145.299999999814,578548.7000000002,7034,WL,C,14.0
4,54.74900007247925,learn,5250.999927520752,Thu Nov 14 2024 17:10:33 GMT-0600 (Central Standard Time),597376.0,A,s,O,s,4672,1,4681.699999999255,592694.3000000007,7034,WL,C,15.0
4,54.865999937057495,learn,5134.000062942505,Thu Nov 14 2024 17:10:33 GMT-0600 (Central Standard Time),597492.7000000002,A,sh,O,h,102,1,4798.399999999441,592694.3000000007,7034,WL,C,15.0
4,54.931999921798706,learn,5068.000078201294,Thu Nov 14 2024 17:10:33 GMT-0600 (Central Standard Time),597559.2000000002,A,sho,O,o,57,1,4864.899999999441,592694.3000000007,7034,WL,C,15.0
4,55.098999977111816,learn,4901.000022888184,Thu Nov 14 2024 17:10:33 GMT-0600 (Central Standard Time),597725.8000000007,A,shor,O,r,152,1,5031.5,592694.3000000007,7034,WL,C,15.0
4,55.15000009536743,learn,4849.999904632568,Thu Nov 14 2024 17:10:33 GMT-0600 (Central Standard Time),597777.2000000002,A,shore,O,e,41,1,5082.899999999441,592694.3000000007,7034,WL,C,15.0
4,55.3989999294281,learn,4601.000070571899,Thu Nov 14 2024 17:10:33 GMT-0600 (Central Standard Time),598025.6000000006,A,shoreenter,O,enter,238,1,5331.299999999814,592694.3000000007,7034,WL,C,15.0
5,0.48399996757507324,learn,60000.0,Thu Nov 14 2024 17:10:33 GMT-0600 (Central Standard Time),667937.1000000006,A,h,O,h,465,1,483.29999999981374,667453.8000000007,7034,WL,C,1.0
5,0.5499999523162842,learn,60000.0,Thu Nov 14 2024 17:10:33 GMT-0600 (Central Standard Time),668003.6000000006,A,ho,O,o,52,1,549.7999999998137,667453.8000000007,7034,WL,C,1.0
5,0.7669999599456787,learn,60000.0,Thu Nov 14 2024 17:10:33 GMT-0600 (Central Standard Time),668220.2000000002,A,hom,O,m,202,1,766.3999999994412,667453.8000000007,7034,WL,C,1.0
5,0.8830001354217529,learn,60000.0,Thu Nov 14 2024 17:10:33 GMT-0600 (Central Standard Time),668336.7000000002,A,home,O,e,106,1,882.8999999994412,667453.8000000007,7034,WL,C,1.0
5,1.0499999523162842,learn,60000.0,Thu Nov 14 2024 17:10:33 GMT-0600 (Central Standard Time),668503.4000000004,A,homeenter,O,enter,157,1,1049.5999999996275,667453.8000000007,7034,WL,C,1.0
5,1.7669999599456787,learn,60000.0,Thu Nov 14 2024 17:10:33 GMT-0600 (Central Standard Time),669220.2000000002,A,c,O,c,710,1,716.5999999996275,668503.6000000006,7034,WL,C,2.0
5,2.1000001430511475,learn,60000.0,Thu Nov 14 2024 17:10:33 GMT-0600 (Central Standard Time),669553.5,A,ct,O,t,315,1,1049.8999999994412,668503.6000000006,7034,WL,C,2.0
5,2.25,learn,60000.0,Thu Nov 14 2024 17:10:33 GMT-0600 (Central Standard Time),669703.4000000004,A,ctt,O,t,141,1,1199.7999999998137,668503.6000000006,7034,WL,C,2.0
5,2.683000087738037,learn,60000.0,Thu Nov 14 2024 17:10:33 GMT-0600 (Central Standard Time),670136.6000000006,A,ct,O,backspace,414,1,1633.0,668503.6000000006,7034,WL,C,2.0
5,2.8330001831054688,learn,60000.0,Thu Nov 14 2024 17:10:33 GMT-0600 (Central Standard Time),670286.5,A,c,O,backspace,142,1,1782.8999999994412,668503.6000000006,7034,WL,C,2.0
5,2.933000087738037,learn,60000.0,Thu Nov 14 2024 17:10:33 GMT-0600 (Central Standard Time),670386.4000000004,A,ca,O,a,87,1,1882.7999999998137,668503.6000000006,7034,WL,C,2.0
5,3.299999952316284,learn,60000.0,Thu Nov 14 2024 17:10:33 GMT-0600 (Central Standard Time),670753.1000000006,A,cat,O,t,347,1,2249.5,668503.6000000006,7034,WL,C,2.0
5,3.433000087738037,learn,60000.0,Thu Nov 14 2024 17:10:33 GMT-0600 (Central Standard Time),670886.4000000004,A,catt,O,t,118,1,2382.7999999998137,668503.6000000006,7034,WL,C,2.0
5,3.565999984741211,learn,60000.0,Thu Nov 14 2024 17:10:33 GMT-0600 (Central Standard Time),671019.6000000006,A,cattl,O,l,119,1,2516.0,668503.6000000006,7034,WL,C,2.0
5,3.6660001277923584,learn,60000.0,Thu Nov 14 2024 17:10:33 GMT-0600 (Central Standard Time),671119.7000000002,A,cattle,O,e,83,1,2616.0999999996275,668503.6000000006,7034,WL,C,2.0
5,3.815999984741211,learn,60000.0,Thu Nov 14 2024 17:10:33 GMT-0600 (Central Standard Time),671269.3000000007,A,cattleenter,O,enter,142,1,2765.7000000001863,668503.6000000006,7034,WL,C,2.0
5,4.133000135421753,learn,60000.0,Thu Nov 14 2024 17:10:33 GMT-0600 (Central Standard Time),671586.1000000006,A,c,O,c,305,1,316.5,671269.6000000006,7034,WL,C,3.0
5,4.216000080108643,learn,60000.0,Thu Nov 14 2024 17:10:33 GMT-0600 (Central Standard Time),671669.4000000004,A,co,O,o,77,1,399.79999999981374,671269.6000000006,7034,WL,C,3.0
5,4.383000135421753,learn,60000.0,Thu Nov 14 2024 17:10:33 GMT-0600 (Central Standard Time),671836.1000000006,A,cor,O,r,152,1,566.5,671269.6000000006,7034,WL,C,3.0
5,4.5329999923706055,learn,60000.0,Thu Nov 14 2024 17:10:33 GMT-0600 (Central Standard Time),671986.0,A,corn,O,n,130,1,716.3999999994412,671269.6000000006,7034,WL,C,3.0
5,4.949000120162964,learn,60000.0,Thu Nov 14 2024 17:10:33 GMT-0600 (Central Standard Time),672402.5,A,cornenter,O,enter,404,1,1132.8999999994412,671269.6000000006,7034,WL,C,3.0
5,6.815000057220459,learn,60000.0,Thu Nov 14 2024 17:10:33 GMT-0600 (Central Standard Time),674268.6000000006,A,n,O,n,1852,1,1865.7999999998137,672402.8000000007,7034,WL,C,4.0
5,6.932000160217285,learn,60000.0,Thu Nov 14 2024 17:10:33 GMT-0600 (Central Standard Time),674385.1000000006,A,na,O,a,106,1,1982.2999999998137,672402.8000000007,7034,WL,C,4.0
5,6.998000144958496,learn,60000.0,Thu Nov 14 2024 17:10:33 GMT-0600 (Central Standard Time),674451.7000000002,A,nai,O,i,60,1,2048.899999999441,672402.8000000007,7034,WL,C,4.0
5,7.164999961853027,learn,60000.0,Thu Nov 14 2024 17:10:33 GMT-0600 (Central Standard Time),674618.7000000002,A,nail,O,l,146,1,2215.899999999441,672402.8000000007,7034,WL,C,4.0
5,7.414999961853027,learn,60000.0,Thu Nov 14 2024 17:10:33 GMT-0600 (Central Standard Time),674868.3000000007,A,nailenter,O,enter,236,1,2465.5,672402.8000000007,7034,WL,C,4.0
5,9.031000137329102,learn,60000.0,Thu Nov 14 2024 17:10:33 GMT-0600 (Central Standard Time),676484.6000000006,A,b,O,b,1609,1,1615.7999999998137,674868.8000000007,7034,WL,C,5.0
5,9.180999994277954,learn,60000.0,Thu Nov 14 2024 17:10:33 GMT-0600 (Central Standard Time),676634.5,A,bo,O,o,137,1,1765.699999999255,674868.8000000007,7034,WL,C,5.0
5,9.397000074386597,learn,60000.0,Thu Nov 14 2024 17:10:33 GMT-0600 (Central Standard Time),676851.0,A,bod,O,d,211,1,1982.199999999255,674868.8000000007,7034,WL,C,5.0
5,9.514000177383423,learn,60000.0,Thu Nov 14 2024 17:10:33 GMT-0600 (Central Standard Time),676967.9000000004,A,body,O,y,108,1,2099.0999999996275,674868.8000000007,7034,WL,C,5.0
5,9.730999946594238,learn,60000.0,Thu Nov 14 2024 17:10:33 GMT-0600 (Central Standard Time),677184.4000000004,A,bodyenter,O,enter,198,1,2315.5999999996275,674868.8000000007,7034,WL,C,5.0
5,10.259999990463257,learn,60000.0,Thu Nov 14 2024 17:10:33 GMT-0600 (Central Standard Time),677713.9000000004,A,b,O,b,508,1,529.2000000001863,677184.7000000002,7034,WL,C,6.0
5,10.330000162124634,learn,60000.0,Thu Nov 14 2024 17:10:33 GMT-0600 (Central Standard Time),677783.6000000006,A,bo,O,o,60,1,598.9000000003725,677184.7000000002,7034,WL,C,6.0
5,10.680999994277954,learn,60000.0,Thu Nov 14 2024 17:10:33 GMT-0600 (Central Standard Time),678134.1000000006,A,boy,O,y,342,1,949.4000000003725,677184.7000000002,7034,WL,C,6.0
5,10.94700002670288,learn,60000.0,Thu Nov 14 2024 17:10:33 GMT-0600 (Central Standard Time),678400.6000000006,A,boyenter,O,enter,247,1,1215.9000000003725,677184.7000000002,7034,WL,C,6.0
5,11.547000169754028,learn,60000.0,Thu Nov 14 2024 17:10:33 GMT-0600 (Central Standard Time),679000.5,A,d,O,d,581,1,599.5999999996275,678400.9000000004,7034,WL,C,7.0
5,11.63100004196167,learn,60000.0,Thu Nov 14 2024 17:10:33 GMT-0600 (Central Standard Time),679084.8000000007,A,do,O,o,77,1,683.9000000003725,678400.9000000004,7034,WL,C,7.0
5,11.730000019073486,learn,60000.0,Thu Nov 14 2024 17:10:33 GMT-0600 (Central Standard Time),679183.9000000004,A,doc,O,c,89,1,783.0,678400.9000000004,7034,WL,C,7.0
5,11.930000066757202,learn,60000.0,Thu Nov 14 2024 17:10:33 GMT-0600 (Central Standard Time),679383.5,A,doct,O,t,190,1,982.5999999996275,678400.9000000004,7034,WL,C,7.0
5,12.013000011444092,learn,60000.0,Thu Nov 14 2024 17:10:33 GMT-0600 (Central Standard Time),679466.9000000004,A,docto,O,o,62,1,1066.0,678400.9000000004,7034,WL,C,7.0
5,12.164000034332275,learn,60000.0,Thu Nov 14 2024 17:10:33 GMT-0600 (Central Standard Time),679617.1000000006,A,doctor,O,r,140,1,1216.2000000001863,678400.9000000004,7034,WL,C,7.0
5,12.380000114440918,learn,60000.0,Thu Nov 14 2024 17:10:33 GMT-0600 (Central Standard Time),679833.2000000002,A,doctorenter,O,enter,196,1,1432.2999999998137,678400.9000000004,7034,WL,C,7.0
5,12.61300015449524,learn,60000.0,Thu Nov 14 2024 17:10:33 GMT-0600 (Central Standard Time),680066.9000000004,A,l,O,l,221,1,233.40000000037253,679833.5,7034,WL,C,8.0
5,12.69700002670288,learn,60000.0,Thu Nov 14 2024 17:10:33 GMT-0600 (Central Standard Time),680150.1000000006,A,le,O,e,68,1,316.6000000005588,679833.5,7034,WL,C,8.0
5,12.797000169754028,learn,60000.0,Thu Nov 14 2024 17:10:33 GMT-0600 (Central Standard Time),680250.0,A,let,O,t,89,1,416.5,679833.5,7034,WL,C,8.0
5,12.913000106811523,learn,60000.0,Thu Nov 14 2024 17:10:33 GMT-0600 (Central Standard Time),680366.4000000004,A,lett,O,t,109,1,532.9000000003725,679833.5,7034,WL,C,8.0
5,13.046000003814697,learn,60000.0,Thu Nov 14 2024 17:10:33 GMT-0600 (Central Standard Time),680499.9000000004,A,lette,O,e,127,1,666.4000000003725,679833.5,7034,WL,C,8.0
5,13.130000114440918,learn,60000.0,Thu Nov 14 2024 17:10:33 GMT-0600 (Central Standard Time),680583.1000000006,A,letter,O,r,67,1,749.6000000005588,679833.5,7034,WL,C,8.0
5,13.52999997138977,learn,60000.0,Thu Nov 14 2024 17:10:33 GMT-0600 (Central Standard Time),680983.1000000006,A,letterenter,O,enter,382,1,1149.6000000005588,679833.5,7034,WL,C,8.0
5,15.095999956130981,learn,60000.0,Thu Nov 14 2024 17:10:33 GMT-0600 (Central Standard Time),682549.4000000004,A,s,O,s,1551,1,1566.0,680983.4000000004,7034,WL,C,9.0
5,15.17900013923645,learn,60000.0,Thu Nov 14 2024 17:10:33 GMT-0600 (Central Standard Time),682632.6000000006,A,sh,O,h,73,1,1649.2000000001863,680983.4000000004,7034,WL,C,9.0
5,15.279000043869019,learn,60000.0,Thu Nov 14 2024 17:10:33 GMT-0600 (Central Standard Time),682732.6000000006,A,sho,O,o,86,1,1749.2000000001863,680983.4000000004,7034,WL,C,9.0
5,15.412000179290771,learn,60000.0,Thu Nov 14 2024 17:10:33 GMT-0600 (Central Standard Time),682865.8000000007,A,shor,O,r,113,1,1882.4000000003725,680983.4000000004,7034,WL,C,9.0
5,15.463000059127808,learn,60000.0,Thu Nov 14 2024 17:10:33 GMT-0600 (Central Standard Time),682916.1000000006,A,shore,O,e,36,1,1932.7000000001863,680983.4000000004,7034,WL,C,9.0
5,15.979000091552734,learn,60000.0,Thu Nov 14 2024 17:10:33 GMT-0600 (Central Standard Time),683432.5,A,shoreenter,O,enter,498,1,2449.0999999996275,680983.4000000004,7034,WL,C,9.0
5,17.545000076293945,learn,60000.0,Thu Nov 14 2024 17:10:33 GMT-0600 (Central Standard Time),684998.3000000007,A,u,O,u,1558,1,1565.5,683432.8000000007,7034,WL,C,10.0
5,17.91200017929077,learn,60000.0,Thu Nov 14 2024 17:10:33 GMT-0600 (Central Standard Time),685365.1000000006,A,,O,backspace,359,1,1932.2999999998137,683432.8000000007,7034,WL,C,10.0
5,18.16100001335144,learn,60000.0,Thu Nov 14 2024 17:10:33 GMT-0600 (Central Standard Time),685614.8000000007,A,q,O,q,234,1,2182.0,683432.8000000007,7034,WL,C,10.0
5,18.34500002861023,learn,60000.0,Thu Nov 14 2024 17:10:33 GMT-0600 (Central Standard Time),685798.2000000002,A,qu,O,u,167,1,2365.399999999441,683432.8000000007,7034,WL,C,10.0
5,18.462000131607056,learn,60000.0,Thu Nov 14 2024 17:10:33 GMT-0600 (Central Standard Time),685915.1000000006,A,que,O,e,97,1,2482.2999999998137,683432.8000000007,7034,WL,C,10.0
5,18.628000020980835,learn,60000.0,Thu Nov 14 2024 17:10:33 GMT-0600 (Central Standard Time),686081.5,A,quee,O,e,156,1,2648.699999999255,683432.8000000007,7034,WL,C,10.0
5,18.728000164031982,learn,60000.0,Thu Nov 14 2024 17:10:33 GMT-0600 (Central Standard Time),686181.5,A,queen,O,n,85,1,2748.699999999255,683432.8000000007,7034,WL,C,10.0
5,18.944000005722046,learn,60000.0,Thu Nov 14 2024 17:10:33 GMT-0600 (Central Standard Time),686397.8000000007,A,queenenter,O,enter,201,1,2965.0,683432.8000000007,7034,WL,C,10.0
5,19.611000061035156,learn,60000.0,Thu Nov 14 2024 17:10:33 GMT-0600 (Central Standard Time),687064.7000000002,A,w,O,w,649,1,666.7000000001863,686398.0,7034,WL,C,11.0
5,19.74399995803833,learn,60000.0,Thu Nov 14 2024 17:10:33 GMT-0600 (Central Standard Time),687197.9000000004,A,wh,O,h,126,1,799.9000000003725,686398.0,7034,WL,C,11.0
5,19.861000061035156,learn,60000.0,Thu Nov 14 2024 17:10:33 GMT-0600 (Central Standard Time),687314.6000000006,A,whe,O,e,104,1,916.6000000005588,686398.0,7034,WL,C,11.0
5,19.960999965667725,learn,60000.0,Thu Nov 14 2024 17:10:33 GMT-0600 (Central Standard Time),687414.3000000007,A,whea,O,a,84,1,1016.3000000007451,686398.0,7034,WL,C,11.0
5,20.24399995803833,learn,60000.0,Thu Nov 14 2024 17:10:33 GMT-0600 (Central Standard Time),687697.7000000002,A,wheat,O,t,273,1,1299.7000000001863,686398.0,7034,WL,C,11.0
5,20.49399995803833,learn,60000.0,Thu Nov 14 2024 17:10:33 GMT-0600 (Central Standard Time),687947.8000000007,A,wheatenter,O,enter,235,1,1549.800000000745,686398.0,7034,WL,C,11.0
5,20.944000005722046,learn,60000.0,Thu Nov 14 2024 17:10:33 GMT-0600 (Central Standard Time),688397.5,A,t,O,t,442,1,449.3999999994412,687948.1000000006,7034,WL,C,12.0
5,21.061000108718872,learn,60000.0,Thu Nov 14 2024 17:10:33 GMT-0600 (Central Standard Time),688514.0,A,to,O,o,105,1,565.8999999994412,687948.1000000006,7034,WL,C,12.0
5,21.111000061035156,learn,60000.0,Thu Nov 14 2024 17:10:33 GMT-0600 (Central Standard Time),688564.2000000002,A,tow,O,w,44,1,616.0999999996275,687948.1000000006,7034,WL,C,12.0
5,21.344000101089478,learn,60000.0,Thu Nov 14 2024 17:10:33 GMT-0600 (Central Standard Time),688797.3000000007,A,towe,O,e,218,1,849.2000000001863,687948.1000000006,7034,WL,C,12.0
5,21.41100001335144,learn,60000.0,Thu Nov 14 2024 17:10:33 GMT-0600 (Central Standard Time),688864.2000000002,A,tower,O,r,58,1,916.0999999996275,687948.1000000006,7034,WL,C,12.0
5,21.944000005722046,learn,60000.0,Thu Nov 14 2024 17:10:33 GMT-0600 (Central Standard Time),689397.0,A,towerenter,O,enter,527,1,1448.8999999994412,687948.1000000006,7034,WL,C,12.0
5,22.794000148773193,learn,60000.0,Thu Nov 14 2024 17:10:33 GMT-0600 (Central Standard Time),690247.1000000006,A,s,O,s,841,1,849.7999999998137,689397.3000000007,7034,WL,C,13.0
5,22.91000008583069,learn,60000.0,Thu Nov 14 2024 17:10:33 GMT-0600 (Central Standard Time),690363.6000000006,A,su,O,u,103,1,966.2999999998137,689397.3000000007,7034,WL,C,13.0
5,22.993000030517578,learn,60000.0,Thu Nov 14 2024 17:10:33 GMT-0600 (Central Standard Time),690446.8000000007,A,sug,O,g,75,1,1049.5,689397.3000000007,7034,WL,C,13.0
5,23.042999982833862,learn,60000.0,Thu Nov 14 2024 17:10:33 GMT-0600 (Central Standard Time),690496.7000000002,A,suga,O,a,40,1,1099.3999999994412,689397.3000000007,7034,WL,C,13.0
5,23.177000045776367,learn,60000.0,Thu Nov 14 2024 17:10:33 GMT-0600 (Central Standard Time),690630.0,A,sugar,O,r,117,1,1232.699999999255,689397.3000000007,7034,WL,C,13.0
5,23.493000030517578,learn,60000.0,Thu Nov 14 2024 17:10:33 GMT-0600 (Central Standard Time),690946.6000000006,A,sugarenter,O,enter,304,1,1549.2999999998137,689397.3000000007,7034,WL,C,13.0
5,40.22099995613098,learn,60000.0,Thu Nov 14 2024 17:10:33 GMT-0600 (Central Standard Time),707674.5,A,c,O,c,16715,1,16727.599999999627,690946.9000000004,7034,WL,C,14.0
5,40.37100005149841,learn,60000.0,Thu Nov 14 2024 17:10:33 GMT-0600 (Central Standard Time),707824.2000000002,A,ca,O,a,131,1,16877.299999999814,690946.9000000004,7034,WL,C,14.0
5,40.38800001144409,learn,60000.0,Thu Nov 14 2024 17:10:33 GMT-0600 (Central Standard Time),707841.0,A,cam,O,m,0,1,16894.099999999627,690946.9000000004,7034,WL,C,14.0
5,40.55400013923645,learn,60000.0,Thu Nov 14 2024 17:10:33 GMT-0600 (Central Standard Time),708007.5,A,camp,O,p,149,1,17060.599999999627,690946.9000000004,7034,WL,C,14.0
5,40.75399994850159,learn,60000.0,Thu Nov 14 2024 17:10:33 GMT-0600 (Central Standard Time),708207.5,A,campenter,O,enter,190,1,17260.599999999627,690946.9000000004,7034,WL,C,14.0
5,54.93300008773804,learn,60000.0,Thu Nov 14 2024 17:10:33 GMT-0600 (Central Standard Time),722386.8000000007,A,l,O,l,14167,1,14179.100000000559,708207.7000000002,7034,WL,C,15.0
5,55.116000175476074,learn,60000.0,Thu Nov 14 2024 17:10:33 GMT-0600 (Central Standard Time),722570.3000000007,A,le,O,e,172,1,14362.600000000559,708207.7000000002,7034,WL,C,15.0
5,55.449000120162964,learn,60000.0,Thu Nov 14 2024 17:10:33 GMT-0600 (Central Standard Time),722903.3000000007,A,let,O,t,324,1,14695.600000000559,708207.7000000002,7034,WL,C,15.0
5,55.64900016784668,learn,60000.0,Thu Nov 14 2024 17:10:33 GMT-0600 (Central Standard Time),723103.3000000007,A,lett,O,t,183,1,14895.600000000559,708207.7000000002,7034,WL,C,15.0
5,55.81599998474121,learn,60000.0,Thu Nov 14 2024 17:10:33 GMT-0600 (Central Standard Time),723270.0,A,lette,O,e,150,1,15062.299999999814,708207.7000000002,7034,WL,C,15.0
5,56.14900016784668,learn,60000.0,Thu Nov 14 2024 17:10:33 GMT-0600 (Central Standard Time),723602.8000000007,A,lett,O,backspace,328,1,15395.100000000559,708207.7000000002,7034,WL,C,15.0
5,56.51600003242493,learn,60000.0,Thu Nov 14 2024 17:10:33 GMT-0600 (Central Standard Time),723969.8000000007,A,let,O,backspace,347,1,15762.100000000559,708207.7000000002,7034,WL,C,15.0
5,56.64900016784668,learn,60000.0,Thu Nov 14 2024 17:10:33 GMT-0600 (Central Standard Time),724102.9000000004,A,le,O,backspace,124,1,15895.200000000186,708207.7000000002,7034,WL,C,15.0
5,56.79900002479553,learn,60000.0,Thu Nov 14 2024 17:10:33 GMT-0600 (Central Standard Time),724253.0,A,l,O,backspace,143,1,16045.299999999814,708207.7000000002,7034,WL,C,15.0
5,56.96600008010864,learn,60000.0,Thu Nov 14 2024 17:10:33 GMT-0600 (Central Standard Time),724419.5,A,,O,backspace,154,1,16211.799999999814,708207.7000000002,7034,WL,C,15.0
5,60.081000089645386,learn,60000.0,Thu Nov 14 2024 17:10:33 GMT-0600 (Central Standard Time),727535.1000000006,A,b,O,b,3107,1,19327.400000000373,708207.7000000002,7034,WL,C,15.0
6,1.5840001106262207,distr,58415.99988937378,Thu Nov 14 2024 17:10:33 GMT-0600 (Central Standard Time),798963.0,B,h,O,h,1572,1,1583.0,797380.0,7034,WL,C,1.0
6,1.7000000476837158,distr,58299.999952316284,Thu Nov 14 2024 17:10:33 GMT-0600 (Central Standard Time),799079.6000000006,B,ho,O,o,99,1,1699.6000000005588,797380.0,7034,WL,C,1.0
6,1.8500001430511475,distr,58149.99985694885,Thu Nov 14 2024 17:10:33 GMT-0600 (Central Standard Time),799229.2000000002,B,hot,O,t,142,1,1849.2000000001863,797380.0,7034,WL,C,1.0
6,1.9670000076293945,distr,58032.999992370605,Thu Nov 14 2024 17:10:33 GMT-0600 (Central Standard Time),799346.1000000006,B,hote,O,e,106,1,1966.1000000005588,797380.0,7034,WL,C,1.0
6,2.1000001430511475,distr,57899.99985694885,Thu Nov 14 2024 17:10:33 GMT-0600 (Central Standard Time),799479.2000000002,B,hotel,O,l,125,1,2099.2000000001863,797380.0,7034,WL,C,1.0
6,2.767000198364258,distr,57232.99980163574,Thu Nov 14 2024 17:10:33 GMT-0600 (Central Standard Time),800145.9000000004,B,hotelenter,O,enter,656,1,2765.9000000003725,797380.0,7034,WL,C,1.0
6,3.3000001907348633,distr,56699.99980926514,Thu Nov 14 2024 17:10:33 GMT-0600 (Central Standard Time),800678.9000000004,B,m,O,m,516,1,532.7999999998137,800146.1000000006,7034,WL,C,2.0
6,3.366000175476074,distr,56633.999824523926,Thu Nov 14 2024 17:10:33 GMT-0600 (Central Standard Time),800745.7000000002,B,mo,O,o,56,1,599.5999999996275,800146.1000000006,7034,WL,C,2.0
6,3.5490000247955322,distr,56450.99997520447,Thu Nov 14 2024 17:10:33 GMT-0600 (Central Standard Time),800928.8000000007,B,mon,O,n,173,1,782.7000000001863,800146.1000000006,7034,WL,C,2.0
6,3.633000135421753,distr,56366.99986457825,Thu Nov 14 2024 17:10:33 GMT-0600 (Central Standard Time),801012.2000000002,B,mone,O,e,78,1,866.0999999996275,800146.1000000006,7034,WL,C,2.0
6,3.7990000247955322,distr,56200.99997520447,Thu Nov 14 2024 17:10:33 GMT-0600 (Central Standard Time),801178.5,B,money,O,y,154,1,1032.3999999994412,800146.1000000006,7034,WL,C,2.0
6,3.999000072479248,distr,56000.99992752075,Thu Nov 14 2024 17:10:33 GMT-0600 (Central Standard Time),801378.6000000006,B,moneyenter,O,enter,188,1,1232.5,800146.1000000006,7034,WL,C,2.0
6,4.266000032424927,distr,55733.99996757507,Thu Nov 14 2024 17:10:33 GMT-0600 (Central Standard Time),801645.2000000002,B,c,O,c,260,1,266.29999999981374,801378.9000000004,7034,WL,C,3.0
6,4.416000127792358,distr,55583.99987220764,Thu Nov 14 2024 17:10:33 GMT-0600 (Central Standard Time),801795.0,B,ch,O,h,130,1,416.09999999962747,801378.9000000004,7034,WL,C,3.0
6,4.549000024795532,distr,55450.99997520447,Thu Nov 14 2024 17:10:33 GMT-0600 (Central Standard Time),801928.7000000002,B,chr,O,r,124,1,549.7999999998137,801378.9000000004,7034,WL,C,3.0
6,4.666000127792358,distr,55333.99987220764,Thu Nov 14 2024 17:10:33 GMT-0600 (Central Standard Time),802045.1000000006,B,chri,O,i,102,1,666.2000000001863,801378.9000000004,7034,WL,C,3.0
6,4.732000112533569,distr,55267.99988746643,Thu Nov 14 2024 17:10:33 GMT-0600 (Central Standard Time),802111.9000000004,B,chris,O,s,50,1,733.0,801378.9000000004,7034,WL,C,3.0
6,4.832000017166138,distr,55167.99998283386,Thu Nov 14 2024 17:10:33 GMT-0600 (Central Standard Time),802211.5,B,christ,O,t,87,1,832.5999999996275,801378.9000000004,7034,WL,C,3.0
6,5.0990002155303955,distr,54900.999784469604,Thu Nov 14 2024 17:10:33 GMT-0600 (Central Standard Time),802478.2000000002,B,christm,O,m,259,1,1099.2999999998137,801378.9000000004,7034,WL,C,3.0
6,5.249000072479248,distr,54750.99992752075,Thu Nov 14 2024 17:10:33 GMT-0600 (Central Standard Time),802628.4000000004,B,christma,O,a,136,1,1249.5,801378.9000000004,7034,WL,C,3.0
6,6.0320000648498535,distr,53967.99993515015,Thu Nov 14 2024 17:10:33 GMT-0600 (Central Standard Time),803411.4000000004,B,christmas,O,s,770,1,2032.5,801378.9000000004,7034,WL,C,3.0
6,6.499000072479248,distr,53500.99992752075,Thu Nov 14 2024 17:10:33 GMT-0600 (Central Standard Time),803878.1000000006,B,christmasenter,O,enter,451,1,2499.2000000001863,801378.9000000004,7034,WL,C,3.0
6,7.632000207901001,distr,52367.999792099,Thu Nov 14 2024 17:10:33 GMT-0600 (Central Standard Time),805010.9000000004,B,d,O,d,1121,1,1132.5,803878.4000000004,7034,WL,C,4.0
6,7.765000104904175,distr,52234.999895095825,Thu Nov 14 2024 17:10:33 GMT-0600 (Central Standard Time),805144.1000000006,B,di,O,i,124,1,1265.7000000001863,803878.4000000004,7034,WL,C,4.0
6,7.898000001907349,distr,52101.99999809265,Thu Nov 14 2024 17:10:33 GMT-0600 (Central Standard Time),805277.6000000006,B,dia,O,a,126,1,1399.2000000001863,803878.4000000004,7034,WL,C,4.0
6,8.031000137329102,distr,51968.9998626709,Thu Nov 14 2024 17:10:33 GMT-0600 (Central Standard Time),805410.8000000007,B,diam,O,m,112,1,1532.4000000003725,803878.4000000004,7034,WL,C,4.0
6,8.199000120162964,distr,51800.999879837036,Thu Nov 14 2024 17:10:33 GMT-0600 (Central Standard Time),805578.7000000002,B,diamo,O,o,147,1,1700.2999999998137,803878.4000000004,7034,WL,C,4.0
6,8.315000057220459,distr,51684.99994277954,Thu Nov 14 2024 17:10:33 GMT-0600 (Central Standard Time),805693.9000000004,B,diamon,O,n,107,1,1815.5,803878.4000000004,7034,WL,C,4.0
6,8.964000225067139,distr,51035.99977493286,Thu Nov 14 2024 17:10:33 GMT-0600 (Central Standard Time),806343.8000000007,B,diamond,O,d,632,1,2465.4000000003725,803878.4000000004,7034,WL,C,4.0
6,9.564000129699707,distr,50435.99987030029,Thu Nov 14 2024 17:10:33 GMT-0600 (Central Standard Time),806943.8000000007,B,diamondenter,O,enter,591,1,3065.4000000003725,803878.4000000004,7034,WL,C,4.0
6,13.946000099182129,distr,46053.99990081787,Thu Nov 14 2024 17:10:33 GMT-0600 (Central Standard Time),811325.8000000007,B,s,O,s,4367,1,4381.700000000186,806944.1000000006,7034,WL,C,5.0
6,14.046000003814697,distr,45953.9999961853,Thu Nov 14 2024 17:10:33 GMT-0600 (Central Standard Time),811425.5,B,sk,O,k,89,1,4481.399999999441,806944.1000000006,7034,WL,C,5.0
6,14.28000020980835,distr,45719.99979019165,Thu Nov 14 2024 17:10:33 GMT-0600 (Central Standard Time),811659.0,B,sky,O,y,229,1,4714.899999999441,806944.1000000006,7034,WL,C,5.0
6,14.796000003814697,distr,45203.9999961853,Thu Nov 14 2024 17:10:33 GMT-0600 (Central Standard Time),812175.4000000004,B,skyenter,O,enter,500,1,5231.299999999814,806944.1000000006,7034,WL,C,5.0
6,27.259000062942505,distr,32740.999937057495,Thu Nov 14 2024 17:10:33 GMT-0600 (Central Standard Time),824638.1000000006,B,v,O,v,12447,1,12462.400000000373,812175.7000000002,7034,WL,C,6.0
6,27.392000198364258,distr,32607.999801635742,Thu Nov 14 2024 17:10:33 GMT-0600 (Central Standard Time),824771.4000000004,B,va,O,a,120,1,12595.700000000186,812175.7000000002,7034,WL,C,6.0
6,27.54200005531311,distr,32457.99994468689,Thu Nov 14 2024 17:10:33 GMT-0600 (Central Standard Time),824921.4000000004,B,val,O,l,130,1,12745.700000000186,812175.7000000002,7034,WL,C,6.0
6,27.692000150680542,distr,32307.999849319458,Thu Nov 14 2024 17:10:33 GMT-0600 (Central Standard Time),825071.3000000007,B,vall,O,l,141,1,12895.600000000559,812175.7000000002,7034,WL,C,6.0
6,27.825000047683716,distr,32174.999952316284,Thu Nov 14 2024 17:10:33 GMT-0600 (Central Standard Time),825204.6000000006,B,valle,O,e,120,1,13028.900000000373,812175.7000000002,7034,WL,C,6.0
6,28.02500009536743,distr,31974.99990463257,Thu Nov 14 2024 17:10:33 GMT-0600 (Central Standard Time),825404.5,B,valley,O,y,185,1,13228.799999999814,812175.7000000002,7034,WL,C,6.0
6,28.29200005531311,distr,31707.99994468689,Thu Nov 14 2024 17:10:33 GMT-0600 (Central Standard Time),825670.9000000004,B,valleyenter,O,enter,250,1,13495.200000000186,812175.7000000002,7034,WL,C,6.0
6,60.015000104904175,distr,-15.000104904174805,Thu Nov 14 2024 17:10:33 GMT-0600 (Central Standard Time),857394.6000000006,B,None,O,None,31719,1,31723.299999999814,825671.3000000007,7034,WL,C,7.0
7,2.450000047683716,immed,57549.999952316284,Thu Nov 14 2024 17:10:33 GMT-0600 (Central Standard Time),872756.3000000007,A,h,O,h,2444,1,2449.100000000559,870307.2000000002,7034,WL,C,1.0
7,2.5329999923706055,immed,57467.000007629395,Thu Nov 14 2024 17:10:33 GMT-0600 (Central Standard Time),872839.7000000002,A,ho,O,o,66,1,2532.5,870307.2000000002,7034,WL,C,1.0
7,2.8330001831054688,immed,57166.99981689453,Thu Nov 14 2024 17:10:33 GMT-0600 (Central Standard Time),873139.4000000004,A,hom,O,m,295,1,2832.2000000001863,870307.2000000002,7034,WL,C,1.0
7,3.499000072479248,immed,56500.99992752075,Thu Nov 14 2024 17:10:33 GMT-0600 (Central Standard Time),873806.0,A,home,O,e,652,1,3498.7999999998137,870307.2000000002,7034,WL,C,1.0
7,4.598999977111816,immed,55401.00002288818,Thu Nov 14 2024 17:10:33 GMT-0600 (Central Standard Time),874905.8000000007,A,homeenter,O,enter,1080,1,4598.600000000559,870307.2000000002,7034,WL,C,1.0
7,5.116000175476074,immed,54883.999824523926,Thu Nov 14 2024 17:10:33 GMT-0600 (Central Standard Time),875422.2000000002,A,b,O,b,508,1,516.0999999996275,874906.1000000006,7034,WL,C,2.0
7,5.598999977111816,immed,54401.00002288818,Thu Nov 14 2024 17:10:33 GMT-0600 (Central Standard Time),875905.5,A,bo,O,o,464,1,999.3999999994412,874906.1000000006,7034,WL,C,2.0
7,5.848999977111816,immed,54151.00002288818,Thu Nov 14 2024 17:10:33 GMT-0600 (Central Standard Time),876155.4000000004,A,bod,O,d,237,1,1249.2999999998137,874906.1000000006,7034,WL,C,2.0
7,6.049000024795532,immed,53950.99997520447,Thu Nov 14 2024 17:10:33 GMT-0600 (Central Standard Time),876355.1000000006,A,body,O,y,179,1,1449.0,874906.1000000006,7034,WL,C,2.0
7,6.332000017166138,immed,53667.99998283386,Thu Nov 14 2024 17:10:33 GMT-0600 (Central Standard Time),876638.6000000006,A,bodyenter,O,enter,275,1,1732.5,874906.1000000006,7034,WL,C,2.0
7,6.898000001907349,immed,53101.99999809265,Thu Nov 14 2024 17:10:33 GMT-0600 (Central Standard Time),877205.0,A,l,O,l,560,1,566.0999999996275,876638.9000000004,7034,WL,C,3.0
7,7.015000104904175,immed,52984.999895095825,Thu Nov 14 2024 17:10:33 GMT-0600 (Central Standard Time),877321.7000000002,A,le,O,e,105,1,682.7999999998137,876638.9000000004,7034,WL,C,3.0
7,7.3480000495910645,immed,52651.999950408936,Thu Nov 14 2024 17:10:33 GMT-0600 (Central Standard Time),877655.0,A,let,O,t,325,1,1016.0999999996275,876638.9000000004,7034,WL,C,3.0
7,7.465000152587891,immed,52534.99984741211,Thu Nov 14 2024 17:10:33 GMT-0600 (Central Standard Time),877771.3000000007,A,lete,O,e,111,1,1132.4000000003725,876638.9000000004,7034,WL,C,3.0
7,7.615000009536743,immed,52384.99999046326,Thu Nov 14 2024 17:10:33 GMT-0600 (Central Standard Time),877921.5,A,leter,O,r,139,1,1282.5999999996275,876638.9000000004,7034,WL,C,3.0
7,8.098000049591064,immed,51901.999950408936,Thu Nov 14 2024 17:10:33 GMT-0600 (Central Standard Time),878404.7000000002,A,lete,O,backspace,469,1,1765.7999999998137,876638.9000000004,7034,WL,C,3.0
7,8.264000177383423,immed,51735.99982261658,Thu Nov 14 2024 17:10:33 GMT-0600 (Central Standard Time),878570.8000000007,A,let,O,backspace,146,1,1931.9000000003725,876638.9000000004,7034,WL,C,3.0
7,8.398000001907349,immed,51601.99999809265,Thu Nov 14 2024 17:10:33 GMT-0600 (Central Standard Time),878704.6000000006,A,le,O,backspace,116,1,2065.7000000001863,876638.9000000004,7034,WL,C,3.0
7,8.447999954223633,immed,51552.00004577637,Thu Nov 14 2024 17:10:33 GMT-0600 (Central Standard Time),878754.7000000002,A,let,O,t,37,1,2115.7999999998137,876638.9000000004,7034,WL,C,3.0
7,8.814000129699707,immed,51185.99987030029,Thu Nov 14 2024 17:10:33 GMT-0600 (Central Standard Time),879121.0,A,lete,O,e,356,1,2482.0999999996275,876638.9000000004,7034,WL,C,3.0
7,8.930999994277954,immed,51069.000005722046,Thu Nov 14 2024 17:10:33 GMT-0600 (Central Standard Time),879237.8000000007,A,leter,O,r,102,1,2598.9000000003725,876638.9000000004,7034,WL,C,3.0
7,9.398000001907349,immed,50601.99999809265,Thu Nov 14 2024 17:10:33 GMT-0600 (Central Standard Time),879704.2000000002,A,lete,O,backspace,457,1,3065.2999999998137,876638.9000000004,7034,WL,C,3.0
7,9.63100004196167,immed,50368.99995803833,Thu Nov 14 2024 17:10:33 GMT-0600 (Central Standard Time),879937.7000000002,A,let,O,backspace,214,1,3298.7999999998137,876638.9000000004,7034,WL,C,3.0
7,9.797000169754028,immed,50202.99983024597,Thu Nov 14 2024 17:10:33 GMT-0600 (Central Standard Time),880104.1000000006,A,lett,O,t,157,1,3465.2000000001863,876638.9000000004,7034,WL,C,3.0
7,10.031000137329102,immed,49968.9998626709,Thu Nov 14 2024 17:10:33 GMT-0600 (Central Standard Time),880337.4000000004,A,lette,O,e,223,1,3698.5,876638.9000000004,7034,WL,C,3.0
7,10.13100004196167,immed,49868.99995803833,Thu Nov 14 2024 17:10:33 GMT-0600 (Central Standard Time),880437.3000000007,A,letter,O,r,85,1,3798.4000000003725,876638.9000000004,7034,WL,C,3.0
7,10.314000129699707,immed,49685.99987030029,Thu Nov 14 2024 17:10:33 GMT-0600 (Central Standard Time),880620.6000000006,A,letterenter,O,enter,169,1,3981.7000000001863,876638.9000000004,7034,WL,C,3.0
7,10.680999994277954,immed,49319.000005722046,Thu Nov 14 2024 17:10:33 GMT-0600 (Central Standard Time),880987.5,A,c,O,c,346,1,366.5,880621.0,7034,WL,C,4.0
7,10.764000177383423,immed,49235.99982261658,Thu Nov 14 2024 17:10:33 GMT-0600 (Central Standard Time),881070.6000000006,A,ca,O,a,75,1,449.6000000005588,880621.0,7034,WL,C,4.0
7,11.014000177383423,immed,48985.99982261658,Thu Nov 14 2024 17:10:33 GMT-0600 (Central Standard Time),881320.3000000007,A,cat,O,t,240,1,699.3000000007451,880621.0,7034,WL,C,4.0
7,11.180000066757202,immed,48819.9999332428,Thu Nov 14 2024 17:10:33 GMT-0600 (Central Standard Time),881486.9000000004,A,catt,O,t,158,1,865.9000000003725,880621.0,7034,WL,C,4.0
7,11.297000169754028,immed,48702.99983024597,Thu Nov 14 2024 17:10:33 GMT-0600 (Central Standard Time),881603.9000000004,A,cattl,O,l,104,1,982.9000000003725,880621.0,7034,WL,C,4.0
7,11.46399998664856,immed,48536.00001335144,Thu Nov 14 2024 17:10:33 GMT-0600 (Central Standard Time),881770.2000000002,A,cattle,O,e,155,1,1149.2000000001863,880621.0,7034,WL,C,4.0
7,11.746999979019165,immed,48253.000020980835,Thu Nov 14 2024 17:10:33 GMT-0600 (Central Standard Time),882053.5,A,cattleenter,O,enter,268,1,1432.5,880621.0,7034,WL,C,4.0
7,13.812999963760376,immed,46187.000036239624,Thu Nov 14 2024 17:10:33 GMT-0600 (Central Standard Time),884119.5,A,t,O,t,2049,1,2065.5999999996275,882053.9000000004,7034,WL,C,5.0
7,13.913000106811523,immed,46086.99989318848,Thu Nov 14 2024 17:10:33 GMT-0600 (Central Standard Time),884219.6000000006,A,to,O,o,79,1,2165.7000000001863,882053.9000000004,7034,WL,C,5.0
7,13.963000059127808,immed,46036.99994087219,Thu Nov 14 2024 17:10:33 GMT-0600 (Central Standard Time),884269.1000000006,A,tow,O,w,43,1,2215.2000000001863,882053.9000000004,7034,WL,C,5.0
7,14.446000099182129,immed,45553.99990081787,Thu Nov 14 2024 17:10:33 GMT-0600 (Central Standard Time),884752.7000000002,A,towe,O,e,474,1,2698.7999999998137,882053.9000000004,7034,WL,C,5.0
7,14.628999948501587,immed,45371.00005149841,Thu Nov 14 2024 17:10:33 GMT-0600 (Central Standard Time),884936.0,A,tower,O,r,166,1,2882.0999999996275,882053.9000000004,7034,WL,C,5.0
7,14.92900013923645,immed,45070.99986076355,Thu Nov 14 2024 17:10:33 GMT-0600 (Central Standard Time),885235.9000000004,A,towerenter,O,enter,287,1,3182.0,882053.9000000004,7034,WL,C,5.0
7,16.394999980926514,immed,43605.000019073486,Thu Nov 14 2024 17:10:33 GMT-0600 (Central Standard Time),886702.0,A,w,O,w,1451,1,1465.7999999998137,885236.2000000002,7034,WL,C,6.0
7,16.962000131607056,immed,43037.999868392944,Thu Nov 14 2024 17:10:33 GMT-0600 (Central Standard Time),887268.6000000006,A,wh,O,h,553,1,2032.4000000003725,885236.2000000002,7034,WL,C,6.0
7,17.09500002861023,immed,42904.99997138977,Thu Nov 14 2024 17:10:33 GMT-0600 (Central Standard Time),887402.0,A,whe,O,e,122,1,2165.7999999998137,885236.2000000002,7034,WL,C,6.0
7,17.195000171661377,immed,42804.99982833862,Thu Nov 14 2024 17:10:33 GMT-0600 (Central Standard Time),887501.8000000007,A,whea,O,a,93,1,2265.600000000559,885236.2000000002,7034,WL,C,6.0
7,17.32800006866455,immed,42671.99993133545,Thu Nov 14 2024 17:10:33 GMT-0600 (Central Standard Time),887634.9000000004,A,wheat,O,t,113,1,2398.7000000001863,885236.2000000002,7034,WL,C,6.0
7,17.712000131607056,immed,42287.999868392944,Thu Nov 14 2024 17:10:33 GMT-0600 (Central Standard Time),888018.3000000007,A,wheatenter,O,enter,363,1,2782.100000000559,885236.2000000002,7034,WL,C,6.0
7,18.210999965667725,immed,41789.000034332275,Thu Nov 14 2024 17:10:33 GMT-0600 (Central Standard Time),888518.0,A,s,O,s,492,1,499.5,888018.5,7034,WL,C,7.0
7,18.361000061035156,immed,41638.999938964844,Thu Nov 14 2024 17:10:33 GMT-0600 (Central Standard Time),888667.8000000007,A,su,O,u,145,1,649.3000000007451,888018.5,7034,WL,C,7.0
7,18.445000171661377,immed,41554.99982833862,Thu Nov 14 2024 17:10:33 GMT-0600 (Central Standard Time),888751.3000000007,A,sug,O,g,75,1,732.8000000007451,888018.5,7034,WL,C,7.0
7,18.511000156402588,immed,41488.99984359741,Thu Nov 14 2024 17:10:33 GMT-0600 (Central Standard Time),888818.0,A,suga,O,a,55,1,799.5,888018.5,7034,WL,C,7.0
7,18.628000020980835,immed,41371.999979019165,Thu Nov 14 2024 17:10:33 GMT-0600 (Central Standard Time),888935.0,A,sugar,O,r,109,1,916.5,888018.5,7034,WL,C,7.0
7,18.812000036239624,immed,41187.999963760376,Thu Nov 14 2024 17:10:33 GMT-0600 (Central Standard Time),889118.1000000006,A,sugarenter,O,enter,176,1,1099.6000000005588,888018.5,7034,WL,C,7.0
7,19.157999992370605,immed,40842.000007629395,Thu Nov 14 2024 17:10:33 GMT-0600 (Central Standard Time),889464.8000000007,A,o,O,o,343,1,346.30000000074506,889118.5,7034,WL,C,8.0
7,19.305999994277954,immed,40694.000005722046,Thu Nov 14 2024 17:10:33 GMT-0600 (Central Standard Time),889612.1000000006,A,or,O,r,143,1,493.6000000005588,889118.5,7034,WL,C,8.0
7,19.427000045776367,immed,40572.99995422363,Thu Nov 14 2024 17:10:33 GMT-0600 (Central Standard Time),889734.1000000006,A,orn,O,n,113,1,615.6000000005588,889118.5,7034,WL,C,8.0
7,19.794000148773193,immed,40205.99985122681,Thu Nov 14 2024 17:10:33 GMT-0600 (Central Standard Time),890101.0,A,or,O,backspace,361,1,982.5,889118.5,7034,WL,C,8.0
7,19.944000005722046,immed,40055.999994277954,Thu Nov 14 2024 17:10:33 GMT-0600 (Central Standard Time),890251.1000000006,A,o,O,backspace,146,1,1132.6000000005588,889118.5,7034,WL,C,8.0
7,20.094000101089478,immed,39905.99989891052,Thu Nov 14 2024 17:10:33 GMT-0600 (Central Standard Time),890401.0,A,,O,backspace,140,1,1282.5,889118.5,7034,WL,C,8.0
7,20.17799997329712,immed,39822.00002670288,Thu Nov 14 2024 17:10:33 GMT-0600 (Central Standard Time),890484.1000000006,A,c,O,c,78,1,1365.6000000005588,889118.5,7034,WL,C,8.0
7,20.32800006866455,immed,39671.99993133545,Thu Nov 14 2024 17:10:33 GMT-0600 (Central Standard Time),890634.2000000002,A,co,O,o,130,1,1515.7000000001863,889118.5,7034,WL,C,8.0
7,20.444000005722046,immed,39555.999994277954,Thu Nov 14 2024 17:10:33 GMT-0600 (Central Standard Time),890750.9000000004,A,cor,O,r,100,1,1632.4000000003725,889118.5,7034,WL,C,8.0
7,20.561000108718872,immed,39438.99989128113,Thu Nov 14 2024 17:10:33 GMT-0600 (Central Standard Time),890867.2000000002,A,corn,O,n,112,1,1748.7000000001863,889118.5,7034,WL,C,8.0
7,20.878000020980835,immed,39121.999979019165,Thu Nov 14 2024 17:10:33 GMT-0600 (Central Standard Time),891184.2000000002,A,cornenter,O,enter,308,1,2065.7000000001863,889118.5,7034,WL,C,8.0
7,22.278000116348267,immed,37721.99988365173,Thu Nov 14 2024 17:10:33 GMT-0600 (Central Standard Time),892584.3000000007,A,c,O,c,1390,1,1399.9000000003725,891184.4000000004,7034,WL,C,9.0
7,22.39300012588501,immed,37606.99987411499,Thu Nov 14 2024 17:10:33 GMT-0600 (Central Standard Time),892700.1000000006,A,ca,O,a,110,1,1515.7000000001863,891184.4000000004,7034,WL,C,9.0
7,22.509999990463257,immed,37490.00000953674,Thu Nov 14 2024 17:10:33 GMT-0600 (Central Standard Time),892816.9000000004,A,cat,O,t,107,1,1632.5,891184.4000000004,7034,WL,C,9.0
7,22.693000078201294,immed,37306.999921798706,Thu Nov 14 2024 17:10:33 GMT-0600 (Central Standard Time),893000.1000000006,A,catt,O,t,166,1,1815.7000000001863,891184.4000000004,7034,WL,C,9.0
7,22.776000022888184,immed,37223.99997711182,Thu Nov 14 2024 17:10:33 GMT-0600 (Central Standard Time),893083.3000000007,A,cattl,O,l,79,1,1898.9000000003725,891184.4000000004,7034,WL,C,9.0
7,22.926000118255615,immed,37073.999881744385,Thu Nov 14 2024 17:10:33 GMT-0600 (Central Standard Time),893233.3000000007,A,cattle,O,e,131,1,2048.9000000003725,891184.4000000004,7034,WL,C,9.0
7,23.37600016593933,immed,36623.99983406067,Thu Nov 14 2024 17:10:33 GMT-0600 (Central Standard Time),893683.2000000002,A,cattleenter,O,enter,445,1,2498.7999999998137,891184.4000000004,7034,WL,C,9.0
7,23.759999990463257,immed,36240.00000953674,Thu Nov 14 2024 17:10:33 GMT-0600 (Central Standard Time),894066.3000000007,A,b,O,b,371,1,382.80000000074506,893683.5,7034,WL,C,10.0
