acc_sum,block_c,block_dur,condition,correct,correct_response,countdown,datetime,endtime,project,response,response_time,response_time_test1_response,response_time_test2_response,row_sel,same,session_number,start_end,starttime,stim1,stim2,subject_id,task,task_vers,time_test1,time_test2,trial
1,1,0.0,prac,1,z,30000.0,Mon Jan 27 2025 14:45:11 GMT-0600 (Central Standard Time),44297.5,O,z,1729,,,1,yes,1,3262.0,41035.5,practrial1.png,practrial1.png,7043,PC,C,,,1
2,1,0.0,prac,1,m,30000.0,Mon Jan 27 2025 14:45:11 GMT-0600 (Central Standard Time),47846.700000000186,O,m,2014,,,4,no,1,3544.7000000001863,44302.0,practrial4.png,practrial4b.png,7043,PC,C,,,2
2,1,0.0,prac,0,m,30000.0,Mon Jan 27 2025 14:45:11 GMT-0600 (Central Standard Time),50728.799999999814,O,z,1354,,,6,no,1,2878.5,47850.299999999814,practrial6.png,practrial6b.png,7043,PC,C,,,3
3,1,0.0,prac,1,z,30000.0,Mon Jan 27 2025 14:45:11 GMT-0600 (Central Standard Time),53644.700000000186,O,z,1384,,,5,yes,1,2912.2999999998137,50732.40000000037,practrial5.png,practrial5.png,7043,PC,C,,,4
4,1,0.0,prac,1,m,30000.0,Mon Jan 27 2025 14:45:11 GMT-0600 (Central Standard Time),56243.90000000037,O,m,1060,,,2,no,1,2595.600000000559,53648.299999999814,practrial2.png,practrial2b.png,7043,PC,C,,,5
4,1,0.0,prac,0,z,30000.0,Mon Jan 27 2025 14:45:11 GMT-0600 (Central Standard Time),59359.299999999814,O,m,1589,,,3,yes,1,3111.399999999441,56247.90000000037,practrial3.png,practrial3.png,7043,PC,C,,,6
1,1,2.0160000324249268,test,1,z,27983.999967575073,Mon Jan 27 2025 14:45:11 GMT-0600 (Central Standard Time),66290.60000000056,O,z,2000,2000,,1,yes,1,2013.5,64277.10000000056,test1trial1.png,test1trial1.png,7043,PC,C,55303,,1
2,1,4.098999977111816,test,1,m,25901.000022888184,Mon Jan 27 2025 14:45:11 GMT-0600 (Central Standard Time),68373.29999999981,O,m,2063,2063,,2,no,1,2079.2999999998137,66294.0,test1trial2.png,test1trial2b.png,7043,PC,C,57320,,2
2,1,5.832000017166138,test,0,z,24167.999982833862,Mon Jan 27 2025 14:45:11 GMT-0600 (Central Standard Time),70106.20000000019,O,m,1716,1716,,3,yes,1,1729.9000000003725,68376.29999999981,test1trial3.png,test1trial3.png,7043,PC,C,59403,,3
3,1,7.480999946594238,test,1,m,22519.00005340576,Mon Jan 27 2025 14:45:11 GMT-0600 (Central Standard Time),71755.5,O,m,1640,1640,,4,no,1,1646.7000000001863,70108.79999999981,test1trial4.png,test1trial4b.png,7043,PC,C,61135,,4
4,1,8.829999923706055,test,1,z,21170.000076293945,Mon Jan 27 2025 14:45:11 GMT-0600 (Central Standard Time),73105.10000000056,O,z,1342,1342,,5,yes,1,1346.7000000001863,71758.40000000037,test1trial5.png,test1trial5.png,7043,PC,C,62785,,5
5,1,10.02999997138977,test,1,m,19970.00002861023,Mon Jan 27 2025 14:45:11 GMT-0600 (Central Standard Time),74304.70000000019,O,m,1192,1192,,6,no,1,1196.7000000001863,73108.0,test1trial6.png,test1trial6b.png,7043,PC,C,64135,,6
6,1,11.679999828338623,test,1,z,18320.000171661377,Mon Jan 27 2025 14:45:11 GMT-0600 (Central Standard Time),75954.20000000019,O,z,1633,1633,,7,yes,1,1646.5,74307.70000000019,test1trial7.png,test1trial7.png,7043,PC,C,65334,,7
6,1,13.595999956130981,test,0,m,16404.00004386902,Mon Jan 27 2025 14:45:11 GMT-0600 (Central Standard Time),77870.20000000019,O,z,1904,1904,,8,no,1,1913.0999999996275,75957.10000000056,test1trial8.png,test1trial8b.png,7043,PC,C,66983,,8
7,1,14.777999877929688,test,1,z,15222.000122070312,Mon Jan 27 2025 14:45:11 GMT-0600 (Central Standard Time),79052.90000000037,O,z,1172,1172,,9,yes,1,1179.7000000001863,77873.20000000019,test1trial9.png,test1trial9.png,7043,PC,C,68900,,9
8,1,16.046000003814697,test,1,m,13953.999996185303,Mon Jan 27 2025 14:45:11 GMT-0600 (Central Standard Time),80320.60000000056,O,m,1258,1258,,10,no,1,1262.2000000001863,79058.40000000037,test1trial10.png,test1trial10b.png,7043,PC,C,70085,,10
8,1,17.74399995803833,test,0,z,12256.00004196167,Mon Jan 27 2025 14:45:11 GMT-0600 (Central Standard Time),82019.0,O,m,1681,1681,,11,yes,1,1695.5,80323.5,test1trial11.png,test1trial11.png,7043,PC,C,71350,,11
8,1,19.194000005722046,test,0,m,10805.999994277954,Mon Jan 27 2025 14:45:11 GMT-0600 (Central Standard Time),83468.60000000056,O,z,1431,1431,,12,no,1,1446.800000000745,82021.79999999981,test1trial12.png,test1trial12b.png,7043,PC,C,73048,,12
9,1,20.3439998626709,test,1,m,9656.000137329102,Mon Jan 27 2025 14:45:11 GMT-0600 (Central Standard Time),84618.29999999981,O,m,1141,1141,,13,no,1,1147.0,83471.29999999981,test1trial13.png,test1trial13b.png,7043,PC,C,74498,,13
10,1,22.292999982833862,test,1,m,7707.000017166138,Mon Jan 27 2025 14:45:11 GMT-0600 (Central Standard Time),86567.29999999981,O,m,1944,1944,,14,no,1,1946.199999999255,84621.10000000056,test1trial14.png,test1trial14b.png,7043,PC,C,75647,,14
11,1,23.542999982833862,test,1,z,6457.000017166138,Mon Jan 27 2025 14:45:11 GMT-0600 (Central Standard Time),87817.20000000019,O,z,1235,1235,,15,yes,1,1247.2000000001863,86570.0,test1trial15.png,test1trial15.png,7043,PC,C,77596,,15
12,1,24.70899987220764,test,1,m,5291.000127792358,Mon Jan 27 2025 14:45:11 GMT-0600 (Central Standard Time),88983.60000000056,O,m,1145,1145,,16,no,1,1163.800000000745,87819.79999999981,test1trial16.png,test1trial16b.png,7043,PC,C,78846,,16
13,1,28.2739999294281,test,1,z,1726.0000705718994,Mon Jan 27 2025 14:45:11 GMT-0600 (Central Standard Time),92549.10000000056,O,z,3554,3554,,17,yes,1,3562.5,88986.60000000056,test1trial17.png,test1trial17.png,7043,PC,C,80013,,17
14,1,29.35800004005432,test,1,m,641.9999599456787,Mon Jan 27 2025 14:45:11 GMT-0600 (Central Standard Time),93633.0,O,m,1077,1077,,18,no,1,1081.2000000001863,92551.79999999981,test1trial18.png,test1trial18b.png,7043,PC,C,83578,,18
14,1,30.007999897003174,test,0,m,-7.999897003173828,Mon Jan 27 2025 14:45:11 GMT-0600 (Central Standard Time),94282.20000000019,O,None,644,644,,19,no,1,646.2999999998137,93635.90000000037,test1trial19.png,test1trial19b.png,7043,PC,C,84662,,19
1,2,2.1500000953674316,test,1,m,27849.99990463257,Mon Jan 27 2025 14:45:11 GMT-0600 (Central Standard Time),99380.5,O,m,2131,,2131.0,1,no,1,5744.5999999996275,93635.90000000037,test2trial1.png,test2trial1b.png,7043,PC,C,,88260.0,1
2,2,3.366000175476074,test,1,m,26633.999824523926,Mon Jan 27 2025 14:45:11 GMT-0600 (Central Standard Time),100596.60000000056,O,m,1205,,1205.0,2,no,1,6960.700000000186,93635.90000000037,test2trial2.png,test2trial2b.png,7043,PC,C,,90410.0,2
3,2,4.664999961853027,test,1,z,25335.000038146973,Mon Jan 27 2025 14:45:11 GMT-0600 (Central Standard Time),101896.10000000056,O,z,1286,,1286.0,3,yes,1,8260.200000000186,93635.90000000037,test2trial3.png,test2trial3.png,7043,PC,C,,91625.0,3
4,2,5.79800009727478,test,1,z,24201.99990272522,Mon Jan 27 2025 14:45:11 GMT-0600 (Central Standard Time),103029.0,O,z,1114,,1114.0,4,yes,1,9393.099999999627,93635.90000000037,test2trial4.png,test2trial4.png,7043,PC,C,,92925.0,4
5,2,7.29800009727478,test,1,z,22701.99990272522,Mon Jan 27 2025 14:45:11 GMT-0600 (Central Standard Time),104528.60000000056,O,z,1493,,1493.0,5,yes,1,10892.700000000186,93635.90000000037,test2trial5.png,test2trial5.png,7043,PC,C,,94058.0,5
6,2,8.781000137329102,test,1,z,21218.9998626709,Mon Jan 27 2025 14:45:11 GMT-0600 (Central Standard Time),106011.5,O,z,1466,,1466.0,6,yes,1,12375.599999999627,93635.90000000037,test2trial6.png,test2trial6.png,7043,PC,C,,95557.0,6
7,2,9.847000122070312,test,1,m,20152.999877929688,Mon Jan 27 2025 14:45:11 GMT-0600 (Central Standard Time),107078.0,O,m,1054,,1054.0,7,no,1,13442.099999999627,93635.90000000037,test2trial7.png,test2trial7b.png,7043,PC,C,,97041.0,7
8,2,11.463000059127808,test,1,m,18536.999940872192,Mon Jan 27 2025 14:45:11 GMT-0600 (Central Standard Time),108694.0,O,m,1604,,1604.0,8,no,1,15058.099999999627,93635.90000000037,test2trial8.png,test2trial8b.png,7043,PC,C,,98107.0,8
9,2,13.845999956130981,test,1,z,16154.000043869019,Mon Jan 27 2025 14:45:11 GMT-0600 (Central Standard Time),111076.60000000056,O,z,2372,,2372.0,9,yes,1,17440.700000000186,93635.90000000037,test2trial9.png,test2trial9.png,7043,PC,C,,99723.0,9
10,2,15.162000179290771,test,1,z,14837.999820709229,Mon Jan 27 2025 14:45:11 GMT-0600 (Central Standard Time),112392.90000000037,O,z,1301,,1301.0,10,yes,1,18757.0,93635.90000000037,test2trial10.png,test2trial10.png,7043,PC,C,,102106.0,10
11,2,16.76200008392334,test,1,m,13237.99991607666,Mon Jan 27 2025 14:45:11 GMT-0600 (Central Standard Time),113992.60000000056,O,m,1585,,1585.0,11,no,1,20356.700000000186,93635.90000000037,test2trial11.png,test2trial11b.png,7043,PC,C,,103422.0,11
12,2,18.89400005340576,test,1,m,11105.999946594238,Mon Jan 27 2025 14:45:11 GMT-0600 (Central Standard Time),116124.90000000037,O,m,2121,,2121.0,12,no,1,22489.0,93635.90000000037,test2trial12.png,test2trial12b.png,7043,PC,C,,105022.0,12
13,2,20.094000101089478,test,1,z,9905.999898910522,Mon Jan 27 2025 14:45:11 GMT-0600 (Central Standard Time),117324.5,O,z,1189,,1189.0,13,yes,1,23688.599999999627,93635.90000000037,test2trial13.png,test2trial13.png,7043,PC,C,,107154.0,13
14,2,21.3270001411438,test,1,m,8672.999858856201,Mon Jan 27 2025 14:45:11 GMT-0600 (Central Standard Time),118557.70000000019,O,m,1222,,1222.0,14,no,1,24921.799999999814,93635.90000000037,test2trial14.png,test2trial14b.png,7043,PC,C,,108353.0,14
15,2,22.542999982833862,test,1,m,7457.000017166138,Mon Jan 27 2025 14:45:11 GMT-0600 (Central Standard Time),119774.0,O,m,1196,,1196.0,15,no,1,26138.099999999627,93635.90000000037,test2trial15.png,test2trial15b.png,7043,PC,C,,109587.0,15
15,2,23.742000102996826,test,0,m,6257.999897003174,Mon Jan 27 2025 14:45:11 GMT-0600 (Central Standard Time),120973.40000000037,O,z,1188,,1188.0,16,no,1,27337.5,93635.90000000037,test2trial16.png,test2trial16b.png,7043,PC,C,,110803.0,16
16,2,24.942000150680542,test,1,z,5057.999849319458,Mon Jan 27 2025 14:45:11 GMT-0600 (Central Standard Time),122173.0,O,z,1189,,1189.0,17,yes,1,28537.099999999627,93635.90000000037,test2trial17.png,test2trial17.png,7043,PC,C,,112002.0,17
17,2,26.475000143051147,test,1,z,3524.9998569488525,Mon Jan 27 2025 14:45:11 GMT-0600 (Central Standard Time),123706.10000000056,O,z,1517,,1517.0,18,yes,1,30070.200000000186,93635.90000000037,test2trial18.png,test2trial18.png,7043,PC,C,,113202.0,18
18,2,28.85700011253357,test,1,z,1142.9998874664307,Mon Jan 27 2025 14:45:11 GMT-0600 (Central Standard Time),126088.20000000019,O,z,2375,,2375.0,19,yes,1,32452.299999999814,93635.90000000037,test2trial19.png,test2trial19.png,7043,PC,C,,114735.0,19
18,2,30.006999969482422,test,0,z,-6.999969482421875,Mon Jan 27 2025 14:45:11 GMT-0600 (Central Standard Time),127238.20000000019,O,None,1145,,1145.0,20,yes,1,33602.299999999814,93635.90000000037,test2trial20.png,test2trial20.png,7043,PC,C,,117117.0,20
