acc_sum,block_c,block_dur,condition,correct,correct_response,countdown,datetime,endtime,project,response,response_time,response_time_test1_response,response_time_test2_response,row_sel,same,session_number,start_end,starttime,stim1,stim2,subject_id,task,task_vers,time_test1,time_test2,trial
1,1,0.0,prac,1,m,30000.0,Mon Mar 24 2025 11:16:27 GMT-0500 (Central Daylight Time),36476.5,I,m,3745,,,5,no,1,5277.10000000149,31199.39999999851,LNDPRSKQB,LNDPRSJQB,8036,LC,A,,,1
2,1,0.0,prac,1,m,30000.0,Mon Mar 24 2025 11:16:27 GMT-0500 (Central Daylight Time),40042.199999999255,I,m,2040,,,1,no,1,3561.0999999996275,36481.09999999963,RNV,FNV,8036,LC,A,,,2
3,1,0.0,prac,1,z,30000.0,Mon Mar 24 2025 11:16:27 GMT-0500 (Central Daylight Time),45423.89999999851,I,z,3857,,,2,yes,1,5376.89999999851,40047.0,NBGFSM,NBGFSM,8036,LC,A,,,3
4,1,0.0,prac,1,z,30000.0,Mon Mar 24 2025 11:16:27 GMT-0500 (Central Daylight Time),50555.59999999963,I,z,3596,,,6,yes,1,5127.300000000745,45428.29999999888,CSDBFPHXZ,CSDBFPHXZ,8036,LC,A,,,4
5,1,0.0,prac,1,z,30000.0,Mon Mar 24 2025 11:16:27 GMT-0500 (Central Daylight Time),53404.5,I,z,1312,,,4,yes,1,2844.60000000149,50559.89999999851,RSM,RSM,8036,LC,A,,,5
6,1,0.0,prac,1,m,30000.0,Mon Mar 24 2025 11:16:27 GMT-0500 (Central Daylight Time),59352.699999999255,I,m,4423,,,3,no,1,5943.5,53409.199999999255,QHZXPC,QHZWPC,8036,LC,A,,,6
1,1,2.115000009536743,test,1,m,27884.999990463257,Mon Mar 24 2025 11:16:27 GMT-0500 (Central Daylight Time),66433.79999999888,I,m,2096,2096,,1,no,1,2113.2999999988824,64320.5,HCF,RCF,8036,LC,A,62342,,1
1,1,4.131999969482422,test,0,m,25868.000030517578,Mon Mar 24 2025 11:16:27 GMT-0500 (Central Daylight Time),68449.89999999851,I,z,2011,2011,,2,no,1,2012.699999999255,66437.19999999925,QTPRJX,QTPNJX,8036,LC,A,64459,,2
1,1,6.914000034332275,test,0,m,23085.999965667725,Mon Mar 24 2025 11:16:27 GMT-0500 (Central Daylight Time),71232.29999999888,I,z,2763,2763,,3,no,1,2778.9000000003725,68453.39999999851,MZDYGVGKQ,MZDYGLBKQ,8036,LC,A,66475,,3
2,1,8.962999820709229,test,1,m,21037.00017929077,Mon Mar 24 2025 11:16:27 GMT-0500 (Central Daylight Time),73281.59999999963,I,m,2038,2038,,4,no,1,2046.0999999996275,71235.5,FQTNMK,JQTNMK,8036,LC,A,69257,,4
3,1,10.828999996185303,test,1,z,19171.000003814697,Mon Mar 24 2025 11:16:27 GMT-0500 (Central Daylight Time),75147.59999999963,I,z,1859,1859,,5,yes,1,1862.300000000745,73285.29999999888,CLJ,CLJ,8036,LC,A,71307,,5
3,1,13.461999893188477,test,0,m,16538.000106811523,Mon Mar 24 2025 11:16:27 GMT-0500 (Central Daylight Time),77780.29999999888,I,z,2618,2618,,6,no,1,2629.4000000003725,75150.89999999851,JGDMNSVPW,JGZMNSVPW,8036,LC,A,73172,,6
4,1,17.5939998626709,test,1,z,12406.000137329102,Mon Mar 24 2025 11:16:27 GMT-0500 (Central Daylight Time),81912.09999999963,I,z,4121,4121,,7,yes,1,4128.5,77783.59999999963,FPTVHKCBJ,FPTVHKCBJ,8036,LC,A,75805,,7
5,1,19.342999935150146,test,1,m,10657.000064849854,Mon Mar 24 2025 11:16:27 GMT-0500 (Central Daylight Time),83661.59999999963,I,m,1742,1742,,8,no,1,1746.4000000003725,81915.19999999925,XRPZBS,ZRPBDH,8036,LC,A,79937,,8
6,1,22.075999975204468,test,1,m,7924.000024795532,Mon Mar 24 2025 11:16:27 GMT-0500 (Central Daylight Time),86394.0,I,m,2727,2727,,9,no,1,2728.60000000149,83665.39999999851,ZSQ,ZSP,8036,LC,A,81687,,9
7,1,25.22499990463257,test,1,z,4775.000095367432,Mon Mar 24 2025 11:16:27 GMT-0500 (Central Daylight Time),89543.29999999888,I,z,3139,3139,,10,yes,1,3146.0,86397.29999999888,MPZRXL,MPZRXL,8036,LC,A,84419,,10
8,1,28.2739999294281,test,1,m,1726.0000705718994,Mon Mar 24 2025 11:16:27 GMT-0500 (Central Daylight Time),92592.19999999925,I,m,3030,3030,,11,no,1,3045.699999999255,89546.5,KJH,KRH,8036,LC,A,87568,,11
8,1,30.006999969482422,test,0,z,-6.999969482421875,Mon Mar 24 2025 11:16:27 GMT-0500 (Central Daylight Time),94325.29999999888,I,None,1729,1729,,12,yes,1,1729.7999999988824,92595.5,SMNHVTFCB,SMNHVTFCB,8036,LC,A,90617,,12
1,2,3.765000104904175,test,1,z,26234.999895095825,Mon Mar 24 2025 11:16:27 GMT-0500 (Central Daylight Time),100423.19999999925,I,z,3757,,3757.0,1,yes,1,7827.699999999255,92595.5,PRDBZTYFN,PRDBZTYFN,8036,LC,A,,94682.0,1
1,2,6.499000072479248,test,0,m,23500.999927520752,Mon Mar 24 2025 11:16:27 GMT-0500 (Central Daylight Time),103156.79999999888,I,z,2718,,2718.0,2,no,1,10561.299999998882,92595.5,NCWJDZ,NCMJDZ,8036,LC,A,,98448.0,2
2,2,8.013999938964844,test,1,m,21986.000061035156,Mon Mar 24 2025 11:16:27 GMT-0500 (Central Daylight Time),104671.89999999851,I,m,1504,,1504.0,3,no,1,12076.39999999851,92595.5,KHW,KBW,8036,LC,A,,101182.0,3
2,2,10.345999956130981,test,0,m,19654.00004386902,Mon Mar 24 2025 11:16:27 GMT-0500 (Central Daylight Time),107004.39999999851,I,z,2325,,2325.0,4,no,1,14408.89999999851,92595.5,ZRBGMF,ZRBCMF,8036,LC,A,,102697.0,4
3,2,12.046000003814697,test,1,m,17953.999996185303,Mon Mar 24 2025 11:16:27 GMT-0500 (Central Daylight Time),108703.79999999888,I,m,1681,,1681.0,5,no,1,16108.299999998882,92595.5,BTH,BYH,8036,LC,A,,105029.0,5
4,2,15.561000108718872,test,1,z,14438.999891281128,Mon Mar 24 2025 11:16:27 GMT-0500 (Central Daylight Time),112219.39999999851,I,z,3501,,3501.0,6,yes,1,19623.89999999851,92595.5,XWKQRYCNZ,XWKQRYCNZ,8036,LC,A,,106729.0,6
5,2,19.26099991798401,test,1,z,10739.000082015991,Mon Mar 24 2025 11:16:27 GMT-0500 (Central Daylight Time),115919.09999999963,I,z,3682,,3682.0,7,yes,1,23323.599999999627,92595.5,HNPDLK,HNPDLK,8036,LC,A,,110244.0,7
5,2,22.77500009536743,test,0,m,7224.999904632568,Mon Mar 24 2025 11:16:27 GMT-0500 (Central Daylight Time),119433.69999999925,I,z,3503,,3503.0,8,no,1,26838.199999999255,92595.5,WMQTRSGLZ,WMQTRZGLZ,8036,LC,A,,113944.0,8
6,2,25.308000087738037,test,1,z,4691.999912261963,Mon Mar 24 2025 11:16:27 GMT-0500 (Central Daylight Time),121966.5,I,z,2516,,2516.0,9,yes,1,29371.0,92595.5,JPN,JPN,8036,LC,A,,117458.0,9
6,2,30.006999969482422,test,0,m,-6.999969482421875,Mon Mar 24 2025 11:16:27 GMT-0500 (Central Daylight Time),126665.29999999888,I,None,4695,,4695.0,10,no,1,34069.79999999888,92595.5,QLXSVT,QLNSVT,8036,LC,A,,119991.0,10
