Number,acc_sum,block,block_c,block_cond,con_img,correct,correct_response,datetime,endtime,jitter,project,response,response_time,row_sel,session_number,start_end,starttime,subject_id,task,task_vers,trial
3,1,prac,1,A,circle.png,1,z,Thu Mar 06 2025 17:38:53 GMT-0600 (Central Standard Time),74181.29999999702,1200,O,z,821,3,1,2810.2000000029802,71371.09999999404,7080,NTS,C,1
7,2,prac,1,A,circle.png,1,m,Thu Mar 06 2025 17:38:53 GMT-0600 (Central Standard Time),77411.89999999851,1700,O,m,748,6,1,3222.39999999851,74189.5,7080,NTS,C,2
9,3,prac,1,A,circle.png,1,m,Thu Mar 06 2025 17:38:53 GMT-0600 (Central Standard Time),80393.89999999851,1500,O,m,691,8,1,2974.7000000029802,77419.19999999553,7080,NTS,C,3
2,4,prac,1,A,circle.png,1,z,Thu Mar 06 2025 17:38:53 GMT-0600 (Central Standard Time),83812.19999999553,2000,O,z,626,2,1,3409.6999999955297,80402.5,7080,NTS,C,4
8,5,prac,1,A,circle.png,1,m,Thu Mar 06 2025 17:38:53 GMT-0600 (Central Standard Time),86888.89999999851,1600,O,m,686,7,1,3067.89999999851,83821.0,7080,NTS,C,5
6,6,prac,1,A,circle.png,1,m,Thu Mar 06 2025 17:38:53 GMT-0600 (Central Standard Time),90341.0,1900,O,m,764,5,1,3447.8000000044703,86893.19999999553,7080,NTS,C,6
4,7,prac,1,A,circle.png,1,z,Thu Mar 06 2025 17:38:53 GMT-0600 (Central Standard Time),93090.59999999404,1400,O,z,566,4,1,2741.7999999970198,90348.79999999702,7080,NTS,C,7
3,8,prac,1,A,circle.png,1,z,Thu Mar 06 2025 17:38:53 GMT-0600 (Central Standard Time),95672.09999999404,1200,O,z,584,3,1,2575.0999999940395,93097.0,7080,NTS,C,8
1,9,prac,1,A,circle.png,1,z,Thu Mar 06 2025 17:38:53 GMT-0600 (Central Standard Time),98071.59999999404,1000,O,z,602,1,1,2393.89999999851,95677.69999999553,7080,NTS,C,9
9,10,prac,1,A,circle.png,1,m,Thu Mar 06 2025 17:38:53 GMT-0600 (Central Standard Time),100953.89999999851,1500,O,m,583,8,1,2875.3000000044703,98078.59999999404,7080,NTS,C,10
2,11,prac,1,A,circle.png,1,z,Thu Mar 06 2025 17:38:53 GMT-0600 (Central Standard Time),104320.59999999404,2000,O,z,569,2,1,3359.6999999955297,100960.89999999851,7080,NTS,C,11
7,12,prac,1,A,circle.png,1,m,Thu Mar 06 2025 17:38:53 GMT-0600 (Central Standard Time),107369.39999999851,1700,O,m,560,6,1,3042.8000000044703,104326.59999999404,7080,NTS,C,12
4,1,prac,1,B,triangle.png,1,m,Thu Mar 06 2025 17:38:53 GMT-0600 (Central Standard Time),151156.0,1500,O,m,884,4,1,3160.2000000029802,147995.79999999702,7080,NTS,C,1
9,2,prac,1,B,triangle.png,1,z,Thu Mar 06 2025 17:38:53 GMT-0600 (Central Standard Time),154239.0,1400,O,z,903,8,1,3073.5,151165.5,7080,NTS,C,2
9,3,prac,1,B,triangle.png,1,z,Thu Mar 06 2025 17:38:53 GMT-0600 (Central Standard Time),157153.8999999985,1400,O,z,716,8,1,2907.5,154246.3999999985,7080,NTS,C,3
3,4,prac,1,B,triangle.png,1,z,Thu Mar 06 2025 17:38:53 GMT-0600 (Central Standard Time),160436.0,1600,O,z,899,3,1,3275.0,157161.0,7080,NTS,C,4
2,5,prac,1,B,triangle.png,1,m,Thu Mar 06 2025 17:38:53 GMT-0600 (Central Standard Time),163669.79999999702,1700,O,m,750,2,1,3223.10000000149,160446.69999999553,7080,NTS,C,5
1,6,prac,1,B,triangle.png,1,z,Thu Mar 06 2025 17:38:53 GMT-0600 (Central Standard Time),166883.5,1900,O,z,523,1,1,3203.7000000029802,163679.79999999702,7080,NTS,C,6
7,7,prac,1,B,triangle.png,1,z,Thu Mar 06 2025 17:38:53 GMT-0600 (Central Standard Time),170399.0,2000,O,z,719,6,1,3507.5,166891.5,7080,NTS,C,7
6,8,prac,1,B,triangle.png,1,m,Thu Mar 06 2025 17:38:53 GMT-0600 (Central Standard Time),172949.5,1000,O,m,757,5,1,2543.0,170406.5,7080,NTS,C,8
8,9,prac,1,B,triangle.png,1,m,Thu Mar 06 2025 17:38:53 GMT-0600 (Central Standard Time),175647.09999999404,1200,O,m,710,7,1,2690.5999999940395,172956.5,7080,NTS,C,9
3,10,prac,1,B,triangle.png,1,z,Thu Mar 06 2025 17:38:53 GMT-0600 (Central Standard Time),178596.5,1600,O,z,565,3,1,2942.2000000029802,175654.29999999702,7080,NTS,C,10
1,11,prac,1,B,triangle.png,1,z,Thu Mar 06 2025 17:38:53 GMT-0600 (Central Standard Time),181896.59999999404,1900,O,z,602,1,1,3293.0999999940395,178603.5,7080,NTS,C,11
2,12,prac,1,B,triangle.png,1,m,Thu Mar 06 2025 17:38:53 GMT-0600 (Central Standard Time),185128.09999999404,1700,O,m,742,2,1,3225.89999999851,181902.19999999553,7080,NTS,C,12
9,1,test,1,A,circle.png,1,m,Thu Mar 06 2025 17:38:53 GMT-0600 (Central Standard Time),210185.69999999553,1500,O,m,959,8,1,2478.0,207707.69999999553,7080,NTS,C,1
8,2,test,1,A,circle.png,1,m,Thu Mar 06 2025 17:38:53 GMT-0600 (Central Standard Time),212436.69999999553,1600,O,m,616,7,1,2246.10000000149,210190.59999999404,7080,NTS,C,2
6,3,test,1,A,circle.png,1,m,Thu Mar 06 2025 17:38:53 GMT-0600 (Central Standard Time),214968.79999999702,1900,O,m,604,5,1,2527.10000000149,212441.69999999553,7080,NTS,C,3
7,4,test,1,A,circle.png,1,m,Thu Mar 06 2025 17:38:53 GMT-0600 (Central Standard Time),217268.29999999702,1700,O,m,572,6,1,2294.7999999970198,214973.5,7080,NTS,C,4
2,5,test,1,A,circle.png,1,z,Thu Mar 06 2025 17:38:53 GMT-0600 (Central Standard Time),219850.09999999404,2000,O,z,560,2,1,2577.0,217273.09999999404,7080,NTS,C,5
2,6,test,1,A,circle.png,1,z,Thu Mar 06 2025 17:38:53 GMT-0600 (Central Standard Time),222514.69999999553,2000,O,z,640,2,1,2659.0,219855.69999999553,7080,NTS,C,6
1,6,test,1,A,circle.png,0,z,Thu Mar 06 2025 17:38:53 GMT-0600 (Central Standard Time),225050.19999999553,1000,O,None,1517,1,1,2531.39999999851,222518.79999999702,7080,NTS,C,7
4,6,test,1,A,circle.png,0,z,Thu Mar 06 2025 17:38:53 GMT-0600 (Central Standard Time),227181.59999999404,1400,O,m,704,4,1,2126.5,225055.09999999404,7080,NTS,C,8
9,7,test,1,A,circle.png,1,m,Thu Mar 06 2025 17:38:53 GMT-0600 (Central Standard Time),229313.69999999553,1500,O,m,601,8,1,2128.10000000149,227185.59999999404,7080,NTS,C,9
3,8,test,1,A,circle.png,1,z,Thu Mar 06 2025 17:38:53 GMT-0600 (Central Standard Time),231562.8999999985,1200,O,z,1017,3,1,2244.7000000029802,229318.19999999553,7080,NTS,C,10
8,9,test,1,A,circle.png,1,m,Thu Mar 06 2025 17:38:53 GMT-0600 (Central Standard Time),233794.69999999553,1600,O,m,599,7,1,2226.7999999970198,231567.8999999985,7080,NTS,C,11
6,10,test,1,A,circle.png,1,m,Thu Mar 06 2025 17:38:53 GMT-0600 (Central Standard Time),236594.3999999985,1900,O,m,875,5,1,2794.39999999851,233800.0,7080,NTS,C,12
9,11,test,1,A,circle.png,1,m,Thu Mar 06 2025 17:38:53 GMT-0600 (Central Standard Time),238812.09999999404,1500,O,m,699,8,1,2213.6999999955297,236598.3999999985,7080,NTS,C,13
6,12,test,1,A,circle.png,1,m,Thu Mar 06 2025 17:38:53 GMT-0600 (Central Standard Time),241942.69999999553,1900,O,m,1204,5,1,3126.1999999955297,238816.5,7080,NTS,C,14
2,13,test,1,A,circle.png,1,z,Thu Mar 06 2025 17:38:53 GMT-0600 (Central Standard Time),244893.29999999702,2000,O,z,932,2,1,2945.5,241947.79999999702,7080,NTS,C,15
4,14,test,1,A,circle.png,1,z,Thu Mar 06 2025 17:38:53 GMT-0600 (Central Standard Time),247007.5,1400,O,z,698,4,1,2110.3000000044703,244897.19999999553,7080,NTS,C,16
7,15,test,1,A,circle.png,1,m,Thu Mar 06 2025 17:38:53 GMT-0600 (Central Standard Time),249358.8999999985,1700,O,m,633,6,1,2347.39999999851,247011.5,7080,NTS,C,17
3,16,test,1,A,circle.png,1,z,Thu Mar 06 2025 17:38:53 GMT-0600 (Central Standard Time),251173.3999999985,1200,O,z,596,3,1,1808.8999999985099,249364.5,7080,NTS,C,18
8,17,test,1,A,circle.png,1,m,Thu Mar 06 2025 17:38:53 GMT-0600 (Central Standard Time),253339.5,1600,O,m,540,7,1,2159.9000000059605,251179.59999999404,7080,NTS,C,19
4,18,test,1,A,circle.png,1,z,Thu Mar 06 2025 17:38:53 GMT-0600 (Central Standard Time),255372.19999999553,1400,O,z,599,4,1,2028.0,253344.19999999553,7080,NTS,C,20
9,19,test,1,A,circle.png,1,m,Thu Mar 06 2025 17:38:53 GMT-0600 (Central Standard Time),257520.8999999985,1500,O,m,618,8,1,2143.89999999851,255377.0,7080,NTS,C,21
7,20,test,1,A,circle.png,1,m,Thu Mar 06 2025 17:38:53 GMT-0600 (Central Standard Time),259837.59999999404,1700,O,m,590,6,1,2311.39999999851,257526.19999999553,7080,NTS,C,22
1,21,test,1,A,circle.png,1,z,Thu Mar 06 2025 17:38:53 GMT-0600 (Central Standard Time),261452.59999999404,1000,O,z,597,1,1,1609.8999999985099,259842.69999999553,7080,NTS,C,23
1,22,test,1,A,circle.png,1,z,Thu Mar 06 2025 17:38:53 GMT-0600 (Central Standard Time),263053.299999997,1000,O,z,573,1,1,1595.8999999985099,261457.3999999985,7080,NTS,C,24
8,1,test,1,B,triangle.png,1,m,Thu Mar 06 2025 17:38:53 GMT-0600 (Central Standard Time),283530.09999999404,1700,O,m,950,15,1,2682.0,280848.09999999404,7080,NTS,C,1
9,2,test,1,B,triangle.png,1,z,Thu Mar 06 2025 17:38:53 GMT-0600 (Central Standard Time),286246.799999997,1900,O,z,799,16,1,2711.39999999851,283535.3999999985,7080,NTS,C,2
3,3,test,1,B,triangle.png,1,z,Thu Mar 06 2025 17:38:53 GMT-0600 (Central Standard Time),288959.69999999553,2000,O,z,685,11,1,2708.0,286251.69999999553,7080,NTS,C,3
2,4,test,1,B,triangle.png,1,m,Thu Mar 06 2025 17:38:53 GMT-0600 (Central Standard Time),291278.8999999985,1700,O,m,599,2,1,2314.0,288964.8999999985,7080,NTS,C,4
6,5,test,1,B,triangle.png,1,m,Thu Mar 06 2025 17:38:53 GMT-0600 (Central Standard Time),293143.19999999553,1000,O,m,837,5,1,1860.1000000014901,291283.09999999404,7080,NTS,C,5
2,5,test,1,B,triangle.png,0,m,Thu Mar 06 2025 17:38:53 GMT-0600 (Central Standard Time),295410.3999999985,1700,O,z,537,2,1,2262.8000000044703,293147.59999999404,7080,NTS,C,6
7,5,test,1,B,triangle.png,0,z,Thu Mar 06 2025 17:38:53 GMT-0600 (Central Standard Time),297974.8999999985,2000,O,m,539,6,1,2559.60000000149,295415.299999997,7080,NTS,C,7
7,5,test,1,B,triangle.png,0,z,Thu Mar 06 2025 17:38:53 GMT-0600 (Central Standard Time),300224.5,1600,O,m,628,14,1,2244.9000000059605,297979.59999999404,7080,NTS,C,8
4,5,test,1,B,triangle.png,0,m,Thu Mar 06 2025 17:38:53 GMT-0600 (Central Standard Time),302743.0,1000,O,None,1501,12,1,2512.7000000029802,300230.299999997,7080,NTS,C,9
1,6,test,1,B,triangle.png,1,z,Thu Mar 06 2025 17:38:53 GMT-0600 (Central Standard Time),304738.69999999553,1400,O,z,566,9,1,1989.8999999985099,302748.799999997,7080,NTS,C,10
1,7,test,1,B,triangle.png,1,z,Thu Mar 06 2025 17:38:53 GMT-0600 (Central Standard Time),307188.59999999404,1900,O,z,522,1,1,2444.2999999970198,304744.299999997,7080,NTS,C,11
6,7,test,1,B,triangle.png,0,m,Thu Mar 06 2025 17:38:53 GMT-0600 (Central Standard Time),309821.5,1500,O,z,1106,13,1,2628.0,307193.5,7080,NTS,C,12
9,8,test,1,B,triangle.png,1,z,Thu Mar 06 2025 17:38:53 GMT-0600 (Central Standard Time),313086.69999999553,1900,O,z,1338,16,1,3260.2999999970198,309826.3999999985,7080,NTS,C,13
3,9,test,1,B,triangle.png,1,z,Thu Mar 06 2025 17:38:53 GMT-0600 (Central Standard Time),315919.799999997,1600,O,z,1204,3,1,2828.10000000149,313091.69999999553,7080,NTS,C,14
4,10,test,1,B,triangle.png,1,m,Thu Mar 06 2025 17:38:53 GMT-0600 (Central Standard Time),318085.19999999553,1500,O,m,639,4,1,2161.0,315924.19999999553,7080,NTS,C,15
2,11,test,1,B,triangle.png,1,m,Thu Mar 06 2025 17:38:53 GMT-0600 (Central Standard Time),320350.8999999985,1200,O,m,1033,10,1,2260.60000000149,318090.299999997,7080,NTS,C,16
2,12,test,1,B,triangle.png,1,m,Thu Mar 06 2025 17:38:53 GMT-0600 (Central Standard Time),322150.799999997,1200,O,m,567,10,1,1793.7000000029802,320357.09999999404,7080,NTS,C,17
9,13,test,1,B,triangle.png,1,z,Thu Mar 06 2025 17:38:53 GMT-0600 (Central Standard Time),324282.69999999553,1400,O,z,700,8,1,2126.39999999851,322156.299999997,7080,NTS,C,18
1,14,test,1,B,triangle.png,1,z,Thu Mar 06 2025 17:38:53 GMT-0600 (Central Standard Time),327117.8999999985,1900,O,z,916,1,1,2829.0,324288.8999999985,7080,NTS,C,19
8,15,test,1,B,triangle.png,1,m,Thu Mar 06 2025 17:38:53 GMT-0600 (Central Standard Time),329065.3999999985,1200,O,m,726,7,1,1941.5,327123.8999999985,7080,NTS,C,20
8,16,test,1,B,triangle.png,1,m,Thu Mar 06 2025 17:38:53 GMT-0600 (Central Standard Time),331330.09999999404,1700,O,m,535,15,1,2261.5,329068.59999999404,7080,NTS,C,21
3,17,test,1,B,triangle.png,1,z,Thu Mar 06 2025 17:38:53 GMT-0600 (Central Standard Time),334279.59999999404,2000,O,z,928,11,1,2945.89999999851,331333.69999999553,7080,NTS,C,22
8,18,test,1,B,triangle.png,1,m,Thu Mar 06 2025 17:38:53 GMT-0600 (Central Standard Time),336147.3999999985,1200,O,m,642,7,1,1862.5,334284.8999999985,7080,NTS,C,23
4,19,test,1,B,triangle.png,1,m,Thu Mar 06 2025 17:38:53 GMT-0600 (Central Standard Time),337962.59999999404,1000,O,m,792,12,1,1810.5,336152.09999999404,7080,NTS,C,24
6,0,prac,1,C,circle.png,0,m,Thu Mar 06 2025 17:38:53 GMT-0600 (Central Standard Time),403758.0,2000,O,None,1518,5,1,4290.80000000447,399467.19999999553,7080,NTS,C,1
2,0,prac,1,C,triangle.png,0,m,Thu Mar 06 2025 17:38:53 GMT-0600 (Central Standard Time),407657.59999999404,1600,O,None,1517,2,1,3887.2999999970198,403770.299999997,7080,NTS,C,2
2,1,prac,1,C,triangle.png,1,m,Thu Mar 06 2025 17:38:53 GMT-0600 (Central Standard Time),411288.59999999404,1600,O,m,1241,2,1,3623.0,407665.59999999404,7080,NTS,C,3
3,2,prac,1,C,triangle.png,1,z,Thu Mar 06 2025 17:38:53 GMT-0600 (Central Standard Time),414971.299999997,1500,O,z,1391,3,1,3674.10000000149,411297.19999999553,7080,NTS,C,4
8,3,prac,1,C,triangle.png,1,m,Thu Mar 06 2025 17:38:53 GMT-0600 (Central Standard Time),418552.8999999985,1400,O,m,1382,7,1,3575.10000000149,414977.799999997,7080,NTS,C,5
4,3,prac,1,C,circle.png,0,z,Thu Mar 06 2025 17:38:53 GMT-0600 (Central Standard Time),421786.5,1000,O,m,1434,4,1,3225.7000000029802,418560.799999997,7080,NTS,C,6
7,4,prac,1,C,triangle.png,1,z,Thu Mar 06 2025 17:38:53 GMT-0600 (Central Standard Time),425202.19999999553,1200,O,z,1425,6,1,3407.60000000149,421794.59999999404,7080,NTS,C,7
9,5,prac,1,C,circle.png,1,m,Thu Mar 06 2025 17:38:53 GMT-0600 (Central Standard Time),429318.299999997,1900,O,m,1431,8,1,4107.10000000149,425211.19999999553,7080,NTS,C,8
8,5,prac,1,C,triangle.png,0,m,Thu Mar 06 2025 17:38:53 GMT-0600 (Central Standard Time),432816.299999997,1400,O,z,1302,7,1,3491.2999999970198,429325.0,7080,NTS,C,9
7,5,prac,1,C,triangle.png,0,z,Thu Mar 06 2025 17:38:53 GMT-0600 (Central Standard Time),436313.5,1200,O,None,1514,6,1,3489.60000000149,432823.8999999985,7080,NTS,C,10
9,6,prac,1,C,circle.png,1,m,Thu Mar 06 2025 17:38:53 GMT-0600 (Central Standard Time),440398.0,1900,O,m,1398,8,1,4077.7000000029802,436320.299999997,7080,NTS,C,11
1,7,prac,1,C,circle.png,1,z,Thu Mar 06 2025 17:38:53 GMT-0600 (Central Standard Time),443812.8999999985,1700,O,z,932,1,1,3404.0,440408.8999999985,7080,NTS,C,12
9,0,prac,2,C,circle.png,0,m,Thu Mar 06 2025 17:38:53 GMT-0600 (Central Standard Time),454558.3999999985,1900,O,None,1518,8,1,4192.89999999851,450365.5,7080,NTS,C,1
7,1,prac,2,C,triangle.png,1,z,Thu Mar 06 2025 17:38:53 GMT-0600 (Central Standard Time),457925.59999999404,1200,O,z,1383,6,1,3360.1999999955297,454565.3999999985,7080,NTS,C,2
6,2,prac,2,C,circle.png,1,m,Thu Mar 06 2025 17:38:53 GMT-0600 (Central Standard Time),461657.19999999553,2000,O,m,942,5,1,3724.10000000149,457933.09999999404,7080,NTS,C,3
4,3,prac,2,C,circle.png,1,z,Thu Mar 06 2025 17:38:53 GMT-0600 (Central Standard Time),464573.69999999553,1000,O,z,1138,4,1,2910.39999999851,461663.299999997,7080,NTS,C,4
6,4,prac,2,C,circle.png,1,m,Thu Mar 06 2025 17:38:53 GMT-0600 (Central Standard Time),468620.3999999985,2000,O,m,1265,5,1,4040.89999999851,464579.5,7080,NTS,C,5
1,5,prac,2,C,circle.png,1,z,Thu Mar 06 2025 17:38:53 GMT-0600 (Central Standard Time),472286.19999999553,1700,O,z,1167,1,1,3657.1999999955297,468629.0,7080,NTS,C,6
2,5,prac,2,C,triangle.png,0,m,Thu Mar 06 2025 17:38:53 GMT-0600 (Central Standard Time),476169.5,1600,O,None,1501,2,1,3875.0,472294.5,7080,NTS,C,7
1,6,prac,2,C,circle.png,1,z,Thu Mar 06 2025 17:38:53 GMT-0600 (Central Standard Time),479716.799999997,1700,O,z,1065,1,1,3537.0,476179.799999997,7080,NTS,C,8
2,7,prac,2,C,triangle.png,1,m,Thu Mar 06 2025 17:38:53 GMT-0600 (Central Standard Time),483117.299999997,1600,O,m,1004,2,1,3394.60000000149,479722.69999999553,7080,NTS,C,9
3,8,prac,2,C,triangle.png,1,z,Thu Mar 06 2025 17:38:53 GMT-0600 (Central Standard Time),486566.3999999985,1500,O,z,1180,3,1,3442.39999999851,483124.0,7080,NTS,C,10
8,9,prac,2,C,triangle.png,1,m,Thu Mar 06 2025 17:38:53 GMT-0600 (Central Standard Time),489898.0,1400,O,m,1135,7,1,3325.10000000149,486572.8999999985,7080,NTS,C,11
3,10,prac,2,C,triangle.png,1,z,Thu Mar 06 2025 17:38:53 GMT-0600 (Central Standard Time),493380.3999999985,1500,O,z,1213,3,1,3475.60000000149,489904.799999997,7080,NTS,C,12
8,0,test,1,C,circle.png,0,m,Thu Mar 06 2025 17:38:53 GMT-0600 (Central Standard Time),515039.799999997,1200,O,None,1515,15,1,2728.7000000029802,512311.09999999404,7080,NTS,C,1
2,1,test,1,C,triangle.png,1,m,Thu Mar 06 2025 17:38:53 GMT-0600 (Central Standard Time),518005.5,2000,O,m,950,2,1,2958.10000000149,515047.3999999985,7080,NTS,C,2
6,2,test,1,C,circle.png,1,m,Thu Mar 06 2025 17:38:53 GMT-0600 (Central Standard Time),520738.299999997,1900,O,m,801,21,1,2729.39999999851,518008.8999999985,7080,NTS,C,3
2,3,test,1,C,circle.png,1,z,Thu Mar 06 2025 17:38:53 GMT-0600 (Central Standard Time),523403.299999997,1700,O,z,936,18,1,2660.10000000149,520743.19999999553,7080,NTS,C,4
1,4,test,1,C,triangle.png,1,z,Thu Mar 06 2025 17:38:53 GMT-0600 (Central Standard Time),526270.1999999955,1900,O,z,949,9,1,2861.2999999970198,523408.8999999985,7080,NTS,C,5
9,4,test,1,C,triangle.png,0,z,Thu Mar 06 2025 17:38:53 GMT-0600 (Central Standard Time),528735.799999997,1400,O,m,1035,16,1,2460.0,526275.799999997,7080,NTS,C,6
8,5,test,1,C,triangle.png,1,m,Thu Mar 06 2025 17:38:53 GMT-0600 (Central Standard Time),531800.0,1600,O,m,1445,23,1,3058.3000000044703,528741.6999999955,7080,NTS,C,7
4,6,test,1,C,circle.png,1,z,Thu Mar 06 2025 17:38:53 GMT-0600 (Central Standard Time),534367.0,1400,O,z,1138,4,1,2561.5,531805.5,7080,NTS,C,8
3,7,test,1,C,circle.png,1,z,Thu Mar 06 2025 17:38:53 GMT-0600 (Central Standard Time),537132.799999997,1600,O,z,1140,19,1,2760.7999999970198,534372.0,7080,NTS,C,9
6,8,test,1,C,circle.png,1,m,Thu Mar 06 2025 17:38:53 GMT-0600 (Central Standard Time),539930.599999994,1900,O,m,876,5,1,2791.7999999970198,537138.799999997,7080,NTS,C,10
7,9,test,1,C,triangle.png,1,z,Thu Mar 06 2025 17:38:53 GMT-0600 (Central Standard Time),542696.299999997,1700,O,z,1043,6,1,2760.5,539935.799999997,7080,NTS,C,11
7,10,test,1,C,triangle.png,1,z,Thu Mar 06 2025 17:38:53 GMT-0600 (Central Standard Time),545479.599999994,1700,O,z,1050,22,1,2778.0999999940395,542701.5,7080,NTS,C,12
6,11,test,1,C,triangle.png,1,m,Thu Mar 06 2025 17:38:53 GMT-0600 (Central Standard Time),547713.0,1000,O,m,1211,13,1,2225.60000000149,545487.3999999985,7080,NTS,C,13
9,12,test,1,C,circle.png,1,m,Thu Mar 06 2025 17:38:53 GMT-0600 (Central Standard Time),550094.799999997,1500,O,m,855,8,1,2377.89999999851,547716.8999999985,7080,NTS,C,14
1,13,test,1,C,triangle.png,1,z,Thu Mar 06 2025 17:38:53 GMT-0600 (Central Standard Time),552844.0,1900,O,z,824,17,1,2745.10000000149,550098.8999999985,7080,NTS,C,15
9,14,test,1,C,circle.png,1,m,Thu Mar 06 2025 17:38:53 GMT-0600 (Central Standard Time),555327.0,1500,O,m,966,24,1,2478.8000000044703,552848.1999999955,7080,NTS,C,16
3,15,test,1,C,triangle.png,1,z,Thu Mar 06 2025 17:38:53 GMT-0600 (Central Standard Time),557459.1999999955,1200,O,z,901,3,1,2127.39999999851,555331.799999997,7080,NTS,C,17
1,16,test,1,C,circle.png,1,z,Thu Mar 06 2025 17:38:53 GMT-0600 (Central Standard Time),559541.8999999985,1000,O,z,1056,1,1,2078.3000000044703,557463.599999994,7080,NTS,C,18
4,17,test,1,C,triangle.png,1,m,Thu Mar 06 2025 17:38:53 GMT-0600 (Central Standard Time),562355.3999999985,1500,O,m,1288,12,1,2809.10000000149,559546.299999997,7080,NTS,C,19
7,17,test,1,C,circle.png,0,m,Thu Mar 06 2025 17:38:53 GMT-0600 (Central Standard Time),565756.799999997,2000,O,z,1373,14,1,3398.2999999970198,562358.5,7080,NTS,C,20
4,17,test,1,C,triangle.png,0,m,Thu Mar 06 2025 17:38:53 GMT-0600 (Central Standard Time),568789.799999997,1500,O,None,1517,20,1,3028.60000000149,565761.1999999955,7080,NTS,C,21
3,18,test,1,C,circle.png,1,z,Thu Mar 06 2025 17:38:53 GMT-0600 (Central Standard Time),571519.6999999955,1600,O,z,1110,11,1,2725.0,568794.6999999955,7080,NTS,C,22
8,19,test,1,C,triangle.png,1,m,Thu Mar 06 2025 17:38:53 GMT-0600 (Central Standard Time),574319.6999999955,1600,O,m,1179,7,1,2795.0,571524.6999999955,7080,NTS,C,23
2,20,test,1,C,circle.png,1,z,Thu Mar 06 2025 17:38:53 GMT-0600 (Central Standard Time),576918.8999999985,1700,O,z,880,10,1,2594.8000000044703,574324.099999994,7080,NTS,C,24
3,1,test,2,C,triangle.png,1,z,Thu Mar 06 2025 17:38:53 GMT-0600 (Central Standard Time),582766.6999999955,1200,O,z,1303,3,1,2527.60000000149,580239.099999994,7080,NTS,C,1
2,2,test,2,C,triangle.png,1,m,Thu Mar 06 2025 17:38:53 GMT-0600 (Central Standard Time),585950.1999999955,2000,O,m,1156,2,1,3180.6999999955297,582769.5,7080,NTS,C,2
3,3,test,2,C,circle.png,1,z,Thu Mar 06 2025 17:38:53 GMT-0600 (Central Standard Time),588716.299999997,1600,O,z,1132,11,1,2758.5,585957.799999997,7080,NTS,C,3
7,3,test,2,C,circle.png,0,m,Thu Mar 06 2025 17:38:53 GMT-0600 (Central Standard Time),592247.599999994,2000,O,None,1515,14,1,3526.7999999970198,588720.799999997,7080,NTS,C,4
4,4,test,2,C,circle.png,1,z,Thu Mar 06 2025 17:38:53 GMT-0600 (Central Standard Time),595014.099999994,1400,O,z,1348,4,1,2762.0,592252.099999994,7080,NTS,C,5
6,4,test,2,C,triangle.png,0,m,Thu Mar 06 2025 17:38:53 GMT-0600 (Central Standard Time),597545.8999999985,1000,O,None,1516,13,1,2527.89999999851,595018.0,7080,NTS,C,6
7,5,test,2,C,circle.png,1,m,Thu Mar 06 2025 17:38:53 GMT-0600 (Central Standard Time),600829.3999999985,2000,O,m,1257,22,1,3277.8000000044703,597551.599999994,7080,NTS,C,7
8,6,test,2,C,circle.png,1,m,Thu Mar 06 2025 17:38:53 GMT-0600 (Central Standard Time),602994.3999999985,1200,O,m,941,23,1,2158.89999999851,600835.5,7080,NTS,C,8
4,6,test,2,C,triangle.png,0,m,Thu Mar 06 2025 17:38:53 GMT-0600 (Central Standard Time),605509.1999999955,1500,O,z,997,20,1,2506.6999999955297,603002.5,7080,NTS,C,9
8,7,test,2,C,triangle.png,1,m,Thu Mar 06 2025 17:38:53 GMT-0600 (Central Standard Time),608058.3999999985,1600,O,m,926,7,1,2542.10000000149,605516.299999997,7080,NTS,C,10
3,8,test,2,C,circle.png,1,z,Thu Mar 06 2025 17:38:53 GMT-0600 (Central Standard Time),610476.8999999985,1600,O,z,784,19,1,2412.39999999851,608064.5,7080,NTS,C,11
1,9,test,2,C,triangle.png,1,z,Thu Mar 06 2025 17:38:53 GMT-0600 (Central Standard Time),613543.099999994,1900,O,z,1150,9,1,3060.89999999851,610482.1999999955,7080,NTS,C,12
9,9,test,2,C,triangle.png,0,z,Thu Mar 06 2025 17:38:53 GMT-0600 (Central Standard Time),616474.3999999985,1400,O,None,1515,16,1,2926.5,613547.8999999985,7080,NTS,C,13
6,10,test,2,C,triangle.png,1,m,Thu Mar 06 2025 17:38:53 GMT-0600 (Central Standard Time),618439.299999997,1000,O,m,948,21,1,1960.3999999985099,616478.8999999985,7080,NTS,C,14
6,11,test,2,C,circle.png,1,m,Thu Mar 06 2025 17:38:53 GMT-0600 (Central Standard Time),621357.0,1900,O,m,1000,5,1,2912.4000000059605,618444.599999994,7080,NTS,C,15
8,12,test,2,C,circle.png,1,m,Thu Mar 06 2025 17:38:53 GMT-0600 (Central Standard Time),623587.799999997,1200,O,m,1009,15,1,2225.5,621362.299999997,7080,NTS,C,16
9,13,test,2,C,circle.png,1,m,Thu Mar 06 2025 17:38:53 GMT-0600 (Central Standard Time),625753.0,1500,O,m,644,8,1,2160.5,623592.5,7080,NTS,C,17
1,13,test,2,C,circle.png,0,z,Thu Mar 06 2025 17:38:53 GMT-0600 (Central Standard Time),627552.5,1000,O,m,776,1,1,1794.5,625758.0,7080,NTS,C,18
4,13,test,2,C,triangle.png,0,m,Thu Mar 06 2025 17:38:53 GMT-0600 (Central Standard Time),630586.0,1500,O,None,1515,12,1,3029.3000000044703,627556.6999999955,7080,NTS,C,19
7,14,test,2,C,triangle.png,1,z,Thu Mar 06 2025 17:38:53 GMT-0600 (Central Standard Time),633401.5,1700,O,z,1093,6,1,2807.8000000044703,630593.6999999955,7080,NTS,C,20
2,15,test,2,C,circle.png,1,z,Thu Mar 06 2025 17:38:53 GMT-0600 (Central Standard Time),636285.1999999955,1700,O,z,1149,18,1,2875.5,633409.6999999955,7080,NTS,C,21
9,16,test,2,C,triangle.png,1,z,Thu Mar 06 2025 17:38:53 GMT-0600 (Central Standard Time),639150.0,1400,O,z,1446,24,1,2859.5,636290.5,7080,NTS,C,22
1,16,test,2,C,triangle.png,0,z,Thu Mar 06 2025 17:38:53 GMT-0600 (Central Standard Time),642581.799999997,1900,O,None,1515,17,1,3426.2999999970198,639155.5,7080,NTS,C,23
2,17,test,2,C,circle.png,1,z,Thu Mar 06 2025 17:38:53 GMT-0600 (Central Standard Time),645364.099999994,1700,O,z,1050,10,1,2776.5,642587.599999994,7080,NTS,C,24
9,0,test,3,C,circle.png,0,m,Thu Mar 06 2025 17:38:53 GMT-0600 (Central Standard Time),651381.1999999955,1500,O,None,1501,24,1,3010.10000000149,648371.099999994,7080,NTS,C,1
3,0,test,3,C,circle.png,0,z,Thu Mar 06 2025 17:38:53 GMT-0600 (Central Standard Time),654446.6999999955,1600,O,m,1450,11,1,3059.7999999970198,651386.8999999985,7080,NTS,C,2
4,0,test,3,C,circle.png,0,z,Thu Mar 06 2025 17:38:53 GMT-0600 (Central Standard Time),657376.599999994,1400,O,None,1514,20,1,2923.5999999940395,654453.0,7080,NTS,C,3
1,1,test,3,C,circle.png,1,z,Thu Mar 06 2025 17:38:53 GMT-0600 (Central Standard Time),659142.599999994,1000,O,z,737,1,1,1759.5999999940395,657383.0,7080,NTS,C,4
8,2,test,3,C,circle.png,1,m,Thu Mar 06 2025 17:38:53 GMT-0600 (Central Standard Time),661392.8999999985,1200,O,m,1019,15,1,2245.89999999851,659147.0,7080,NTS,C,5
7,3,test,3,C,triangle.png,1,z,Thu Mar 06 2025 17:38:53 GMT-0600 (Central Standard Time),664508.3999999985,1700,O,z,1389,6,1,3109.8000000044703,661398.599999994,7080,NTS,C,6
8,4,test,3,C,triangle.png,1,m,Thu Mar 06 2025 17:38:53 GMT-0600 (Central Standard Time),667124.1999999955,1600,O,m,989,7,1,2609.0,664515.1999999955,7080,NTS,C,7
9,5,test,3,C,triangle.png,1,z,Thu Mar 06 2025 17:38:53 GMT-0600 (Central Standard Time),669474.1999999955,1400,O,z,926,16,1,2345.1999999955297,667129.0,7080,NTS,C,8
4,6,test,3,C,circle.png,1,z,Thu Mar 06 2025 17:38:53 GMT-0600 (Central Standard Time),671689.1999999955,1400,O,z,794,4,1,2209.1999999955297,669480.0,7080,NTS,C,9
7,6,test,3,C,circle.png,0,m,Thu Mar 06 2025 17:38:53 GMT-0600 (Central Standard Time),675222.099999994,2000,O,None,1517,14,1,3527.89999999851,671694.1999999955,7080,NTS,C,10
1,7,test,3,C,circle.png,1,z,Thu Mar 06 2025 17:38:53 GMT-0600 (Central Standard Time),677470.6999999955,1000,O,z,1230,17,1,2243.6999999955297,675227.0,7080,NTS,C,11
9,7,test,3,C,circle.png,0,m,Thu Mar 06 2025 17:38:53 GMT-0600 (Central Standard Time),680502.799999997,1500,O,None,1515,8,1,3027.7999999970198,677475.0,7080,NTS,C,12
4,8,test,3,C,triangle.png,1,m,Thu Mar 06 2025 17:38:53 GMT-0600 (Central Standard Time),683502.3999999985,1500,O,m,1472,12,1,2993.0,680509.3999999985,7080,NTS,C,13
3,9,test,3,C,triangle.png,1,z,Thu Mar 06 2025 17:38:53 GMT-0600 (Central Standard Time),685949.299999997,1200,O,z,1219,19,1,2442.0,683507.299999997,7080,NTS,C,14
8,10,test,3,C,triangle.png,1,m,Thu Mar 06 2025 17:38:53 GMT-0600 (Central Standard Time),688482.6999999955,1600,O,m,903,23,1,2530.10000000149,685952.599999994,7080,NTS,C,15
6,11,test,3,C,circle.png,1,m,Thu Mar 06 2025 17:38:53 GMT-0600 (Central Standard Time),691150.6999999955,1900,O,m,741,21,1,2660.10000000149,688490.599999994,7080,NTS,C,16
7,12,test,3,C,triangle.png,1,z,Thu Mar 06 2025 17:38:53 GMT-0600 (Central Standard Time),694099.6999999955,1700,O,z,1217,22,1,2944.6999999955297,691155.0,7080,NTS,C,17
2,12,test,3,C,circle.png,0,z,Thu Mar 06 2025 17:38:53 GMT-0600 (Central Standard Time),697330.5,1700,O,None,1516,10,1,3225.4000000059605,694105.099999994,7080,NTS,C,18
3,13,test,3,C,triangle.png,1,z,Thu Mar 06 2025 17:38:53 GMT-0600 (Central Standard Time),699946.1999999955,1200,O,z,1391,3,1,2611.10000000149,697335.099999994,7080,NTS,C,19
6,14,test,3,C,triangle.png,1,m,Thu Mar 06 2025 17:38:53 GMT-0600 (Central Standard Time),702180.1999999955,1000,O,m,1200,13,1,2230.39999999851,699949.799999997,7080,NTS,C,20
6,15,test,3,C,circle.png,1,m,Thu Mar 06 2025 17:38:53 GMT-0600 (Central Standard Time),705295.3999999985,1900,O,m,1186,5,1,3111.8000000044703,702183.599999994,7080,NTS,C,21
1,16,test,3,C,triangle.png,1,z,Thu Mar 06 2025 17:38:53 GMT-0600 (Central Standard Time),708246.1999999955,1900,O,z,1033,9,1,2946.6999999955297,705299.5,7080,NTS,C,22
2,17,test,3,C,triangle.png,1,m,Thu Mar 06 2025 17:38:53 GMT-0600 (Central Standard Time),711694.6999999955,2000,O,m,1433,18,1,3444.2999999970198,708250.3999999985,7080,NTS,C,23
2,18,test,3,C,triangle.png,1,m,Thu Mar 06 2025 17:38:53 GMT-0600 (Central Standard Time),714608.599999994,2000,O,m,894,2,1,2911.0,711697.599999994,7080,NTS,C,24
2,0,test,4,C,triangle.png,0,m,Thu Mar 06 2025 17:38:53 GMT-0600 (Central Standard Time),723006.3999999985,2000,O,None,1516,2,1,3527.5,719478.8999999985,7080,NTS,C,1
3,1,test,4,C,triangle.png,1,z,Thu Mar 06 2025 17:38:53 GMT-0600 (Central Standard Time),725371.599999994,1200,O,z,1132,19,1,2359.89999999851,723011.6999999955,7080,NTS,C,2
9,2,test,4,C,circle.png,1,m,Thu Mar 06 2025 17:38:53 GMT-0600 (Central Standard Time),728004.8999999985,1500,O,m,1107,8,1,2629.0,725375.8999999985,7080,NTS,C,3
2,2,test,4,C,triangle.png,0,m,Thu Mar 06 2025 17:38:53 GMT-0600 (Central Standard Time),731537.6999999955,2000,O,None,1516,18,1,3528.10000000149,728009.599999994,7080,NTS,C,4
6,3,test,4,C,circle.png,1,m,Thu Mar 06 2025 17:38:53 GMT-0600 (Central Standard Time),734168.799999997,1900,O,m,711,5,1,2625.89999999851,731542.8999999985,7080,NTS,C,5
7,4,test,4,C,triangle.png,1,z,Thu Mar 06 2025 17:38:53 GMT-0600 (Central Standard Time),736869.099999994,1700,O,z,974,22,1,2696.1999999955297,734172.8999999985,7080,NTS,C,6
3,5,test,4,C,circle.png,1,z,Thu Mar 06 2025 17:38:53 GMT-0600 (Central Standard Time),739651.099999994,1600,O,z,1159,11,1,2774.2999999970198,736876.799999997,7080,NTS,C,7
9,6,test,4,C,circle.png,1,m,Thu Mar 06 2025 17:38:53 GMT-0600 (Central Standard Time),742100.5,1500,O,m,925,24,1,2445.10000000149,739655.3999999985,7080,NTS,C,8
8,7,test,4,C,triangle.png,1,m,Thu Mar 06 2025 17:38:53 GMT-0600 (Central Standard Time),744898.5,1600,O,m,1174,7,1,2793.7000000029802,742104.799999997,7080,NTS,C,9
4,8,test,4,C,circle.png,1,z,Thu Mar 06 2025 17:38:53 GMT-0600 (Central Standard Time),747414.8999999985,1400,O,z,1097,20,1,2513.0,744901.8999999985,7080,NTS,C,10
2,9,test,4,C,circle.png,1,z,Thu Mar 06 2025 17:38:53 GMT-0600 (Central Standard Time),750081.299999997,1700,O,z,935,10,1,2657.60000000149,747423.6999999955,7080,NTS,C,11
8,10,test,4,C,circle.png,1,m,Thu Mar 06 2025 17:38:53 GMT-0600 (Central Standard Time),752198.8999999985,1200,O,m,900,15,1,2113.3000000044703,750085.599999994,7080,NTS,C,12
9,11,test,4,C,triangle.png,1,z,Thu Mar 06 2025 17:38:53 GMT-0600 (Central Standard Time),754997.299999997,1400,O,z,1382,16,1,2792.2999999970198,752205.0,7080,NTS,C,13
8,12,test,4,C,triangle.png,1,m,Thu Mar 06 2025 17:38:53 GMT-0600 (Central Standard Time),757614.0,1600,O,m,998,23,1,2612.60000000149,755001.3999999985,7080,NTS,C,14
1,13,test,4,C,circle.png,1,z,Thu Mar 06 2025 17:38:53 GMT-0600 (Central Standard Time),759562.1999999955,1000,O,z,917,1,1,1939.6999999955297,757622.5,7080,NTS,C,15
1,14,test,4,C,triangle.png,1,z,Thu Mar 06 2025 17:38:53 GMT-0600 (Central Standard Time),762560.799999997,1900,O,z,1070,9,1,2990.7999999970198,759570.0,7080,NTS,C,16
7,15,test,4,C,triangle.png,1,z,Thu Mar 06 2025 17:38:53 GMT-0600 (Central Standard Time),765760.799999997,1700,O,z,1470,6,1,3194.0,762566.799999997,7080,NTS,C,17
6,16,test,4,C,triangle.png,1,m,Thu Mar 06 2025 17:38:53 GMT-0600 (Central Standard Time),767526.0,1000,O,m,738,13,1,1755.2000000029802,765770.799999997,7080,NTS,C,18
4,16,test,4,C,triangle.png,0,m,Thu Mar 06 2025 17:38:53 GMT-0600 (Central Standard Time),770075.799999997,1500,O,z,1023,12,1,2547.2000000029802,767528.599999994,7080,NTS,C,19
1,17,test,4,C,circle.png,1,z,Thu Mar 06 2025 17:38:53 GMT-0600 (Central Standard Time),772240.599999994,1000,O,z,1134,17,1,2155.2999999970198,770085.299999997,7080,NTS,C,20
3,18,test,4,C,triangle.png,1,z,Thu Mar 06 2025 17:38:53 GMT-0600 (Central Standard Time),774523.5,1200,O,z,1057,3,1,2275.10000000149,772248.3999999985,7080,NTS,C,21
6,19,test,4,C,circle.png,1,m,Thu Mar 06 2025 17:38:53 GMT-0600 (Central Standard Time),777221.8999999985,1900,O,m,772,21,1,2692.39999999851,774529.5,7080,NTS,C,22
7,20,test,4,C,circle.png,1,m,Thu Mar 06 2025 17:38:53 GMT-0600 (Central Standard Time),780321.5,2000,O,m,1076,14,1,3091.8000000044703,777229.6999999955,7080,NTS,C,23
4,21,test,4,C,circle.png,1,z,Thu Mar 06 2025 17:38:53 GMT-0600 (Central Standard Time),782821.099999994,1400,O,z,1074,4,1,2495.5999999940395,780325.5,7080,NTS,C,24
