acc_sum,block,block_c,block_cond,con_img,correct,correct_response,datetime,endtime,face,jitter,line,project,response,response_time,row_sel,session_number,start_end,starttime,subject_id,task,task_vers,trial
1,prac,1,A,haborder.png,1,z,Fri Mar 28 2025 16:03:30 GMT-0500 (Central Daylight Time),85644.39999999851,CFD-WM-013-015-A.jpg,1900,solid,I,z,1137,8,1,3832.39999999851,81812.0,8034,ATS,A,1
2,prac,1,A,haborder.png,1,m,Fri Mar 28 2025 16:03:30 GMT-0500 (Central Daylight Time),88627.69999999553,CFD-WF-017-016-HC.jpg,1500,solid,I,m,705,11,1,6815.69999999553,81812.0,8034,ATS,A,2
3,prac,1,A,haborder.png,1,m,Fri Mar 28 2025 16:03:30 GMT-0500 (Central Daylight Time),91775.5,CFD-BM-029-026-HC.jpg,1500,solid,I,m,859,3,1,9963.5,81812.0,8034,ATS,A,3
4,prac,1,A,haborder.png,1,z,Fri Mar 28 2025 16:03:30 GMT-0500 (Central Daylight Time),94141.59999999404,CFD-BF-023-013-A.jpg,1000,solid,I,z,577,4,1,12329.59999999404,81812.0,8034,ATS,A,4
5,prac,1,A,haborder.png,1,z,Fri Mar 28 2025 16:03:30 GMT-0500 (Central Daylight Time),97690.29999999702,CFD-BM-005-010-A.jpg,1600,solid,I,z,1159,2,1,15878.29999999702,81812.0,8034,ATS,A,5
6,prac,1,A,haborder.png,1,m,Fri Mar 28 2025 16:03:30 GMT-0500 (Central Daylight Time),100839.29999999702,CFD-WM-006-013-HC.jpg,1700,solid,I,m,651,9,1,19027.29999999702,81812.0,8034,ATS,A,6
7,prac,1,A,haborder.png,1,m,Fri Mar 28 2025 16:03:30 GMT-0500 (Central Daylight Time),103821.69999999553,CFD-WM-004-005-HC.jpg,1400,solid,I,m,794,7,1,22009.69999999553,81812.0,8034,ATS,A,7
8,prac,1,A,haborder.png,1,z,Fri Mar 28 2025 16:03:30 GMT-0500 (Central Daylight Time),106654.19999999553,CFD-BF-039-039-A.jpg,1200,solid,I,z,836,6,1,24842.19999999553,81812.0,8034,ATS,A,8
9,prac,1,A,haborder.png,1,m,Fri Mar 28 2025 16:03:30 GMT-0500 (Central Daylight Time),109936.09999999404,CFD-BM-017-052-HC.jpg,1700,solid,I,m,792,1,1,28124.09999999404,81812.0,8034,ATS,A,9
10,prac,1,A,haborder.png,1,z,Fri Mar 28 2025 16:03:30 GMT-0500 (Central Daylight Time),112452.29999999702,CFD-WF-019-015-A.jpg,1000,solid,I,z,721,12,1,30640.29999999702,81812.0,8034,ATS,A,10
11,prac,1,A,haborder.png,1,z,Fri Mar 28 2025 16:03:30 GMT-0500 (Central Daylight Time),115652.09999999404,CFD-WF-003-014-A.jpg,1600,solid,I,z,813,10,1,33840.09999999404,81812.0,8034,ATS,A,11
12,prac,1,A,haborder.png,1,m,Fri Mar 28 2025 16:03:30 GMT-0500 (Central Daylight Time),119434.0,CFD-BF-028-020-HC.jpg,2000,solid,I,m,990,5,1,37622.0,81812.0,8034,ATS,A,12
1,prac,1,B,mfborder.png,1,z,Fri Mar 28 2025 16:03:30 GMT-0500 (Central Daylight Time),143969.79999999702,CFD-BF-023-013-A.jpg,1000,dash,I,z,704,4,1,2593.2999999970198,141376.5,8034,ATS,A,1
1,prac,1,B,mfborder.png,0,m,Fri Mar 28 2025 16:03:30 GMT-0500 (Central Daylight Time),148274.3999999985,CFD-BM-005-010-A.jpg,2000,dash,I,None,1516,5,1,6897.89999999851,141376.5,8034,ATS,A,2
2,prac,1,B,mfborder.png,1,m,Fri Mar 28 2025 16:03:30 GMT-0500 (Central Daylight Time),151390.19999999553,CFD-BM-010-019-A.jpg,1600,dash,I,m,727,2,1,10013.69999999553,141376.5,8034,ATS,A,3
3,prac,1,B,mfborder.png,1,z,Fri Mar 28 2025 16:03:30 GMT-0500 (Central Daylight Time),154457.09999999404,CFD-BF-010-005-HC.jpg,1500,dash,I,z,767,3,1,13080.59999999404,141376.5,8034,ATS,A,4
4,prac,1,B,mfborder.png,1,m,Fri Mar 28 2025 16:03:30 GMT-0500 (Central Daylight Time),157305.09999999404,CFD-WM-019-013-A.jpg,1200,dash,I,m,865,6,1,15928.59999999404,141376.5,8034,ATS,A,5
5,prac,1,B,mfborder.png,1,m,Fri Mar 28 2025 16:03:30 GMT-0500 (Central Daylight Time),160970.59999999404,CFD-WM-006-013-HC.jpg,1600,dash,I,m,1272,10,1,19594.09999999404,141376.5,8034,ATS,A,6
6,prac,1,B,mfborder.png,1,z,Fri Mar 28 2025 16:03:30 GMT-0500 (Central Daylight Time),164086.29999999702,CFD-WF-003-014-A.jpg,1500,dash,I,z,819,11,1,22709.79999999702,141376.5,8034,ATS,A,7
7,prac,1,B,mfborder.png,1,z,Fri Mar 28 2025 16:03:30 GMT-0500 (Central Daylight Time),167499.19999999553,CFD-WF-002-008-HC.jpg,1900,dash,I,z,639,8,1,26122.69999999553,141376.5,8034,ATS,A,8
8,prac,1,B,mfborder.png,1,z,Fri Mar 28 2025 16:03:30 GMT-0500 (Central Daylight Time),170184.3999999985,CFD-WF-017-016-HC.jpg,1000,dash,I,z,891,12,1,28807.89999999851,141376.5,8034,ATS,A,9
9,prac,1,B,mfborder.png,1,m,Fri Mar 28 2025 16:03:30 GMT-0500 (Central Daylight Time),173516.5,CFD-BM-029-026-HC.jpg,1700,dash,I,m,837,1,1,32140.0,141376.5,8034,ATS,A,10
10,prac,1,B,mfborder.png,1,z,Fri Mar 28 2025 16:03:30 GMT-0500 (Central Daylight Time),176615.79999999702,CFD-BF-028-020-HC.jpg,1400,dash,I,z,909,7,1,35239.29999999702,141376.5,8034,ATS,A,11
11,prac,1,B,mfborder.png,1,m,Fri Mar 28 2025 16:03:30 GMT-0500 (Central Daylight Time),180014.79999999702,CFD-WM-013-015-A.jpg,1700,dash,I,m,902,9,1,38638.29999999702,141376.5,8034,ATS,A,12
1,test,1,A,haborder.png,1,m,Fri Mar 28 2025 16:03:30 GMT-0500 (Central Daylight Time),222850.79999999702,CFD-BF-028-020-HC.jpg,2000,solid,I,m,811,5,1,2832.0,220018.79999999702,8034,ATS,A,1
2,test,1,A,haborder.png,1,z,Fri Mar 28 2025 16:03:30 GMT-0500 (Central Daylight Time),225583.59999999404,CFD-WF-003-014-A.jpg,1600,solid,I,z,1102,10,1,5564.79999999702,220018.79999999702,8034,ATS,A,2
2,test,1,A,haborder.png,0,z,Fri Mar 28 2025 16:03:30 GMT-0500 (Central Daylight Time),228716.09999999404,CFD-BM-005-010-A.jpg,1600,solid,I,None,1516,2,1,8697.29999999702,220018.79999999702,8034,ATS,A,3
3,test,1,A,haborder.png,1,m,Fri Mar 28 2025 16:03:30 GMT-0500 (Central Daylight Time),231481.59999999404,CFD-BF-028-020-HC.jpg,2000,solid,I,m,742,5,1,11462.79999999702,220018.79999999702,8034,ATS,A,4
4,test,1,A,haborder.png,1,z,Fri Mar 28 2025 16:03:30 GMT-0500 (Central Daylight Time),233564.29999999702,CFD-BF-039-039-A.jpg,1200,solid,I,z,855,6,1,13545.5,220018.79999999702,8034,ATS,A,5
4,test,1,A,haborder.png,0,m,Fri Mar 28 2025 16:03:30 GMT-0500 (Central Daylight Time),236113.3999999985,CFD-BM-029-026-HC.jpg,1500,solid,I,z,1017,3,1,16094.60000000149,220018.79999999702,8034,ATS,A,6
5,test,1,A,haborder.png,1,z,Fri Mar 28 2025 16:03:30 GMT-0500 (Central Daylight Time),238363.19999999553,CFD-BF-023-013-A.jpg,1000,solid,I,z,1224,4,1,18344.39999999851,220018.79999999702,8034,ATS,A,7
6,test,1,A,haborder.png,1,m,Fri Mar 28 2025 16:03:30 GMT-0500 (Central Daylight Time),240495.69999999553,CFD-WM-004-005-HC.jpg,1400,solid,I,m,702,7,1,20476.89999999851,220018.79999999702,8034,ATS,A,8
7,test,1,A,haborder.png,1,z,Fri Mar 28 2025 16:03:30 GMT-0500 (Central Daylight Time),242195.09999999404,CFD-WF-019-015-A.jpg,1000,solid,I,z,673,12,1,22176.29999999702,220018.79999999702,8034,ATS,A,9
8,test,1,A,haborder.png,1,z,Fri Mar 28 2025 16:03:30 GMT-0500 (Central Daylight Time),244427.59999999404,CFD-BM-005-010-A.jpg,1600,solid,I,z,606,2,1,24408.79999999702,220018.79999999702,8034,ATS,A,10
8,test,1,A,haborder.png,0,z,Fri Mar 28 2025 16:03:30 GMT-0500 (Central Daylight Time),246377.09999999404,CFD-BF-039-039-A.jpg,1200,solid,I,m,725,6,1,26358.29999999702,220018.79999999702,8034,ATS,A,11
9,test,1,A,haborder.png,1,m,Fri Mar 28 2025 16:03:30 GMT-0500 (Central Daylight Time),248826.5,CFD-BM-029-026-HC.jpg,1500,solid,I,m,932,3,1,28807.70000000298,220018.79999999702,8034,ATS,A,12
10,test,1,A,haborder.png,1,m,Fri Mar 28 2025 16:03:30 GMT-0500 (Central Daylight Time),251459.8999999985,CFD-WM-004-005-HC.jpg,1400,solid,I,m,1215,7,1,31441.10000000149,220018.79999999702,8034,ATS,A,13
11,test,1,A,haborder.png,1,z,Fri Mar 28 2025 16:03:30 GMT-0500 (Central Daylight Time),254174.59999999404,CFD-WM-013-015-A.jpg,1900,solid,I,z,786,8,1,34155.79999999702,220018.79999999702,8034,ATS,A,14
12,test,1,A,haborder.png,1,z,Fri Mar 28 2025 16:03:30 GMT-0500 (Central Daylight Time),255874.5,CFD-BF-023-013-A.jpg,1000,solid,I,z,682,4,1,35855.70000000298,220018.79999999702,8034,ATS,A,15
13,test,1,A,haborder.png,1,m,Fri Mar 28 2025 16:03:30 GMT-0500 (Central Daylight Time),258073.3999999985,CFD-WF-017-016-HC.jpg,1500,solid,I,m,675,11,1,38054.60000000149,220018.79999999702,8034,ATS,A,16
14,test,1,A,haborder.png,1,m,Fri Mar 28 2025 16:03:30 GMT-0500 (Central Daylight Time),260689.3999999985,CFD-WM-006-013-HC.jpg,1700,solid,I,m,884,9,1,40670.60000000149,220018.79999999702,8034,ATS,A,17
15,test,1,A,haborder.png,1,z,Fri Mar 28 2025 16:03:30 GMT-0500 (Central Daylight Time),263871.59999999404,CFD-WM-013-015-A.jpg,1900,solid,I,z,1252,8,1,43852.79999999702,220018.79999999702,8034,ATS,A,18
16,test,1,A,haborder.png,1,m,Fri Mar 28 2025 16:03:30 GMT-0500 (Central Daylight Time),266071.0,CFD-WF-017-016-HC.jpg,1500,solid,I,m,678,11,1,46052.20000000298,220018.79999999702,8034,ATS,A,19
17,test,1,A,haborder.png,1,m,Fri Mar 28 2025 16:03:30 GMT-0500 (Central Daylight Time),268670.09999999404,CFD-BM-017-052-HC.jpg,1700,solid,I,m,878,1,1,48651.29999999702,220018.79999999702,8034,ATS,A,20
18,test,1,A,haborder.png,1,z,Fri Mar 28 2025 16:03:30 GMT-0500 (Central Daylight Time),270636.0,CFD-WF-019-015-A.jpg,1000,solid,I,z,939,12,1,50617.20000000298,220018.79999999702,8034,ATS,A,21
19,test,1,A,haborder.png,1,m,Fri Mar 28 2025 16:03:30 GMT-0500 (Central Daylight Time),273768.3999999985,CFD-BM-017-052-HC.jpg,1700,solid,I,m,1409,1,1,53749.60000000149,220018.79999999702,8034,ATS,A,22
20,test,1,A,haborder.png,1,m,Fri Mar 28 2025 16:03:30 GMT-0500 (Central Daylight Time),276234.3999999985,CFD-WM-006-013-HC.jpg,1700,solid,I,m,741,9,1,56215.60000000149,220018.79999999702,8034,ATS,A,23
21,test,1,A,haborder.png,1,z,Fri Mar 28 2025 16:03:30 GMT-0500 (Central Daylight Time),278701.299999997,CFD-WF-003-014-A.jpg,1600,solid,I,z,848,10,1,58682.5,220018.79999999702,8034,ATS,A,24
1,test,1,B,mfborder.png,1,m,Fri Mar 28 2025 16:03:30 GMT-0500 (Central Daylight Time),292795.799999997,CFD-WM-019-013-A.jpg,1200,dash,I,m,777,6,1,1999.2999999970198,290796.5,8034,ATS,A,1
2,test,1,B,mfborder.png,1,z,Fri Mar 28 2025 16:03:30 GMT-0500 (Central Daylight Time),295578.5,CFD-WF-002-008-HC.jpg,1900,dash,I,z,866,8,1,4782.0,290796.5,8034,ATS,A,2
3,test,1,B,mfborder.png,1,z,Fri Mar 28 2025 16:03:30 GMT-0500 (Central Daylight Time),298361.0,CFD-WF-002-008-HC.jpg,1900,dash,I,z,859,8,1,7564.5,290796.5,8034,ATS,A,3
4,test,1,B,mfborder.png,1,z,Fri Mar 28 2025 16:03:30 GMT-0500 (Central Daylight Time),300210.19999999553,CFD-WF-017-016-HC.jpg,1000,dash,I,z,816,12,1,9413.69999999553,290796.5,8034,ATS,A,4
5,test,1,B,mfborder.png,1,m,Fri Mar 28 2025 16:03:30 GMT-0500 (Central Daylight Time),303192.5,CFD-BM-029-026-HC.jpg,1700,dash,I,m,1259,1,1,12396.0,290796.5,8034,ATS,A,5
6,test,1,B,mfborder.png,1,z,Fri Mar 28 2025 16:03:30 GMT-0500 (Central Daylight Time),305358.59999999404,CFD-BF-010-005-HC.jpg,1500,dash,I,z,636,3,1,14562.09999999404,290796.5,8034,ATS,A,6
7,test,1,B,mfborder.png,1,m,Fri Mar 28 2025 16:03:30 GMT-0500 (Central Daylight Time),307291.09999999404,CFD-WM-019-013-A.jpg,1200,dash,I,m,714,6,1,16494.59999999404,290796.5,8034,ATS,A,7
8,test,1,B,mfborder.png,1,z,Fri Mar 28 2025 16:03:30 GMT-0500 (Central Daylight Time),309857.3999999985,CFD-BF-028-020-HC.jpg,1400,dash,I,z,1047,7,1,19060.89999999851,290796.5,8034,ATS,A,8
9,test,1,B,mfborder.png,1,z,Fri Mar 28 2025 16:03:30 GMT-0500 (Central Daylight Time),311656.69999999553,CFD-WF-017-016-HC.jpg,1000,dash,I,z,768,12,1,20860.19999999553,290796.5,8034,ATS,A,9
10,test,1,B,mfborder.png,1,z,Fri Mar 28 2025 16:03:30 GMT-0500 (Central Daylight Time),314372.3999999985,CFD-BF-028-020-HC.jpg,1400,dash,I,z,1288,7,1,23575.89999999851,290796.5,8034,ATS,A,10
11,test,1,B,mfborder.png,1,m,Fri Mar 28 2025 16:03:30 GMT-0500 (Central Daylight Time),316588.299999997,CFD-WM-006-013-HC.jpg,1600,dash,I,m,597,10,1,25791.79999999702,290796.5,8034,ATS,A,11
12,test,1,B,mfborder.png,1,z,Fri Mar 28 2025 16:03:30 GMT-0500 (Central Daylight Time),318987.69999999553,CFD-WF-003-014-A.jpg,1500,dash,I,z,881,11,1,28191.19999999553,290796.5,8034,ATS,A,12
13,test,1,B,mfborder.png,1,z,Fri Mar 28 2025 16:03:30 GMT-0500 (Central Daylight Time),320654.0,CFD-BF-023-013-A.jpg,1000,dash,I,z,638,4,1,29857.5,290796.5,8034,ATS,A,13
14,test,1,B,mfborder.png,1,z,Fri Mar 28 2025 16:03:30 GMT-0500 (Central Daylight Time),322953.09999999404,CFD-WF-003-014-A.jpg,1500,dash,I,z,775,11,1,32156.59999999404,290796.5,8034,ATS,A,14
15,test,1,B,mfborder.png,1,m,Fri Mar 28 2025 16:03:30 GMT-0500 (Central Daylight Time),325569.0,CFD-BM-005-010-A.jpg,2000,dash,I,m,584,5,1,34772.5,290796.5,8034,ATS,A,15
16,test,1,B,mfborder.png,1,m,Fri Mar 28 2025 16:03:30 GMT-0500 (Central Daylight Time),328851.0,CFD-BM-005-010-A.jpg,2000,dash,I,m,1264,5,1,38054.5,290796.5,8034,ATS,A,16
17,test,1,B,mfborder.png,1,m,Fri Mar 28 2025 16:03:30 GMT-0500 (Central Daylight Time),331300.3999999985,CFD-WM-013-015-A.jpg,1700,dash,I,m,730,9,1,40503.89999999851,290796.5,8034,ATS,A,17
18,test,1,B,mfborder.png,1,m,Fri Mar 28 2025 16:03:30 GMT-0500 (Central Daylight Time),333583.299999997,CFD-WM-013-015-A.jpg,1700,dash,I,m,561,9,1,42786.79999999702,290796.5,8034,ATS,A,18
19,test,1,B,mfborder.png,1,m,Fri Mar 28 2025 16:03:30 GMT-0500 (Central Daylight Time),335799.09999999404,CFD-WM-006-013-HC.jpg,1600,dash,I,m,586,10,1,45002.59999999404,290796.5,8034,ATS,A,19
20,test,1,B,mfborder.png,1,m,Fri Mar 28 2025 16:03:30 GMT-0500 (Central Daylight Time),338148.299999997,CFD-BM-010-019-A.jpg,1600,dash,I,m,730,2,1,47351.79999999702,290796.5,8034,ATS,A,20
20,test,1,B,mfborder.png,0,z,Fri Mar 28 2025 16:03:30 GMT-0500 (Central Daylight Time),340581.09999999404,CFD-BF-010-005-HC.jpg,1500,dash,I,m,905,3,1,49784.59999999404,290796.5,8034,ATS,A,21
21,test,1,B,mfborder.png,1,m,Fri Mar 28 2025 16:03:30 GMT-0500 (Central Daylight Time),342981.299999997,CFD-BM-029-026-HC.jpg,1700,dash,I,m,680,1,1,52184.79999999702,290796.5,8034,ATS,A,22
22,test,1,B,mfborder.png,1,z,Fri Mar 28 2025 16:03:30 GMT-0500 (Central Daylight Time),345113.0,CFD-BF-023-013-A.jpg,1000,dash,I,z,1109,4,1,54316.5,290796.5,8034,ATS,A,23
23,test,1,B,mfborder.png,1,m,Fri Mar 28 2025 16:03:30 GMT-0500 (Central Daylight Time),347578.69999999553,CFD-BM-010-019-A.jpg,1600,dash,I,m,840,2,1,56782.19999999553,290796.5,8034,ATS,A,24
0,prac,1,C,haborder.png,0,z,Fri Mar 28 2025 16:03:30 GMT-0500 (Central Daylight Time),385333.59999999404,CFD-BF-039-039-A.jpg,1700,solid,I,None,1515,8,1,3998.5999999940395,381335.0,8034,ATS,A,1
0,prac,1,C,mfborder.png,0,z,Fri Mar 28 2025 16:03:30 GMT-0500 (Central Daylight Time),389232.69999999553,CFD-WF-017-016-HC.jpg,1600,dash,I,None,1516,1,1,7897.69999999553,381335.0,8034,ATS,A,2
1,prac,1,C,haborder.png,1,m,Fri Mar 28 2025 16:03:30 GMT-0500 (Central Daylight Time),392498.09999999404,CFD-WM-004-005-HC.jpg,1400,solid,I,m,1081,12,1,11163.09999999404,381335.0,8034,ATS,A,3
2,prac,1,C,haborder.png,1,z,Fri Mar 28 2025 16:03:30 GMT-0500 (Central Daylight Time),396180.3999999985,CFD-WF-003-014-A.jpg,1600,dash,I,z,1287,9,1,14845.39999999851,381335.0,8034,ATS,A,4
3,prac,1,C,mfborder.png,1,z,Fri Mar 28 2025 16:03:30 GMT-0500 (Central Daylight Time),398712.69999999553,CFD-BF-028-020-HC.jpg,1000,dash,I,z,733,3,1,17377.69999999553,381335.0,8034,ATS,A,5
4,prac,1,C,haborder.png,1,m,Fri Mar 28 2025 16:03:30 GMT-0500 (Central Daylight Time),401078.799999997,CFD-WM-004-005-HC.jpg,1000,dash,I,m,576,11,1,19743.79999999702,381335.0,8034,ATS,A,6
5,prac,1,C,haborder.png,1,m,Fri Mar 28 2025 16:03:30 GMT-0500 (Central Daylight Time),403977.799999997,CFD-BM-029-026-HC.jpg,1500,solid,I,m,615,10,1,22642.79999999702,381335.0,8034,ATS,A,7
6,prac,1,C,haborder.png,1,z,Fri Mar 28 2025 16:03:30 GMT-0500 (Central Daylight Time),407293.5,CFD-BF-023-013-A.jpg,1900,dash,I,z,620,7,1,25958.5,381335.0,8034,ATS,A,8
7,prac,1,C,mfborder.png,1,m,Fri Mar 28 2025 16:03:30 GMT-0500 (Central Daylight Time),410042.69999999553,CFD-BM-005-010-A.jpg,1200,dash,I,m,764,5,1,28707.69999999553,381335.0,8034,ATS,A,9
8,prac,1,C,mfborder.png,1,z,Fri Mar 28 2025 16:03:30 GMT-0500 (Central Daylight Time),412908.3999999985,CFD-WF-019-015-A.jpg,1500,solid,I,z,571,2,1,31573.39999999851,381335.0,8034,ATS,A,10
9,prac,1,C,mfborder.png,1,m,Fri Mar 28 2025 16:03:30 GMT-0500 (Central Daylight Time),416424.09999999404,CFD-WM-013-015-A.jpg,1700,solid,I,m,1025,6,1,35089.09999999404,381335.0,8034,ATS,A,11
10,prac,1,C,mfborder.png,1,m,Fri Mar 28 2025 16:03:30 GMT-0500 (Central Daylight Time),419873.19999999553,CFD-BM-017-052-HC.jpg,2000,solid,I,m,658,4,1,38538.19999999553,381335.0,8034,ATS,A,12
0,test,1,C,haborder.png,0,z,Fri Mar 28 2025 16:03:30 GMT-0500 (Central Daylight Time),440566.3999999985,CFD-BM-010-019-A.jpg,1700,solid,I,None,1516,9,1,3232.2000000029802,437334.19999999553,8034,ATS,A,1
0,test,1,C,haborder.png,0,z,Fri Mar 28 2025 16:03:30 GMT-0500 (Central Daylight Time),442881.8999999985,CFD-WM-013-015-A.jpg,1400,solid,I,m,883,7,1,5547.70000000298,437334.19999999553,8034,ATS,A,2
0,test,1,C,mfborder.png,0,m,Fri Mar 28 2025 16:03:30 GMT-0500 (Central Daylight Time),445814.799999997,CFD-WM-019-013-A.jpg,2000,dash,I,z,904,5,1,8480.60000000149,437334.19999999553,8034,ATS,A,3
0,test,1,C,haborder.png,0,m,Fri Mar 28 2025 16:03:30 GMT-0500 (Central Daylight Time),448847.09999999404,CFD-WF-002-008-HC.jpg,1500,solid,I,None,1516,11,1,11512.89999999851,437334.19999999553,8034,ATS,A,4
0,test,1,C,haborder.png,0,m,Fri Mar 28 2025 16:03:30 GMT-0500 (Central Daylight Time),450929.799999997,CFD-WF-017-016-HC.jpg,1000,solid,I,z,986,12,1,13595.60000000149,437334.19999999553,8034,ATS,A,5
1,test,1,C,haborder.png,1,m,Fri Mar 28 2025 16:03:30 GMT-0500 (Central Daylight Time),453612.09999999404,CFD-BF-028-020-HC.jpg,1600,solid,I,m,1056,10,1,16277.89999999851,437334.19999999553,8034,ATS,A,6
1,test,1,C,haborder.png,0,z,Fri Mar 28 2025 16:03:30 GMT-0500 (Central Daylight Time),455661.59999999404,CFD-WM-013-015-A.jpg,1400,solid,I,m,629,7,1,18327.39999999851,437334.19999999553,8034,ATS,A,7
2,test,1,C,mfborder.png,1,z,Fri Mar 28 2025 16:03:30 GMT-0500 (Central Daylight Time),458127.299999997,CFD-BF-010-005-HC.jpg,1700,dash,I,z,736,1,1,20793.10000000149,437334.19999999553,8034,ATS,A,8
2,test,1,C,haborder.png,0,z,Fri Mar 28 2025 16:03:30 GMT-0500 (Central Daylight Time),460660.09999999404,CFD-BM-010-019-A.jpg,1700,solid,I,m,806,9,1,23325.89999999851,437334.19999999553,8034,ATS,A,9
3,test,1,C,mfborder.png,1,z,Fri Mar 28 2025 16:03:30 GMT-0500 (Central Daylight Time),463109.3999999985,CFD-WF-003-014-A.jpg,1500,dash,I,z,929,3,1,25775.20000000298,437334.19999999553,8034,ATS,A,10
3,test,1,C,haborder.png,0,m,Fri Mar 28 2025 16:03:30 GMT-0500 (Central Daylight Time),465658.5,CFD-WF-002-008-HC.jpg,1500,solid,I,z,1024,11,1,28324.30000000447,437334.19999999553,8034,ATS,A,11
4,test,1,C,mfborder.png,1,m,Fri Mar 28 2025 16:03:30 GMT-0500 (Central Daylight Time),468791.0,CFD-WM-019-013-A.jpg,2000,dash,I,m,1111,5,1,31456.80000000447,437334.19999999553,8034,ATS,A,12
5,test,1,C,mfborder.png,1,m,Fri Mar 28 2025 16:03:30 GMT-0500 (Central Daylight Time),470707.09999999404,CFD-BM-029-026-HC.jpg,1200,dash,I,m,691,6,1,33372.89999999851,437334.19999999553,8034,ATS,A,13
6,test,1,C,mfborder.png,1,m,Fri Mar 28 2025 16:03:30 GMT-0500 (Central Daylight Time),472389.69999999553,CFD-WM-006-013-HC.jpg,1000,dash,I,m,654,4,1,35055.5,437334.19999999553,8034,ATS,A,14
6,test,1,C,haborder.png,0,z,Fri Mar 28 2025 16:03:30 GMT-0500 (Central Daylight Time),475255.5,CFD-BM-005-010-A.jpg,1900,solid,I,m,936,8,1,37921.30000000447,437334.19999999553,8034,ATS,A,15
6,test,1,C,haborder.png,0,m,Fri Mar 28 2025 16:03:30 GMT-0500 (Central Daylight Time),477538.19999999553,CFD-BF-028-020-HC.jpg,1600,solid,I,z,658,10,1,40204.0,437334.19999999553,8034,ATS,A,16
7,test,1,C,mfborder.png,1,m,Fri Mar 28 2025 16:03:30 GMT-0500 (Central Daylight Time),479370.799999997,CFD-WM-006-013-HC.jpg,1000,dash,I,m,815,4,1,42036.60000000149,437334.19999999553,8034,ATS,A,17
8,test,1,C,mfborder.png,1,m,Fri Mar 28 2025 16:03:30 GMT-0500 (Central Daylight Time),481370.299999997,CFD-BM-029-026-HC.jpg,1200,dash,I,m,782,6,1,44036.10000000149,437334.19999999553,8034,ATS,A,18
9,test,1,C,mfborder.png,1,z,Fri Mar 28 2025 16:03:30 GMT-0500 (Central Daylight Time),483752.8999999985,CFD-WF-003-014-A.jpg,1500,dash,I,z,851,3,1,46418.70000000298,437334.19999999553,8034,ATS,A,19
10,test,1,C,mfborder.png,1,z,Fri Mar 28 2025 16:03:30 GMT-0500 (Central Daylight Time),486352.0,CFD-BF-023-013-A.jpg,1600,dash,I,z,969,2,1,49017.80000000447,437334.19999999553,8034,ATS,A,20
11,test,1,C,mfborder.png,1,z,Fri Mar 28 2025 16:03:30 GMT-0500 (Central Daylight Time),488834.5,CFD-BF-010-005-HC.jpg,1700,dash,I,z,757,1,1,51500.30000000447,437334.19999999553,8034,ATS,A,21
11,test,1,C,haborder.png,0,z,Fri Mar 28 2025 16:03:30 GMT-0500 (Central Daylight Time),491633.69999999553,CFD-BM-005-010-A.jpg,1900,solid,I,m,867,8,1,54299.5,437334.19999999553,8034,ATS,A,22
11,test,1,C,haborder.png,0,m,Fri Mar 28 2025 16:03:30 GMT-0500 (Central Daylight Time),494166.299999997,CFD-WF-017-016-HC.jpg,1000,solid,I,None,1512,12,1,56832.10000000149,437334.19999999553,8034,ATS,A,23
11,test,1,C,mfborder.png,0,z,Fri Mar 28 2025 16:03:30 GMT-0500 (Central Daylight Time),496648.799999997,CFD-BF-023-013-A.jpg,1600,dash,I,m,859,2,1,59314.60000000149,437334.19999999553,8034,ATS,A,24
0,test,2,C,haborder.png,0,z,Fri Mar 28 2025 16:03:30 GMT-0500 (Central Daylight Time),560095.6999999955,CFD-BF-039-039-A.jpg,1900,solid,I,None,1516,8,1,3432.1999999955297,556663.5,8034,ATS,A,1
0,test,2,C,mfborder.png,0,m,Fri Mar 28 2025 16:03:30 GMT-0500 (Central Daylight Time),563028.0,CFD-BM-005-010-A.jpg,2000,dash,I,z,902,5,1,6364.5,556663.5,8034,ATS,A,2
0,test,2,C,mfborder.png,0,z,Fri Mar 28 2025 16:03:30 GMT-0500 (Central Daylight Time),565910.299999997,CFD-WF-019-015-A.jpg,1600,dash,I,m,1261,2,1,9246.79999999702,556663.5,8034,ATS,A,3
1,test,2,C,haborder.png,1,m,Fri Mar 28 2025 16:03:30 GMT-0500 (Central Daylight Time),568809.3999999985,CFD-BM-029-026-HC.jpg,1600,solid,I,m,1244,10,1,12145.89999999851,556663.5,8034,ATS,A,4
1,test,2,C,mfborder.png,0,m,Fri Mar 28 2025 16:03:30 GMT-0500 (Central Daylight Time),571542.0,CFD-WM-013-015-A.jpg,1200,dash,I,None,1516,6,1,14878.5,556663.5,8034,ATS,A,5
1,test,2,C,haborder.png,0,z,Fri Mar 28 2025 16:03:30 GMT-0500 (Central Daylight Time),574174.5,CFD-WF-003-014-A.jpg,1700,solid,I,m,911,9,1,17511.0,556663.5,8034,ATS,A,6
1,test,2,C,mfborder.png,0,m,Fri Mar 28 2025 16:03:30 GMT-0500 (Central Daylight Time),576907.099999994,CFD-WM-013-015-A.jpg,1200,dash,I,None,1515,6,1,20243.59999999404,556663.5,8034,ATS,A,7
1,test,2,C,mfborder.png,0,m,Fri Mar 28 2025 16:03:30 GMT-0500 (Central Daylight Time),579439.6999999955,CFD-BM-017-052-HC.jpg,1000,dash,I,None,1516,4,1,22776.19999999553,556663.5,8034,ATS,A,8
1,test,2,C,haborder.png,0,m,Fri Mar 28 2025 16:03:30 GMT-0500 (Central Daylight Time),581972.1999999955,CFD-WM-004-005-HC.jpg,1000,solid,I,None,1516,12,1,25308.69999999553,556663.5,8034,ATS,A,9
2,test,2,C,haborder.png,1,m,Fri Mar 28 2025 16:03:30 GMT-0500 (Central Daylight Time),584188.0,CFD-WM-004-005-HC.jpg,1500,solid,I,m,689,11,1,27524.5,556663.5,8034,ATS,A,10
3,test,2,C,haborder.png,1,m,Fri Mar 28 2025 16:03:30 GMT-0500 (Central Daylight Time),586654.1999999955,CFD-BM-029-026-HC.jpg,1600,solid,I,m,845,10,1,29990.69999999553,556663.5,8034,ATS,A,11
4,test,2,C,mfborder.png,1,z,Fri Mar 28 2025 16:03:30 GMT-0500 (Central Daylight Time),589089.799999997,CFD-WF-017-016-HC.jpg,1700,dash,I,z,711,1,1,32426.29999999702,556663.5,8034,ATS,A,12
5,test,2,C,mfborder.png,1,z,Fri Mar 28 2025 16:03:30 GMT-0500 (Central Daylight Time),591268.8999999985,CFD-BF-028-020-HC.jpg,1500,dash,I,z,655,3,1,34605.39999999851,556663.5,8034,ATS,A,13
6,test,2,C,mfborder.png,1,m,Fri Mar 28 2025 16:03:30 GMT-0500 (Central Daylight Time),593835.0,CFD-BM-005-010-A.jpg,2000,dash,I,m,540,5,1,37171.5,556663.5,8034,ATS,A,14
7,test,2,C,haborder.png,1,m,Fri Mar 28 2025 16:03:30 GMT-0500 (Central Daylight Time),595751.099999994,CFD-WM-004-005-HC.jpg,1000,solid,I,m,886,12,1,39087.59999999404,556663.5,8034,ATS,A,15
7,test,2,C,mfborder.png,0,m,Fri Mar 28 2025 16:03:30 GMT-0500 (Central Daylight Time),597267.5,CFD-BM-017-052-HC.jpg,1000,dash,I,z,490,4,1,40604.0,556663.5,8034,ATS,A,16
8,test,2,C,haborder.png,1,m,Fri Mar 28 2025 16:03:30 GMT-0500 (Central Daylight Time),599366.6999999955,CFD-WM-004-005-HC.jpg,1500,solid,I,m,570,11,1,42703.19999999553,556663.5,8034,ATS,A,17
9,test,2,C,mfborder.png,1,z,Fri Mar 28 2025 16:03:30 GMT-0500 (Central Daylight Time),601765.799999997,CFD-BF-028-020-HC.jpg,1500,dash,I,z,879,3,1,45102.29999999702,556663.5,8034,ATS,A,18
10,test,2,C,haborder.png,1,z,Fri Mar 28 2025 16:03:30 GMT-0500 (Central Daylight Time),604815.0,CFD-BF-039-039-A.jpg,1900,solid,I,z,1127,8,1,48151.5,556663.5,8034,ATS,A,19
11,test,2,C,mfborder.png,1,z,Fri Mar 28 2025 16:03:30 GMT-0500 (Central Daylight Time),607314.299999997,CFD-WF-017-016-HC.jpg,1700,dash,I,z,783,1,1,50650.79999999702,556663.5,8034,ATS,A,20
11,test,2,C,haborder.png,0,z,Fri Mar 28 2025 16:03:30 GMT-0500 (Central Daylight Time),609546.6999999955,CFD-BF-023-013-A.jpg,1400,solid,I,m,815,7,1,52883.19999999553,556663.5,8034,ATS,A,21
12,test,2,C,mfborder.png,1,z,Fri Mar 28 2025 16:03:30 GMT-0500 (Central Daylight Time),611829.1999999955,CFD-WF-019-015-A.jpg,1600,dash,I,z,654,2,1,55165.69999999553,556663.5,8034,ATS,A,22
12,test,2,C,haborder.png,0,z,Fri Mar 28 2025 16:03:30 GMT-0500 (Central Daylight Time),614412.0,CFD-WF-003-014-A.jpg,1700,solid,I,m,856,9,1,57748.5,556663.5,8034,ATS,A,23
12,test,2,C,haborder.png,0,z,Fri Mar 28 2025 16:03:30 GMT-0500 (Central Daylight Time),616328.0,CFD-BF-023-013-A.jpg,1400,solid,I,m,493,7,1,59664.5,556663.5,8034,ATS,A,24
0,test,3,C,haborder.png,0,z,Fri Mar 28 2025 16:03:30 GMT-0500 (Central Daylight Time),679575.0,CFD-BM-010-019-A.jpg,1700,solid,I,None,1516,9,1,3232.4000000059605,676342.599999994,8034,ATS,A,1
0,test,3,C,haborder.png,0,m,Fri Mar 28 2025 16:03:30 GMT-0500 (Central Daylight Time),682607.299999997,CFD-WF-002-008-HC.jpg,1500,solid,I,None,1515,11,1,6264.70000000298,676342.599999994,8034,ATS,A,2
0,test,3,C,mfborder.png,0,m,Fri Mar 28 2025 16:03:30 GMT-0500 (Central Daylight Time),685402.0,CFD-BM-029-026-HC.jpg,1200,dash,I,None,1578,6,1,9059.40000000596,676342.599999994,8034,ATS,A,3
1,test,3,C,mfborder.png,1,m,Fri Mar 28 2025 16:03:30 GMT-0500 (Central Daylight Time),687039.299999997,CFD-WM-006-013-HC.jpg,1000,dash,I,m,611,4,1,10696.70000000298,676342.599999994,8034,ATS,A,4
1,test,3,C,haborder.png,0,m,Fri Mar 28 2025 16:03:30 GMT-0500 (Central Daylight Time),689338.599999994,CFD-WF-002-008-HC.jpg,1500,solid,I,z,782,11,1,12996.0,676342.599999994,8034,ATS,A,5
2,test,3,C,haborder.png,1,m,Fri Mar 28 2025 16:03:30 GMT-0500 (Central Daylight Time),691187.799999997,CFD-WF-017-016-HC.jpg,1000,solid,I,m,823,12,1,14845.20000000298,676342.599999994,8034,ATS,A,6
3,test,3,C,haborder.png,1,m,Fri Mar 28 2025 16:03:30 GMT-0500 (Central Daylight Time),693653.6999999955,CFD-BF-028-020-HC.jpg,1600,solid,I,m,837,10,1,17311.10000000149,676342.599999994,8034,ATS,A,7
4,test,3,C,haborder.png,1,z,Fri Mar 28 2025 16:03:30 GMT-0500 (Central Daylight Time),695590.0,CFD-BM-010-019-A.jpg,1700,solid,I,z,216,9,1,19247.40000000596,676342.599999994,8034,ATS,A,8
4,test,3,C,mfborder.png,0,m,Fri Mar 28 2025 16:03:30 GMT-0500 (Central Daylight Time),699118.799999997,CFD-WM-019-013-A.jpg,2000,dash,I,None,1516,5,1,22776.20000000298,676342.599999994,8034,ATS,A,9
5,test,3,C,mfborder.png,1,m,Fri Mar 28 2025 16:03:30 GMT-0500 (Central Daylight Time),701651.1999999955,CFD-WM-019-013-A.jpg,2000,dash,I,m,507,5,1,25308.60000000149,676342.599999994,8034,ATS,A,10
5,test,3,C,mfborder.png,0,z,Fri Mar 28 2025 16:03:30 GMT-0500 (Central Daylight Time),703967.299999997,CFD-WF-003-014-A.jpg,1500,dash,I,m,786,3,1,27624.70000000298,676342.599999994,8034,ATS,A,11
6,test,3,C,mfborder.png,1,z,Fri Mar 28 2025 16:03:30 GMT-0500 (Central Daylight Time),706483.1999999955,CFD-WF-003-014-A.jpg,1500,dash,I,z,990,3,1,30140.60000000149,676342.599999994,8034,ATS,A,12
6,test,3,C,haborder.png,0,z,Fri Mar 28 2025 16:03:30 GMT-0500 (Central Daylight Time),709398.8999999985,CFD-BM-005-010-A.jpg,1900,solid,I,m,986,8,1,33056.30000000447,676342.599999994,8034,ATS,A,13
6,test,3,C,mfborder.png,0,m,Fri Mar 28 2025 16:03:30 GMT-0500 (Central Daylight Time),711798.299999997,CFD-BM-029-026-HC.jpg,1200,dash,I,z,1178,6,1,35455.70000000298,676342.599999994,8034,ATS,A,14
7,test,3,C,haborder.png,1,z,Fri Mar 28 2025 16:03:30 GMT-0500 (Central Daylight Time),714364.099999994,CFD-WM-013-015-A.jpg,1400,solid,I,z,1147,7,1,38021.5,676342.599999994,8034,ATS,A,15
7,test,3,C,mfborder.png,0,m,Fri Mar 28 2025 16:03:30 GMT-0500 (Central Daylight Time),716896.3999999985,CFD-WM-006-013-HC.jpg,1000,dash,I,None,1515,4,1,40553.80000000447,676342.599999994,8034,ATS,A,16
8,test,3,C,mfborder.png,1,z,Fri Mar 28 2025 16:03:30 GMT-0500 (Central Daylight Time),719262.599999994,CFD-BF-023-013-A.jpg,1600,dash,I,z,745,2,1,42920.0,676342.599999994,8034,ATS,A,17
8,test,3,C,haborder.png,0,z,Fri Mar 28 2025 16:03:30 GMT-0500 (Central Daylight Time),721445.099999994,CFD-WM-013-015-A.jpg,1400,solid,I,m,763,7,1,45102.5,676342.599999994,8034,ATS,A,18
9,test,3,C,mfborder.png,1,z,Fri Mar 28 2025 16:03:30 GMT-0500 (Central Daylight Time),723894.299999997,CFD-BF-023-013-A.jpg,1600,dash,I,z,828,2,1,47551.70000000298,676342.599999994,8034,ATS,A,19
10,test,3,C,haborder.png,1,m,Fri Mar 28 2025 16:03:30 GMT-0500 (Central Daylight Time),726443.299999997,CFD-BF-028-020-HC.jpg,1600,solid,I,m,931,10,1,50100.70000000298,676342.599999994,8034,ATS,A,20
10,test,3,C,haborder.png,0,m,Fri Mar 28 2025 16:03:30 GMT-0500 (Central Daylight Time),728692.6999999955,CFD-WF-017-016-HC.jpg,1000,solid,I,z,1221,12,1,52350.10000000149,676342.599999994,8034,ATS,A,21
10,test,3,C,mfborder.png,0,z,Fri Mar 28 2025 16:03:30 GMT-0500 (Central Daylight Time),731492.0,CFD-BF-010-005-HC.jpg,1700,dash,I,m,1072,1,1,55149.40000000596,676342.599999994,8034,ATS,A,22
11,test,3,C,mfborder.png,1,z,Fri Mar 28 2025 16:03:30 GMT-0500 (Central Daylight Time),733957.799999997,CFD-BF-010-005-HC.jpg,1700,dash,I,z,745,1,1,57615.20000000298,676342.599999994,8034,ATS,A,23
11,test,3,C,haborder.png,0,z,Fri Mar 28 2025 16:03:30 GMT-0500 (Central Daylight Time),736440.599999994,CFD-BM-005-010-A.jpg,1900,solid,I,m,560,8,1,60098.0,676342.599999994,8034,ATS,A,24
0,test,4,C,haborder.png,0,z,Fri Mar 28 2025 16:03:30 GMT-0500 (Central Daylight Time),771246.299999997,CFD-BF-023-013-A.jpg,1400,solid,I,None,1515,7,1,2931.7999999970198,768314.5,8034,ATS,A,1
1,test,4,C,haborder.png,1,m,Fri Mar 28 2025 16:03:30 GMT-0500 (Central Daylight Time),773129.0,CFD-WM-004-005-HC.jpg,1000,solid,I,m,847,12,1,4814.5,768314.5,8034,ATS,A,2
2,test,4,C,mfborder.png,1,z,Fri Mar 28 2025 16:03:30 GMT-0500 (Central Daylight Time),775911.599999994,CFD-BF-028-020-HC.jpg,1500,dash,I,z,1260,3,1,7597.0999999940395,768314.5,8034,ATS,A,3
2,test,4,C,haborder.png,0,z,Fri Mar 28 2025 16:03:30 GMT-0500 (Central Daylight Time),778627.299999997,CFD-BF-039-039-A.jpg,1900,solid,I,m,790,8,1,10312.79999999702,768314.5,8034,ATS,A,4
2,test,4,C,mfborder.png,0,z,Fri Mar 28 2025 16:03:30 GMT-0500 (Central Daylight Time),781759.5,CFD-WF-019-015-A.jpg,1600,dash,I,None,1515,2,1,13445.0,768314.5,8034,ATS,A,5
3,test,4,C,haborder.png,1,z,Fri Mar 28 2025 16:03:30 GMT-0500 (Central Daylight Time),784558.799999997,CFD-BF-023-013-A.jpg,1400,solid,I,z,1378,7,1,16244.29999999702,768314.5,8034,ATS,A,6
3,test,4,C,haborder.png,0,z,Fri Mar 28 2025 16:03:30 GMT-0500 (Central Daylight Time),787790.8999999985,CFD-WF-003-014-A.jpg,1700,solid,I,None,1512,9,1,19476.39999999851,768314.5,8034,ATS,A,7
4,test,4,C,haborder.png,1,z,Fri Mar 28 2025 16:03:30 GMT-0500 (Central Daylight Time),790173.5,CFD-WF-003-014-A.jpg,1700,solid,I,z,654,9,1,21859.0,768314.5,8034,ATS,A,8
5,test,4,C,mfborder.png,1,m,Fri Mar 28 2025 16:03:30 GMT-0500 (Central Daylight Time),791922.799999997,CFD-BM-017-052-HC.jpg,1000,dash,I,m,733,4,1,23608.29999999702,768314.5,8034,ATS,A,9
6,test,4,C,mfborder.png,1,m,Fri Mar 28 2025 16:03:30 GMT-0500 (Central Daylight Time),793922.3999999985,CFD-WM-013-015-A.jpg,1200,dash,I,m,770,6,1,25607.89999999851,768314.5,8034,ATS,A,10
6,test,4,C,haborder.png,0,m,Fri Mar 28 2025 16:03:30 GMT-0500 (Central Daylight Time),796404.8999999985,CFD-WM-004-005-HC.jpg,1000,solid,I,z,1463,12,1,28090.39999999851,768314.5,8034,ATS,A,11
6,test,4,C,mfborder.png,0,z,Fri Mar 28 2025 16:03:30 GMT-0500 (Central Daylight Time),798887.5,CFD-WF-019-015-A.jpg,1600,dash,I,m,860,2,1,30573.0,768314.5,8034,ATS,A,12
6,test,4,C,haborder.png,0,m,Fri Mar 28 2025 16:03:30 GMT-0500 (Central Daylight Time),802020.099999994,CFD-BM-029-026-HC.jpg,1600,solid,I,None,1516,10,1,33705.59999999404,768314.5,8034,ATS,A,13
6,test,4,C,mfborder.png,0,m,Fri Mar 28 2025 16:03:30 GMT-0500 (Central Daylight Time),803952.6999999955,CFD-BM-017-052-HC.jpg,1000,dash,I,z,853,4,1,35638.19999999553,768314.5,8034,ATS,A,14
7,test,4,C,mfborder.png,1,z,Fri Mar 28 2025 16:03:30 GMT-0500 (Central Daylight Time),806601.8999999985,CFD-WF-017-016-HC.jpg,1700,dash,I,z,925,1,1,38287.39999999851,768314.5,8034,ATS,A,15
7,test,4,C,mfborder.png,0,m,Fri Mar 28 2025 16:03:30 GMT-0500 (Central Daylight Time),810018.1999999955,CFD-BM-005-010-A.jpg,2000,dash,I,z,1400,5,1,41703.69999999553,768314.5,8034,ATS,A,16
8,test,4,C,mfborder.png,1,m,Fri Mar 28 2025 16:03:30 GMT-0500 (Central Daylight Time),811916.799999997,CFD-WM-013-015-A.jpg,1200,dash,I,m,669,6,1,43602.29999999702,768314.5,8034,ATS,A,17
9,test,4,C,mfborder.png,1,z,Fri Mar 28 2025 16:03:30 GMT-0500 (Central Daylight Time),814232.6999999955,CFD-BF-028-020-HC.jpg,1500,dash,I,z,784,3,1,45918.19999999553,768314.5,8034,ATS,A,18
10,test,4,C,mfborder.png,1,z,Fri Mar 28 2025 16:03:30 GMT-0500 (Central Daylight Time),817165.1999999955,CFD-WF-017-016-HC.jpg,1700,dash,I,z,1213,1,1,48850.69999999553,768314.5,8034,ATS,A,19
11,test,4,C,mfborder.png,1,m,Fri Mar 28 2025 16:03:30 GMT-0500 (Central Daylight Time),820297.6999999955,CFD-BM-005-010-A.jpg,2000,dash,I,m,1100,5,1,51983.19999999553,768314.5,8034,ATS,A,20
11,test,4,C,haborder.png,0,m,Fri Mar 28 2025 16:03:30 GMT-0500 (Central Daylight Time),823329.8999999985,CFD-WM-004-005-HC.jpg,1500,solid,I,None,1516,11,1,55015.39999999851,768314.5,8034,ATS,A,21
12,test,4,C,haborder.png,1,z,Fri Mar 28 2025 16:03:30 GMT-0500 (Central Daylight Time),826711.799999997,CFD-BF-039-039-A.jpg,1900,solid,I,z,1451,8,1,58397.29999999702,768314.5,8034,ATS,A,22
13,test,4,C,haborder.png,1,m,Fri Mar 28 2025 16:03:30 GMT-0500 (Central Daylight Time),829327.8999999985,CFD-BM-029-026-HC.jpg,1600,solid,I,m,993,10,1,61013.39999999851,768314.5,8034,ATS,A,23
14,test,4,C,haborder.png,1,m,Fri Mar 28 2025 16:03:30 GMT-0500 (Central Daylight Time),831560.799999997,CFD-WM-004-005-HC.jpg,1500,solid,I,m,709,11,1,63246.29999999702,768314.5,8034,ATS,A,24
