Number,acc_sum,block,block_c,block_cond,con_img,correct,correct_response,datetime,endtime,jitter,project,response,response_time,row_sel,session_number,start_end,starttime,subject_id,task,task_vers,trial
4,1,prac,1,A,circle.png,1,z,Fri Apr 18 2025 14:07:18 GMT-0500 (Central Daylight Time),65891.19999998808,1400,O,z,1349,4,1,3525.699999988079,62365.5,7129,NTS,C,1
8,2,prac,1,A,circle.png,1,m,Fri Apr 18 2025 14:07:18 GMT-0500 (Central Daylight Time),69322.5,1600,O,m,1039,7,1,3421.5,65901.0,7129,NTS,C,2
3,3,prac,1,A,circle.png,1,z,Fri Apr 18 2025 14:07:18 GMT-0500 (Central Daylight Time),72039.0,1200,O,z,717,3,1,2709.100000023842,69329.89999997616,7129,NTS,C,3
8,4,prac,1,A,circle.png,1,m,Fri Apr 18 2025 14:07:18 GMT-0500 (Central Daylight Time),75088.0,1600,O,m,676,7,1,3040.4000000059605,72047.59999999404,7129,NTS,C,4
9,5,prac,1,A,circle.png,1,m,Fri Apr 18 2025 14:07:18 GMT-0500 (Central Daylight Time),78054.39999997616,1500,O,m,683,8,1,2959.5,75094.89999997616,7129,NTS,C,5
6,6,prac,1,A,circle.png,1,m,Fri Apr 18 2025 14:07:18 GMT-0500 (Central Daylight Time),81502.59999999404,1900,O,m,750,5,1,3442.4000000059605,78060.19999998808,7129,NTS,C,6
1,7,prac,1,A,circle.png,1,z,Fri Apr 18 2025 14:07:18 GMT-0500 (Central Daylight Time),83835.29999998212,1000,O,z,540,1,1,2325.699999988079,81509.59999999404,7129,NTS,C,7
6,8,prac,1,A,circle.png,1,m,Fri Apr 18 2025 14:07:18 GMT-0500 (Central Daylight Time),87183.59999999404,1900,O,m,667,5,1,3338.9000000059605,83844.69999998808,7129,NTS,C,8
2,9,prac,1,A,circle.png,1,z,Fri Apr 18 2025 14:07:18 GMT-0500 (Central Daylight Time),90581.59999999404,2000,O,z,610,2,1,3390.300000011921,87191.29999998212,7129,NTS,C,9
7,10,prac,1,A,circle.png,1,m,Fri Apr 18 2025 14:07:18 GMT-0500 (Central Daylight Time),93797.5,1700,O,m,729,6,1,3208.4000000059605,90589.09999999404,7129,NTS,C,10
9,11,prac,1,A,circle.png,1,m,Fri Apr 18 2025 14:07:18 GMT-0500 (Central Daylight Time),96631.5,1500,O,m,559,8,1,2824.600000023842,93806.89999997616,7129,NTS,C,11
1,12,prac,1,A,circle.png,1,z,Fri Apr 18 2025 14:07:18 GMT-0500 (Central Daylight Time),98964.79999998212,1000,O,z,537,1,1,2325.7999999821186,96639.0,7129,NTS,C,12
2,1,prac,1,B,triangle.png,1,m,Fri Apr 18 2025 14:07:18 GMT-0500 (Central Daylight Time),142051.0,1700,O,m,1208,2,1,3693.0,138358.0,7129,NTS,C,1
8,2,prac,1,B,triangle.png,1,m,Fri Apr 18 2025 14:07:18 GMT-0500 (Central Daylight Time),144649.5,1200,O,m,599,7,1,2592.9000000059605,142056.59999999404,7129,NTS,C,2
9,3,prac,1,B,triangle.png,1,z,Fri Apr 18 2025 14:07:18 GMT-0500 (Central Daylight Time),147564.0,1400,O,z,721,8,1,2908.600000023842,144655.39999997616,7129,NTS,C,3
3,4,prac,1,B,triangle.png,1,z,Fri Apr 18 2025 14:07:18 GMT-0500 (Central Daylight Time),150796.39999997616,1600,O,z,851,3,1,3225.0999999940395,147571.29999998212,7129,NTS,C,4
9,5,prac,1,B,triangle.png,1,z,Fri Apr 18 2025 14:07:18 GMT-0500 (Central Daylight Time),154211.5,1400,O,z,1222,8,1,3409.300000011921,150802.19999998808,7129,NTS,C,5
4,6,prac,1,B,triangle.png,1,m,Fri Apr 18 2025 14:07:18 GMT-0500 (Central Daylight Time),157077.5,1500,O,m,577,4,1,2857.5,154220.0,7129,NTS,C,6
1,7,prac,1,B,triangle.png,1,z,Fri Apr 18 2025 14:07:18 GMT-0500 (Central Daylight Time),160493.19999998808,1900,O,z,720,1,1,3409.199999988079,157084.0,7129,NTS,C,7
1,8,prac,1,B,triangle.png,1,z,Fri Apr 18 2025 14:07:18 GMT-0500 (Central Daylight Time),163809.29999998212,1900,O,z,616,1,1,3308.7999999821186,160500.5,7129,NTS,C,8
4,9,prac,1,B,triangle.png,1,m,Fri Apr 18 2025 14:07:18 GMT-0500 (Central Daylight Time),166876.79999998212,1500,O,m,772,4,1,3060.0999999940395,163816.69999998808,7129,NTS,C,9
7,10,prac,1,B,triangle.png,1,z,Fri Apr 18 2025 14:07:18 GMT-0500 (Central Daylight Time),170424.59999999404,2000,O,z,750,6,1,3542.4000000059605,166882.19999998808,7129,NTS,C,10
6,11,prac,1,B,triangle.png,1,m,Fri Apr 18 2025 14:07:18 GMT-0500 (Central Daylight Time),173656.09999999404,1000,O,m,1432,5,1,3225.5999999940395,170430.5,7129,NTS,C,11
6,12,prac,1,B,triangle.png,1,m,Fri Apr 18 2025 14:07:18 GMT-0500 (Central Daylight Time),176270.69999998808,1000,O,m,818,5,1,2609.199999988079,173661.5,7129,NTS,C,12
2,1,test,1,A,circle.png,1,z,Fri Apr 18 2025 14:07:18 GMT-0500 (Central Daylight Time),204212.19999998808,2000,O,z,1164,2,1,3179.5,201032.69999998808,7129,NTS,C,1
2,2,test,1,A,circle.png,1,z,Fri Apr 18 2025 14:07:18 GMT-0500 (Central Daylight Time),206828.59999999404,2000,O,z,598,2,1,2609.7000000178814,204218.89999997616,7129,NTS,C,2
1,3,test,1,A,circle.png,1,z,Fri Apr 18 2025 14:07:18 GMT-0500 (Central Daylight Time),208795.69999998808,1000,O,z,934,1,1,1961.5,206834.19999998808,7129,NTS,C,3
3,4,test,1,A,circle.png,1,z,Fri Apr 18 2025 14:07:18 GMT-0500 (Central Daylight Time),210560.29999998212,1200,O,z,544,3,1,1759.5,208800.79999998212,7129,NTS,C,4
8,5,test,1,A,circle.png,1,m,Fri Apr 18 2025 14:07:18 GMT-0500 (Central Daylight Time),212743.0,1600,O,m,552,7,1,2177.600000023842,210565.39999997616,7129,NTS,C,5
3,6,test,1,A,circle.png,1,z,Fri Apr 18 2025 14:07:18 GMT-0500 (Central Daylight Time),214509.19999998808,1200,O,z,537,3,1,1758.4000000059605,212750.79999998212,7129,NTS,C,6
8,7,test,1,A,circle.png,1,m,Fri Apr 18 2025 14:07:18 GMT-0500 (Central Daylight Time),216925.39999997616,1600,O,m,781,7,1,2410.2999999821186,214515.09999999404,7129,NTS,C,7
7,8,test,1,A,circle.png,1,m,Fri Apr 18 2025 14:07:18 GMT-0500 (Central Daylight Time),219325.09999999404,1700,O,m,682,6,1,2392.4000000059605,216932.69999998808,7129,NTS,C,8
9,9,test,1,A,circle.png,1,m,Fri Apr 18 2025 14:07:18 GMT-0500 (Central Daylight Time),221790.59999999404,1500,O,m,936,8,1,2459.5999999940395,219331.0,7129,NTS,C,9
9,10,test,1,A,circle.png,1,m,Fri Apr 18 2025 14:07:18 GMT-0500 (Central Daylight Time),224222.5,1500,O,m,899,8,1,2428.300000011921,221794.19999998808,7129,NTS,C,10
8,11,test,1,A,circle.png,1,m,Fri Apr 18 2025 14:07:18 GMT-0500 (Central Daylight Time),226338.59999999404,1600,O,m,488,7,1,2108.4000000059605,224230.19999998808,7129,NTS,C,11
2,12,test,1,A,circle.png,1,z,Fri Apr 18 2025 14:07:18 GMT-0500 (Central Daylight Time),228955.09999999404,2000,O,z,597,2,1,2610.9000000059605,226344.19999998808,7129,NTS,C,12
7,13,test,1,A,circle.png,1,m,Fri Apr 18 2025 14:07:18 GMT-0500 (Central Daylight Time),231604.29999998212,1700,O,m,921,6,1,2645.9000000059605,228958.39999997616,7129,NTS,C,13
6,14,test,1,A,circle.png,1,m,Fri Apr 18 2025 14:07:18 GMT-0500 (Central Daylight Time),234686.0,1900,O,m,1164,5,1,3077.100000023842,231608.89999997616,7129,NTS,C,14
6,15,test,1,A,circle.png,1,m,Fri Apr 18 2025 14:07:18 GMT-0500 (Central Daylight Time),237468.5,1900,O,m,854,5,1,2777.0,234691.5,7129,NTS,C,15
1,16,test,1,A,circle.png,1,z,Fri Apr 18 2025 14:07:18 GMT-0500 (Central Daylight Time),239251.29999998212,1000,O,z,757,1,1,1777.2999999821186,237474.0,7129,NTS,C,16
4,17,test,1,A,circle.png,1,z,Fri Apr 18 2025 14:07:18 GMT-0500 (Central Daylight Time),241850.0,1400,O,z,1172,4,1,2593.9000000059605,239256.09999999404,7129,NTS,C,17
9,18,test,1,A,circle.png,1,m,Fri Apr 18 2025 14:07:18 GMT-0500 (Central Daylight Time),244132.59999999404,1500,O,m,764,8,1,2277.9000000059605,241854.69999998808,7129,NTS,C,18
6,19,test,1,A,circle.png,1,m,Fri Apr 18 2025 14:07:18 GMT-0500 (Central Daylight Time),246832.5,1900,O,m,768,5,1,2693.0,244139.5,7129,NTS,C,19
1,20,test,1,A,circle.png,1,z,Fri Apr 18 2025 14:07:18 GMT-0500 (Central Daylight Time),248547.79999998212,1000,O,z,689,1,1,1711.0,246836.79999998212,7129,NTS,C,20
4,21,test,1,A,circle.png,1,z,Fri Apr 18 2025 14:07:18 GMT-0500 (Central Daylight Time),251165.09999999404,1400,O,z,1189,4,1,2611.2000000178814,248553.89999997616,7129,NTS,C,21
4,22,test,1,A,circle.png,1,z,Fri Apr 18 2025 14:07:18 GMT-0500 (Central Daylight Time),253064.09999999404,1400,O,z,477,4,1,1894.4000000059605,251169.69999998808,7129,NTS,C,22
4,23,test,1,A,circle.png,1,z,Fri Apr 18 2025 14:07:18 GMT-0500 (Central Daylight Time),255014.39999997616,1400,O,z,518,4,1,1945.8999999761581,253068.5,7129,NTS,C,23
7,24,test,1,A,circle.png,1,m,Fri Apr 18 2025 14:07:18 GMT-0500 (Central Daylight Time),257262.09999999404,1700,O,m,531,6,1,2241.5,255020.59999999404,7129,NTS,C,24
1,1,test,1,B,triangle.png,1,z,Fri Apr 18 2025 14:07:18 GMT-0500 (Central Daylight Time),276204.6999999881,1400,O,z,1093,9,1,2510.0999999940395,273694.59999999404,7129,NTS,C,1
6,2,test,1,B,triangle.png,1,m,Fri Apr 18 2025 14:07:18 GMT-0500 (Central Daylight Time),278438.7999999821,1500,O,m,701,13,1,2228.9000000059605,276209.89999997616,7129,NTS,C,2
6,3,test,1,B,triangle.png,1,m,Fri Apr 18 2025 14:07:18 GMT-0500 (Central Daylight Time),280187.1999999881,1000,O,m,722,5,1,1744.4000000059605,278442.7999999821,7129,NTS,C,3
4,3,test,1,B,triangle.png,0,m,Fri Apr 18 2025 14:07:18 GMT-0500 (Central Daylight Time),282471.0,1500,O,z,752,4,1,2277.9000000059605,280193.09999999404,7129,NTS,C,4
4,4,test,1,B,triangle.png,1,m,Fri Apr 18 2025 14:07:18 GMT-0500 (Central Daylight Time),284869.7999999821,1500,O,m,882,4,1,2394.2999999821186,282475.5,7129,NTS,C,5
4,5,test,1,B,triangle.png,1,m,Fri Apr 18 2025 14:07:18 GMT-0500 (Central Daylight Time),286404.59999999404,1000,O,m,517,12,1,1531.0,284873.59999999404,7129,NTS,C,6
8,6,test,1,B,triangle.png,1,m,Fri Apr 18 2025 14:07:18 GMT-0500 (Central Daylight Time),288235.89999997616,1200,O,m,599,7,1,1827.5,286408.39999997616,7129,NTS,C,7
3,7,test,1,B,triangle.png,1,z,Fri Apr 18 2025 14:07:18 GMT-0500 (Central Daylight Time),290885.5,2000,O,z,633,11,1,2645.2000000178814,288240.2999999821,7129,NTS,C,8
2,8,test,1,B,triangle.png,1,m,Fri Apr 18 2025 14:07:18 GMT-0500 (Central Daylight Time),293050.1999999881,1200,O,m,940,10,1,2160.199999988079,290890.0,7129,NTS,C,9
9,9,test,1,B,triangle.png,1,z,Fri Apr 18 2025 14:07:18 GMT-0500 (Central Daylight Time),295650.1999999881,1400,O,z,1165,8,1,2595.5999999940395,293054.59999999404,7129,NTS,C,10
3,10,test,1,B,triangle.png,1,z,Fri Apr 18 2025 14:07:18 GMT-0500 (Central Daylight Time),298299.2999999821,1600,O,z,1017,3,1,2644.0999999940395,295655.1999999881,7129,NTS,C,11
1,11,test,1,B,triangle.png,1,z,Fri Apr 18 2025 14:07:18 GMT-0500 (Central Daylight Time),300931.59999999404,1900,O,z,715,1,1,2627.5999999940395,298304.0,7129,NTS,C,12
7,12,test,1,B,triangle.png,1,z,Fri Apr 18 2025 14:07:18 GMT-0500 (Central Daylight Time),303680.2999999821,1600,O,z,1126,14,1,2745.2999999821186,300935.0,7129,NTS,C,13
4,13,test,1,B,triangle.png,1,m,Fri Apr 18 2025 14:07:18 GMT-0500 (Central Daylight Time),305515.2999999821,1000,O,m,816,12,1,1830.7999999821186,303684.5,7129,NTS,C,14
8,14,test,1,B,triangle.png,1,m,Fri Apr 18 2025 14:07:18 GMT-0500 (Central Daylight Time),307846.0,1700,O,m,611,15,1,2326.800000011921,305519.1999999881,7129,NTS,C,15
9,15,test,1,B,triangle.png,1,z,Fri Apr 18 2025 14:07:18 GMT-0500 (Central Daylight Time),309861.39999997616,1400,O,z,596,8,1,2012.0,307849.39999997616,7129,NTS,C,16
9,16,test,1,B,triangle.png,1,z,Fri Apr 18 2025 14:07:18 GMT-0500 (Central Daylight Time),312944.6999999881,1900,O,z,1160,16,1,3079.199999988079,309865.5,7129,NTS,C,17
1,17,test,1,B,triangle.png,1,z,Fri Apr 18 2025 14:07:18 GMT-0500 (Central Daylight Time),315077.7999999821,1400,O,z,704,9,1,2129.5,312948.2999999821,7129,NTS,C,18
3,18,test,1,B,triangle.png,1,z,Fri Apr 18 2025 14:07:18 GMT-0500 (Central Daylight Time),317308.7999999821,1600,O,z,605,3,1,2225.699999988079,315083.09999999404,7129,NTS,C,19
2,19,test,1,B,triangle.png,1,m,Fri Apr 18 2025 14:07:18 GMT-0500 (Central Daylight Time),319825.7999999821,1700,O,m,795,2,1,2511.0,317314.7999999821,7129,NTS,C,20
8,20,test,1,B,triangle.png,1,m,Fri Apr 18 2025 14:07:18 GMT-0500 (Central Daylight Time),322173.89999997616,1700,O,m,628,15,1,2343.399999976158,319830.5,7129,NTS,C,21
7,21,test,1,B,triangle.png,1,z,Fri Apr 18 2025 14:07:18 GMT-0500 (Central Daylight Time),324475.39999997616,1600,O,z,665,14,1,2296.0,322179.39999997616,7129,NTS,C,22
7,22,test,1,B,triangle.png,1,z,Fri Apr 18 2025 14:07:18 GMT-0500 (Central Daylight Time),327224.6999999881,2000,O,z,719,6,1,2743.4000000059605,324481.2999999821,7129,NTS,C,23
2,23,test,1,B,triangle.png,1,m,Fri Apr 18 2025 14:07:18 GMT-0500 (Central Daylight Time),329406.0,1200,O,m,964,10,1,2176.7000000178814,327229.2999999821,7129,NTS,C,24
2,0,prac,1,C,triangle.png,0,m,Fri Apr 18 2025 14:07:18 GMT-0500 (Central Daylight Time),373225.09999999404,1600,O,None,1516,2,1,3889.7000000178814,369335.39999997616,7129,NTS,C,1
6,1,prac,1,C,circle.png,1,m,Fri Apr 18 2025 14:07:18 GMT-0500 (Central Daylight Time),377324.09999999404,2000,O,m,1304,5,1,4092.0999999940395,373232.0,7129,NTS,C,2
9,2,prac,1,C,circle.png,1,m,Fri Apr 18 2025 14:07:18 GMT-0500 (Central Daylight Time),380824.0,1900,O,m,825,8,1,3490.300000011921,377333.6999999881,7129,NTS,C,3
3,3,prac,1,C,triangle.png,1,z,Fri Apr 18 2025 14:07:18 GMT-0500 (Central Daylight Time),384270.7999999821,1500,O,z,1167,3,1,3440.699999988079,380830.09999999404,7129,NTS,C,4
9,4,prac,1,C,circle.png,1,m,Fri Apr 18 2025 14:07:18 GMT-0500 (Central Daylight Time),387821.89999997616,1900,O,m,862,8,1,3547.199999988079,384274.6999999881,7129,NTS,C,5
3,5,prac,1,C,triangle.png,1,z,Fri Apr 18 2025 14:07:18 GMT-0500 (Central Daylight Time),390836.7999999821,1500,O,z,745,3,1,3008.0,387828.7999999821,7129,NTS,C,6
7,6,prac,1,C,triangle.png,1,z,Fri Apr 18 2025 14:07:18 GMT-0500 (Central Daylight Time),393485.59999999404,1200,O,z,660,6,1,2640.5,390845.09999999404,7129,NTS,C,7
2,6,prac,1,C,triangle.png,0,m,Fri Apr 18 2025 14:07:18 GMT-0500 (Central Daylight Time),396601.7999999821,1600,O,z,725,2,1,3109.699999988079,393492.09999999404,7129,NTS,C,8
1,6,prac,1,C,circle.png,0,z,Fri Apr 18 2025 14:07:18 GMT-0500 (Central Daylight Time),400600.0,1700,O,None,1516,1,1,3991.600000023842,396608.39999997616,7129,NTS,C,9
8,6,prac,1,C,triangle.png,0,m,Fri Apr 18 2025 14:07:18 GMT-0500 (Central Daylight Time),404148.2999999821,1400,O,z,1355,7,1,3540.7999999821186,400607.5,7129,NTS,C,10
4,7,prac,1,C,circle.png,1,z,Fri Apr 18 2025 14:07:18 GMT-0500 (Central Daylight Time),407380.7999999821,1000,O,z,1433,4,1,3224.5,404156.2999999821,7129,NTS,C,11
6,8,prac,1,C,circle.png,1,m,Fri Apr 18 2025 14:07:18 GMT-0500 (Central Daylight Time),411081.09999999404,2000,O,m,925,5,1,3693.4000000059605,407387.6999999881,7129,NTS,C,12
1,1,test,1,C,triangle.png,1,z,Fri Apr 18 2025 14:07:18 GMT-0500 (Central Daylight Time),426825.2999999821,1900,O,z,1017,17,1,2944.5999999940395,423880.6999999881,7129,NTS,C,1
6,1,test,1,C,triangle.png,0,m,Fri Apr 18 2025 14:07:18 GMT-0500 (Central Daylight Time),429357.39999997616,1000,O,None,1514,13,1,2527.399999976158,426830.0,7129,NTS,C,2
3,2,test,1,C,circle.png,1,z,Fri Apr 18 2025 14:07:18 GMT-0500 (Central Daylight Time),432125.7999999821,1600,O,z,1152,11,1,2763.7999999821186,429362.0,7129,NTS,C,3
7,3,test,1,C,triangle.png,1,z,Fri Apr 18 2025 14:07:18 GMT-0500 (Central Daylight Time),435005.59999999404,1700,O,z,1154,22,1,2876.0999999940395,432129.5,7129,NTS,C,4
9,3,test,1,C,triangle.png,0,z,Fri Apr 18 2025 14:07:18 GMT-0500 (Central Daylight Time),437938.5,1400,O,None,1515,16,1,2927.9000000059605,435010.59999999404,7129,NTS,C,5
6,4,test,1,C,circle.png,1,m,Fri Apr 18 2025 14:07:18 GMT-0500 (Central Daylight Time),440570.7999999821,1900,O,m,710,5,1,2627.7999999821186,437943.0,7129,NTS,C,6
3,5,test,1,C,triangle.png,1,z,Fri Apr 18 2025 14:07:18 GMT-0500 (Central Daylight Time),443219.39999997616,1200,O,z,1423,3,1,2644.5,440574.89999997616,7129,NTS,C,7
1,5,test,1,C,circle.png,0,z,Fri Apr 18 2025 14:07:18 GMT-0500 (Central Daylight Time),445751.89999997616,1000,O,None,1515,1,1,2528.199999988079,443223.6999999881,7129,NTS,C,8
9,5,test,1,C,circle.png,0,m,Fri Apr 18 2025 14:07:18 GMT-0500 (Central Daylight Time),448784.59999999404,1500,O,None,1516,8,1,3027.2000000178814,445757.39999997616,7129,NTS,C,9
2,5,test,1,C,triangle.png,0,m,Fri Apr 18 2025 14:07:18 GMT-0500 (Central Daylight Time),452318.39999997616,2000,O,None,1516,2,1,3528.0,448790.39999997616,7129,NTS,C,10
2,5,test,1,C,circle.png,0,z,Fri Apr 18 2025 14:07:18 GMT-0500 (Central Daylight Time),455500.89999997616,1700,O,m,1466,18,1,3178.399999976158,452322.5,7129,NTS,C,11
6,6,test,1,C,circle.png,1,m,Fri Apr 18 2025 14:07:18 GMT-0500 (Central Daylight Time),458231.7999999821,1900,O,m,811,21,1,2724.7999999821186,455507.0,7129,NTS,C,12
8,6,test,1,C,triangle.png,0,m,Fri Apr 18 2025 14:07:18 GMT-0500 (Central Daylight Time),461364.7999999821,1600,O,None,1515,7,1,3127.5999999940395,458237.1999999881,7129,NTS,C,13
1,7,test,1,C,triangle.png,1,z,Fri Apr 18 2025 14:07:18 GMT-0500 (Central Daylight Time),464627.2999999821,1900,O,z,1336,9,1,3256.4000000059605,461370.89999997616,7129,NTS,C,14
4,7,test,1,C,triangle.png,0,m,Fri Apr 18 2025 14:07:18 GMT-0500 (Central Daylight Time),467179.2999999821,1500,O,z,1017,12,1,2549.199999988079,464630.09999999404,7129,NTS,C,15
3,8,test,1,C,circle.png,1,z,Fri Apr 18 2025 14:07:18 GMT-0500 (Central Daylight Time),469979.5,1600,O,z,1174,19,1,2791.9000000059605,467187.59999999404,7129,NTS,C,16
8,8,test,1,C,triangle.png,0,m,Fri Apr 18 2025 14:07:18 GMT-0500 (Central Daylight Time),473110.2999999821,1600,O,None,1514,23,1,3124.5,469985.7999999821,7129,NTS,C,17
9,9,test,1,C,circle.png,1,m,Fri Apr 18 2025 14:07:18 GMT-0500 (Central Daylight Time),475609.09999999404,1500,O,m,965,24,1,2492.5,473116.59999999404,7129,NTS,C,18
4,10,test,1,C,circle.png,1,z,Fri Apr 18 2025 14:07:18 GMT-0500 (Central Daylight Time),478110.59999999404,1400,O,z,1073,4,1,2495.800000011921,475614.7999999821,7129,NTS,C,19
7,11,test,1,C,circle.png,1,m,Fri Apr 18 2025 14:07:18 GMT-0500 (Central Daylight Time),481108.7999999821,2000,O,m,982,14,1,2990.4000000059605,478118.39999997616,7129,NTS,C,20
8,12,test,1,C,circle.png,1,m,Fri Apr 18 2025 14:07:18 GMT-0500 (Central Daylight Time),483023.2999999821,1200,O,m,686,15,1,1910.199999988079,481113.09999999404,7129,NTS,C,21
7,13,test,1,C,triangle.png,1,z,Fri Apr 18 2025 14:07:18 GMT-0500 (Central Daylight Time),485307.7999999821,1700,O,z,566,6,1,2279.9000000059605,483027.89999997616,7129,NTS,C,22
2,14,test,1,C,circle.png,1,z,Fri Apr 18 2025 14:07:18 GMT-0500 (Central Daylight Time),487789.0,1700,O,z,756,10,1,2476.5,485312.5,7129,NTS,C,23
4,15,test,1,C,triangle.png,1,m,Fri Apr 18 2025 14:07:18 GMT-0500 (Central Daylight Time),490654.5,1500,O,m,1344,20,1,2861.300000011921,487793.1999999881,7129,NTS,C,24
2,0,test,2,C,triangle.png,0,m,Fri Apr 18 2025 14:07:18 GMT-0500 (Central Daylight Time),509980.59999999404,2000,O,z,1037,2,1,3058.0999999940395,506922.5,7129,NTS,C,1
3,0,test,2,C,circle.png,0,z,Fri Apr 18 2025 14:07:18 GMT-0500 (Central Daylight Time),512948.0,1600,O,m,1341,11,1,2964.0,509984.0,7129,NTS,C,2
8,0,test,2,C,triangle.png,0,m,Fri Apr 18 2025 14:07:18 GMT-0500 (Central Daylight Time),516079.6999999881,1600,O,None,1515,7,1,3127.5,512952.1999999881,7129,NTS,C,3
1,1,test,2,C,circle.png,1,z,Fri Apr 18 2025 14:07:18 GMT-0500 (Central Daylight Time),518128.2999999821,1000,O,z,1025,1,1,2043.0999999940395,516085.1999999881,7129,NTS,C,4
8,2,test,2,C,circle.png,1,m,Fri Apr 18 2025 14:07:18 GMT-0500 (Central Daylight Time),520095.2999999821,1200,O,m,746,23,1,1963.4000000059605,518131.89999997616,7129,NTS,C,5
2,3,test,2,C,circle.png,1,z,Fri Apr 18 2025 14:07:18 GMT-0500 (Central Daylight Time),522510.59999999404,1700,O,z,686,10,1,2410.5999999940395,520100.0,7129,NTS,C,6
3,4,test,2,C,circle.png,1,z,Fri Apr 18 2025 14:07:18 GMT-0500 (Central Daylight Time),525342.6999999881,1600,O,z,1209,19,1,2827.5999999940395,522515.09999999404,7129,NTS,C,7
1,5,test,2,C,triangle.png,1,z,Fri Apr 18 2025 14:07:18 GMT-0500 (Central Daylight Time),528159.1999999881,1900,O,z,886,9,1,2812.300000011921,525346.8999999762,7129,NTS,C,8
6,6,test,2,C,triangle.png,1,m,Fri Apr 18 2025 14:07:18 GMT-0500 (Central Daylight Time),530641.599999994,1000,O,m,1450,13,1,2477.9000000059605,528163.6999999881,7129,NTS,C,9
4,6,test,2,C,triangle.png,0,m,Fri Apr 18 2025 14:07:18 GMT-0500 (Central Daylight Time),533407.599999994,1500,O,z,1234,12,1,2762.4000000059605,530645.1999999881,7129,NTS,C,10
1,7,test,2,C,triangle.png,1,z,Fri Apr 18 2025 14:07:18 GMT-0500 (Central Daylight Time),536705.1999999881,1900,O,z,1367,17,1,3290.5999999940395,533414.599999994,7129,NTS,C,11
8,8,test,2,C,circle.png,1,m,Fri Apr 18 2025 14:07:18 GMT-0500 (Central Daylight Time),539306.0,1200,O,m,1366,15,1,2597.9000000059605,536708.099999994,7129,NTS,C,12
6,9,test,2,C,triangle.png,1,m,Fri Apr 18 2025 14:07:18 GMT-0500 (Central Daylight Time),541720.599999994,1000,O,m,1384,21,1,2410.9000000059605,539309.6999999881,7129,NTS,C,13
9,10,test,2,C,triangle.png,1,z,Fri Apr 18 2025 14:07:18 GMT-0500 (Central Daylight Time),544269.3999999762,1400,O,z,1127,24,1,2544.0,541725.3999999762,7129,NTS,C,14
4,11,test,2,C,circle.png,1,z,Fri Apr 18 2025 14:07:18 GMT-0500 (Central Daylight Time),546719.6999999881,1400,O,z,1017,4,1,2444.4000000059605,544275.2999999821,7129,NTS,C,15
7,12,test,2,C,circle.png,1,m,Fri Apr 18 2025 14:07:18 GMT-0500 (Central Daylight Time),549884.5,2000,O,m,1136,14,1,3160.5,546724.0,7129,NTS,C,16
6,13,test,2,C,circle.png,1,m,Fri Apr 18 2025 14:07:18 GMT-0500 (Central Daylight Time),552802.3999999762,1900,O,m,998,5,1,2915.0999999940395,549887.2999999821,7129,NTS,C,17
4,14,test,2,C,triangle.png,1,m,Fri Apr 18 2025 14:07:18 GMT-0500 (Central Daylight Time),555632.099999994,1500,O,m,1300,20,1,2825.4000000059605,552806.6999999881,7129,NTS,C,18
7,15,test,2,C,circle.png,1,m,Fri Apr 18 2025 14:07:18 GMT-0500 (Central Daylight Time),558467.6999999881,2000,O,m,815,22,1,2832.0,555635.6999999881,7129,NTS,C,19
9,16,test,2,C,circle.png,1,m,Fri Apr 18 2025 14:07:18 GMT-0500 (Central Daylight Time),560648.099999994,1500,O,m,650,8,1,2174.4000000059605,558473.6999999881,7129,NTS,C,20
3,17,test,2,C,triangle.png,1,z,Fri Apr 18 2025 14:07:18 GMT-0500 (Central Daylight Time),562631.599999994,1200,O,z,761,3,1,1980.7000000178814,560650.8999999762,7129,NTS,C,21
9,18,test,2,C,triangle.png,1,z,Fri Apr 18 2025 14:07:18 GMT-0500 (Central Daylight Time),565131.2999999821,1400,O,z,1073,16,1,2495.5,562635.7999999821,7129,NTS,C,22
2,19,test,2,C,circle.png,1,z,Fri Apr 18 2025 14:07:18 GMT-0500 (Central Daylight Time),567696.599999994,1700,O,z,834,18,1,2560.5,565136.099999994,7129,NTS,C,23
7,20,test,2,C,triangle.png,1,z,Fri Apr 18 2025 14:07:18 GMT-0500 (Central Daylight Time),570712.2999999821,1700,O,z,1284,6,1,3010.5,567701.7999999821,7129,NTS,C,24
8,0,test,3,C,triangle.png,0,m,Fri Apr 18 2025 14:07:18 GMT-0500 (Central Daylight Time),576294.2999999821,1600,O,None,1514,23,1,3128.699999988079,573165.599999994,7129,NTS,C,1
7,1,test,3,C,triangle.png,1,z,Fri Apr 18 2025 14:07:18 GMT-0500 (Central Daylight Time),579060.2999999821,1700,O,z,1039,6,1,2759.5,576300.7999999821,7129,NTS,C,2
3,2,test,3,C,triangle.png,1,z,Fri Apr 18 2025 14:07:18 GMT-0500 (Central Daylight Time),581225.2999999821,1200,O,z,942,19,1,2160.199999988079,579065.099999994,7129,NTS,C,3
1,3,test,3,C,circle.png,1,z,Fri Apr 18 2025 14:07:18 GMT-0500 (Central Daylight Time),583327.099999994,1000,O,z,1073,1,1,2098.2000000178814,581228.8999999762,7129,NTS,C,4
9,4,test,3,C,circle.png,1,m,Fri Apr 18 2025 14:07:18 GMT-0500 (Central Daylight Time),585623.7999999821,1500,O,m,766,8,1,2291.0,583332.7999999821,7129,NTS,C,5
8,5,test,3,C,circle.png,1,m,Fri Apr 18 2025 14:07:18 GMT-0500 (Central Daylight Time),587540.599999994,1200,O,m,687,15,1,1909.800000011921,585630.7999999821,7129,NTS,C,6
9,6,test,3,C,circle.png,1,m,Fri Apr 18 2025 14:07:18 GMT-0500 (Central Daylight Time),589622.3999999762,1500,O,m,562,24,1,2078.5,587543.8999999762,7129,NTS,C,7
2,7,test,3,C,circle.png,1,z,Fri Apr 18 2025 14:07:18 GMT-0500 (Central Daylight Time),591955.7999999821,1700,O,z,613,10,1,2328.5999999940395,589627.1999999881,7129,NTS,C,8
8,7,test,3,C,triangle.png,0,m,Fri Apr 18 2025 14:07:18 GMT-0500 (Central Daylight Time),594390.3999999762,1600,O,z,816,7,1,2426.899999976158,591963.5,7129,NTS,C,9
6,8,test,3,C,triangle.png,1,m,Fri Apr 18 2025 14:07:18 GMT-0500 (Central Daylight Time),596337.5,1000,O,m,925,13,1,1941.7000000178814,594395.7999999821,7129,NTS,C,10
3,9,test,3,C,triangle.png,1,z,Fri Apr 18 2025 14:07:18 GMT-0500 (Central Daylight Time),598220.6999999881,1200,O,z,655,3,1,1878.4000000059605,596342.2999999821,7129,NTS,C,11
2,9,test,3,C,triangle.png,0,m,Fri Apr 18 2025 14:07:18 GMT-0500 (Central Daylight Time),601486.0,2000,O,z,1245,18,1,3260.4000000059605,598225.599999994,7129,NTS,C,12
9,10,test,3,C,triangle.png,1,z,Fri Apr 18 2025 14:07:18 GMT-0500 (Central Daylight Time),603885.8999999762,1400,O,z,972,16,1,2394.0999999940395,601491.7999999821,7129,NTS,C,13
4,11,test,3,C,circle.png,1,z,Fri Apr 18 2025 14:07:18 GMT-0500 (Central Daylight Time),606333.7999999821,1400,O,z,1020,4,1,2443.0999999940395,603890.6999999881,7129,NTS,C,14
7,11,test,3,C,triangle.png,0,z,Fri Apr 18 2025 14:07:18 GMT-0500 (Central Daylight Time),609566.599999994,1700,O,None,1516,22,1,3227.9000000059605,606338.6999999881,7129,NTS,C,15
6,12,test,3,C,circle.png,1,m,Fri Apr 18 2025 14:07:18 GMT-0500 (Central Daylight Time),612382.7999999821,1900,O,m,897,5,1,2809.5,609573.2999999821,7129,NTS,C,16
2,12,test,3,C,triangle.png,0,m,Fri Apr 18 2025 14:07:18 GMT-0500 (Central Daylight Time),615132.3999999762,2000,O,z,715,2,1,2743.5999999940395,612388.7999999821,7129,NTS,C,17
6,13,test,3,C,circle.png,1,m,Fri Apr 18 2025 14:07:18 GMT-0500 (Central Daylight Time),618064.3999999762,1900,O,m,1002,21,1,2925.899999976158,615138.5,7129,NTS,C,18
1,13,test,3,C,circle.png,0,z,Fri Apr 18 2025 14:07:18 GMT-0500 (Central Daylight Time),620596.6999999881,1000,O,None,1516,17,1,2524.300000011921,618072.3999999762,7129,NTS,C,19
4,14,test,3,C,circle.png,1,z,Fri Apr 18 2025 14:07:18 GMT-0500 (Central Daylight Time),623029.1999999881,1400,O,z,1005,20,1,2425.199999988079,620604.0,7129,NTS,C,20
3,15,test,3,C,circle.png,1,z,Fri Apr 18 2025 14:07:18 GMT-0500 (Central Daylight Time),625511.8999999762,1600,O,z,862,11,1,2477.5999999940395,623034.2999999821,7129,NTS,C,21
4,16,test,3,C,triangle.png,1,m,Fri Apr 18 2025 14:07:18 GMT-0500 (Central Daylight Time),628027.599999994,1500,O,m,991,12,1,2510.5999999940395,625517.0,7129,NTS,C,22
1,17,test,3,C,triangle.png,1,z,Fri Apr 18 2025 14:07:18 GMT-0500 (Central Daylight Time),631044.099999994,1900,O,z,1098,9,1,3011.9000000059605,628032.1999999881,7129,NTS,C,23
7,18,test,3,C,circle.png,1,m,Fri Apr 18 2025 14:07:18 GMT-0500 (Central Daylight Time),633776.0,2000,O,m,700,14,1,2726.300000011921,631049.6999999881,7129,NTS,C,24
1,1,test,4,C,circle.png,1,z,Fri Apr 18 2025 14:07:18 GMT-0500 (Central Daylight Time),638124.2999999821,1000,O,z,1122,17,1,2143.199999988079,635981.099999994,7129,NTS,C,1
9,2,test,4,C,circle.png,1,m,Fri Apr 18 2025 14:07:18 GMT-0500 (Central Daylight Time),640341.2999999821,1500,O,m,698,8,1,2213.7999999821186,638127.5,7129,NTS,C,2
3,3,test,4,C,triangle.png,1,z,Fri Apr 18 2025 14:07:18 GMT-0500 (Central Daylight Time),642405.7999999821,1200,O,z,846,19,1,2061.0999999940395,640344.6999999881,7129,NTS,C,3
9,4,test,4,C,triangle.png,1,z,Fri Apr 18 2025 14:07:18 GMT-0500 (Central Daylight Time),644838.099999994,1400,O,z,1012,16,1,2428.4000000059605,642409.6999999881,7129,NTS,C,4
8,5,test,4,C,triangle.png,1,m,Fri Apr 18 2025 14:07:18 GMT-0500 (Central Daylight Time),647121.8999999762,1600,O,m,657,7,1,2279.899999976158,644842.0,7129,NTS,C,5
7,5,test,4,C,triangle.png,0,z,Fri Apr 18 2025 14:07:18 GMT-0500 (Central Daylight Time),649670.599999994,1700,O,m,828,6,1,2544.9000000059605,647125.6999999881,7129,NTS,C,6
2,5,test,4,C,triangle.png,0,m,Fri Apr 18 2025 14:07:18 GMT-0500 (Central Daylight Time),652953.1999999881,2000,O,z,1257,18,1,3279.300000011921,649673.8999999762,7129,NTS,C,7
3,6,test,4,C,triangle.png,1,z,Fri Apr 18 2025 14:07:18 GMT-0500 (Central Daylight Time),655403.1999999881,1200,O,z,1215,3,1,2445.5,652957.6999999881,7129,NTS,C,8
8,7,test,4,C,circle.png,1,m,Fri Apr 18 2025 14:07:18 GMT-0500 (Central Daylight Time),657567.7999999821,1200,O,m,935,15,1,2161.0,655406.7999999821,7129,NTS,C,9
3,8,test,4,C,circle.png,1,z,Fri Apr 18 2025 14:07:18 GMT-0500 (Central Daylight Time),660051.6999999881,1600,O,z,849,11,1,2478.800000011921,657572.8999999762,7129,NTS,C,10
6,9,test,4,C,triangle.png,1,m,Fri Apr 18 2025 14:07:18 GMT-0500 (Central Daylight Time),661999.6999999881,1000,O,m,927,13,1,1943.800000011921,660055.8999999762,7129,NTS,C,11
4,10,test,4,C,triangle.png,1,m,Fri Apr 18 2025 14:07:18 GMT-0500 (Central Daylight Time),664150.7999999821,1500,O,m,633,12,1,2147.5999999940395,662003.1999999881,7129,NTS,C,12
2,11,test,4,C,circle.png,1,z,Fri Apr 18 2025 14:07:18 GMT-0500 (Central Daylight Time),666815.5,1700,O,z,945,10,1,2659.5,664156.0,7129,NTS,C,13
9,12,test,4,C,circle.png,1,m,Fri Apr 18 2025 14:07:18 GMT-0500 (Central Daylight Time),669463.7999999821,1500,O,m,1126,24,1,2643.5,666820.2999999821,7129,NTS,C,14
6,13,test,4,C,circle.png,1,m,Fri Apr 18 2025 14:07:18 GMT-0500 (Central Daylight Time),672013.599999994,1900,O,m,621,21,1,2545.0,669468.599999994,7129,NTS,C,15
2,13,test,4,C,triangle.png,0,m,Fri Apr 18 2025 14:07:18 GMT-0500 (Central Daylight Time),674846.1999999881,2000,O,z,802,2,1,2827.5999999940395,672018.599999994,7129,NTS,C,16
7,14,test,4,C,triangle.png,1,z,Fri Apr 18 2025 14:07:18 GMT-0500 (Central Daylight Time),677395.0,1700,O,z,822,22,1,2543.600000023842,674851.3999999762,7129,NTS,C,17
8,15,test,4,C,triangle.png,1,m,Fri Apr 18 2025 14:07:18 GMT-0500 (Central Daylight Time),680326.599999994,1600,O,m,1312,23,1,2927.0999999940395,677399.5,7129,NTS,C,18
1,16,test,4,C,triangle.png,1,z,Fri Apr 18 2025 14:07:18 GMT-0500 (Central Daylight Time),683127.2999999821,1900,O,z,879,9,1,2795.9000000059605,680331.3999999762,7129,NTS,C,19
4,17,test,4,C,circle.png,1,z,Fri Apr 18 2025 14:07:18 GMT-0500 (Central Daylight Time),685558.5,1400,O,z,1003,20,1,2427.5,683131.0,7129,NTS,C,20
7,18,test,4,C,circle.png,1,m,Fri Apr 18 2025 14:07:18 GMT-0500 (Central Daylight Time),688742.0,2000,O,m,1155,14,1,3178.2000000178814,685563.7999999821,7129,NTS,C,21
4,19,test,4,C,circle.png,1,z,Fri Apr 18 2025 14:07:18 GMT-0500 (Central Daylight Time),691091.3999999762,1400,O,z,919,4,1,2344.0,688747.3999999762,7129,NTS,C,22
6,20,test,4,C,circle.png,1,m,Fri Apr 18 2025 14:07:18 GMT-0500 (Central Daylight Time),694255.6999999881,1900,O,m,1234,5,1,3159.4000000059605,691096.2999999821,7129,NTS,C,23
1,21,test,4,C,circle.png,1,z,Fri Apr 18 2025 14:07:18 GMT-0500 (Central Daylight Time),696073.599999994,1000,O,z,794,1,1,1811.7000000178814,694261.8999999762,7129,NTS,C,24
