block_c,block_dur,condition,countdown,datetime,endtime,list,multichar_response,project,response,response_time,session_number,start_end,starttime,subject_id,task,task_vers,trial
,,,,Tue Feb 11 2025 10:16:57 GMT-0600 (Central Standard Time),,,,O,space,466,1,,,7047,WL,A,
prac,,0,,Tue Feb 11 2025 10:16:57 GMT-0600 (Central Standard Time),,NA,b,O,b,5572,1,,,7047,WL,A,1.0
prac,,0,,Tue Feb 11 2025 10:16:57 GMT-0600 (Central Standard Time),,NA,bo,O,o,337,1,,,7047,WL,A,1.0
prac,,0,,Tue Feb 11 2025 10:16:57 GMT-0600 (Central Standard Time),,NA,boo,O,o,139,1,,,7047,WL,A,1.0
prac,,0,,Tue Feb 11 2025 10:16:57 GMT-0600 (Central Standard Time),,NA,boos,O,s,204,1,,,7047,WL,A,1.0
prac,,0,,Tue Feb 11 2025 10:16:57 GMT-0600 (Central Standard Time),,NA,boost,O,t,130,1,,,7047,WL,A,1.0
prac,,0,,Tue Feb 11 2025 10:16:57 GMT-0600 (Central Standard Time),,NA,boostenter,O,enter,1948,1,,,7047,WL,A,1.0
1,1.1329998970031738,learn,58867.000102996826,Tue Feb 11 2025 10:16:57 GMT-0600 (Central Standard Time),196285.1000000015,A,b,O,b,1113,1,1132.8000000044703,195152.29999999702,7047,WL,A,1.0
1,1.2000000476837158,learn,58799.999952316284,Tue Feb 11 2025 10:16:57 GMT-0600 (Central Standard Time),196351.79999999702,A,bo,O,o,51,1,1199.5,195152.29999999702,7047,WL,A,1.0
1,1.3329999446868896,learn,58667.00005531311,Tue Feb 11 2025 10:16:57 GMT-0600 (Central Standard Time),196484.70000000298,A,boo,O,o,121,1,1332.4000000059605,195152.29999999702,7047,WL,A,1.0
1,1.5329999923706055,learn,58467.000007629395,Tue Feb 11 2025 10:16:57 GMT-0600 (Central Standard Time),196684.79999999702,A,book,O,k,180,1,1532.5,195152.29999999702,7047,WL,A,1.0
1,4.48199987411499,learn,55518.00012588501,Tue Feb 11 2025 10:16:57 GMT-0600 (Central Standard Time),199633.6000000015,A,bookenter,O,enter,2941,1,4481.30000000447,195152.29999999702,7047,WL,A,1.0
1,6.430999994277954,learn,53569.000005722046,Tue Feb 11 2025 10:16:57 GMT-0600 (Central Standard Time),201583.20000000298,A,f,O,f,1927,1,1949.1000000014901,199634.1000000015,7047,WL,A,2.0
1,6.497999906539917,learn,53502.00009346008,Tue Feb 11 2025 10:16:57 GMT-0600 (Central Standard Time),201649.70000000298,A,fl,O,l,57,1,2015.6000000014901,199634.1000000015,7047,WL,A,2.0
1,6.664999961853027,learn,53335.00003814697,Tue Feb 11 2025 10:16:57 GMT-0600 (Central Standard Time),201816.5,A,flo,O,o,151,1,2182.39999999851,199634.1000000015,7047,WL,A,2.0
1,7.047999858856201,learn,52952.0001411438,Tue Feb 11 2025 10:16:57 GMT-0600 (Central Standard Time),202199.8999999985,A,flow,O,w,369,1,2565.7999999970198,199634.1000000015,7047,WL,A,2.0
1,7.148000001907349,learn,52851.99999809265,Tue Feb 11 2025 10:16:57 GMT-0600 (Central Standard Time),202299.6000000015,A,flowe,O,e,81,1,2665.5,199634.1000000015,7047,WL,A,2.0
1,7.230999946594238,learn,52769.00005340576,Tue Feb 11 2025 10:16:57 GMT-0600 (Central Standard Time),202383.0,A,flower,O,r,62,1,2748.89999999851,199634.1000000015,7047,WL,A,2.0
1,7.497999906539917,learn,52502.00009346008,Tue Feb 11 2025 10:16:57 GMT-0600 (Central Standard Time),202649.3999999985,A,flowerenter,O,enter,258,1,3015.2999999970198,199634.1000000015,7047,WL,A,2.0
1,8.148000001907349,learn,51851.99999809265,Tue Feb 11 2025 10:16:57 GMT-0600 (Central Standard Time),203299.3999999985,A,r,O,r,631,1,649.5,202649.8999999985,7047,WL,A,3.0
1,8.330999851226807,learn,51669.00014877319,Tue Feb 11 2025 10:16:57 GMT-0600 (Central Standard Time),203482.6000000015,A,ru,O,u,166,1,832.7000000029802,202649.8999999985,7047,WL,A,3.0
1,8.746999979019165,learn,51253.000020980835,Tue Feb 11 2025 10:16:57 GMT-0600 (Central Standard Time),203899.20000000298,A,rug,O,g,399,1,1249.3000000044703,202649.8999999985,7047,WL,A,3.0
1,8.914000034332275,learn,51085.999965667725,Tue Feb 11 2025 10:16:57 GMT-0600 (Central Standard Time),204065.6000000015,A,rugenter,O,enter,158,1,1415.7000000029802,202649.8999999985,7047,WL,A,3.0
1,9.629999876022339,learn,50370.00012397766,Tue Feb 11 2025 10:16:57 GMT-0600 (Central Standard Time),204782.20000000298,A,b,O,b,704,1,716.4000000059605,204065.79999999702,7047,WL,A,4.0
1,9.77999997138977,learn,50220.00002861023,Tue Feb 11 2025 10:16:57 GMT-0600 (Central Standard Time),204931.8999999985,A,bu,O,u,139,1,866.1000000014901,204065.79999999702,7047,WL,A,4.0
1,9.94700002670288,learn,50052.99997329712,Tue Feb 11 2025 10:16:57 GMT-0600 (Central Standard Time),205098.70000000298,A,but,O,t,149,1,1032.9000000059605,204065.79999999702,7047,WL,A,4.0
1,10.113999843597412,learn,49886.00015640259,Tue Feb 11 2025 10:16:57 GMT-0600 (Central Standard Time),205265.70000000298,A,butt,O,t,143,1,1199.9000000059605,204065.79999999702,7047,WL,A,4.0
1,10.329999923706055,learn,49670.000076293945,Tue Feb 11 2025 10:16:57 GMT-0600 (Central Standard Time),205482.0,A,butto,O,o,198,1,1416.2000000029802,204065.79999999702,7047,WL,A,4.0
1,10.513000011444092,learn,49486.99998855591,Tue Feb 11 2025 10:16:57 GMT-0600 (Central Standard Time),205665.20000000298,A,button,O,n,160,1,1599.4000000059605,204065.79999999702,7047,WL,A,4.0
1,10.679999828338623,learn,49320.00017166138,Tue Feb 11 2025 10:16:57 GMT-0600 (Central Standard Time),205831.8999999985,A,buttonenter,O,enter,144,1,1766.1000000014901,204065.79999999702,7047,WL,A,4.0
1,11.36299991607666,learn,48637.00008392334,Tue Feb 11 2025 10:16:57 GMT-0600 (Central Standard Time),206515.1000000015,A,c,O,c,666,1,682.8000000044703,205832.29999999702,7047,WL,A,5.0
1,11.495999813079834,learn,48504.000186920166,Tue Feb 11 2025 10:16:57 GMT-0600 (Central Standard Time),206648.20000000298,A,ch,O,h,109,1,815.9000000059605,205832.29999999702,7047,WL,A,5.0
1,11.629999876022339,learn,48370.00012397766,Tue Feb 11 2025 10:16:57 GMT-0600 (Central Standard Time),206781.5,A,chi,O,i,121,1,949.2000000029802,205832.29999999702,7047,WL,A,5.0
1,11.898000001907349,learn,48101.99999809265,Tue Feb 11 2025 10:16:57 GMT-0600 (Central Standard Time),207049.3999999985,A,chim,O,m,253,1,1217.1000000014901,205832.29999999702,7047,WL,A,5.0
1,12.129999876022339,learn,47870.00012397766,Tue Feb 11 2025 10:16:57 GMT-0600 (Central Standard Time),207281.3999999985,A,chimn,O,n,208,1,1449.1000000014901,205832.29999999702,7047,WL,A,5.0
1,12.444000005722046,learn,47555.999994277954,Tue Feb 11 2025 10:16:57 GMT-0600 (Central Standard Time),207596.1000000015,A,chimne,O,e,160,1,1763.8000000044703,205832.29999999702,7047,WL,A,5.0
1,12.461999893188477,learn,47538.00010681152,Tue Feb 11 2025 10:16:57 GMT-0600 (Central Standard Time),207614.29999999702,A,chimney,O,y,5,1,1782.0,205832.29999999702,7047,WL,A,5.0
1,12.995999813079834,learn,47004.000186920166,Tue Feb 11 2025 10:16:57 GMT-0600 (Central Standard Time),208147.8999999985,A,chimneyenter,O,enter,515,1,2315.60000000149,205832.29999999702,7047,WL,A,5.0
1,32.53999996185303,learn,27460.000038146973,Tue Feb 11 2025 10:16:57 GMT-0600 (Central Standard Time),227691.6000000015,A,f,O,f,19525,1,19543.20000000298,208148.3999999985,7047,WL,A,6.0
1,32.77300000190735,learn,27226.99999809265,Tue Feb 11 2025 10:16:57 GMT-0600 (Central Standard Time),227925.0,A,fo,O,o,221,1,19776.60000000149,208148.3999999985,7047,WL,A,6.0
1,33.07299995422363,learn,26927.000045776367,Tue Feb 11 2025 10:16:57 GMT-0600 (Central Standard Time),228224.79999999702,A,fow,O,w,285,1,20076.39999999851,208148.3999999985,7047,WL,A,6.0
1,33.40599989891052,learn,26594.000101089478,Tue Feb 11 2025 10:16:57 GMT-0600 (Central Standard Time),228558.20000000298,A,fo,O,backspace,320,1,20409.80000000447,208148.3999999985,7047,WL,A,6.0
1,33.53999996185303,learn,26460.000038146973,Tue Feb 11 2025 10:16:57 GMT-0600 (Central Standard Time),228691.3999999985,A,f,O,backspace,123,1,20543.0,208148.3999999985,7047,WL,A,6.0
1,33.75600004196167,learn,26243.99995803833,Tue Feb 11 2025 10:16:57 GMT-0600 (Central Standard Time),228908.1000000015,A,fl,O,l,206,1,20759.70000000298,208148.3999999985,7047,WL,A,6.0
1,33.93899989128113,learn,26061.000108718872,Tue Feb 11 2025 10:16:57 GMT-0600 (Central Standard Time),229091.20000000298,A,flo,O,o,165,1,20942.80000000447,208148.3999999985,7047,WL,A,6.0
1,33.98899984359741,learn,26011.000156402588,Tue Feb 11 2025 10:16:57 GMT-0600 (Central Standard Time),229141.1000000015,A,flow,O,w,30,1,20992.70000000298,208148.3999999985,7047,WL,A,6.0
1,34.055999994277954,learn,25944.000005722046,Tue Feb 11 2025 10:16:57 GMT-0600 (Central Standard Time),229208.20000000298,A,flowe,O,e,53,1,21059.80000000447,208148.3999999985,7047,WL,A,6.0
1,34.15599989891052,learn,25844.000101089478,Tue Feb 11 2025 10:16:57 GMT-0600 (Central Standard Time),229308.0,A,flower,O,r,81,1,21159.60000000149,208148.3999999985,7047,WL,A,6.0
1,34.43899989128113,learn,25561.000108718872,Tue Feb 11 2025 10:16:57 GMT-0600 (Central Standard Time),229590.79999999702,A,flowerenter,O,enter,261,1,21442.39999999851,208148.3999999985,7047,WL,A,6.0
1,52.01699995994568,learn,7983.000040054321,Tue Feb 11 2025 10:16:57 GMT-0600 (Central Standard Time),247169.20000000298,A,a,O,a,17571,1,17578.10000000149,229591.1000000015,7047,WL,A,7.0
1,52.18299984931946,learn,7817.000150680542,Tue Feb 11 2025 10:16:57 GMT-0600 (Central Standard Time),247335.6000000015,A,ap,O,p,143,1,17744.5,229591.1000000015,7047,WL,A,7.0
1,52.882999897003174,learn,7117.000102996826,Tue Feb 11 2025 10:16:57 GMT-0600 (Central Standard Time),248035.29999999702,A,app,O,p,682,1,18444.19999999553,229591.1000000015,7047,WL,A,7.0
1,53.067999839782715,learn,6932.000160217285,Tue Feb 11 2025 10:16:57 GMT-0600 (Central Standard Time),248220.20000000298,A,appl,O,l,166,1,18629.10000000149,229591.1000000015,7047,WL,A,7.0
1,53.200000047683716,learn,6799.999952316284,Tue Feb 11 2025 10:16:57 GMT-0600 (Central Standard Time),248352.0,A,apple,O,e,109,1,18760.89999999851,229591.1000000015,7047,WL,A,7.0
1,53.3989999294281,learn,6601.000070571899,Tue Feb 11 2025 10:16:57 GMT-0600 (Central Standard Time),248551.8999999985,A,appleenter,O,enter,186,1,18960.79999999702,229591.1000000015,7047,WL,A,7.0
1,60.013999938964844,learn,-13.99993896484375,Tue Feb 11 2025 10:16:57 GMT-0600 (Central Standard Time),255166.5,A,None,O,None,6606,1,6614.10000000149,248552.3999999985,7047,WL,A,8.0
2,0.6340000629425049,learn,59365.999937057495,Tue Feb 11 2025 10:16:57 GMT-0600 (Central Standard Time),327510.6000000015,A,b,O,b,621,1,633.2000000029802,326877.3999999985,7047,WL,A,1.0
2,0.7330000400543213,learn,59266.99995994568,Tue Feb 11 2025 10:16:57 GMT-0600 (Central Standard Time),327610.200000003,A,bo,O,o,91,1,732.8000000044703,326877.3999999985,7047,WL,A,1.0
2,0.8669998645782471,learn,59133.00013542175,Tue Feb 11 2025 10:16:57 GMT-0600 (Central Standard Time),327743.799999997,A,boo,O,o,120,1,866.3999999985099,326877.3999999985,7047,WL,A,1.0
2,1.0829999446868896,learn,58917.00005531311,Tue Feb 11 2025 10:16:57 GMT-0600 (Central Standard Time),327960.299999997,A,book,O,k,194,1,1082.8999999985099,326877.3999999985,7047,WL,A,1.0
2,2.0829999446868896,learn,57917.00005531311,Tue Feb 11 2025 10:16:57 GMT-0600 (Central Standard Time),328960.1000000015,A,bookenter,O,enter,978,1,2082.7000000029802,326877.3999999985,7047,WL,A,1.0
2,2.5490000247955322,learn,57450.99997520447,Tue Feb 11 2025 10:16:57 GMT-0600 (Central Standard Time),329426.299999997,A,f,O,f,458,1,465.8999999985099,328960.3999999985,7047,WL,A,2.0
2,2.616999864578247,learn,57383.00013542175,Tue Feb 11 2025 10:16:57 GMT-0600 (Central Standard Time),329493.700000003,A,fl,O,l,48,1,533.3000000044703,328960.3999999985,7047,WL,A,2.0
2,2.7990000247955322,learn,57200.99997520447,Tue Feb 11 2025 10:16:57 GMT-0600 (Central Standard Time),329676.299999997,A,flo,O,o,164,1,715.8999999985099,328960.3999999985,7047,WL,A,2.0
2,2.9659998416900635,learn,57034.00015830994,Tue Feb 11 2025 10:16:57 GMT-0600 (Central Standard Time),329843.1000000015,A,flow,O,w,149,1,882.7000000029802,328960.3999999985,7047,WL,A,2.0
2,3.065999984741211,learn,56934.00001525879,Tue Feb 11 2025 10:16:57 GMT-0600 (Central Standard Time),329942.8999999985,A,flowe,O,e,78,1,982.5,328960.3999999985,7047,WL,A,2.0
2,3.1659998893737793,learn,56834.00011062622,Tue Feb 11 2025 10:16:57 GMT-0600 (Central Standard Time),330043.1000000015,A,flower,O,r,91,1,1082.7000000029802,328960.3999999985,7047,WL,A,2.0
2,3.5490000247955322,learn,56450.99997520447,Tue Feb 11 2025 10:16:57 GMT-0600 (Central Standard Time),330426.0,A,flowerenter,O,enter,375,1,1465.6000000014901,328960.3999999985,7047,WL,A,2.0
2,3.8489999771118164,learn,56151.00002288818,Tue Feb 11 2025 10:16:57 GMT-0600 (Central Standard Time),330726.200000003,A,m,O,m,280,1,299.90000000596046,330426.299999997,7047,WL,A,3.0
2,4.016000032424927,learn,55983.99996757507,Tue Feb 11 2025 10:16:57 GMT-0600 (Central Standard Time),330892.6000000015,A,me,O,e,147,1,466.30000000447035,330426.299999997,7047,WL,A,3.0
2,4.115999937057495,learn,55884.000062942505,Tue Feb 11 2025 10:16:57 GMT-0600 (Central Standard Time),330992.5,A,mea,O,a,77,1,566.2000000029802,330426.299999997,7047,WL,A,3.0
2,4.381999969482422,learn,55618.00003051758,Tue Feb 11 2025 10:16:57 GMT-0600 (Central Standard Time),331259.3999999985,A,mead,O,d,249,1,833.1000000014901,330426.299999997,7047,WL,A,3.0
2,4.565999984741211,learn,55434.00001525879,Tue Feb 11 2025 10:16:57 GMT-0600 (Central Standard Time),331442.3999999985,A,meado,O,o,166,1,1016.1000000014901,330426.299999997,7047,WL,A,3.0
2,4.7159998416900635,learn,55284.00015830994,Tue Feb 11 2025 10:16:57 GMT-0600 (Central Standard Time),331592.3999999985,A,meadow,O,w,135,1,1166.1000000014901,330426.299999997,7047,WL,A,3.0
2,5.0320000648498535,learn,54967.99993515015,Tue Feb 11 2025 10:16:57 GMT-0600 (Central Standard Time),331909.1000000015,A,meadowenter,O,enter,305,1,1482.8000000044703,330426.299999997,7047,WL,A,3.0
2,5.48199987411499,learn,54518.00012588501,Tue Feb 11 2025 10:16:57 GMT-0600 (Central Standard Time),332359.1000000015,A,t,O,t,437,1,449.70000000298023,331909.3999999985,7047,WL,A,4.0
2,5.665999889373779,learn,54334.00011062622,Tue Feb 11 2025 10:16:57 GMT-0600 (Central Standard Time),332543.3999999985,A,tr,O,r,163,1,634.0,331909.3999999985,7047,WL,A,4.0
2,5.865000009536743,learn,54134.99999046326,Tue Feb 11 2025 10:16:57 GMT-0600 (Central Standard Time),332742.1000000015,A,tra,O,a,186,1,832.7000000029802,331909.3999999985,7047,WL,A,4.0
2,6.065000057220459,learn,53934.99994277954,Tue Feb 11 2025 10:16:57 GMT-0600 (Central Standard Time),332942.1000000015,A,trai,O,i,188,1,1032.7000000029802,331909.3999999985,7047,WL,A,4.0
2,6.247999906539917,learn,53752.00009346008,Tue Feb 11 2025 10:16:57 GMT-0600 (Central Standard Time),333125.200000003,A,train,O,n,164,1,1215.8000000044703,331909.3999999985,7047,WL,A,4.0
2,6.697999954223633,learn,53302.00004577637,Tue Feb 11 2025 10:16:57 GMT-0600 (Central Standard Time),333575.1000000015,A,trainenter,O,enter,428,1,1665.7000000029802,331909.3999999985,7047,WL,A,4.0
2,7.065000057220459,learn,52934.99994277954,Tue Feb 11 2025 10:16:57 GMT-0600 (Central Standard Time),333941.799999997,A,r,O,r,347,1,366.19999999552965,333575.6000000015,7047,WL,A,5.0
2,7.197999954223633,learn,52802.00004577637,Tue Feb 11 2025 10:16:57 GMT-0600 (Central Standard Time),334075.299999997,A,ru,O,u,116,1,499.69999999552965,333575.6000000015,7047,WL,A,5.0
2,7.5980000495910645,learn,52401.999950408936,Tue Feb 11 2025 10:16:57 GMT-0600 (Central Standard Time),334475.1000000015,A,rug,O,g,383,1,899.5,333575.6000000015,7047,WL,A,5.0
2,7.947999954223633,learn,52052.00004577637,Tue Feb 11 2025 10:16:57 GMT-0600 (Central Standard Time),334824.8999999985,A,rugenter,O,enter,326,1,1249.2999999970198,333575.6000000015,7047,WL,A,5.0
2,8.598000049591064,learn,51401.999950408936,Tue Feb 11 2025 10:16:57 GMT-0600 (Central Standard Time),335474.6000000015,A,c,O,c,641,1,649.3999999985099,334825.200000003,7047,WL,A,6.0
2,8.71399998664856,learn,51286.00001335144,Tue Feb 11 2025 10:16:57 GMT-0600 (Central Standard Time),335591.1000000015,A,ch,O,h,95,1,765.8999999985099,334825.200000003,7047,WL,A,6.0
2,8.813999891281128,learn,51186.00010871887,Tue Feb 11 2025 10:16:57 GMT-0600 (Central Standard Time),335691.200000003,A,chi,O,i,90,1,866.0,334825.200000003,7047,WL,A,6.0
2,9.063999891281128,learn,50936.00010871887,Tue Feb 11 2025 10:16:57 GMT-0600 (Central Standard Time),335941.299999997,A,chim,O,m,239,1,1116.0999999940395,334825.200000003,7047,WL,A,6.0
2,9.297999858856201,learn,50702.0001411438,Tue Feb 11 2025 10:16:57 GMT-0600 (Central Standard Time),336174.5,A,chimn,O,n,221,1,1349.2999999970198,334825.200000003,7047,WL,A,6.0
2,9.496999979019165,learn,50503.000020980835,Tue Feb 11 2025 10:16:57 GMT-0600 (Central Standard Time),336374.3999999985,A,chimne,O,e,187,1,1549.1999999955297,334825.200000003,7047,WL,A,6.0
2,9.664000034332275,learn,50335.999965667725,Tue Feb 11 2025 10:16:57 GMT-0600 (Central Standard Time),336540.8999999985,A,chimney,O,y,155,1,1715.6999999955297,334825.200000003,7047,WL,A,6.0
2,9.96399998664856,learn,50036.00001335144,Tue Feb 11 2025 10:16:57 GMT-0600 (Central Standard Time),336841.0,A,chimneyenter,O,enter,284,1,2015.7999999970198,334825.200000003,7047,WL,A,6.0
2,11.713000059127808,learn,48286.99994087219,Tue Feb 11 2025 10:16:57 GMT-0600 (Central Standard Time),338590.1000000015,A,g,O,g,1737,1,1748.8000000044703,336841.299999997,7047,WL,A,7.0
2,11.79699993133545,learn,48203.00006866455,Tue Feb 11 2025 10:16:57 GMT-0600 (Central Standard Time),338673.6000000015,A,go,O,o,68,1,1832.3000000044703,336841.299999997,7047,WL,A,7.0
2,11.996999979019165,learn,48003.000020980835,Tue Feb 11 2025 10:16:57 GMT-0600 (Central Standard Time),338874.0,A,gol,O,l,176,1,2032.7000000029802,336841.299999997,7047,WL,A,7.0
2,12.146999835968018,learn,47853.00016403198,Tue Feb 11 2025 10:16:57 GMT-0600 (Central Standard Time),339023.5,A,gold,O,d,127,1,2182.2000000029802,336841.299999997,7047,WL,A,7.0
2,12.345999956130981,learn,47654.00004386902,Tue Feb 11 2025 10:16:57 GMT-0600 (Central Standard Time),339223.3999999985,A,goldenter,O,enter,178,1,2382.10000000149,336841.299999997,7047,WL,A,7.0
2,12.61299991607666,learn,47387.00008392334,Tue Feb 11 2025 10:16:57 GMT-0600 (Central Standard Time),339489.8999999985,A,a,O,a,258,1,266.19999999552965,339223.700000003,7047,WL,A,8.0
2,12.796000003814697,learn,47203.9999961853,Tue Feb 11 2025 10:16:57 GMT-0600 (Central Standard Time),339673.299999997,A,ap,O,p,176,1,449.59999999403954,339223.700000003,7047,WL,A,8.0
2,12.94599986076355,learn,47054.00013923645,Tue Feb 11 2025 10:16:57 GMT-0600 (Central Standard Time),339823.200000003,A,app,O,p,129,1,599.5,339223.700000003,7047,WL,A,8.0
2,13.11299991607666,learn,46887.00008392334,Tue Feb 11 2025 10:16:57 GMT-0600 (Central Standard Time),339989.8999999985,A,appl,O,l,155,1,766.1999999955297,339223.700000003,7047,WL,A,8.0
2,13.246000051498413,learn,46753.99994850159,Tue Feb 11 2025 10:16:57 GMT-0600 (Central Standard Time),340123.200000003,A,apple,O,e,124,1,899.5,339223.700000003,7047,WL,A,8.0
2,13.828999996185303,learn,46171.0000038147,Tue Feb 11 2025 10:16:57 GMT-0600 (Central Standard Time),340706.299999997,A,appleenter,O,enter,575,1,1482.5999999940395,339223.700000003,7047,WL,A,8.0
2,17.060999870300293,learn,42939.00012969971,Tue Feb 11 2025 10:16:57 GMT-0600 (Central Standard Time),343938.1000000015,A,f,O,f,3215,1,3231.60000000149,340706.5,7047,WL,A,9.0
2,17.16100001335144,learn,42838.99998664856,Tue Feb 11 2025 10:16:57 GMT-0600 (Central Standard Time),344038.3999999985,A,fi,O,i,87,1,3331.89999999851,340706.5,7047,WL,A,9.0
2,17.310999870300293,learn,42689.00012969971,Tue Feb 11 2025 10:16:57 GMT-0600 (Central Standard Time),344188.1000000015,A,fin,O,n,131,1,3481.60000000149,340706.5,7047,WL,A,9.0
2,17.460999965667725,learn,42539.000034332275,Tue Feb 11 2025 10:16:57 GMT-0600 (Central Standard Time),344338.200000003,A,fing,O,g,133,1,3631.7000000029802,340706.5,7047,WL,A,9.0
2,17.644999980926514,learn,42355.000019073486,Tue Feb 11 2025 10:16:57 GMT-0600 (Central Standard Time),344521.5,A,finge,O,e,175,1,3815.0,340706.5,7047,WL,A,9.0
2,17.710999965667725,learn,42289.000034332275,Tue Feb 11 2025 10:16:57 GMT-0600 (Central Standard Time),344588.0,A,finger,O,r,56,1,3881.5,340706.5,7047,WL,A,9.0
2,17.99399995803833,learn,42006.00004196167,Tue Feb 11 2025 10:16:57 GMT-0600 (Central Standard Time),344871.3999999985,A,fingerenter,O,enter,261,1,4164.89999999851,340706.5,7047,WL,A,9.0
2,18.3439998626709,learn,41656.0001373291,Tue Feb 11 2025 10:16:57 GMT-0600 (Central Standard Time),345221.200000003,A,s,O,s,339,1,349.6000000014901,344871.6000000015,7047,WL,A,10.0
2,18.49399995803833,learn,41506.00004196167,Tue Feb 11 2025 10:16:57 GMT-0600 (Central Standard Time),345371.200000003,A,sa,O,a,133,1,499.6000000014901,344871.6000000015,7047,WL,A,10.0
2,18.628000020980835,learn,41371.999979019165,Tue Feb 11 2025 10:16:57 GMT-0600 (Central Standard Time),345504.3999999985,A,sal,O,l,118,1,632.7999999970198,344871.6000000015,7047,WL,A,10.0
2,18.878000020980835,learn,41121.999979019165,Tue Feb 11 2025 10:16:57 GMT-0600 (Central Standard Time),345754.8999999985,A,salt,O,t,233,1,883.2999999970198,344871.6000000015,7047,WL,A,10.0
2,19.361000061035156,learn,40638.999938964844,Tue Feb 11 2025 10:16:57 GMT-0600 (Central Standard Time),346238.1000000015,A,saltenter,O,enter,463,1,1366.5,344871.6000000015,7047,WL,A,10.0
2,36.789000034332275,learn,23210.999965667725,Tue Feb 11 2025 10:16:57 GMT-0600 (Central Standard Time),363665.799999997,A,r,O,r,17412,1,17427.39999999851,346238.3999999985,7047,WL,A,11.0
2,37.3050000667572,learn,22694.999933242798,Tue Feb 11 2025 10:16:57 GMT-0600 (Central Standard Time),364182.1000000015,A,rt,O,t,495,1,17943.70000000298,346238.3999999985,7047,WL,A,11.0
2,37.787999868392944,learn,22212.000131607056,Tue Feb 11 2025 10:16:57 GMT-0600 (Central Standard Time),364665.5,A,r,O,backspace,459,1,18427.10000000149,346238.3999999985,7047,WL,A,11.0
2,37.82099986076355,learn,22179.00013923645,Tue Feb 11 2025 10:16:57 GMT-0600 (Central Standard Time),364698.6000000015,A,ra,O,a,24,1,18460.20000000298,346238.3999999985,7047,WL,A,11.0
2,37.954999923706055,learn,22045.000076293945,Tue Feb 11 2025 10:16:57 GMT-0600 (Central Standard Time),364832.1000000015,A,rat,O,t,111,1,18593.70000000298,346238.3999999985,7047,WL,A,11.0
2,38.08800005912781,learn,21911.999940872192,Tue Feb 11 2025 10:16:57 GMT-0600 (Central Standard Time),364965.299999997,A,ratt,O,t,114,1,18726.89999999851,346238.3999999985,7047,WL,A,11.0
2,38.204999923706055,learn,21795.000076293945,Tue Feb 11 2025 10:16:57 GMT-0600 (Central Standard Time),365081.8999999985,A,rattl,O,l,109,1,18843.5,346238.3999999985,7047,WL,A,11.0
2,38.355000019073486,learn,21644.999980926514,Tue Feb 11 2025 10:16:57 GMT-0600 (Central Standard Time),365232.0,A,rattle,O,e,128,1,18993.60000000149,346238.3999999985,7047,WL,A,11.0
2,39.1710000038147,learn,20828.999996185303,Tue Feb 11 2025 10:16:57 GMT-0600 (Central Standard Time),366048.3999999985,A,rattleenter,O,enter,793,1,19810.0,346238.3999999985,7047,WL,A,11.0
2,39.82099986076355,learn,20179.00013923645,Tue Feb 11 2025 10:16:57 GMT-0600 (Central Standard Time),366698.0,A,g,O,g,642,1,649.2999999970198,366048.700000003,7047,WL,A,12.0
2,39.9210000038147,learn,20078.999996185303,Tue Feb 11 2025 10:16:57 GMT-0600 (Central Standard Time),366798.299999997,A,go,O,o,89,1,749.5999999940395,366048.700000003,7047,WL,A,12.0
2,40.13699984550476,learn,19863.00015449524,Tue Feb 11 2025 10:16:57 GMT-0600 (Central Standard Time),367014.700000003,A,gol,O,l,203,1,966.0,366048.700000003,7047,WL,A,12.0
2,40.287999868392944,learn,19712.000131607056,Tue Feb 11 2025 10:16:57 GMT-0600 (Central Standard Time),367164.799999997,A,gold,O,d,139,1,1116.0999999940395,366048.700000003,7047,WL,A,12.0
2,40.4539999961853,learn,19546.000003814697,Tue Feb 11 2025 10:16:57 GMT-0600 (Central Standard Time),367331.6000000015,A,goldenter,O,enter,158,1,1282.8999999985099,366048.700000003,7047,WL,A,12.0
2,60.014999866485596,learn,-14.999866485595703,Tue Feb 11 2025 10:16:57 GMT-0600 (Central Standard Time),386891.8999999985,A,None,O,None,19554,1,19560.10000000149,367331.799999997,7047,WL,A,13.0
3,2.9149999618530273,learn,57085.00003814697,Tue Feb 11 2025 10:16:57 GMT-0600 (Central Standard Time),459435.8999999985,A,b,O,b,2898,1,2915.39999999851,456520.5,7047,WL,A,1.0
3,3.0320000648498535,learn,56967.99993515015,Tue Feb 11 2025 10:16:57 GMT-0600 (Central Standard Time),459552.799999997,A,bo,O,o,93,1,3032.2999999970198,456520.5,7047,WL,A,1.0
3,3.182000160217285,learn,56817.999839782715,Tue Feb 11 2025 10:16:57 GMT-0600 (Central Standard Time),459702.3999999985,A,boo,O,o,129,1,3181.89999999851,456520.5,7047,WL,A,1.0
3,3.3990001678466797,learn,56600.99983215332,Tue Feb 11 2025 10:16:57 GMT-0600 (Central Standard Time),459919.0,A,book,O,k,195,1,3398.5,456520.5,7047,WL,A,1.0
3,3.7150001525878906,learn,56284.99984741211,Tue Feb 11 2025 10:16:57 GMT-0600 (Central Standard Time),460235.5,A,bookenter,O,enter,299,1,3715.0,456520.5,7047,WL,A,1.0
3,4.631999969482422,learn,55368.00003051758,Tue Feb 11 2025 10:16:57 GMT-0600 (Central Standard Time),461152.0,A,f,O,f,902,1,916.1000000014901,460235.8999999985,7047,WL,A,2.0
3,4.664999961853027,learn,55335.00003814697,Tue Feb 11 2025 10:16:57 GMT-0600 (Central Standard Time),461185.5,A,fl,O,l,25,1,949.6000000014901,460235.8999999985,7047,WL,A,2.0
3,4.815000057220459,learn,55184.99994277954,Tue Feb 11 2025 10:16:57 GMT-0600 (Central Standard Time),461335.200000003,A,flo,O,o,137,1,1099.3000000044703,460235.8999999985,7047,WL,A,2.0
3,4.914000034332275,learn,55085.999965667725,Tue Feb 11 2025 10:16:57 GMT-0600 (Central Standard Time),461435.0,A,flow,O,w,90,1,1199.1000000014901,460235.8999999985,7047,WL,A,2.0
3,4.998000144958496,learn,55001.999855041504,Tue Feb 11 2025 10:16:57 GMT-0600 (Central Standard Time),461518.700000003,A,flowe,O,e,70,1,1282.8000000044703,460235.8999999985,7047,WL,A,2.0
3,5.0980000495910645,learn,54901.999950408936,Tue Feb 11 2025 10:16:57 GMT-0600 (Central Standard Time),461618.5,A,flower,O,r,83,1,1382.6000000014901,460235.8999999985,7047,WL,A,2.0
3,5.715000152587891,learn,54284.99984741211,Tue Feb 11 2025 10:16:57 GMT-0600 (Central Standard Time),462235.0,A,flowerenter,O,enter,600,1,1999.1000000014901,460235.8999999985,7047,WL,A,2.0
3,6.031000137329102,learn,53968.9998626709,Tue Feb 11 2025 10:16:57 GMT-0600 (Central Standard Time),462551.5,A,t,O,t,295,1,316.1000000014901,462235.3999999985,7047,WL,A,3.0
3,6.197999954223633,learn,53802.00004577637,Tue Feb 11 2025 10:16:57 GMT-0600 (Central Standard Time),462718.1000000015,A,tr,O,r,154,1,482.70000000298023,462235.3999999985,7047,WL,A,3.0
3,6.281000137329102,learn,53718.9998626709,Tue Feb 11 2025 10:16:57 GMT-0600 (Central Standard Time),462801.6000000015,A,tre,O,e,68,1,566.2000000029802,462235.3999999985,7047,WL,A,3.0
3,6.364000082015991,learn,53635.99991798401,Tue Feb 11 2025 10:16:57 GMT-0600 (Central Standard Time),462884.799999997,A,trea,O,a,64,1,649.3999999985099,462235.3999999985,7047,WL,A,3.0
3,6.514000177383423,learn,53485.99982261658,Tue Feb 11 2025 10:16:57 GMT-0600 (Central Standard Time),463034.799999997,A,treai,O,i,142,1,799.3999999985099,462235.3999999985,7047,WL,A,3.0
3,6.947999954223633,learn,53052.00004577637,Tue Feb 11 2025 10:16:57 GMT-0600 (Central Standard Time),463468.0,A,trea,O,backspace,423,1,1232.6000000014901,462235.3999999985,7047,WL,A,3.0
3,7.098999977111816,learn,52901.00002288818,Tue Feb 11 2025 10:16:57 GMT-0600 (Central Standard Time),463619.0,A,tre,O,backspace,141,1,1383.6000000014901,462235.3999999985,7047,WL,A,3.0
3,7.697000026702881,learn,52302.99997329712,Tue Feb 11 2025 10:16:57 GMT-0600 (Central Standard Time),464217.5,A,tr,O,backspace,592,1,1982.1000000014901,462235.3999999985,7047,WL,A,3.0
3,7.797000169754028,learn,52202.99983024597,Tue Feb 11 2025 10:16:57 GMT-0600 (Central Standard Time),464317.3999999985,A,tra,O,a,88,1,2082.0,462235.3999999985,7047,WL,A,3.0
3,7.947000026702881,learn,52052.99997329712,Tue Feb 11 2025 10:16:57 GMT-0600 (Central Standard Time),464467.6000000015,A,trat,O,t,141,1,2232.2000000029802,462235.3999999985,7047,WL,A,3.0
3,8.380000114440918,learn,51619.99988555908,Tue Feb 11 2025 10:16:57 GMT-0600 (Central Standard Time),464901.0,A,tra,O,backspace,414,1,2665.60000000149,462235.3999999985,7047,WL,A,3.0
3,8.614000082015991,learn,51385.99991798401,Tue Feb 11 2025 10:16:57 GMT-0600 (Central Standard Time),465134.299999997,A,trai,O,i,221,1,2898.89999999851,462235.3999999985,7047,WL,A,3.0
3,8.764000177383423,learn,51235.99982261658,Tue Feb 11 2025 10:16:57 GMT-0600 (Central Standard Time),465284.200000003,A,train,O,n,131,1,3048.8000000044703,462235.3999999985,7047,WL,A,3.0
3,9.062999963760376,learn,50937.000036239624,Tue Feb 11 2025 10:16:57 GMT-0600 (Central Standard Time),465583.799999997,A,trainenter,O,enter,285,1,3348.39999999851,462235.3999999985,7047,WL,A,3.0
3,10.845999956130981,learn,49154.00004386902,Tue Feb 11 2025 10:16:57 GMT-0600 (Central Standard Time),467366.700000003,A,m,O,m,1762,1,1782.7000000029802,465584.0,7047,WL,A,4.0
3,10.979000091552734,learn,49020.999908447266,Tue Feb 11 2025 10:16:57 GMT-0600 (Central Standard Time),467499.8999999985,A,me,O,e,124,1,1915.8999999985099,465584.0,7047,WL,A,4.0
3,11.080000162124634,learn,48919.999837875366,Tue Feb 11 2025 10:16:57 GMT-0600 (Central Standard Time),467600.0,A,mea,O,a,85,1,2016.0,465584.0,7047,WL,A,4.0
3,11.296000003814697,learn,48703.9999961853,Tue Feb 11 2025 10:16:57 GMT-0600 (Central Standard Time),467816.799999997,A,mead,O,d,193,1,2232.7999999970198,465584.0,7047,WL,A,4.0
3,11.446000099182129,learn,48553.99990081787,Tue Feb 11 2025 10:16:57 GMT-0600 (Central Standard Time),467966.3999999985,A,meado,O,o,129,1,2382.39999999851,465584.0,7047,WL,A,4.0
3,11.92900013923645,learn,48070.99986076355,Tue Feb 11 2025 10:16:57 GMT-0600 (Central Standard Time),468449.6000000015,A,meadow,O,w,460,1,2865.60000000149,465584.0,7047,WL,A,4.0
3,12.146000146865845,learn,47853.999853134155,Tue Feb 11 2025 10:16:57 GMT-0600 (Central Standard Time),468666.0,A,meadowenter,O,enter,208,1,3082.0,465584.0,7047,WL,A,4.0
3,12.496000051498413,learn,47503.99994850159,Tue Feb 11 2025 10:16:57 GMT-0600 (Central Standard Time),469016.1000000015,A,r,O,r,328,1,349.80000000447035,468666.299999997,7047,WL,A,5.0
3,12.644999980926514,learn,47355.000019073486,Tue Feb 11 2025 10:16:57 GMT-0600 (Central Standard Time),469165.8999999985,A,ru,O,u,137,1,499.6000000014901,468666.299999997,7047,WL,A,5.0
3,12.896000146865845,learn,47103.999853134155,Tue Feb 11 2025 10:16:57 GMT-0600 (Central Standard Time),469416.0,A,rud,O,d,236,1,749.7000000029802,468666.299999997,7047,WL,A,5.0
3,13.312000036239624,learn,46687.999963760376,Tue Feb 11 2025 10:16:57 GMT-0600 (Central Standard Time),469832.5,A,ru,O,backspace,402,1,1166.2000000029802,468666.299999997,7047,WL,A,5.0
3,13.412000179290771,learn,46587.99982070923,Tue Feb 11 2025 10:16:57 GMT-0600 (Central Standard Time),469932.799999997,A,rug,O,g,81,1,1266.5,468666.299999997,7047,WL,A,5.0
3,13.662000179290771,learn,46337.99982070923,Tue Feb 11 2025 10:16:57 GMT-0600 (Central Standard Time),470182.3999999985,A,rugenter,O,enter,229,1,1516.1000000014901,468666.299999997,7047,WL,A,5.0
3,13.92900013923645,learn,46070.99986076355,Tue Feb 11 2025 10:16:57 GMT-0600 (Central Standard Time),470449.1000000015,A,a,O,a,251,1,266.30000000447035,470182.799999997,7047,WL,A,6.0
3,14.212000131607056,learn,45787.999868392944,Tue Feb 11 2025 10:16:57 GMT-0600 (Central Standard Time),470732.299999997,A,ap,O,p,273,1,549.5,470182.799999997,7047,WL,A,6.0
3,14.84500002861023,learn,45154.99997138977,Tue Feb 11 2025 10:16:57 GMT-0600 (Central Standard Time),471365.3999999985,A,app,O,p,614,1,1182.6000000014901,470182.799999997,7047,WL,A,6.0
3,15.045000076293945,learn,44954.999923706055,Tue Feb 11 2025 10:16:57 GMT-0600 (Central Standard Time),471565.3999999985,A,appl,O,l,180,1,1382.6000000014901,470182.799999997,7047,WL,A,6.0
3,15.311000108718872,learn,44688.99989128113,Tue Feb 11 2025 10:16:57 GMT-0600 (Central Standard Time),471832.0,A,apple,O,e,253,1,1649.2000000029802,470182.799999997,7047,WL,A,6.0
3,15.57800006866455,learn,44421.99993133545,Tue Feb 11 2025 10:16:57 GMT-0600 (Central Standard Time),472098.6000000015,A,appleenter,O,enter,249,1,1915.8000000044703,470182.799999997,7047,WL,A,6.0
3,15.861000061035156,learn,44138.999938964844,Tue Feb 11 2025 10:16:57 GMT-0600 (Central Standard Time),472381.6000000015,A,b,O,b,271,1,282.6000000014901,472099.0,7047,WL,A,7.0
3,15.995000123977661,learn,44004.99987602234,Tue Feb 11 2025 10:16:57 GMT-0600 (Central Standard Time),472515.1000000015,A,bu,O,u,116,1,416.1000000014901,472099.0,7047,WL,A,7.0
3,16.195000171661377,learn,43804.99982833862,Tue Feb 11 2025 10:16:57 GMT-0600 (Central Standard Time),472715.200000003,A,but,O,t,190,1,616.2000000029802,472099.0,7047,WL,A,7.0
3,16.361000061035156,learn,43638.999938964844,Tue Feb 11 2025 10:16:57 GMT-0600 (Central Standard Time),472881.700000003,A,butt,O,t,159,1,782.7000000029802,472099.0,7047,WL,A,7.0
3,16.694000005722046,learn,43305.999994277954,Tue Feb 11 2025 10:16:57 GMT-0600 (Central Standard Time),473214.700000003,A,butto,O,o,321,1,1115.7000000029802,472099.0,7047,WL,A,7.0
3,16.89400005340576,learn,43105.99994659424,Tue Feb 11 2025 10:16:57 GMT-0600 (Central Standard Time),473414.6000000015,A,button,O,n,179,1,1315.6000000014901,472099.0,7047,WL,A,7.0
3,17.377000093460083,learn,42622.99990653992,Tue Feb 11 2025 10:16:57 GMT-0600 (Central Standard Time),473897.8999999985,A,buttonenter,O,enter,476,1,1798.8999999985099,472099.0,7047,WL,A,7.0
3,19.16000008583069,learn,40839.99991416931,Tue Feb 11 2025 10:16:57 GMT-0600 (Central Standard Time),475680.799999997,A,g,O,g,1760,1,1782.5999999940395,473898.200000003,7047,WL,A,8.0
3,19.243000030517578,learn,40756.99996948242,Tue Feb 11 2025 10:16:57 GMT-0600 (Central Standard Time),475764.0,A,go,O,o,65,1,1865.7999999970198,473898.200000003,7047,WL,A,8.0
3,19.41000008583069,learn,40589.99991416931,Tue Feb 11 2025 10:16:57 GMT-0600 (Central Standard Time),475930.3999999985,A,gol,O,l,157,1,2032.1999999955297,473898.200000003,7047,WL,A,8.0
3,19.526999950408936,learn,40473.000049591064,Tue Feb 11 2025 10:16:57 GMT-0600 (Central Standard Time),476047.299999997,A,gold,O,d,96,1,2149.0999999940395,473898.200000003,7047,WL,A,8.0
3,19.759999990463257,learn,40240.00000953674,Tue Feb 11 2025 10:16:57 GMT-0600 (Central Standard Time),476280.6000000015,A,goldenter,O,enter,211,1,2382.39999999851,473898.200000003,7047,WL,A,8.0
3,21.011000156402588,learn,38988.99984359741,Tue Feb 11 2025 10:16:57 GMT-0600 (Central Standard Time),477531.5,A,h,O,h,1233,1,1250.6000000014901,476280.8999999985,7047,WL,A,9.0
3,21.093000173568726,learn,38906.999826431274,Tue Feb 11 2025 10:16:57 GMT-0600 (Central Standard Time),477613.299999997,A,ha,O,a,70,1,1332.3999999985099,476280.8999999985,7047,WL,A,9.0
3,21.276000022888184,learn,38723.99997711182,Tue Feb 11 2025 10:16:57 GMT-0600 (Central Standard Time),477797.200000003,A,hap,O,p,164,1,1516.3000000044703,476280.8999999985,7047,WL,A,9.0
3,21.426000118255615,learn,38573.999881744385,Tue Feb 11 2025 10:16:57 GMT-0600 (Central Standard Time),477946.700000003,A,hapr,O,r,141,1,1665.8000000044703,476280.8999999985,7047,WL,A,9.0
3,21.9760000705719,learn,38023.9999294281,Tue Feb 11 2025 10:16:57 GMT-0600 (Central Standard Time),478496.5,A,hap,O,backspace,528,1,2215.60000000149,476280.8999999985,7047,WL,A,9.0
3,22.12600016593933,learn,37873.99983406067,Tue Feb 11 2025 10:16:57 GMT-0600 (Central Standard Time),478646.5,A,ha,O,backspace,138,1,2365.60000000149,476280.8999999985,7047,WL,A,9.0
3,22.325999975204468,learn,37674.00002479553,Tue Feb 11 2025 10:16:57 GMT-0600 (Central Standard Time),478846.3999999985,A,har,O,r,188,1,2565.5,476280.8999999985,7047,WL,A,9.0
3,22.79200005531311,learn,37207.99994468689,Tue Feb 11 2025 10:16:57 GMT-0600 (Central Standard Time),479313.1000000015,A,harp,O,p,452,1,3032.2000000029802,476280.8999999985,7047,WL,A,9.0
3,23.14199995994568,learn,36858.00004005432,Tue Feb 11 2025 10:16:57 GMT-0600 (Central Standard Time),479662.799999997,A,harpenter,O,enter,329,1,3381.89999999851,476280.8999999985,7047,WL,A,9.0
3,25.891000032424927,learn,34108.99996757507,Tue Feb 11 2025 10:16:57 GMT-0600 (Central Standard Time),482412.1000000015,A,c,O,c,2732,1,2749.0,479663.1000000015,7047,WL,A,10.0
3,25.975000143051147,learn,34024.99985694885,Tue Feb 11 2025 10:16:57 GMT-0600 (Central Standard Time),482495.6000000015,A,ch,O,h,70,1,2832.5,479663.1000000015,7047,WL,A,10.0
3,26.074000120162964,learn,33925.999879837036,Tue Feb 11 2025 10:16:57 GMT-0600 (Central Standard Time),482595.200000003,A,chi,O,i,90,1,2932.10000000149,479663.1000000015,7047,WL,A,10.0
3,26.258000135421753,learn,33741.99986457825,Tue Feb 11 2025 10:16:57 GMT-0600 (Central Standard Time),482778.5,A,chim,O,m,167,1,3115.39999999851,479663.1000000015,7047,WL,A,10.0
3,26.558000087738037,learn,33441.99991226196,Tue Feb 11 2025 10:16:57 GMT-0600 (Central Standard Time),483078.3999999985,A,chimn,O,n,287,1,3415.2999999970198,479663.1000000015,7047,WL,A,10.0
3,26.723999977111816,learn,33276.00002288818,Tue Feb 11 2025 10:16:57 GMT-0600 (Central Standard Time),483245.200000003,A,chimne,O,e,147,1,3582.10000000149,479663.1000000015,7047,WL,A,10.0
3,26.924000024795532,learn,33075.99997520447,Tue Feb 11 2025 10:16:57 GMT-0600 (Central Standard Time),483445.1000000015,A,chimney,O,y,181,1,3782.0,479663.1000000015,7047,WL,A,10.0
3,27.20900011062622,learn,32790.99988937378,Tue Feb 11 2025 10:16:57 GMT-0600 (Central Standard Time),483729.299999997,A,chimneyenter,O,enter,269,1,4066.1999999955297,479663.1000000015,7047,WL,A,10.0
3,31.02400016784668,learn,28975.99983215332,Tue Feb 11 2025 10:16:57 GMT-0600 (Central Standard Time),487544.8999999985,A,k,O,k,3792,1,3815.2999999970198,483729.6000000015,7047,WL,A,11.0
3,31.123000144958496,learn,28876.999855041504,Tue Feb 11 2025 10:16:57 GMT-0600 (Central Standard Time),487643.8999999985,A,ke,O,e,81,1,3914.2999999970198,483729.6000000015,7047,WL,A,11.0
3,31.34000015258789,learn,28659.99984741211,Tue Feb 11 2025 10:16:57 GMT-0600 (Central Standard Time),487860.3999999985,A,key,O,y,199,1,4130.79999999702,483729.6000000015,7047,WL,A,11.0
3,31.67300009727478,learn,28326.99990272522,Tue Feb 11 2025 10:16:57 GMT-0600 (Central Standard Time),488193.700000003,A,keyenter,O,enter,309,1,4464.10000000149,483729.6000000015,7047,WL,A,11.0
3,38.97000002861023,learn,21029.99997138977,Tue Feb 11 2025 10:16:57 GMT-0600 (Central Standard Time),495491.1000000015,A,f,O,f,7280,1,7297.20000000298,488193.8999999985,7047,WL,A,12.0
3,39.087000131607056,learn,20912.999868392944,Tue Feb 11 2025 10:16:57 GMT-0600 (Central Standard Time),495607.799999997,A,fi,O,i,94,1,7413.89999999851,488193.8999999985,7047,WL,A,12.0
3,39.22000002861023,learn,20779.99997138977,Tue Feb 11 2025 10:16:57 GMT-0600 (Central Standard Time),495741.200000003,A,fin,O,n,122,1,7547.30000000447,488193.8999999985,7047,WL,A,12.0
3,39.28700017929077,learn,20712.99982070923,Tue Feb 11 2025 10:16:57 GMT-0600 (Central Standard Time),495807.8999999985,A,fing,O,g,44,1,7614.0,488193.8999999985,7047,WL,A,12.0
3,39.4539999961853,learn,20546.000003814697,Tue Feb 11 2025 10:16:57 GMT-0600 (Central Standard Time),495974.799999997,A,finge,O,e,154,1,7780.89999999851,488193.8999999985,7047,WL,A,12.0
3,39.503000020980835,learn,20496.999979019165,Tue Feb 11 2025 10:16:57 GMT-0600 (Central Standard Time),496024.1000000015,A,finger,O,r,35,1,7830.20000000298,488193.8999999985,7047,WL,A,12.0
3,39.65400004386902,learn,20345.99995613098,Tue Feb 11 2025 10:16:57 GMT-0600 (Central Standard Time),496174.299999997,A,fingerenter,O,enter,137,1,7980.39999999851,488193.8999999985,7047,WL,A,12.0
3,45.38499999046326,learn,14615.000009536743,Tue Feb 11 2025 10:16:57 GMT-0600 (Central Standard Time),501905.700000003,A,a,O,a,5724,1,5731.10000000149,496174.6000000015,7047,WL,A,13.0
3,45.58500003814697,learn,14414.999961853027,Tue Feb 11 2025 10:16:57 GMT-0600 (Central Standard Time),502105.8999999985,A,ap,O,p,185,1,5931.29999999702,496174.6000000015,7047,WL,A,13.0
3,45.735000133514404,learn,14264.999866485596,Tue Feb 11 2025 10:16:57 GMT-0600 (Central Standard Time),502255.700000003,A,app,O,p,136,1,6081.10000000149,496174.6000000015,7047,WL,A,13.0
3,45.88499999046326,learn,14115.000009536743,Tue Feb 11 2025 10:16:57 GMT-0600 (Central Standard Time),502405.700000003,A,appl,O,l,131,1,6231.10000000149,496174.6000000015,7047,WL,A,13.0
3,45.968000173568726,learn,14031.999826431274,Tue Feb 11 2025 10:16:57 GMT-0600 (Central Standard Time),502488.799999997,A,apple,O,e,69,1,6314.19999999553,496174.6000000015,7047,WL,A,13.0
3,46.16799998283386,learn,13832.000017166138,Tue Feb 11 2025 10:16:57 GMT-0600 (Central Standard Time),502689.200000003,A,appleenter,O,enter,177,1,6514.60000000149,496174.6000000015,7047,WL,A,13.0
3,50.88300013542175,learn,9116.999864578247,Tue Feb 11 2025 10:16:57 GMT-0600 (Central Standard Time),507404.1000000015,A,l,O,l,4705,1,4714.60000000149,502689.5,7047,WL,A,14.0
3,51.08300018310547,learn,8916.999816894531,Tue Feb 11 2025 10:16:57 GMT-0600 (Central Standard Time),507604.0,A,lo,O,o,181,1,4914.5,502689.5,7047,WL,A,14.0
3,51.15000009536743,learn,8849.999904632568,Tue Feb 11 2025 10:16:57 GMT-0600 (Central Standard Time),507670.8999999985,A,log,O,g,54,1,4981.39999999851,502689.5,7047,WL,A,14.0
3,51.33300018310547,learn,8666.999816894531,Tue Feb 11 2025 10:16:57 GMT-0600 (Central Standard Time),507854.0,A,logenter,O,enter,171,1,5164.5,502689.5,7047,WL,A,14.0
3,60.01400017738342,learn,-14.000177383422852,Tue Feb 11 2025 10:16:57 GMT-0600 (Central Standard Time),516534.6000000015,A,None,O,None,8673,1,8680.30000000447,507854.299999997,7047,WL,A,15.0
4,0.9670000076293945,learn,59032.999992370605,Tue Feb 11 2025 10:16:57 GMT-0600 (Central Standard Time),586462.8999999985,A,b,O,b,946,1,966.3999999985099,585496.5,7047,WL,A,1.0
4,1.0499999523162842,learn,58950.000047683716,Tue Feb 11 2025 10:16:57 GMT-0600 (Central Standard Time),586546.0,A,bo,O,o,74,1,1049.5,585496.5,7047,WL,A,1.0
4,1.2170000076293945,learn,58782.999992370605,Tue Feb 11 2025 10:16:57 GMT-0600 (Central Standard Time),586712.6000000015,A,boo,O,o,144,1,1216.1000000014901,585496.5,7047,WL,A,1.0
4,1.5499999523162842,learn,58450.000047683716,Tue Feb 11 2025 10:16:57 GMT-0600 (Central Standard Time),587045.8999999985,A,book,O,k,321,1,1549.3999999985099,585496.5,7047,WL,A,1.0
4,1.8499999046325684,learn,58150.00009536743,Tue Feb 11 2025 10:16:57 GMT-0600 (Central Standard Time),587345.6000000015,A,bookenter,O,enter,275,1,1849.1000000014901,585496.5,7047,WL,A,1.0
4,2.4830000400543213,learn,57516.99995994568,Tue Feb 11 2025 10:16:57 GMT-0600 (Central Standard Time),587979.0,A,t,O,t,624,1,633.1000000014901,587345.8999999985,7047,WL,A,2.0
4,2.682999849319458,learn,57317.00015068054,Tue Feb 11 2025 10:16:57 GMT-0600 (Central Standard Time),588179.0,A,tr,O,r,191,1,833.1000000014901,587345.8999999985,7047,WL,A,2.0
4,2.7829999923706055,learn,57217.000007629395,Tue Feb 11 2025 10:16:57 GMT-0600 (Central Standard Time),588279.0,A,tre,O,e,79,1,933.1000000014901,587345.8999999985,7047,WL,A,2.0
4,2.866999864578247,learn,57133.00013542175,Tue Feb 11 2025 10:16:57 GMT-0600 (Central Standard Time),588363.299999997,A,trea,O,a,75,1,1017.3999999985099,587345.8999999985,7047,WL,A,2.0
4,3.432999849319458,learn,56567.00015068054,Tue Feb 11 2025 10:16:57 GMT-0600 (Central Standard Time),588928.700000003,A,tre,O,backspace,550,1,1582.8000000044703,587345.8999999985,7047,WL,A,2.0
4,3.5989999771118164,learn,56401.00002288818,Tue Feb 11 2025 10:16:57 GMT-0600 (Central Standard Time),589095.3999999985,A,tr,O,backspace,145,1,1749.5,587345.8999999985,7047,WL,A,2.0
4,3.748999834060669,learn,56251.00016593933,Tue Feb 11 2025 10:16:57 GMT-0600 (Central Standard Time),589245.1000000015,A,tra,O,a,130,1,1899.2000000029802,587345.8999999985,7047,WL,A,2.0
4,3.9159998893737793,learn,56084.00011062622,Tue Feb 11 2025 10:16:57 GMT-0600 (Central Standard Time),589411.799999997,A,trai,O,i,149,1,2065.89999999851,587345.8999999985,7047,WL,A,2.0
4,4.082000017166138,learn,55917.99998283386,Tue Feb 11 2025 10:16:57 GMT-0600 (Central Standard Time),589578.3999999985,A,train,O,n,150,1,2232.5,587345.8999999985,7047,WL,A,2.0
4,4.83299994468689,learn,55167.00005531311,Tue Feb 11 2025 10:16:57 GMT-0600 (Central Standard Time),590329.1000000015,A,trainenter,O,enter,744,1,2983.2000000029802,587345.8999999985,7047,WL,A,2.0
4,5.514999866485596,learn,54485.000133514404,Tue Feb 11 2025 10:16:57 GMT-0600 (Central Standard Time),591011.5,A,r,O,r,666,1,682.2000000029802,590329.299999997,7047,WL,A,3.0
4,5.648999929428101,learn,54351.0000705719,Tue Feb 11 2025 10:16:57 GMT-0600 (Central Standard Time),591144.6000000015,A,ru,O,u,118,1,815.3000000044703,590329.299999997,7047,WL,A,3.0
4,5.898999929428101,learn,54101.0000705719,Tue Feb 11 2025 10:16:57 GMT-0600 (Central Standard Time),591394.5,A,rug,O,g,233,1,1065.2000000029802,590329.299999997,7047,WL,A,3.0
4,6.131999969482422,learn,53868.00003051758,Tue Feb 11 2025 10:16:57 GMT-0600 (Central Standard Time),591627.799999997,A,rugenter,O,enter,215,1,1298.5,590329.299999997,7047,WL,A,3.0
4,6.431999921798706,learn,53568.000078201294,Tue Feb 11 2025 10:16:57 GMT-0600 (Central Standard Time),591927.700000003,A,a,O,a,286,1,299.6000000014901,591628.1000000015,7047,WL,A,4.0
4,6.648000001907349,learn,53351.99999809265,Tue Feb 11 2025 10:16:57 GMT-0600 (Central Standard Time),592144.299999997,A,ap,O,p,194,1,516.1999999955297,591628.1000000015,7047,WL,A,4.0
4,6.797999858856201,learn,53202.0001411438,Tue Feb 11 2025 10:16:57 GMT-0600 (Central Standard Time),592294.200000003,A,app,O,p,129,1,666.1000000014901,591628.1000000015,7047,WL,A,4.0
4,6.98199987411499,learn,53018.00012588501,Tue Feb 11 2025 10:16:57 GMT-0600 (Central Standard Time),592477.5,A,appl,O,l,164,1,849.3999999985099,591628.1000000015,7047,WL,A,4.0
4,7.097999811172485,learn,52902.000188827515,Tue Feb 11 2025 10:16:57 GMT-0600 (Central Standard Time),592594.1000000015,A,apple,O,e,100,1,966.0,591628.1000000015,7047,WL,A,4.0
4,7.580999851226807,learn,52419.00014877319,Tue Feb 11 2025 10:16:57 GMT-0600 (Central Standard Time),593077.3999999985,A,appleenter,O,enter,464,1,1449.2999999970198,591628.1000000015,7047,WL,A,4.0
4,7.81499981880188,learn,52185.00018119812,Tue Feb 11 2025 10:16:57 GMT-0600 (Central Standard Time),593310.6000000015,A,m,O,m,221,1,233.0,593077.6000000015,7047,WL,A,5.0
4,7.931999921798706,learn,52068.000078201294,Tue Feb 11 2025 10:16:57 GMT-0600 (Central Standard Time),593427.5,A,me,O,e,99,1,349.8999999985099,593077.6000000015,7047,WL,A,5.0
4,8.030999898910522,learn,51969.00010108948,Tue Feb 11 2025 10:16:57 GMT-0600 (Central Standard Time),593527.200000003,A,mea,O,a,86,1,449.6000000014901,593077.6000000015,7047,WL,A,5.0
4,8.247999906539917,learn,51752.00009346008,Tue Feb 11 2025 10:16:57 GMT-0600 (Central Standard Time),593743.8999999985,A,mead,O,d,203,1,666.2999999970198,593077.6000000015,7047,WL,A,5.0
4,8.447999954223633,learn,51552.00004577637,Tue Feb 11 2025 10:16:57 GMT-0600 (Central Standard Time),593943.799999997,A,meado,O,o,177,1,866.1999999955297,593077.6000000015,7047,WL,A,5.0
4,8.563999891281128,learn,51436.00010871887,Tue Feb 11 2025 10:16:57 GMT-0600 (Central Standard Time),594060.3999999985,A,meadow,O,w,106,1,982.7999999970198,593077.6000000015,7047,WL,A,5.0
4,8.996999979019165,learn,51003.000020980835,Tue Feb 11 2025 10:16:57 GMT-0600 (Central Standard Time),594493.700000003,A,meadowenter,O,enter,421,1,1416.1000000014901,593077.6000000015,7047,WL,A,5.0
4,11.02999997138977,learn,48970.00002861023,Tue Feb 11 2025 10:16:57 GMT-0600 (Central Standard Time),596526.3999999985,A,r,O,r,2020,1,2032.2999999970198,594494.1000000015,7047,WL,A,6.0
4,11.180999994277954,learn,48819.000005722046,Tue Feb 11 2025 10:16:57 GMT-0600 (Central Standard Time),596677.3999999985,A,ra,O,a,131,1,2183.2999999970198,594494.1000000015,7047,WL,A,6.0
4,11.27999997138977,learn,48720.00002861023,Tue Feb 11 2025 10:16:57 GMT-0600 (Central Standard Time),596776.1000000015,A,rat,O,t,76,1,2282.0,594494.1000000015,7047,WL,A,6.0
4,11.912999868392944,learn,48087.000131607056,Tue Feb 11 2025 10:16:57 GMT-0600 (Central Standard Time),597409.299999997,A,ratt,O,t,609,1,2915.1999999955297,594494.1000000015,7047,WL,A,6.0
4,12.013000011444092,learn,47986.99998855591,Tue Feb 11 2025 10:16:57 GMT-0600 (Central Standard Time),597509.700000003,A,rattl,O,l,80,1,3015.60000000149,594494.1000000015,7047,WL,A,6.0
4,12.162999868392944,learn,47837.000131607056,Tue Feb 11 2025 10:16:57 GMT-0600 (Central Standard Time),597659.200000003,A,rattle,O,e,132,1,3165.10000000149,594494.1000000015,7047,WL,A,6.0
4,12.345999956130981,learn,47654.00004386902,Tue Feb 11 2025 10:16:57 GMT-0600 (Central Standard Time),597842.6000000015,A,rattleenter,O,enter,175,1,3348.5,594494.1000000015,7047,WL,A,6.0
4,12.745999813079834,learn,47254.000186920166,Tue Feb 11 2025 10:16:57 GMT-0600 (Central Standard Time),598242.299999997,A,h,O,h,391,1,399.19999999552965,597843.1000000015,7047,WL,A,7.0
4,12.86299991607666,learn,47137.00008392334,Tue Feb 11 2025 10:16:57 GMT-0600 (Central Standard Time),598359.0,A,ha,O,a,96,1,515.8999999985099,597843.1000000015,7047,WL,A,7.0
4,12.94599986076355,learn,47054.00013923645,Tue Feb 11 2025 10:16:57 GMT-0600 (Central Standard Time),598442.6000000015,A,har,O,r,67,1,599.5,597843.1000000015,7047,WL,A,7.0
4,13.145999908447266,learn,46854.000091552734,Tue Feb 11 2025 10:16:57 GMT-0600 (Central Standard Time),598642.5,A,harp,O,p,183,1,799.3999999985099,597843.1000000015,7047,WL,A,7.0
4,13.462999820709229,learn,46537.00017929077,Tue Feb 11 2025 10:16:57 GMT-0600 (Central Standard Time),598959.0,A,harpenter,O,enter,303,1,1115.8999999985099,597843.1000000015,7047,WL,A,7.0
4,14.395999908447266,learn,45604.000091552734,Tue Feb 11 2025 10:16:57 GMT-0600 (Central Standard Time),599891.8999999985,A,s,O,s,923,1,932.6000000014901,598959.299999997,7047,WL,A,8.0
4,14.546000003814697,learn,45453.9999961853,Tue Feb 11 2025 10:16:57 GMT-0600 (Central Standard Time),600041.8999999985,A,sa,O,a,133,1,1082.6000000014901,598959.299999997,7047,WL,A,8.0
4,14.661999940872192,learn,45338.00005912781,Tue Feb 11 2025 10:16:57 GMT-0600 (Central Standard Time),600158.5,A,sal,O,l,96,1,1199.2000000029802,598959.299999997,7047,WL,A,8.0
4,14.861999988555908,learn,45138.00001144409,Tue Feb 11 2025 10:16:57 GMT-0600 (Central Standard Time),600358.3999999985,A,salt,O,t,179,1,1399.1000000014901,598959.299999997,7047,WL,A,8.0
4,15.161999940872192,learn,44838.00005912781,Tue Feb 11 2025 10:16:57 GMT-0600 (Central Standard Time),600658.200000003,A,saltenter,O,enter,292,1,1698.9000000059605,598959.299999997,7047,WL,A,8.0
4,15.394999980926514,learn,44605.000019073486,Tue Feb 11 2025 10:16:57 GMT-0600 (Central Standard Time),600891.6000000015,A,f,O,f,216,1,233.20000000298023,600658.3999999985,7047,WL,A,9.0
4,15.562000036239624,learn,44437.999963760376,Tue Feb 11 2025 10:16:57 GMT-0600 (Central Standard Time),601058.3999999985,A,fi,O,i,150,1,400.0,600658.3999999985,7047,WL,A,9.0
4,15.745999813079834,learn,44254.000186920166,Tue Feb 11 2025 10:16:57 GMT-0600 (Central Standard Time),601241.700000003,A,fin,O,n,160,1,583.3000000044703,600658.3999999985,7047,WL,A,9.0
4,15.828999996185303,learn,44171.0000038147,Tue Feb 11 2025 10:16:57 GMT-0600 (Central Standard Time),601324.700000003,A,fing,O,g,72,1,666.3000000044703,600658.3999999985,7047,WL,A,9.0
4,15.961999893188477,learn,44038.00010681152,Tue Feb 11 2025 10:16:57 GMT-0600 (Central Standard Time),601458.0,A,finge,O,e,117,1,799.6000000014901,600658.3999999985,7047,WL,A,9.0
4,16.044999837875366,learn,43955.000162124634,Tue Feb 11 2025 10:16:57 GMT-0600 (Central Standard Time),601541.1000000015,A,finger,O,r,72,1,882.7000000029802,600658.3999999985,7047,WL,A,9.0
4,16.26199984550476,learn,43738.00015449524,Tue Feb 11 2025 10:16:57 GMT-0600 (Central Standard Time),601757.799999997,A,fingerenter,O,enter,204,1,1099.3999999985099,600658.3999999985,7047,WL,A,9.0
4,18.26099991798401,learn,41739.00008201599,Tue Feb 11 2025 10:16:57 GMT-0600 (Central Standard Time),603757.299999997,A,g,O,g,1981,1,1999.2999999970198,601758.0,7047,WL,A,10.0
4,18.34500002861023,learn,41654.99997138977,Tue Feb 11 2025 10:16:57 GMT-0600 (Central Standard Time),603840.8999999985,A,go,O,o,69,1,2082.89999999851,601758.0,7047,WL,A,10.0
4,18.527999877929688,learn,41472.00012207031,Tue Feb 11 2025 10:16:57 GMT-0600 (Central Standard Time),604024.0,A,gol,O,l,161,1,2266.0,601758.0,7047,WL,A,10.0
4,18.610999822616577,learn,41389.00017738342,Tue Feb 11 2025 10:16:57 GMT-0600 (Central Standard Time),604107.299999997,A,gold,O,d,74,1,2349.2999999970198,601758.0,7047,WL,A,10.0
4,18.893999814987183,learn,41106.00018501282,Tue Feb 11 2025 10:16:57 GMT-0600 (Central Standard Time),604390.3999999985,A,goldenter,O,enter,263,1,2632.39999999851,601758.0,7047,WL,A,10.0
4,19.460999965667725,learn,40539.000034332275,Tue Feb 11 2025 10:16:57 GMT-0600 (Central Standard Time),604957.1000000015,A,a,O,a,548,1,566.3000000044703,604390.799999997,7047,WL,A,11.0
4,19.57699990272522,learn,40423.00009727478,Tue Feb 11 2025 10:16:57 GMT-0600 (Central Standard Time),605073.6000000015,A,ap,O,p,100,1,682.8000000044703,604390.799999997,7047,WL,A,11.0
4,19.74399995803833,learn,40256.00004196167,Tue Feb 11 2025 10:16:57 GMT-0600 (Central Standard Time),605240.6000000015,A,app,O,p,144,1,849.8000000044703,604390.799999997,7047,WL,A,11.0
4,19.926999807357788,learn,40073.00019264221,Tue Feb 11 2025 10:16:57 GMT-0600 (Central Standard Time),605423.3999999985,A,appl,O,l,169,1,1032.6000000014901,604390.799999997,7047,WL,A,11.0
4,20.043999910354614,learn,39956.000089645386,Tue Feb 11 2025 10:16:57 GMT-0600 (Central Standard Time),605540.200000003,A,apple,O,e,107,1,1149.4000000059605,604390.799999997,7047,WL,A,11.0
4,20.22699999809265,learn,39773.00000190735,Tue Feb 11 2025 10:16:57 GMT-0600 (Central Standard Time),605723.299999997,A,appleenter,O,enter,165,1,1332.5,604390.799999997,7047,WL,A,11.0
4,20.80999994277954,learn,39190.00005722046,Tue Feb 11 2025 10:16:57 GMT-0600 (Central Standard Time),606306.299999997,A,c,O,c,575,1,582.6999999955297,605723.6000000015,7047,WL,A,12.0
4,20.876999855041504,learn,39123.000144958496,Tue Feb 11 2025 10:16:57 GMT-0600 (Central Standard Time),606373.1000000015,A,ch,O,h,56,1,649.5,605723.6000000015,7047,WL,A,12.0
4,20.99399995803833,learn,39006.00004196167,Tue Feb 11 2025 10:16:57 GMT-0600 (Central Standard Time),606490.0,A,chi,O,i,100,1,766.3999999985099,605723.6000000015,7047,WL,A,12.0
4,21.15999984741211,learn,38840.00015258789,Tue Feb 11 2025 10:16:57 GMT-0600 (Central Standard Time),606656.6000000015,A,chim,O,m,143,1,933.0,605723.6000000015,7047,WL,A,12.0
4,21.376999855041504,learn,38623.000144958496,Tue Feb 11 2025 10:16:57 GMT-0600 (Central Standard Time),606873.1000000015,A,chimn,O,n,193,1,1149.5,605723.6000000015,7047,WL,A,12.0
4,21.49399995803833,learn,38506.00004196167,Tue Feb 11 2025 10:16:57 GMT-0600 (Central Standard Time),606989.799999997,A,chimne,O,e,105,1,1266.1999999955297,605723.6000000015,7047,WL,A,12.0
4,21.759999990463257,learn,38240.00000953674,Tue Feb 11 2025 10:16:57 GMT-0600 (Central Standard Time),607256.1000000015,A,chimney,O,y,244,1,1532.5,605723.6000000015,7047,WL,A,12.0
4,22.05999994277954,learn,37940.00005722046,Tue Feb 11 2025 10:16:57 GMT-0600 (Central Standard Time),607556.1000000015,A,chimneyenter,O,enter,291,1,1832.5,605723.6000000015,7047,WL,A,12.0
4,23.092999935150146,learn,36907.00006484985,Tue Feb 11 2025 10:16:57 GMT-0600 (Central Standard Time),608589.3999999985,A,b,O,b,1014,1,1033.0,607556.3999999985,7047,WL,A,13.0
4,23.375999927520752,learn,36624.00007247925,Tue Feb 11 2025 10:16:57 GMT-0600 (Central Standard Time),608872.299999997,A,bu,O,u,268,1,1315.8999999985099,607556.3999999985,7047,WL,A,13.0
4,23.575999975204468,learn,36424.00002479553,Tue Feb 11 2025 10:16:57 GMT-0600 (Central Standard Time),609072.299999997,A,but,O,t,185,1,1515.8999999985099,607556.3999999985,7047,WL,A,13.0
4,24.042999982833862,learn,35957.00001716614,Tue Feb 11 2025 10:16:57 GMT-0600 (Central Standard Time),609539.0,A,butt,O,t,458,1,1982.6000000014901,607556.3999999985,7047,WL,A,13.0
4,24.176999807357788,learn,35823.00019264221,Tue Feb 11 2025 10:16:57 GMT-0600 (Central Standard Time),609673.299999997,A,butto,O,o,111,1,2116.89999999851,607556.3999999985,7047,WL,A,13.0
4,24.408999919891357,learn,35591.00008010864,Tue Feb 11 2025 10:16:57 GMT-0600 (Central Standard Time),609905.299999997,A,button,O,n,217,1,2348.89999999851,607556.3999999985,7047,WL,A,13.0
4,24.908999919891357,learn,35091.00008010864,Tue Feb 11 2025 10:16:57 GMT-0600 (Central Standard Time),610405.200000003,A,buttonenter,O,enter,481,1,2848.8000000044703,607556.3999999985,7047,WL,A,13.0
4,26.05900001525879,learn,33940.99998474121,Tue Feb 11 2025 10:16:57 GMT-0600 (Central Standard Time),611555.1000000015,A,s,O,s,1133,1,1149.6000000014901,610405.5,7047,WL,A,14.0
4,26.29199981689453,learn,33708.00018310547,Tue Feb 11 2025 10:16:57 GMT-0600 (Central Standard Time),611788.200000003,A,sa,O,a,215,1,1382.7000000029802,610405.5,7047,WL,A,14.0
4,26.691999912261963,learn,33308.00008773804,Tue Feb 11 2025 10:16:57 GMT-0600 (Central Standard Time),612188.0,A,sal,O,l,390,1,1782.5,610405.5,7047,WL,A,14.0
4,26.924999952316284,learn,33075.000047683716,Tue Feb 11 2025 10:16:57 GMT-0600 (Central Standard Time),612421.3999999985,A,salt,O,t,214,1,2015.8999999985099,610405.5,7047,WL,A,14.0
4,27.14199995994568,learn,32858.00004005432,Tue Feb 11 2025 10:16:57 GMT-0600 (Central Standard Time),612638.0,A,saltenter,O,enter,204,1,2232.5,610405.5,7047,WL,A,14.0
4,30.840999841690063,learn,29159.000158309937,Tue Feb 11 2025 10:16:57 GMT-0600 (Central Standard Time),616336.799999997,A,l,O,l,3676,1,3698.39999999851,612638.3999999985,7047,WL,A,15.0
4,30.957000017166138,learn,29042.999982833862,Tue Feb 11 2025 10:16:57 GMT-0600 (Central Standard Time),616453.5,A,lo,O,o,105,1,3815.10000000149,612638.3999999985,7047,WL,A,15.0
4,31.18999981880188,learn,28810.00018119812,Tue Feb 11 2025 10:16:57 GMT-0600 (Central Standard Time),616686.6000000015,A,log,O,g,212,1,4048.2000000029802,612638.3999999985,7047,WL,A,15.0
4,31.43999981880188,learn,28560.00018119812,Tue Feb 11 2025 10:16:57 GMT-0600 (Central Standard Time),616936.6000000015,A,logenter,O,enter,228,1,4298.20000000298,612638.3999999985,7047,WL,A,15.0
5,0.6830000877380371,learn,60000.0,Tue Feb 11 2025 10:16:57 GMT-0600 (Central Standard Time),686931.5,A,k,O,k,674,1,683.2999999970198,686248.200000003,7047,WL,A,1.0
5,0.8330001831054688,learn,60000.0,Tue Feb 11 2025 10:16:57 GMT-0600 (Central Standard Time),687081.700000003,A,ke,O,e,142,1,833.5,686248.200000003,7047,WL,A,1.0
5,1.5830001831054688,learn,60000.0,Tue Feb 11 2025 10:16:57 GMT-0600 (Central Standard Time),687831.1000000015,A,key,O,y,728,1,1582.8999999985099,686248.200000003,7047,WL,A,1.0
5,1.883000135421753,learn,60000.0,Tue Feb 11 2025 10:16:57 GMT-0600 (Central Standard Time),688130.8999999985,A,keyenter,O,enter,283,1,1882.6999999955297,686248.200000003,7047,WL,A,1.0
5,2.2829999923706055,learn,60000.0,Tue Feb 11 2025 10:16:57 GMT-0600 (Central Standard Time),688530.8999999985,A,r,O,r,391,1,399.69999999552965,688131.200000003,7047,WL,A,2.0
5,2.4660000801086426,learn,60000.0,Tue Feb 11 2025 10:16:57 GMT-0600 (Central Standard Time),688714.0,A,ra,O,a,167,1,582.7999999970198,688131.200000003,7047,WL,A,2.0
5,2.5989999771118164,learn,60000.0,Tue Feb 11 2025 10:16:57 GMT-0600 (Central Standard Time),688847.3999999985,A,rat,O,t,112,1,716.1999999955297,688131.200000003,7047,WL,A,2.0
5,2.749000072479248,learn,60000.0,Tue Feb 11 2025 10:16:57 GMT-0600 (Central Standard Time),688997.200000003,A,ratt,O,t,130,1,866.0,688131.200000003,7047,WL,A,2.0
5,2.881999969482422,learn,60000.0,Tue Feb 11 2025 10:16:57 GMT-0600 (Central Standard Time),689130.700000003,A,rattl,O,l,116,1,999.5,688131.200000003,7047,WL,A,2.0
5,2.9820001125335693,learn,60000.0,Tue Feb 11 2025 10:16:57 GMT-0600 (Central Standard Time),689230.6000000015,A,rattle,O,e,79,1,1099.3999999985099,688131.200000003,7047,WL,A,2.0
5,3.2160000801086426,learn,60000.0,Tue Feb 11 2025 10:16:57 GMT-0600 (Central Standard Time),689463.8999999985,A,rattleenter,O,enter,219,1,1332.6999999955297,688131.200000003,7047,WL,A,2.0
5,3.8320000171661377,learn,60000.0,Tue Feb 11 2025 10:16:57 GMT-0600 (Central Standard Time),690080.299999997,A,g,O,g,602,1,616.0999999940395,689464.200000003,7047,WL,A,3.0
5,3.932000160217285,learn,60000.0,Tue Feb 11 2025 10:16:57 GMT-0600 (Central Standard Time),690180.200000003,A,go,O,o,89,1,716.0,689464.200000003,7047,WL,A,3.0
5,4.116000175476074,learn,60000.0,Tue Feb 11 2025 10:16:57 GMT-0600 (Central Standard Time),690364.799999997,A,gol,O,l,173,1,900.5999999940395,689464.200000003,7047,WL,A,3.0
5,4.265000104904175,learn,60000.0,Tue Feb 11 2025 10:16:57 GMT-0600 (Central Standard Time),690513.6000000015,A,gold,O,d,126,1,1049.3999999985099,689464.200000003,7047,WL,A,3.0
5,4.5320000648498535,learn,60000.0,Tue Feb 11 2025 10:16:57 GMT-0600 (Central Standard Time),690780.200000003,A,goldenter,O,enter,256,1,1316.0,689464.200000003,7047,WL,A,3.0
5,4.865000009536743,learn,60000.0,Tue Feb 11 2025 10:16:57 GMT-0600 (Central Standard Time),691113.5,A,b,O,b,325,1,332.8999999985099,690780.6000000015,7047,WL,A,4.0
5,4.965000152587891,learn,60000.0,Tue Feb 11 2025 10:16:57 GMT-0600 (Central Standard Time),691213.1000000015,A,bo,O,o,87,1,432.5,690780.6000000015,7047,WL,A,4.0
5,5.115000009536743,learn,60000.0,Tue Feb 11 2025 10:16:57 GMT-0600 (Central Standard Time),691363.200000003,A,boo,O,o,140,1,582.6000000014901,690780.6000000015,7047,WL,A,4.0
5,5.365000009536743,learn,60000.0,Tue Feb 11 2025 10:16:57 GMT-0600 (Central Standard Time),691613.200000003,A,book,O,k,230,1,832.6000000014901,690780.6000000015,7047,WL,A,4.0
5,6.514000177383423,learn,60000.0,Tue Feb 11 2025 10:16:57 GMT-0600 (Central Standard Time),692762.799999997,A,boo,O,backspace,1133,1,1982.1999999955297,690780.6000000015,7047,WL,A,4.0
5,7.197999954223633,learn,60000.0,Tue Feb 11 2025 10:16:57 GMT-0600 (Central Standard Time),693446.0,A,book,O,k,671,1,2665.39999999851,690780.6000000015,7047,WL,A,4.0
5,7.46399998664856,learn,60000.0,Tue Feb 11 2025 10:16:57 GMT-0600 (Central Standard Time),693712.6000000015,A,bookenter,O,enter,252,1,2932.0,690780.6000000015,7047,WL,A,4.0
5,9.664000034332275,learn,60000.0,Tue Feb 11 2025 10:16:57 GMT-0600 (Central Standard Time),695911.8999999985,A,t,O,t,2185,1,2199.10000000149,693712.799999997,7047,WL,A,5.0
5,9.880000114440918,learn,60000.0,Tue Feb 11 2025 10:16:57 GMT-0600 (Central Standard Time),696128.6000000015,A,tr,O,r,202,1,2415.8000000044703,693712.799999997,7047,WL,A,5.0
5,9.996999979019165,learn,60000.0,Tue Feb 11 2025 10:16:57 GMT-0600 (Central Standard Time),696245.200000003,A,tra,O,a,105,1,2532.4000000059605,693712.799999997,7047,WL,A,5.0
5,10.163000106811523,learn,60000.0,Tue Feb 11 2025 10:16:57 GMT-0600 (Central Standard Time),696411.700000003,A,trai,O,i,157,1,2698.9000000059605,693712.799999997,7047,WL,A,5.0
5,10.331000089645386,learn,60000.0,Tue Feb 11 2025 10:16:57 GMT-0600 (Central Standard Time),696579.299999997,A,train,O,n,159,1,2866.5,693712.799999997,7047,WL,A,5.0
5,10.580000162124634,learn,60000.0,Tue Feb 11 2025 10:16:57 GMT-0600 (Central Standard Time),696828.299999997,A,trainenter,O,enter,230,1,3115.5,693712.799999997,7047,WL,A,5.0
5,10.845999956130981,learn,60000.0,Tue Feb 11 2025 10:16:57 GMT-0600 (Central Standard Time),697094.700000003,A,m,O,m,245,1,266.0,696828.700000003,7047,WL,A,6.0
5,10.998000144958496,learn,60000.0,Tue Feb 11 2025 10:16:57 GMT-0600 (Central Standard Time),697245.799999997,A,me,O,e,132,1,417.09999999403954,696828.700000003,7047,WL,A,6.0
5,11.130000114440918,learn,60000.0,Tue Feb 11 2025 10:16:57 GMT-0600 (Central Standard Time),697378.200000003,A,mea,O,a,116,1,549.5,696828.700000003,7047,WL,A,6.0
5,11.562999963760376,learn,60000.0,Tue Feb 11 2025 10:16:57 GMT-0600 (Central Standard Time),697811.200000003,A,mead,O,d,424,1,982.5,696828.700000003,7047,WL,A,6.0
5,11.713000059127808,learn,60000.0,Tue Feb 11 2025 10:16:57 GMT-0600 (Central Standard Time),697961.1000000015,A,meado,O,o,127,1,1132.3999999985099,696828.700000003,7047,WL,A,6.0
5,11.845999956130981,learn,60000.0,Tue Feb 11 2025 10:16:57 GMT-0600 (Central Standard Time),698094.5,A,meadow,O,w,121,1,1265.7999999970198,696828.700000003,7047,WL,A,6.0
5,12.796000003814697,learn,60000.0,Tue Feb 11 2025 10:16:57 GMT-0600 (Central Standard Time),699044.200000003,A,meadowenter,O,enter,940,1,2215.5,696828.700000003,7047,WL,A,6.0
5,13.279000043869019,learn,60000.0,Tue Feb 11 2025 10:16:57 GMT-0600 (Central Standard Time),699527.299999997,A,r,O,r,462,1,482.79999999701977,699044.5,7047,WL,A,7.0
5,13.496000051498413,learn,60000.0,Tue Feb 11 2025 10:16:57 GMT-0600 (Central Standard Time),699744.200000003,A,ru,O,u,194,1,699.7000000029802,699044.5,7047,WL,A,7.0
5,13.712000131607056,learn,60000.0,Tue Feb 11 2025 10:16:57 GMT-0600 (Central Standard Time),699960.5,A,rug,O,g,201,1,916.0,699044.5,7047,WL,A,7.0
5,13.912000179290771,learn,60000.0,Tue Feb 11 2025 10:16:57 GMT-0600 (Central Standard Time),700160.3999999985,A,rugenter,O,enter,186,1,1115.8999999985099,699044.5,7047,WL,A,7.0
5,16.57800006866455,learn,60000.0,Tue Feb 11 2025 10:16:57 GMT-0600 (Central Standard Time),702826.3999999985,A,l,O,l,2650,1,2665.7999999970198,700160.6000000015,7047,WL,A,8.0
5,16.710999965667725,learn,60000.0,Tue Feb 11 2025 10:16:57 GMT-0600 (Central Standard Time),702959.6000000015,A,lo,O,o,111,1,2799.0,700160.6000000015,7047,WL,A,8.0
5,16.960999965667725,learn,60000.0,Tue Feb 11 2025 10:16:57 GMT-0600 (Central Standard Time),703209.700000003,A,log,O,g,227,1,3049.10000000149,700160.6000000015,7047,WL,A,8.0
5,17.16100001335144,learn,60000.0,Tue Feb 11 2025 10:16:57 GMT-0600 (Central Standard Time),703409.799999997,A,logenter,O,enter,176,1,3249.1999999955297,700160.6000000015,7047,WL,A,8.0
5,17.960999965667725,learn,60000.0,Tue Feb 11 2025 10:16:57 GMT-0600 (Central Standard Time),704209.5,A,c,O,c,776,1,799.5,703410.0,7047,WL,A,9.0
5,18.028000116348267,learn,60000.0,Tue Feb 11 2025 10:16:57 GMT-0600 (Central Standard Time),704275.8999999985,A,ch,O,h,49,1,865.8999999985099,703410.0,7047,WL,A,9.0
5,18.16100001335144,learn,60000.0,Tue Feb 11 2025 10:16:57 GMT-0600 (Central Standard Time),704409.3999999985,A,chi,O,i,110,1,999.3999999985099,703410.0,7047,WL,A,9.0
5,18.311000108718872,learn,60000.0,Tue Feb 11 2025 10:16:57 GMT-0600 (Central Standard Time),704559.200000003,A,chim,O,m,128,1,1149.2000000029802,703410.0,7047,WL,A,9.0
5,18.511000156402588,learn,60000.0,Tue Feb 11 2025 10:16:57 GMT-0600 (Central Standard Time),704759.1000000015,A,chimn,O,n,186,1,1349.1000000014901,703410.0,7047,WL,A,9.0
5,18.677000045776367,learn,60000.0,Tue Feb 11 2025 10:16:57 GMT-0600 (Central Standard Time),704925.700000003,A,chimne,O,e,147,1,1515.7000000029802,703410.0,7047,WL,A,9.0
5,18.960999965667725,learn,60000.0,Tue Feb 11 2025 10:16:57 GMT-0600 (Central Standard Time),705208.8999999985,A,chimney,O,y,268,1,1798.8999999985099,703410.0,7047,WL,A,9.0
5,19.294000148773193,learn,60000.0,Tue Feb 11 2025 10:16:57 GMT-0600 (Central Standard Time),705542.5,A,chimneyenter,O,enter,313,1,2132.5,703410.0,7047,WL,A,9.0
5,19.677000045776367,learn,60000.0,Tue Feb 11 2025 10:16:57 GMT-0600 (Central Standard Time),705925.299999997,A,b,O,b,364,1,382.5,705542.799999997,7047,WL,A,10.0
5,19.81000018119812,learn,60000.0,Tue Feb 11 2025 10:16:57 GMT-0600 (Central Standard Time),706058.700000003,A,bu,O,u,124,1,515.9000000059605,705542.799999997,7047,WL,A,10.0
5,19.99399995803833,learn,60000.0,Tue Feb 11 2025 10:16:57 GMT-0600 (Central Standard Time),706242.0,A,but,O,t,168,1,699.2000000029802,705542.799999997,7047,WL,A,10.0
5,20.111000061035156,learn,60000.0,Tue Feb 11 2025 10:16:57 GMT-0600 (Central Standard Time),706359.700000003,A,butt,O,t,104,1,816.9000000059605,705542.799999997,7047,WL,A,10.0
5,20.24399995803833,learn,60000.0,Tue Feb 11 2025 10:16:57 GMT-0600 (Central Standard Time),706491.8999999985,A,butto,O,o,122,1,949.1000000014901,705542.799999997,7047,WL,A,10.0
5,20.427000045776367,learn,60000.0,Tue Feb 11 2025 10:16:57 GMT-0600 (Central Standard Time),706674.8999999985,A,button,O,n,174,1,1132.1000000014901,705542.799999997,7047,WL,A,10.0
5,20.960000038146973,learn,60000.0,Tue Feb 11 2025 10:16:57 GMT-0600 (Central Standard Time),707208.299999997,A,buttonenter,O,enter,519,1,1665.5,705542.799999997,7047,WL,A,10.0
5,21.89300012588501,learn,60000.0,Tue Feb 11 2025 10:16:57 GMT-0600 (Central Standard Time),708141.299999997,A,s,O,s,914,1,932.5999999940395,707208.700000003,7047,WL,A,11.0
5,22.06000018119812,learn,60000.0,Tue Feb 11 2025 10:16:57 GMT-0600 (Central Standard Time),708307.8999999985,A,sa,O,a,157,1,1099.1999999955297,707208.700000003,7047,WL,A,11.0
5,22.20900011062622,learn,60000.0,Tue Feb 11 2025 10:16:57 GMT-0600 (Central Standard Time),708457.700000003,A,sal,O,l,142,1,1249.0,707208.700000003,7047,WL,A,11.0
5,22.409000158309937,learn,60000.0,Tue Feb 11 2025 10:16:57 GMT-0600 (Central Standard Time),708657.6000000015,A,salt,O,t,192,1,1448.8999999985099,707208.700000003,7047,WL,A,11.0
5,23.042999982833862,learn,60000.0,Tue Feb 11 2025 10:16:57 GMT-0600 (Central Standard Time),709291.1000000015,A,saltenter,O,enter,616,1,2082.39999999851,707208.700000003,7047,WL,A,11.0
5,23.292999982833862,learn,60000.0,Tue Feb 11 2025 10:16:57 GMT-0600 (Central Standard Time),709540.8999999985,A,f,O,f,239,1,249.5,709291.3999999985,7047,WL,A,12.0
5,23.4760000705719,learn,60000.0,Tue Feb 11 2025 10:16:57 GMT-0600 (Central Standard Time),709724.0,A,fi,O,i,165,1,432.6000000014901,709291.3999999985,7047,WL,A,12.0
5,23.64300012588501,learn,60000.0,Tue Feb 11 2025 10:16:57 GMT-0600 (Central Standard Time),709891.0,A,fin,O,n,149,1,599.6000000014901,709291.3999999985,7047,WL,A,12.0
5,23.759999990463257,learn,60000.0,Tue Feb 11 2025 10:16:57 GMT-0600 (Central Standard Time),710008.6000000015,A,fing,O,g,103,1,717.2000000029802,709291.3999999985,7047,WL,A,12.0
5,23.909000158309937,learn,60000.0,Tue Feb 11 2025 10:16:57 GMT-0600 (Central Standard Time),710157.5,A,finge,O,e,130,1,866.1000000014901,709291.3999999985,7047,WL,A,12.0
5,23.97699999809265,learn,60000.0,Tue Feb 11 2025 10:16:57 GMT-0600 (Central Standard Time),710225.200000003,A,finger,O,r,60,1,933.8000000044703,709291.3999999985,7047,WL,A,12.0
5,24.409000158309937,learn,60000.0,Tue Feb 11 2025 10:16:57 GMT-0600 (Central Standard Time),710657.299999997,A,fingerenter,O,enter,410,1,1365.8999999985099,709291.3999999985,7047,WL,A,12.0
5,24.95800018310547,learn,60000.0,Tue Feb 11 2025 10:16:57 GMT-0600 (Central Standard Time),711206.799999997,A,l,O,l,529,1,549.0999999940395,710657.700000003,7047,WL,A,13.0
5,25.27500009536743,learn,60000.0,Tue Feb 11 2025 10:16:57 GMT-0600 (Central Standard Time),711523.700000003,A,lo,O,o,299,1,866.0,710657.700000003,7047,WL,A,13.0
5,25.442000150680542,learn,60000.0,Tue Feb 11 2025 10:16:57 GMT-0600 (Central Standard Time),711690.3999999985,A,log,O,g,150,1,1032.6999999955297,710657.700000003,7047,WL,A,13.0
5,25.608999967575073,learn,60000.0,Tue Feb 11 2025 10:16:57 GMT-0600 (Central Standard Time),711857.0,A,logenter,O,enter,143,1,1199.2999999970198,710657.700000003,7047,WL,A,13.0
5,29.256999969482422,learn,60000.0,Tue Feb 11 2025 10:16:57 GMT-0600 (Central Standard Time),715505.5,A,g,O,g,3641,1,3648.2000000029802,711857.299999997,7047,WL,A,14.0
5,29.341000080108643,learn,60000.0,Tue Feb 11 2025 10:16:57 GMT-0600 (Central Standard Time),715589.200000003,A,go,O,o,72,1,3731.9000000059605,711857.299999997,7047,WL,A,14.0
5,29.539999961853027,learn,60000.0,Tue Feb 11 2025 10:16:57 GMT-0600 (Central Standard Time),715788.8999999985,A,gol,O,l,189,1,3931.60000000149,711857.299999997,7047,WL,A,14.0
5,29.657000064849854,learn,60000.0,Tue Feb 11 2025 10:16:57 GMT-0600 (Central Standard Time),715905.700000003,A,gold,O,d,94,1,4048.4000000059605,711857.299999997,7047,WL,A,14.0
5,29.85700011253357,learn,60000.0,Tue Feb 11 2025 10:16:57 GMT-0600 (Central Standard Time),716105.3999999985,A,goldenter,O,enter,184,1,4248.10000000149,711857.299999997,7047,WL,A,14.0
5,35.789000034332275,learn,60000.0,Tue Feb 11 2025 10:16:57 GMT-0600 (Central Standard Time),722037.1000000015,A,b,O,b,5913,1,5931.30000000447,716105.799999997,7047,WL,A,15.0
5,35.92200016975403,learn,60000.0,Tue Feb 11 2025 10:16:57 GMT-0600 (Central Standard Time),722170.0,A,bu,O,u,125,1,6064.20000000298,716105.799999997,7047,WL,A,15.0
5,36.12100005149841,learn,60000.0,Tue Feb 11 2025 10:16:57 GMT-0600 (Central Standard Time),722370.0,A,but,O,t,192,1,6264.20000000298,716105.799999997,7047,WL,A,15.0
5,36.28800010681152,learn,60000.0,Tue Feb 11 2025 10:16:57 GMT-0600 (Central Standard Time),722536.8999999985,A,butt,O,t,152,1,6431.10000000149,716105.799999997,7047,WL,A,15.0
5,36.355000019073486,learn,60000.0,Tue Feb 11 2025 10:16:57 GMT-0600 (Central Standard Time),722603.6000000015,A,butto,O,o,57,1,6497.80000000447,716105.799999997,7047,WL,A,15.0
5,36.57200002670288,learn,60000.0,Tue Feb 11 2025 10:16:57 GMT-0600 (Central Standard Time),722820.1000000015,A,button,O,n,198,1,6714.30000000447,716105.799999997,7047,WL,A,15.0
5,37.1710000038147,learn,60000.0,Tue Feb 11 2025 10:16:57 GMT-0600 (Central Standard Time),723419.8999999985,A,buttonenter,O,enter,582,1,7314.10000000149,716105.799999997,7047,WL,A,15.0
6,1.0999999046325684,distr,58900.00009536743,Tue Feb 11 2025 10:16:57 GMT-0600 (Central Standard Time),812758.700000003,B,g,O,g,1087,1,1099.5,811659.200000003,7047,WL,A,1.0
6,1.316999912261963,distr,58683.00008773804,Tue Feb 11 2025 10:16:57 GMT-0600 (Central Standard Time),812975.1000000015,B,gr,O,r,203,1,1315.8999999985099,811659.200000003,7047,WL,A,1.0
6,1.4499998092651367,distr,58550.00019073486,Tue Feb 11 2025 10:16:57 GMT-0600 (Central Standard Time),813108.3999999985,B,gra,O,a,115,1,1449.1999999955297,811659.200000003,7047,WL,A,1.0
6,1.5999999046325684,distr,58400.00009536743,Tue Feb 11 2025 10:16:57 GMT-0600 (Central Standard Time),813258.299999997,B,gran,O,n,141,1,1599.0999999940395,811659.200000003,7047,WL,A,1.0
6,1.7839999198913574,distr,58216.00008010864,Tue Feb 11 2025 10:16:57 GMT-0600 (Central Standard Time),813442.6000000015,B,grant,O,t,168,1,1783.3999999985099,811659.200000003,7047,WL,A,1.0
6,2.0829999446868896,distr,57917.00005531311,Tue Feb 11 2025 10:16:57 GMT-0600 (Central Standard Time),813741.700000003,B,grantenter,O,enter,279,1,2082.5,811659.200000003,7047,WL,A,1.0
6,2.6009998321533203,distr,57399.00016784668,Tue Feb 11 2025 10:16:57 GMT-0600 (Central Standard Time),814259.299999997,B,j,O,j,508,1,517.1999999955297,813742.1000000015,7047,WL,A,2.0
6,2.7829999923706055,distr,57217.000007629395,Tue Feb 11 2025 10:16:57 GMT-0600 (Central Standard Time),814441.3999999985,B,ju,O,u,167,1,699.2999999970198,813742.1000000015,7047,WL,A,2.0
6,2.982999801635742,distr,57017.00019836426,Tue Feb 11 2025 10:16:57 GMT-0600 (Central Standard Time),814641.1000000015,B,jud,O,d,177,1,899.0,813742.1000000015,7047,WL,A,2.0
6,3.232999801635742,distr,56767.00019836426,Tue Feb 11 2025 10:16:57 GMT-0600 (Central Standard Time),814891.299999997,B,judg,O,g,232,1,1149.1999999955297,813742.1000000015,7047,WL,A,2.0
6,3.4489998817443848,distr,56551.000118255615,Tue Feb 11 2025 10:16:57 GMT-0600 (Central Standard Time),815108.0,B,judge,O,e,199,1,1365.8999999985099,813742.1000000015,7047,WL,A,2.0
6,3.7159998416900635,distr,56284.00015830994,Tue Feb 11 2025 10:16:57 GMT-0600 (Central Standard Time),815374.3999999985,B,judgeenter,O,enter,246,1,1632.2999999970198,813742.1000000015,7047,WL,A,2.0
6,3.998999834060669,distr,56001.00016593933,Tue Feb 11 2025 10:16:57 GMT-0600 (Central Standard Time),815657.799999997,B,d,O,d,259,1,283.09999999403954,815374.700000003,7047,WL,A,3.0
6,4.148999929428101,distr,55851.0000705719,Tue Feb 11 2025 10:16:57 GMT-0600 (Central Standard Time),815807.6000000015,B,da,O,a,128,1,432.8999999985099,815374.700000003,7047,WL,A,3.0
6,4.398999929428101,distr,55601.0000705719,Tue Feb 11 2025 10:16:57 GMT-0600 (Central Standard Time),816057.6000000015,B,dan,O,n,234,1,682.8999999985099,815374.700000003,7047,WL,A,3.0
6,4.616999864578247,distr,55383.00013542175,Tue Feb 11 2025 10:16:57 GMT-0600 (Central Standard Time),816275.299999997,B,danw,O,w,208,1,900.5999999940395,815374.700000003,7047,WL,A,3.0
6,4.998999834060669,distr,55001.00016593933,Tue Feb 11 2025 10:16:57 GMT-0600 (Central Standard Time),816657.6000000015,B,dan,O,backspace,358,1,1282.8999999985099,815374.700000003,7047,WL,A,3.0
6,5.131999969482422,distr,54868.00003051758,Tue Feb 11 2025 10:16:57 GMT-0600 (Central Standard Time),816790.6000000015,B,da,O,backspace,112,1,1415.8999999985099,815374.700000003,7047,WL,A,3.0
6,5.23199987411499,distr,54768.00012588501,Tue Feb 11 2025 10:16:57 GMT-0600 (Central Standard Time),816890.700000003,B,daw,O,w,91,1,1516.0,815374.700000003,7047,WL,A,3.0
6,5.414999961853027,distr,54585.00003814697,Tue Feb 11 2025 10:16:57 GMT-0600 (Central Standard Time),817074.0,B,dawn,O,n,167,1,1699.2999999970198,815374.700000003,7047,WL,A,3.0
6,5.81499981880188,distr,54185.00018119812,Tue Feb 11 2025 10:16:57 GMT-0600 (Central Standard Time),817473.799999997,B,dawnenter,O,enter,376,1,2099.0999999940395,815374.700000003,7047,WL,A,3.0
6,7.06499981880188,distr,52935.00018119812,Tue Feb 11 2025 10:16:57 GMT-0600 (Central Standard Time),818723.5,B,b,O,b,1241,1,1249.3999999985099,817474.1000000015,7047,WL,A,4.0
6,7.2149999141693115,distr,52785.00008583069,Tue Feb 11 2025 10:16:57 GMT-0600 (Central Standard Time),818873.200000003,B,bu,O,u,134,1,1399.1000000014901,817474.1000000015,7047,WL,A,4.0
6,8.107999801635742,distr,51892.00019836426,Tue Feb 11 2025 10:16:57 GMT-0600 (Central Standard Time),819766.200000003,B,but,O,t,739,1,2292.10000000149,817474.1000000015,7047,WL,A,4.0
6,8.413999795913696,distr,51586.000204086304,Tue Feb 11 2025 10:16:57 GMT-0600 (Central Standard Time),820073.0,B,butt,O,t,292,1,2598.89999999851,817474.1000000015,7047,WL,A,4.0
6,8.697999954223633,distr,51302.00004577637,Tue Feb 11 2025 10:16:57 GMT-0600 (Central Standard Time),820356.1000000015,B,butto,O,o,265,1,2882.0,817474.1000000015,7047,WL,A,4.0
6,8.863999843597412,distr,51136.00015640259,Tue Feb 11 2025 10:16:57 GMT-0600 (Central Standard Time),820522.799999997,B,button,O,n,150,1,3048.6999999955297,817474.1000000015,7047,WL,A,4.0
6,9.13099980354309,distr,50869.00019645691,Tue Feb 11 2025 10:16:57 GMT-0600 (Central Standard Time),820789.700000003,B,buttonenter,O,enter,247,1,3315.60000000149,817474.1000000015,7047,WL,A,4.0
6,11.246999979019165,distr,48753.000020980835,Tue Feb 11 2025 10:16:57 GMT-0600 (Central Standard Time),822905.5,B,s,O,s,2094,1,2115.5,820790.0,7047,WL,A,5.0
6,11.429999828338623,distr,48570.00017166138,Tue Feb 11 2025 10:16:57 GMT-0600 (Central Standard Time),823088.700000003,B,sh,O,h,168,1,2298.7000000029802,820790.0,7047,WL,A,5.0
6,11.69700002670288,distr,48302.99997329712,Tue Feb 11 2025 10:16:57 GMT-0600 (Central Standard Time),823355.200000003,B,she,O,e,250,1,2565.2000000029802,820790.0,7047,WL,A,5.0
6,11.879999876022339,distr,48120.00012397766,Tue Feb 11 2025 10:16:57 GMT-0600 (Central Standard Time),823538.5,B,shee,O,e,167,1,2748.5,820790.0,7047,WL,A,5.0
6,12.062999963760376,distr,47937.000036239624,Tue Feb 11 2025 10:16:57 GMT-0600 (Central Standard Time),823721.8999999985,B,sheep,O,p,168,1,2931.89999999851,820790.0,7047,WL,A,5.0
6,12.396999835968018,distr,47603.00016403198,Tue Feb 11 2025 10:16:57 GMT-0600 (Central Standard Time),824055.200000003,B,sheepenter,O,enter,312,1,3265.2000000029802,820790.0,7047,WL,A,5.0
6,12.86299991607666,distr,47137.00008392334,Tue Feb 11 2025 10:16:57 GMT-0600 (Central Standard Time),824521.5,B,s,O,s,451,1,466.0,824055.5,7047,WL,A,6.0
6,13.080999851226807,distr,46919.00014877319,Tue Feb 11 2025 10:16:57 GMT-0600 (Central Standard Time),824739.3999999985,B,se,O,e,201,1,683.8999999985099,824055.5,7047,WL,A,6.0
6,13.263000011444092,distr,46736.99998855591,Tue Feb 11 2025 10:16:57 GMT-0600 (Central Standard Time),824921.3999999985,B,see,O,e,166,1,865.8999999985099,824055.5,7047,WL,A,6.0
6,13.52899980545044,distr,46471.00019454956,Tue Feb 11 2025 10:16:57 GMT-0600 (Central Standard Time),825187.8999999985,B,seen,O,n,257,1,1132.3999999985099,824055.5,7047,WL,A,6.0
6,13.928999900817871,distr,46071.00009918213,Tue Feb 11 2025 10:16:57 GMT-0600 (Central Standard Time),825588.0,B,seenenter,O,enter,381,1,1532.5,824055.5,7047,WL,A,6.0
6,15.944999933242798,distr,44055.0000667572,Tue Feb 11 2025 10:16:57 GMT-0600 (Central Standard Time),827604.0,B,c,O,c,2006,1,2015.7999999970198,825588.200000003,7047,WL,A,7.0
6,16.061999797821045,distr,43938.000202178955,Tue Feb 11 2025 10:16:57 GMT-0600 (Central Standard Time),827720.6000000015,B,co,O,o,94,1,2132.39999999851,825588.200000003,7047,WL,A,7.0
6,16.144999980926514,distr,43855.000019073486,Tue Feb 11 2025 10:16:57 GMT-0600 (Central Standard Time),827803.700000003,B,cou,O,u,66,1,2215.5,825588.200000003,7047,WL,A,7.0
6,16.34599995613098,distr,43654.00004386902,Tue Feb 11 2025 10:16:57 GMT-0600 (Central Standard Time),828004.200000003,B,coun,O,n,191,1,2416.0,825588.200000003,7047,WL,A,7.0
6,16.444999933242798,distr,43555.0000667572,Tue Feb 11 2025 10:16:57 GMT-0600 (Central Standard Time),828103.799999997,B,count,O,t,86,1,2515.5999999940395,825588.200000003,7047,WL,A,7.0
6,16.694999933242798,distr,43305.0000667572,Tue Feb 11 2025 10:16:57 GMT-0600 (Central Standard Time),828353.5,B,county,O,y,242,1,2765.2999999970198,825588.200000003,7047,WL,A,7.0
6,17.07799983024597,distr,42922.00016975403,Tue Feb 11 2025 10:16:57 GMT-0600 (Central Standard Time),828737.1000000015,B,countyenter,O,enter,369,1,3148.89999999851,825588.200000003,7047,WL,A,7.0
6,20.32699990272522,distr,39673.00009727478,Tue Feb 11 2025 10:16:57 GMT-0600 (Central Standard Time),831986.1000000015,B,b,O,b,3225,1,3248.8000000044703,828737.299999997,7047,WL,A,8.0
6,20.393999814987183,distr,39606.00018501282,Tue Feb 11 2025 10:16:57 GMT-0600 (Central Standard Time),832052.700000003,B,bo,O,o,48,1,3315.4000000059605,828737.299999997,7047,WL,A,8.0
6,20.560999870300293,distr,39439.00012969971,Tue Feb 11 2025 10:16:57 GMT-0600 (Central Standard Time),832219.1000000015,B,bot,O,t,149,1,3481.8000000044703,828737.299999997,7047,WL,A,8.0
6,20.72699999809265,distr,39273.00000190735,Tue Feb 11 2025 10:16:57 GMT-0600 (Central Standard Time),832386.0,B,bott,O,t,151,1,3648.7000000029802,828737.299999997,7047,WL,A,8.0
6,20.82699990272522,distr,39173.00009727478,Tue Feb 11 2025 10:16:57 GMT-0600 (Central Standard Time),832485.799999997,B,bottl,O,l,80,1,3748.5,828737.299999997,7047,WL,A,8.0
6,20.960999965667725,distr,39039.000034332275,Tue Feb 11 2025 10:16:57 GMT-0600 (Central Standard Time),832619.1000000015,B,bottle,O,e,124,1,3881.8000000044703,828737.299999997,7047,WL,A,8.0
6,21.30999994277954,distr,38690.00005722046,Tue Feb 11 2025 10:16:57 GMT-0600 (Central Standard Time),832969.0,B,bottleenter,O,enter,335,1,4231.70000000298,828737.299999997,7047,WL,A,8.0
6,42.53699994087219,distr,17463.000059127808,Tue Feb 11 2025 10:16:57 GMT-0600 (Central Standard Time),854196.799999997,B,i,O,i,21210,1,21227.5,832969.299999997,7047,WL,A,9.0
6,42.68599987030029,distr,17314.000129699707,Tue Feb 11 2025 10:16:57 GMT-0600 (Central Standard Time),854345.5,B,in,O,n,125,1,21376.20000000298,832969.299999997,7047,WL,A,9.0
6,42.88599991798401,distr,17114.00008201599,Tue Feb 11 2025 10:16:57 GMT-0600 (Central Standard Time),854545.3999999985,B,ins,O,s,184,1,21576.10000000149,832969.299999997,7047,WL,A,9.0
6,43.23599982261658,distr,16764.000177383423,Tue Feb 11 2025 10:16:57 GMT-0600 (Central Standard Time),854895.5,B,inse,O,e,329,1,21926.20000000298,832969.299999997,7047,WL,A,9.0
6,43.51899981498718,distr,16481.000185012817,Tue Feb 11 2025 10:16:57 GMT-0600 (Central Standard Time),855178.6000000015,B,insec,O,c,267,1,22209.30000000447,832969.299999997,7047,WL,A,9.0
6,43.668999910354614,distr,16331.000089645386,Tue Feb 11 2025 10:16:57 GMT-0600 (Central Standard Time),855328.5,B,insect,O,t,127,1,22359.20000000298,832969.299999997,7047,WL,A,9.0
6,44.584999799728394,distr,15415.000200271606,Tue Feb 11 2025 10:16:57 GMT-0600 (Central Standard Time),856244.799999997,B,insectenter,O,enter,898,1,23275.5,832969.299999997,7047,WL,A,9.0
6,60.013999938964844,distr,-13.99993896484375,Tue Feb 11 2025 10:16:57 GMT-0600 (Central Standard Time),871673.5,B,None,O,None,15421,1,15428.5,856245.0,7047,WL,A,10.0
7,0.682999849319458,immed,59317.00015068054,Tue Feb 11 2025 10:16:57 GMT-0600 (Central Standard Time),896499.1000000015,A,m,O,m,674,1,682.5,895816.6000000015,7047,WL,A,1.0
7,0.8499999046325684,immed,59150.00009536743,Tue Feb 11 2025 10:16:57 GMT-0600 (Central Standard Time),896665.6000000015,A,me,O,e,159,1,849.0,895816.6000000015,7047,WL,A,1.0
7,1.0160000324249268,immed,58983.99996757507,Tue Feb 11 2025 10:16:57 GMT-0600 (Central Standard Time),896832.299999997,A,mea,O,a,145,1,1015.6999999955297,895816.6000000015,7047,WL,A,1.0
7,1.2330000400543213,immed,58766.99995994568,Tue Feb 11 2025 10:16:57 GMT-0600 (Central Standard Time),897048.799999997,A,mead,O,d,193,1,1232.1999999955297,895816.6000000015,7047,WL,A,1.0
7,1.4659998416900635,immed,58534.00015830994,Tue Feb 11 2025 10:16:57 GMT-0600 (Central Standard Time),897282.0,A,meado,O,o,217,1,1465.3999999985099,895816.6000000015,7047,WL,A,1.0
7,1.682999849319458,immed,58317.00015068054,Tue Feb 11 2025 10:16:57 GMT-0600 (Central Standard Time),897498.6000000015,A,meadow,O,w,207,1,1682.0,895816.6000000015,7047,WL,A,1.0
7,2.2330000400543213,immed,57766.99995994568,Tue Feb 11 2025 10:16:57 GMT-0600 (Central Standard Time),898048.5,A,meadowenter,O,enter,527,1,2231.89999999851,895816.6000000015,7047,WL,A,1.0
7,2.5820000171661377,immed,57417.99998283386,Tue Feb 11 2025 10:16:57 GMT-0600 (Central Standard Time),898398.299999997,A,t,O,t,338,1,349.5,898048.799999997,7047,WL,A,2.0
7,2.7660000324249268,immed,57233.99996757507,Tue Feb 11 2025 10:16:57 GMT-0600 (Central Standard Time),898581.700000003,A,tr,O,r,172,1,532.9000000059605,898048.799999997,7047,WL,A,2.0
7,2.881999969482422,immed,57118.00003051758,Tue Feb 11 2025 10:16:57 GMT-0600 (Central Standard Time),898698.200000003,A,tra,O,a,108,1,649.4000000059605,898048.799999997,7047,WL,A,2.0
7,3.115999937057495,immed,56884.000062942505,Tue Feb 11 2025 10:16:57 GMT-0600 (Central Standard Time),898931.5,A,trai,O,i,216,1,882.7000000029802,898048.799999997,7047,WL,A,2.0
7,3.2660000324249268,immed,56733.99996757507,Tue Feb 11 2025 10:16:57 GMT-0600 (Central Standard Time),899081.6000000015,A,train,O,n,134,1,1032.8000000044703,898048.799999997,7047,WL,A,2.0
7,3.4830000400543213,immed,56516.99995994568,Tue Feb 11 2025 10:16:57 GMT-0600 (Central Standard Time),899299.299999997,A,trainenter,O,enter,209,1,1250.5,898048.799999997,7047,WL,A,2.0
7,3.7819998264312744,immed,56218.000173568726,Tue Feb 11 2025 10:16:57 GMT-0600 (Central Standard Time),899598.1000000015,A,r,O,r,279,1,298.5,899299.6000000015,7047,WL,A,3.0
7,3.8989999294281006,immed,56101.0000705719,Tue Feb 11 2025 10:16:57 GMT-0600 (Central Standard Time),899714.6000000015,A,ru,O,u,108,1,415.0,899299.6000000015,7047,WL,A,3.0
7,4.148999929428101,immed,55851.0000705719,Tue Feb 11 2025 10:16:57 GMT-0600 (Central Standard Time),899964.700000003,A,rug,O,g,232,1,665.1000000014901,899299.6000000015,7047,WL,A,3.0
7,4.431999921798706,immed,55568.000078201294,Tue Feb 11 2025 10:16:57 GMT-0600 (Central Standard Time),900247.8999999985,A,rugenter,O,enter,261,1,948.2999999970198,899299.6000000015,7047,WL,A,3.0
7,7.297999858856201,immed,52702.0001411438,Tue Feb 11 2025 10:16:57 GMT-0600 (Central Standard Time),903113.700000003,A,b,O,b,2843,1,2865.5,900248.200000003,7047,WL,A,4.0
7,7.513999938964844,immed,52486.000061035156,Tue Feb 11 2025 10:16:57 GMT-0600 (Central Standard Time),903330.200000003,A,bu,O,u,200,1,3082.0,900248.200000003,7047,WL,A,4.0
7,7.648000001907349,immed,52351.99999809265,Tue Feb 11 2025 10:16:57 GMT-0600 (Central Standard Time),903463.5,A,but,O,t,112,1,3215.2999999970198,900248.200000003,7047,WL,A,4.0
7,7.7809998989105225,immed,52219.00010108948,Tue Feb 11 2025 10:16:57 GMT-0600 (Central Standard Time),903596.8999999985,A,butt,O,t,122,1,3348.6999999955297,900248.200000003,7047,WL,A,4.0
7,7.898000001907349,immed,52101.99999809265,Tue Feb 11 2025 10:16:57 GMT-0600 (Central Standard Time),903713.5,A,butto,O,o,109,1,3465.2999999970198,900248.200000003,7047,WL,A,4.0
7,8.080999851226807,immed,51919.00014877319,Tue Feb 11 2025 10:16:57 GMT-0600 (Central Standard Time),903896.700000003,A,button,O,n,168,1,3648.5,900248.200000003,7047,WL,A,4.0
7,8.332000017166138,immed,51667.99998283386,Tue Feb 11 2025 10:16:57 GMT-0600 (Central Standard Time),904147.700000003,A,buttonenter,O,enter,241,1,3899.5,900248.200000003,7047,WL,A,4.0
7,8.79699993133545,immed,51203.00006866455,Tue Feb 11 2025 10:16:57 GMT-0600 (Central Standard Time),904613.299999997,A,f,O,f,446,1,465.19999999552965,904148.1000000015,7047,WL,A,5.0
7,8.896999835968018,immed,51103.00016403198,Tue Feb 11 2025 10:16:57 GMT-0600 (Central Standard Time),904713.200000003,A,fi,O,i,77,1,565.1000000014901,904148.1000000015,7047,WL,A,5.0
7,9.04699993133545,immed,50953.00006866455,Tue Feb 11 2025 10:16:57 GMT-0600 (Central Standard Time),904862.8999999985,A,fin,O,n,137,1,714.7999999970198,904148.1000000015,7047,WL,A,5.0
7,9.129999876022339,immed,50870.00012397766,Tue Feb 11 2025 10:16:57 GMT-0600 (Central Standard Time),904946.200000003,A,fing,O,g,75,1,798.1000000014901,904148.1000000015,7047,WL,A,5.0
7,9.313999891281128,immed,50686.00010871887,Tue Feb 11 2025 10:16:57 GMT-0600 (Central Standard Time),905129.6000000015,A,finge,O,e,160,1,981.5,904148.1000000015,7047,WL,A,5.0
7,9.363999843597412,immed,50636.00015640259,Tue Feb 11 2025 10:16:57 GMT-0600 (Central Standard Time),905179.8999999985,A,finger,O,r,32,1,1031.7999999970198,904148.1000000015,7047,WL,A,5.0
7,9.54699993133545,immed,50453.00006866455,Tue Feb 11 2025 10:16:57 GMT-0600 (Central Standard Time),905363.0,A,fingerenter,O,enter,174,1,1214.8999999985099,904148.1000000015,7047,WL,A,5.0
7,9.96399998664856,immed,50036.00001335144,Tue Feb 11 2025 10:16:57 GMT-0600 (Central Standard Time),905779.5,A,g,O,g,408,1,416.1000000014901,905363.3999999985,7047,WL,A,6.0
7,10.063999891281128,immed,49936.00010871887,Tue Feb 11 2025 10:16:57 GMT-0600 (Central Standard Time),905879.700000003,A,go,O,o,87,1,516.3000000044703,905363.3999999985,7047,WL,A,6.0
7,10.230000019073486,immed,49769.999980926514,Tue Feb 11 2025 10:16:57 GMT-0600 (Central Standard Time),906046.200000003,A,goa,O,a,155,1,682.8000000044703,905363.3999999985,7047,WL,A,6.0
7,10.412999868392944,immed,49587.000131607056,Tue Feb 11 2025 10:16:57 GMT-0600 (Central Standard Time),906229.299999997,A,goal,O,l,171,1,865.8999999985099,905363.3999999985,7047,WL,A,6.0
7,10.77999997138977,immed,49220.00002861023,Tue Feb 11 2025 10:16:57 GMT-0600 (Central Standard Time),906595.799999997,A,goa,O,backspace,356,1,1232.3999999985099,905363.3999999985,7047,WL,A,6.0
7,10.929999828338623,immed,49070.00017166138,Tue Feb 11 2025 10:16:57 GMT-0600 (Central Standard Time),906745.799999997,A,go,O,backspace,143,1,1382.3999999985099,905363.3999999985,7047,WL,A,6.0
7,11.146999835968018,immed,48853.00016403198,Tue Feb 11 2025 10:16:57 GMT-0600 (Central Standard Time),906962.6000000015,A,gol,O,l,200,1,1599.2000000029802,905363.3999999985,7047,WL,A,6.0
7,11.29699993133545,immed,48703.00006866455,Tue Feb 11 2025 10:16:57 GMT-0600 (Central Standard Time),907112.3999999985,A,gold,O,d,128,1,1749.0,905363.3999999985,7047,WL,A,6.0
7,11.497999906539917,immed,48502.00009346008,Tue Feb 11 2025 10:16:57 GMT-0600 (Central Standard Time),907313.3999999985,A,goldenter,O,enter,185,1,1950.0,905363.3999999985,7047,WL,A,6.0
7,11.763000011444092,immed,48236.99998855591,Tue Feb 11 2025 10:16:57 GMT-0600 (Central Standard Time),907579.0,A,f,O,f,248,1,265.20000000298023,907313.799999997,7047,WL,A,7.0
7,11.94599986076355,immed,48054.00013923645,Tue Feb 11 2025 10:16:57 GMT-0600 (Central Standard Time),907762.299999997,A,fu,O,u,167,1,448.5,907313.799999997,7047,WL,A,7.0
7,12.578999996185303,immed,47421.0000038147,Tue Feb 11 2025 10:16:57 GMT-0600 (Central Standard Time),908395.200000003,A,f,O,backspace,616,1,1081.4000000059605,907313.799999997,7047,WL,A,7.0
7,12.728999853134155,immed,47271.000146865845,Tue Feb 11 2025 10:16:57 GMT-0600 (Central Standard Time),908545.200000003,A,,O,backspace,143,1,1231.4000000059605,907313.799999997,7047,WL,A,7.0
7,12.895999908447266,immed,47104.000091552734,Tue Feb 11 2025 10:16:57 GMT-0600 (Central Standard Time),908712.0,A,r,O,r,145,1,1398.2000000029802,907313.799999997,7047,WL,A,7.0
7,12.996000051498413,immed,47003.99994850159,Tue Feb 11 2025 10:16:57 GMT-0600 (Central Standard Time),908811.799999997,A,ru,O,u,82,1,1498.0,907313.799999997,7047,WL,A,7.0
7,13.329999923706055,immed,46670.000076293945,Tue Feb 11 2025 10:16:57 GMT-0600 (Central Standard Time),909145.6000000015,A,rug,O,g,326,1,1831.8000000044703,907313.799999997,7047,WL,A,7.0
7,13.529000043869019,immed,46470.99995613098,Tue Feb 11 2025 10:16:57 GMT-0600 (Central Standard Time),909345.1000000015,A,rugenter,O,enter,184,1,2031.3000000044703,907313.799999997,7047,WL,A,7.0
7,14.296000003814697,immed,45703.9999961853,Tue Feb 11 2025 10:16:57 GMT-0600 (Central Standard Time),910111.5,A,c,O,c,745,1,766.1000000014901,909345.3999999985,7047,WL,A,8.0
7,14.394999980926514,immed,45605.000019073486,Tue Feb 11 2025 10:16:57 GMT-0600 (Central Standard Time),910211.200000003,A,ch,O,h,90,1,865.8000000044703,909345.3999999985,7047,WL,A,8.0
7,14.51199984550476,immed,45488.00015449524,Tue Feb 11 2025 10:16:57 GMT-0600 (Central Standard Time),910328.1000000015,A,chi,O,i,94,1,982.7000000029802,909345.3999999985,7047,WL,A,8.0
7,14.711999893188477,immed,45288.00010681152,Tue Feb 11 2025 10:16:57 GMT-0600 (Central Standard Time),910528.1000000015,A,chim,O,m,178,1,1182.7000000029802,909345.3999999985,7047,WL,A,8.0
7,14.928999900817871,immed,45071.00009918213,Tue Feb 11 2025 10:16:57 GMT-0600 (Central Standard Time),910744.8999999985,A,chimn,O,n,194,1,1399.5,909345.3999999985,7047,WL,A,8.0
7,15.128999948501587,immed,44871.00005149841,Tue Feb 11 2025 10:16:57 GMT-0600 (Central Standard Time),910944.5,A,chimne,O,e,185,1,1599.1000000014901,909345.3999999985,7047,WL,A,8.0
7,15.312000036239624,immed,44687.999963760376,Tue Feb 11 2025 10:16:57 GMT-0600 (Central Standard Time),911127.8999999985,A,chimney,O,y,161,1,1782.5,909345.3999999985,7047,WL,A,8.0
7,15.678999900817871,immed,44321.00009918213,Tue Feb 11 2025 10:16:57 GMT-0600 (Central Standard Time),911494.5,A,chimneyenter,O,enter,354,1,2149.10000000149,909345.3999999985,7047,WL,A,8.0
7,18.42799997329712,immed,41572.00002670288,Tue Feb 11 2025 10:16:57 GMT-0600 (Central Standard Time),914243.5,A,a,O,a,2740,1,2748.7000000029802,911494.799999997,7047,WL,A,9.0
7,18.5939998626709,immed,41406.0001373291,Tue Feb 11 2025 10:16:57 GMT-0600 (Central Standard Time),914410.299999997,A,ap,O,p,150,1,2915.5,911494.799999997,7047,WL,A,9.0
7,18.74399995803833,immed,41256.00004196167,Tue Feb 11 2025 10:16:57 GMT-0600 (Central Standard Time),914560.1000000015,A,app,O,p,136,1,3065.3000000044703,911494.799999997,7047,WL,A,9.0
7,18.944000005722046,immed,41055.999994277954,Tue Feb 11 2025 10:16:57 GMT-0600 (Central Standard Time),914760.0,A,appl,O,l,186,1,3265.2000000029802,911494.799999997,7047,WL,A,9.0
7,19.110999822616577,immed,40889.00017738342,Tue Feb 11 2025 10:16:57 GMT-0600 (Central Standard Time),914926.6000000015,A,apple,O,e,153,1,3431.8000000044703,911494.799999997,7047,WL,A,9.0
7,19.293999910354614,immed,40706.000089645386,Tue Feb 11 2025 10:16:57 GMT-0600 (Central Standard Time),915109.8999999985,A,appleenter,O,enter,163,1,3615.10000000149,911494.799999997,7047,WL,A,9.0
7,31.223999977111816,immed,28776.000022888184,Tue Feb 11 2025 10:16:57 GMT-0600 (Central Standard Time),927039.5,A,s,O,s,11908,1,11929.29999999702,915110.200000003,7047,WL,A,10.0
7,31.424000024795532,immed,28575.999975204468,Tue Feb 11 2025 10:16:57 GMT-0600 (Central Standard Time),927239.6000000015,A,sa,O,a,177,1,12129.39999999851,915110.200000003,7047,WL,A,10.0
7,31.5239999294281,immed,28476.0000705719,Tue Feb 11 2025 10:16:57 GMT-0600 (Central Standard Time),927339.299999997,A,sal,O,l,82,1,12229.09999999404,915110.200000003,7047,WL,A,10.0
7,31.740000009536743,immed,28259.999990463257,Tue Feb 11 2025 10:16:57 GMT-0600 (Central Standard Time),927555.8999999985,A,salt,O,t,199,1,12445.69999999553,915110.200000003,7047,WL,A,10.0
7,31.973999977111816,immed,28026.000022888184,Tue Feb 11 2025 10:16:57 GMT-0600 (Central Standard Time),927789.3999999985,A,saltenter,O,enter,214,1,12679.19999999553,915110.200000003,7047,WL,A,10.0
7,39.82099986076355,immed,20179.00013923645,Tue Feb 11 2025 10:16:57 GMT-0600 (Central Standard Time),935636.8999999985,A,b,O,b,7828,1,7847.10000000149,927789.799999997,7047,WL,A,11.0
7,39.98799991607666,immed,20012.00008392334,Tue Feb 11 2025 10:16:57 GMT-0600 (Central Standard Time),935803.6000000015,A,bu,O,u,149,1,8013.80000000447,927789.799999997,7047,WL,A,11.0
7,40.1710000038147,immed,19828.999996185303,Tue Feb 11 2025 10:16:57 GMT-0600 (Central Standard Time),935986.3999999985,A,but,O,t,166,1,8196.60000000149,927789.799999997,7047,WL,A,11.0
7,40.270999908447266,immed,19729.000091552734,Tue Feb 11 2025 10:16:57 GMT-0600 (Central Standard Time),936086.700000003,A,butt,O,t,88,1,8296.90000000596,927789.799999997,7047,WL,A,11.0
7,40.63699984550476,immed,19363.00015449524,Tue Feb 11 2025 10:16:57 GMT-0600 (Central Standard Time),936453.299999997,A,butto,O,o,348,1,8663.5,927789.799999997,7047,WL,A,11.0
7,40.78699994087219,immed,19213.000059127808,Tue Feb 11 2025 10:16:57 GMT-0600 (Central Standard Time),936603.200000003,A,button,O,n,141,1,8813.40000000596,927789.799999997,7047,WL,A,11.0
7,41.00399994850159,immed,18996.000051498413,Tue Feb 11 2025 10:16:57 GMT-0600 (Central Standard Time),936820.0,A,buttonenter,O,enter,198,1,9030.20000000298,927789.799999997,7047,WL,A,11.0
7,60.013999938964844,immed,-13.99993896484375,Tue Feb 11 2025 10:16:57 GMT-0600 (Central Standard Time),955830.700000003,A,None,O,None,19005,1,19010.40000000596,936820.299999997,7047,WL,A,12.0
