acc_sum,block,block_c,condition,correct,correct_response,datetime,endtime,flanker,jitter,project,response,response_test_buffer_response,response_test_target_response,response_time,response_time_test_buffer_response,response_time_test_target_response,row_sel,session_number,start_end,starttime,subject_id,target,task,task_vers,time_test_buffer,time_test_buffer_response,time_test_constants,time_test_flanker,time_test_jitter,time_test_logger,time_test_target,time_test_target_response,time_test_variables,trial
1,prac,1,con,1,m,Wed Jan 15 2025 10:06:58 GMT-0500 (Eastern Standard Time),117695.10000038147,jacket,800,I,m,,,554,,,5,3,2656.7000007629395,115038.39999961853,9003,jacket,AF,C,,,,,,,,,,1
1,prac,1,inc,0,z,Wed Jan 15 2025 10:06:58 GMT-0500 (Eastern Standard Time),120645.0,window,1100,I,m,,,530,,,16,3,2937.1000003814697,117707.89999961853,9003,temper,AF,C,,,,,,,,,,2
2,prac,1,inc,1,m,Wed Jan 15 2025 10:06:58 GMT-0500 (Eastern Standard Time),123611.39999961853,elated,900,I,m,,,757,,,6,3,2956.1000003814697,120655.29999923706,9003,napkin,AF,C,,,,,,,,,,3
3,prac,1,con,1,z,Wed Jan 15 2025 10:06:58 GMT-0500 (Eastern Standard Time),126411.70000076294,love,1000,I,z,,,490,,,11,3,2790.2000007629395,123621.5,9003,love,AF,C,,,,,,,,,,4
4,prac,1,con,1,m,Wed Jan 15 2025 10:06:58 GMT-0500 (Eastern Standard Time),129044.89999961853,step,800,I,m,,,530,,,1,3,2624.0,126420.89999961853,9003,step,AF,C,,,,,,,,,,5
4,prac,1,inc,0,z,Wed Jan 15 2025 10:06:58 GMT-0500 (Eastern Standard Time),132011.10000038147,napkin,1100,I,m,,,557,,,12,3,2955.800001144409,129055.29999923706,9003,friend,AF,C,,,,,,,,,,6
5,prac,1,inc,1,m,Wed Jan 15 2025 10:06:58 GMT-0500 (Eastern Standard Time),134777.79999923706,kind,900,I,m,,,560,,,2,3,2761.099998474121,132016.70000076294,9003,rock,AF,C,,,,,,,,,,7
6,prac,1,inc,1,z,Wed Jan 15 2025 10:06:58 GMT-0500 (Eastern Standard Time),137527.70000076294,film,900,I,z,,,545,,,14,3,2742.2000007629395,134785.5,9003,hate,AF,C,,,,,,,,,,8
7,prac,1,con,1,m,Wed Jan 15 2025 10:06:58 GMT-0500 (Eastern Standard Time),140428.29999923706,bell,1000,I,m,,,591,,,3,3,2892.8999996185303,137535.39999961853,9003,bell,AF,C,,,,,,,,,,9
8,prac,1,con,1,z,Wed Jan 15 2025 10:06:58 GMT-0500 (Eastern Standard Time),143461.5,rage,1000,I,z,,,730,,,15,3,3022.7000007629395,140438.79999923706,9003,rage,AF,C,,,,,,,,,,10
9,prac,1,inc,1,z,Wed Jan 15 2025 10:06:58 GMT-0500 (Eastern Standard Time),146244.29999923706,rock,900,I,z,,,580,,,10,3,2771.599998474121,143472.70000076294,9003,kind,AF,C,,,,,,,,,,11
10,prac,1,inc,1,m,Wed Jan 15 2025 10:06:58 GMT-0500 (Eastern Standard Time),149244.89999961853,brutal,1100,I,m,,,589,,,8,3,2994.6000003814697,146250.29999923706,9003,window,AF,C,,,,,,,,,,12
11,prac,1,inc,1,m,Wed Jan 15 2025 10:06:58 GMT-0500 (Eastern Standard Time),152461.0,hate,1100,I,m,,,806,,,4,3,3207.7000007629395,149253.29999923706,9003,film,AF,C,,,,,,,,,,13
12,prac,1,con,1,z,Wed Jan 15 2025 10:06:58 GMT-0500 (Eastern Standard Time),155278.29999923706,brutal,800,I,z,,,704,,,13,3,2811.5,152466.79999923706,9003,brutal,AF,C,,,,,,,,,,14
13,prac,1,con,1,z,Wed Jan 15 2025 10:06:58 GMT-0500 (Eastern Standard Time),157878.20000076294,elated,800,I,z,,,496,,,9,3,2590.400001525879,155287.79999923706,9003,elated,AF,C,,,,,,,,,,15
14,prac,1,con,1,m,Wed Jan 15 2025 10:06:58 GMT-0500 (Eastern Standard Time),160844.79999923706,remote,1000,I,m,,,656,,,7,3,2956.7999992370605,157888.0,9003,remote,AF,C,,,,,,,,,,16
1,test,1,inc,1,z,Wed Jan 15 2025 10:06:58 GMT-0500 (Eastern Standard Time),182978.10000038147,napkin,900,I,z,z,None,601,386.0,215.0,6,3,2040.5,180937.60000038147,9003,elated,AF,C,178148,178148,176507,177415,176508,178547,177932,177932,178547,1
2,test,1,con,1,z,Wed Jan 15 2025 10:06:58 GMT-0500 (Eastern Standard Time),184795.10000038147,love,800,I,z,z,None,477,262.0,215.0,17,3,1806.0,182989.10000038147,9003,love,AF,C,180097,180097,178558,179365,178559,180364,179882,179882,180364,2
3,test,1,inc,1,m,Wed Jan 15 2025 10:06:58 GMT-0500 (Eastern Standard Time),186611.5,elated,800,I,m,m,None,467,268.0,199.0,109,3,1806.7999992370605,184804.70000076294,9003,napkin,AF,C,181898,181898,180374,181182,180375,182181,181698,181698,182180,3
4,test,1,con,1,z,Wed Jan 15 2025 10:06:58 GMT-0500 (Eastern Standard Time),188811.5,temper,1100,I,z,z,None,542,327.0,215.0,60,3,2185.5,186626.0,9003,temper,AF,C,184048,184048,182195,183315,182198,184381,183832,183832,184380,4
5,test,1,con,1,m,Wed Jan 15 2025 10:06:58 GMT-0500 (Eastern Standard Time),190761.29999923706,window,800,I,m,m,None,610,411.0,199.0,121,3,1938.2999992370605,188823.0,9003,window,AF,C,185914,185915,184392,185198,184393,186330,185715,185715,186330,5
6,test,1,inc,1,m,Wed Jan 15 2025 10:06:58 GMT-0500 (Eastern Standard Time),192694.29999923706,elated,800,I,m,m,None,596,382.0,214.0,101,3,1925.3999996185303,190768.89999961853,9003,jacket,AF,C,187881,187881,186338,187148,186339,188263,187666,187666,188263,6
7,test,1,inc,1,z,Wed Jan 15 2025 10:06:58 GMT-0500 (Eastern Standard Time),194678.20000076294,rock,900,I,z,z,None,531,317.0,214.0,46,3,1975.400001525879,192702.79999923706,9003,hate,AF,C,189914,189914,188272,189182,188273,190247,189699,189699,190247,7
8,test,1,inc,1,z,Wed Jan 15 2025 10:06:58 GMT-0500 (Eastern Standard Time),196944.5,window,1100,I,z,z,None,619,404.0,215.0,40,3,2255.5,194689.0,9003,brutal,AF,C,192098,192098,190258,191365,190259,192514,191882,191882,192514,8
9,test,1,inc,1,m,Wed Jan 15 2025 10:06:58 GMT-0500 (Eastern Standard Time),198927.89999961853,brutal,900,I,m,m,None,538,323.0,215.0,102,3,1974.7999992370605,196953.10000038147,9003,jacket,AF,C,194164,194164,192522,193432,192523,194497,193949,193949,194497,9
10,test,1,con,1,z,Wed Jan 15 2025 10:06:58 GMT-0500 (Eastern Standard Time),200794.89999961853,elated,800,I,z,z,None,526,311.0,215.0,1,3,1859.0,198935.89999961853,9003,elated,AF,C,196047,196048,194505,195315,194506,196364,195832,195832,196364,10
11,test,1,inc,1,z,Wed Jan 15 2025 10:06:58 GMT-0500 (Eastern Standard Time),202828.29999923706,rock,900,I,z,z,None,574,360.0,214.0,54,3,2018.3999996185303,200809.89999961853,9003,rage,AF,C,198031,198031,196379,197298,196382,198397,197816,197816,198397,11
12,test,1,con,1,m,Wed Jan 15 2025 10:06:58 GMT-0500 (Eastern Standard Time),204978.20000076294,jacket,1100,I,m,m,None,503,288.0,215.0,100,3,2140.7000007629395,202837.5,9003,jacket,AF,C,200247,200247,198406,199515,198408,200547,200032,200032,200547,12
13,test,1,inc,1,m,Wed Jan 15 2025 10:06:58 GMT-0500 (Eastern Standard Time),207111.5,friend,1100,I,m,m,None,496,281.0,215.0,112,3,2122.3999996185303,204989.10000038147,9003,napkin,AF,C,202398,202398,200558,201665,200560,202681,202182,202182,202680,13
14,test,1,con,1,z,Wed Jan 15 2025 10:06:58 GMT-0500 (Eastern Standard Time),209194.70000076294,brutal,800,I,z,z,None,742,528.0,214.0,33,3,2074.6000003814697,207120.10000038147,9003,brutal,AF,C,204231,204231,202689,203499,202691,204764,204016,204016,204764,14
15,test,1,inc,1,m,Wed Jan 15 2025 10:06:58 GMT-0500 (Eastern Standard Time),211111.5,rage,800,I,m,m,None,562,348.0,214.0,69,3,1901.8999996185303,209209.60000038147,9003,step,AF,C,206331,206331,204779,205598,204782,206681,206115,206116,206681,15
16,test,1,inc,1,z,Wed Jan 15 2025 10:06:58 GMT-0500 (Eastern Standard Time),213278.20000076294,window,1100,I,z,z,None,522,308.0,214.0,32,3,2154.800001144409,211123.39999961853,9003,friend,AF,C,208530,208531,206692,207798,206694,208847,208316,208316,208847,16
17,test,1,con,1,z,Wed Jan 15 2025 10:06:58 GMT-0500 (Eastern Standard Time),215161.5,friend,800,I,z,z,None,544,329.0,215.0,25,3,1874.7000007629395,213286.79999923706,9003,friend,AF,C,210398,210398,208856,209665,208857,210731,210182,210182,210731,17
18,test,1,con,1,z,Wed Jan 15 2025 10:06:58 GMT-0500 (Eastern Standard Time),217345.0,temper,1000,I,z,z,None,620,405.0,215.0,59,3,2169.2999992370605,215175.70000076294,9003,temper,AF,C,212498,212498,210745,211765,210748,212914,212282,212282,212914,18
19,test,1,inc,1,z,Wed Jan 15 2025 10:06:58 GMT-0500 (Eastern Standard Time),219627.70000076294,film,1100,I,z,z,None,641,426.0,215.0,24,3,2273.1000003814697,217354.60000038147,9003,love,AF,C,214764,214764,212924,214032,212925,215197,214549,214549,215197,19
20,test,1,inc,1,z,Wed Jan 15 2025 10:06:58 GMT-0500 (Eastern Standard Time),221645.0,rock,900,I,z,z,None,574,359.0,215.0,22,3,2010.0,219635.0,9003,love,AF,C,216848,216848,215204,216115,215206,217214,216632,216632,217214,20
21,test,1,con,1,z,Wed Jan 15 2025 10:06:58 GMT-0500 (Eastern Standard Time),223711.5,temper,900,I,z,z,None,621,407.0,214.0,58,3,2058.0,221653.5,9003,temper,AF,C,218864,218864,217223,218132,217224,219281,218649,218649,219280,21
22,test,1,inc,1,m,Wed Jan 15 2025 10:06:58 GMT-0500 (Eastern Standard Time),225761.5,kind,900,I,m,m,None,602,388.0,214.0,94,3,2039.7000007629395,223721.79999923706,9003,film,AF,C,220931,220931,219291,220198,219292,221331,220716,220716,221330,22
23,test,1,inc,1,m,Wed Jan 15 2025 10:06:58 GMT-0500 (Eastern Standard Time),227894.39999961853,kind,900,I,m,m,None,696,482.0,214.0,86,3,2123.7999992370605,225770.60000038147,9003,bell,AF,C,222980,222980,221340,222249,221341,223464,222766,222766,223463,23
24,test,1,con,1,m,Wed Jan 15 2025 10:06:58 GMT-0500 (Eastern Standard Time),230078.10000038147,remote,1000,I,m,m,None,640,441.0,199.0,115,3,2177.1000003814697,227901.0,9003,remote,AF,C,225198,225198,223470,224481,223471,225647,224998,224998,225647,24
25,test,1,inc,1,m,Wed Jan 15 2025 10:06:58 GMT-0500 (Eastern Standard Time),232078.0,brutal,900,I,m,m,None,539,340.0,199.0,110,3,1985.0,230093.0,9003,napkin,AF,C,227298,227298,225662,226581,225664,227647,227098,227098,227647,25
26,test,1,con,1,m,Wed Jan 15 2025 10:06:58 GMT-0500 (Eastern Standard Time),233994.89999961853,film,800,I,m,m,None,576,361.0,215.0,89,3,1903.6000003814697,232091.29999923706,9003,film,AF,C,229197,229198,227660,228465,227662,229564,228982,228982,229564,26
27,test,1,con,1,m,Wed Jan 15 2025 10:06:58 GMT-0500 (Eastern Standard Time),236078.10000038147,jacket,1000,I,m,m,None,540,325.0,215.0,99,3,2071.7000007629395,234006.39999961853,9003,jacket,AF,C,231314,231314,229575,230582,229577,231647,231099,231099,231647,27
28,test,1,con,1,m,Wed Jan 15 2025 10:06:58 GMT-0500 (Eastern Standard Time),238227.89999961853,window,1100,I,m,m,None,500,301.0,199.0,124,3,2141.1000003814697,236086.79999923706,9003,window,AF,C,233481,233481,231656,232764,231657,233797,233281,233281,233797,28
29,test,1,inc,1,z,Wed Jan 15 2025 10:06:58 GMT-0500 (Eastern Standard Time),240110.89999961853,step,800,I,z,z,None,538,323.0,215.0,13,3,1878.1000003814697,238232.79999923706,9003,kind,AF,C,235347,235347,233802,234614,233803,235680,235132,235132,235680,29
30,test,1,con,1,m,Wed Jan 15 2025 10:06:58 GMT-0500 (Eastern Standard Time),242327.89999961853,step,1100,I,m,m,None,579,364.0,215.0,68,3,2211.0,240116.89999961853,9003,step,AF,C,237531,237531,235686,236799,235687,237897,237316,237316,237897,30
31,test,1,inc,1,m,Wed Jan 15 2025 10:06:58 GMT-0500 (Eastern Standard Time),244444.5,love,1000,I,m,m,None,573,358.0,215.0,95,3,2108.2000007629395,242336.29999923706,9003,film,AF,C,239648,239648,237905,238914,237907,240014,239432,239432,240013,31
32,test,1,inc,1,z,Wed Jan 15 2025 10:06:58 GMT-0500 (Eastern Standard Time),246428.20000076294,bell,1000,I,z,z,None,443,243.0,200.0,47,3,1977.400001525879,244450.79999923706,9003,hate,AF,C,241748,241748,240020,241031,240021,241997,241547,241547,241997,32
33,test,1,con,1,m,Wed Jan 15 2025 10:06:58 GMT-0500 (Eastern Standard Time),248577.89999961853,rock,1000,I,m,m,None,601,386.0,215.0,75,3,2140.5,246437.39999961853,9003,rock,AF,C,243748,243748,242006,243015,242008,244147,243532,243532,244147,33
34,test,1,inc,1,z,Wed Jan 15 2025 10:06:58 GMT-0500 (Eastern Standard Time),250711.39999961853,bell,1000,I,z,z,None,597,398.0,199.0,23,3,2126.1000003814697,248585.29999923706,9003,love,AF,C,245881,245881,244154,245164,244156,246281,245681,245681,246280,34
35,test,1,inc,1,m,Wed Jan 15 2025 10:06:58 GMT-0500 (Eastern Standard Time),252761.5,love,1000,I,m,m,None,494,279.0,215.0,71,3,2035.2999992370605,250726.20000076294,9003,step,AF,C,248048,248048,246295,247314,246298,248331,247832,247832,248331,35
35,test,1,con,0,z,Wed Jan 15 2025 10:06:58 GMT-0500 (Eastern Standard Time),254894.20000076294,kind,1100,I,m,m,None,488,273.0,215.0,12,3,2123.6000003814697,252770.60000038147,9003,kind,AF,C,250181,250181,248340,249448,248341,250463,249966,249966,250463,36
36,test,1,con,1,z,Wed Jan 15 2025 10:06:58 GMT-0500 (Eastern Standard Time),256777.79999923706,hate,800,I,z,z,None,542,327.0,215.0,41,3,1878.599998474121,254899.20000076294,9003,hate,AF,C,252014,252015,250468,251282,250469,252347,251799,251799,252347,37
37,test,1,inc,1,z,Wed Jan 15 2025 10:06:58 GMT-0500 (Eastern Standard Time),258711.60000038147,rock,900,I,z,z,None,497,298.0,199.0,14,3,1928.3999996185303,256783.20000076294,9003,kind,AF,C,253981,253981,252352,253265,252354,254281,253782,253782,254281,38
38,test,1,inc,1,z,Wed Jan 15 2025 10:06:58 GMT-0500 (Eastern Standard Time),260944.39999961853,film,1100,I,z,z,None,585,371.0,214.0,56,3,2224.2999992370605,258720.10000038147,9003,rage,AF,C,256131,256131,254289,255399,254290,256514,255916,255916,256513,39
39,test,1,con,1,m,Wed Jan 15 2025 10:06:58 GMT-0500 (Eastern Standard Time),263044.60000038147,film,1000,I,m,m,None,549,350.0,199.0,91,3,2093.6000003814697,260951.0,9003,film,AF,C,258248,258248,256520,257531,256521,258614,258048,258048,258614,40
39,test,1,con,0,m,Wed Jan 15 2025 10:06:58 GMT-0500 (Eastern Standard Time),265094.39999961853,remote,900,I,z,z,None,613,398.0,215.0,114,3,2039.8999996185303,263054.5,9003,remote,AF,C,260264,260264,258624,259532,258625,260663,260049,260049,260663,41
40,test,1,inc,1,z,Wed Jan 15 2025 10:06:58 GMT-0500 (Eastern Standard Time),266944.70000076294,jacket,800,I,z,z,None,503,289.0,214.0,29,3,1844.0,265100.70000076294,9003,friend,AF,C,262214,262214,260670,261482,260671,262514,261999,261999,262514,42
41,test,1,inc,1,m,Wed Jan 15 2025 10:06:58 GMT-0500 (Eastern Standard Time),268828.10000038147,elated,800,I,m,m,None,542,327.0,215.0,117,3,1872.6000003814697,266955.5,9003,remote,AF,C,264064,264064,262525,263332,262526,264397,263849,263849,264397,43
42,test,1,con,1,m,Wed Jan 15 2025 10:06:58 GMT-0500 (Eastern Standard Time),270861.70000076294,window,1000,I,m,m,None,491,292.0,199.0,123,3,2024.5,268837.20000076294,9003,window,AF,C,266131,266131,264406,265415,264407,266431,265932,265932,266431,44
43,test,1,con,1,z,Wed Jan 15 2025 10:06:58 GMT-0500 (Eastern Standard Time),272961.5,friend,900,I,z,z,None,653,438.0,215.0,26,3,2091.2000007629395,270870.29999923706,9003,friend,AF,C,268081,268081,266439,267349,266440,268531,267866,267866,268531,45
44,test,1,con,1,z,Wed Jan 15 2025 10:06:58 GMT-0500 (Eastern Standard Time),275011.5,hate,900,I,z,z,None,602,403.0,199.0,42,3,2040.7999992370605,272970.70000076294,9003,hate,AF,C,270164,270164,268540,269448,268541,270581,269965,269965,270580,46
45,test,1,con,1,m,Wed Jan 15 2025 10:06:58 GMT-0500 (Eastern Standard Time),277261.60000038147,rock,1100,I,m,m,None,608,409.0,199.0,76,3,2241.5,275020.10000038147,9003,rock,AF,C,272414,272414,270589,271698,270590,272831,272215,272215,272831,47
46,test,1,inc,1,m,Wed Jan 15 2025 10:06:58 GMT-0500 (Eastern Standard Time),279428.29999923706,friend,1100,I,m,m,None,515,301.0,214.0,104,3,2156.699998855591,277271.60000038147,9003,jacket,AF,C,274681,274681,272841,273949,272842,274997,274466,274466,274997,48
47,test,1,inc,1,z,Wed Jan 15 2025 10:06:58 GMT-0500 (Eastern Standard Time),281311.5,step,800,I,z,z,None,539,340.0,199.0,53,3,1873.8999996185303,279437.60000038147,9003,rage,AF,C,276531,276531,275007,275815,275008,276881,276332,276332,276881,49
48,test,1,con,1,m,Wed Jan 15 2025 10:06:58 GMT-0500 (Eastern Standard Time),283228.20000076294,rock,800,I,m,m,None,575,376.0,199.0,73,3,1908.0,281320.20000076294,9003,rock,AF,C,278414,278415,276889,277698,276890,278797,278215,278215,278797,50
49,test,1,con,1,z,Wed Jan 15 2025 10:06:58 GMT-0500 (Eastern Standard Time),285561.70000076294,brutal,1000,I,z,z,None,795,596.0,199.0,35,3,2325.300001144409,283236.39999961853,9003,brutal,AF,C,280531,280531,278805,279815,278807,281131,280332,280332,281131,51
50,test,1,con,1,m,Wed Jan 15 2025 10:06:58 GMT-0500 (Eastern Standard Time),287394.79999923706,napkin,800,I,m,m,None,486,287.0,199.0,105,3,1824.5,285570.29999923706,9003,napkin,AF,C,282664,282664,281139,281948,281140,282964,282465,282465,282964,52
51,test,1,inc,1,m,Wed Jan 15 2025 10:06:58 GMT-0500 (Eastern Standard Time),289544.89999961853,love,1000,I,m,m,None,611,396.0,215.0,79,3,2141.2999992370605,287403.60000038147,9003,rock,AF,C,284714,284715,282973,283982,282974,285114,284499,284499,285114,53
52,test,1,con,1,m,Wed Jan 15 2025 10:06:58 GMT-0500 (Eastern Standard Time),291895.70000076294,remote,1100,I,m,m,None,714,499.0,215.0,116,3,2341.5,289554.20000076294,9003,remote,AF,C,286964,286964,285123,286232,285124,287465,286749,286749,287465,54
53,test,1,inc,1,z,Wed Jan 15 2025 10:06:58 GMT-0500 (Eastern Standard Time),293878.10000038147,napkin,900,I,z,z,None,547,333.0,214.0,62,3,1975.1000003814697,291903.0,9003,temper,AF,C,289114,289114,287472,288382,287473,289447,288899,288899,289447,55
53,test,1,con,0,z,Wed Jan 15 2025 10:06:58 GMT-0500 (Eastern Standard Time),295928.29999923706,brutal,900,I,m,m,None,613,398.0,215.0,34,3,2042.0,293886.29999923706,9003,brutal,AF,C,291097,291097,289455,290365,289457,291497,290882,290882,291497,56
54,test,1,inc,1,z,Wed Jan 15 2025 10:06:58 GMT-0500 (Eastern Standard Time),298194.79999923706,window,1100,I,z,z,None,617,402.0,215.0,64,3,2255.7999992370605,295939.0,9003,temper,AF,C,293348,293348,291508,292615,291509,293764,293132,293132,293764,57
55,test,1,con,1,m,Wed Jan 15 2025 10:06:58 GMT-0500 (Eastern Standard Time),300361.60000038147,bell,1100,I,m,m,None,528,313.0,215.0,84,3,2153.800001144409,298207.79999923706,9003,bell,AF,C,295614,295614,293777,294881,293778,295931,295399,295399,295931,58
56,test,1,con,1,z,Wed Jan 15 2025 10:06:58 GMT-0500 (Eastern Standard Time),302511.60000038147,kind,1000,I,z,z,None,605,391.0,214.0,11,3,2141.8999996185303,300369.70000076294,9003,kind,AF,C,297680,297680,295939,296948,295940,298081,297466,297466,298081,59
57,test,1,con,1,m,Wed Jan 15 2025 10:06:58 GMT-0500 (Eastern Standard Time),304694.79999923706,film,1100,I,m,m,None,546,332.0,214.0,92,3,2174.5,302520.29999923706,9003,film,AF,C,299931,299931,298089,299198,298091,300264,299716,299716,300264,60
58,test,1,con,1,z,Wed Jan 15 2025 10:06:58 GMT-0500 (Eastern Standard Time),306661.70000076294,rage,900,I,z,z,None,516,317.0,199.0,50,3,1959.3000011444092,304702.39999961853,9003,rage,AF,C,301898,301898,300271,301182,300273,302231,301698,301698,302231,61
59,test,1,inc,1,m,Wed Jan 15 2025 10:06:58 GMT-0500 (Eastern Standard Time),308628.29999923706,brutal,900,I,m,m,None,517,318.0,199.0,126,3,1958.1999988555908,306670.10000038147,9003,window,AF,C,303864,303865,302239,303149,302240,304197,303665,303665,304197,62
60,test,1,con,1,m,Wed Jan 15 2025 10:06:58 GMT-0500 (Eastern Standard Time),310628.10000038147,napkin,1000,I,m,m,None,450,251.0,199.0,107,3,1989.7000007629395,308638.39999961853,9003,napkin,AF,C,305931,305931,304207,305215,304209,306197,305732,305732,306197,63
61,test,1,inc,1,m,Wed Jan 15 2025 10:06:58 GMT-0500 (Eastern Standard Time),312711.60000038147,rage,800,I,m,m,None,746,531.0,215.0,85,3,2074.6000003814697,310637.0,9003,bell,AF,C,307748,307748,306206,307015,306207,308281,307532,307532,308281,64
62,test,1,con,1,m,Wed Jan 15 2025 10:06:58 GMT-0500 (Eastern Standard Time),314744.79999923706,bell,1000,I,m,m,None,494,280.0,214.0,83,3,2024.7999992370605,312720.0,9003,bell,AF,C,310031,310031,308289,309298,308290,310314,309816,309816,310314,65
63,test,1,inc,1,z,Wed Jan 15 2025 10:06:58 GMT-0500 (Eastern Standard Time),316978.20000076294,film,1100,I,z,z,None,586,371.0,215.0,48,3,2224.2000007629395,314754.0,9003,hate,AF,C,312164,312164,310323,311432,310324,312547,311949,311949,312547,66
64,test,1,inc,1,z,Wed Jan 15 2025 10:06:58 GMT-0500 (Eastern Standard Time),319261.60000038147,window,1100,I,z,z,None,641,426.0,215.0,8,3,2273.800001144409,316987.79999923706,9003,elated,AF,C,314397,314397,312557,313665,312558,314831,314182,314182,314830,67
65,test,1,inc,1,m,Wed Jan 15 2025 10:06:58 GMT-0500 (Eastern Standard Time),321328.20000076294,kind,900,I,m,m,None,621,407.0,214.0,70,3,2056.1000003814697,319272.10000038147,9003,step,AF,C,316480,316480,314841,315748,314842,316897,316266,316266,316897,68
66,test,1,inc,1,z,Wed Jan 15 2025 10:06:58 GMT-0500 (Eastern Standard Time),323461.20000076294,remote,1000,I,z,z,None,581,366.0,215.0,39,3,2123.6000003814697,321337.60000038147,9003,brutal,AF,C,318647,318648,316907,317915,316908,319030,318432,318432,319030,69
67,test,1,inc,1,m,Wed Jan 15 2025 10:06:58 GMT-0500 (Eastern Standard Time),325527.79999923706,temper,1000,I,m,m,None,530,330.0,200.0,103,3,2058.699998855591,323469.10000038147,9003,jacket,AF,C,320764,320764,319038,320048,319040,321097,320564,320564,321097,70
68,test,1,inc,1,z,Wed Jan 15 2025 10:06:58 GMT-0500 (Eastern Standard Time),327411.39999961853,jacket,800,I,z,z,None,535,319.0,216.0,5,3,1877.1999988555908,325534.20000076294,9003,elated,AF,C,322648,322648,321103,321915,321105,322981,322432,322432,322980,71
68,test,1,inc,0,z,Wed Jan 15 2025 10:06:58 GMT-0500 (Eastern Standard Time),329461.60000038147,remote,1000,I,m,m,None,498,284.0,214.0,63,3,2041.8999996185303,327419.70000076294,9003,temper,AF,C,324731,324731,322989,323998,322990,325031,324516,324516,325031,72
69,test,1,con,1,m,Wed Jan 15 2025 10:06:58 GMT-0500 (Eastern Standard Time),331445.0,napkin,900,I,m,m,None,532,317.0,215.0,106,3,1973.7000007629395,329471.29999923706,9003,napkin,AF,C,326681,326681,325040,325949,325042,327014,326466,326466,327014,73
70,test,1,con,1,z,Wed Jan 15 2025 10:06:58 GMT-0500 (Eastern Standard Time),333344.89999961853,love,900,I,z,z,None,454,239.0,215.0,18,3,1891.2999992370605,331453.60000038147,9003,love,AF,C,328664,328664,327023,327932,327024,328914,328449,328449,328914,74
71,test,1,inc,1,m,Wed Jan 15 2025 10:06:58 GMT-0500 (Eastern Standard Time),335428.29999923706,temper,1000,I,m,m,None,517,318.0,199.0,111,3,2070.199998855591,333358.10000038147,9003,napkin,AF,C,330665,330665,328927,329948,328930,330997,330465,330465,330997,75
72,test,1,inc,1,z,Wed Jan 15 2025 10:06:58 GMT-0500 (Eastern Standard Time),337311.5,step,800,I,z,z,None,521,306.0,215.0,21,3,1869.6000003814697,335441.89999961853,9003,love,AF,C,332565,332565,331011,331832,331014,332881,332349,332349,332880,76
73,test,1,con,1,z,Wed Jan 15 2025 10:06:58 GMT-0500 (Eastern Standard Time),339428.20000076294,hate,1100,I,z,z,None,466,252.0,214.0,44,3,2108.5,337319.70000076294,9003,hate,AF,C,334731,334731,332889,333998,332890,334997,334516,334516,334997,77
74,test,1,inc,1,z,Wed Jan 15 2025 10:06:58 GMT-0500 (Eastern Standard Time),341494.70000076294,napkin,900,I,z,z,None,630,415.0,215.0,38,3,2057.300001144409,339437.39999961853,9003,brutal,AF,C,336648,336648,335006,335915,335008,337064,336432,336432,337064,78
75,test,1,con,1,m,Wed Jan 15 2025 10:06:58 GMT-0500 (Eastern Standard Time),343461.5,step,800,I,m,m,None,616,401.0,215.0,65,3,1957.6000003814697,341503.89999961853,9003,step,AF,C,338614,338614,337073,337882,337074,339031,338399,338399,339030,79
76,test,1,inc,1,z,Wed Jan 15 2025 10:06:58 GMT-0500 (Eastern Standard Time),345611.70000076294,bell,1000,I,z,z,None,608,394.0,214.0,55,3,2141.1000003814697,343470.60000038147,9003,rage,AF,C,340781,340781,339040,340048,339041,341181,340566,340566,341181,80
77,test,1,inc,1,m,Wed Jan 15 2025 10:06:58 GMT-0500 (Eastern Standard Time),347795.10000038147,hate,1100,I,m,m,None,534,335.0,199.0,88,3,2175.2000007629395,345619.89999961853,9003,bell,AF,C,343014,343015,341189,342298,341190,343364,342815,342815,343364,81
78,test,1,con,1,m,Wed Jan 15 2025 10:06:58 GMT-0500 (Eastern Standard Time),349828.10000038147,step,1000,I,m,m,None,466,267.0,199.0,67,3,2019.5,347808.60000038147,9003,step,AF,C,345114,345115,343378,344398,343380,345397,344915,344915,345397,82
79,test,1,con,1,z,Wed Jan 15 2025 10:06:58 GMT-0500 (Eastern Standard Time),351695.0,kind,900,I,z,z,None,422,207.0,215.0,10,3,1858.6000003814697,349836.39999961853,9003,kind,AF,C,347048,347048,345405,346315,345407,347264,346832,346832,347264,83
80,test,1,con,1,z,Wed Jan 15 2025 10:06:58 GMT-0500 (Eastern Standard Time),353628.29999923706,elated,900,I,z,z,None,492,293.0,199.0,2,3,1924.599998474121,351703.70000076294,9003,elated,AF,C,348898,348898,347273,348182,347274,349197,348698,348698,349197,84
81,test,1,inc,1,m,Wed Jan 15 2025 10:06:58 GMT-0500 (Eastern Standard Time),355611.5,temper,1000,I,m,m,None,443,244.0,199.0,127,3,1974.0,353637.5,9003,window,AF,C,350931,350931,349207,350215,349208,351181,350732,350732,351181,85
82,test,1,inc,1,m,Wed Jan 15 2025 10:06:58 GMT-0500 (Eastern Standard Time),357694.89999961853,friend,1100,I,m,m,None,438,224.0,214.0,128,3,2074.5,355620.39999961853,9003,window,AF,C,353031,353031,351189,352299,351191,353264,352816,352816,353264,86
83,test,1,con,1,z,Wed Jan 15 2025 10:06:58 GMT-0500 (Eastern Standard Time),359828.29999923706,elated,1000,I,z,z,None,584,369.0,215.0,3,3,2125.699998855591,357702.60000038147,9003,elated,AF,C,355014,355014,353272,354282,353273,355397,354799,354799,355397,87
84,test,1,con,1,z,Wed Jan 15 2025 10:06:58 GMT-0500 (Eastern Standard Time),361761.79999923706,kind,800,I,z,z,None,587,388.0,199.0,9,3,1925.7999992370605,359836.0,9003,kind,AF,C,356931,356931,355405,356214,355406,357331,356731,356731,357331,88
84,test,1,inc,0,z,Wed Jan 15 2025 10:06:58 GMT-0500 (Eastern Standard Time),363711.70000076294,napkin,900,I,m,m,None,505,290.0,215.0,30,3,1939.2000007629395,361772.5,9003,friend,AF,C,358981,358981,357342,358248,357343,359281,358765,358766,359281,89
85,test,1,con,1,z,Wed Jan 15 2025 10:06:58 GMT-0500 (Eastern Standard Time),365827.70000076294,hate,1000,I,z,z,None,566,351.0,215.0,43,3,2107.2000007629395,363720.5,9003,hate,AF,C,361031,361031,359290,360299,359291,361397,360816,360816,361397,90
86,test,1,con,1,z,Wed Jan 15 2025 10:06:58 GMT-0500 (Eastern Standard Time),367894.5,love,1000,I,z,z,None,530,331.0,199.0,19,3,2060.7000007629395,365833.79999923706,9003,love,AF,C,363131,363131,361403,362414,361404,363464,362932,362932,363464,91
87,test,1,inc,1,z,Wed Jan 15 2025 10:06:58 GMT-0500 (Eastern Standard Time),369961.39999961853,remote,1000,I,z,z,None,527,328.0,199.0,7,3,2060.6000003814697,367900.79999923706,9003,elated,AF,C,365198,365198,363470,364481,363471,365530,364998,364998,365530,92
88,test,1,con,1,m,Wed Jan 15 2025 10:06:58 GMT-0500 (Eastern Standard Time),372011.29999923706,film,900,I,m,m,None,608,409.0,199.0,90,3,2043.099998474121,369968.20000076294,9003,film,AF,C,367164,367165,365537,366449,365539,367580,366965,366965,367580,93
89,test,1,con,1,m,Wed Jan 15 2025 10:06:58 GMT-0500 (Eastern Standard Time),373961.60000038147,jacket,900,I,m,m,None,511,296.0,215.0,98,3,1944.7000007629395,372016.89999961853,9003,jacket,AF,C,369231,369231,367586,368499,367587,369531,369016,369016,369531,94
89,test,1,inc,0,z,Wed Jan 15 2025 10:06:58 GMT-0500 (Eastern Standard Time),375761.70000076294,jacket,800,I,m,m,None,453,238.0,215.0,37,3,1789.900001525879,373971.79999923706,9003,brutal,AF,C,371081,371081,369541,370349,369542,371331,370866,370866,371331,95
90,test,1,con,1,z,Wed Jan 15 2025 10:06:58 GMT-0500 (Eastern Standard Time),377578.39999961853,rage,800,I,z,z,None,477,262.0,215.0,49,3,1808.1000003814697,375770.29999923706,9003,rage,AF,C,372881,372881,371339,372149,371341,373148,372666,372666,373147,96
91,test,1,con,1,m,Wed Jan 15 2025 10:06:58 GMT-0500 (Eastern Standard Time),379711.70000076294,napkin,1100,I,m,m,None,489,290.0,199.0,108,3,2125.2000007629395,377586.5,9003,napkin,AF,C,374981,374981,373156,374265,373157,375281,374782,374782,375281,97
92,test,1,con,1,z,Wed Jan 15 2025 10:06:58 GMT-0500 (Eastern Standard Time),381961.60000038147,brutal,1100,I,z,z,None,611,412.0,199.0,36,3,2241.2000007629395,379720.39999961853,9003,brutal,AF,C,377115,377115,375289,376398,375291,377531,376915,376915,377531,98
93,test,1,con,1,z,Wed Jan 15 2025 10:06:58 GMT-0500 (Eastern Standard Time),384028.39999961853,elated,1100,I,z,z,None,423,209.0,214.0,4,3,2058.2999992370605,381970.10000038147,9003,elated,AF,C,379382,379382,377539,378649,377540,379598,379166,379166,379597,99
94,test,1,inc,1,m,Wed Jan 15 2025 10:06:58 GMT-0500 (Eastern Standard Time),386111.60000038147,brutal,900,I,m,m,None,640,440.0,200.0,118,3,2073.1000003814697,384038.5,9003,remote,AF,C,381231,381231,379608,380514,379609,381681,381031,381031,381681,100
95,test,1,con,1,m,Wed Jan 15 2025 10:06:58 GMT-0500 (Eastern Standard Time),388111.60000038147,rock,900,I,m,m,None,555,356.0,199.0,74,3,1990.7000007629395,386120.89999961853,9003,rock,AF,C,383315,383315,381690,382598,381691,383681,383115,383115,383681,101
96,test,1,inc,1,z,Wed Jan 15 2025 10:06:58 GMT-0500 (Eastern Standard Time),389878.39999961853,jacket,800,I,z,z,None,432,232.0,200.0,61,3,1757.7999992370605,388120.60000038147,9003,temper,AF,C,385215,385215,383690,384499,383691,385447,385014,385014,385447,102
97,test,1,inc,1,m,Wed Jan 15 2025 10:06:58 GMT-0500 (Eastern Standard Time),392144.70000076294,friend,1100,I,m,m,None,620,405.0,215.0,120,3,2258.0,389886.70000076294,9003,remote,AF,C,387297,387297,385456,386565,385457,387714,387082,387082,387714,103
98,test,1,con,1,m,Wed Jan 15 2025 10:06:58 GMT-0500 (Eastern Standard Time),394178.39999961853,step,900,I,m,m,None,585,370.0,215.0,66,3,2028.2999992370605,392150.10000038147,9003,step,AF,C,389365,389365,387719,388632,387720,389748,389149,389149,389747,104
99,test,1,con,1,z,Wed Jan 15 2025 10:06:58 GMT-0500 (Eastern Standard Time),396411.60000038147,love,1100,I,z,z,None,593,394.0,199.0,20,3,2225.1000003814697,394186.5,9003,love,AF,C,391581,391581,389756,390865,389757,391981,391382,391382,391981,105
100,test,1,con,1,m,Wed Jan 15 2025 10:06:58 GMT-0500 (Eastern Standard Time),398378.10000038147,bell,900,I,m,m,None,527,328.0,199.0,82,3,1953.6000003814697,396424.5,9003,bell,AF,C,393614,393614,391994,392898,391996,393947,393415,393415,393947,106
101,test,1,inc,1,m,Wed Jan 15 2025 10:06:58 GMT-0500 (Eastern Standard Time),400444.70000076294,love,1000,I,m,m,None,524,325.0,199.0,87,3,2058.800001144409,398385.89999961853,9003,bell,AF,C,395681,395681,393955,394964,393957,396014,395482,395482,396014,107
102,test,1,inc,1,m,Wed Jan 15 2025 10:06:58 GMT-0500 (Eastern Standard Time),402644.79999923706,hate,1100,I,m,m,None,549,334.0,215.0,72,3,2192.8999996185303,400451.89999961853,9003,step,AF,C,397864,397865,396021,397132,396023,398214,397649,397649,398214,108
103,test,1,con,1,z,Wed Jan 15 2025 10:06:58 GMT-0500 (Eastern Standard Time),404745.10000038147,rage,1000,I,z,z,None,561,346.0,215.0,51,3,2092.0,402653.10000038147,9003,rage,AF,C,399965,399965,398222,399232,398224,400314,399749,399749,400314,109
104,test,1,con,1,m,Wed Jan 15 2025 10:06:58 GMT-0500 (Eastern Standard Time),406677.89999961853,window,900,I,m,m,None,497,282.0,215.0,122,3,1924.1000003814697,404753.79999923706,9003,window,AF,C,401965,401965,400323,401231,400324,402247,401749,401749,402247,110
105,test,1,con,1,m,Wed Jan 15 2025 10:06:58 GMT-0500 (Eastern Standard Time),408528.39999961853,remote,800,I,m,m,None,505,290.0,215.0,113,3,1842.7999992370605,406685.60000038147,9003,remote,AF,C,403797,403797,402255,403065,402256,404097,403582,403582,404097,111
106,test,1,inc,1,z,Wed Jan 15 2025 10:06:58 GMT-0500 (Eastern Standard Time),410511.60000038147,remote,1000,I,z,z,None,439,224.0,215.0,31,3,1973.7000007629395,408537.89999961853,9003,friend,AF,C,405847,405847,404107,405115,404108,406081,405632,405632,406081,112
107,test,1,inc,1,m,Wed Jan 15 2025 10:06:58 GMT-0500 (Eastern Standard Time),412361.5,rage,800,I,m,m,None,510,311.0,199.0,77,3,1841.2000007629395,410520.29999923706,9003,rock,AF,C,407614,407615,406089,406898,406090,407931,407415,407415,407931,113
108,test,1,con,1,m,Wed Jan 15 2025 10:06:58 GMT-0500 (Eastern Standard Time),414261.70000076294,jacket,800,I,m,m,None,548,334.0,214.0,97,3,1889.8000011444092,412371.89999961853,9003,jacket,AF,C,409481,409481,407941,408748,407943,409831,409266,409266,409831,114
109,test,1,con,1,z,Wed Jan 15 2025 10:06:58 GMT-0500 (Eastern Standard Time),416228.29999923706,temper,800,I,z,z,None,617,402.0,215.0,57,3,1956.6999988555908,414271.60000038147,9003,temper,AF,C,411381,411381,409841,410649,409842,411797,411166,411166,411797,115
110,test,1,con,1,m,Wed Jan 15 2025 10:06:58 GMT-0500 (Eastern Standard Time),418195.0,bell,800,I,m,m,None,619,420.0,199.0,81,3,1957.0,416238.0,9003,bell,AF,C,413331,413331,411807,412615,411808,413764,413132,413132,413764,116
111,test,1,inc,1,m,Wed Jan 15 2025 10:06:58 GMT-0500 (Eastern Standard Time),420478.20000076294,hate,1100,I,m,m,None,639,423.0,216.0,80,3,2274.7000007629395,418203.5,9003,rock,AF,C,415615,415615,413773,414882,413774,416047,415399,415399,416047,117
112,test,1,inc,1,m,Wed Jan 15 2025 10:06:58 GMT-0500 (Eastern Standard Time),422395.0,kind,900,I,m,m,None,477,262.0,215.0,78,3,1909.2000007629395,420485.79999923706,9003,rock,AF,C,417697,417697,416055,416965,416056,417964,417482,417482,417964,118
113,test,1,inc,1,m,Wed Jan 15 2025 10:06:58 GMT-0500 (Eastern Standard Time),424344.79999923706,elated,800,I,m,m,None,612,413.0,199.0,125,3,1941.7999992370605,422403.0,9003,window,AF,C,419498,419498,417972,418782,417973,419914,419298,419298,419914,119
114,test,1,inc,1,z,Wed Jan 15 2025 10:06:58 GMT-0500 (Eastern Standard Time),426361.70000076294,bell,1000,I,z,z,None,480,280.0,200.0,15,3,2007.7000007629395,424354.0,9003,kind,AF,C,421647,421647,419923,420932,419924,421931,421447,421447,421931,120
114,test,1,con,0,z,Wed Jan 15 2025 10:06:58 GMT-0500 (Eastern Standard Time),428411.5,friend,1000,I,m,m,None,509,294.0,215.0,27,3,2039.5,426372.0,9003,friend,AF,C,423681,423681,421941,422949,421942,423981,423466,423466,423981,121
115,test,1,con,1,z,Wed Jan 15 2025 10:06:58 GMT-0500 (Eastern Standard Time),430628.20000076294,rage,1100,I,z,z,None,567,352.0,215.0,52,3,2207.7000007629395,428420.5,9003,rage,AF,C,425831,425831,423990,425099,423991,426197,425616,425616,426197,122
116,test,1,inc,1,m,Wed Jan 15 2025 10:06:58 GMT-0500 (Eastern Standard Time),432811.60000038147,hate,1100,I,m,m,None,542,328.0,214.0,96,3,2174.300001144409,430637.29999923706,9003,film,AF,C,428047,428047,426206,427315,426208,428381,427833,427833,428381,123
116,test,1,con,0,z,Wed Jan 15 2025 10:06:58 GMT-0500 (Eastern Standard Time),434911.79999923706,friend,1100,I,m,m,None,455,256.0,199.0,28,3,2091.0,432820.79999923706,9003,friend,AF,C,430215,430215,428390,429499,428391,430481,430015,430015,430481,124
117,test,1,inc,1,m,Wed Jan 15 2025 10:06:58 GMT-0500 (Eastern Standard Time),436678.79999923706,rage,800,I,m,m,None,431,216.0,215.0,93,3,1757.7999992370605,434921.0,9003,film,AF,C,432031,432031,430490,431299,430491,432248,431816,431816,432248,125
118,test,1,inc,1,z,Wed Jan 15 2025 10:06:58 GMT-0500 (Eastern Standard Time),438911.70000076294,film,1100,I,z,z,None,589,390.0,199.0,16,3,2224.1000003814697,436687.60000038147,9003,kind,AF,C,434081,434081,432257,433365,432258,434481,433882,433882,434481,126
119,test,1,inc,1,m,Wed Jan 15 2025 10:06:58 GMT-0500 (Eastern Standard Time),441011.79999923706,temper,1000,I,m,m,None,551,336.0,215.0,119,3,2091.199998855591,438920.60000038147,9003,remote,AF,C,436231,436231,434490,435498,434491,436581,436016,436016,436581,127
120,test,1,inc,1,z,Wed Jan 15 2025 10:06:58 GMT-0500 (Eastern Standard Time),442945.10000038147,step,800,I,z,z,None,588,389.0,199.0,45,3,1924.6000003814697,441020.5,9003,hate,AF,C,438114,438114,436590,437398,436591,438514,437915,437915,438514,128
