block_c,block_dur,condition,countdown,datetime,endtime,list,multichar_response,project,response,response_time,session_number,start_end,starttime,subject_id,task,task_vers,trial
,,,,Fri Feb 28 2025 10:36:35 GMT-0600 (Central Standard Time),,,,O,space,334,1,,,7069,WL,B,
prac,,0,,Fri Feb 28 2025 10:36:35 GMT-0600 (Central Standard Time),,NA,b,O,b,3284,1,,,7069,WL,B,1.0
prac,,0,,Fri Feb 28 2025 10:36:35 GMT-0600 (Central Standard Time),,NA,bo,O,o,193,1,,,7069,WL,B,1.0
prac,,0,,Fri Feb 28 2025 10:36:35 GMT-0600 (Central Standard Time),,NA,boo,O,o,194,1,,,7069,WL,B,1.0
prac,,0,,Fri Feb 28 2025 10:36:35 GMT-0600 (Central Standard Time),,NA,boos,O,s,441,1,,,7069,WL,B,1.0
prac,,0,,Fri Feb 28 2025 10:36:35 GMT-0600 (Central Standard Time),,NA,boost,O,t,215,1,,,7069,WL,B,1.0
prac,,0,,Fri Feb 28 2025 10:36:35 GMT-0600 (Central Standard Time),,NA,boostenter,O,enter,3599,1,,,7069,WL,B,1.0
1,8.414000034332275,learn,51585.999965667725,Fri Feb 28 2025 10:36:35 GMT-0600 (Central Standard Time),156944.10000002384,A,s,O,s,8391,1,8414.199999988079,148529.90000003576,7069,WL,B,1.0
1,8.765000104904175,learn,51234.999895095825,Fri Feb 28 2025 10:36:35 GMT-0600 (Central Standard Time),157294.60000002384,A,st,O,t,327,1,8764.699999988079,148529.90000003576,7069,WL,B,1.0
1,8.998000144958496,learn,51001.999855041504,Fri Feb 28 2025 10:36:35 GMT-0600 (Central Standard Time),157527.60000002384,A,str,O,r,219,1,8997.699999988079,148529.90000003576,7069,WL,B,1.0
1,9.247000217437744,learn,50752.999782562256,Fri Feb 28 2025 10:36:35 GMT-0600 (Central Standard Time),157776.40000003576,A,stre,O,e,233,1,9246.5,148529.90000003576,7069,WL,B,1.0
1,9.430999994277954,learn,50569.000005722046,Fri Feb 28 2025 10:36:35 GMT-0600 (Central Standard Time),157960.90000003576,A,stree,O,e,168,1,9431.0,148529.90000003576,7069,WL,B,1.0
1,9.680000066757202,learn,50319.9999332428,Fri Feb 28 2025 10:36:35 GMT-0600 (Central Standard Time),158209.60000002384,A,street,O,t,241,1,9679.699999988079,148529.90000003576,7069,WL,B,1.0
1,11.88100004196167,learn,48118.99995803833,Fri Feb 28 2025 10:36:35 GMT-0600 (Central Standard Time),160410.70000004768,A,streetg,O,g,2180,1,11880.800000011921,148529.90000003576,7069,WL,B,1.0
1,12.731000185012817,learn,47268.99981498718,Fri Feb 28 2025 10:36:35 GMT-0600 (Central Standard Time),161260.40000003576,A,street,O,backspace,827,1,12730.5,148529.90000003576,7069,WL,B,1.0
1,14.430999994277954,learn,45569.000005722046,Fri Feb 28 2025 10:36:35 GMT-0600 (Central Standard Time),162960.30000001192,A,streetenter,O,enter,1691,1,14430.399999976158,148529.90000003576,7069,WL,B,1.0
1,14.943000078201294,learn,45056.999921798706,Fri Feb 28 2025 10:36:35 GMT-0600 (Central Standard Time),163472.90000003576,A,g,O,g,503,1,512.1000000238419,162960.80000001192,7069,WL,B,2.0
1,15.144000053405762,learn,44855.99994659424,Fri Feb 28 2025 10:36:35 GMT-0600 (Central Standard Time),163673.30000001192,A,gr,O,r,191,1,712.5,162960.80000001192,7069,WL,B,2.0
1,15.413000106811523,learn,44586.99989318848,Fri Feb 28 2025 10:36:35 GMT-0600 (Central Standard Time),163942.70000004768,A,gra,O,a,248,1,981.9000000357628,162960.80000001192,7069,WL,B,2.0
1,15.797000169754028,learn,44202.99983024597,Fri Feb 28 2025 10:36:35 GMT-0600 (Central Standard Time),164326.5,A,gras,O,s,360,1,1365.699999988079,162960.80000001192,7069,WL,B,2.0
1,15.962000131607056,learn,44037.999868392944,Fri Feb 28 2025 10:36:35 GMT-0600 (Central Standard Time),164491.80000001192,A,grass,O,s,145,1,1531.0,162960.80000001192,7069,WL,B,2.0
1,16.361000061035156,learn,43638.999938964844,Fri Feb 28 2025 10:36:35 GMT-0600 (Central Standard Time),164890.90000003576,A,grassenter,O,enter,377,1,1930.1000000238419,162960.80000001192,7069,WL,B,2.0
1,17.57800006866455,learn,42421.99993133545,Fri Feb 28 2025 10:36:35 GMT-0600 (Central Standard Time),166107.5,A,a,O,a,1207,1,1216.199999988079,164891.30000001192,7069,WL,B,3.0
1,17.861000061035156,learn,42138.999938964844,Fri Feb 28 2025 10:36:35 GMT-0600 (Central Standard Time),166391.0,A,ar,O,r,256,1,1499.699999988079,164891.30000001192,7069,WL,B,3.0
1,18.445000171661377,learn,41554.99982833862,Fri Feb 28 2025 10:36:35 GMT-0600 (Central Standard Time),166974.20000004768,A,arn,O,n,567,1,2082.900000035763,164891.30000001192,7069,WL,B,3.0
1,18.895000219345093,learn,41104.99978065491,Fri Feb 28 2025 10:36:35 GMT-0600 (Central Standard Time),167424.80000001192,A,ar,O,backspace,435,1,2533.5,164891.30000001192,7069,WL,B,3.0
1,19.712000131607056,learn,40287.999868392944,Fri Feb 28 2025 10:36:35 GMT-0600 (Central Standard Time),168241.40000003576,A,arm,O,m,790,1,3350.100000023842,164891.30000001192,7069,WL,B,3.0
1,20.195000171661377,learn,39804.99982833862,Fri Feb 28 2025 10:36:35 GMT-0600 (Central Standard Time),168724.30000001192,A,armenter,O,enter,458,1,3833.0,164891.30000001192,7069,WL,B,3.0
1,21.761000156402588,learn,38238.99984359741,Fri Feb 28 2025 10:36:35 GMT-0600 (Central Standard Time),170290.40000003576,A,s,O,s,1558,1,1565.800000011921,168724.60000002384,7069,WL,B,4.0
1,22.028000116348267,learn,37971.99988365173,Fri Feb 28 2025 10:36:35 GMT-0600 (Central Standard Time),170557.60000002384,A,st,O,t,241,1,1833.0,168724.60000002384,7069,WL,B,4.0
1,22.259999990463257,learn,37740.00000953674,Fri Feb 28 2025 10:36:35 GMT-0600 (Central Standard Time),170790.0,A,sta,O,a,213,1,2065.399999976158,168724.60000002384,7069,WL,B,4.0
1,22.427000045776367,learn,37572.99995422363,Fri Feb 28 2025 10:36:35 GMT-0600 (Central Standard Time),170956.10000002384,A,star,O,r,153,1,2231.5,168724.60000002384,7069,WL,B,4.0
1,24.093000173568726,learn,35906.999826431274,Fri Feb 28 2025 10:36:35 GMT-0600 (Central Standard Time),172622.60000002384,A,starenter,O,enter,1650,1,3898.0,168724.60000002384,7069,WL,B,4.0
1,25.877000093460083,learn,34122.99990653992,Fri Feb 28 2025 10:36:35 GMT-0600 (Central Standard Time),174406.70000004768,A,l,O,l,1762,1,1783.7000000476837,172623.0,7069,WL,B,5.0
1,26.009000062942505,learn,33990.999937057495,Fri Feb 28 2025 10:36:35 GMT-0600 (Central Standard Time),174538.60000002384,A,la,O,a,107,1,1915.6000000238419,172623.0,7069,WL,B,5.0
1,26.511000156402588,learn,33488.99984359741,Fri Feb 28 2025 10:36:35 GMT-0600 (Central Standard Time),175040.0,A,lak,O,k,483,1,2417.0,172623.0,7069,WL,B,5.0
1,26.693000078201294,learn,33306.999921798706,Fri Feb 28 2025 10:36:35 GMT-0600 (Central Standard Time),175222.30000001192,A,lake,O,e,164,1,2599.300000011921,172623.0,7069,WL,B,5.0
1,27.157999992370605,learn,32842.000007629395,Fri Feb 28 2025 10:36:35 GMT-0600 (Central Standard Time),175687.40000003576,A,lakeenter,O,enter,445,1,3064.400000035763,172623.0,7069,WL,B,5.0
1,27.442000150680542,learn,32557.999849319458,Fri Feb 28 2025 10:36:35 GMT-0600 (Central Standard Time),175971.70000004768,A,c,O,c,266,1,283.9000000357628,175687.80000001192,7069,WL,B,6.0
1,27.743000030517578,learn,32256.999969482422,Fri Feb 28 2025 10:36:35 GMT-0600 (Central Standard Time),176272.90000003576,A,cl,O,l,278,1,585.1000000238419,175687.80000001192,7069,WL,B,6.0
1,27.943000078201294,learn,32056.999921798706,Fri Feb 28 2025 10:36:35 GMT-0600 (Central Standard Time),176472.80000001192,A,clo,O,o,179,1,785.0,175687.80000001192,7069,WL,B,6.0
1,28.14300012588501,learn,31856.99987411499,Fri Feb 28 2025 10:36:35 GMT-0600 (Central Standard Time),176672.90000003576,A,cloc,O,c,194,1,985.1000000238419,175687.80000001192,7069,WL,B,6.0
1,28.4760000705719,learn,31523.9999294281,Fri Feb 28 2025 10:36:35 GMT-0600 (Central Standard Time),177005.5,A,clock,O,k,308,1,1317.699999988079,175687.80000001192,7069,WL,B,6.0
1,29.04100012779236,learn,30958.99987220764,Fri Feb 28 2025 10:36:35 GMT-0600 (Central Standard Time),177570.90000003576,A,clockenter,O,enter,543,1,1883.1000000238419,175687.80000001192,7069,WL,B,6.0
1,31.973000049591064,learn,28026.999950408936,Fri Feb 28 2025 10:36:35 GMT-0600 (Central Standard Time),180503.10000002384,A,p,O,p,2914,1,2931.899999976158,177571.20000004768,7069,WL,B,7.0
1,32.456000089645386,learn,27543.999910354614,Fri Feb 28 2025 10:36:35 GMT-0600 (Central Standard Time),180985.90000003576,A,pu,O,u,475,1,3414.699999988079,177571.20000004768,7069,WL,B,7.0
1,32.824000120162964,learn,27175.999879837036,Fri Feb 28 2025 10:36:35 GMT-0600 (Central Standard Time),181354.70000004768,A,pup,O,p,358,1,3783.5,177571.20000004768,7069,WL,B,7.0
1,33.10600018501282,learn,26893.999814987183,Fri Feb 28 2025 10:36:35 GMT-0600 (Central Standard Time),181636.0,A,pupi,O,i,265,1,4064.7999999523163,177571.20000004768,7069,WL,B,7.0
1,33.355000019073486,learn,26644.999980926514,Fri Feb 28 2025 10:36:35 GMT-0600 (Central Standard Time),181885.70000004768,A,pupil,O,l,234,1,4314.5,177571.20000004768,7069,WL,B,7.0
1,34.83899998664856,learn,25161.00001335144,Fri Feb 28 2025 10:36:35 GMT-0600 (Central Standard Time),183369.0,A,pupilenter,O,enter,1464,1,5797.799999952316,177571.20000004768,7069,WL,B,7.0
1,38.73800015449524,learn,21261.99984550476,Fri Feb 28 2025 10:36:35 GMT-0600 (Central Standard Time),187268.0,A,w,O,w,3888,1,3898.699999988079,183369.30000001192,7069,WL,B,8.0
1,39.02000021934509,learn,20979.999780654907,Fri Feb 28 2025 10:36:35 GMT-0600 (Central Standard Time),187550.10000002384,A,wi,O,i,267,1,4180.800000011921,183369.30000001192,7069,WL,B,8.0
1,39.438000202178955,learn,20561.999797821045,Fri Feb 28 2025 10:36:35 GMT-0600 (Central Standard Time),187968.30000001192,A,wif,O,f,388,1,4599.0,183369.30000001192,7069,WL,B,8.0
1,39.604000091552734,learn,20395.999908447266,Fri Feb 28 2025 10:36:35 GMT-0600 (Central Standard Time),188134.5,A,wife,O,e,147,1,4765.199999988079,183369.30000001192,7069,WL,B,8.0
1,40.13800001144409,learn,19861.99998855591,Fri Feb 28 2025 10:36:35 GMT-0600 (Central Standard Time),188668.10000002384,A,wifeenter,O,enter,513,1,5298.800000011921,183369.30000001192,7069,WL,B,8.0
1,40.97100019454956,learn,19028.99980545044,Fri Feb 28 2025 10:36:35 GMT-0600 (Central Standard Time),189501.70000004768,A,d,O,d,813,1,833.2000000476837,188668.5,7069,WL,B,9.0
1,41.22000002861023,learn,18779.99997138977,Fri Feb 28 2025 10:36:35 GMT-0600 (Central Standard Time),189750.5,A,do,O,o,234,1,1082.0,188668.5,7069,WL,B,9.0
1,41.40300011634827,learn,18596.999883651733,Fri Feb 28 2025 10:36:35 GMT-0600 (Central Standard Time),189933.5,A,doo,O,o,162,1,1265.0,188668.5,7069,WL,B,9.0
1,41.57000017166138,learn,18429.999828338623,Fri Feb 28 2025 10:36:35 GMT-0600 (Central Standard Time),190099.90000003576,A,door,O,r,156,1,1431.4000000357628,188668.5,7069,WL,B,9.0
1,42.086000204086304,learn,17913.999795913696,Fri Feb 28 2025 10:36:35 GMT-0600 (Central Standard Time),190616.5,A,doorenter,O,enter,502,1,1948.0,188668.5,7069,WL,B,9.0
1,43.652000188827515,learn,16347.999811172485,Fri Feb 28 2025 10:36:35 GMT-0600 (Central Standard Time),192182.90000003576,A,p,O,p,1554,1,1566.1000000238419,190616.80000001192,7069,WL,B,10.0
1,43.9539999961853,learn,16046.000003814697,Fri Feb 28 2025 10:36:35 GMT-0600 (Central Standard Time),192484.10000002384,A,pi,O,i,283,1,1867.300000011921,190616.80000001192,7069,WL,B,10.0
1,44.236000061035156,learn,15763.999938964844,Fri Feb 28 2025 10:36:35 GMT-0600 (Central Standard Time),192766.10000002384,A,pip,O,p,261,1,2149.300000011921,190616.80000001192,7069,WL,B,10.0
1,44.50100016593933,learn,15498.999834060669,Fri Feb 28 2025 10:36:35 GMT-0600 (Central Standard Time),193031.70000004768,A,pipe,O,e,251,1,2414.900000035763,190616.80000001192,7069,WL,B,10.0
1,44.86900019645691,learn,15130.99980354309,Fri Feb 28 2025 10:36:35 GMT-0600 (Central Standard Time),193399.20000004768,A,pipeenter,O,enter,353,1,2782.400000035763,190616.80000001192,7069,WL,B,10.0
1,46.503000020980835,learn,13496.999979019165,Fri Feb 28 2025 10:36:35 GMT-0600 (Central Standard Time),195033.80000001192,A,s,O,s,1628,1,1634.300000011921,193399.5,7069,WL,B,11.0
1,47.00100016593933,learn,12998.999834060669,Fri Feb 28 2025 10:36:35 GMT-0600 (Central Standard Time),195531.70000004768,A,sk,O,k,487,1,2132.2000000476837,193399.5,7069,WL,B,11.0
1,47.18400001525879,learn,12815.999984741211,Fri Feb 28 2025 10:36:35 GMT-0600 (Central Standard Time),195714.80000001192,A,ski,O,i,173,1,2315.300000011921,193399.5,7069,WL,B,11.0
1,47.78500008583069,learn,12214.999914169312,Fri Feb 28 2025 10:36:35 GMT-0600 (Central Standard Time),196315.40000003576,A,skin,O,n,577,1,2915.900000035763,193399.5,7069,WL,B,11.0
1,48.318000078201294,learn,11681.999921798706,Fri Feb 28 2025 10:36:35 GMT-0600 (Central Standard Time),196848.30000001192,A,skinenter,O,enter,527,1,3448.800000011921,193399.5,7069,WL,B,11.0
1,56.89800000190735,learn,3101.9999980926514,Fri Feb 28 2025 10:36:35 GMT-0600 (Central Standard Time),205427.90000003576,A,c,O,c,8562,1,8579.199999988079,196848.70000004768,7069,WL,B,12.0
1,57.13300013542175,learn,2866.999864578247,Fri Feb 28 2025 10:36:35 GMT-0600 (Central Standard Time),205663.0,A,ca,O,a,212,1,8814.299999952316,196848.70000004768,7069,WL,B,12.0
1,57.46500015258789,learn,2534.9998474121094,Fri Feb 28 2025 10:36:35 GMT-0600 (Central Standard Time),205995.0,A,cab,O,b,324,1,9146.299999952316,196848.70000004768,7069,WL,B,12.0
1,57.73100018501282,learn,2268.9998149871826,Fri Feb 28 2025 10:36:35 GMT-0600 (Central Standard Time),206261.60000002384,A,cabi,O,i,254,1,9412.899999976158,196848.70000004768,7069,WL,B,12.0
1,57.94800019264221,learn,2051.999807357788,Fri Feb 28 2025 10:36:35 GMT-0600 (Central Standard Time),206478.0,A,cabin,O,n,204,1,9629.299999952316,196848.70000004768,7069,WL,B,12.0
1,58.53000020980835,learn,1469.9997901916504,Fri Feb 28 2025 10:36:35 GMT-0600 (Central Standard Time),207060.10000002384,A,cabinenter,O,enter,571,1,10211.399999976158,196848.70000004768,7069,WL,B,12.0
1,60.015000104904175,learn,-15.000104904174805,Fri Feb 28 2025 10:36:35 GMT-0600 (Central Standard Time),208545.10000002384,A,None,O,None,1480,1,1484.699999988079,207060.40000003576,7069,WL,B,13.0
2,0.9330000877380371,learn,59066.99991226196,Fri Feb 28 2025 10:36:35 GMT-0600 (Central Standard Time),292684.3000000119,A,s,O,s,922,1,933.3000000119209,291751.0,7069,WL,B,1.0
2,1.3500001430511475,learn,58649.99985694885,Fri Feb 28 2025 10:36:35 GMT-0600 (Central Standard Time),293101.0,A,st,O,t,405,1,1350.0,291751.0,7069,WL,B,1.0
2,1.6000001430511475,learn,58399.99985694885,Fri Feb 28 2025 10:36:35 GMT-0600 (Central Standard Time),293351.40000003576,A,str,O,r,238,1,1600.4000000357628,291751.0,7069,WL,B,1.0
2,1.8650000095367432,learn,58134.99999046326,Fri Feb 28 2025 10:36:35 GMT-0600 (Central Standard Time),293616.8000000119,A,stre,O,e,250,1,1865.800000011921,291751.0,7069,WL,B,1.0
2,2.0169999599456787,learn,57983.00004005432,Fri Feb 28 2025 10:36:35 GMT-0600 (Central Standard Time),293768.3000000119,A,stree,O,e,144,1,2017.300000011921,291751.0,7069,WL,B,1.0
2,2.2990000247955322,learn,57700.99997520447,Fri Feb 28 2025 10:36:35 GMT-0600 (Central Standard Time),294050.40000003576,A,street,O,t,271,1,2299.400000035763,291751.0,7069,WL,B,1.0
2,4.514000177383423,learn,55485.99982261658,Fri Feb 28 2025 10:36:35 GMT-0600 (Central Standard Time),296265.60000002384,A,stree,O,backspace,2195,1,4514.600000023842,291751.0,7069,WL,B,1.0
2,5.683000087738037,learn,54316.99991226196,Fri Feb 28 2025 10:36:35 GMT-0600 (Central Standard Time),297434.2000000477,A,street,O,t,1160,1,5683.200000047684,291751.0,7069,WL,B,1.0
2,5.998000144958496,learn,54001.999855041504,Fri Feb 28 2025 10:36:35 GMT-0600 (Central Standard Time),297749.3000000119,A,streetenter,O,enter,302,1,5998.300000011921,291751.0,7069,WL,B,1.0
2,6.8480000495910645,learn,53151.999950408936,Fri Feb 28 2025 10:36:35 GMT-0600 (Central Standard Time),298599.7000000477,A,g,O,g,836,1,850.1000000238419,297749.60000002384,7069,WL,B,2.0
2,6.980000019073486,learn,53019.999980926514,Fri Feb 28 2025 10:36:35 GMT-0600 (Central Standard Time),298732.40000003576,A,gr,O,r,122,1,982.8000000119209,297749.60000002384,7069,WL,B,2.0
2,7.330000162124634,learn,52669.999837875366,Fri Feb 28 2025 10:36:35 GMT-0600 (Central Standard Time),299082.2000000477,A,gra,O,a,327,1,1332.6000000238419,297749.60000002384,7069,WL,B,2.0
2,7.730000019073486,learn,52269.999980926514,Fri Feb 28 2025 10:36:35 GMT-0600 (Central Standard Time),299481.60000002384,A,gras,O,s,378,1,1732.0,297749.60000002384,7069,WL,B,2.0
2,7.864000082015991,learn,52135.99991798401,Fri Feb 28 2025 10:36:35 GMT-0600 (Central Standard Time),299616.3000000119,A,grass,O,s,125,1,1866.699999988079,297749.60000002384,7069,WL,B,2.0
2,8.27999997138977,learn,51720.00002861023,Fri Feb 28 2025 10:36:35 GMT-0600 (Central Standard Time),300032.60000002384,A,grassenter,O,enter,397,1,2283.0,297749.60000002384,7069,WL,B,2.0
2,9.880000114440918,learn,50119.99988555908,Fri Feb 28 2025 10:36:35 GMT-0600 (Central Standard Time),301631.7000000477,A,p,O,p,1586,1,1598.800000011921,300032.90000003576,7069,WL,B,3.0
2,10.146000146865845,learn,49853.999853134155,Fri Feb 28 2025 10:36:35 GMT-0600 (Central Standard Time),301897.90000003576,A,pi,O,i,250,1,1865.0,300032.90000003576,7069,WL,B,3.0
2,10.481000185012817,learn,49518.99981498718,Fri Feb 28 2025 10:36:35 GMT-0600 (Central Standard Time),302232.8000000119,A,pip,O,p,326,1,2199.899999976158,300032.90000003576,7069,WL,B,3.0
2,10.779000043869019,learn,49220.99995613098,Fri Feb 28 2025 10:36:35 GMT-0600 (Central Standard Time),302531.2000000477,A,pipe,O,e,279,1,2498.300000011921,300032.90000003576,7069,WL,B,3.0
2,11.111000061035156,learn,48888.999938964844,Fri Feb 28 2025 10:36:35 GMT-0600 (Central Standard Time),302863.60000002384,A,pipeenter,O,enter,316,1,2830.699999988079,300032.90000003576,7069,WL,B,3.0
2,11.595999956130981,learn,48404.00004386902,Fri Feb 28 2025 10:36:35 GMT-0600 (Central Standard Time),303347.7000000477,A,l,O,l,466,1,483.9000000357628,302863.8000000119,7069,WL,B,4.0
2,12.045000076293945,learn,47954.999923706055,Fri Feb 28 2025 10:36:35 GMT-0600 (Central Standard Time),303797.3000000119,A,la,O,a,426,1,933.5,302863.8000000119,7069,WL,B,4.0
2,12.212000131607056,learn,47787.999868392944,Fri Feb 28 2025 10:36:35 GMT-0600 (Central Standard Time),303964.2000000477,A,lak,O,k,147,1,1100.4000000357628,302863.8000000119,7069,WL,B,4.0
2,12.379000186920166,learn,47620.999813079834,Fri Feb 28 2025 10:36:35 GMT-0600 (Central Standard Time),304131.5,A,lake,O,e,149,1,1267.699999988079,302863.8000000119,7069,WL,B,4.0
2,12.77999997138977,learn,47220.00002861023,Fri Feb 28 2025 10:36:35 GMT-0600 (Central Standard Time),304532.40000003576,A,lakeenter,O,enter,380,1,1668.6000000238419,302863.8000000119,7069,WL,B,4.0
2,13.26200008392334,learn,46737.99991607666,Fri Feb 28 2025 10:36:35 GMT-0600 (Central Standard Time),305014.10000002384,A,s,O,s,462,1,481.10000002384186,304533.0,7069,WL,B,5.0
2,13.561000108718872,learn,46438.99989128113,Fri Feb 28 2025 10:36:35 GMT-0600 (Central Standard Time),305312.8000000119,A,sk,O,k,284,1,779.8000000119209,304533.0,7069,WL,B,5.0
2,13.761000156402588,learn,46238.99984359741,Fri Feb 28 2025 10:36:35 GMT-0600 (Central Standard Time),305513.10000002384,A,ski,O,i,183,1,980.1000000238419,304533.0,7069,WL,B,5.0
2,14.028000116348267,learn,45971.99988365173,Fri Feb 28 2025 10:36:35 GMT-0600 (Central Standard Time),305779.8000000119,A,skin,O,n,255,1,1246.800000011921,304533.0,7069,WL,B,5.0
2,14.527000188827515,learn,45472.999811172485,Fri Feb 28 2025 10:36:35 GMT-0600 (Central Standard Time),306279.5,A,skinenter,O,enter,484,1,1746.5,304533.0,7069,WL,B,5.0
2,14.728000164031982,learn,45271.99983596802,Fri Feb 28 2025 10:36:35 GMT-0600 (Central Standard Time),306480.40000003576,A,a,O,a,179,1,200.60000002384186,306279.8000000119,7069,WL,B,6.0
2,15.013000011444092,learn,44986.99998855591,Fri Feb 28 2025 10:36:35 GMT-0600 (Central Standard Time),306765.0,A,ar,O,r,264,1,485.19999998807907,306279.8000000119,7069,WL,B,6.0
2,15.296000003814697,learn,44703.9999961853,Fri Feb 28 2025 10:36:35 GMT-0600 (Central Standard Time),307047.8000000119,A,arn,O,n,268,1,768.0,306279.8000000119,7069,WL,B,6.0
2,15.794000148773193,learn,44205.99985122681,Fri Feb 28 2025 10:36:35 GMT-0600 (Central Standard Time),307546.3000000119,A,ar,O,backspace,482,1,1266.5,306279.8000000119,7069,WL,B,6.0
2,16.195000171661377,learn,43804.99982833862,Fri Feb 28 2025 10:36:35 GMT-0600 (Central Standard Time),307946.7000000477,A,arm,O,m,382,1,1666.9000000357628,306279.8000000119,7069,WL,B,6.0
2,16.542999982833862,learn,43457.00001716614,Fri Feb 28 2025 10:36:35 GMT-0600 (Central Standard Time),308295.3000000119,A,armenter,O,enter,328,1,2015.5,306279.8000000119,7069,WL,B,6.0
2,19.093000173568726,learn,40906.999826431274,Fri Feb 28 2025 10:36:35 GMT-0600 (Central Standard Time),310844.7000000477,A,s,O,s,2538,1,2549.100000023842,308295.60000002384,7069,WL,B,7.0
2,19.39199995994568,learn,40608.00004005432,Fri Feb 28 2025 10:36:35 GMT-0600 (Central Standard Time),311143.7000000477,A,st,O,t,284,1,2848.100000023842,308295.60000002384,7069,WL,B,7.0
2,20.026000022888184,learn,39973.99997711182,Fri Feb 28 2025 10:36:35 GMT-0600 (Central Standard Time),311778.2000000477,A,sta,O,a,618,1,3482.600000023842,308295.60000002384,7069,WL,B,7.0
2,20.29200005531311,learn,39707.99994468689,Fri Feb 28 2025 10:36:35 GMT-0600 (Central Standard Time),312043.90000003576,A,star,O,r,256,1,3748.300000011921,308295.60000002384,7069,WL,B,7.0
2,20.79200005531311,learn,39207.99994468689,Fri Feb 28 2025 10:36:35 GMT-0600 (Central Standard Time),312544.40000003576,A,starenter,O,enter,494,1,4248.800000011921,308295.60000002384,7069,WL,B,7.0
2,22.30900001525879,learn,37690.99998474121,Fri Feb 28 2025 10:36:35 GMT-0600 (Central Standard Time),314061.0,A,a,O,a,1505,1,1516.2999999523163,312544.7000000477,7069,WL,B,8.0
2,22.542999982833862,learn,37457.00001716614,Fri Feb 28 2025 10:36:35 GMT-0600 (Central Standard Time),314294.90000003576,A,ar,O,r,214,1,1750.199999988079,312544.7000000477,7069,WL,B,8.0
2,22.926000118255615,learn,37073.999881744385,Fri Feb 28 2025 10:36:35 GMT-0600 (Central Standard Time),314678.10000002384,A,arm,O,m,361,1,2133.399999976158,312544.7000000477,7069,WL,B,8.0
2,23.424000024795532,learn,36575.99997520447,Fri Feb 28 2025 10:36:35 GMT-0600 (Central Standard Time),315176.5,A,armenter,O,enter,484,1,2631.7999999523163,312544.7000000477,7069,WL,B,8.0
2,26.508000135421753,learn,33491.99986457825,Fri Feb 28 2025 10:36:35 GMT-0600 (Central Standard Time),318259.90000003576,A,w,O,w,3073,1,3083.100000023842,315176.8000000119,7069,WL,B,9.0
2,26.77400016784668,learn,33225.99983215332,Fri Feb 28 2025 10:36:35 GMT-0600 (Central Standard Time),318526.0,A,wi,O,i,255,1,3349.199999988079,315176.8000000119,7069,WL,B,9.0
2,26.957000017166138,learn,33042.99998283386,Fri Feb 28 2025 10:36:35 GMT-0600 (Central Standard Time),318708.90000003576,A,win,O,n,172,1,3532.100000023842,315176.8000000119,7069,WL,B,9.0
2,27.473999977111816,learn,32526.000022888184,Fri Feb 28 2025 10:36:35 GMT-0600 (Central Standard Time),319225.8000000119,A,wind,O,d,513,1,4049.0,315176.8000000119,7069,WL,B,9.0
2,27.706000089645386,learn,32293.999910354614,Fri Feb 28 2025 10:36:35 GMT-0600 (Central Standard Time),319458.60000002384,A,windo,O,o,226,1,4281.800000011921,315176.8000000119,7069,WL,B,9.0
2,27.874000072479248,learn,32125.999927520752,Fri Feb 28 2025 10:36:35 GMT-0600 (Central Standard Time),319626.10000002384,A,window,O,w,158,1,4449.300000011921,315176.8000000119,7069,WL,B,9.0
2,28.44099998474121,learn,31559.00001525879,Fri Feb 28 2025 10:36:35 GMT-0600 (Central Standard Time),320193.5,A,windowenter,O,enter,551,1,5016.699999988079,315176.8000000119,7069,WL,B,9.0
2,29.139000177383423,learn,30860.999822616577,Fri Feb 28 2025 10:36:35 GMT-0600 (Central Standard Time),320891.2000000477,A,c,O,c,689,1,697.5,320193.7000000477,7069,WL,B,10.0
2,29.32200002670288,learn,30677.99997329712,Fri Feb 28 2025 10:36:35 GMT-0600 (Central Standard Time),321074.3000000119,A,ci,O,i,167,1,880.5999999642372,320193.7000000477,7069,WL,B,10.0
2,29.789000034332275,learn,30210.999965667725,Fri Feb 28 2025 10:36:35 GMT-0600 (Central Standard Time),321541.0,A,cit,O,t,455,1,1347.2999999523163,320193.7000000477,7069,WL,B,10.0
2,30.02400016784668,learn,29975.99983215332,Fri Feb 28 2025 10:36:35 GMT-0600 (Central Standard Time),321775.60000002384,A,city,O,y,214,1,1581.8999999761581,320193.7000000477,7069,WL,B,10.0
2,30.32200002670288,learn,29677.99997329712,Fri Feb 28 2025 10:36:35 GMT-0600 (Central Standard Time),322074.2000000477,A,cityenter,O,enter,291,1,1880.5,320193.7000000477,7069,WL,B,10.0
2,30.77400016784668,learn,29225.99983215332,Fri Feb 28 2025 10:36:35 GMT-0600 (Central Standard Time),322525.8000000119,A,p,O,p,431,1,451.30000001192093,322074.5,7069,WL,B,11.0
2,31.289000034332275,learn,28710.999965667725,Fri Feb 28 2025 10:36:35 GMT-0600 (Central Standard Time),323041.60000002384,A,pu,O,u,501,1,967.1000000238419,322074.5,7069,WL,B,11.0
2,31.772000074386597,learn,28227.999925613403,Fri Feb 28 2025 10:36:35 GMT-0600 (Central Standard Time),323524.0,A,pup,O,p,473,1,1449.5,322074.5,7069,WL,B,11.0
2,32.0550000667572,learn,27944.999933242798,Fri Feb 28 2025 10:36:35 GMT-0600 (Central Standard Time),323807.40000003576,A,pupi,O,i,270,1,1732.9000000357628,322074.5,7069,WL,B,11.0
2,32.456000089645386,learn,27543.999910354614,Fri Feb 28 2025 10:36:35 GMT-0600 (Central Standard Time),324208.60000002384,A,pupil,O,l,396,1,2134.100000023842,322074.5,7069,WL,B,11.0
2,32.955000162124634,learn,27044.999837875366,Fri Feb 28 2025 10:36:35 GMT-0600 (Central Standard Time),324707.0,A,pupilenter,O,enter,481,1,2632.5,322074.5,7069,WL,B,11.0
2,35.5550000667572,learn,24444.999933242798,Fri Feb 28 2025 10:36:35 GMT-0600 (Central Standard Time),327306.90000003576,A,c,O,c,2595,1,2599.600000023842,324707.3000000119,7069,WL,B,12.0
2,35.75600004196167,learn,24243.99995803833,Fri Feb 28 2025 10:36:35 GMT-0600 (Central Standard Time),327508.10000002384,A,cl,O,l,178,1,2800.800000011921,324707.3000000119,7069,WL,B,12.0
2,36.004000186920166,learn,23995.999813079834,Fri Feb 28 2025 10:36:35 GMT-0600 (Central Standard Time),327756.0,A,clo,O,o,229,1,3048.699999988079,324707.3000000119,7069,WL,B,12.0
2,36.25699996948242,learn,23743.000030517578,Fri Feb 28 2025 10:36:35 GMT-0600 (Central Standard Time),328009.2000000477,A,cloc,O,c,235,1,3301.900000035763,324707.3000000119,7069,WL,B,12.0
2,36.6710000038147,learn,23328.999996185303,Fri Feb 28 2025 10:36:35 GMT-0600 (Central Standard Time),328423.40000003576,A,clock,O,k,401,1,3716.100000023842,324707.3000000119,7069,WL,B,12.0
2,37.253000020980835,learn,22746.999979019165,Fri Feb 28 2025 10:36:35 GMT-0600 (Central Standard Time),329005.3000000119,A,clockenter,O,enter,563,1,4298.0,324707.3000000119,7069,WL,B,12.0
2,46.884000062942505,learn,13115.999937057495,Fri Feb 28 2025 10:36:35 GMT-0600 (Central Standard Time),338636.5,A,w,O,w,9612,1,9630.899999976158,329005.60000002384,7069,WL,B,13.0
2,47.18600010871887,learn,12813.999891281128,Fri Feb 28 2025 10:36:35 GMT-0600 (Central Standard Time),338938.10000002384,A,wi,O,i,297,1,9932.5,329005.60000002384,7069,WL,B,13.0
2,48.20099997520447,learn,11799.000024795532,Fri Feb 28 2025 10:36:35 GMT-0600 (Central Standard Time),339952.90000003576,A,wif,O,f,1009,1,10947.300000011921,329005.60000002384,7069,WL,B,13.0
2,48.467000007629395,learn,11532.999992370605,Fri Feb 28 2025 10:36:35 GMT-0600 (Central Standard Time),340219.40000003576,A,wife,O,e,257,1,11213.800000011921,329005.60000002384,7069,WL,B,13.0
2,48.90000009536743,learn,11099.999904632568,Fri Feb 28 2025 10:36:35 GMT-0600 (Central Standard Time),340652.0,A,wifeenter,O,enter,415,1,11646.399999976158,329005.60000002384,7069,WL,B,13.0
2,60.015000104904175,learn,-15.000104904174805,Fri Feb 28 2025 10:36:35 GMT-0600 (Central Standard Time),351767.0,A,None,O,None,11110,1,11114.799999952316,340652.2000000477,7069,WL,B,14.0
3,0.5140001773834229,learn,59485.99982261658,Fri Feb 28 2025 10:36:35 GMT-0600 (Central Standard Time),429689.10000002384,A,s,O,s,507,1,514.3999999761581,429174.7000000477,7069,WL,B,1.0
3,0.9820001125335693,learn,59017.99988746643,Fri Feb 28 2025 10:36:35 GMT-0600 (Central Standard Time),430156.8000000119,A,st,O,t,455,1,982.0999999642372,429174.7000000477,7069,WL,B,1.0
3,1.249000072479248,learn,58750.99992752075,Fri Feb 28 2025 10:36:35 GMT-0600 (Central Standard Time),430423.7000000477,A,str,O,r,253,1,1249.0,429174.7000000477,7069,WL,B,1.0
3,1.5980000495910645,learn,58401.999950408936,Fri Feb 28 2025 10:36:35 GMT-0600 (Central Standard Time),430773.3000000119,A,stre,O,e,329,1,1598.5999999642372,429174.7000000477,7069,WL,B,1.0
3,1.7650001049041748,learn,58234.999895095825,Fri Feb 28 2025 10:36:35 GMT-0600 (Central Standard Time),430939.5,A,stree,O,e,146,1,1764.7999999523163,429174.7000000477,7069,WL,B,1.0
3,1.9820001125335693,learn,58017.99988746643,Fri Feb 28 2025 10:36:35 GMT-0600 (Central Standard Time),431156.90000003576,A,street,O,t,198,1,1982.199999988079,429174.7000000477,7069,WL,B,1.0
3,2.3990001678466797,learn,57600.99983215332,Fri Feb 28 2025 10:36:35 GMT-0600 (Central Standard Time),431573.60000002384,A,streetenter,O,enter,405,1,2398.899999976158,429174.7000000477,7069,WL,B,1.0
3,2.8489999771118164,learn,57151.00002288818,Fri Feb 28 2025 10:36:35 GMT-0600 (Central Standard Time),432023.7000000477,A,g,O,g,439,1,449.80000001192093,431573.90000003576,7069,WL,B,2.0
3,3.015000104904175,learn,56984.999895095825,Fri Feb 28 2025 10:36:35 GMT-0600 (Central Standard Time),432189.60000002384,A,gr,O,r,156,1,615.6999999880791,431573.90000003576,7069,WL,B,2.0
3,3.2980000972747803,learn,56701.99990272522,Fri Feb 28 2025 10:36:35 GMT-0600 (Central Standard Time),432472.5,A,gra,O,a,267,1,898.5999999642372,431573.90000003576,7069,WL,B,2.0
3,3.6649999618530273,learn,56335.00003814697,Fri Feb 28 2025 10:36:35 GMT-0600 (Central Standard Time),432839.60000002384,A,gras,O,s,344,1,1265.699999988079,431573.90000003576,7069,WL,B,2.0
3,3.8489999771118164,learn,56151.00002288818,Fri Feb 28 2025 10:36:35 GMT-0600 (Central Standard Time),433024.10000002384,A,grass,O,s,178,1,1450.199999988079,431573.90000003576,7069,WL,B,2.0
3,4.164000034332275,learn,55835.999965667725,Fri Feb 28 2025 10:36:35 GMT-0600 (Central Standard Time),433338.5,A,grassenter,O,enter,296,1,1764.5999999642372,431573.90000003576,7069,WL,B,2.0
3,5.014000177383423,learn,54985.99982261658,Fri Feb 28 2025 10:36:35 GMT-0600 (Central Standard Time),434189.2000000477,A,a,O,a,832,1,850.4000000357628,433338.8000000119,7069,WL,B,3.0
3,5.41700005531311,learn,54582.99994468689,Fri Feb 28 2025 10:36:35 GMT-0600 (Central Standard Time),434591.5,A,ar,O,r,379,1,1252.699999988079,433338.8000000119,7069,WL,B,3.0
3,5.89900016784668,learn,54100.99983215332,Fri Feb 28 2025 10:36:35 GMT-0600 (Central Standard Time),435073.5,A,arn,O,n,474,1,1734.699999988079,433338.8000000119,7069,WL,B,3.0
3,6.496999979019165,learn,53503.000020980835,Fri Feb 28 2025 10:36:35 GMT-0600 (Central Standard Time),435671.90000003576,A,ar,O,backspace,584,1,2333.100000023842,433338.8000000119,7069,WL,B,3.0
3,6.814000129699707,learn,53185.99987030029,Fri Feb 28 2025 10:36:35 GMT-0600 (Central Standard Time),435988.7000000477,A,arm,O,m,298,1,2649.900000035763,433338.8000000119,7069,WL,B,3.0
3,7.065000057220459,learn,52934.99994277954,Fri Feb 28 2025 10:36:35 GMT-0600 (Central Standard Time),436240.0,A,armenter,O,enter,245,1,2901.199999988079,433338.8000000119,7069,WL,B,3.0
3,8.463000059127808,learn,51536.99994087219,Fri Feb 28 2025 10:36:35 GMT-0600 (Central Standard Time),437638.0,A,s,O,s,1386,1,1397.699999988079,436240.3000000119,7069,WL,B,4.0
3,8.779000043869019,learn,51220.99995613098,Fri Feb 28 2025 10:36:35 GMT-0600 (Central Standard Time),437954.2000000477,A,st,O,t,298,1,1713.9000000357628,436240.3000000119,7069,WL,B,4.0
3,9.029000043869019,learn,50970.99995613098,Fri Feb 28 2025 10:36:35 GMT-0600 (Central Standard Time),438204.2000000477,A,sta,O,a,231,1,1963.9000000357628,436240.3000000119,7069,WL,B,4.0
3,9.263000011444092,learn,50736.99998855591,Fri Feb 28 2025 10:36:35 GMT-0600 (Central Standard Time),438438.3000000119,A,star,O,r,212,1,2198.0,436240.3000000119,7069,WL,B,4.0
3,9.812000036239624,learn,50187.999963760376,Fri Feb 28 2025 10:36:35 GMT-0600 (Central Standard Time),438987.10000002384,A,starenter,O,enter,530,1,2746.800000011921,436240.3000000119,7069,WL,B,4.0
3,10.462000131607056,learn,49537.999868392944,Fri Feb 28 2025 10:36:35 GMT-0600 (Central Standard Time),439636.90000003576,A,w,O,w,640,1,649.5,438987.40000003576,7069,WL,B,5.0
3,10.84500002861023,learn,49154.99997138977,Fri Feb 28 2025 10:36:35 GMT-0600 (Central Standard Time),440019.7000000477,A,wi,O,i,363,1,1032.300000011921,438987.40000003576,7069,WL,B,5.0
3,11.263000011444092,learn,48736.99998855591,Fri Feb 28 2025 10:36:35 GMT-0600 (Central Standard Time),440437.60000002384,A,wif,O,f,404,1,1450.199999988079,438987.40000003576,7069,WL,B,5.0
3,11.529000043869019,learn,48470.99995613098,Fri Feb 28 2025 10:36:35 GMT-0600 (Central Standard Time),440703.5,A,wife,O,e,251,1,1716.0999999642372,438987.40000003576,7069,WL,B,5.0
3,11.794000148773193,learn,48205.99985122681,Fri Feb 28 2025 10:36:35 GMT-0600 (Central Standard Time),440968.7000000477,A,wifeenter,O,enter,249,1,1981.300000011921,438987.40000003576,7069,WL,B,5.0
3,12.098000049591064,learn,47901.999950408936,Fri Feb 28 2025 10:36:35 GMT-0600 (Central Standard Time),441272.8000000119,A,w,O,w,298,1,303.80000001192093,440969.0,7069,WL,B,6.0
3,12.445000171661377,learn,47554.99982833862,Fri Feb 28 2025 10:36:35 GMT-0600 (Central Standard Time),441620.3000000119,A,wi,O,i,338,1,651.3000000119209,440969.0,7069,WL,B,6.0
3,12.644000053405762,learn,47355.99994659424,Fri Feb 28 2025 10:36:35 GMT-0600 (Central Standard Time),441819.40000003576,A,win,O,n,181,1,850.4000000357628,440969.0,7069,WL,B,6.0
3,12.861999988555908,learn,47138.00001144409,Fri Feb 28 2025 10:36:35 GMT-0600 (Central Standard Time),442036.60000002384,A,wind,O,d,197,1,1067.6000000238419,440969.0,7069,WL,B,6.0
3,13.07800006866455,learn,46921.99993133545,Fri Feb 28 2025 10:36:35 GMT-0600 (Central Standard Time),442252.60000002384,A,windo,O,o,204,1,1283.6000000238419,440969.0,7069,WL,B,6.0
3,13.26200008392334,learn,46737.99991607666,Fri Feb 28 2025 10:36:35 GMT-0600 (Central Standard Time),442436.8000000119,A,window,O,w,164,1,1467.800000011921,440969.0,7069,WL,B,6.0
3,13.978000164031982,learn,46021.99983596802,Fri Feb 28 2025 10:36:35 GMT-0600 (Central Standard Time),443153.3000000119,A,windowenter,O,enter,700,1,2184.300000011921,440969.0,7069,WL,B,6.0
3,16.777000188827515,learn,43222.999811172485,Fri Feb 28 2025 10:36:35 GMT-0600 (Central Standard Time),445952.10000002384,A,l,O,l,2786,1,2798.5,443153.60000002384,7069,WL,B,7.0
3,16.91100001335144,learn,43088.99998664856,Fri Feb 28 2025 10:36:35 GMT-0600 (Central Standard Time),446086.10000002384,A,la,O,a,121,1,2932.5,443153.60000002384,7069,WL,B,7.0
3,17.710999965667725,learn,42289.000034332275,Fri Feb 28 2025 10:36:35 GMT-0600 (Central Standard Time),446885.90000003576,A,lak,O,k,777,1,3732.300000011921,443153.60000002384,7069,WL,B,7.0
3,17.877000093460083,learn,42122.99990653992,Fri Feb 28 2025 10:36:35 GMT-0600 (Central Standard Time),447052.10000002384,A,lake,O,e,145,1,3898.5,443153.60000002384,7069,WL,B,7.0
3,18.360000133514404,learn,41639.999866485596,Fri Feb 28 2025 10:36:35 GMT-0600 (Central Standard Time),447534.40000003576,A,lakeenter,O,enter,468,1,4380.800000011921,443153.60000002384,7069,WL,B,7.0
3,18.794000148773193,learn,41205.99985122681,Fri Feb 28 2025 10:36:35 GMT-0600 (Central Standard Time),447969.10000002384,A,p,O,p,429,1,434.39999997615814,447534.7000000477,7069,WL,B,8.0
3,19.127000093460083,learn,40872.99990653992,Fri Feb 28 2025 10:36:35 GMT-0600 (Central Standard Time),448302.10000002384,A,pi,O,i,320,1,767.3999999761581,447534.7000000477,7069,WL,B,8.0
3,19.41000008583069,learn,40589.99991416931,Fri Feb 28 2025 10:36:35 GMT-0600 (Central Standard Time),448585.0,A,pip,O,p,267,1,1050.2999999523163,447534.7000000477,7069,WL,B,8.0
3,19.575999975204468,learn,40424.00002479553,Fri Feb 28 2025 10:36:35 GMT-0600 (Central Standard Time),448750.90000003576,A,pipe,O,e,152,1,1216.199999988079,447534.7000000477,7069,WL,B,8.0
3,20.17799997329712,learn,39822.00002670288,Fri Feb 28 2025 10:36:35 GMT-0600 (Central Standard Time),449352.7000000477,A,pipeenter,O,enter,598,1,1818.0,447534.7000000477,7069,WL,B,8.0
3,21.14199995994568,learn,38858.00004005432,Fri Feb 28 2025 10:36:35 GMT-0600 (Central Standard Time),450317.0,A,p,O,p,945,1,964.0,449353.0,7069,WL,B,9.0
3,21.56000018119812,learn,38439.99981880188,Fri Feb 28 2025 10:36:35 GMT-0600 (Central Standard Time),450734.5,A,pu,O,u,397,1,1381.5,449353.0,7069,WL,B,9.0
3,22.39199995994568,learn,37608.00004005432,Fri Feb 28 2025 10:36:35 GMT-0600 (Central Standard Time),451567.0,A,pup,O,p,819,1,2214.0,449353.0,7069,WL,B,9.0
3,22.693000078201294,learn,37306.999921798706,Fri Feb 28 2025 10:36:35 GMT-0600 (Central Standard Time),451867.3000000119,A,pupi,O,i,283,1,2514.300000011921,449353.0,7069,WL,B,9.0
3,23.60800004005432,learn,36391.99995994568,Fri Feb 28 2025 10:36:35 GMT-0600 (Central Standard Time),452782.60000002384,A,pupil,O,l,903,1,3429.600000023842,449353.0,7069,WL,B,9.0
3,24.874000072479248,learn,35125.99992752075,Fri Feb 28 2025 10:36:35 GMT-0600 (Central Standard Time),454049.10000002384,A,pupilenter,O,enter,1249,1,4696.100000023842,449353.0,7069,WL,B,9.0
3,25.742000102996826,learn,34257.999897003174,Fri Feb 28 2025 10:36:35 GMT-0600 (Central Standard Time),454916.5,A,f,O,f,849,1,867.0999999642372,454049.40000003576,7069,WL,B,10.0
3,26.009000062942505,learn,33990.999937057495,Fri Feb 28 2025 10:36:35 GMT-0600 (Central Standard Time),455183.7000000477,A,fi,O,i,245,1,1134.300000011921,454049.40000003576,7069,WL,B,10.0
3,26.20800018310547,learn,33791.99981689453,Fri Feb 28 2025 10:36:35 GMT-0600 (Central Standard Time),455383.0,A,fir,O,r,186,1,1333.5999999642372,454049.40000003576,7069,WL,B,10.0
3,26.55900001525879,learn,33440.99998474121,Fri Feb 28 2025 10:36:35 GMT-0600 (Central Standard Time),455733.90000003576,A,fire,O,e,332,1,1684.5,454049.40000003576,7069,WL,B,10.0
3,27.02500009536743,learn,32974.99990463257,Fri Feb 28 2025 10:36:35 GMT-0600 (Central Standard Time),456199.90000003576,A,fireenter,O,enter,459,1,2150.5,454049.40000003576,7069,WL,B,10.0
3,30.057000160217285,learn,29942.999839782715,Fri Feb 28 2025 10:36:35 GMT-0600 (Central Standard Time),459231.8000000119,A,c,O,c,3019,1,3031.5,456200.3000000119,7069,WL,B,11.0
3,30.27300000190735,learn,29726.99999809265,Fri Feb 28 2025 10:36:35 GMT-0600 (Central Standard Time),459448.2000000477,A,cl,O,l,194,1,3247.900000035763,456200.3000000119,7069,WL,B,11.0
3,30.475000143051147,learn,29524.999856948853,Fri Feb 28 2025 10:36:35 GMT-0600 (Central Standard Time),459649.90000003576,A,clo,O,o,195,1,3449.600000023842,456200.3000000119,7069,WL,B,11.0
3,30.69000005722046,learn,29309.99994277954,Fri Feb 28 2025 10:36:35 GMT-0600 (Central Standard Time),459864.90000003576,A,cloc,O,c,208,1,3664.600000023842,456200.3000000119,7069,WL,B,11.0
3,31.022000074386597,learn,28977.999925613403,Fri Feb 28 2025 10:36:35 GMT-0600 (Central Standard Time),460197.3000000119,A,clock,O,k,312,1,3997.0,456200.3000000119,7069,WL,B,11.0
3,31.605000019073486,learn,28394.999980926514,Fri Feb 28 2025 10:36:35 GMT-0600 (Central Standard Time),460780.2000000477,A,clockenter,O,enter,572,1,4579.900000035763,456200.3000000119,7069,WL,B,11.0
3,31.98900008201599,learn,28010.99991798401,Fri Feb 28 2025 10:36:35 GMT-0600 (Central Standard Time),461164.0,A,c,O,c,373,1,383.5,460780.5,7069,WL,B,12.0
3,32.22200012207031,learn,27777.999877929688,Fri Feb 28 2025 10:36:35 GMT-0600 (Central Standard Time),461397.10000002384,A,ca,O,a,223,1,616.6000000238419,460780.5,7069,WL,B,12.0
3,32.52300000190735,learn,27476.99999809265,Fri Feb 28 2025 10:36:35 GMT-0600 (Central Standard Time),461697.40000003576,A,cab,O,b,285,1,916.9000000357628,460780.5,7069,WL,B,12.0
3,32.805999994277954,learn,27194.000005722046,Fri Feb 28 2025 10:36:35 GMT-0600 (Central Standard Time),461980.40000003576,A,cabi,O,i,262,1,1199.9000000357628,460780.5,7069,WL,B,12.0
3,33.00600004196167,learn,26993.99995803833,Fri Feb 28 2025 10:36:35 GMT-0600 (Central Standard Time),462180.90000003576,A,cabin,O,n,180,1,1400.4000000357628,460780.5,7069,WL,B,12.0
3,33.73800015449524,learn,26261.99984550476,Fri Feb 28 2025 10:36:35 GMT-0600 (Central Standard Time),462912.40000003576,A,cabinenter,O,enter,717,1,2131.900000035763,460780.5,7069,WL,B,12.0
3,49.74900007247925,learn,10250.999927520752,Fri Feb 28 2025 10:36:35 GMT-0600 (Central Standard Time),478924.5,A,s,O,s,16003,1,16011.899999976158,462912.60000002384,7069,WL,B,13.0
3,49.88300013542175,learn,10116.999864578247,Fri Feb 28 2025 10:36:35 GMT-0600 (Central Standard Time),479058.2000000477,A,sk,O,k,116,1,16145.600000023842,462912.60000002384,7069,WL,B,13.0
3,50.748000144958496,learn,9251.999855041504,Fri Feb 28 2025 10:36:35 GMT-0600 (Central Standard Time),479923.40000003576,A,ski,O,i,856,1,17010.80000001192,462912.60000002384,7069,WL,B,13.0
3,51.467000007629395,learn,8532.999992370605,Fri Feb 28 2025 10:36:35 GMT-0600 (Central Standard Time),480642.2000000477,A,skin,O,n,713,1,17729.600000023842,462912.60000002384,7069,WL,B,13.0
3,52.049999952316284,learn,7950.000047683716,Fri Feb 28 2025 10:36:35 GMT-0600 (Central Standard Time),481225.40000003576,A,skinenter,O,enter,568,1,18312.80000001192,462912.60000002384,7069,WL,B,13.0
3,60.01400017738342,learn,-14.000177383422852,Fri Feb 28 2025 10:36:35 GMT-0600 (Central Standard Time),489189.7000000477,A,None,O,None,7958,1,7964.100000023842,481225.60000002384,7069,WL,B,14.0
4,0.2840001583099365,learn,59715.99984169006,Fri Feb 28 2025 10:36:35 GMT-0600 (Central Standard Time),571030.0,A,s,O,s,265,1,284.69999998807907,570745.3000000119,7069,WL,B,1.0
4,0.8830001354217529,learn,59116.99986457825,Fri Feb 28 2025 10:36:35 GMT-0600 (Central Standard Time),571628.8000000119,A,st,O,t,579,1,883.5,570745.3000000119,7069,WL,B,1.0
4,1.2330000400543213,learn,58766.99995994568,Fri Feb 28 2025 10:36:35 GMT-0600 (Central Standard Time),571978.3000000119,A,str,O,r,342,1,1233.0,570745.3000000119,7069,WL,B,1.0
4,1.5169999599456787,learn,58483.00004005432,Fri Feb 28 2025 10:36:35 GMT-0600 (Central Standard Time),572262.3000000119,A,stre,O,e,271,1,1517.0,570745.3000000119,7069,WL,B,1.0
4,2.0329999923706055,learn,57967.000007629395,Fri Feb 28 2025 10:36:35 GMT-0600 (Central Standard Time),572778.6000000238,A,stree,O,e,507,1,2033.300000011921,570745.3000000119,7069,WL,B,1.0
4,2.384999990463257,learn,57615.00000953674,Fri Feb 28 2025 10:36:35 GMT-0600 (Central Standard Time),573130.5,A,street,O,t,345,1,2385.199999988079,570745.3000000119,7069,WL,B,1.0
4,3.515000104904175,learn,56484.999895095825,Fri Feb 28 2025 10:36:35 GMT-0600 (Central Standard Time),574260.8000000119,A,streetenter,O,enter,1118,1,3515.5,570745.3000000119,7069,WL,B,1.0
4,4.117000102996826,learn,55882.999897003174,Fri Feb 28 2025 10:36:35 GMT-0600 (Central Standard Time),574862.0,A,g,O,g,589,1,601.0,574261.0,7069,WL,B,2.0
4,4.265000104904175,learn,55734.999895095825,Fri Feb 28 2025 10:36:35 GMT-0600 (Central Standard Time),575010.7000000477,A,gr,O,r,132,1,749.7000000476837,574261.0,7069,WL,B,2.0
4,4.565999984741211,learn,55434.00001525879,Fri Feb 28 2025 10:36:35 GMT-0600 (Central Standard Time),575311.9000000358,A,gra,O,a,287,1,1050.9000000357628,574261.0,7069,WL,B,2.0
4,4.932000160217285,learn,55067.999839782715,Fri Feb 28 2025 10:36:35 GMT-0600 (Central Standard Time),575677.8000000119,A,gras,O,s,350,1,1416.800000011921,574261.0,7069,WL,B,2.0
4,5.113000154495239,learn,54886.99984550476,Fri Feb 28 2025 10:36:35 GMT-0600 (Central Standard Time),575859.0,A,grass,O,s,162,1,1598.0,574261.0,7069,WL,B,2.0
4,5.398000001907349,learn,54601.99999809265,Fri Feb 28 2025 10:36:35 GMT-0600 (Central Standard Time),576143.8000000119,A,grassenter,O,enter,278,1,1882.800000011921,574261.0,7069,WL,B,2.0
4,5.949000120162964,learn,54050.999879837036,Fri Feb 28 2025 10:36:35 GMT-0600 (Central Standard Time),576694.6000000238,A,d,O,d,538,1,550.5,576144.1000000238,7069,WL,B,3.0
4,6.233000040054321,learn,53766.99995994568,Fri Feb 28 2025 10:36:35 GMT-0600 (Central Standard Time),576978.3000000119,A,do,O,o,275,1,834.1999999880791,576144.1000000238,7069,WL,B,3.0
4,6.433000087738037,learn,53566.99991226196,Fri Feb 28 2025 10:36:35 GMT-0600 (Central Standard Time),577178.5,A,doo,O,o,193,1,1034.3999999761581,576144.1000000238,7069,WL,B,3.0
4,6.63100004196167,learn,53368.99995803833,Fri Feb 28 2025 10:36:35 GMT-0600 (Central Standard Time),577376.7000000477,A,door,O,r,175,1,1232.6000000238419,576144.1000000238,7069,WL,B,3.0
4,7.215000152587891,learn,52784.99984741211,Fri Feb 28 2025 10:36:35 GMT-0600 (Central Standard Time),577960.6000000238,A,doorenter,O,enter,577,1,1816.5,576144.1000000238,7069,WL,B,3.0
4,8.797000169754028,learn,51202.99983024597,Fri Feb 28 2025 10:36:35 GMT-0600 (Central Standard Time),579542.9000000358,A,a,O,a,1570,1,1582.1000000238419,577960.8000000119,7069,WL,B,4.0
4,9.131999969482422,learn,50868.00003051758,Fri Feb 28 2025 10:36:35 GMT-0600 (Central Standard Time),579877.7000000477,A,ar,O,r,314,1,1916.9000000357628,577960.8000000119,7069,WL,B,4.0
4,9.582000017166138,learn,50417.99998283386,Fri Feb 28 2025 10:36:35 GMT-0600 (Central Standard Time),580327.4000000358,A,arn,O,n,442,1,2366.600000023842,577960.8000000119,7069,WL,B,4.0
4,10.378999948501587,learn,49621.00005149841,Fri Feb 28 2025 10:36:35 GMT-0600 (Central Standard Time),581124.9000000358,A,ar,O,backspace,787,1,3164.100000023842,577960.8000000119,7069,WL,B,4.0
4,10.796000003814697,learn,49203.9999961853,Fri Feb 28 2025 10:36:35 GMT-0600 (Central Standard Time),581541.4000000358,A,arm,O,m,397,1,3580.600000023842,577960.8000000119,7069,WL,B,4.0
4,11.180999994277954,learn,48819.000005722046,Fri Feb 28 2025 10:36:35 GMT-0600 (Central Standard Time),581926.2000000477,A,armenter,O,enter,364,1,3965.400000035763,577960.8000000119,7069,WL,B,4.0
4,11.830000162124634,learn,48169.999837875366,Fri Feb 28 2025 10:36:35 GMT-0600 (Central Standard Time),582575.1000000238,A,s,O,s,636,1,648.6000000238419,581926.5,7069,WL,B,5.0
4,12.19700002670288,learn,47802.99997329712,Fri Feb 28 2025 10:36:35 GMT-0600 (Central Standard Time),582942.3000000119,A,st,O,t,346,1,1015.8000000119209,581926.5,7069,WL,B,5.0
4,12.446000099182129,learn,47553.99990081787,Fri Feb 28 2025 10:36:35 GMT-0600 (Central Standard Time),583192.0,A,sta,O,a,228,1,1265.5,581926.5,7069,WL,B,5.0
4,12.797000169754028,learn,47202.99983024597,Fri Feb 28 2025 10:36:35 GMT-0600 (Central Standard Time),583542.0,A,star,O,r,329,1,1615.5,581926.5,7069,WL,B,5.0
4,13.480000019073486,learn,46519.999980926514,Fri Feb 28 2025 10:36:35 GMT-0600 (Central Standard Time),584225.9000000358,A,starenter,O,enter,676,1,2299.400000035763,581926.5,7069,WL,B,5.0
4,13.91100001335144,learn,46088.99998664856,Fri Feb 28 2025 10:36:35 GMT-0600 (Central Standard Time),584656.8000000119,A,w,O,w,417,1,430.69999998807907,584226.1000000238,7069,WL,B,6.0
4,14.212000131607056,learn,45787.999868392944,Fri Feb 28 2025 10:36:35 GMT-0600 (Central Standard Time),584958.0,A,wi,O,i,280,1,731.8999999761581,584226.1000000238,7069,WL,B,6.0
4,14.69700002670288,learn,45302.99997329712,Fri Feb 28 2025 10:36:35 GMT-0600 (Central Standard Time),585442.9000000358,A,wif,O,f,478,1,1216.800000011921,584226.1000000238,7069,WL,B,6.0
4,14.946000099182129,learn,45053.99990081787,Fri Feb 28 2025 10:36:35 GMT-0600 (Central Standard Time),585691.6000000238,A,wife,O,e,231,1,1465.5,584226.1000000238,7069,WL,B,6.0
4,15.216000080108643,learn,44783.99991989136,Fri Feb 28 2025 10:36:35 GMT-0600 (Central Standard Time),585961.6000000238,A,wifeenter,O,enter,264,1,1735.5,584226.1000000238,7069,WL,B,6.0
4,15.51200008392334,learn,44487.99991607666,Fri Feb 28 2025 10:36:35 GMT-0600 (Central Standard Time),586257.2000000477,A,w,O,w,275,1,295.5,585961.7000000477,7069,WL,B,7.0
4,15.82800006866455,learn,44171.99993133545,Fri Feb 28 2025 10:36:35 GMT-0600 (Central Standard Time),586574.1000000238,A,wi,O,i,304,1,612.3999999761581,585961.7000000477,7069,WL,B,7.0
4,16.011000156402588,learn,43988.99984359741,Fri Feb 28 2025 10:36:35 GMT-0600 (Central Standard Time),586756.4000000358,A,win,O,n,170,1,794.6999999880791,585961.7000000477,7069,WL,B,7.0
4,16.295000076293945,learn,43704.999923706055,Fri Feb 28 2025 10:36:35 GMT-0600 (Central Standard Time),587040.9000000358,A,wind,O,d,280,1,1079.199999988079,585961.7000000477,7069,WL,B,7.0
4,16.545000076293945,learn,43454.999923706055,Fri Feb 28 2025 10:36:35 GMT-0600 (Central Standard Time),587290.7000000477,A,windo,O,o,231,1,1329.0,585961.7000000477,7069,WL,B,7.0
4,16.695000171661377,learn,43304.99982833862,Fri Feb 28 2025 10:36:35 GMT-0600 (Central Standard Time),587440.2000000477,A,window,O,w,135,1,1478.5,585961.7000000477,7069,WL,B,7.0
4,17.24399995803833,learn,42756.00004196167,Fri Feb 28 2025 10:36:35 GMT-0600 (Central Standard Time),587989.5,A,windowenter,O,enter,537,1,2027.7999999523163,585961.7000000477,7069,WL,B,7.0
4,21.259999990463257,learn,38740.00000953674,Fri Feb 28 2025 10:36:35 GMT-0600 (Central Standard Time),592006.0,A,l,O,l,4005,1,4016.199999988079,587989.8000000119,7069,WL,B,8.0
4,21.460000038146973,learn,38539.99996185303,Fri Feb 28 2025 10:36:35 GMT-0600 (Central Standard Time),592206.0,A,la,O,a,189,1,4216.199999988079,587989.8000000119,7069,WL,B,8.0
4,21.792999982833862,learn,38207.00001716614,Fri Feb 28 2025 10:36:35 GMT-0600 (Central Standard Time),592538.1000000238,A,lak,O,k,324,1,4548.300000011921,587989.8000000119,7069,WL,B,8.0
4,21.927000045776367,learn,38072.99995422363,Fri Feb 28 2025 10:36:35 GMT-0600 (Central Standard Time),592672.0,A,lake,O,e,120,1,4682.199999988079,587989.8000000119,7069,WL,B,8.0
4,22.478000164031982,learn,37521.99983596802,Fri Feb 28 2025 10:36:35 GMT-0600 (Central Standard Time),593223.6000000238,A,lakeenter,O,enter,546,1,5233.800000011921,587989.8000000119,7069,WL,B,8.0
4,23.45900011062622,learn,36540.99988937378,Fri Feb 28 2025 10:36:35 GMT-0600 (Central Standard Time),594204.4000000358,A,f,O,f,970,1,980.5,593223.9000000358,7069,WL,B,9.0
4,23.776999950408936,learn,36223.000049591064,Fri Feb 28 2025 10:36:35 GMT-0600 (Central Standard Time),594522.3000000119,A,fi,O,i,312,1,1298.3999999761581,593223.9000000358,7069,WL,B,9.0
4,24.026000022888184,learn,35973.99997711182,Fri Feb 28 2025 10:36:35 GMT-0600 (Central Standard Time),594771.8000000119,A,fir,O,r,238,1,1547.8999999761581,593223.9000000358,7069,WL,B,9.0
4,24.176000118255615,learn,35823.999881744385,Fri Feb 28 2025 10:36:35 GMT-0600 (Central Standard Time),594921.5,A,fire,O,e,135,1,1697.5999999642372,593223.9000000358,7069,WL,B,9.0
4,24.575999975204468,learn,35424.00002479553,Fri Feb 28 2025 10:36:35 GMT-0600 (Central Standard Time),595321.8000000119,A,fireenter,O,enter,384,1,2097.899999976158,593223.9000000358,7069,WL,B,9.0
4,25.27500009536743,learn,34724.99990463257,Fri Feb 28 2025 10:36:35 GMT-0600 (Central Standard Time),596020.7000000477,A,p,O,p,688,1,698.7000000476837,595322.0,7069,WL,B,10.0
4,25.60700011253357,learn,34392.99988746643,Fri Feb 28 2025 10:36:35 GMT-0600 (Central Standard Time),596352.7000000477,A,pu,O,u,325,1,1030.7000000476837,595322.0,7069,WL,B,10.0
4,25.623000144958496,learn,34376.999855041504,Fri Feb 28 2025 10:36:35 GMT-0600 (Central Standard Time),596368.8000000119,A,pui,O,i,0,1,1046.800000011921,595322.0,7069,WL,B,10.0
4,27.223000049591064,learn,32776.999950408936,Fri Feb 28 2025 10:36:35 GMT-0600 (Central Standard Time),597969.0,A,pu,O,backspace,1587,1,2647.0,595322.0,7069,WL,B,10.0
4,27.42300009727478,learn,32576.99990272522,Fri Feb 28 2025 10:36:35 GMT-0600 (Central Standard Time),598169.4000000358,A,p,O,backspace,184,1,2847.400000035763,595322.0,7069,WL,B,10.0
4,28.192000150680542,learn,31807.999849319458,Fri Feb 28 2025 10:36:35 GMT-0600 (Central Standard Time),598938.0,A,pi,O,i,761,1,3616.0,595322.0,7069,WL,B,10.0
4,28.473000049591064,learn,31526.999950408936,Fri Feb 28 2025 10:36:35 GMT-0600 (Central Standard Time),599220.0,A,pip,O,p,271,1,3898.0,595322.0,7069,WL,B,10.0
4,28.674000024795532,learn,31325.999975204468,Fri Feb 28 2025 10:36:35 GMT-0600 (Central Standard Time),599420.0,A,pipr,O,r,180,1,4098.0,595322.0,7069,WL,B,10.0
4,29.223999977111816,learn,30776.000022888184,Fri Feb 28 2025 10:36:35 GMT-0600 (Central Standard Time),599969.9000000358,A,pip,O,backspace,533,1,4647.900000035763,595322.0,7069,WL,B,10.0
4,29.45800018310547,learn,30541.99981689453,Fri Feb 28 2025 10:36:35 GMT-0600 (Central Standard Time),600204.1000000238,A,pipe,O,e,213,1,4882.100000023842,595322.0,7069,WL,B,10.0
4,30.27300000190735,learn,29726.99999809265,Fri Feb 28 2025 10:36:35 GMT-0600 (Central Standard Time),601019.8000000119,A,pipeenter,O,enter,805,1,5697.800000011921,595322.0,7069,WL,B,10.0
4,31.039000034332275,learn,28960.999965667725,Fri Feb 28 2025 10:36:35 GMT-0600 (Central Standard Time),601785.5,A,p,O,p,751,1,765.5,601020.0,7069,WL,B,11.0
4,31.374000072479248,learn,28625.999927520752,Fri Feb 28 2025 10:36:35 GMT-0600 (Central Standard Time),602120.2000000477,A,pu,O,u,328,1,1100.2000000476837,601020.0,7069,WL,B,11.0
4,32.07299995422363,learn,27927.000045776367,Fri Feb 28 2025 10:36:35 GMT-0600 (Central Standard Time),602819.1000000238,A,pup,O,p,689,1,1799.1000000238419,601020.0,7069,WL,B,11.0
4,32.373000144958496,learn,27626.999855041504,Fri Feb 28 2025 10:36:35 GMT-0600 (Central Standard Time),603119.3000000119,A,pupi,O,i,279,1,2099.300000011921,601020.0,7069,WL,B,11.0
4,32.65499997138977,learn,27345.00002861023,Fri Feb 28 2025 10:36:35 GMT-0600 (Central Standard Time),603401.2000000477,A,pupil,O,l,265,1,2381.2000000476837,601020.0,7069,WL,B,11.0
4,33.13800001144409,learn,26861.99998855591,Fri Feb 28 2025 10:36:35 GMT-0600 (Central Standard Time),603884.5,A,pupilenter,O,enter,463,1,2864.5,601020.0,7069,WL,B,11.0
4,33.57200002670288,learn,26427.99997329712,Fri Feb 28 2025 10:36:35 GMT-0600 (Central Standard Time),604318.8000000119,A,c,O,c,422,1,433.69999998807907,603885.1000000238,7069,WL,B,12.0
4,33.87100005149841,learn,26128.999948501587,Fri Feb 28 2025 10:36:35 GMT-0600 (Central Standard Time),604617.6000000238,A,ci,O,i,293,1,732.5,603885.1000000238,7069,WL,B,12.0
4,34.187999963760376,learn,25812.000036239624,Fri Feb 28 2025 10:36:35 GMT-0600 (Central Standard Time),604934.6000000238,A,cit,O,t,304,1,1049.5,603885.1000000238,7069,WL,B,12.0
4,34.40700006484985,learn,25592.999935150146,Fri Feb 28 2025 10:36:35 GMT-0600 (Central Standard Time),605153.4000000358,A,city,O,y,197,1,1268.300000011921,603885.1000000238,7069,WL,B,12.0
4,35.855000019073486,learn,24144.999980926514,Fri Feb 28 2025 10:36:35 GMT-0600 (Central Standard Time),606601.5,A,cityenter,O,enter,1431,1,2716.399999976158,603885.1000000238,7069,WL,B,12.0
4,40.55299997329712,learn,19447.00002670288,Fri Feb 28 2025 10:36:35 GMT-0600 (Central Standard Time),611299.8000000119,A,c,O,c,4680,1,4698.0,606601.8000000119,7069,WL,B,13.0
4,40.735000133514404,learn,19264.999866485596,Fri Feb 28 2025 10:36:35 GMT-0600 (Central Standard Time),611481.7000000477,A,cl,O,l,160,1,4879.900000035763,606601.8000000119,7069,WL,B,13.0
4,40.93600010871887,learn,19063.999891281128,Fri Feb 28 2025 10:36:35 GMT-0600 (Central Standard Time),611682.0,A,clo,O,o,194,1,5080.199999988079,606601.8000000119,7069,WL,B,13.0
4,41.170000076293945,learn,18829.999923706055,Fri Feb 28 2025 10:36:35 GMT-0600 (Central Standard Time),611916.3000000119,A,cloc,O,c,223,1,5314.5,606601.8000000119,7069,WL,B,13.0
4,41.38499999046326,learn,18615.000009536743,Fri Feb 28 2025 10:36:35 GMT-0600 (Central Standard Time),612131.9000000358,A,clock,O,k,198,1,5530.100000023842,606601.8000000119,7069,WL,B,13.0
4,41.90300011634827,learn,18096.999883651733,Fri Feb 28 2025 10:36:35 GMT-0600 (Central Standard Time),612649.4000000358,A,clockenter,O,enter,503,1,6047.600000023842,606601.8000000119,7069,WL,B,13.0
4,56.06400012969971,learn,3935.999870300293,Fri Feb 28 2025 10:36:35 GMT-0600 (Central Standard Time),626810.5,A,s,O,s,14154,1,14160.899999976158,612649.6000000238,7069,WL,B,14.0
4,56.29700016975403,learn,3702.9998302459717,Fri Feb 28 2025 10:36:35 GMT-0600 (Central Standard Time),627043.7000000477,A,sk,O,k,214,1,14394.100000023842,612649.6000000238,7069,WL,B,14.0
4,56.5310001373291,learn,3468.9998626708984,Fri Feb 28 2025 10:36:35 GMT-0600 (Central Standard Time),627277.6000000238,A,ski,O,i,213,1,14628.0,612649.6000000238,7069,WL,B,14.0
4,56.73200011253357,learn,3267.9998874664307,Fri Feb 28 2025 10:36:35 GMT-0600 (Central Standard Time),627478.0,A,skin,O,n,188,1,14828.399999976158,612649.6000000238,7069,WL,B,14.0
4,57.19700002670288,learn,2802.999973297119,Fri Feb 28 2025 10:36:35 GMT-0600 (Central Standard Time),627943.8000000119,A,skinenter,O,enter,461,1,15294.199999988079,612649.6000000238,7069,WL,B,14.0
4,60.01400017738342,learn,-14.000177383422852,Fri Feb 28 2025 10:36:35 GMT-0600 (Central Standard Time),630760.5,A,None,O,None,2811,1,2816.5,627944.0,7069,WL,B,15.0
5,0.2669999599456787,learn,60000.0,Fri Feb 28 2025 10:36:35 GMT-0600 (Central Standard Time),707352.8000000119,A,s,O,s,254,1,266.5,707086.3000000119,7069,WL,B,1.0
5,0.8670001029968262,learn,60000.0,Fri Feb 28 2025 10:36:35 GMT-0600 (Central Standard Time),707953.7000000477,A,st,O,t,595,1,867.4000000357628,707086.3000000119,7069,WL,B,1.0
5,1.13100004196167,learn,60000.0,Fri Feb 28 2025 10:36:35 GMT-0600 (Central Standard Time),708217.4000000358,A,str,O,r,256,1,1131.1000000238419,707086.3000000119,7069,WL,B,1.0
5,1.4000000953674316,learn,60000.0,Fri Feb 28 2025 10:36:35 GMT-0600 (Central Standard Time),708486.0,A,stre,O,e,258,1,1399.699999988079,707086.3000000119,7069,WL,B,1.0
5,1.6319999694824219,learn,60000.0,Fri Feb 28 2025 10:36:35 GMT-0600 (Central Standard Time),708718.0,A,stree,O,e,220,1,1631.699999988079,707086.3000000119,7069,WL,B,1.0
5,2.448000192642212,learn,60000.0,Fri Feb 28 2025 10:36:35 GMT-0600 (Central Standard Time),709534.7000000477,A,street,O,t,804,1,2448.400000035763,707086.3000000119,7069,WL,B,1.0
5,3.5490000247955322,learn,60000.0,Fri Feb 28 2025 10:36:35 GMT-0600 (Central Standard Time),710634.8000000119,A,streetenter,O,enter,1083,1,3548.5,707086.3000000119,7069,WL,B,1.0
5,4.082000017166138,learn,60000.0,Fri Feb 28 2025 10:36:35 GMT-0600 (Central Standard Time),711168.7000000477,A,g,O,g,528,1,533.7000000476837,710635.0,7069,WL,B,2.0
5,4.3470001220703125,learn,60000.0,Fri Feb 28 2025 10:36:35 GMT-0600 (Central Standard Time),711433.6000000238,A,gr,O,r,256,1,798.6000000238419,710635.0,7069,WL,B,2.0
5,4.615000009536743,learn,60000.0,Fri Feb 28 2025 10:36:35 GMT-0600 (Central Standard Time),711701.1000000238,A,gra,O,a,249,1,1066.1000000238419,710635.0,7069,WL,B,2.0
5,5.04800009727478,learn,60000.0,Fri Feb 28 2025 10:36:35 GMT-0600 (Central Standard Time),712134.2000000477,A,gras,O,s,420,1,1499.2000000476837,710635.0,7069,WL,B,2.0
5,5.248000144958496,learn,60000.0,Fri Feb 28 2025 10:36:35 GMT-0600 (Central Standard Time),712334.1000000238,A,grass,O,s,188,1,1699.1000000238419,710635.0,7069,WL,B,2.0
5,5.998000144958496,learn,60000.0,Fri Feb 28 2025 10:36:35 GMT-0600 (Central Standard Time),713083.8000000119,A,grassenter,O,enter,730,1,2448.800000011921,710635.0,7069,WL,B,2.0
5,6.547000169754028,learn,60000.0,Fri Feb 28 2025 10:36:35 GMT-0600 (Central Standard Time),713633.5,A,d,O,d,534,1,549.2999999523163,713084.2000000477,7069,WL,B,3.0
5,6.8470001220703125,learn,60000.0,Fri Feb 28 2025 10:36:35 GMT-0600 (Central Standard Time),713933.2000000477,A,do,O,o,287,1,849.0,713084.2000000477,7069,WL,B,3.0
5,7.064000129699707,learn,60000.0,Fri Feb 28 2025 10:36:35 GMT-0600 (Central Standard Time),714150.5,A,doo,O,o,196,1,1066.2999999523163,713084.2000000477,7069,WL,B,3.0
5,7.314000129699707,learn,60000.0,Fri Feb 28 2025 10:36:35 GMT-0600 (Central Standard Time),714400.2000000477,A,door,O,r,235,1,1316.0,713084.2000000477,7069,WL,B,3.0
5,7.7799999713897705,learn,60000.0,Fri Feb 28 2025 10:36:35 GMT-0600 (Central Standard Time),714866.6000000238,A,doorenter,O,enter,450,1,1782.3999999761581,713084.2000000477,7069,WL,B,3.0
5,8.148000001907349,learn,60000.0,Fri Feb 28 2025 10:36:35 GMT-0600 (Central Standard Time),715233.8000000119,A,a,O,a,353,1,366.89999997615814,714866.9000000358,7069,WL,B,4.0
5,8.515000104904175,learn,60000.0,Fri Feb 28 2025 10:36:35 GMT-0600 (Central Standard Time),715601.6000000238,A,ar,O,r,362,1,734.6999999880791,714866.9000000358,7069,WL,B,4.0
5,8.932000160217285,learn,60000.0,Fri Feb 28 2025 10:36:35 GMT-0600 (Central Standard Time),716018.2000000477,A,arn,O,n,410,1,1151.300000011921,714866.9000000358,7069,WL,B,4.0
5,9.397000074386597,learn,60000.0,Fri Feb 28 2025 10:36:35 GMT-0600 (Central Standard Time),716482.7000000477,A,ar,O,backspace,447,1,1615.800000011921,714866.9000000358,7069,WL,B,4.0
5,9.69700002670288,learn,60000.0,Fri Feb 28 2025 10:36:35 GMT-0600 (Central Standard Time),716783.4000000358,A,arm,O,m,295,1,1916.5,714866.9000000358,7069,WL,B,4.0
5,10.246999979019165,learn,60000.0,Fri Feb 28 2025 10:36:35 GMT-0600 (Central Standard Time),717332.7000000477,A,armenter,O,enter,538,1,2465.800000011921,714866.9000000358,7069,WL,B,4.0
5,11.712000131607056,learn,60000.0,Fri Feb 28 2025 10:36:35 GMT-0600 (Central Standard Time),718798.6000000238,A,s,O,s,1454,1,1465.6000000238419,717333.0,7069,WL,B,5.0
5,12.01200008392334,learn,60000.0,Fri Feb 28 2025 10:36:35 GMT-0600 (Central Standard Time),719098.6000000238,A,st,O,t,279,1,1765.6000000238419,717333.0,7069,WL,B,5.0
5,12.311000108718872,learn,60000.0,Fri Feb 28 2025 10:36:35 GMT-0600 (Central Standard Time),719398.3000000119,A,sta,O,a,279,1,2065.300000011921,717333.0,7069,WL,B,5.0
5,12.562000036239624,learn,60000.0,Fri Feb 28 2025 10:36:35 GMT-0600 (Central Standard Time),719648.6000000238,A,star,O,r,234,1,2315.600000023842,717333.0,7069,WL,B,5.0
5,13.027000188827515,learn,60000.0,Fri Feb 28 2025 10:36:35 GMT-0600 (Central Standard Time),720114.3000000119,A,starenter,O,enter,453,1,2781.300000011921,717333.0,7069,WL,B,5.0
5,13.49400019645691,learn,60000.0,Fri Feb 28 2025 10:36:35 GMT-0600 (Central Standard Time),720581.3000000119,A,w,O,w,448,1,466.69999998807907,720114.6000000238,7069,WL,B,6.0
5,13.844000101089478,learn,60000.0,Fri Feb 28 2025 10:36:35 GMT-0600 (Central Standard Time),720931.3000000119,A,wi,O,i,331,1,816.6999999880791,720114.6000000238,7069,WL,B,6.0
5,14.111999988555908,learn,60000.0,Fri Feb 28 2025 10:36:35 GMT-0600 (Central Standard Time),721198.7000000477,A,wid,O,d,246,1,1084.1000000238419,720114.6000000238,7069,WL,B,6.0
5,14.495000123977661,learn,60000.0,Fri Feb 28 2025 10:36:35 GMT-0600 (Central Standard Time),721581.9000000358,A,wi,O,backspace,362,1,1467.300000011921,720114.6000000238,7069,WL,B,6.0
5,14.66100001335144,learn,60000.0,Fri Feb 28 2025 10:36:35 GMT-0600 (Central Standard Time),721747.7000000477,A,wif,O,f,155,1,1633.1000000238419,720114.6000000238,7069,WL,B,6.0
5,14.878000020980835,learn,60000.0,Fri Feb 28 2025 10:36:35 GMT-0600 (Central Standard Time),721965.2000000477,A,wife,O,e,196,1,1850.6000000238419,720114.6000000238,7069,WL,B,6.0
5,15.745000123977661,learn,60000.0,Fri Feb 28 2025 10:36:35 GMT-0600 (Central Standard Time),722831.5,A,wifeenter,O,enter,860,1,2716.899999976158,720114.6000000238,7069,WL,B,6.0
5,16.45900011062622,learn,60000.0,Fri Feb 28 2025 10:36:35 GMT-0600 (Central Standard Time),723546.3000000119,A,w,O,w,695,1,714.3999999761581,722831.9000000358,7069,WL,B,7.0
5,16.743000030517578,learn,60000.0,Fri Feb 28 2025 10:36:35 GMT-0600 (Central Standard Time),723830.6000000238,A,wi,O,i,262,1,998.6999999880791,722831.9000000358,7069,WL,B,7.0
5,16.942000150680542,learn,60000.0,Fri Feb 28 2025 10:36:35 GMT-0600 (Central Standard Time),724029.1000000238,A,win,O,n,178,1,1197.199999988079,722831.9000000358,7069,WL,B,7.0
5,17.261000156402588,learn,60000.0,Fri Feb 28 2025 10:36:35 GMT-0600 (Central Standard Time),724347.8000000119,A,wind,O,d,300,1,1515.8999999761581,722831.9000000358,7069,WL,B,7.0
5,17.64300012588501,learn,60000.0,Fri Feb 28 2025 10:36:35 GMT-0600 (Central Standard Time),724729.7000000477,A,windo,O,o,366,1,1897.800000011921,722831.9000000358,7069,WL,B,7.0
5,17.89300012588501,learn,60000.0,Fri Feb 28 2025 10:36:35 GMT-0600 (Central Standard Time),724980.5,A,window,O,w,240,1,2148.599999964237,722831.9000000358,7069,WL,B,7.0
5,18.325999975204468,learn,60000.0,Fri Feb 28 2025 10:36:35 GMT-0600 (Central Standard Time),725413.3000000119,A,windowenter,O,enter,413,1,2581.399999976158,722831.9000000358,7069,WL,B,7.0
5,18.676000118255615,learn,60000.0,Fri Feb 28 2025 10:36:35 GMT-0600 (Central Standard Time),725762.8000000119,A,c,O,c,341,1,349.30000001192093,725413.5,7069,WL,B,8.0
5,18.962000131607056,learn,60000.0,Fri Feb 28 2025 10:36:35 GMT-0600 (Central Standard Time),726049.1000000238,A,ci,O,i,279,1,635.6000000238419,725413.5,7069,WL,B,8.0
5,19.242000102996826,learn,60000.0,Fri Feb 28 2025 10:36:35 GMT-0600 (Central Standard Time),726329.4000000358,A,cit,O,t,264,1,915.9000000357628,725413.5,7069,WL,B,8.0
5,19.475000143051147,learn,60000.0,Fri Feb 28 2025 10:36:35 GMT-0600 (Central Standard Time),726562.5,A,city,O,y,216,1,1149.0,725413.5,7069,WL,B,8.0
5,19.879000186920166,learn,60000.0,Fri Feb 28 2025 10:36:35 GMT-0600 (Central Standard Time),726966.3000000119,A,cityenter,O,enter,391,1,1552.800000011921,725413.5,7069,WL,B,8.0
5,20.57800006866455,learn,60000.0,Fri Feb 28 2025 10:36:35 GMT-0600 (Central Standard Time),727664.7000000477,A,c,O,c,693,1,697.8000000119209,726966.9000000358,7069,WL,B,9.0
5,20.77500009536743,learn,60000.0,Fri Feb 28 2025 10:36:35 GMT-0600 (Central Standard Time),727862.4000000358,A,ca,O,a,185,1,895.5,726966.9000000358,7069,WL,B,9.0
5,21.075999975204468,learn,60000.0,Fri Feb 28 2025 10:36:35 GMT-0600 (Central Standard Time),728163.0,A,cab,O,b,291,1,1196.0999999642372,726966.9000000358,7069,WL,B,9.0
5,21.325000047683716,learn,60000.0,Fri Feb 28 2025 10:36:35 GMT-0600 (Central Standard Time),728412.5,A,cabi,O,i,229,1,1445.5999999642372,726966.9000000358,7069,WL,B,9.0
5,21.509000062942505,learn,60000.0,Fri Feb 28 2025 10:36:35 GMT-0600 (Central Standard Time),728596.4000000358,A,cabin,O,n,173,1,1629.5,726966.9000000358,7069,WL,B,9.0
5,22.14199995994568,learn,60000.0,Fri Feb 28 2025 10:36:35 GMT-0600 (Central Standard Time),729228.8000000119,A,cabinenter,O,enter,613,1,2261.899999976158,726966.9000000358,7069,WL,B,9.0
5,22.558000087738037,learn,60000.0,Fri Feb 28 2025 10:36:35 GMT-0600 (Central Standard Time),729644.8000000119,A,p,O,p,405,1,415.5999999642372,729229.2000000477,7069,WL,B,10.0
5,22.874000072479248,learn,60000.0,Fri Feb 28 2025 10:36:35 GMT-0600 (Central Standard Time),729961.4000000358,A,pu,O,u,309,1,732.1999999880791,729229.2000000477,7069,WL,B,10.0
5,23.825000047683716,learn,60000.0,Fri Feb 28 2025 10:36:35 GMT-0600 (Central Standard Time),730911.9000000358,A,pup,O,p,934,1,1682.699999988079,729229.2000000477,7069,WL,B,10.0
5,24.141000032424927,learn,60000.0,Fri Feb 28 2025 10:36:35 GMT-0600 (Central Standard Time),731228.3000000119,A,pupi,O,i,298,1,1999.0999999642372,729229.2000000477,7069,WL,B,10.0
5,24.409000158309937,learn,60000.0,Fri Feb 28 2025 10:36:35 GMT-0600 (Central Standard Time),731495.8000000119,A,pupil,O,l,245,1,2266.599999964237,729229.2000000477,7069,WL,B,10.0
5,25.591000080108643,learn,60000.0,Fri Feb 28 2025 10:36:35 GMT-0600 (Central Standard Time),732678.3000000119,A,pupilenter,O,enter,1171,1,3449.099999964237,729229.2000000477,7069,WL,B,10.0
5,28.706000089645386,learn,60000.0,Fri Feb 28 2025 10:36:35 GMT-0600 (Central Standard Time),735792.8000000119,A,c,O,c,3100,1,3114.199999988079,732678.6000000238,7069,WL,B,11.0
5,28.871999979019165,learn,60000.0,Fri Feb 28 2025 10:36:35 GMT-0600 (Central Standard Time),735959.1000000238,A,cl,O,l,151,1,3280.5,732678.6000000238,7069,WL,B,11.0
5,29.075000047683716,learn,60000.0,Fri Feb 28 2025 10:36:35 GMT-0600 (Central Standard Time),736161.8000000119,A,clo,O,o,196,1,3483.199999988079,732678.6000000238,7069,WL,B,11.0
5,29.29100012779236,learn,60000.0,Fri Feb 28 2025 10:36:35 GMT-0600 (Central Standard Time),736378.0,A,cloc,O,c,210,1,3699.399999976158,732678.6000000238,7069,WL,B,11.0
5,29.50600004196167,learn,60000.0,Fri Feb 28 2025 10:36:35 GMT-0600 (Central Standard Time),736593.0,A,clock,O,k,198,1,3914.399999976158,732678.6000000238,7069,WL,B,11.0
5,30.505000114440918,learn,60000.0,Fri Feb 28 2025 10:36:35 GMT-0600 (Central Standard Time),737592.4000000358,A,clockenter,O,enter,985,1,4913.800000011921,732678.6000000238,7069,WL,B,11.0
5,31.754000186920166,learn,60000.0,Fri Feb 28 2025 10:36:35 GMT-0600 (Central Standard Time),738841.3000000119,A,f,O,f,1234,1,1248.5999999642372,737592.7000000477,7069,WL,B,12.0
5,31.907000064849854,learn,60000.0,Fri Feb 28 2025 10:36:35 GMT-0600 (Central Standard Time),738993.8000000119,A,fi,O,i,147,1,1401.0999999642372,737592.7000000477,7069,WL,B,12.0
5,32.1560001373291,learn,60000.0,Fri Feb 28 2025 10:36:35 GMT-0600 (Central Standard Time),739242.8000000119,A,fir,O,r,225,1,1650.0999999642372,737592.7000000477,7069,WL,B,12.0
5,32.455000162124634,learn,60000.0,Fri Feb 28 2025 10:36:35 GMT-0600 (Central Standard Time),739542.1000000238,A,fire,O,e,279,1,1949.3999999761581,737592.7000000477,7069,WL,B,12.0
5,32.90499997138977,learn,60000.0,Fri Feb 28 2025 10:36:35 GMT-0600 (Central Standard Time),739992.0,A,fireenter,O,enter,444,1,2399.2999999523163,737592.7000000477,7069,WL,B,12.0
5,35.32200002670288,learn,60000.0,Fri Feb 28 2025 10:36:35 GMT-0600 (Central Standard Time),742408.9000000358,A,l,O,l,2394,1,2416.699999988079,739992.2000000477,7069,WL,B,13.0
5,35.45300006866455,learn,60000.0,Fri Feb 28 2025 10:36:35 GMT-0600 (Central Standard Time),742540.1000000238,A,la,O,a,112,1,2547.899999976158,739992.2000000477,7069,WL,B,13.0
5,35.82000017166138,learn,60000.0,Fri Feb 28 2025 10:36:35 GMT-0600 (Central Standard Time),742907.0,A,lak,O,k,348,1,2914.7999999523163,739992.2000000477,7069,WL,B,13.0
5,36.021000146865845,learn,60000.0,Fri Feb 28 2025 10:36:35 GMT-0600 (Central Standard Time),743108.1000000238,A,lake,O,e,183,1,3115.899999976158,739992.2000000477,7069,WL,B,13.0
5,36.4539999961853,learn,60000.0,Fri Feb 28 2025 10:36:35 GMT-0600 (Central Standard Time),743541.2000000477,A,lakeenter,O,enter,412,1,3549.0,739992.2000000477,7069,WL,B,13.0
5,38.003000020980835,learn,60000.0,Fri Feb 28 2025 10:36:35 GMT-0600 (Central Standard Time),745090.0,A,p,O,p,1543,1,1548.5,743541.5,7069,WL,B,14.0
5,38.254000186920166,learn,60000.0,Fri Feb 28 2025 10:36:35 GMT-0600 (Central Standard Time),745340.8000000119,A,pi,O,i,239,1,1799.300000011921,743541.5,7069,WL,B,14.0
5,38.503000020980835,learn,60000.0,Fri Feb 28 2025 10:36:35 GMT-0600 (Central Standard Time),745590.4000000358,A,pip,O,p,228,1,2048.900000035763,743541.5,7069,WL,B,14.0
5,38.65300011634827,learn,60000.0,Fri Feb 28 2025 10:36:35 GMT-0600 (Central Standard Time),745740.4000000358,A,pipe,O,e,130,1,2198.900000035763,743541.5,7069,WL,B,14.0
5,38.986000061035156,learn,60000.0,Fri Feb 28 2025 10:36:35 GMT-0600 (Central Standard Time),746072.8000000119,A,pipeenter,O,enter,317,1,2531.300000011921,743541.5,7069,WL,B,14.0
5,99.00100016593933,learn,60000.0,Fri Feb 28 2025 10:36:35 GMT-0600 (Central Standard Time),806088.4000000358,A,None,O,None,60010,1,60015.30000001192,746073.1000000238,7069,WL,B,15.0
6,0.5019998550415039,distr,59498.000144958496,Fri Feb 28 2025 10:36:35 GMT-0600 (Central Standard Time),884680.4000000358,B,b,O,b,484,1,500.80000001192093,884179.6000000238,7069,WL,B,1.0
6,1.116999864578247,distr,58883.00013542175,Fri Feb 28 2025 10:36:35 GMT-0600 (Central Standard Time),885295.9000000358,B,ba,O,a,601,1,1116.300000011921,884179.6000000238,7069,WL,B,1.0
6,2.065999984741211,distr,57934.00001525879,Fri Feb 28 2025 10:36:35 GMT-0600 (Central Standard Time),886244.8000000119,B,bab,O,b,926,1,2065.199999988079,884179.6000000238,7069,WL,B,1.0
6,2.485999822616577,distr,57514.00017738342,Fri Feb 28 2025 10:36:35 GMT-0600 (Central Standard Time),886664.6000000238,B,baby,O,y,393,1,2485.0,884179.6000000238,7069,WL,B,1.0
6,3.0169999599456787,distr,56983.00004005432,Fri Feb 28 2025 10:36:35 GMT-0600 (Central Standard Time),887195.9000000358,B,babyenter,O,enter,514,1,3016.300000011921,884179.6000000238,7069,WL,B,1.0
6,3.4659998416900635,distr,56534.00015830994,Fri Feb 28 2025 10:36:35 GMT-0600 (Central Standard Time),887645.3000000119,B,l,O,l,430,1,449.19999998807907,887196.1000000238,7069,WL,B,2.0
6,3.7019999027252197,distr,56298.00009727478,Fri Feb 28 2025 10:36:35 GMT-0600 (Central Standard Time),887880.2000000477,B,li,O,i,228,1,684.1000000238419,887196.1000000238,7069,WL,B,2.0
6,4.016000032424927,distr,55983.99996757507,Fri Feb 28 2025 10:36:35 GMT-0600 (Central Standard Time),888194.7000000477,B,lip,O,p,303,1,998.6000000238419,887196.1000000238,7069,WL,B,2.0
6,4.516999959945679,distr,55483.00004005432,Fri Feb 28 2025 10:36:35 GMT-0600 (Central Standard Time),888696.0,B,lipenter,O,enter,494,1,1499.8999999761581,887196.1000000238,7069,WL,B,2.0
6,5.615999937057495,distr,54384.000062942505,Fri Feb 28 2025 10:36:35 GMT-0600 (Central Standard Time),889794.8000000119,B,o,O,o,1093,1,1098.5999999642372,888696.2000000477,7069,WL,B,3.0
6,5.883999824523926,distr,54116.000175476074,Fri Feb 28 2025 10:36:35 GMT-0600 (Central Standard Time),890062.5,B,oc,O,c,253,1,1366.2999999523163,888696.2000000477,7069,WL,B,3.0
6,6.116999864578247,distr,53883.00013542175,Fri Feb 28 2025 10:36:35 GMT-0600 (Central Standard Time),890295.7000000477,B,oce,O,e,215,1,1599.5,888696.2000000477,7069,WL,B,3.0
6,6.365999937057495,distr,53634.000062942505,Fri Feb 28 2025 10:36:35 GMT-0600 (Central Standard Time),890544.6000000238,B,ocea,O,a,236,1,1848.3999999761581,888696.2000000477,7069,WL,B,3.0
6,6.764999866485596,distr,53235.000133514404,Fri Feb 28 2025 10:36:35 GMT-0600 (Central Standard Time),890944.0,B,ocean,O,n,390,1,2247.7999999523163,888696.2000000477,7069,WL,B,3.0
6,7.547999858856201,distr,52452.0001411438,Fri Feb 28 2025 10:36:35 GMT-0600 (Central Standard Time),891726.2000000477,B,oceanenter,O,enter,763,1,3030.0,888696.2000000477,7069,WL,B,3.0
6,9.797999858856201,distr,50202.0001411438,Fri Feb 28 2025 10:36:35 GMT-0600 (Central Standard Time),893976.4000000358,B,a,O,a,2245,1,2249.900000035763,891726.5,7069,WL,B,4.0
6,10.079999923706055,distr,49920.000076293945,Fri Feb 28 2025 10:36:35 GMT-0600 (Central Standard Time),894259.0,B,ar,O,r,262,1,2532.5,891726.5,7069,WL,B,4.0
6,10.480000019073486,distr,49519.999980926514,Fri Feb 28 2025 10:36:35 GMT-0600 (Central Standard Time),894659.0,B,arn,O,n,387,1,2932.5,891726.5,7069,WL,B,4.0
6,10.829999923706055,distr,49170.000076293945,Fri Feb 28 2025 10:36:35 GMT-0600 (Central Standard Time),895009.1000000238,B,arny,O,y,332,1,3282.600000023842,891726.5,7069,WL,B,4.0
6,11.162999868392944,distr,48837.000131607056,Fri Feb 28 2025 10:36:35 GMT-0600 (Central Standard Time),895341.9000000358,B,arnyenter,O,enter,318,1,3615.400000035763,891726.5,7069,WL,B,4.0
6,11.52999997138977,distr,48470.00002861023,Fri Feb 28 2025 10:36:35 GMT-0600 (Central Standard Time),895709.2000000477,B,p,O,p,357,1,367.10000002384186,895342.1000000238,7069,WL,B,5.0
6,11.679999828338623,distr,48320.00017166138,Fri Feb 28 2025 10:36:35 GMT-0600 (Central Standard Time),895858.8000000119,B,pa,O,a,141,1,516.6999999880791,895342.1000000238,7069,WL,B,5.0
6,11.914000034332275,distr,48085.999965667725,Fri Feb 28 2025 10:36:35 GMT-0600 (Central Standard Time),896092.3000000119,B,pal,O,l,221,1,750.1999999880791,895342.1000000238,7069,WL,B,5.0
6,12.080999851226807,distr,47919.00014877319,Fri Feb 28 2025 10:36:35 GMT-0600 (Central Standard Time),896259.2000000477,B,pala,O,a,147,1,917.1000000238419,895342.1000000238,7069,WL,B,5.0
6,12.398000001907349,distr,47601.99999809265,Fri Feb 28 2025 10:36:35 GMT-0600 (Central Standard Time),896577.0,B,palac,O,c,303,1,1234.8999999761581,895342.1000000238,7069,WL,B,5.0
6,12.597999811172485,distr,47402.000188827515,Fri Feb 28 2025 10:36:35 GMT-0600 (Central Standard Time),896776.7000000477,B,palace,O,e,195,1,1434.6000000238419,895342.1000000238,7069,WL,B,5.0
6,12.829999923706055,distr,47170.000076293945,Fri Feb 28 2025 10:36:35 GMT-0600 (Central Standard Time),897009.0,B,palaceenter,O,enter,221,1,1666.8999999761581,895342.1000000238,7069,WL,B,5.0
6,13.27999997138977,distr,46720.00002861023,Fri Feb 28 2025 10:36:35 GMT-0600 (Central Standard Time),897459.3000000119,B,f,O,f,433,1,450.0,897009.3000000119,7069,WL,B,6.0
6,13.547999858856201,distr,46452.0001411438,Fri Feb 28 2025 10:36:35 GMT-0600 (Central Standard Time),897726.3000000119,B,fi,O,i,237,1,717.0,897009.3000000119,7069,WL,B,6.0
6,13.679999828338623,distr,46320.00017166138,Fri Feb 28 2025 10:36:35 GMT-0600 (Central Standard Time),897858.4000000358,B,fir,O,r,112,1,849.1000000238419,897009.3000000119,7069,WL,B,6.0
6,13.829999923706055,distr,46170.000076293945,Fri Feb 28 2025 10:36:35 GMT-0600 (Central Standard Time),898009.2000000477,B,fire,O,e,134,1,999.9000000357628,897009.3000000119,7069,WL,B,6.0
6,14.080999851226807,distr,45919.00014877319,Fri Feb 28 2025 10:36:35 GMT-0600 (Central Standard Time),898260.2000000477,B,firen,O,n,237,1,1250.9000000357628,897009.3000000119,7069,WL,B,6.0
6,14.327999830245972,distr,45672.00016975403,Fri Feb 28 2025 10:36:35 GMT-0600 (Central Standard Time),898507.3000000119,B,firenc,O,c,221,1,1498.0,897009.3000000119,7069,WL,B,6.0
6,14.711999893188477,distr,45288.00010681152,Fri Feb 28 2025 10:36:35 GMT-0600 (Central Standard Time),898891.1000000238,B,firen,O,backspace,364,1,1881.800000011921,897009.3000000119,7069,WL,B,6.0
6,14.863999843597412,distr,45136.00015640259,Fri Feb 28 2025 10:36:35 GMT-0600 (Central Standard Time),899043.8000000119,B,firend,O,d,147,1,2034.5,897009.3000000119,7069,WL,B,6.0
6,16.043999910354614,distr,43956.000089645386,Fri Feb 28 2025 10:36:35 GMT-0600 (Central Standard Time),900223.9000000358,B,firendenter,O,enter,1173,1,3214.600000023842,897009.3000000119,7069,WL,B,6.0
6,27.406999826431274,distr,32593.000173568726,Fri Feb 28 2025 10:36:35 GMT-0600 (Central Standard Time),911587.0,B,d,O,d,11346,1,11362.899999976158,900224.1000000238,7069,WL,B,7.0
6,27.674999952316284,distr,32325.000047683716,Fri Feb 28 2025 10:36:35 GMT-0600 (Central Standard Time),911854.8000000119,B,dr,O,r,252,1,11630.699999988079,900224.1000000238,7069,WL,B,7.0
6,27.77300000190735,distr,32226.99999809265,Fri Feb 28 2025 10:36:35 GMT-0600 (Central Standard Time),911952.9000000358,B,dre,O,e,90,1,11728.800000011921,900224.1000000238,7069,WL,B,7.0
6,28.441999912261963,distr,31558.000087738037,Fri Feb 28 2025 10:36:35 GMT-0600 (Central Standard Time),912621.1000000238,B,dres,O,s,652,1,12397.0,900224.1000000238,7069,WL,B,7.0
6,28.625,distr,31375.0,Fri Feb 28 2025 10:36:35 GMT-0600 (Central Standard Time),912804.2000000477,B,dress,O,s,164,1,12580.100000023842,900224.1000000238,7069,WL,B,7.0
6,28.891000032424927,distr,31108.999967575073,Fri Feb 28 2025 10:36:35 GMT-0600 (Central Standard Time),913070.6000000238,B,dressenter,O,enter,246,1,12846.5,900224.1000000238,7069,WL,B,7.0
6,34.48899984359741,distr,25511.000156402588,Fri Feb 28 2025 10:36:35 GMT-0600 (Central Standard Time),918668.2000000477,B,c,O,c,5587,1,5597.400000035763,913070.8000000119,7069,WL,B,8.0
6,34.789000034332275,distr,25210.999965667725,Fri Feb 28 2025 10:36:35 GMT-0600 (Central Standard Time),918968.7000000477,B,ce,O,e,284,1,5897.900000035763,913070.8000000119,7069,WL,B,8.0
6,35.02199983596802,distr,24978.000164031982,Fri Feb 28 2025 10:36:35 GMT-0600 (Central Standard Time),919201.7000000477,B,cel,O,l,226,1,6130.900000035763,913070.8000000119,7069,WL,B,8.0
6,35.222999811172485,distr,24777.000188827515,Fri Feb 28 2025 10:36:35 GMT-0600 (Central Standard Time),919402.4000000358,B,cell,O,l,194,1,6331.600000023842,913070.8000000119,7069,WL,B,8.0
6,35.65599989891052,distr,24344.000101089478,Fri Feb 28 2025 10:36:35 GMT-0600 (Central Standard Time),919835.1000000238,B,cellenter,O,enter,414,1,6764.300000011921,913070.8000000119,7069,WL,B,8.0
6,60.013999938964844,distr,-13.99993896484375,Fri Feb 28 2025 10:36:35 GMT-0600 (Central Standard Time),944193.1000000238,B,None,O,None,24352,1,24357.80000001192,919835.3000000119,7069,WL,B,9.0
7,0.7669999599456787,immed,59233.00004005432,Fri Feb 28 2025 10:36:35 GMT-0600 (Central Standard Time),958290.3000000119,A,s,O,s,752,1,768.0999999642372,957522.2000000477,7069,WL,B,1.0
7,1.1010000705718994,immed,58898.9999294281,Fri Feb 28 2025 10:36:35 GMT-0600 (Central Standard Time),958623.8000000119,A,st,O,t,328,1,1101.5999999642372,957522.2000000477,7069,WL,B,1.0
7,1.3659999370574951,immed,58634.000062942505,Fri Feb 28 2025 10:36:35 GMT-0600 (Central Standard Time),958889.0,A,str,O,r,247,1,1366.7999999523163,957522.2000000477,7069,WL,B,1.0
7,1.6649999618530273,immed,58335.00003814697,Fri Feb 28 2025 10:36:35 GMT-0600 (Central Standard Time),959188.7000000477,A,stre,O,e,288,1,1666.5,957522.2000000477,7069,WL,B,1.0
7,1.9489998817443848,immed,58051.000118255615,Fri Feb 28 2025 10:36:35 GMT-0600 (Central Standard Time),959472.4000000358,A,stree,O,e,269,1,1950.199999988079,957522.2000000477,7069,WL,B,1.0
7,2.249000072479248,immed,57750.99992752075,Fri Feb 28 2025 10:36:35 GMT-0600 (Central Standard Time),959772.8000000119,A,street,O,t,289,1,2250.599999964237,957522.2000000477,7069,WL,B,1.0
7,3.63100004196167,immed,56368.99995803833,Fri Feb 28 2025 10:36:35 GMT-0600 (Central Standard Time),961154.5,A,streetenter,O,enter,1364,1,3632.2999999523163,957522.2000000477,7069,WL,B,1.0
7,4.2190001010894775,immed,55780.99989891052,Fri Feb 28 2025 10:36:35 GMT-0600 (Central Standard Time),961742.4000000358,A,g,O,g,583,1,587.6999999880791,961154.7000000477,7069,WL,B,2.0
7,4.352999925613403,immed,55647.0000743866,Fri Feb 28 2025 10:36:35 GMT-0600 (Central Standard Time),961875.8000000119,A,gr,O,r,125,1,721.0999999642372,961154.7000000477,7069,WL,B,2.0
7,4.7820000648498535,immed,55217.99993515015,Fri Feb 28 2025 10:36:35 GMT-0600 (Central Standard Time),962304.8000000119,A,gra,O,a,416,1,1150.0999999642372,961154.7000000477,7069,WL,B,2.0
7,5.164999961853027,immed,54835.00003814697,Fri Feb 28 2025 10:36:35 GMT-0600 (Central Standard Time),962688.1000000238,A,gras,O,s,368,1,1533.3999999761581,961154.7000000477,7069,WL,B,2.0
7,5.346999883651733,immed,54653.00011634827,Fri Feb 28 2025 10:36:35 GMT-0600 (Central Standard Time),962870.6000000238,A,grass,O,s,169,1,1715.8999999761581,961154.7000000477,7069,WL,B,2.0
7,5.680999994277954,immed,54319.000005722046,Fri Feb 28 2025 10:36:35 GMT-0600 (Central Standard Time),963204.5,A,grassenter,O,enter,323,1,2049.7999999523163,961154.7000000477,7069,WL,B,2.0
7,6.33299994468689,immed,53667.00005531311,Fri Feb 28 2025 10:36:35 GMT-0600 (Central Standard Time),963855.9000000358,A,a,O,a,630,1,651.1999999880791,963204.7000000477,7069,WL,B,3.0
7,6.596999883651733,immed,53403.00011634827,Fri Feb 28 2025 10:36:35 GMT-0600 (Central Standard Time),964120.9000000358,A,ar,O,r,249,1,916.1999999880791,963204.7000000477,7069,WL,B,3.0
7,7.046999931335449,immed,52953.00006866455,Fri Feb 28 2025 10:36:35 GMT-0600 (Central Standard Time),964570.0,A,arm,O,m,440,1,1365.2999999523163,963204.7000000477,7069,WL,B,3.0
7,7.38100004196167,immed,52618.99995803833,Fri Feb 28 2025 10:36:35 GMT-0600 (Central Standard Time),964904.1000000238,A,armenter,O,enter,329,1,1699.3999999761581,963204.7000000477,7069,WL,B,3.0
7,7.930000066757202,immed,52069.9999332428,Fri Feb 28 2025 10:36:35 GMT-0600 (Central Standard Time),965453.2000000477,A,d,O,d,531,1,548.9000000357628,964904.3000000119,7069,WL,B,4.0
7,8.229000091552734,immed,51770.999908447266,Fri Feb 28 2025 10:36:35 GMT-0600 (Central Standard Time),965752.7000000477,A,do,O,o,283,1,848.4000000357628,964904.3000000119,7069,WL,B,4.0
7,8.414000034332275,immed,51585.999965667725,Fri Feb 28 2025 10:36:35 GMT-0600 (Central Standard Time),965937.2000000477,A,doo,O,o,177,1,1032.9000000357628,964904.3000000119,7069,WL,B,4.0
7,8.598000049591064,immed,51401.999950408936,Fri Feb 28 2025 10:36:35 GMT-0600 (Central Standard Time),966121.5,A,door,O,r,177,1,1217.199999988079,964904.3000000119,7069,WL,B,4.0
7,9.013999938964844,immed,50986.000061035156,Fri Feb 28 2025 10:36:35 GMT-0600 (Central Standard Time),966536.8000000119,A,doorenter,O,enter,400,1,1632.5,964904.3000000119,7069,WL,B,4.0
7,9.578999996185303,immed,50421.0000038147,Fri Feb 28 2025 10:36:35 GMT-0600 (Central Standard Time),967102.1000000238,A,s,O,s,553,1,565.0,966537.1000000238,7069,WL,B,5.0
7,9.86299991607666,immed,50137.00008392334,Fri Feb 28 2025 10:36:35 GMT-0600 (Central Standard Time),967386.4000000358,A,st,O,t,279,1,849.3000000119209,966537.1000000238,7069,WL,B,5.0
7,10.128999948501587,immed,49871.00005149841,Fri Feb 28 2025 10:36:35 GMT-0600 (Central Standard Time),967652.4000000358,A,sta,O,a,245,1,1115.300000011921,966537.1000000238,7069,WL,B,5.0
7,10.36299991607666,immed,49637.00008392334,Fri Feb 28 2025 10:36:35 GMT-0600 (Central Standard Time),967886.1000000238,A,star,O,r,213,1,1349.0,966537.1000000238,7069,WL,B,5.0
7,10.930999994277954,immed,49069.000005722046,Fri Feb 28 2025 10:36:35 GMT-0600 (Central Standard Time),968454.7000000477,A,starenter,O,enter,562,1,1917.6000000238419,966537.1000000238,7069,WL,B,5.0
7,11.628000020980835,immed,48371.999979019165,Fri Feb 28 2025 10:36:35 GMT-0600 (Central Standard Time),969151.3000000119,A,w,O,w,683,1,696.3999999761581,968454.9000000358,7069,WL,B,6.0
7,11.895999908447266,immed,48104.000091552734,Fri Feb 28 2025 10:36:35 GMT-0600 (Central Standard Time),969419.1000000238,A,wi,O,i,249,1,964.1999999880791,968454.9000000358,7069,WL,B,6.0
7,12.247999906539917,immed,47752.00009346008,Fri Feb 28 2025 10:36:35 GMT-0600 (Central Standard Time),969771.0,A,wif,O,f,346,1,1316.0999999642372,968454.9000000358,7069,WL,B,6.0
7,12.49399995803833,immed,47506.00004196167,Fri Feb 28 2025 10:36:35 GMT-0600 (Central Standard Time),970017.3000000119,A,wife,O,e,237,1,1562.3999999761581,968454.9000000358,7069,WL,B,6.0
7,12.746000051498413,immed,47253.99994850159,Fri Feb 28 2025 10:36:35 GMT-0600 (Central Standard Time),970269.2000000477,A,wifeenter,O,enter,240,1,1814.300000011921,968454.9000000358,7069,WL,B,6.0
7,13.062000036239624,immed,46937.999963760376,Fri Feb 28 2025 10:36:35 GMT-0600 (Central Standard Time),970585.5,A,w,O,w,301,1,316.0,970269.5,7069,WL,B,7.0
7,13.378999948501587,immed,46621.00005149841,Fri Feb 28 2025 10:36:35 GMT-0600 (Central Standard Time),970902.0,A,wi,O,i,303,1,632.5,970269.5,7069,WL,B,7.0
7,13.611999988555908,immed,46388.00001144409,Fri Feb 28 2025 10:36:35 GMT-0600 (Central Standard Time),971135.1000000238,A,win,O,n,219,1,865.6000000238419,970269.5,7069,WL,B,7.0
7,13.861999988555908,immed,46138.00001144409,Fri Feb 28 2025 10:36:35 GMT-0600 (Central Standard Time),971384.9000000358,A,wind,O,d,233,1,1115.4000000357628,970269.5,7069,WL,B,7.0
7,14.078999996185303,immed,45921.0000038147,Fri Feb 28 2025 10:36:35 GMT-0600 (Central Standard Time),971602.2000000477,A,windo,O,o,201,1,1332.7000000476837,970269.5,7069,WL,B,7.0
7,14.293999910354614,immed,45706.000089645386,Fri Feb 28 2025 10:36:35 GMT-0600 (Central Standard Time),971817.0,A,window,O,w,201,1,1547.5,970269.5,7069,WL,B,7.0
7,14.84500002861023,immed,45154.99997138977,Fri Feb 28 2025 10:36:35 GMT-0600 (Central Standard Time),972368.4000000358,A,windowenter,O,enter,548,1,2098.900000035763,970269.5,7069,WL,B,7.0
7,15.178999900817871,immed,44821.00009918213,Fri Feb 28 2025 10:36:35 GMT-0600 (Central Standard Time),972701.8000000119,A,c,O,c,322,1,333.0999999642372,972368.7000000477,7069,WL,B,8.0
7,15.545000076293945,immed,44454.999923706055,Fri Feb 28 2025 10:36:35 GMT-0600 (Central Standard Time),973067.8000000119,A,ci,O,i,348,1,699.0999999642372,972368.7000000477,7069,WL,B,8.0
7,15.82699990272522,immed,44173.00009727478,Fri Feb 28 2025 10:36:35 GMT-0600 (Central Standard Time),973349.9000000358,A,cit,O,t,269,1,981.1999999880791,972368.7000000477,7069,WL,B,8.0
7,16.210999965667725,immed,43789.000034332275,Fri Feb 28 2025 10:36:35 GMT-0600 (Central Standard Time),973734.7000000477,A,city,O,y,372,1,1366.0,972368.7000000477,7069,WL,B,8.0
7,16.644999980926514,immed,43355.000019073486,Fri Feb 28 2025 10:36:35 GMT-0600 (Central Standard Time),974168.2000000477,A,cityenter,O,enter,420,1,1799.5,972368.7000000477,7069,WL,B,8.0
7,18.22699999809265,immed,41773.00000190735,Fri Feb 28 2025 10:36:35 GMT-0600 (Central Standard Time),975750.3000000119,A,l,O,l,1570,1,1581.8999999761581,974168.4000000358,7069,WL,B,9.0
7,18.375999927520752,immed,41624.00007247925,Fri Feb 28 2025 10:36:35 GMT-0600 (Central Standard Time),975899.3000000119,A,la,O,a,132,1,1730.8999999761581,974168.4000000358,7069,WL,B,9.0
7,18.943000078201294,immed,41056.999921798706,Fri Feb 28 2025 10:36:35 GMT-0600 (Central Standard Time),976466.3000000119,A,lak,O,k,557,1,2297.899999976158,974168.4000000358,7069,WL,B,9.0
7,19.14400005340576,immed,40855.99994659424,Fri Feb 28 2025 10:36:35 GMT-0600 (Central Standard Time),976667.5,A,lake,O,e,191,1,2499.099999964237,974168.4000000358,7069,WL,B,9.0
7,19.625999927520752,immed,40374.00007247925,Fri Feb 28 2025 10:36:35 GMT-0600 (Central Standard Time),977149.8000000119,A,lakeenter,O,enter,462,1,2981.399999976158,974168.4000000358,7069,WL,B,9.0
7,20.67799997329712,immed,39322.00002670288,Fri Feb 28 2025 10:36:35 GMT-0600 (Central Standard Time),978200.9000000358,A,p,O,p,1045,1,1050.9000000357628,977150.0,7069,WL,B,10.0
7,20.977999925613403,immed,39022.0000743866,Fri Feb 28 2025 10:36:35 GMT-0600 (Central Standard Time),978501.0,A,pi,O,i,281,1,1351.0,977150.0,7069,WL,B,10.0
7,21.24399995803833,immed,38756.00004196167,Fri Feb 28 2025 10:36:35 GMT-0600 (Central Standard Time),978767.2000000477,A,pip,O,p,261,1,1617.2000000476837,977150.0,7069,WL,B,10.0
7,21.54200005531311,immed,38457.99994468689,Fri Feb 28 2025 10:36:35 GMT-0600 (Central Standard Time),979065.8000000119,A,pipe,O,e,283,1,1915.800000011921,977150.0,7069,WL,B,10.0
7,21.925999879837036,immed,38074.000120162964,Fri Feb 28 2025 10:36:35 GMT-0600 (Central Standard Time),979449.2000000477,A,pipeenter,O,enter,377,1,2299.2000000476837,977150.0,7069,WL,B,10.0
7,24.424999952316284,immed,35575.000047683716,Fri Feb 28 2025 10:36:35 GMT-0600 (Central Standard Time),981948.5,A,c,O,c,2489,1,2499.0,979449.5,7069,WL,B,11.0
7,24.69099998474121,immed,35309.00001525879,Fri Feb 28 2025 10:36:35 GMT-0600 (Central Standard Time),982214.5,A,cl,O,l,255,1,2765.0,979449.5,7069,WL,B,11.0
7,25.391000032424927,immed,34608.99996757507,Fri Feb 28 2025 10:36:35 GMT-0600 (Central Standard Time),982914.2000000477,A,clo,O,o,695,1,3464.7000000476837,979449.5,7069,WL,B,11.0
7,25.641000032424927,immed,34358.99996757507,Fri Feb 28 2025 10:36:35 GMT-0600 (Central Standard Time),983164.6000000238,A,cloc,O,c,240,1,3715.100000023842,979449.5,7069,WL,B,11.0
7,25.907000064849854,immed,34092.99993515015,Fri Feb 28 2025 10:36:35 GMT-0600 (Central Standard Time),983430.5,A,clock,O,k,253,1,3981.0,979449.5,7069,WL,B,11.0
7,26.44099998474121,immed,33559.00001525879,Fri Feb 28 2025 10:36:35 GMT-0600 (Central Standard Time),983964.5,A,clockenter,O,enter,517,1,4515.0,979449.5,7069,WL,B,11.0
7,27.04099988937378,immed,32959.00011062622,Fri Feb 28 2025 10:36:35 GMT-0600 (Central Standard Time),984564.5,A,f,O,f,591,1,599.7999999523163,983964.7000000477,7069,WL,B,12.0
7,27.289999961853027,immed,32710.000038146973,Fri Feb 28 2025 10:36:35 GMT-0600 (Central Standard Time),984813.3000000119,A,fi,O,i,237,1,848.5999999642372,983964.7000000477,7069,WL,B,12.0
7,27.573999881744385,immed,32426.000118255615,Fri Feb 28 2025 10:36:35 GMT-0600 (Central Standard Time),985097.4000000358,A,fir,O,r,279,1,1132.699999988079,983964.7000000477,7069,WL,B,12.0
7,27.888000011444092,immed,32111.99998855591,Fri Feb 28 2025 10:36:35 GMT-0600 (Central Standard Time),985411.4000000358,A,fire,O,e,304,1,1446.699999988079,983964.7000000477,7069,WL,B,12.0
7,28.27500009536743,immed,31724.99990463257,Fri Feb 28 2025 10:36:35 GMT-0600 (Central Standard Time),985798.3000000119,A,fireenter,O,enter,368,1,1833.5999999642372,983964.7000000477,7069,WL,B,12.0
7,29.740999937057495,immed,30259.000062942505,Fri Feb 28 2025 10:36:35 GMT-0600 (Central Standard Time),987264.3000000119,A,p,O,p,1460,1,1465.699999988079,985798.6000000238,7069,WL,B,13.0
7,30.055999994277954,immed,29944.000005722046,Fri Feb 28 2025 10:36:35 GMT-0600 (Central Standard Time),987579.4000000358,A,pi,O,i,305,1,1780.800000011921,985798.6000000238,7069,WL,B,13.0
7,30.58999991416931,immed,29410.00008583069,Fri Feb 28 2025 10:36:35 GMT-0600 (Central Standard Time),988113.6000000238,A,p,O,backspace,511,1,2315.0,985798.6000000238,7069,WL,B,13.0
7,30.957000017166138,immed,29042.999982833862,Fri Feb 28 2025 10:36:35 GMT-0600 (Central Standard Time),988480.1000000238,A,pu,O,u,342,1,2681.5,985798.6000000238,7069,WL,B,13.0
7,31.33899998664856,immed,28661.00001335144,Fri Feb 28 2025 10:36:35 GMT-0600 (Central Standard Time),988862.5,A,pup,O,p,369,1,3063.899999976158,985798.6000000238,7069,WL,B,13.0
7,31.67199993133545,immed,28328.00006866455,Fri Feb 28 2025 10:36:35 GMT-0600 (Central Standard Time),989195.7000000477,A,pupi,O,i,324,1,3397.100000023842,985798.6000000238,7069,WL,B,13.0
7,31.905999898910522,immed,28094.000101089478,Fri Feb 28 2025 10:36:35 GMT-0600 (Central Standard Time),989428.9000000358,A,pupil,O,l,214,1,3630.300000011921,985798.6000000238,7069,WL,B,13.0
7,33.605000019073486,immed,26394.999980926514,Fri Feb 28 2025 10:36:35 GMT-0600 (Central Standard Time),991128.5,A,pupilenter,O,enter,1685,1,5329.899999976158,985798.6000000238,7069,WL,B,13.0
7,40.53600001335144,immed,19463.99998664856,Fri Feb 28 2025 10:36:35 GMT-0600 (Central Standard Time),998059.0,A,s,O,s,6914,1,6930.299999952316,991128.7000000477,7069,WL,B,14.0
7,40.72000002861023,immed,19279.99997138977,Fri Feb 28 2025 10:36:35 GMT-0600 (Central Standard Time),998243.2000000477,A,sk,O,k,165,1,7114.5,991128.7000000477,7069,WL,B,14.0
7,40.90299987792969,immed,19097.000122070312,Fri Feb 28 2025 10:36:35 GMT-0600 (Central Standard Time),998426.5,A,ski,O,i,175,1,7297.799999952316,991128.7000000477,7069,WL,B,14.0
7,41.269999980926514,immed,18730.000019073486,Fri Feb 28 2025 10:36:35 GMT-0600 (Central Standard Time),998793.6000000238,A,skin,O,n,362,1,7664.899999976158,991128.7000000477,7069,WL,B,14.0
7,41.72000002861023,immed,18279.99997138977,Fri Feb 28 2025 10:36:35 GMT-0600 (Central Standard Time),999243.5,A,skinenter,O,enter,442,1,8114.799999952316,991128.7000000477,7069,WL,B,14.0
7,60.013999938964844,immed,-13.99993896484375,Fri Feb 28 2025 10:36:35 GMT-0600 (Central Standard Time),1017537.0,A,None,O,None,18289,1,18293.19999998808,999243.8000000119,7069,WL,B,15.0
