block_c,block_dur,condition,countdown,datetime,endtime,list,multichar_response,project,response,response_time,session_number,start_end,starttime,subject_id,task,task_vers,trial
,,,,Fri Sep 20 2024 14:37:37 GMT-0500 (Central Daylight Time),,,,I,space,367,1,,,8001,WL,A,
prac,,0,,Fri Sep 20 2024 14:37:37 GMT-0500 (Central Daylight Time),,NA,b,I,b,10499,1,,,8001,WL,A,1.0
prac,,0,,Fri Sep 20 2024 14:37:37 GMT-0500 (Central Daylight Time),,NA,bo,I,o,692,1,,,8001,WL,A,1.0
prac,,0,,Fri Sep 20 2024 14:37:37 GMT-0500 (Central Daylight Time),,NA,boo,I,o,161,1,,,8001,WL,A,1.0
prac,,0,,Fri Sep 20 2024 14:37:37 GMT-0500 (Central Daylight Time),,NA,boos,I,s,219,1,,,8001,WL,A,1.0
prac,,0,,Fri Sep 20 2024 14:37:37 GMT-0500 (Central Daylight Time),,NA,boost,I,t,178,1,,,8001,WL,A,1.0
prac,,0,,Fri Sep 20 2024 14:37:37 GMT-0500 (Central Daylight Time),,NA,boostenter,I,enter,4523,1,,,8001,WL,A,1.0
1,1.8659999370574951,learn,58134.000062942505,Fri Sep 20 2024 14:37:37 GMT-0500 (Central Daylight Time),165468.19999998808,A,b,I,b,1859,1,1865.8999999761581,163602.30000001192,8001,WL,A,1.0
1,2.498999834060669,learn,57501.00016593933,Fri Sep 20 2024 14:37:37 GMT-0500 (Central Daylight Time),166101.09999999404,A,bo,I,o,616,1,2498.7999999821186,163602.30000001192,8001,WL,A,1.0
1,2.615999937057495,learn,57384.000062942505,Fri Sep 20 2024 14:37:37 GMT-0500 (Central Daylight Time),166218.0,A,boo,I,o,111,1,2615.699999988079,163602.30000001192,8001,WL,A,1.0
1,2.8989999294281006,learn,57101.0000705719,Fri Sep 20 2024 14:37:37 GMT-0500 (Central Daylight Time),166501.09999999404,A,book,I,k,267,1,2898.7999999821186,163602.30000001192,8001,WL,A,1.0
1,3.4819998741149902,learn,56518.00012588501,Fri Sep 20 2024 14:37:37 GMT-0500 (Central Daylight Time),167084.19999998808,A,bookf,I,f,576,1,3481.899999976158,163602.30000001192,8001,WL,A,1.0
1,3.6989998817443848,learn,56301.000118255615,Fri Sep 20 2024 14:37:37 GMT-0500 (Central Daylight Time),167300.90000000596,A,bookfl,I,l,201,1,3698.5999999940395,163602.30000001192,8001,WL,A,1.0
1,3.9489998817443848,learn,56051.000118255615,Fri Sep 20 2024 14:37:37 GMT-0500 (Central Daylight Time),167550.90000000596,A,bookflo,I,o,231,1,3948.5999999940395,163602.30000001192,8001,WL,A,1.0
1,4.56499981880188,learn,55435.00018119812,Fri Sep 20 2024 14:37:37 GMT-0500 (Central Daylight Time),168167.19999998808,A,bookflow,I,w,606,1,4564.899999976158,163602.30000001192,8001,WL,A,1.0
1,4.847999811172485,learn,55152.000188827515,Fri Sep 20 2024 14:37:37 GMT-0500 (Central Daylight Time),168450.30000001192,A,bookflowe,I,e,269,1,4848.0,163602.30000001192,8001,WL,A,1.0
1,5.31499981880188,learn,54685.00018119812,Fri Sep 20 2024 14:37:37 GMT-0500 (Central Daylight Time),168917.09999999404,A,bookflower,I,r,451,1,5314.799999982119,163602.30000001192,8001,WL,A,1.0
1,6.71399998664856,learn,53286.00001335144,Fri Sep 20 2024 14:37:37 GMT-0500 (Central Daylight Time),170316.69999998808,A,bookflowe,I,backspace,1383,1,6714.399999976158,163602.30000001192,8001,WL,A,1.0
1,6.863999843597412,learn,53136.00015640259,Fri Sep 20 2024 14:37:37 GMT-0500 (Central Daylight Time),170466.5,A,bookflow,I,backspace,144,1,6864.199999988079,163602.30000001192,8001,WL,A,1.0
1,7.047999858856201,learn,52952.0001411438,Fri Sep 20 2024 14:37:37 GMT-0500 (Central Daylight Time),170650.0,A,bookflo,I,backspace,163,1,7047.699999988079,163602.30000001192,8001,WL,A,1.0
1,7.21399998664856,learn,52786.00001335144,Fri Sep 20 2024 14:37:37 GMT-0500 (Central Daylight Time),170816.30000001192,A,bookfl,I,backspace,147,1,7214.0,163602.30000001192,8001,WL,A,1.0
1,7.71399998664856,learn,52286.00001335144,Fri Sep 20 2024 14:37:37 GMT-0500 (Central Daylight Time),171316.30000001192,A,bookf,I,backspace,485,1,7714.0,163602.30000001192,8001,WL,A,1.0
1,8.13099980354309,learn,51869.00019645691,Fri Sep 20 2024 14:37:37 GMT-0500 (Central Daylight Time),171732.90000000596,A,book,I,backspace,400,1,8130.5999999940395,163602.30000001192,8001,WL,A,1.0
1,9.080999851226807,learn,50919.00014877319,Fri Sep 20 2024 14:37:37 GMT-0500 (Central Daylight Time),172682.69999998808,A,bookenter,I,enter,936,1,9080.399999976158,163602.30000001192,8001,WL,A,1.0
1,10.863999843597412,learn,49136.00015640259,Fri Sep 20 2024 14:37:37 GMT-0500 (Central Daylight Time),174465.59999999404,A,f,I,f,1762,1,1782.5,172683.09999999404,8001,WL,A,2.0
1,11.062999963760376,learn,48937.000036239624,Fri Sep 20 2024 14:37:37 GMT-0500 (Central Daylight Time),174665.0,A,fl,I,l,187,1,1981.9000000059605,172683.09999999404,8001,WL,A,2.0
1,11.262999773025513,learn,48737.00022697449,Fri Sep 20 2024 14:37:37 GMT-0500 (Central Daylight Time),174864.90000000596,A,flo,I,o,187,1,2181.800000011921,172683.09999999404,8001,WL,A,2.0
1,11.745999813079834,learn,48254.000186920166,Fri Sep 20 2024 14:37:37 GMT-0500 (Central Daylight Time),175348.30000001192,A,flow,I,w,468,1,2665.2000000178814,172683.09999999404,8001,WL,A,2.0
1,12.046000003814697,learn,47953.9999961853,Fri Sep 20 2024 14:37:37 GMT-0500 (Central Daylight Time),175648.19999998808,A,flowe,I,e,289,1,2965.0999999940395,172683.09999999404,8001,WL,A,2.0
1,12.36299991607666,learn,47637.00008392334,Fri Sep 20 2024 14:37:37 GMT-0500 (Central Daylight Time),175964.80000001192,A,flower,I,r,301,1,3281.7000000178814,172683.09999999404,8001,WL,A,2.0
1,18.275999784469604,learn,41724.000215530396,Fri Sep 20 2024 14:37:37 GMT-0500 (Central Daylight Time),181879.90000000596,A,flowerr,I,r,5896,1,9196.800000011921,172683.09999999404,8001,WL,A,2.0
1,18.459999799728394,learn,41540.00020027161,Fri Sep 20 2024 14:37:37 GMT-0500 (Central Daylight Time),182063.0,A,flowerru,I,u,165,1,9379.90000000596,172683.09999999404,8001,WL,A,2.0
1,18.625999927520752,learn,41374.00007247925,Fri Sep 20 2024 14:37:37 GMT-0500 (Central Daylight Time),182229.59999999404,A,flowerrug,I,g,158,1,9546.5,172683.09999999404,8001,WL,A,2.0
1,20.674999952316284,learn,39325.000047683716,Fri Sep 20 2024 14:37:37 GMT-0500 (Central Daylight Time),184278.59999999404,A,flowerru,I,backspace,2039,1,11595.5,172683.09999999404,8001,WL,A,2.0
1,20.97499990463257,learn,39025.00009536743,Fri Sep 20 2024 14:37:37 GMT-0500 (Central Daylight Time),184578.90000000596,A,flowerr,I,backspace,287,1,11895.800000011921,172683.09999999404,8001,WL,A,2.0
1,21.258999824523926,learn,38741.000175476074,Fri Sep 20 2024 14:37:37 GMT-0500 (Central Daylight Time),184862.0,A,flower,I,backspace,274,1,12178.90000000596,172683.09999999404,8001,WL,A,2.0
1,22.19099998474121,learn,37809.00001525879,Fri Sep 20 2024 14:37:37 GMT-0500 (Central Daylight Time),185794.80000001192,A,flowerenter,I,enter,927,1,13111.700000017881,172683.09999999404,8001,WL,A,2.0
1,23.625,learn,36375.0,Fri Sep 20 2024 14:37:37 GMT-0500 (Central Daylight Time),187228.0,A,r,I,r,1426,1,1432.800000011921,185795.19999998808,8001,WL,A,3.0
1,23.94099998474121,learn,36059.00001525879,Fri Sep 20 2024 14:37:37 GMT-0500 (Central Daylight Time),187544.5,A,ru,I,u,305,1,1749.300000011921,185795.19999998808,8001,WL,A,3.0
1,24.323999881744385,learn,35676.000118255615,Fri Sep 20 2024 14:37:37 GMT-0500 (Central Daylight Time),187927.80000001192,A,rug,I,g,373,1,2132.600000023842,185795.19999998808,8001,WL,A,3.0
1,30.771999835968018,learn,29228.000164031982,Fri Sep 20 2024 14:37:37 GMT-0500 (Central Daylight Time),194375.69999998808,A,rugenter,I,enter,6429,1,8580.5,185795.19999998808,8001,WL,A,3.0
1,38.019999980926514,learn,21980.000019073486,Fri Sep 20 2024 14:37:37 GMT-0500 (Central Daylight Time),201623.40000000596,A,m,I,m,7236,1,7247.200000017881,194376.19999998808,8001,WL,A,4.0
1,38.835999965667725,learn,21164.000034332275,Fri Sep 20 2024 14:37:37 GMT-0500 (Central Daylight Time),202439.69999998808,A,me,I,e,805,1,8063.5,194376.19999998808,8001,WL,A,4.0
1,38.96999979019165,learn,21030.00020980835,Fri Sep 20 2024 14:37:37 GMT-0500 (Central Daylight Time),202573.19999998808,A,mea,I,a,126,1,8197.0,194376.19999998808,8001,WL,A,4.0
1,39.18599987030029,learn,20814.000129699707,Fri Sep 20 2024 14:37:37 GMT-0500 (Central Daylight Time),202790.0,A,mead,I,d,200,1,8413.800000011921,194376.19999998808,8001,WL,A,4.0
1,39.48699998855591,learn,20513.00001144409,Fri Sep 20 2024 14:37:37 GMT-0500 (Central Daylight Time),203090.19999998808,A,meado,I,o,279,1,8714.0,194376.19999998808,8001,WL,A,4.0
1,39.93599987030029,learn,20064.000129699707,Fri Sep 20 2024 14:37:37 GMT-0500 (Central Daylight Time),203539.59999999404,A,meadow,I,w,443,1,9163.40000000596,194376.19999998808,8001,WL,A,4.0
1,42.28599977493286,learn,17714.00022506714,Fri Sep 20 2024 14:37:37 GMT-0500 (Central Daylight Time),205889.90000000596,A,meadowenter,I,enter,2330,1,11513.700000017881,194376.19999998808,8001,WL,A,4.0
1,53.61500000953674,learn,6384.999990463257,Fri Sep 20 2024 14:37:37 GMT-0500 (Central Daylight Time),217218.59999999404,A,enter,I,enter,11306,1,11328.199999988079,205890.40000000596,8001,WL,A,5.0
1,53.81499981880188,learn,6185.00018119812,Fri Sep 20 2024 14:37:37 GMT-0500 (Central Daylight Time),217418.40000000596,A,enter,I,enter,194,1,199.30000001192093,217219.09999999404,8001,WL,A,6.0
1,54.06499981880188,learn,5935.00018119812,Fri Sep 20 2024 14:37:37 GMT-0500 (Central Daylight Time),217668.30000001192,A,enter,I,enter,235,1,249.60000002384186,217418.69999998808,8001,WL,A,7.0
1,54.21499991416931,learn,5785.0000858306885,Fri Sep 20 2024 14:37:37 GMT-0500 (Central Daylight Time),217818.30000001192,A,enter,I,enter,136,1,149.5,217668.80000001192,8001,WL,A,8.0
1,54.36500000953674,learn,5634.999990463257,Fri Sep 20 2024 14:37:37 GMT-0500 (Central Daylight Time),217968.19999998808,A,enter,I,enter,130,1,149.2999999821186,217818.90000000596,8001,WL,A,9.0
1,54.514999866485596,learn,5485.000133514404,Fri Sep 20 2024 14:37:37 GMT-0500 (Central Daylight Time),218118.30000001192,A,enter,I,enter,133,1,149.5,217968.80000001192,8001,WL,A,10.0
1,54.66499996185303,learn,5335.000038146973,Fri Sep 20 2024 14:37:37 GMT-0500 (Central Daylight Time),218268.09999999404,A,enter,I,enter,135,1,149.5,218118.59999999404,8001,WL,A,11.0
1,54.91599988937378,learn,5084.000110626221,Fri Sep 20 2024 14:37:37 GMT-0500 (Central Daylight Time),218519.19999998808,A,enter,I,enter,233,1,250.69999998807907,218268.5,8001,WL,A,12.0
1,55.14800000190735,learn,4851.999998092651,Fri Sep 20 2024 14:37:37 GMT-0500 (Central Daylight Time),218751.30000001192,A,enter,I,enter,222,1,231.7000000178814,218519.59999999404,8001,WL,A,13.0
1,55.46499991416931,learn,4535.0000858306885,Fri Sep 20 2024 14:37:37 GMT-0500 (Central Daylight Time),219068.0,A,enter,I,enter,302,1,316.30000001192093,218751.69999998808,8001,WL,A,14.0
1,55.78099989891052,learn,4219.0001010894775,Fri Sep 20 2024 14:37:37 GMT-0500 (Central Daylight Time),219384.5,A,enter,I,enter,297,1,316.0,219068.5,8001,WL,A,15.0
2,2.133000135421753,learn,57866.99986457825,Fri Sep 20 2024 14:37:37 GMT-0500 (Central Daylight Time),294460.90000000596,A,b,I,b,2118,1,2132.5,292328.40000000596,8001,WL,A,1.0
2,2.517000198364258,learn,57482.99980163574,Fri Sep 20 2024 14:37:37 GMT-0500 (Central Daylight Time),294844.5,A,bo,I,o,368,1,2516.0999999940395,292328.40000000596,8001,WL,A,1.0
2,2.6670000553131104,learn,57332.99994468689,Fri Sep 20 2024 14:37:37 GMT-0500 (Central Daylight Time),294994.40000000596,A,boo,I,o,129,1,2666.0,292328.40000000596,8001,WL,A,1.0
2,2.933000087738037,learn,57066.99991226196,Fri Sep 20 2024 14:37:37 GMT-0500 (Central Daylight Time),295260.8000000119,A,book,I,k,251,1,2932.4000000059605,292328.40000000596,8001,WL,A,1.0
2,4.083000183105469,learn,55916.99981689453,Fri Sep 20 2024 14:37:37 GMT-0500 (Central Daylight Time),296410.59999999404,A,bookenter,I,enter,1129,1,4082.199999988079,292328.40000000596,8001,WL,A,1.0
2,4.466000080108643,learn,55533.99991989136,Fri Sep 20 2024 14:37:37 GMT-0500 (Central Daylight Time),296793.90000000596,A,f,I,f,363,1,383.0,296410.90000000596,8001,WL,A,2.0
2,4.715000152587891,learn,55284.99984741211,Fri Sep 20 2024 14:37:37 GMT-0500 (Central Daylight Time),297043.5,A,fl,I,l,236,1,632.5999999940395,296410.90000000596,8001,WL,A,2.0
2,4.914999961853027,learn,55085.00003814697,Fri Sep 20 2024 14:37:37 GMT-0500 (Central Daylight Time),297243.59999999404,A,flo,I,o,193,1,832.6999999880791,296410.90000000596,8001,WL,A,2.0
2,5.265000104904175,learn,54734.999895095825,Fri Sep 20 2024 14:37:37 GMT-0500 (Central Daylight Time),297593.1999999881,A,flow,I,w,330,1,1182.2999999821186,296410.90000000596,8001,WL,A,2.0
2,5.498000144958496,learn,54501.999855041504,Fri Sep 20 2024 14:37:37 GMT-0500 (Central Daylight Time),297826.5,A,flowe,I,e,228,1,1415.5999999940395,296410.90000000596,8001,WL,A,2.0
2,5.834000110626221,learn,54165.99988937378,Fri Sep 20 2024 14:37:37 GMT-0500 (Central Daylight Time),298162.1999999881,A,flower,I,r,323,1,1751.2999999821186,296410.90000000596,8001,WL,A,2.0
2,6.981000185012817,learn,53018.99981498718,Fri Sep 20 2024 14:37:37 GMT-0500 (Central Daylight Time),299309.5,A,flowerenter,I,enter,1139,1,2898.5999999940395,296410.90000000596,8001,WL,A,2.0
2,7.498000144958496,learn,52501.999855041504,Fri Sep 20 2024 14:37:37 GMT-0500 (Central Daylight Time),299826.09999999404,A,t,I,t,512,1,516.2999999821186,299309.8000000119,8001,WL,A,3.0
2,9.097000122070312,learn,50902.99987792969,Fri Sep 20 2024 14:37:37 GMT-0500 (Central Daylight Time),301425.40000000596,A,tr,I,r,1587,1,2115.5999999940395,299309.8000000119,8001,WL,A,3.0
2,9.51200008392334,learn,50487.99991607666,Fri Sep 20 2024 14:37:37 GMT-0500 (Central Daylight Time),301840.1999999881,A,tra,I,a,264,1,2530.399999976158,299309.8000000119,8001,WL,A,3.0
2,9.633000135421753,learn,50366.99986457825,Fri Sep 20 2024 14:37:37 GMT-0500 (Central Daylight Time),301961.59999999404,A,trai,I,i,111,1,2651.7999999821186,299309.8000000119,8001,WL,A,3.0
2,9.847000122070312,learn,50152.99987792969,Fri Sep 20 2024 14:37:37 GMT-0500 (Central Daylight Time),302175.09999999404,A,train,I,n,196,1,2865.2999999821186,299309.8000000119,8001,WL,A,3.0
2,11.330000162124634,learn,48669.999837875366,Fri Sep 20 2024 14:37:37 GMT-0500 (Central Daylight Time),303658.09999999404,A,trainenter,I,enter,1462,1,4348.299999982119,299309.8000000119,8001,WL,A,3.0
2,11.963000059127808,learn,48036.99994087219,Fri Sep 20 2024 14:37:37 GMT-0500 (Central Daylight Time),304291.3000000119,A,r,I,r,627,1,632.8000000119209,303658.5,8001,WL,A,4.0
2,12.27999997138977,learn,47720.00002861023,Fri Sep 20 2024 14:37:37 GMT-0500 (Central Daylight Time),304608.0,A,ru,I,u,298,1,949.5,303658.5,8001,WL,A,4.0
2,13.213000059127808,learn,46786.99994087219,Fri Sep 20 2024 14:37:37 GMT-0500 (Central Daylight Time),305541.0,A,rug,I,g,925,1,1882.5,303658.5,8001,WL,A,4.0
2,13.84500002861023,learn,46154.99997138977,Fri Sep 20 2024 14:37:37 GMT-0500 (Central Daylight Time),306173.8000000119,A,rugenter,I,enter,624,1,2515.300000011921,303658.5,8001,WL,A,4.0
2,14.644999980926514,learn,45355.000019073486,Fri Sep 20 2024 14:37:37 GMT-0500 (Central Daylight Time),306973.59999999404,A,m,I,m,784,1,799.6999999880791,306173.90000000596,8001,WL,A,5.0
2,14.980000019073486,learn,45019.999980926514,Fri Sep 20 2024 14:37:37 GMT-0500 (Central Daylight Time),307308.1999999881,A,me,I,e,328,1,1134.2999999821186,306173.90000000596,8001,WL,A,5.0
2,15.462000131607056,learn,44537.999868392944,Fri Sep 20 2024 14:37:37 GMT-0500 (Central Daylight Time),307790.1999999881,A,mea,I,a,473,1,1616.2999999821186,306173.90000000596,8001,WL,A,5.0
2,15.745000123977661,learn,44254.99987602234,Fri Sep 20 2024 14:37:37 GMT-0500 (Central Daylight Time),308073.1999999881,A,mead,I,d,271,1,1899.2999999821186,306173.90000000596,8001,WL,A,5.0
2,16.16200017929077,learn,43837.99982070923,Fri Sep 20 2024 14:37:37 GMT-0500 (Central Daylight Time),308490.09999999404,A,meado,I,o,412,1,2316.199999988079,306173.90000000596,8001,WL,A,5.0
2,16.84600019454956,learn,43153.99980545044,Fri Sep 20 2024 14:37:37 GMT-0500 (Central Daylight Time),309174.3000000119,A,meadow,I,w,667,1,3000.4000000059605,306173.90000000596,8001,WL,A,5.0
2,17.561000108718872,learn,42438.99989128113,Fri Sep 20 2024 14:37:37 GMT-0500 (Central Daylight Time),309889.6999999881,A,meadowenter,I,enter,695,1,3715.7999999821186,306173.90000000596,8001,WL,A,5.0
2,18.128000020980835,learn,41871.999979019165,Fri Sep 20 2024 14:37:37 GMT-0500 (Central Daylight Time),310456.1999999881,A,h,I,h,556,1,566.1999999880791,309890.0,8001,WL,A,6.0
2,18.311000108718872,learn,41688.99989128113,Fri Sep 20 2024 14:37:37 GMT-0500 (Central Daylight Time),310639.5,A,ha,I,a,173,1,749.5,309890.0,8001,WL,A,6.0
2,18.89400005340576,learn,41105.99994659424,Fri Sep 20 2024 14:37:37 GMT-0500 (Central Daylight Time),311222.1999999881,A,har,I,r,574,1,1332.199999988079,309890.0,8001,WL,A,6.0
2,19.22699999809265,learn,40773.00000190735,Fri Sep 20 2024 14:37:37 GMT-0500 (Central Daylight Time),311555.6999999881,A,harp,I,p,327,1,1665.699999988079,309890.0,8001,WL,A,6.0
2,19.811000108718872,learn,40188.99989128113,Fri Sep 20 2024 14:37:37 GMT-0500 (Central Daylight Time),312139.0,A,harps,I,s,570,1,2249.0,309890.0,8001,WL,A,6.0
2,20.027000188827515,learn,39972.999811172485,Fri Sep 20 2024 14:37:37 GMT-0500 (Central Daylight Time),312355.3000000119,A,harpsa,I,a,210,1,2465.300000011921,309890.0,8001,WL,A,6.0
2,20.64400005340576,learn,39355.99994659424,Fri Sep 20 2024 14:37:37 GMT-0500 (Central Daylight Time),312971.90000000596,A,harpsal,I,l,610,1,3081.9000000059605,309890.0,8001,WL,A,6.0
2,21.527000188827515,learn,38472.999811172485,Fri Sep 20 2024 14:37:37 GMT-0500 (Central Daylight Time),313855.0,A,harpsalt,I,t,866,1,3965.0,309890.0,8001,WL,A,6.0
2,24.442000150680542,learn,35557.99984931946,Fri Sep 20 2024 14:37:37 GMT-0500 (Central Daylight Time),316770.8000000119,A,harpsal,I,backspace,2902,1,6880.800000011921,309890.0,8001,WL,A,6.0
2,24.642000198364258,learn,35357.99980163574,Fri Sep 20 2024 14:37:37 GMT-0500 (Central Daylight Time),316970.59999999404,A,harpsa,I,backspace,195,1,7080.5999999940395,309890.0,8001,WL,A,6.0
2,24.858999967575073,learn,35141.00003242493,Fri Sep 20 2024 14:37:37 GMT-0500 (Central Daylight Time),317187.1999999881,A,harps,I,backspace,211,1,7297.199999988079,309890.0,8001,WL,A,6.0
2,25.092000007629395,learn,34907.999992370605,Fri Sep 20 2024 14:37:37 GMT-0500 (Central Daylight Time),317420.5,A,harp,I,backspace,218,1,7530.5,309890.0,8001,WL,A,6.0
2,26.30900001525879,learn,33690.99998474121,Fri Sep 20 2024 14:37:37 GMT-0500 (Central Daylight Time),318636.90000000596,A,harpenter,I,enter,1209,1,8746.90000000596,309890.0,8001,WL,A,6.0
2,26.675000190734863,learn,33324.99980926514,Fri Sep 20 2024 14:37:37 GMT-0500 (Central Daylight Time),319003.1999999881,A,s,I,s,352,1,366.0,318637.1999999881,8001,WL,A,7.0
2,26.975000143051147,learn,33024.99985694885,Fri Sep 20 2024 14:37:37 GMT-0500 (Central Daylight Time),319303.3000000119,A,sa,I,a,290,1,666.1000000238419,318637.1999999881,8001,WL,A,7.0
2,27.258000135421753,learn,32741.999864578247,Fri Sep 20 2024 14:37:37 GMT-0500 (Central Daylight Time),319586.3000000119,A,sal,I,l,278,1,949.1000000238419,318637.1999999881,8001,WL,A,7.0
2,27.85800004005432,learn,32141.99995994568,Fri Sep 20 2024 14:37:37 GMT-0500 (Central Daylight Time),320186.1999999881,A,salt,I,t,595,1,1549.0,318637.1999999881,8001,WL,A,7.0
2,31.907000064849854,learn,28092.999935150146,Fri Sep 20 2024 14:37:37 GMT-0500 (Central Daylight Time),324235.1999999881,A,saltenter,I,enter,4035,1,5598.0,318637.1999999881,8001,WL,A,7.0
2,34.44099998474121,learn,25559.00001525879,Fri Sep 20 2024 14:37:37 GMT-0500 (Central Daylight Time),326769.40000000596,A,f,I,f,2522,1,2533.9000000059605,324235.5,8001,WL,A,8.0
2,34.706000089645386,learn,25293.999910354614,Fri Sep 20 2024 14:37:37 GMT-0500 (Central Daylight Time),327034.09999999404,A,fi,I,i,260,1,2798.5999999940395,324235.5,8001,WL,A,8.0
2,34.9060001373291,learn,25093.9998626709,Fri Sep 20 2024 14:37:37 GMT-0500 (Central Daylight Time),327234.0,A,fin,I,n,187,1,2998.5,324235.5,8001,WL,A,8.0
2,35.32200002670288,learn,24677.99997329712,Fri Sep 20 2024 14:37:37 GMT-0500 (Central Daylight Time),327650.59999999404,A,fing,I,g,403,1,3415.0999999940395,324235.5,8001,WL,A,8.0
2,35.7720000743866,learn,24227.999925613403,Fri Sep 20 2024 14:37:37 GMT-0500 (Central Daylight Time),328100.5,A,finge,I,e,443,1,3865.0,324235.5,8001,WL,A,8.0
2,36.205000162124634,learn,23794.999837875366,Fri Sep 20 2024 14:37:37 GMT-0500 (Central Daylight Time),328533.6999999881,A,finger,I,r,425,1,4298.199999988079,324235.5,8001,WL,A,8.0
2,37.82200002670288,learn,22177.99997329712,Fri Sep 20 2024 14:37:37 GMT-0500 (Central Daylight Time),330149.90000000596,A,fingerenter,I,enter,1608,1,5914.4000000059605,324235.5,8001,WL,A,8.0
2,38.455000162124634,learn,21544.999837875366,Fri Sep 20 2024 14:37:37 GMT-0500 (Central Daylight Time),330782.90000000596,A,l,I,l,616,1,632.7000000178814,330150.1999999881,8001,WL,A,9.0
2,38.72100019454956,learn,21278.99980545044,Fri Sep 20 2024 14:37:37 GMT-0500 (Central Daylight Time),331049.5,A,lo,I,o,254,1,899.3000000119209,330150.1999999881,8001,WL,A,9.0
2,39.021000146865845,learn,20978.999853134155,Fri Sep 20 2024 14:37:37 GMT-0500 (Central Daylight Time),331349.5,A,log,I,g,292,1,1199.300000011921,330150.1999999881,8001,WL,A,9.0
2,39.63800001144409,learn,20361.99998855591,Fri Sep 20 2024 14:37:37 GMT-0500 (Central Daylight Time),331965.90000000596,A,logenter,I,enter,600,1,1815.7000000178814,330150.1999999881,8001,WL,A,9.0
2,40.17200016975403,learn,19827.99983024597,Fri Sep 20 2024 14:37:37 GMT-0500 (Central Daylight Time),332500.1999999881,A,k,I,k,527,1,533.8999999761581,331966.3000000119,8001,WL,A,10.0
2,40.53700017929077,learn,19462.99982070923,Fri Sep 20 2024 14:37:37 GMT-0500 (Central Daylight Time),332865.8000000119,A,ke,I,e,345,1,899.5,331966.3000000119,8001,WL,A,10.0
2,41.187000036239624,learn,18812.999963760376,Fri Sep 20 2024 14:37:37 GMT-0500 (Central Daylight Time),333515.5,A,key,I,y,636,1,1549.199999988079,331966.3000000119,8001,WL,A,10.0
2,44.835999965667725,learn,15164.000034332275,Fri Sep 20 2024 14:37:37 GMT-0500 (Central Daylight Time),337164.1999999881,A,keyenter,I,enter,3642,1,5197.899999976158,331966.3000000119,8001,WL,A,10.0
2,45.503000020980835,learn,14496.999979019165,Fri Sep 20 2024 14:37:37 GMT-0500 (Central Daylight Time),337830.90000000596,A,enter,I,enter,649,1,666.3000000119209,337164.59999999404,8001,WL,A,11.0
2,45.835999965667725,learn,14164.000034332275,Fri Sep 20 2024 14:37:37 GMT-0500 (Central Daylight Time),338164.09999999404,A,enter,I,enter,319,1,332.90000000596046,337831.1999999881,8001,WL,A,12.0
2,46.10199999809265,learn,13898.000001907349,Fri Sep 20 2024 14:37:37 GMT-0500 (Central Daylight Time),338430.6999999881,A,enter,I,enter,257,1,266.19999998807907,338164.5,8001,WL,A,13.0
2,46.38600015640259,learn,13613.999843597412,Fri Sep 20 2024 14:37:37 GMT-0500 (Central Daylight Time),338713.90000000596,A,enter,I,enter,271,1,282.7000000178814,338431.1999999881,8001,WL,A,14.0
2,46.76900005340576,learn,13230.999946594238,Fri Sep 20 2024 14:37:37 GMT-0500 (Central Daylight Time),339096.90000000596,A,enter,I,enter,364,1,382.7000000178814,338714.1999999881,8001,WL,A,15.0
3,2.6989998817443848,learn,57301.000118255615,Fri Sep 20 2024 14:37:37 GMT-0500 (Central Daylight Time),412174.3000000119,A,f,I,f,2683,1,2699.100000023842,409475.1999999881,8001,WL,A,1.0
3,3.2319998741149902,learn,56768.00012588501,Fri Sep 20 2024 14:37:37 GMT-0500 (Central Daylight Time),412707.09999999404,A,fl,I,l,527,1,3231.9000000059605,409475.1999999881,8001,WL,A,1.0
3,3.7159998416900635,learn,56284.00015830994,Fri Sep 20 2024 14:37:37 GMT-0500 (Central Daylight Time),413190.5,A,flo,I,o,467,1,3715.300000011921,409475.1999999881,8001,WL,A,1.0
3,4.198999881744385,learn,55801.000118255615,Fri Sep 20 2024 14:37:37 GMT-0500 (Central Daylight Time),413673.6999999881,A,flow,I,w,463,1,4198.5,409475.1999999881,8001,WL,A,1.0
3,4.498999834060669,learn,55501.00016593933,Fri Sep 20 2024 14:37:37 GMT-0500 (Central Daylight Time),413973.6999999881,A,flowe,I,e,292,1,4498.5,409475.1999999881,8001,WL,A,1.0
3,6.115000009536743,learn,53884.99999046326,Fri Sep 20 2024 14:37:37 GMT-0500 (Central Daylight Time),415589.90000000596,A,flow,I,backspace,1599,1,6114.700000017881,409475.1999999881,8001,WL,A,1.0
3,6.31499981880188,learn,53685.00018119812,Fri Sep 20 2024 14:37:37 GMT-0500 (Central Daylight Time),415789.6999999881,A,flo,I,backspace,191,1,6314.5,409475.1999999881,8001,WL,A,1.0
3,6.4649999141693115,learn,53535.00008583069,Fri Sep 20 2024 14:37:37 GMT-0500 (Central Daylight Time),415940.40000000596,A,fl,I,backspace,144,1,6465.200000017881,409475.1999999881,8001,WL,A,1.0
3,6.615000009536743,learn,53384.99999046326,Fri Sep 20 2024 14:37:37 GMT-0500 (Central Daylight Time),416089.5,A,f,I,backspace,137,1,6614.300000011921,409475.1999999881,8001,WL,A,1.0
3,6.998999834060669,learn,53001.00016593933,Fri Sep 20 2024 14:37:37 GMT-0500 (Central Daylight Time),416473.90000000596,A,,I,backspace,364,1,6998.700000017881,409475.1999999881,8001,WL,A,1.0
3,7.846999883651733,learn,52153.00011634827,Fri Sep 20 2024 14:37:37 GMT-0500 (Central Daylight Time),417322.3000000119,A,b,I,b,835,1,7847.100000023842,409475.1999999881,8001,WL,A,1.0
3,8.179999828338623,learn,51820.00017166138,Fri Sep 20 2024 14:37:37 GMT-0500 (Central Daylight Time),417655.8000000119,A,bo,I,o,323,1,8180.600000023842,409475.1999999881,8001,WL,A,1.0
3,8.346999883651733,learn,51653.00011634827,Fri Sep 20 2024 14:37:37 GMT-0500 (Central Daylight Time),417822.40000000596,A,boo,I,o,158,1,8347.200000017881,409475.1999999881,8001,WL,A,1.0
3,8.579999923706055,learn,51420.000076293945,Fri Sep 20 2024 14:37:37 GMT-0500 (Central Daylight Time),418055.59999999404,A,book,I,k,223,1,8580.40000000596,409475.1999999881,8001,WL,A,1.0
3,10.312999963760376,learn,49687.000036239624,Fri Sep 20 2024 14:37:37 GMT-0500 (Central Daylight Time),419788.0,A,bookenter,I,enter,1726,1,10312.800000011921,409475.1999999881,8001,WL,A,1.0
3,10.629999876022339,learn,49370.00012397766,Fri Sep 20 2024 14:37:37 GMT-0500 (Central Daylight Time),420105.0,A,f,I,f,298,1,316.69999998807907,419788.3000000119,8001,WL,A,2.0
3,10.86299991607666,learn,49137.00008392334,Fri Sep 20 2024 14:37:37 GMT-0500 (Central Daylight Time),420338.5,A,fl,I,l,212,1,550.1999999880791,419788.3000000119,8001,WL,A,2.0
3,11.046000003814697,learn,48953.9999961853,Fri Sep 20 2024 14:37:37 GMT-0500 (Central Daylight Time),420521.6999999881,A,flo,I,o,163,1,733.3999999761581,419788.3000000119,8001,WL,A,2.0
3,11.361999988555908,learn,48638.00001144409,Fri Sep 20 2024 14:37:37 GMT-0500 (Central Daylight Time),420837.90000000596,A,flow,I,w,308,1,1049.5999999940395,419788.3000000119,8001,WL,A,2.0
3,11.645999908447266,learn,48354.000091552734,Fri Sep 20 2024 14:37:37 GMT-0500 (Central Daylight Time),421121.5,A,flowe,I,e,272,1,1333.199999988079,419788.3000000119,8001,WL,A,2.0
3,12.944999933242798,learn,47055.0000667572,Fri Sep 20 2024 14:37:37 GMT-0500 (Central Daylight Time),422420.6999999881,A,flower,I,r,1284,1,2632.399999976158,419788.3000000119,8001,WL,A,2.0
3,15.41100001335144,learn,44588.99998664856,Fri Sep 20 2024 14:37:37 GMT-0500 (Central Daylight Time),424886.90000000596,A,flowerb,I,b,2457,1,5098.5999999940395,419788.3000000119,8001,WL,A,2.0
3,15.694999933242798,learn,44305.0000667572,Fri Sep 20 2024 14:37:37 GMT-0500 (Central Daylight Time),425170.09999999404,A,flowerbe,I,e,279,1,5381.799999982119,419788.3000000119,8001,WL,A,2.0
3,16.060999870300293,learn,43939.00012969971,Fri Sep 20 2024 14:37:37 GMT-0500 (Central Daylight Time),425536.5,A,flowerbel,I,l,355,1,5748.199999988079,419788.3000000119,8001,WL,A,2.0
3,16.26099991798401,learn,43739.00008201599,Fri Sep 20 2024 14:37:37 GMT-0500 (Central Daylight Time),425736.40000000596,A,flowerbell,I,l,181,1,5948.0999999940395,419788.3000000119,8001,WL,A,2.0
3,17.49399995803833,learn,42506.00004196167,Fri Sep 20 2024 14:37:37 GMT-0500 (Central Daylight Time),426969.59999999404,A,flowerbellenter,I,enter,1213,1,7181.299999982119,419788.3000000119,8001,WL,A,2.0
3,18.01099991798401,learn,41989.00008201599,Fri Sep 20 2024 14:37:37 GMT-0500 (Central Daylight Time),427486.09999999404,A,r,I,r,508,1,516.2999999821186,426969.8000000119,8001,WL,A,3.0
3,18.3439998626709,learn,41656.0001373291,Fri Sep 20 2024 14:37:37 GMT-0500 (Central Daylight Time),427819.09999999404,A,ru,I,u,319,1,849.2999999821186,426969.8000000119,8001,WL,A,3.0
3,19.80999994277954,learn,40190.00005722046,Fri Sep 20 2024 14:37:37 GMT-0500 (Central Daylight Time),429285.3000000119,A,rug,I,g,1458,1,2315.5,426969.8000000119,8001,WL,A,3.0
3,22.192999839782715,learn,37807.000160217285,Fri Sep 20 2024 14:37:37 GMT-0500 (Central Daylight Time),431668.09999999404,A,rugenter,I,enter,2368,1,4698.299999982119,426969.8000000119,8001,WL,A,3.0
3,28.891000032424927,learn,31108.999967575073,Fri Sep 20 2024 14:37:37 GMT-0500 (Central Daylight Time),438366.0,A,t,I,t,6689,1,6697.5999999940395,431668.40000000596,8001,WL,A,4.0
3,29.12399983406067,learn,30876.00016593933,Fri Sep 20 2024 14:37:37 GMT-0500 (Central Daylight Time),438599.09999999404,A,tr,I,r,223,1,6930.699999988079,431668.40000000596,8001,WL,A,4.0
3,29.289999961853027,learn,30710.000038146973,Fri Sep 20 2024 14:37:37 GMT-0500 (Central Daylight Time),438765.8000000119,A,tra,I,a,158,1,7097.4000000059605,431668.40000000596,8001,WL,A,4.0
3,29.674000024795532,learn,30325.999975204468,Fri Sep 20 2024 14:37:37 GMT-0500 (Central Daylight Time),439149.1999999881,A,trai,I,i,367,1,7480.799999982119,431668.40000000596,8001,WL,A,4.0
3,29.85800004005432,learn,30141.99995994568,Fri Sep 20 2024 14:37:37 GMT-0500 (Central Daylight Time),439333.09999999404,A,train,I,n,176,1,7664.699999988079,431668.40000000596,8001,WL,A,4.0
3,30.322999954223633,learn,29677.000045776367,Fri Sep 20 2024 14:37:37 GMT-0500 (Central Daylight Time),439798.6999999881,A,trainenter,I,enter,456,1,8130.299999982119,431668.40000000596,8001,WL,A,4.0
3,30.6729998588562,learn,29327.0001411438,Fri Sep 20 2024 14:37:37 GMT-0500 (Central Daylight Time),440148.6999999881,A,f,I,f,343,1,349.59999999403954,439799.09999999404,8001,WL,A,5.0
3,30.973000049591064,learn,29026.999950408936,Fri Sep 20 2024 14:37:37 GMT-0500 (Central Daylight Time),440448.5,A,fi,I,i,281,1,649.4000000059605,439799.09999999404,8001,WL,A,5.0
3,31.33999991416931,learn,28660.00008583069,Fri Sep 20 2024 14:37:37 GMT-0500 (Central Daylight Time),440815.0,A,fin,I,n,349,1,1015.9000000059605,439799.09999999404,8001,WL,A,5.0
3,31.52300000190735,learn,28476.99999809265,Fri Sep 20 2024 14:37:37 GMT-0500 (Central Daylight Time),440998.40000000596,A,fing,I,g,174,1,1199.300000011921,439799.09999999404,8001,WL,A,5.0
3,32.00600004196167,learn,27993.99995803833,Fri Sep 20 2024 14:37:37 GMT-0500 (Central Daylight Time),441481.59999999404,A,finge,I,e,471,1,1682.5,439799.09999999404,8001,WL,A,5.0
3,32.20599985122681,learn,27794.000148773193,Fri Sep 20 2024 14:37:37 GMT-0500 (Central Daylight Time),441681.59999999404,A,finger,I,r,180,1,1882.5,439799.09999999404,8001,WL,A,5.0
3,33.02199983596802,learn,26978.000164031982,Fri Sep 20 2024 14:37:37 GMT-0500 (Central Daylight Time),442497.90000000596,A,fingerh,I,h,812,1,2698.800000011921,439799.09999999404,8001,WL,A,5.0
3,33.23899984359741,learn,26761.000156402588,Fri Sep 20 2024 14:37:37 GMT-0500 (Central Daylight Time),442714.40000000596,A,fingerha,I,a,212,1,2915.300000011921,439799.09999999404,8001,WL,A,5.0
3,33.90599989891052,learn,26094.000101089478,Fri Sep 20 2024 14:37:37 GMT-0500 (Central Daylight Time),443381.09999999404,A,fingerhar,I,r,651,1,3582.0,439799.09999999404,8001,WL,A,5.0
3,34.138999938964844,learn,25861.000061035156,Fri Sep 20 2024 14:37:37 GMT-0500 (Central Daylight Time),443614.1999999881,A,fingerharp,I,p,224,1,3815.0999999940395,439799.09999999404,8001,WL,A,5.0
3,34.97199988365173,learn,25028.000116348267,Fri Sep 20 2024 14:37:37 GMT-0500 (Central Daylight Time),444447.40000000596,A,fingerharpenter,I,enter,823,1,4648.300000011921,439799.09999999404,8001,WL,A,5.0
3,36.687999963760376,learn,23312.000036239624,Fri Sep 20 2024 14:37:37 GMT-0500 (Central Daylight Time),446163.5,A,s,I,s,1702,1,1715.800000011921,444447.6999999881,8001,WL,A,6.0
3,37.33799982070923,learn,22662.00017929077,Fri Sep 20 2024 14:37:37 GMT-0500 (Central Daylight Time),446813.5,A,sa,I,a,642,1,2365.800000011921,444447.6999999881,8001,WL,A,6.0
3,37.853999853134155,learn,22146.000146865845,Fri Sep 20 2024 14:37:37 GMT-0500 (Central Daylight Time),447329.90000000596,A,sal,I,l,504,1,2882.2000000178814,444447.6999999881,8001,WL,A,6.0
3,38.353999853134155,learn,21646.000146865845,Fri Sep 20 2024 14:37:37 GMT-0500 (Central Daylight Time),447829.5,A,salt,I,t,492,1,3381.800000011921,444447.6999999881,8001,WL,A,6.0
3,40.36999988555908,learn,19630.000114440918,Fri Sep 20 2024 14:37:37 GMT-0500 (Central Daylight Time),449845.1999999881,A,saltenter,I,enter,2000,1,5397.5,444447.6999999881,8001,WL,A,6.0
3,42.168999910354614,learn,17831.000089645386,Fri Sep 20 2024 14:37:37 GMT-0500 (Central Daylight Time),451644.90000000596,A,a,I,a,1792,1,1799.4000000059605,449845.5,8001,WL,A,7.0
3,42.503000020980835,learn,17496.999979019165,Fri Sep 20 2024 14:37:37 GMT-0500 (Central Daylight Time),451978.1999999881,A,ap,I,p,329,1,2132.699999988079,449845.5,8001,WL,A,7.0
3,42.65299987792969,learn,17347.000122070312,Fri Sep 20 2024 14:37:37 GMT-0500 (Central Daylight Time),452128.1999999881,A,app,I,p,139,1,2282.699999988079,449845.5,8001,WL,A,7.0
3,42.90299987792969,learn,17097.000122070312,Fri Sep 20 2024 14:37:37 GMT-0500 (Central Daylight Time),452378.09999999404,A,appl,I,l,229,1,2532.5999999940395,449845.5,8001,WL,A,7.0
3,43.11899995803833,learn,16881.00004196167,Fri Sep 20 2024 14:37:37 GMT-0500 (Central Daylight Time),452594.8000000119,A,apple,I,e,203,1,2749.300000011921,449845.5,8001,WL,A,7.0
3,43.53600001335144,learn,16463.99998664856,Fri Sep 20 2024 14:37:37 GMT-0500 (Central Daylight Time),453011.1999999881,A,appleenter,I,enter,403,1,3165.699999988079,449845.5,8001,WL,A,7.0
3,43.90299987792969,learn,16097.000122070312,Fri Sep 20 2024 14:37:37 GMT-0500 (Central Daylight Time),453378.0,A,c,I,c,346,1,366.40000000596046,453011.59999999404,8001,WL,A,8.0
3,44.20199990272522,learn,15798.00009727478,Fri Sep 20 2024 14:37:37 GMT-0500 (Central Daylight Time),453677.6999999881,A,ch,I,h,283,1,666.0999999940395,453011.59999999404,8001,WL,A,8.0
3,44.61899995803833,learn,15381.00004196167,Fri Sep 20 2024 14:37:37 GMT-0500 (Central Daylight Time),454094.1999999881,A,chi,I,i,408,1,1082.5999999940395,453011.59999999404,8001,WL,A,8.0
3,45.418999910354614,learn,14581.000089645386,Fri Sep 20 2024 14:37:37 GMT-0500 (Central Daylight Time),454894.09999999404,A,chim,I,m,783,1,1882.5,453011.59999999404,8001,WL,A,8.0
3,45.668999910354614,learn,14331.000089645386,Fri Sep 20 2024 14:37:37 GMT-0500 (Central Daylight Time),455144.0,A,chimn,I,n,239,1,2132.4000000059605,453011.59999999404,8001,WL,A,8.0
3,46.05200004577637,learn,13947.999954223633,Fri Sep 20 2024 14:37:37 GMT-0500 (Central Daylight Time),455527.3000000119,A,chimne,I,e,373,1,2515.7000000178814,453011.59999999404,8001,WL,A,8.0
3,46.33500003814697,learn,13664.999961853027,Fri Sep 20 2024 14:37:37 GMT-0500 (Central Daylight Time),455810.40000000596,A,chimney,I,y,278,1,2798.800000011921,453011.59999999404,8001,WL,A,8.0
3,51.282999992370605,learn,8717.000007629395,Fri Sep 20 2024 14:37:37 GMT-0500 (Central Daylight Time),460758.90000000596,A,chimneyenter,I,enter,4931,1,7747.300000011921,453011.59999999404,8001,WL,A,8.0
3,51.81699991226196,learn,8183.000087738037,Fri Sep 20 2024 14:37:37 GMT-0500 (Central Daylight Time),461292.0,A,k,I,k,527,1,532.9000000059605,460759.09999999404,8001,WL,A,9.0
3,52.09999990463257,learn,7900.000095367432,Fri Sep 20 2024 14:37:37 GMT-0500 (Central Daylight Time),461575.3000000119,A,ke,I,e,274,1,816.2000000178814,460759.09999999404,8001,WL,A,9.0
3,52.33299994468689,learn,7667.00005531311,Fri Sep 20 2024 14:37:37 GMT-0500 (Central Daylight Time),461808.8000000119,A,key,I,y,214,1,1049.7000000178814,460759.09999999404,8001,WL,A,9.0
3,52.83299994468689,learn,7167.00005531311,Fri Sep 20 2024 14:37:37 GMT-0500 (Central Daylight Time),462308.40000000596,A,keyenter,I,enter,492,1,1549.300000011921,460759.09999999404,8001,WL,A,9.0
3,53.282999992370605,learn,6717.0000076293945,Fri Sep 20 2024 14:37:37 GMT-0500 (Central Daylight Time),462758.1999999881,A,g,I,g,441,1,449.5,462308.6999999881,8001,WL,A,10.0
3,53.54900002479553,learn,6450.999975204468,Fri Sep 20 2024 14:37:37 GMT-0500 (Central Daylight Time),463024.90000000596,A,go,I,o,255,1,716.2000000178814,462308.6999999881,8001,WL,A,10.0
3,53.8989999294281,learn,6101.000070571899,Fri Sep 20 2024 14:37:37 GMT-0500 (Central Daylight Time),463374.8000000119,A,gol,I,l,341,1,1066.1000000238419,462308.6999999881,8001,WL,A,10.0
3,54.448999881744385,learn,5551.000118255615,Fri Sep 20 2024 14:37:37 GMT-0500 (Central Daylight Time),463924.59999999404,A,gold,I,d,543,1,1615.9000000059605,462308.6999999881,8001,WL,A,10.0
3,56.08200001716614,learn,3917.9999828338623,Fri Sep 20 2024 14:37:37 GMT-0500 (Central Daylight Time),465557.3000000119,A,goldenter,I,enter,1625,1,3248.600000023842,462308.6999999881,8001,WL,A,10.0
3,56.81499981880188,learn,3185.00018119812,Fri Sep 20 2024 14:37:37 GMT-0500 (Central Daylight Time),466290.40000000596,A,r,I,r,728,1,732.8000000119209,465557.59999999404,8001,WL,A,11.0
3,57.99799990653992,learn,2002.000093460083,Fri Sep 20 2024 14:37:37 GMT-0500 (Central Daylight Time),467473.59999999404,A,ra,I,a,1171,1,1916.0,465557.59999999404,8001,WL,A,11.0
3,58.430999994277954,learn,1569.000005722046,Fri Sep 20 2024 14:37:37 GMT-0500 (Central Daylight Time),467906.59999999404,A,rat,I,t,420,1,2349.0,465557.59999999404,8001,WL,A,11.0
3,58.598000049591064,learn,1401.9999504089355,Fri Sep 20 2024 14:37:37 GMT-0500 (Central Daylight Time),468073.09999999404,A,ratt,I,t,155,1,2515.5,465557.59999999404,8001,WL,A,11.0
3,58.83099985122681,learn,1169.0001487731934,Fri Sep 20 2024 14:37:37 GMT-0500 (Central Daylight Time),468306.5,A,rattl,I,l,220,1,2748.9000000059605,465557.59999999404,8001,WL,A,11.0
3,59.11399984359741,learn,886.0001564025879,Fri Sep 20 2024 14:37:37 GMT-0500 (Central Daylight Time),468589.8000000119,A,rattle,I,e,275,1,3032.2000000178814,465557.59999999404,8001,WL,A,11.0
3,60.013999938964844,learn,-13.99993896484375,Fri Sep 20 2024 14:37:37 GMT-0500 (Central Daylight Time),469489.59999999404,A,rattleNone,I,None,895,1,3932.0,465557.59999999404,8001,WL,A,11.0
4,2.6490001678466797,learn,57350.99983215332,Fri Sep 20 2024 14:37:37 GMT-0500 (Central Daylight Time),542699.8000000119,A,b,I,b,2643,1,2648.9000000059605,540050.900000006,8001,WL,A,1.0
4,3.1490001678466797,learn,56850.99983215332,Fri Sep 20 2024 14:37:37 GMT-0500 (Central Daylight Time),543200.0,A,bo,I,o,481,1,3149.0999999940395,540050.900000006,8001,WL,A,1.0
4,3.3489999771118164,learn,56651.00002288818,Fri Sep 20 2024 14:37:37 GMT-0500 (Central Daylight Time),543399.599999994,A,boo,I,o,182,1,3348.699999988079,540050.900000006,8001,WL,A,1.0
4,4.098999977111816,learn,55901.00002288818,Fri Sep 20 2024 14:37:37 GMT-0500 (Central Daylight Time),544149.400000006,A,book,I,k,734,1,4098.5,540050.900000006,8001,WL,A,1.0
4,4.8480000495910645,learn,55151.999950408936,Fri Sep 20 2024 14:37:37 GMT-0500 (Central Daylight Time),544899.099999994,A,bookenter,I,enter,736,1,4848.199999988079,540050.900000006,8001,WL,A,1.0
4,5.58299994468689,learn,54417.00005531311,Fri Sep 20 2024 14:37:37 GMT-0500 (Central Daylight Time),545633.400000006,A,f,I,f,723,1,734.0999999940395,544899.3000000119,8001,WL,A,2.0
4,5.781000137329102,learn,54218.9998626709,Fri Sep 20 2024 14:37:37 GMT-0500 (Central Daylight Time),545832.099999994,A,fl,I,l,180,1,932.7999999821186,544899.3000000119,8001,WL,A,2.0
4,5.965000152587891,learn,54034.99984741211,Fri Sep 20 2024 14:37:37 GMT-0500 (Central Daylight Time),546015.599999994,A,flo,I,o,166,1,1116.2999999821186,544899.3000000119,8001,WL,A,2.0
4,6.232000112533569,learn,53767.99988746643,Fri Sep 20 2024 14:37:37 GMT-0500 (Central Daylight Time),546282.099999994,A,flow,I,w,262,1,1382.7999999821186,544899.3000000119,8001,WL,A,2.0
4,6.515000104904175,learn,53484.999895095825,Fri Sep 20 2024 14:37:37 GMT-0500 (Central Daylight Time),546565.3000000119,A,flowe,I,e,275,1,1666.0,544899.3000000119,8001,WL,A,2.0
4,6.814000129699707,learn,53185.99987030029,Fri Sep 20 2024 14:37:37 GMT-0500 (Central Daylight Time),546865.099999994,A,flower,I,r,280,1,1965.7999999821186,544899.3000000119,8001,WL,A,2.0
4,7.949000120162964,learn,52050.999879837036,Fri Sep 20 2024 14:37:37 GMT-0500 (Central Daylight Time),547999.3000000119,A,flowerenter,I,enter,1116,1,3100.0,544899.3000000119,8001,WL,A,2.0
4,8.564000129699707,learn,51435.99987030029,Fri Sep 20 2024 14:37:37 GMT-0500 (Central Daylight Time),548614.8000000119,A,t,I,t,606,1,615.1000000238419,547999.6999999881,8001,WL,A,3.0
4,8.79800009727478,learn,51201.99990272522,Fri Sep 20 2024 14:37:37 GMT-0500 (Central Daylight Time),548848.5,A,tr,I,r,223,1,848.8000000119209,547999.6999999881,8001,WL,A,3.0
4,8.930999994277954,learn,51069.000005722046,Fri Sep 20 2024 14:37:37 GMT-0500 (Central Daylight Time),548981.099999994,A,tra,I,a,124,1,981.4000000059605,547999.6999999881,8001,WL,A,3.0
4,9.164000034332275,learn,50835.999965667725,Fri Sep 20 2024 14:37:37 GMT-0500 (Central Daylight Time),549214.5,A,trai,I,i,224,1,1214.800000011921,547999.6999999881,8001,WL,A,3.0
4,9.314000129699707,learn,50685.99987030029,Fri Sep 20 2024 14:37:37 GMT-0500 (Central Daylight Time),549364.5,A,train,I,n,135,1,1364.800000011921,547999.6999999881,8001,WL,A,3.0
4,9.730999946594238,learn,50269.00005340576,Fri Sep 20 2024 14:37:37 GMT-0500 (Central Daylight Time),549781.099999994,A,trainenter,I,enter,401,1,1781.4000000059605,547999.6999999881,8001,WL,A,3.0
4,10.180000066757202,learn,49819.9999332428,Fri Sep 20 2024 14:37:37 GMT-0500 (Central Daylight Time),550230.8000000119,A,r,I,r,440,1,449.30000001192093,549781.5,8001,WL,A,4.0
4,10.562999963760376,learn,49437.000036239624,Fri Sep 20 2024 14:37:37 GMT-0500 (Central Daylight Time),550614.0,A,ru,I,u,375,1,832.5,549781.5,8001,WL,A,4.0
4,10.86300015449524,learn,49136.99984550476,Fri Sep 20 2024 14:37:37 GMT-0500 (Central Daylight Time),550914.099999994,A,rug,I,g,288,1,1132.5999999940395,549781.5,8001,WL,A,4.0
4,11.463000059127808,learn,48536.99994087219,Fri Sep 20 2024 14:37:37 GMT-0500 (Central Daylight Time),551513.900000006,A,rugenter,I,enter,588,1,1732.4000000059605,549781.5,8001,WL,A,4.0
4,12.180000066757202,learn,47819.9999332428,Fri Sep 20 2024 14:37:37 GMT-0500 (Central Daylight Time),552230.099999994,A,m,I,m,699,1,715.7999999821186,551514.3000000119,8001,WL,A,5.0
4,12.463000059127808,learn,47536.99994087219,Fri Sep 20 2024 14:37:37 GMT-0500 (Central Daylight Time),552513.400000006,A,me,I,e,272,1,999.0999999940395,551514.3000000119,8001,WL,A,5.0
4,12.913000106811523,learn,47086.99989318848,Fri Sep 20 2024 14:37:37 GMT-0500 (Central Daylight Time),552963.400000006,A,mea,I,a,436,1,1449.0999999940395,551514.3000000119,8001,WL,A,5.0
4,13.213000059127808,learn,46786.99994087219,Fri Sep 20 2024 14:37:37 GMT-0500 (Central Daylight Time),553263.400000006,A,mead,I,d,282,1,1749.0999999940395,551514.3000000119,8001,WL,A,5.0
4,13.479000091552734,learn,46520.999908447266,Fri Sep 20 2024 14:37:37 GMT-0500 (Central Daylight Time),553529.6999999881,A,meado,I,o,254,1,2015.3999999761581,551514.3000000119,8001,WL,A,5.0
4,13.878999948501587,learn,46121.00005149841,Fri Sep 20 2024 14:37:37 GMT-0500 (Central Daylight Time),553929.599999994,A,meadow,I,w,387,1,2415.2999999821186,551514.3000000119,8001,WL,A,5.0
4,15.528000116348267,learn,44471.99988365173,Fri Sep 20 2024 14:37:37 GMT-0500 (Central Daylight Time),555579.0,A,meadowenter,I,enter,1636,1,4064.699999988079,551514.3000000119,8001,WL,A,5.0
4,16.295000076293945,learn,43704.999923706055,Fri Sep 20 2024 14:37:37 GMT-0500 (Central Daylight Time),556345.599999994,A,h,I,h,747,1,766.2999999821186,555579.3000000119,8001,WL,A,6.0
4,16.49500012397766,learn,43504.99987602234,Fri Sep 20 2024 14:37:37 GMT-0500 (Central Daylight Time),556545.5,A,ha,I,a,188,1,966.1999999880791,555579.3000000119,8001,WL,A,6.0
4,16.894999980926514,learn,43105.000019073486,Fri Sep 20 2024 14:37:37 GMT-0500 (Central Daylight Time),556945.400000006,A,har,I,r,380,1,1366.0999999940395,555579.3000000119,8001,WL,A,6.0
4,17.17900013923645,learn,42820.99986076355,Fri Sep 20 2024 14:37:37 GMT-0500 (Central Daylight Time),557229.900000006,A,harp,I,p,268,1,1650.5999999940395,555579.3000000119,8001,WL,A,6.0
4,18.49399995803833,learn,41506.00004196167,Fri Sep 20 2024 14:37:37 GMT-0500 (Central Daylight Time),558544.8000000119,A,harpenter,I,enter,1304,1,2965.5,555579.3000000119,8001,WL,A,6.0
4,18.844000101089478,learn,41155.99989891052,Fri Sep 20 2024 14:37:37 GMT-0500 (Central Daylight Time),558894.6999999881,A,s,I,s,341,1,349.69999998807907,558545.0,8001,WL,A,7.0
4,18.978000164031982,learn,41021.99983596802,Fri Sep 20 2024 14:37:37 GMT-0500 (Central Daylight Time),559028.1999999881,A,sa,I,a,126,1,483.19999998807907,558545.0,8001,WL,A,7.0
4,19.177000045776367,learn,40822.99995422363,Fri Sep 20 2024 14:37:37 GMT-0500 (Central Daylight Time),559228.0,A,sal,I,l,193,1,683.0,558545.0,8001,WL,A,7.0
4,19.544000148773193,learn,40455.99985122681,Fri Sep 20 2024 14:37:37 GMT-0500 (Central Daylight Time),559594.400000006,A,salt,I,t,346,1,1049.4000000059605,558545.0,8001,WL,A,7.0
4,20.671000003814697,learn,39328.9999961853,Fri Sep 20 2024 14:37:37 GMT-0500 (Central Daylight Time),560721.099999994,A,saltenter,I,enter,976,1,2176.0999999940395,558545.0,8001,WL,A,7.0
4,21.0770001411438,learn,38922.9998588562,Fri Sep 20 2024 14:37:37 GMT-0500 (Central Daylight Time),561127.400000006,A,a,I,a,396,1,405.90000000596046,560721.5,8001,WL,A,8.0
4,21.39300012588501,learn,38606.99987411499,Fri Sep 20 2024 14:37:37 GMT-0500 (Central Daylight Time),561444.099999994,A,ap,I,p,301,1,722.5999999940395,560721.5,8001,WL,A,8.0
4,21.544000148773193,learn,38455.99985122681,Fri Sep 20 2024 14:37:37 GMT-0500 (Central Daylight Time),561594.3000000119,A,app,I,p,137,1,872.8000000119209,560721.5,8001,WL,A,8.0
4,21.759999990463257,learn,38240.00000953674,Fri Sep 20 2024 14:37:37 GMT-0500 (Central Daylight Time),561810.3000000119,A,appl,I,l,203,1,1088.800000011921,560721.5,8001,WL,A,8.0
4,22.009999990463257,learn,37990.00000953674,Fri Sep 20 2024 14:37:37 GMT-0500 (Central Daylight Time),562060.400000006,A,apple,I,e,235,1,1338.9000000059605,560721.5,8001,WL,A,8.0
4,22.443000078201294,learn,37556.999921798706,Fri Sep 20 2024 14:37:37 GMT-0500 (Central Daylight Time),562493.6999999881,A,appleenter,I,enter,417,1,1772.199999988079,560721.5,8001,WL,A,8.0
4,22.825999975204468,learn,37174.00002479553,Fri Sep 20 2024 14:37:37 GMT-0500 (Central Daylight Time),562876.900000006,A,c,I,c,376,1,383.0,562493.900000006,8001,WL,A,9.0
4,23.108999967575073,learn,36891.00003242493,Fri Sep 20 2024 14:37:37 GMT-0500 (Central Daylight Time),563160.099999994,A,ch,I,h,265,1,666.1999999880791,562493.900000006,8001,WL,A,9.0
4,23.361000061035156,learn,36638.999938964844,Fri Sep 20 2024 14:37:37 GMT-0500 (Central Daylight Time),563411.1999999881,A,chi,I,i,238,1,917.2999999821186,562493.900000006,8001,WL,A,9.0
4,23.909000158309937,learn,36090.99984169006,Fri Sep 20 2024 14:37:37 GMT-0500 (Central Daylight Time),563959.900000006,A,chim,I,m,538,1,1466.0,562493.900000006,8001,WL,A,9.0
4,24.176000118255615,learn,35823.999881744385,Fri Sep 20 2024 14:37:37 GMT-0500 (Central Daylight Time),564226.599999994,A,chimn,I,n,253,1,1732.699999988079,562493.900000006,8001,WL,A,9.0
4,24.443000078201294,learn,35556.999921798706,Fri Sep 20 2024 14:37:37 GMT-0500 (Central Daylight Time),564493.1999999881,A,chimne,I,e,259,1,1999.2999999821186,562493.900000006,8001,WL,A,9.0
4,24.776000022888184,learn,35223.99997711182,Fri Sep 20 2024 14:37:37 GMT-0500 (Central Daylight Time),564826.099999994,A,chimney,I,y,321,1,2332.199999988079,562493.900000006,8001,WL,A,9.0
4,28.407999992370605,learn,31592.000007629395,Fri Sep 20 2024 14:37:37 GMT-0500 (Central Daylight Time),568458.599999994,A,chimneyenter,I,enter,3611,1,5964.699999988079,562493.900000006,8001,WL,A,9.0
4,32.390000104904175,learn,27609.999895095825,Fri Sep 20 2024 14:37:37 GMT-0500 (Central Daylight Time),572440.5,A,l,I,l,3971,1,3981.5999999940395,568458.900000006,8001,WL,A,10.0
4,32.59000015258789,learn,27409.99984741211,Fri Sep 20 2024 14:37:37 GMT-0500 (Central Daylight Time),572640.400000006,A,lo,I,o,189,1,4181.5,568458.900000006,8001,WL,A,10.0
4,32.888999938964844,learn,27111.000061035156,Fri Sep 20 2024 14:37:37 GMT-0500 (Central Daylight Time),572940.099999994,A,log,I,g,285,1,4481.199999988079,568458.900000006,8001,WL,A,10.0
4,34.388999938964844,learn,25611.000061035156,Fri Sep 20 2024 14:37:37 GMT-0500 (Central Daylight Time),574439.8000000119,A,logenter,I,enter,1490,1,5980.9000000059605,568458.900000006,8001,WL,A,10.0
4,35.10599994659424,learn,24894.00005340576,Fri Sep 20 2024 14:37:37 GMT-0500 (Central Daylight Time),575156.3000000119,A,k,I,k,710,1,716.3000000119209,574440.0,8001,WL,A,11.0
4,35.5220000743866,learn,24477.999925613403,Fri Sep 20 2024 14:37:37 GMT-0500 (Central Daylight Time),575572.900000006,A,ke,I,e,401,1,1132.9000000059605,574440.0,8001,WL,A,11.0
4,35.855000019073486,learn,24144.999980926514,Fri Sep 20 2024 14:37:37 GMT-0500 (Central Daylight Time),575906.099999994,A,key,I,y,313,1,1466.0999999940395,574440.0,8001,WL,A,11.0
4,36.32200002670288,learn,23677.99997329712,Fri Sep 20 2024 14:37:37 GMT-0500 (Central Daylight Time),576372.599999994,A,keyenter,I,enter,460,1,1932.5999999940395,574440.0,8001,WL,A,11.0
4,36.68900012969971,learn,23310.999870300293,Fri Sep 20 2024 14:37:37 GMT-0500 (Central Daylight Time),576739.1999999881,A,g,I,g,361,1,366.19999998807907,576373.0,8001,WL,A,12.0
4,36.88800001144409,learn,23111.99998855591,Fri Sep 20 2024 14:37:37 GMT-0500 (Central Daylight Time),576938.8000000119,A,go,I,o,186,1,565.8000000119209,576373.0,8001,WL,A,12.0
4,37.138999938964844,learn,22861.000061035156,Fri Sep 20 2024 14:37:37 GMT-0500 (Central Daylight Time),577189.1999999881,A,gol,I,l,235,1,816.1999999880791,576373.0,8001,WL,A,12.0
4,37.33800005912781,learn,22661.999940872192,Fri Sep 20 2024 14:37:37 GMT-0500 (Central Daylight Time),577389.099999994,A,gold,I,d,192,1,1016.0999999940395,576373.0,8001,WL,A,12.0
4,37.75500011444092,learn,22244.999885559082,Fri Sep 20 2024 14:37:37 GMT-0500 (Central Daylight Time),577805.599999994,A,goldenter,I,enter,409,1,1432.5999999940395,576373.0,8001,WL,A,12.0
4,38.205000162124634,learn,21794.999837875366,Fri Sep 20 2024 14:37:37 GMT-0500 (Central Daylight Time),578255.3000000119,A,r,I,r,431,1,449.40000000596046,577805.900000006,8001,WL,A,13.0
4,38.355000019073486,learn,21644.999980926514,Fri Sep 20 2024 14:37:37 GMT-0500 (Central Daylight Time),578405.400000006,A,ra,I,a,134,1,599.5,577805.900000006,8001,WL,A,13.0
4,38.706000089645386,learn,21293.999910354614,Fri Sep 20 2024 14:37:37 GMT-0500 (Central Daylight Time),578756.3000000119,A,rat,I,t,336,1,950.4000000059605,577805.900000006,8001,WL,A,13.0
4,38.87100005149841,learn,21128.999948501587,Fri Sep 20 2024 14:37:37 GMT-0500 (Central Daylight Time),578921.900000006,A,ratt,I,t,145,1,1116.0,577805.900000006,8001,WL,A,13.0
4,39.10599994659424,learn,20894.00005340576,Fri Sep 20 2024 14:37:37 GMT-0500 (Central Daylight Time),579156.1999999881,A,rattl,I,l,228,1,1350.2999999821186,577805.900000006,8001,WL,A,13.0
4,39.47099995613098,learn,20529.00004386902,Fri Sep 20 2024 14:37:37 GMT-0500 (Central Daylight Time),579521.599999994,A,rattle,I,e,345,1,1715.699999988079,577805.900000006,8001,WL,A,13.0
4,41.32100009918213,learn,18678.99990081787,Fri Sep 20 2024 14:37:37 GMT-0500 (Central Daylight Time),581371.099999994,A,rattleenter,I,enter,1836,1,3565.199999988079,577805.900000006,8001,WL,A,13.0
4,54.200000047683716,learn,5799.999952316284,Fri Sep 20 2024 14:37:37 GMT-0500 (Central Daylight Time),594250.400000006,A,enter,I,enter,12874,1,12878.90000000596,581371.5,8001,WL,A,14.0
4,54.98300004005432,learn,5016.999959945679,Fri Sep 20 2024 14:37:37 GMT-0500 (Central Daylight Time),595033.400000006,A,enter,I,enter,763,1,782.5999999940395,594250.8000000119,8001,WL,A,15.0
5,1.499000072479248,learn,60000.0,Fri Sep 20 2024 14:37:37 GMT-0500 (Central Daylight Time),669293.8000000119,A,b,I,b,1484,1,1499.2000000178814,667794.599999994,8001,WL,A,1.0
5,1.7829999923706055,learn,60000.0,Fri Sep 20 2024 14:37:37 GMT-0500 (Central Daylight Time),669577.0,A,bo,I,o,271,1,1782.4000000059605,667794.599999994,8001,WL,A,1.0
5,1.931999921798706,learn,60000.0,Fri Sep 20 2024 14:37:37 GMT-0500 (Central Daylight Time),669726.6999999881,A,boo,I,o,140,1,1932.0999999940395,667794.599999994,8001,WL,A,1.0
5,2.1489999294281006,learn,60000.0,Fri Sep 20 2024 14:37:37 GMT-0500 (Central Daylight Time),669943.1999999881,A,book,I,k,199,1,2148.5999999940395,667794.599999994,8001,WL,A,1.0
5,2.765000104904175,learn,60000.0,Fri Sep 20 2024 14:37:37 GMT-0500 (Central Daylight Time),670559.900000006,A,bookenter,I,enter,606,1,2765.300000011921,667794.599999994,8001,WL,A,1.0
5,3.5989999771118164,learn,60000.0,Fri Sep 20 2024 14:37:37 GMT-0500 (Central Daylight Time),671393.099999994,A,f,I,f,814,1,832.9000000059605,670560.1999999881,8001,WL,A,2.0
5,3.7980000972747803,learn,60000.0,Fri Sep 20 2024 14:37:37 GMT-0500 (Central Daylight Time),671592.6999999881,A,fl,I,l,188,1,1032.5,670560.1999999881,8001,WL,A,2.0
5,3.997999906539917,learn,60000.0,Fri Sep 20 2024 14:37:37 GMT-0500 (Central Daylight Time),671792.8000000119,A,flo,I,o,181,1,1232.6000000238419,670560.1999999881,8001,WL,A,2.0
5,4.265000104904175,learn,60000.0,Fri Sep 20 2024 14:37:37 GMT-0500 (Central Daylight Time),672059.1999999881,A,flow,I,w,261,1,1499.0,670560.1999999881,8001,WL,A,2.0
5,4.565000057220459,learn,60000.0,Fri Sep 20 2024 14:37:37 GMT-0500 (Central Daylight Time),672359.099999994,A,flowe,I,e,290,1,1798.9000000059605,670560.1999999881,8001,WL,A,2.0
5,4.8480000495910645,learn,60000.0,Fri Sep 20 2024 14:37:37 GMT-0500 (Central Daylight Time),672642.400000006,A,flower,I,r,271,1,2082.2000000178814,670560.1999999881,8001,WL,A,2.0
5,5.997999906539917,learn,60000.0,Fri Sep 20 2024 14:37:37 GMT-0500 (Central Daylight Time),673792.0,A,flowerenter,I,enter,1139,1,3231.800000011921,670560.1999999881,8001,WL,A,2.0
5,6.497999906539917,learn,60000.0,Fri Sep 20 2024 14:37:37 GMT-0500 (Central Daylight Time),674292.0,A,t,I,t,485,1,499.69999998807907,673792.3000000119,8001,WL,A,3.0
5,6.730999946594238,learn,60000.0,Fri Sep 20 2024 14:37:37 GMT-0500 (Central Daylight Time),674525.1999999881,A,tr,I,r,218,1,732.8999999761581,673792.3000000119,8001,WL,A,3.0
5,6.88100004196167,learn,60000.0,Fri Sep 20 2024 14:37:37 GMT-0500 (Central Daylight Time),674675.0,A,tra,I,a,144,1,882.6999999880791,673792.3000000119,8001,WL,A,3.0
5,7.081000089645386,learn,60000.0,Fri Sep 20 2024 14:37:37 GMT-0500 (Central Daylight Time),674875.099999994,A,trai,I,i,187,1,1082.7999999821186,673792.3000000119,8001,WL,A,3.0
5,7.230999946594238,learn,60000.0,Fri Sep 20 2024 14:37:37 GMT-0500 (Central Daylight Time),675025.1999999881,A,train,I,n,130,1,1232.8999999761581,673792.3000000119,8001,WL,A,3.0
5,7.614000082015991,learn,60000.0,Fri Sep 20 2024 14:37:37 GMT-0500 (Central Daylight Time),675408.400000006,A,trainenter,I,enter,372,1,1616.0999999940395,673792.3000000119,8001,WL,A,3.0
5,8.197999954223633,learn,60000.0,Fri Sep 20 2024 14:37:37 GMT-0500 (Central Daylight Time),675992.5,A,r,I,r,573,1,583.9000000059605,675408.599999994,8001,WL,A,4.0
5,8.54699993133545,learn,60000.0,Fri Sep 20 2024 14:37:37 GMT-0500 (Central Daylight Time),676341.1999999881,A,ru,I,u,333,1,932.5999999940395,675408.599999994,8001,WL,A,4.0
5,9.54699993133545,learn,60000.0,Fri Sep 20 2024 14:37:37 GMT-0500 (Central Daylight Time),677341.0,A,rug,I,g,992,1,1932.4000000059605,675408.599999994,8001,WL,A,4.0
5,14.07800006866455,learn,60000.0,Fri Sep 20 2024 14:37:37 GMT-0500 (Central Daylight Time),681872.599999994,A,rugenter,I,enter,4513,1,6464.0,675408.599999994,8001,WL,A,4.0
5,14.644999980926514,learn,60000.0,Fri Sep 20 2024 14:37:37 GMT-0500 (Central Daylight Time),682439.400000006,A,m,I,m,557,1,566.5,681872.900000006,8001,WL,A,5.0
5,14.91100001335144,learn,60000.0,Fri Sep 20 2024 14:37:37 GMT-0500 (Central Daylight Time),682705.900000006,A,me,I,e,246,1,833.0,681872.900000006,8001,WL,A,5.0
5,15.07800006866455,learn,60000.0,Fri Sep 20 2024 14:37:37 GMT-0500 (Central Daylight Time),682872.400000006,A,mea,I,a,156,1,999.5,681872.900000006,8001,WL,A,5.0
5,15.67799997329712,learn,60000.0,Fri Sep 20 2024 14:37:37 GMT-0500 (Central Daylight Time),683472.099999994,A,mead,I,d,581,1,1599.199999988079,681872.900000006,8001,WL,A,5.0
5,15.977999925613403,learn,60000.0,Fri Sep 20 2024 14:37:37 GMT-0500 (Central Daylight Time),683772.3000000119,A,meado,I,o,294,1,1899.4000000059605,681872.900000006,8001,WL,A,5.0
5,16.24399995803833,learn,60000.0,Fri Sep 20 2024 14:37:37 GMT-0500 (Central Daylight Time),684038.6999999881,A,meadow,I,w,257,1,2165.7999999821186,681872.900000006,8001,WL,A,5.0
5,17.22699999809265,learn,60000.0,Fri Sep 20 2024 14:37:37 GMT-0500 (Central Daylight Time),685021.900000006,A,meadowenter,I,enter,966,1,3149.0,681872.900000006,8001,WL,A,5.0
5,17.759999990463257,learn,60000.0,Fri Sep 20 2024 14:37:37 GMT-0500 (Central Daylight Time),685554.6999999881,A,h,I,h,519,1,532.5,685022.1999999881,8001,WL,A,6.0
5,17.927000045776367,learn,60000.0,Fri Sep 20 2024 14:37:37 GMT-0500 (Central Daylight Time),685721.3000000119,A,ha,I,a,147,1,699.1000000238419,685022.1999999881,8001,WL,A,6.0
5,18.32699990272522,learn,60000.0,Fri Sep 20 2024 14:37:37 GMT-0500 (Central Daylight Time),686121.099999994,A,har,I,r,388,1,1098.9000000059605,685022.1999999881,8001,WL,A,6.0
5,18.526999950408936,learn,60000.0,Fri Sep 20 2024 14:37:37 GMT-0500 (Central Daylight Time),686321.099999994,A,harp,I,p,181,1,1298.9000000059605,685022.1999999881,8001,WL,A,6.0
5,18.877000093460083,learn,60000.0,Fri Sep 20 2024 14:37:37 GMT-0500 (Central Daylight Time),686671.3000000119,A,harpenter,I,enter,332,1,1649.1000000238419,685022.1999999881,8001,WL,A,6.0
5,19.360000133514404,learn,60000.0,Fri Sep 20 2024 14:37:37 GMT-0500 (Central Daylight Time),687154.8000000119,A,s,I,s,479,1,483.2000000178814,686671.599999994,8001,WL,A,7.0
5,19.509999990463257,learn,60000.0,Fri Sep 20 2024 14:37:37 GMT-0500 (Central Daylight Time),687304.5,A,sa,I,a,131,1,632.9000000059605,686671.599999994,8001,WL,A,7.0
5,19.72699999809265,learn,60000.0,Fri Sep 20 2024 14:37:37 GMT-0500 (Central Daylight Time),687521.400000006,A,sal,I,l,205,1,849.8000000119209,686671.599999994,8001,WL,A,7.0
5,20.07699990272522,learn,60000.0,Fri Sep 20 2024 14:37:37 GMT-0500 (Central Daylight Time),687871.0,A,salt,I,t,340,1,1199.4000000059605,686671.599999994,8001,WL,A,7.0
5,20.509999990463257,learn,60000.0,Fri Sep 20 2024 14:37:37 GMT-0500 (Central Daylight Time),688304.3000000119,A,saltenter,I,enter,414,1,1632.7000000178814,686671.599999994,8001,WL,A,7.0
5,22.176000118255615,learn,60000.0,Fri Sep 20 2024 14:37:37 GMT-0500 (Central Daylight Time),689970.3000000119,A,f,I,f,1646,1,1665.6000000238419,688304.6999999881,8001,WL,A,8.0
5,22.292999982833862,learn,60000.0,Fri Sep 20 2024 14:37:37 GMT-0500 (Central Daylight Time),690087.099999994,A,fi,I,i,107,1,1782.4000000059605,688304.6999999881,8001,WL,A,8.0
5,22.4760000705719,learn,60000.0,Fri Sep 20 2024 14:37:37 GMT-0500 (Central Daylight Time),690270.3000000119,A,fin,I,n,167,1,1965.6000000238419,688304.6999999881,8001,WL,A,8.0
5,22.625999927520752,learn,60000.0,Fri Sep 20 2024 14:37:37 GMT-0500 (Central Daylight Time),690420.1999999881,A,fing,I,g,135,1,2115.5,688304.6999999881,8001,WL,A,8.0
5,22.908999919891357,learn,60000.0,Fri Sep 20 2024 14:37:37 GMT-0500 (Central Daylight Time),690703.400000006,A,finge,I,e,265,1,2398.7000000178814,688304.6999999881,8001,WL,A,8.0
5,23.092000007629395,learn,60000.0,Fri Sep 20 2024 14:37:37 GMT-0500 (Central Daylight Time),690886.6999999881,A,finger,I,r,166,1,2582.0,688304.6999999881,8001,WL,A,8.0
5,24.60800004005432,learn,60000.0,Fri Sep 20 2024 14:37:37 GMT-0500 (Central Daylight Time),692402.599999994,A,fingerenter,I,enter,1511,1,4097.9000000059605,688304.6999999881,8001,WL,A,8.0
5,26.45799994468689,learn,60000.0,Fri Sep 20 2024 14:37:37 GMT-0500 (Central Daylight Time),694252.3000000119,A,a,I,a,1835,1,1849.5,692402.8000000119,8001,WL,A,9.0
5,26.77500009536743,learn,60000.0,Fri Sep 20 2024 14:37:37 GMT-0500 (Central Daylight Time),694569.0,A,ap,I,p,297,1,2166.199999988079,692402.8000000119,8001,WL,A,9.0
5,26.907999992370605,learn,60000.0,Fri Sep 20 2024 14:37:37 GMT-0500 (Central Daylight Time),694702.099999994,A,app,I,p,124,1,2299.2999999821186,692402.8000000119,8001,WL,A,9.0
5,27.124000072479248,learn,60000.0,Fri Sep 20 2024 14:37:37 GMT-0500 (Central Daylight Time),694918.8000000119,A,appl,I,l,199,1,2516.0,692402.8000000119,8001,WL,A,9.0
5,27.341000080108643,learn,60000.0,Fri Sep 20 2024 14:37:37 GMT-0500 (Central Daylight Time),695135.400000006,A,apple,I,e,199,1,2732.5999999940395,692402.8000000119,8001,WL,A,9.0
5,27.70799994468689,learn,60000.0,Fri Sep 20 2024 14:37:37 GMT-0500 (Central Daylight Time),695502.099999994,A,appleenter,I,enter,350,1,3099.2999999821186,692402.8000000119,8001,WL,A,9.0
5,27.973999977111816,learn,60000.0,Fri Sep 20 2024 14:37:37 GMT-0500 (Central Daylight Time),695768.6999999881,A,c,I,c,248,1,266.19999998807907,695502.5,8001,WL,A,10.0
5,28.2739999294281,learn,60000.0,Fri Sep 20 2024 14:37:37 GMT-0500 (Central Daylight Time),696068.599999994,A,ch,I,h,285,1,566.0999999940395,695502.5,8001,WL,A,10.0
5,28.473999977111816,learn,60000.0,Fri Sep 20 2024 14:37:37 GMT-0500 (Central Daylight Time),696268.400000006,A,chi,I,i,185,1,765.9000000059605,695502.5,8001,WL,A,10.0
5,28.756999969482422,learn,60000.0,Fri Sep 20 2024 14:37:37 GMT-0500 (Central Daylight Time),696551.5,A,chim,I,m,265,1,1049.0,695502.5,8001,WL,A,10.0
5,28.990999937057495,learn,60000.0,Fri Sep 20 2024 14:37:37 GMT-0500 (Central Daylight Time),696785.0,A,chimn,I,n,214,1,1282.5,695502.5,8001,WL,A,10.0
5,29.2739999294281,learn,60000.0,Fri Sep 20 2024 14:37:37 GMT-0500 (Central Daylight Time),697068.099999994,A,chimne,I,e,268,1,1565.5999999940395,695502.5,8001,WL,A,10.0
5,29.58999991416931,learn,60000.0,Fri Sep 20 2024 14:37:37 GMT-0500 (Central Daylight Time),697384.6999999881,A,chimney,I,y,297,1,1882.199999988079,695502.5,8001,WL,A,10.0
5,30.872999906539917,learn,60000.0,Fri Sep 20 2024 14:37:37 GMT-0500 (Central Daylight Time),698667.6999999881,A,chimneyenter,I,enter,1277,1,3165.199999988079,695502.5,8001,WL,A,10.0
5,31.42300009727478,learn,60000.0,Fri Sep 20 2024 14:37:37 GMT-0500 (Central Daylight Time),699217.400000006,A,b,I,b,530,1,549.3000000119209,698668.099999994,8001,WL,A,11.0
5,31.640000104904175,learn,60000.0,Fri Sep 20 2024 14:37:37 GMT-0500 (Central Daylight Time),699434.099999994,A,bu,I,u,196,1,766.0,698668.099999994,8001,WL,A,11.0
5,31.94000005722046,learn,60000.0,Fri Sep 20 2024 14:37:37 GMT-0500 (Central Daylight Time),699733.900000006,A,but,I,t,283,1,1065.800000011921,698668.099999994,8001,WL,A,11.0
5,32.10599994659424,learn,60000.0,Fri Sep 20 2024 14:37:37 GMT-0500 (Central Daylight Time),699900.8000000119,A,butt,I,t,152,1,1232.7000000178814,698668.099999994,8001,WL,A,11.0
5,32.305999994277954,learn,60000.0,Fri Sep 20 2024 14:37:37 GMT-0500 (Central Daylight Time),700100.5,A,butto,I,o,193,1,1432.4000000059605,698668.099999994,8001,WL,A,11.0
5,32.48900008201599,learn,60000.0,Fri Sep 20 2024 14:37:37 GMT-0500 (Central Daylight Time),700283.6999999881,A,button,I,n,177,1,1615.5999999940395,698668.099999994,8001,WL,A,11.0
5,33.19000005722046,learn,60000.0,Fri Sep 20 2024 14:37:37 GMT-0500 (Central Daylight Time),700984.8000000119,A,buttonenter,I,enter,690,1,2316.7000000178814,698668.099999994,8001,WL,A,11.0
5,36.13800001144409,learn,60000.0,Fri Sep 20 2024 14:37:37 GMT-0500 (Central Daylight Time),703932.8000000119,A,g,I,g,2933,1,2947.600000023842,700985.1999999881,8001,WL,A,12.0
5,36.28800010681152,learn,60000.0,Fri Sep 20 2024 14:37:37 GMT-0500 (Central Daylight Time),704082.5,A,go,I,o,137,1,3097.300000011921,700985.1999999881,8001,WL,A,12.0
5,36.48799991607666,learn,60000.0,Fri Sep 20 2024 14:37:37 GMT-0500 (Central Daylight Time),704282.5,A,gol,I,l,180,1,3297.300000011921,700985.1999999881,8001,WL,A,12.0
5,36.6710000038147,learn,60000.0,Fri Sep 20 2024 14:37:37 GMT-0500 (Central Daylight Time),704465.8000000119,A,gold,I,d,171,1,3480.600000023842,700985.1999999881,8001,WL,A,12.0
5,37.437999963760376,learn,60000.0,Fri Sep 20 2024 14:37:37 GMT-0500 (Central Daylight Time),705232.099999994,A,goldenter,I,enter,747,1,4246.9000000059605,700985.1999999881,8001,WL,A,12.0
5,39.121999979019165,learn,60000.0,Fri Sep 20 2024 14:37:37 GMT-0500 (Central Daylight Time),706916.099999994,A,r,I,r,1677,1,1683.5999999940395,705232.5,8001,WL,A,13.0
5,40.019999980926514,learn,60000.0,Fri Sep 20 2024 14:37:37 GMT-0500 (Central Daylight Time),707814.599999994,A,ra,I,a,889,1,2582.0999999940395,705232.5,8001,WL,A,13.0
5,40.40300011634827,learn,60000.0,Fri Sep 20 2024 14:37:37 GMT-0500 (Central Daylight Time),708197.599999994,A,rat,I,t,375,1,2965.0999999940395,705232.5,8001,WL,A,13.0
5,40.5699999332428,learn,60000.0,Fri Sep 20 2024 14:37:37 GMT-0500 (Central Daylight Time),708364.5,A,ratt,I,t,159,1,3132.0,705232.5,8001,WL,A,13.0
5,40.80299997329712,learn,60000.0,Fri Sep 20 2024 14:37:37 GMT-0500 (Central Daylight Time),708597.900000006,A,rattl,I,l,217,1,3365.4000000059605,705232.5,8001,WL,A,13.0
5,41.087000131607056,learn,60000.0,Fri Sep 20 2024 14:37:37 GMT-0500 (Central Daylight Time),708881.400000006,A,rattle,I,e,263,1,3648.9000000059605,705232.5,8001,WL,A,13.0
5,62.21300005912781,learn,60000.0,Fri Sep 20 2024 14:37:37 GMT-0500 (Central Daylight Time),730007.6999999881,A,rattleenter,I,enter,21108,1,24775.19999998808,705232.5,8001,WL,A,13.0
6,1.1170001029968262,distr,58882.999897003174,Fri Sep 20 2024 14:37:37 GMT-0500 (Central Daylight Time),803768.3000000119,B,b,I,b,1107,1,1116.7000000178814,802651.599999994,8001,WL,A,1.0
6,1.4830000400543213,distr,58516.99995994568,Fri Sep 20 2024 14:37:37 GMT-0500 (Central Daylight Time),804134.400000006,B,bo,I,o,349,1,1482.800000011921,802651.599999994,8001,WL,A,1.0
6,1.815999984741211,distr,58184.00001525879,Fri Sep 20 2024 14:37:37 GMT-0500 (Central Daylight Time),804467.599999994,B,bow,I,w,327,1,1816.0,802651.599999994,8001,WL,A,1.0
6,2.065999984741211,distr,57934.00001525879,Fri Sep 20 2024 14:37:37 GMT-0500 (Central Daylight Time),804717.6999999881,B,bowl,I,l,234,1,2066.0999999940395,802651.599999994,8001,WL,A,1.0
6,2.749000072479248,distr,57250.99992752075,Fri Sep 20 2024 14:37:37 GMT-0500 (Central Daylight Time),805400.8000000119,B,bowlenter,I,enter,672,1,2749.2000000178814,802651.599999994,8001,WL,A,1.0
6,3.183000087738037,distr,56816.99991226196,Fri Sep 20 2024 14:37:37 GMT-0500 (Central Daylight Time),805834.0,B,d,I,d,413,1,432.80000001192093,805401.1999999881,8001,WL,A,2.0
6,3.3330001831054688,distr,56666.99981689453,Fri Sep 20 2024 14:37:37 GMT-0500 (Central Daylight Time),805984.0,B,da,I,a,139,1,582.8000000119209,805401.1999999881,8001,WL,A,2.0
6,3.6660001277923584,distr,56333.99987220764,Fri Sep 20 2024 14:37:37 GMT-0500 (Central Daylight Time),806317.099999994,B,daw,I,w,318,1,915.9000000059605,805401.1999999881,8001,WL,A,2.0
6,3.999000072479248,distr,56000.99992752075,Fri Sep 20 2024 14:37:37 GMT-0500 (Central Daylight Time),806650.400000006,B,dawn,I,n,314,1,1249.2000000178814,805401.1999999881,8001,WL,A,2.0
6,5.049000024795532,distr,54950.99997520447,Fri Sep 20 2024 14:37:37 GMT-0500 (Central Daylight Time),807700.099999994,B,dawnenter,I,enter,1035,1,2298.9000000059605,805401.1999999881,8001,WL,A,2.0
6,5.482000112533569,distr,54517.99988746643,Fri Sep 20 2024 14:37:37 GMT-0500 (Central Daylight Time),808133.5,B,j,I,j,425,1,433.09999999403954,807700.400000006,8001,WL,A,3.0
6,5.664999961853027,distr,54335.00003814697,Fri Sep 20 2024 14:37:37 GMT-0500 (Central Daylight Time),808316.6999999881,B,ju,I,u,168,1,616.2999999821186,807700.400000006,8001,WL,A,3.0
6,6.398000001907349,distr,53601.99999809265,Fri Sep 20 2024 14:37:37 GMT-0500 (Central Daylight Time),809049.8000000119,B,jud,I,d,713,1,1349.4000000059605,807700.400000006,8001,WL,A,3.0
6,6.765000104904175,distr,53234.999895095825,Fri Sep 20 2024 14:37:37 GMT-0500 (Central Daylight Time),809416.400000006,B,judg,I,g,348,1,1716.0,807700.400000006,8001,WL,A,3.0
6,7.198000192642212,distr,52801.99980735779,Fri Sep 20 2024 14:37:37 GMT-0500 (Central Daylight Time),809849.599999994,B,judge,I,e,413,1,2149.199999988079,807700.400000006,8001,WL,A,3.0
6,33.83899998664856,distr,26161.00001335144,Fri Sep 20 2024 14:37:37 GMT-0500 (Central Daylight Time),836490.900000006,B,judgeenter,I,enter,26637,1,28790.5,807700.400000006,8001,WL,A,3.0
6,34.07300019264221,distr,25926.999807357788,Fri Sep 20 2024 14:37:37 GMT-0500 (Central Daylight Time),836724.3000000119,B,enter,I,enter,219,1,233.10000002384186,836491.1999999881,8001,WL,A,4.0
6,34.289000034332275,distr,25710.999965667725,Fri Sep 20 2024 14:37:37 GMT-0500 (Central Daylight Time),836940.8000000119,B,enter,I,enter,201,1,216.10000002384186,836724.6999999881,8001,WL,A,5.0
6,34.57300019264221,distr,25426.999807357788,Fri Sep 20 2024 14:37:37 GMT-0500 (Central Daylight Time),837224.0,B,enter,I,enter,265,1,282.90000000596046,836941.099999994,8001,WL,A,6.0
6,34.723000049591064,distr,25276.999950408936,Fri Sep 20 2024 14:37:37 GMT-0500 (Central Daylight Time),837374.1999999881,B,enter,I,enter,142,1,149.7999999821186,837224.400000006,8001,WL,A,7.0
6,34.890000104904175,distr,25109.999895095825,Fri Sep 20 2024 14:37:37 GMT-0500 (Central Daylight Time),837540.900000006,B,enter,I,enter,152,1,166.5,837374.400000006,8001,WL,A,8.0
6,35.03999996185303,distr,24960.000038146973,Fri Sep 20 2024 14:37:37 GMT-0500 (Central Daylight Time),837690.599999994,B,enter,I,enter,145,1,149.2999999821186,837541.3000000119,8001,WL,A,9.0
6,35.17400002479553,distr,24825.999975204468,Fri Sep 20 2024 14:37:37 GMT-0500 (Central Daylight Time),837824.8000000119,B,enter,I,enter,123,1,134.0,837690.8000000119,8001,WL,A,10.0
6,35.35600018501282,distr,24643.999814987183,Fri Sep 20 2024 14:37:37 GMT-0500 (Central Daylight Time),838007.1999999881,B,enter,I,enter,173,1,182.19999998807907,837825.0,8001,WL,A,11.0
6,35.723000049591064,distr,24276.999950408936,Fri Sep 20 2024 14:37:37 GMT-0500 (Central Daylight Time),838373.900000006,B,enter,I,enter,358,1,366.40000000596046,838007.5,8001,WL,A,12.0
6,36.03999996185303,distr,23960.000038146973,Fri Sep 20 2024 14:37:37 GMT-0500 (Central Daylight Time),838690.5,B,enter,I,enter,311,1,316.19999998807907,838374.3000000119,8001,WL,A,13.0
6,36.44000005722046,distr,23559.99994277954,Fri Sep 20 2024 14:37:37 GMT-0500 (Central Daylight Time),839090.5,B,enter,I,enter,379,1,399.69999998807907,838690.8000000119,8001,WL,A,14.0
6,36.805999994277954,distr,23194.000005722046,Fri Sep 20 2024 14:37:37 GMT-0500 (Central Daylight Time),839456.8000000119,B,enter,I,enter,355,1,366.0,839090.8000000119,8001,WL,A,15.0
7,13.029000043869019,immed,46970.99995613098,Fri Sep 20 2024 14:37:37 GMT-0500 (Central Daylight Time),854018.900000006,A,r,I,r,13009,1,13029.200000017881,840989.6999999881,8001,WL,A,1.0
7,13.146000146865845,immed,46853.999853134155,Fri Sep 20 2024 14:37:37 GMT-0500 (Central Daylight Time),854135.6999999881,A,ra,I,a,98,1,13146.0,840989.6999999881,8001,WL,A,1.0
7,13.51200008392334,immed,46487.99991607666,Fri Sep 20 2024 14:37:37 GMT-0500 (Central Daylight Time),854502.1999999881,A,rat,I,t,350,1,13512.5,840989.6999999881,8001,WL,A,1.0
7,13.67900013923645,immed,46320.99986076355,Fri Sep 20 2024 14:37:37 GMT-0500 (Central Daylight Time),854668.900000006,A,ratt,I,t,151,1,13679.200000017881,840989.6999999881,8001,WL,A,1.0
7,14.029000043869019,immed,45970.99995613098,Fri Sep 20 2024 14:37:37 GMT-0500 (Central Daylight Time),855018.599999994,A,rattl,I,l,328,1,14028.90000000596,840989.6999999881,8001,WL,A,1.0
7,14.162000179290771,immed,45837.99982070923,Fri Sep 20 2024 14:37:37 GMT-0500 (Central Daylight Time),855152.099999994,A,rattle,I,e,115,1,14162.40000000596,840989.6999999881,8001,WL,A,1.0
7,15.07800006866455,immed,44921.99993133545,Fri Sep 20 2024 14:37:37 GMT-0500 (Central Daylight Time),856068.3000000119,A,rattleg,I,g,910,1,15078.600000023842,840989.6999999881,8001,WL,A,1.0
7,15.26200008392334,immed,44737.99991607666,Fri Sep 20 2024 14:37:37 GMT-0500 (Central Daylight Time),856251.599999994,A,rattlego,I,o,169,1,15261.90000000596,840989.6999999881,8001,WL,A,1.0
7,15.478000164031982,immed,44521.99983596802,Fri Sep 20 2024 14:37:37 GMT-0500 (Central Daylight Time),856468.1999999881,A,rattlegol,I,l,202,1,15478.5,840989.6999999881,8001,WL,A,1.0
7,15.712000131607056,immed,44287.999868392944,Fri Sep 20 2024 14:37:37 GMT-0500 (Central Daylight Time),856701.6999999881,A,rattlegold,I,d,217,1,15712.0,840989.6999999881,8001,WL,A,1.0
7,17.09500002861023,immed,42904.99997138977,Fri Sep 20 2024 14:37:37 GMT-0500 (Central Daylight Time),858084.5,A,rattlegol,I,backspace,1376,1,17094.80000001192,840989.6999999881,8001,WL,A,1.0
7,17.278000116348267,immed,42721.99988365173,Fri Sep 20 2024 14:37:37 GMT-0500 (Central Daylight Time),858267.6999999881,A,rattlego,I,backspace,169,1,17278.0,840989.6999999881,8001,WL,A,1.0
7,17.41100001335144,immed,42588.99998664856,Fri Sep 20 2024 14:37:37 GMT-0500 (Central Daylight Time),858401.0,A,rattleg,I,backspace,122,1,17411.30000001192,840989.6999999881,8001,WL,A,1.0
7,17.57800006866455,immed,42421.99993133545,Fri Sep 20 2024 14:37:37 GMT-0500 (Central Daylight Time),858567.400000006,A,rattle,I,backspace,149,1,17577.70000001788,840989.6999999881,8001,WL,A,1.0
7,18.66100001335144,immed,41338.99998664856,Fri Sep 20 2024 14:37:37 GMT-0500 (Central Daylight Time),859650.5,A,rattleenter,I,enter,1078,1,18660.80000001192,840989.6999999881,8001,WL,A,1.0
7,19.177000045776367,immed,40822.99995422363,Fri Sep 20 2024 14:37:37 GMT-0500 (Central Daylight Time),860167.1999999881,A,g,I,g,499,1,516.3999999761581,859650.8000000119,8001,WL,A,2.0
7,19.31000018119812,immed,40689.99981880188,Fri Sep 20 2024 14:37:37 GMT-0500 (Central Daylight Time),860300.1999999881,A,go,I,o,126,1,649.3999999761581,859650.8000000119,8001,WL,A,2.0
7,19.49400019645691,immed,40505.99980354309,Fri Sep 20 2024 14:37:37 GMT-0500 (Central Daylight Time),860483.599999994,A,gol,I,l,177,1,832.7999999821186,859650.8000000119,8001,WL,A,2.0
7,19.74400019645691,immed,40255.99980354309,Fri Sep 20 2024 14:37:37 GMT-0500 (Central Daylight Time),860733.400000006,A,gold,I,d,242,1,1082.5999999940395,859650.8000000119,8001,WL,A,2.0
7,20.14300012588501,immed,39856.99987411499,Fri Sep 20 2024 14:37:37 GMT-0500 (Central Daylight Time),861133.400000006,A,goldenter,I,enter,392,1,1482.5999999940395,859650.8000000119,8001,WL,A,2.0
7,20.677000045776367,immed,39322.99995422363,Fri Sep 20 2024 14:37:37 GMT-0500 (Central Daylight Time),861666.6999999881,A,k,I,k,528,1,533.0999999940395,861133.599999994,8001,WL,A,3.0
7,21.042999982833862,immed,38957.00001716614,Fri Sep 20 2024 14:37:37 GMT-0500 (Central Daylight Time),862033.3000000119,A,ke,I,e,355,1,899.7000000178814,861133.599999994,8001,WL,A,3.0
7,21.825999975204468,immed,38174.00002479553,Fri Sep 20 2024 14:37:37 GMT-0500 (Central Daylight Time),862816.1999999881,A,key,I,y,773,1,1682.5999999940395,861133.599999994,8001,WL,A,3.0
7,27.874000072479248,immed,32125.999927520752,Fri Sep 20 2024 14:37:37 GMT-0500 (Central Daylight Time),868864.3000000119,A,keyb,I,b,6037,1,7730.700000017881,861133.599999994,8001,WL,A,3.0
7,28.124000072479248,immed,31875.999927520752,Fri Sep 20 2024 14:37:37 GMT-0500 (Central Daylight Time),869114.1999999881,A,keybu,I,u,237,1,7980.5999999940395,861133.599999994,8001,WL,A,3.0
7,28.44099998474121,immed,31559.00001525879,Fri Sep 20 2024 14:37:37 GMT-0500 (Central Daylight Time),869430.8000000119,A,keybut,I,t,299,1,8297.200000017881,861133.599999994,8001,WL,A,3.0
7,28.591000080108643,immed,31408.999919891357,Fri Sep 20 2024 14:37:37 GMT-0500 (Central Daylight Time),869580.6999999881,A,keybutt,I,t,135,1,8447.09999999404,861133.599999994,8001,WL,A,3.0
7,28.807000160217285,immed,31192.999839782715,Fri Sep 20 2024 14:37:37 GMT-0500 (Central Daylight Time),869797.3000000119,A,keybutto,I,o,209,1,8663.700000017881,861133.599999994,8001,WL,A,3.0
7,29.157000064849854,immed,30842.999935150146,Fri Sep 20 2024 14:37:37 GMT-0500 (Central Daylight Time),870147.1999999881,A,keybutton,I,n,336,1,9013.59999999404,861133.599999994,8001,WL,A,3.0
7,31.84000015258789,immed,28159.99984741211,Fri Sep 20 2024 14:37:37 GMT-0500 (Central Daylight Time),872830.0,A,keybuttonc,I,c,2666,1,11696.40000000596,861133.599999994,8001,WL,A,3.0
7,31.990000009536743,immed,28009.999990463257,Fri Sep 20 2024 14:37:37 GMT-0500 (Central Daylight Time),872979.6999999881,A,keybuttonch,I,h,136,1,11846.09999999404,861133.599999994,8001,WL,A,3.0
7,32.17300009727478,immed,27826.99990272522,Fri Sep 20 2024 14:37:37 GMT-0500 (Central Daylight Time),873162.8000000119,A,keybuttonchi,I,i,170,1,12029.200000017881,861133.599999994,8001,WL,A,3.0
7,32.60600018501282,immed,27393.999814987183,Fri Sep 20 2024 14:37:37 GMT-0500 (Central Daylight Time),873596.099999994,A,keybuttonchim,I,m,427,1,12462.5,861133.599999994,8001,WL,A,3.0
7,32.83899998664856,immed,27161.00001335144,Fri Sep 20 2024 14:37:37 GMT-0500 (Central Daylight Time),873829.3000000119,A,keybuttonchimn,I,n,218,1,12695.700000017881,861133.599999994,8001,WL,A,3.0
7,33.373000144958496,immed,26626.999855041504,Fri Sep 20 2024 14:37:37 GMT-0500 (Central Daylight Time),874362.5,A,keybuttonchimne,I,e,520,1,13228.90000000596,861133.599999994,8001,WL,A,3.0
7,33.50600004196167,immed,26493.99995803833,Fri Sep 20 2024 14:37:37 GMT-0500 (Central Daylight Time),874496.099999994,A,keybuttonchimney,I,y,124,1,13362.5,861133.599999994,8001,WL,A,3.0
7,34.48900008201599,immed,25510.99991798401,Fri Sep 20 2024 14:37:37 GMT-0500 (Central Daylight Time),875478.900000006,A,keybuttonchimne,I,backspace,965,1,14345.300000011921,861133.599999994,8001,WL,A,3.0
7,34.63900017738342,immed,25360.999822616577,Fri Sep 20 2024 14:37:37 GMT-0500 (Central Daylight Time),875628.8000000119,A,keybuttonchimn,I,backspace,135,1,14495.200000017881,861133.599999994,8001,WL,A,3.0
7,34.789000034332275,immed,25210.999965667725,Fri Sep 20 2024 14:37:37 GMT-0500 (Central Daylight Time),875778.8000000119,A,keybuttonchim,I,backspace,137,1,14645.200000017881,861133.599999994,8001,WL,A,3.0
7,35.17200016975403,immed,24827.99983024597,Fri Sep 20 2024 14:37:37 GMT-0500 (Central Daylight Time),876162.0,A,keybuttonchi,I,backspace,371,1,15028.40000000596,861133.599999994,8001,WL,A,3.0
7,35.33899998664856,immed,24661.00001335144,Fri Sep 20 2024 14:37:37 GMT-0500 (Central Daylight Time),876328.900000006,A,keybuttonch,I,backspace,148,1,15195.300000011921,861133.599999994,8001,WL,A,3.0
7,35.48900008201599,immed,24510.99991798401,Fri Sep 20 2024 14:37:37 GMT-0500 (Central Daylight Time),876478.5,A,keybuttonc,I,backspace,133,1,15344.90000000596,861133.599999994,8001,WL,A,3.0
7,35.65499997138977,immed,24345.00002861023,Fri Sep 20 2024 14:37:37 GMT-0500 (Central Daylight Time),876645.1999999881,A,keybutton,I,backspace,151,1,15511.59999999404,861133.599999994,8001,WL,A,3.0
7,35.82200002670288,immed,24177.99997329712,Fri Sep 20 2024 14:37:37 GMT-0500 (Central Daylight Time),876811.8000000119,A,keybutto,I,backspace,152,1,15678.200000017881,861133.599999994,8001,WL,A,3.0
7,36.140000104904175,immed,23859.999895095825,Fri Sep 20 2024 14:37:37 GMT-0500 (Central Daylight Time),877129.5,A,keybutt,I,backspace,306,1,15995.90000000596,861133.599999994,8001,WL,A,3.0
7,36.289000034332275,immed,23710.999965667725,Fri Sep 20 2024 14:37:37 GMT-0500 (Central Daylight Time),877278.599999994,A,keybut,I,backspace,132,1,16145.0,861133.599999994,8001,WL,A,3.0
7,36.438000202178955,immed,23561.999797821045,Fri Sep 20 2024 14:37:37 GMT-0500 (Central Daylight Time),877428.1999999881,A,keybu,I,backspace,143,1,16294.59999999404,861133.599999994,8001,WL,A,3.0
7,36.605000019073486,immed,23394.999980926514,Fri Sep 20 2024 14:37:37 GMT-0500 (Central Daylight Time),877594.6999999881,A,keyb,I,backspace,153,1,16461.09999999404,861133.599999994,8001,WL,A,3.0
7,36.771000146865845,immed,23228.999853134155,Fri Sep 20 2024 14:37:37 GMT-0500 (Central Daylight Time),877761.1999999881,A,key,I,backspace,147,1,16627.59999999404,861133.599999994,8001,WL,A,3.0
7,37.688000202178955,immed,22311.999797821045,Fri Sep 20 2024 14:37:37 GMT-0500 (Central Daylight Time),878677.900000006,A,keyenter,I,enter,908,1,17544.30000001192,861133.599999994,8001,WL,A,3.0
7,38.9210000038147,immed,21078.999996185303,Fri Sep 20 2024 14:37:37 GMT-0500 (Central Daylight Time),879910.8000000119,A,b,I,b,1216,1,1232.6000000238419,878678.1999999881,8001,WL,A,4.0
7,39.08800005912781,immed,20911.999940872192,Fri Sep 20 2024 14:37:37 GMT-0500 (Central Daylight Time),880077.400000006,A,bu,I,u,159,1,1399.2000000178814,878678.1999999881,8001,WL,A,4.0
7,39.37100005149841,immed,20628.999948501587,Fri Sep 20 2024 14:37:37 GMT-0500 (Central Daylight Time),880360.599999994,A,but,I,t,272,1,1682.4000000059605,878678.1999999881,8001,WL,A,4.0
7,39.48699998855591,immed,20513.00001144409,Fri Sep 20 2024 14:37:37 GMT-0500 (Central Daylight Time),880477.1999999881,A,butt,I,t,109,1,1799.0,878678.1999999881,8001,WL,A,4.0
7,39.687000036239624,immed,20312.999963760376,Fri Sep 20 2024 14:37:37 GMT-0500 (Central Daylight Time),880677.3000000119,A,butto,I,o,193,1,1999.1000000238419,878678.1999999881,8001,WL,A,4.0
7,39.837000131607056,immed,20162.999868392944,Fri Sep 20 2024 14:37:37 GMT-0500 (Central Daylight Time),880827.099999994,A,button,I,n,136,1,2148.9000000059605,878678.1999999881,8001,WL,A,4.0
7,40.23699998855591,immed,19763.00001144409,Fri Sep 20 2024 14:37:37 GMT-0500 (Central Daylight Time),881227.1999999881,A,buttonenter,I,enter,386,1,2549.0,878678.1999999881,8001,WL,A,4.0
7,41.80299997329712,immed,18197.00002670288,Fri Sep 20 2024 14:37:37 GMT-0500 (Central Daylight Time),882793.3000000119,A,c,I,c,1547,1,1565.800000011921,881227.5,8001,WL,A,5.0
7,41.90300011634827,immed,18096.999883651733,Fri Sep 20 2024 14:37:37 GMT-0500 (Central Daylight Time),882893.3000000119,A,ch,I,h,84,1,1665.800000011921,881227.5,8001,WL,A,5.0
7,42.07000017166138,immed,17929.999828338623,Fri Sep 20 2024 14:37:37 GMT-0500 (Central Daylight Time),883059.6999999881,A,chi,I,i,160,1,1832.199999988079,881227.5,8001,WL,A,5.0
7,42.23699998855591,immed,17763.00001144409,Fri Sep 20 2024 14:37:37 GMT-0500 (Central Daylight Time),883226.599999994,A,chin,I,n,147,1,1999.0999999940395,881227.5,8001,WL,A,5.0
7,42.47000002861023,immed,17529.99997138977,Fri Sep 20 2024 14:37:37 GMT-0500 (Central Daylight Time),883459.5,A,chink,I,k,227,1,2232.0,881227.5,8001,WL,A,5.0
7,43.88600015640259,immed,16113.999843597412,Fri Sep 20 2024 14:37:37 GMT-0500 (Central Daylight Time),884876.0,A,chin,I,backspace,1411,1,3648.5,881227.5,8001,WL,A,5.0
7,44.10300016403198,immed,15896.999835968018,Fri Sep 20 2024 14:37:37 GMT-0500 (Central Daylight Time),885092.5,A,chi,I,backspace,209,1,3865.0,881227.5,8001,WL,A,5.0
7,45.152000188827515,immed,14847.999811172485,Fri Sep 20 2024 14:37:37 GMT-0500 (Central Daylight Time),886142.099999994,A,chim,I,m,1034,1,4914.5999999940395,881227.5,8001,WL,A,5.0
7,45.53500008583069,immed,14464.999914169312,Fri Sep 20 2024 14:37:37 GMT-0500 (Central Daylight Time),886525.3000000119,A,chimn,I,n,375,1,5297.800000011921,881227.5,8001,WL,A,5.0
7,45.819000005722046,immed,14180.999994277954,Fri Sep 20 2024 14:37:37 GMT-0500 (Central Daylight Time),886808.599999994,A,chimne,I,e,264,1,5581.0999999940395,881227.5,8001,WL,A,5.0
7,45.96900010108948,immed,14030.999898910522,Fri Sep 20 2024 14:37:37 GMT-0500 (Central Daylight Time),886958.6999999881,A,chimney,I,y,133,1,5731.199999988079,881227.5,8001,WL,A,5.0
7,50.117000102996826,immed,9882.999897003174,Fri Sep 20 2024 14:37:37 GMT-0500 (Central Daylight Time),891107.3000000119,A,chimneyenter,I,enter,4135,1,9879.800000011921,881227.5,8001,WL,A,5.0
7,60.01400017738342,immed,-14.000177383422852,Fri Sep 20 2024 14:37:37 GMT-0500 (Central Daylight Time),901004.599999994,A,None,I,None,9892,1,9897.0,891107.599999994,8001,WL,A,6.0
