acc_sum,block,block_c,change,condition,correct,correct_response,datetime,endtime,face,project,response,response_time,row_sel,session_number,start_end,starttime,subject_id,task,task_vers,trial
0,prac,1,,1-Back,,,Fri Sep 20 2024 17:10:38 GMT-0500 (Central Daylight Time),,097_m_f_n_a.png,I,space,9260,1,1,,,8006,NNB,B,0
1,prac,1,0.0,1-Back,1,m,Fri Sep 20 2024 17:10:38 GMT-0500 (Central Daylight Time),139030.40000000014,152_y_f_n_a.png,I,m,919,2,1,1791.4000000001397,137239.0,8006,NNB,B,1
1,prac,1,1.0,1-Back,0,z,Fri Sep 20 2024 17:10:38 GMT-0500 (Central Daylight Time),141812.5,152_y_f_n_a.png,I,None,2009,3,1,2776.2999999998137,139036.2000000002,8006,NNB,B,2
2,prac,1,0.0,1-Back,1,m,Fri Sep 20 2024 17:10:38 GMT-0500 (Central Daylight Time),143911.80000000005,176_o_m_n_a.png,I,m,1215,4,1,2093.5,141818.30000000005,8006,NNB,B,3
3,prac,1,0.0,1-Back,1,m,Fri Sep 20 2024 17:10:38 GMT-0500 (Central Daylight Time),145694.90000000014,126_m_m_n_a.png,I,m,907,5,1,1777.8000000000466,143917.1000000001,8006,NNB,B,4
4,prac,1,1.0,1-Back,1,z,Fri Sep 20 2024 17:10:38 GMT-0500 (Central Daylight Time),146977.5,126_m_m_n_a.png,I,z,502,6,1,1277.0999999998603,145700.40000000014,8006,NNB,B,5
5,prac,1,0.0,1-Back,1,m,Fri Sep 20 2024 17:10:38 GMT-0500 (Central Daylight Time),149110.40000000014,086_o_f_n_a.png,I,m,1237,7,1,2127.8000000000466,146982.6000000001,8006,NNB,B,6
5,prac,1,0.0,1-Back,0,m,Fri Sep 20 2024 17:10:38 GMT-0500 (Central Daylight Time),150526.5,178_m_m_n_a.png,I,z,547,8,1,1410.5,149116.0,8006,NNB,B,7
6,prac,1,0.0,1-Back,1,m,Fri Sep 20 2024 17:10:38 GMT-0500 (Central Daylight Time),152326.1000000001,097_m_f_n_a.png,I,m,931,9,1,1794.3999999999069,150531.7000000002,8006,NNB,B,8
7,prac,1,1.0,1-Back,1,z,Fri Sep 20 2024 17:10:38 GMT-0500 (Central Daylight Time),153842.2000000002,097_m_f_n_a.png,I,z,735,10,1,1510.5,152331.7000000002,8006,NNB,B,9
8,prac,1,0.0,1-Back,1,m,Fri Sep 20 2024 17:10:38 GMT-0500 (Central Daylight Time),155374.90000000014,176_o_m_n_a.png,I,m,753,11,1,1526.0,153848.90000000014,8006,NNB,B,10
9,prac,1,0.0,1-Back,1,m,Fri Sep 20 2024 17:10:38 GMT-0500 (Central Daylight Time),157174.2000000002,173_y_f_n_a.png,I,m,933,12,1,1793.5,155380.7000000002,8006,NNB,B,11
0,test,1,0.0,1-Back,,,Fri Sep 20 2024 17:10:38 GMT-0500 (Central Daylight Time),157174.2000000002,152_y_f_n_a.png,I,space,13197,1,1,1793.5,155380.7000000002,8006,NNB,B,0
1,test,1,0.0,1-Back,1,m,Fri Sep 20 2024 17:10:38 GMT-0500 (Central Daylight Time),181883.40000000014,029_m_f_n_a.png,I,m,533,2,1,1556.4000000001397,180327.0,8006,NNB,B,1
2,test,1,0.0,1-Back,1,m,Fri Sep 20 2024 17:10:38 GMT-0500 (Central Daylight Time),183699.1000000001,173_y_f_n_a.png,I,m,791,3,1,1812.1999999999534,181886.90000000014,8006,NNB,B,2
3,test,1,1.0,1-Back,1,z,Fri Sep 20 2024 17:10:38 GMT-0500 (Central Daylight Time),185165.40000000014,173_y_f_n_a.png,I,z,422,4,1,1461.6999999999534,183703.7000000002,8006,NNB,B,3
4,test,1,0.0,1-Back,1,m,Fri Sep 20 2024 17:10:38 GMT-0500 (Central Daylight Time),186698.7000000002,029_m_f_n_a.png,I,m,501,5,1,1529.4000000001397,185169.30000000005,8006,NNB,B,4
5,test,1,0.0,1-Back,1,m,Fri Sep 20 2024 17:10:38 GMT-0500 (Central Daylight Time),188447.90000000014,176_o_m_n_a.png,I,m,728,6,1,1745.4000000001397,186702.5,8006,NNB,B,5
5,test,1,1.0,1-Back,0,z,Fri Sep 20 2024 17:10:38 GMT-0500 (Central Daylight Time),190547.1000000001,176_o_m_n_a.png,I,m,1074,7,1,2095.3000000000466,188451.80000000005,8006,NNB,B,6
6,test,1,0.0,1-Back,1,m,Fri Sep 20 2024 17:10:38 GMT-0500 (Central Daylight Time),192563.40000000014,126_m_m_n_a.png,I,m,991,8,1,2012.1000000000931,190551.30000000005,8006,NNB,B,7
7,test,1,0.0,1-Back,1,m,Fri Sep 20 2024 17:10:38 GMT-0500 (Central Daylight Time),194279.1000000001,086_o_f_n_a.png,I,m,695,9,1,1711.8999999999069,192567.2000000002,8006,NNB,B,8
8,test,1,0.0,1-Back,1,m,Fri Sep 20 2024 17:10:38 GMT-0500 (Central Daylight Time),195762.2000000002,126_m_m_n_a.png,I,m,459,10,1,1479.1000000000931,194283.1000000001,8006,NNB,B,9
9,test,1,0.0,1-Back,1,m,Fri Sep 20 2024 17:10:38 GMT-0500 (Central Daylight Time),197661.80000000005,153_y_m_n_a.png,I,m,872,11,1,1895.6999999999534,195766.1000000001,8006,NNB,B,10
10,test,1,1.0,1-Back,1,z,Fri Sep 20 2024 17:10:38 GMT-0500 (Central Daylight Time),199294.2000000002,153_y_m_n_a.png,I,z,613,12,1,1628.6000000000931,197665.6000000001,8006,NNB,B,11
11,test,1,0.0,1-Back,1,m,Fri Sep 20 2024 17:10:38 GMT-0500 (Central Daylight Time),200810.6000000001,110_o_f_n_a.png,I,m,484,13,1,1513.0,199297.6000000001,8006,NNB,B,12
12,test,1,1.0,1-Back,1,z,Fri Sep 20 2024 17:10:38 GMT-0500 (Central Daylight Time),202426.80000000005,110_o_f_n_a.png,I,z,592,14,1,1612.6999999999534,200814.1000000001,8006,NNB,B,13
13,test,1,0.0,1-Back,1,m,Fri Sep 20 2024 17:10:38 GMT-0500 (Central Daylight Time),203876.0,013_y_m_n_a.png,I,m,423,15,1,1445.5,202430.5,8006,NNB,B,14
14,test,1,0.0,1-Back,1,m,Fri Sep 20 2024 17:10:38 GMT-0500 (Central Daylight Time),205659.2000000002,097_m_f_n_a.png,I,m,758,16,1,1777.6000000000931,203881.6000000001,8006,NNB,B,15
15,test,1,0.0,1-Back,1,m,Fri Sep 20 2024 17:10:38 GMT-0500 (Central Daylight Time),207225.2000000002,065_o_m_n_a.png,I,m,535,17,1,1562.1000000000931,205663.1000000001,8006,NNB,B,16
16,test,1,0.0,1-Back,1,m,Fri Sep 20 2024 17:10:38 GMT-0500 (Central Daylight Time),208708.2000000002,097_m_f_n_a.png,I,m,457,18,1,1479.0,207229.2000000002,8006,NNB,B,17
0,test,2,0.0,1-Back,,,Fri Sep 20 2024 17:10:38 GMT-0500 (Central Daylight Time),208708.2000000002,126_m_m_n_a.png,I,space,2254,1,1,1479.0,207229.2000000002,8006,NNB,B,0
1,test,2,0.0,1-Back,1,m,Fri Sep 20 2024 17:10:38 GMT-0500 (Central Daylight Time),214806.2000000002,029_m_f_n_a.png,I,m,796,2,1,1812.0,212994.2000000002,8006,NNB,B,1
2,test,2,1.0,1-Back,1,z,Fri Sep 20 2024 17:10:38 GMT-0500 (Central Daylight Time),216822.2000000002,029_m_f_n_a.png,I,z,988,3,1,2012.1000000000931,214810.1000000001,8006,NNB,B,2
3,test,2,0.0,1-Back,1,m,Fri Sep 20 2024 17:10:38 GMT-0500 (Central Daylight Time),218205.2000000002,126_m_m_n_a.png,I,m,356,4,1,1379.1000000000931,216826.1000000001,8006,NNB,B,3
4,test,2,0.0,1-Back,1,m,Fri Sep 20 2024 17:10:38 GMT-0500 (Central Daylight Time),219688.1000000001,153_y_m_n_a.png,I,m,461,5,1,1477.8000000000466,218210.30000000005,8006,NNB,B,4
5,test,2,0.0,1-Back,1,m,Fri Sep 20 2024 17:10:38 GMT-0500 (Central Daylight Time),221154.2000000002,152_y_f_n_a.png,I,m,434,6,1,1462.4000000001397,219691.80000000005,8006,NNB,B,5
6,test,2,1.0,1-Back,1,z,Fri Sep 20 2024 17:10:38 GMT-0500 (Central Daylight Time),222587.0,152_y_f_n_a.png,I,z,408,7,1,1428.8999999999069,221158.1000000001,8006,NNB,B,6
7,test,2,0.0,1-Back,1,m,Fri Sep 20 2024 17:10:38 GMT-0500 (Central Daylight Time),224086.7000000002,153_y_m_n_a.png,I,m,471,8,1,1495.9000000001397,222590.80000000005,8006,NNB,B,7
8,test,2,0.0,1-Back,1,m,Fri Sep 20 2024 17:10:38 GMT-0500 (Central Daylight Time),226219.5,110_o_f_n_a.png,I,m,1108,9,1,2129.5,224090.0,8006,NNB,B,8
8,test,2,0.0,1-Back,0,m,Fri Sep 20 2024 17:10:38 GMT-0500 (Central Daylight Time),229318.40000000014,178_m_m_n_a.png,I,None,2004,10,1,3095.600000000093,226222.80000000005,8006,NNB,B,9
9,test,2,1.0,1-Back,1,z,Fri Sep 20 2024 17:10:38 GMT-0500 (Central Daylight Time),231018.0,178_m_m_n_a.png,I,z,668,11,1,1696.0,229322.0,8006,NNB,B,10
10,test,2,0.0,1-Back,1,m,Fri Sep 20 2024 17:10:38 GMT-0500 (Central Daylight Time),232467.40000000014,110_o_f_n_a.png,I,m,432,12,1,1445.4000000001397,231022.0,8006,NNB,B,11
11,test,2,0.0,1-Back,1,m,Fri Sep 20 2024 17:10:38 GMT-0500 (Central Daylight Time),234000.30000000005,086_o_f_n_a.png,I,m,503,13,1,1529.0,232471.30000000005,8006,NNB,B,12
12,test,2,0.0,1-Back,1,m,Fri Sep 20 2024 17:10:38 GMT-0500 (Central Daylight Time),236365.90000000014,176_o_m_n_a.png,I,m,1345,14,1,2361.6999999999534,234004.2000000002,8006,NNB,B,13
13,test,2,0.0,1-Back,1,m,Fri Sep 20 2024 17:10:38 GMT-0500 (Central Daylight Time),237965.6000000001,065_o_m_n_a.png,I,m,580,15,1,1595.8000000000466,236369.80000000005,8006,NNB,B,14
13,test,2,1.0,1-Back,0,z,Fri Sep 20 2024 17:10:38 GMT-0500 (Central Daylight Time),239848.30000000005,065_o_m_n_a.png,I,m,861,16,1,1878.6999999999534,237969.6000000001,8006,NNB,B,15
14,test,2,0.0,1-Back,1,m,Fri Sep 20 2024 17:10:38 GMT-0500 (Central Daylight Time),241547.6000000001,013_y_m_n_a.png,I,m,682,17,1,1695.1999999999534,239852.40000000014,8006,NNB,B,16
15,test,2,1.0,1-Back,1,z,Fri Sep 20 2024 17:10:38 GMT-0500 (Central Daylight Time),243147.6000000001,013_y_m_n_a.png,I,z,567,18,1,1596.6000000000931,241551.0,8006,NNB,B,17
0,test,3,1.0,1-Back,,,Fri Sep 20 2024 17:10:38 GMT-0500 (Central Daylight Time),243147.6000000001,173_y_f_n_a.png,I,space,1935,1,1,1596.6000000000931,241551.0,8006,NNB,B,0
1,test,3,0.0,1-Back,1,m,Fri Sep 20 2024 17:10:38 GMT-0500 (Central Daylight Time),248795.6000000001,065_o_m_n_a.png,I,m,566,1,1,1578.5,247217.1000000001,8006,NNB,B,1
2,test,3,1.0,1-Back,1,z,Fri Sep 20 2024 17:10:38 GMT-0500 (Central Daylight Time),250495.0,065_o_m_n_a.png,I,z,679,1,1,1695.7999999998137,248799.2000000002,8006,NNB,B,2
3,test,3,0.0,1-Back,1,m,Fri Sep 20 2024 17:10:38 GMT-0500 (Central Daylight Time),252277.80000000005,097_m_f_n_a.png,I,m,755,1,1,1779.0999999998603,250498.7000000002,8006,NNB,B,3
4,test,3,1.0,1-Back,1,z,Fri Sep 20 2024 17:10:38 GMT-0500 (Central Daylight Time),253810.80000000005,097_m_f_n_a.png,I,z,509,1,1,1528.8999999999069,252281.90000000014,8006,NNB,B,4
5,test,3,0.0,1-Back,1,m,Fri Sep 20 2024 17:10:38 GMT-0500 (Central Daylight Time),255526.7000000002,110_o_f_n_a.png,I,m,696,1,1,1712.1000000000931,253814.6000000001,8006,NNB,B,5
6,test,3,0.0,1-Back,1,m,Fri Sep 20 2024 17:10:38 GMT-0500 (Central Daylight Time),257526.2000000002,153_y_m_n_a.png,I,m,980,1,1,1995.8000000000466,255530.40000000014,8006,NNB,B,6
7,test,3,0.0,1-Back,1,m,Fri Sep 20 2024 17:10:38 GMT-0500 (Central Daylight Time),259092.2000000002,110_o_f_n_a.png,I,m,548,1,1,1562.2000000001863,257530.0,8006,NNB,B,7
8,test,3,0.0,1-Back,1,m,Fri Sep 20 2024 17:10:38 GMT-0500 (Central Daylight Time),260675.2000000002,013_y_m_n_a.png,I,m,550,1,1,1579.9000000001397,259095.30000000005,8006,NNB,B,8
9,test,3,1.0,1-Back,1,z,Fri Sep 20 2024 17:10:38 GMT-0500 (Central Daylight Time),262241.2000000002,013_y_m_n_a.png,I,z,543,1,1,1561.9000000001397,260679.30000000005,8006,NNB,B,9
10,test,3,0.0,1-Back,1,m,Fri Sep 20 2024 17:10:38 GMT-0500 (Central Daylight Time),263707.6000000001,029_m_f_n_a.png,I,m,441,1,1,1462.6999999999534,262244.90000000014,8006,NNB,B,10
11,test,3,0.0,1-Back,1,m,Fri Sep 20 2024 17:10:38 GMT-0500 (Central Daylight Time),265340.40000000014,152_y_f_n_a.png,I,m,607,1,1,1629.0,263711.40000000014,8006,NNB,B,11
12,test,3,1.0,1-Back,1,z,Fri Sep 20 2024 17:10:38 GMT-0500 (Central Daylight Time),266939.7000000002,152_y_f_n_a.png,I,z,582,1,1,1595.3000000000466,265344.40000000014,8006,NNB,B,12
13,test,3,0.0,1-Back,1,m,Fri Sep 20 2024 17:10:38 GMT-0500 (Central Daylight Time),268522.6000000001,029_m_f_n_a.png,I,m,558,1,1,1579.3000000000466,266943.30000000005,8006,NNB,B,13
14,test,3,0.0,1-Back,1,m,Fri Sep 20 2024 17:10:38 GMT-0500 (Central Daylight Time),270322.1000000001,126_m_m_n_a.png,I,m,767,1,1,1795.3999999999069,268526.7000000002,8006,NNB,B,14
15,test,3,1.0,1-Back,1,z,Fri Sep 20 2024 17:10:38 GMT-0500 (Central Daylight Time),271855.0,126_m_m_n_a.png,I,z,504,1,1,1529.5999999998603,270325.40000000014,8006,NNB,B,15
16,test,3,0.0,1-Back,1,m,Fri Sep 20 2024 17:10:38 GMT-0500 (Central Daylight Time),273554.5,086_o_f_n_a.png,I,m,675,1,1,1695.5,271859.0,8006,NNB,B,16
17,test,3,1.0,1-Back,1,z,Fri Sep 20 2024 17:10:38 GMT-0500 (Central Daylight Time),275103.90000000014,086_o_f_n_a.png,I,z,528,1,1,1545.4000000001397,273558.5,8006,NNB,B,17
0,test,4,1.0,1-Back,,,Fri Sep 20 2024 17:10:38 GMT-0500 (Central Daylight Time),275103.90000000014,097_m_f_n_a.png,I,space,1098,1,1,1545.4000000001397,273558.5,8006,NNB,B,0
1,test,4,0.0,1-Back,1,m,Fri Sep 20 2024 17:10:38 GMT-0500 (Central Daylight Time),279885.7000000002,065_o_m_n_a.png,I,m,563,2,1,1578.9000000001397,278306.80000000005,8006,NNB,B,1
2,test,4,0.0,1-Back,1,m,Fri Sep 20 2024 17:10:38 GMT-0500 (Central Daylight Time),281502.0,097_m_f_n_a.png,I,m,596,3,1,1612.3999999999069,279889.6000000001,8006,NNB,B,2
3,test,4,0.0,1-Back,1,m,Fri Sep 20 2024 17:10:38 GMT-0500 (Central Daylight Time),283101.5,110_o_f_n_a.png,I,m,580,4,1,1595.3999999999069,281506.1000000001,8006,NNB,B,3
4,test,4,1.0,1-Back,1,z,Fri Sep 20 2024 17:10:38 GMT-0500 (Central Daylight Time),284534.30000000005,110_o_f_n_a.png,I,z,405,5,1,1429.0,283105.30000000005,8006,NNB,B,4
5,test,4,0.0,1-Back,1,m,Fri Sep 20 2024 17:10:38 GMT-0500 (Central Daylight Time),286134.0,152_y_f_n_a.png,I,m,580,6,1,1596.0,284538.0,8006,NNB,B,5
6,test,4,0.0,1-Back,1,m,Fri Sep 20 2024 17:10:38 GMT-0500 (Central Daylight Time),287816.40000000014,153_y_m_n_a.png,I,m,660,7,1,1678.5,286137.90000000014,8006,NNB,B,6
7,test,4,1.0,1-Back,1,z,Fri Sep 20 2024 17:10:38 GMT-0500 (Central Daylight Time),289249.30000000005,153_y_m_n_a.png,I,z,402,8,1,1429.0,287820.30000000005,8006,NNB,B,7
8,test,4,0.0,1-Back,1,m,Fri Sep 20 2024 17:10:38 GMT-0500 (Central Daylight Time),291032.30000000005,152_y_f_n_a.png,I,m,761,9,1,1779.1999999999534,289253.1000000001,8006,NNB,B,8
9,test,4,0.0,1-Back,1,m,Fri Sep 20 2024 17:10:38 GMT-0500 (Central Daylight Time),292931.7000000002,178_m_m_n_a.png,I,m,866,10,1,1895.9000000001397,291035.80000000005,8006,NNB,B,9
10,test,4,1.0,1-Back,1,z,Fri Sep 20 2024 17:10:38 GMT-0500 (Central Daylight Time),294497.80000000005,178_m_m_n_a.png,I,z,542,11,1,1562.1999999999534,292935.6000000001,8006,NNB,B,10
11,test,4,0.0,1-Back,1,m,Fri Sep 20 2024 17:10:38 GMT-0500 (Central Daylight Time),296064.2000000002,086_o_f_n_a.png,I,m,536,12,1,1562.6000000000931,294501.6000000001,8006,NNB,B,11
12,test,4,0.0,1-Back,1,m,Fri Sep 20 2024 17:10:38 GMT-0500 (Central Daylight Time),297776.80000000005,176_o_m_n_a.png,I,m,696,13,1,1708.5999999998603,296068.2000000002,8006,NNB,B,12
13,test,4,0.0,1-Back,1,m,Fri Sep 20 2024 17:10:38 GMT-0500 (Central Daylight Time),299329.6000000001,086_o_f_n_a.png,I,m,527,14,1,1548.1999999999534,297781.40000000014,8006,NNB,B,13
13,test,4,0.0,1-Back,0,m,Fri Sep 20 2024 17:10:38 GMT-0500 (Central Daylight Time),302362.2000000002,173_y_f_n_a.png,I,None,2015,15,1,3029.100000000093,299333.1000000001,8006,NNB,B,14
14,test,4,1.0,1-Back,1,z,Fri Sep 20 2024 17:10:38 GMT-0500 (Central Daylight Time),304078.2000000002,173_y_f_n_a.png,I,z,688,16,1,1712.0,302366.2000000002,8006,NNB,B,15
15,test,4,0.0,1-Back,1,m,Fri Sep 20 2024 17:10:38 GMT-0500 (Central Daylight Time),305594.40000000014,029_m_f_n_a.png,I,m,484,17,1,1513.0,304081.40000000014,8006,NNB,B,16
16,test,4,1.0,1-Back,1,z,Fri Sep 20 2024 17:10:38 GMT-0500 (Central Daylight Time),307144.0,029_m_f_n_a.png,I,z,528,18,1,1545.7999999998137,305598.2000000002,8006,NNB,B,17
0,test,5,1.0,1-Back,,,Fri Sep 20 2024 17:10:38 GMT-0500 (Central Daylight Time),307144.0,176_o_m_n_a.png,I,space,1018,1,1,1545.7999999998137,305598.2000000002,8006,NNB,B,0
1,test,5,1.0,1-Back,1,z,Fri Sep 20 2024 17:10:38 GMT-0500 (Central Daylight Time),311675.90000000014,176_o_m_n_a.png,I,z,457,2,1,1478.5,310197.40000000014,8006,NNB,B,1
2,test,5,0.0,1-Back,1,m,Fri Sep 20 2024 17:10:38 GMT-0500 (Central Daylight Time),313142.0,152_y_f_n_a.png,I,m,438,3,1,1462.5,311679.5,8006,NNB,B,2
3,test,5,0.0,1-Back,1,m,Fri Sep 20 2024 17:10:38 GMT-0500 (Central Daylight Time),314675.0,153_y_m_n_a.png,I,m,500,4,1,1529.6999999999534,313145.30000000005,8006,NNB,B,3
4,test,5,0.0,1-Back,1,m,Fri Sep 20 2024 17:10:38 GMT-0500 (Central Daylight Time),316174.40000000014,152_y_f_n_a.png,I,m,472,5,1,1495.1999999999534,314679.2000000002,8006,NNB,B,4
5,test,5,0.0,1-Back,1,m,Fri Sep 20 2024 17:10:38 GMT-0500 (Central Daylight Time),317773.80000000005,126_m_m_n_a.png,I,m,572,6,1,1595.5999999998603,316178.2000000002,8006,NNB,B,5
6,test,5,1.0,1-Back,1,z,Fri Sep 20 2024 17:10:38 GMT-0500 (Central Daylight Time),319290.2000000002,126_m_m_n_a.png,I,z,493,7,1,1513.0,317777.2000000002,8006,NNB,B,6
7,test,5,0.0,1-Back,1,m,Fri Sep 20 2024 17:10:38 GMT-0500 (Central Daylight Time),320806.2000000002,173_y_f_n_a.png,I,m,488,8,1,1512.2000000001863,319294.0,8006,NNB,B,7
8,test,5,0.0,1-Back,1,m,Fri Sep 20 2024 17:10:38 GMT-0500 (Central Daylight Time),322455.80000000005,013_y_m_n_a.png,I,m,620,9,1,1645.8999999999069,320809.90000000014,8006,NNB,B,8
9,test,5,0.0,1-Back,1,m,Fri Sep 20 2024 17:10:38 GMT-0500 (Central Daylight Time),324156.6000000001,173_y_f_n_a.png,I,m,666,10,1,1696.8999999999069,322459.7000000002,8006,NNB,B,9
10,test,5,0.0,1-Back,1,m,Fri Sep 20 2024 17:10:38 GMT-0500 (Central Daylight Time),325921.5,086_o_f_n_a.png,I,m,742,11,1,1760.7999999998137,324160.7000000002,8006,NNB,B,10
11,test,5,1.0,1-Back,1,z,Fri Sep 20 2024 17:10:38 GMT-0500 (Central Daylight Time),327337.6000000001,086_o_f_n_a.png,I,z,385,12,1,1412.2000000001863,325925.3999999999,8006,NNB,B,11
12,test,5,0.0,1-Back,1,m,Fri Sep 20 2024 17:10:38 GMT-0500 (Central Daylight Time),329070.2000000002,065_o_m_n_a.png,I,m,705,13,1,1729.0,327341.2000000002,8006,NNB,B,12
12,test,5,0.0,1-Back,0,m,Fri Sep 20 2024 17:10:38 GMT-0500 (Central Daylight Time),330653.3000000003,097_m_f_n_a.png,I,z,556,14,1,1579.4000000003725,329073.8999999999,8006,NNB,B,13
13,test,5,1.0,1-Back,1,z,Fri Sep 20 2024 17:10:38 GMT-0500 (Central Daylight Time),332402.6000000001,097_m_f_n_a.png,I,z,717,15,1,1745.6000000000931,330657.0,8006,NNB,B,14
14,test,5,0.0,1-Back,1,m,Fri Sep 20 2024 17:10:38 GMT-0500 (Central Daylight Time),333852.0,065_o_m_n_a.png,I,m,432,16,1,1445.6999999997206,332406.3000000003,8006,NNB,B,15
15,test,5,0.0,1-Back,1,m,Fri Sep 20 2024 17:10:38 GMT-0500 (Central Daylight Time),335801.5,029_m_f_n_a.png,I,m,918,17,1,1946.3999999999069,333855.1000000001,8006,NNB,B,16
16,test,5,0.0,1-Back,1,m,Fri Sep 20 2024 17:10:38 GMT-0500 (Central Daylight Time),337317.7000000002,178_m_m_n_a.png,I,m,489,18,1,1512.3999999999069,335805.3000000003,8006,NNB,B,17
0,prac,1,0.0,2-Back,,,Fri Sep 20 2024 17:10:38 GMT-0500 (Central Daylight Time),337317.7000000002,013_y_m_n_a.png,I,space,10434,1,1,1512.3999999999069,335805.3000000003,8006,NNB,B,0
0,prac,1,0.0,2-Back,,,Fri Sep 20 2024 17:10:38 GMT-0500 (Central Daylight Time),337317.7000000002,029_m_f_n_a.png,I,space,10434,2,1,1512.3999999999069,335805.3000000003,8006,NNB,B,0
1,prac,1,1.0,2-Back,1,m,Fri Sep 20 2024 17:10:38 GMT-0500 (Central Daylight Time),465144.5,065_o_m_n_a.png,I,m,1173,3,1,2043.1000000000931,463101.3999999999,8006,NNB,B,1
2,prac,1,0.0,2-Back,1,m,Fri Sep 20 2024 17:10:38 GMT-0500 (Central Daylight Time),467293.8000000003,086_o_f_n_a.png,I,m,1248,4,1,2143.8000000002794,465150.0,8006,NNB,B,2
3,prac,1,0.0,2-Back,1,z,Fri Sep 20 2024 17:10:38 GMT-0500 (Central Daylight Time),468893.3000000003,065_o_m_n_a.png,I,z,815,5,1,1593.7000000001863,467299.6000000001,8006,NNB,B,3
3,prac,1,1.0,2-Back,0,z,Fri Sep 20 2024 17:10:38 GMT-0500 (Central Daylight Time),470959.3000000003,086_o_f_n_a.png,I,m,1288,6,1,2060.8000000002794,468898.5,8006,NNB,B,4
4,prac,1,0.0,2-Back,1,m,Fri Sep 20 2024 17:10:38 GMT-0500 (Central Daylight Time),472842.1000000001,178_m_m_n_a.png,I,m,999,7,1,1878.0,470964.1000000001,8006,NNB,B,5
5,prac,1,0.0,2-Back,1,m,Fri Sep 20 2024 17:10:38 GMT-0500 (Central Daylight Time),474475.0,176_o_m_n_a.png,I,m,763,8,1,1627.6000000000931,472847.3999999999,8006,NNB,B,6
6,prac,1,0.0,2-Back,1,m,Fri Sep 20 2024 17:10:38 GMT-0500 (Central Daylight Time),476107.6000000001,173_y_f_n_a.png,I,m,761,9,1,1626.2999999998137,474481.3000000003,8006,NNB,B,7
7,prac,1,1.0,2-Back,1,z,Fri Sep 20 2024 17:10:38 GMT-0500 (Central Daylight Time),477873.7000000002,176_o_m_n_a.png,I,z,985,10,1,1759.8000000002794,476113.8999999999,8006,NNB,B,8
8,prac,1,0.0,2-Back,1,m,Fri Sep 20 2024 17:10:38 GMT-0500 (Central Daylight Time),479506.5,152_y_f_n_a.png,I,m,772,11,1,1627.5,477879.0,8006,NNB,B,9
9,prac,1,0.0,2-Back,1,m,Fri Sep 20 2024 17:10:38 GMT-0500 (Central Daylight Time),481389.3999999999,178_m_m_n_a.png,I,m,1099,12,1,1877.3999999999069,479512.0,8006,NNB,B,10
0,test,1,0.0,2-Back,,,Fri Sep 20 2024 17:10:38 GMT-0500 (Central Daylight Time),481389.3999999999,153_y_m_n_a.png,I,space,13222,1,1,1877.3999999999069,479512.0,8006,NNB,B,0
0,test,1,0.0,2-Back,,,Fri Sep 20 2024 17:10:38 GMT-0500 (Central Daylight Time),481389.3999999999,153_y_m_n_a.png,I,space,13222,2,1,1877.3999999999069,479512.0,8006,NNB,B,0
1,test,1,0.0,2-Back,1,m,Fri Sep 20 2024 17:10:38 GMT-0500 (Central Daylight Time),508447.8000000003,086_o_f_n_a.png,I,m,1020,3,1,2046.0,506401.8000000003,8006,NNB,B,1
2,test,1,0.0,2-Back,1,m,Fri Sep 20 2024 17:10:38 GMT-0500 (Central Daylight Time),510280.2000000002,126_m_m_n_a.png,I,m,811,4,1,1828.7000000001863,508451.5,8006,NNB,B,2
3,test,1,1.0,2-Back,1,z,Fri Sep 20 2024 17:10:38 GMT-0500 (Central Daylight Time),511946.3000000003,086_o_f_n_a.png,I,z,643,5,1,1663.0,510283.3000000003,8006,NNB,B,3
4,test,1,0.0,2-Back,1,m,Fri Sep 20 2024 17:10:38 GMT-0500 (Central Daylight Time),513745.7000000002,152_y_f_n_a.png,I,m,776,6,1,1795.6000000000931,511950.1000000001,8006,NNB,B,4
4,test,1,0.0,2-Back,0,m,Fri Sep 20 2024 17:10:38 GMT-0500 (Central Daylight Time),515678.5,126_m_m_n_a.png,I,z,913,7,1,1929.0,513749.5,8006,NNB,B,5
5,test,1,1.0,2-Back,1,z,Fri Sep 20 2024 17:10:38 GMT-0500 (Central Daylight Time),517528.0,152_y_f_n_a.png,I,z,819,8,1,1845.6999999997206,515682.3000000003,8006,NNB,B,6
6,test,1,0.0,2-Back,1,m,Fri Sep 20 2024 17:10:38 GMT-0500 (Central Daylight Time),519344.0,013_y_m_n_a.png,I,m,795,9,1,1813.1000000000931,517530.8999999999,8006,NNB,B,7
7,test,1,0.0,2-Back,1,m,Fri Sep 20 2024 17:10:38 GMT-0500 (Central Daylight Time),521043.5,110_o_f_n_a.png,I,m,666,10,1,1696.0,519347.5,8006,NNB,B,8
7,test,1,1.0,2-Back,0,z,Fri Sep 20 2024 17:10:38 GMT-0500 (Central Daylight Time),523009.5,013_y_m_n_a.png,I,m,935,11,1,1963.0,521046.5,8006,NNB,B,9
8,test,1,0.0,2-Back,1,m,Fri Sep 20 2024 17:10:38 GMT-0500 (Central Daylight Time),524725.5,029_m_f_n_a.png,I,m,689,12,1,1712.1999999997206,523013.3000000003,8006,NNB,B,10
9,test,1,0.0,2-Back,1,m,Fri Sep 20 2024 17:10:38 GMT-0500 (Central Daylight Time),526641.6000000001,029_m_f_n_a.png,I,m,885,13,1,1912.6000000000931,524729.0,8006,NNB,B,11
10,test,1,0.0,2-Back,1,m,Fri Sep 20 2024 17:10:38 GMT-0500 (Central Daylight Time),528391.3000000003,065_o_m_n_a.png,I,m,729,14,1,1745.8000000002794,526645.5,8006,NNB,B,12
11,test,1,0.0,2-Back,1,m,Fri Sep 20 2024 17:10:38 GMT-0500 (Central Daylight Time),530090.3999999999,110_o_f_n_a.png,I,m,667,15,1,1695.5999999996275,528394.8000000003,8006,NNB,B,13
11,test,1,1.0,2-Back,0,z,Fri Sep 20 2024 17:10:38 GMT-0500 (Central Daylight Time),532039.8999999999,065_o_m_n_a.png,I,m,928,16,1,1945.5999999996275,530094.3000000003,8006,NNB,B,14
12,test,1,0.0,2-Back,1,m,Fri Sep 20 2024 17:10:38 GMT-0500 (Central Daylight Time),533856.1000000001,097_m_f_n_a.png,I,m,709,17,1,1812.0,532044.1000000001,8006,NNB,B,15
13,test,1,0.0,2-Back,1,m,Fri Sep 20 2024 17:10:38 GMT-0500 (Central Daylight Time),535489.0,178_m_m_n_a.png,I,m,602,18,1,1629.0,533860.0,8006,NNB,B,16
0,test,2,0.0,2-Back,,,Fri Sep 20 2024 17:10:38 GMT-0500 (Central Daylight Time),535489.0,178_m_m_n_a.png,I,space,1209,1,1,1629.0,533860.0,8006,NNB,B,0
0,test,2,0.0,2-Back,,,Fri Sep 20 2024 17:10:38 GMT-0500 (Central Daylight Time),535489.0,173_y_f_n_a.png,I,space,1209,2,1,1629.0,533860.0,8006,NNB,B,0
1,test,2,1.0,2-Back,1,z,Fri Sep 20 2024 17:10:38 GMT-0500 (Central Daylight Time),543703.1000000001,178_m_m_n_a.png,I,z,844,3,1,1862.7000000001863,541840.3999999999,8006,NNB,B,1
2,test,2,0.0,2-Back,1,m,Fri Sep 20 2024 17:10:38 GMT-0500 (Central Daylight Time),545302.6000000001,097_m_f_n_a.png,I,m,571,4,1,1595.7999999998137,543706.8000000003,8006,NNB,B,2
3,test,2,0.0,2-Back,1,m,Fri Sep 20 2024 17:10:38 GMT-0500 (Central Daylight Time),547451.8999999999,173_y_f_n_a.png,I,m,1123,5,1,2145.399999999907,545306.5,8006,NNB,B,3
4,test,2,0.0,2-Back,1,m,Fri Sep 20 2024 17:10:38 GMT-0500 (Central Daylight Time),548967.7000000002,065_o_m_n_a.png,I,m,487,6,1,1512.1000000000931,547455.6000000001,8006,NNB,B,4
5,test,2,0.0,2-Back,1,m,Fri Sep 20 2024 17:10:38 GMT-0500 (Central Daylight Time),550800.6000000001,152_y_f_n_a.png,I,m,803,7,1,1829.5,548971.1000000001,8006,NNB,B,5
6,test,2,1.0,2-Back,1,z,Fri Sep 20 2024 17:10:38 GMT-0500 (Central Daylight Time),553400.7000000002,065_o_m_n_a.png,I,z,1577,8,1,2596.7000000001863,550804.0,8006,NNB,B,6
7,test,2,0.0,2-Back,1,m,Fri Sep 20 2024 17:10:38 GMT-0500 (Central Daylight Time),554932.8000000003,013_y_m_n_a.png,I,m,514,9,1,1528.7000000001863,553404.1000000001,8006,NNB,B,7
8,test,2,0.0,2-Back,1,m,Fri Sep 20 2024 17:10:38 GMT-0500 (Central Daylight Time),556658.6000000001,013_y_m_n_a.png,I,m,708,10,1,1721.7999999998137,554936.8000000003,8006,NNB,B,8
9,test,2,0.0,2-Back,1,m,Fri Sep 20 2024 17:10:38 GMT-0500 (Central Daylight Time),558749.3999999999,029_m_f_n_a.png,I,m,1081,11,1,2087.1999999997206,556662.2000000002,8006,NNB,B,9
10,test,2,0.0,2-Back,1,m,Fri Sep 20 2024 17:10:38 GMT-0500 (Central Daylight Time),560514.3999999999,173_y_f_n_a.png,I,m,734,12,1,1761.1999999997206,558753.2000000002,8006,NNB,B,10
11,test,2,1.0,2-Back,1,z,Fri Sep 20 2024 17:10:38 GMT-0500 (Central Daylight Time),562363.7000000002,029_m_f_n_a.png,I,z,824,13,1,1845.6000000000931,560518.1000000001,8006,NNB,B,11
12,test,2,0.0,2-Back,1,m,Fri Sep 20 2024 17:10:38 GMT-0500 (Central Daylight Time),563996.6000000001,176_o_m_n_a.png,I,m,615,14,1,1629.1000000000931,562367.5,8006,NNB,B,12
12,test,2,0.0,2-Back,0,m,Fri Sep 20 2024 17:10:38 GMT-0500 (Central Daylight Time),566396.1000000001,176_o_m_n_a.png,I,z,1365,15,1,2396.5,563999.6000000001,8006,NNB,B,13
13,test,2,0.0,2-Back,1,m,Fri Sep 20 2024 17:10:38 GMT-0500 (Central Daylight Time),568045.5,110_o_f_n_a.png,I,m,630,16,1,1645.6000000000931,566399.8999999999,8006,NNB,B,14
14,test,2,0.0,2-Back,1,m,Fri Sep 20 2024 17:10:38 GMT-0500 (Central Daylight Time),569728.3000000003,126_m_m_n_a.png,I,m,653,17,1,1678.8000000002794,568049.5,8006,NNB,B,15
15,test,2,1.0,2-Back,1,z,Fri Sep 20 2024 17:10:38 GMT-0500 (Central Daylight Time),571610.8999999999,110_o_f_n_a.png,I,z,858,18,1,1879.0,569731.8999999999,8006,NNB,B,16
0,test,3,1.0,2-Back,,,Fri Sep 20 2024 17:10:38 GMT-0500 (Central Daylight Time),571610.8999999999,153_y_m_n_a.png,I,space,2808,1,1,1879.0,569731.8999999999,8006,NNB,B,0
0,test,3,1.0,2-Back,,,Fri Sep 20 2024 17:10:38 GMT-0500 (Central Daylight Time),571610.8999999999,153_y_m_n_a.png,I,space,2808,2,1,1879.0,569731.8999999999,8006,NNB,B,0
1,test,3,0.0,2-Back,1,m,Fri Sep 20 2024 17:10:38 GMT-0500 (Central Daylight Time),581874.3000000003,110_o_f_n_a.png,I,m,1284,3,1,2311.9000000003725,579562.3999999999,8006,NNB,B,1
2,test,3,0.0,2-Back,1,m,Fri Sep 20 2024 17:10:38 GMT-0500 (Central Daylight Time),583740.5,178_m_m_n_a.png,I,m,841,4,1,1862.2999999998137,581878.2000000002,8006,NNB,B,2
3,test,3,1.0,2-Back,1,z,Fri Sep 20 2024 17:10:38 GMT-0500 (Central Daylight Time),585689.8000000003,110_o_f_n_a.png,I,z,926,5,1,1945.2000000001863,583744.6000000001,8006,NNB,B,3
4,test,3,0.0,2-Back,1,m,Fri Sep 20 2024 17:10:38 GMT-0500 (Central Daylight Time),587406.1000000001,013_y_m_n_a.png,I,m,689,6,1,1712.3999999999069,585693.7000000002,8006,NNB,B,4
4,test,3,0.0,2-Back,0,m,Fri Sep 20 2024 17:10:38 GMT-0500 (Central Daylight Time),589422.0,178_m_m_n_a.png,I,z,997,7,1,2012.0,587410.0,8006,NNB,B,5
4,test,3,1.0,2-Back,0,z,Fri Sep 20 2024 17:10:38 GMT-0500 (Central Daylight Time),590888.3000000003,013_y_m_n_a.png,I,m,445,8,1,1462.8000000002794,589425.5,8006,NNB,B,6
5,test,3,0.0,2-Back,1,m,Fri Sep 20 2024 17:10:38 GMT-0500 (Central Daylight Time),592654.3999999999,173_y_f_n_a.png,I,m,738,9,1,1762.1999999997206,590892.2000000002,8006,NNB,B,7
6,test,3,0.0,2-Back,1,m,Fri Sep 20 2024 17:10:38 GMT-0500 (Central Daylight Time),594587.0,126_m_m_n_a.png,I,m,908,10,1,1928.6999999997206,592658.3000000003,8006,NNB,B,8
7,test,3,1.0,2-Back,1,z,Fri Sep 20 2024 17:10:38 GMT-0500 (Central Daylight Time),596236.5,173_y_f_n_a.png,I,z,631,11,1,1646.2999999998137,594590.2000000002,8006,NNB,B,9
8,test,3,1.0,2-Back,1,z,Fri Sep 20 2024 17:10:38 GMT-0500 (Central Daylight Time),598102.3999999999,126_m_m_n_a.png,I,z,846,12,1,1862.2999999998137,596240.1000000001,8006,NNB,B,10
9,test,3,0.0,2-Back,1,m,Fri Sep 20 2024 17:10:38 GMT-0500 (Central Daylight Time),599785.3000000003,110_o_f_n_a.png,I,m,652,13,1,1679.5,598105.8000000003,8006,NNB,B,11
10,test,3,0.0,2-Back,1,m,Fri Sep 20 2024 17:10:38 GMT-0500 (Central Daylight Time),601984.7000000002,097_m_f_n_a.png,I,m,1177,14,1,2195.600000000093,599789.1000000001,8006,NNB,B,12
11,test,3,0.0,2-Back,1,m,Fri Sep 20 2024 17:10:38 GMT-0500 (Central Daylight Time),603748.6000000001,065_o_m_n_a.png,I,m,602,15,1,1760.2000000001863,601988.3999999999,8006,NNB,B,13
12,test,3,1.0,2-Back,1,z,Fri Sep 20 2024 17:10:38 GMT-0500 (Central Daylight Time),605483.8999999999,097_m_f_n_a.png,I,z,701,16,1,1731.8999999999069,603752.0,8006,NNB,B,14
13,test,3,0.0,2-Back,1,m,Fri Sep 20 2024 17:10:38 GMT-0500 (Central Daylight Time),607333.0,086_o_f_n_a.png,I,m,823,17,1,1846.0,605487.0,8006,NNB,B,15
14,test,3,0.0,2-Back,1,m,Fri Sep 20 2024 17:10:38 GMT-0500 (Central Daylight Time),609099.1000000001,086_o_f_n_a.png,I,m,733,18,1,1762.2999999998137,607336.8000000003,8006,NNB,B,16
0,test,4,0.0,2-Back,,,Fri Sep 20 2024 17:10:38 GMT-0500 (Central Daylight Time),609099.1000000001,176_o_m_n_a.png,I,space,1543,1,1,1762.2999999998137,607336.8000000003,8006,NNB,B,0
0,test,4,0.0,2-Back,,,Fri Sep 20 2024 17:10:38 GMT-0500 (Central Daylight Time),609099.1000000001,152_y_f_n_a.png,I,space,1543,2,1,1762.2999999998137,607336.8000000003,8006,NNB,B,0
1,test,4,1.0,2-Back,1,z,Fri Sep 20 2024 17:10:38 GMT-0500 (Central Daylight Time),617430.0,176_o_m_n_a.png,I,z,522,3,1,1562.5,615867.5,8006,NNB,B,1
2,test,4,1.0,2-Back,1,z,Fri Sep 20 2024 17:10:38 GMT-0500 (Central Daylight Time),619279.3999999999,152_y_f_n_a.png,I,z,819,4,1,1845.7999999998137,617433.6000000001,8006,NNB,B,2
3,test,4,0.0,2-Back,1,m,Fri Sep 20 2024 17:10:38 GMT-0500 (Central Daylight Time),620962.1000000001,110_o_f_n_a.png,I,m,659,5,1,1678.8999999999069,619283.2000000002,8006,NNB,B,3
4,test,4,0.0,2-Back,1,m,Fri Sep 20 2024 17:10:38 GMT-0500 (Central Daylight Time),623411.6000000001,110_o_f_n_a.png,I,m,1416,6,1,2446.5,620965.1000000001,8006,NNB,B,4
5,test,4,0.0,2-Back,1,m,Fri Sep 20 2024 17:10:38 GMT-0500 (Central Daylight Time),625360.7000000002,029_m_f_n_a.png,I,m,927,7,1,1945.6000000000931,623415.1000000001,8006,NNB,B,5
6,test,4,0.0,2-Back,1,m,Fri Sep 20 2024 17:10:38 GMT-0500 (Central Daylight Time),627026.8999999999,013_y_m_n_a.png,I,m,634,8,1,1662.5999999996275,625364.3000000003,8006,NNB,B,6
7,test,4,1.0,2-Back,1,z,Fri Sep 20 2024 17:10:38 GMT-0500 (Central Daylight Time),628826.5,029_m_f_n_a.png,I,z,776,9,1,1796.1000000000931,627030.3999999999,8006,NNB,B,7
8,test,4,0.0,2-Back,1,m,Fri Sep 20 2024 17:10:38 GMT-0500 (Central Daylight Time),630675.7000000002,126_m_m_n_a.png,I,m,824,10,1,1845.3999999999069,628830.3000000003,8006,NNB,B,8
8,test,4,0.0,2-Back,0,m,Fri Sep 20 2024 17:10:38 GMT-0500 (Central Daylight Time),632408.3999999999,013_y_m_n_a.png,I,z,703,11,1,1729.1999999997206,630679.2000000002,8006,NNB,B,9
9,test,4,0.0,2-Back,1,m,Fri Sep 20 2024 17:10:38 GMT-0500 (Central Daylight Time),634141.3000000003,086_o_f_n_a.png,I,m,707,12,1,1729.3000000002794,632412.0,8006,NNB,B,10
10,test,4,0.0,2-Back,1,m,Fri Sep 20 2024 17:10:38 GMT-0500 (Central Daylight Time),636240.8000000003,153_y_m_n_a.png,I,m,1069,13,1,2096.2000000001863,634144.6000000001,8006,NNB,B,11
10,test,4,1.0,2-Back,0,z,Fri Sep 20 2024 17:10:38 GMT-0500 (Central Daylight Time),638223.3999999999,086_o_f_n_a.png,I,m,962,14,1,1979.0,636244.3999999999,8006,NNB,B,12
11,test,4,1.0,2-Back,1,z,Fri Sep 20 2024 17:10:38 GMT-0500 (Central Daylight Time),640339.5,153_y_m_n_a.png,I,z,1084,15,1,2112.600000000093,638226.8999999999,8006,NNB,B,13
12,test,4,0.0,2-Back,1,m,Fri Sep 20 2024 17:10:38 GMT-0500 (Central Daylight Time),642005.5,178_m_m_n_a.png,I,m,639,16,1,1663.0,640342.5,8006,NNB,B,14
12,test,4,0.0,2-Back,0,m,Fri Sep 20 2024 17:10:38 GMT-0500 (Central Daylight Time),645037.8000000003,097_m_f_n_a.png,I,None,2016,17,1,3028.7000000001863,642009.1000000001,8006,NNB,B,15
13,test,4,1.0,2-Back,1,z,Fri Sep 20 2024 17:10:38 GMT-0500 (Central Daylight Time),647037.3000000003,178_m_m_n_a.png,I,z,973,18,1,1996.2000000001863,645041.1000000001,8006,NNB,B,16
0,test,5,1.0,2-Back,,,Fri Sep 20 2024 17:10:38 GMT-0500 (Central Daylight Time),647037.3000000003,153_y_m_n_a.png,I,space,821,1,1,1996.2000000001863,645041.1000000001,8006,NNB,B,0
0,test,5,1.0,2-Back,,,Fri Sep 20 2024 17:10:38 GMT-0500 (Central Daylight Time),647037.3000000003,097_m_f_n_a.png,I,space,821,2,1,1996.2000000001863,645041.1000000001,8006,NNB,B,0
1,test,5,1.0,2-Back,1,z,Fri Sep 20 2024 17:10:38 GMT-0500 (Central Daylight Time),655168.1000000001,153_y_m_n_a.png,I,z,1179,3,1,2195.5,652972.6000000001,8006,NNB,B,1
2,test,5,1.0,2-Back,1,z,Fri Sep 20 2024 17:10:38 GMT-0500 (Central Daylight Time),658183.8999999999,097_m_f_n_a.png,I,z,1986,4,1,3012.0999999996275,655171.8000000003,8006,NNB,B,2
3,test,5,0.0,2-Back,1,m,Fri Sep 20 2024 17:10:38 GMT-0500 (Central Daylight Time),659750.1000000001,086_o_f_n_a.png,I,m,538,5,1,1562.3999999999069,658187.7000000002,8006,NNB,B,3
4,test,5,0.0,2-Back,1,m,Fri Sep 20 2024 17:10:38 GMT-0500 (Central Daylight Time),661899.6000000001,153_y_m_n_a.png,I,m,1116,6,1,2145.7999999998137,659753.8000000003,8006,NNB,B,4
5,test,5,0.0,2-Back,1,m,Fri Sep 20 2024 17:10:38 GMT-0500 (Central Daylight Time),663899.0,173_y_f_n_a.png,I,m,975,7,1,1996.2999999998137,661902.7000000002,8006,NNB,B,5
6,test,5,0.0,2-Back,1,m,Fri Sep 20 2024 17:10:38 GMT-0500 (Central Daylight Time),666014.5,086_o_f_n_a.png,I,m,1097,8,1,2112.0,663902.5,8006,NNB,B,6
6,test,5,1.0,2-Back,0,z,Fri Sep 20 2024 17:10:38 GMT-0500 (Central Daylight Time),667897.6000000001,173_y_f_n_a.png,I,m,861,9,1,1879.3999999999069,666018.2000000002,8006,NNB,B,7
7,test,5,0.0,2-Back,1,m,Fri Sep 20 2024 17:10:38 GMT-0500 (Central Daylight Time),669546.8999999999,065_o_m_n_a.png,I,m,625,10,1,1645.7999999998137,667901.1000000001,8006,NNB,B,8
8,test,5,0.0,2-Back,1,m,Fri Sep 20 2024 17:10:38 GMT-0500 (Central Daylight Time),671196.8000000003,029_m_f_n_a.png,I,m,623,11,1,1646.8000000002794,669550.0,8006,NNB,B,9
9,test,5,0.0,2-Back,1,m,Fri Sep 20 2024 17:10:38 GMT-0500 (Central Daylight Time),672963.7000000002,126_m_m_n_a.png,I,m,742,12,1,1763.5,671200.2000000002,8006,NNB,B,10
10,test,5,0.0,2-Back,1,m,Fri Sep 20 2024 17:10:38 GMT-0500 (Central Daylight Time),674628.8000000003,065_o_m_n_a.png,I,m,634,13,1,1661.1000000000931,672967.7000000002,8006,NNB,B,11
11,test,5,1.0,2-Back,1,z,Fri Sep 20 2024 17:10:38 GMT-0500 (Central Daylight Time),676194.8000000003,126_m_m_n_a.png,I,z,543,14,1,1562.0,674632.8000000003,8006,NNB,B,12
12,test,5,0.0,2-Back,1,m,Fri Sep 20 2024 17:10:38 GMT-0500 (Central Daylight Time),677677.7000000002,152_y_f_n_a.png,I,m,465,15,1,1479.8999999999069,676197.8000000003,8006,NNB,B,13
13,test,5,0.0,2-Back,1,m,Fri Sep 20 2024 17:10:38 GMT-0500 (Central Daylight Time),679360.3000000003,176_o_m_n_a.png,I,m,661,16,1,1679.1000000000931,677681.2000000002,8006,NNB,B,14
14,test,5,0.0,2-Back,1,m,Fri Sep 20 2024 17:10:38 GMT-0500 (Central Daylight Time),680910.0,029_m_f_n_a.png,I,m,530,17,1,1546.6999999997206,679363.3000000003,8006,NNB,B,15
15,test,5,1.0,2-Back,1,z,Fri Sep 20 2024 17:10:38 GMT-0500 (Central Daylight Time),682526.2000000002,176_o_m_n_a.png,I,z,597,18,1,1612.3999999999069,680913.8000000003,8006,NNB,B,16
