block_c,block_dur,condition,countdown,datetime,endtime,list,multichar_response,project,response,response_time,session_number,start_end,starttime,subject_id,task,task_vers,trial
,,,,Wed Jan 08 2025 11:15:13 GMT-0600 (Central Standard Time),,,,I,space,439,1,,,8012,WL,A,
prac,,0,,Wed Jan 08 2025 11:15:13 GMT-0600 (Central Standard Time),,NA,b,I,b,11194,1,,,8012,WL,A,1.0
prac,,0,,Wed Jan 08 2025 11:15:13 GMT-0600 (Central Standard Time),,NA,bo,I,o,887,1,,,8012,WL,A,1.0
prac,,0,,Wed Jan 08 2025 11:15:13 GMT-0600 (Central Standard Time),,NA,boo,I,o,133,1,,,8012,WL,A,1.0
prac,,0,,Wed Jan 08 2025 11:15:13 GMT-0600 (Central Standard Time),,NA,boos,I,s,303,1,,,8012,WL,A,1.0
prac,,0,,Wed Jan 08 2025 11:15:13 GMT-0600 (Central Standard Time),,NA,boost,I,t,211,1,,,8012,WL,A,1.0
prac,,0,,Wed Jan 08 2025 11:15:13 GMT-0600 (Central Standard Time),,NA,boostenter,I,enter,3233,1,,,8012,WL,A,1.0
1,1.3659999370574951,learn,58634.000062942505,Wed Jan 08 2025 11:15:13 GMT-0600 (Central Standard Time),149736.70000004768,A,g,I,g,1349,1,1365.5999999046326,148371.10000014305,8012,WL,A,1.0
1,1.685999870300293,learn,58314.00012969971,Wed Jan 08 2025 11:15:13 GMT-0600 (Central Standard Time),150056.20000004768,A,go,I,o,311,1,1685.0999999046326,148371.10000014305,8012,WL,A,1.0
1,1.7660000324249268,learn,58233.99996757507,Wed Jan 08 2025 11:15:13 GMT-0600 (Central Standard Time),150136.40000009537,A,gol,I,l,55,1,1765.2999999523163,148371.10000014305,8012,WL,A,1.0
1,1.8829998970031738,learn,58117.000102996826,Wed Jan 08 2025 11:15:13 GMT-0600 (Central Standard Time),150253.40000009537,A,gold,I,d,103,1,1882.2999999523163,148371.10000014305,8012,WL,A,1.0
1,2.9489998817443848,learn,57051.000118255615,Wed Jan 08 2025 11:15:13 GMT-0600 (Central Standard Time),151319.70000004768,A,goldenter,I,enter,1052,1,2948.5999999046326,148371.10000014305,8012,WL,A,1.0
1,3.7820000648498535,learn,56217.99993515015,Wed Jan 08 2025 11:15:13 GMT-0600 (Central Standard Time),152152.90000009537,A,t,I,t,810,1,832.5999999046326,151320.30000019073,8012,WL,A,2.0
1,4.065000057220459,learn,55934.99994277954,Wed Jan 08 2025 11:15:13 GMT-0600 (Central Standard Time),152436.0,A,tr,I,r,266,1,1115.6999998092651,151320.30000019073,8012,WL,A,2.0
1,4.299000024795532,learn,55700.99997520447,Wed Jan 08 2025 11:15:13 GMT-0600 (Central Standard Time),152669.30000019073,A,tra,I,a,222,1,1349.0,151320.30000019073,8012,WL,A,2.0
1,5.8480000495910645,learn,54151.999950408936,Wed Jan 08 2025 11:15:13 GMT-0600 (Central Standard Time),154218.90000009537,A,trai,I,i,1525,1,2898.5999999046326,151320.30000019073,8012,WL,A,2.0
1,5.9649999141693115,learn,54035.00008583069,Wed Jan 08 2025 11:15:13 GMT-0600 (Central Standard Time),154335.40000009537,A,train,I,n,103,1,3015.0999999046326,151320.30000019073,8012,WL,A,2.0
1,6.797999858856201,learn,53202.0001411438,Wed Jan 08 2025 11:15:13 GMT-0600 (Central Standard Time),155168.5,A,trainenter,I,enter,818,1,3848.199999809265,151320.30000019073,8012,WL,A,2.0
1,9.879999876022339,learn,50120.00012397766,Wed Jan 08 2025 11:15:13 GMT-0600 (Central Standard Time),158250.90000009537,A,r,I,r,3059,1,3082.0999999046326,155168.80000019073,8012,WL,A,3.0
1,10.146999835968018,learn,49853.00016403198,Wed Jan 08 2025 11:15:13 GMT-0600 (Central Standard Time),158517.5,A,ru,I,u,255,1,3348.699999809265,155168.80000019073,8012,WL,A,3.0
1,10.329999923706055,learn,49670.000076293945,Wed Jan 08 2025 11:15:13 GMT-0600 (Central Standard Time),158700.5,A,rug,I,g,173,1,3531.699999809265,155168.80000019073,8012,WL,A,3.0
1,13.911999940872192,learn,46088.00005912781,Wed Jan 08 2025 11:15:13 GMT-0600 (Central Standard Time),162283.0,A,rugenter,I,enter,3566,1,7114.199999809265,155168.80000019073,8012,WL,A,3.0
1,16.84500002861023,learn,43154.99997138977,Wed Jan 08 2025 11:15:13 GMT-0600 (Central Standard Time),165215.40000009537,A,a,I,a,2911,1,2931.9000000953674,162283.5,8012,WL,A,4.0
1,17.044999837875366,learn,42955.000162124634,Wed Jan 08 2025 11:15:13 GMT-0600 (Central Standard Time),165415.30000019073,A,ap,I,p,187,1,3131.800000190735,162283.5,8012,WL,A,4.0
1,17.210999965667725,learn,42789.000034332275,Wed Jan 08 2025 11:15:13 GMT-0600 (Central Standard Time),165582.0,A,app,I,p,155,1,3298.5,162283.5,8012,WL,A,4.0
1,17.543999910354614,learn,42456.000089645386,Wed Jan 08 2025 11:15:13 GMT-0600 (Central Standard Time),165915.0,A,appl,I,l,325,1,3631.5,162283.5,8012,WL,A,4.0
1,17.794999837875366,learn,42205.000162124634,Wed Jan 08 2025 11:15:13 GMT-0600 (Central Standard Time),166165.30000019073,A,apple,I,e,239,1,3881.800000190735,162283.5,8012,WL,A,4.0
1,18.194000005722046,learn,41805.999994277954,Wed Jan 08 2025 11:15:13 GMT-0600 (Central Standard Time),166565.20000004768,A,appleenter,I,enter,388,1,4281.700000047684,162283.5,8012,WL,A,4.0
1,18.543999910354614,learn,41456.000089645386,Wed Jan 08 2025 11:15:13 GMT-0600 (Central Standard Time),166914.80000019073,A,s,I,s,326,1,349.30000019073486,166565.5,8012,WL,A,5.0
1,18.66100001335144,learn,41338.99998664856,Wed Jan 08 2025 11:15:13 GMT-0600 (Central Standard Time),167031.40000009537,A,sa,I,a,96,1,465.90000009536743,166565.5,8012,WL,A,5.0
1,19.72699999809265,learn,40273.00000190735,Wed Jan 08 2025 11:15:13 GMT-0600 (Central Standard Time),168097.60000014305,A,sal,I,l,1051,1,1532.1000001430511,166565.5,8012,WL,A,5.0
1,19.89400005340576,learn,40105.99994659424,Wed Jan 08 2025 11:15:13 GMT-0600 (Central Standard Time),168264.40000009537,A,salt,I,t,152,1,1698.9000000953674,166565.5,8012,WL,A,5.0
1,21.626999855041504,learn,38373.000144958496,Wed Jan 08 2025 11:15:13 GMT-0600 (Central Standard Time),169997.30000019073,A,saltenter,I,enter,1714,1,3431.800000190735,166565.5,8012,WL,A,5.0
1,23.05900001525879,learn,36940.99998474121,Wed Jan 08 2025 11:15:13 GMT-0600 (Central Standard Time),171430.10000014305,A,f,I,f,1421,1,1432.2000000476837,169997.90000009537,8012,WL,A,6.0
1,23.24399995803833,learn,36756.00004196167,Wed Jan 08 2025 11:15:13 GMT-0600 (Central Standard Time),171614.5,A,fi,I,i,165,1,1616.5999999046326,169997.90000009537,8012,WL,A,6.0
1,23.325999975204468,learn,36674.00002479553,Wed Jan 08 2025 11:15:13 GMT-0600 (Central Standard Time),171696.60000014305,A,fin,I,n,68,1,1698.7000000476837,169997.90000009537,8012,WL,A,6.0
1,23.493000030517578,learn,36506.99996948242,Wed Jan 08 2025 11:15:13 GMT-0600 (Central Standard Time),171863.30000019073,A,fing,I,g,146,1,1865.4000000953674,169997.90000009537,8012,WL,A,6.0
1,23.692999839782715,learn,36307.000160217285,Wed Jan 08 2025 11:15:13 GMT-0600 (Central Standard Time),172063.20000004768,A,finge,I,e,179,1,2065.2999999523163,169997.90000009537,8012,WL,A,6.0
1,23.825999975204468,learn,36174.00002479553,Wed Jan 08 2025 11:15:13 GMT-0600 (Central Standard Time),172196.40000009537,A,finger,I,r,115,1,2198.5,169997.90000009537,8012,WL,A,6.0
1,26.207000017166138,learn,33792.99998283386,Wed Jan 08 2025 11:15:13 GMT-0600 (Central Standard Time),174579.20000004768,A,fingerenter,I,enter,2366,1,4581.299999952316,169997.90000009537,8012,WL,A,6.0
1,27.473999977111816,learn,32526.000022888184,Wed Jan 08 2025 11:15:13 GMT-0600 (Central Standard Time),175845.30000019073,A,n,I,n,1247,1,1265.7000000476837,174579.60000014305,8012,WL,A,7.0
1,27.622999906539917,learn,32377.000093460083,Wed Jan 08 2025 11:15:13 GMT-0600 (Central Standard Time),175995.10000014305,A,ne,I,e,140,1,1415.5,174579.60000014305,8012,WL,A,7.0
1,27.723000049591064,learn,32276.999950408936,Wed Jan 08 2025 11:15:13 GMT-0600 (Central Standard Time),176095.20000004768,A,nea,I,a,87,1,1515.5999999046326,174579.60000014305,8012,WL,A,7.0
1,27.83999991416931,learn,32160.00008583069,Wed Jan 08 2025 11:15:13 GMT-0600 (Central Standard Time),176211.80000019073,A,nead,I,d,107,1,1632.2000000476837,174579.60000014305,8012,WL,A,7.0
1,28.006999969482422,learn,31993.000030517578,Wed Jan 08 2025 11:15:13 GMT-0600 (Central Standard Time),176378.70000004768,A,neado,I,o,151,1,1799.0999999046326,174579.60000014305,8012,WL,A,7.0
1,28.1729998588562,learn,31827.0001411438,Wed Jan 08 2025 11:15:13 GMT-0600 (Central Standard Time),176545.30000019073,A,neadow,I,w,144,1,1965.7000000476837,174579.60000014305,8012,WL,A,7.0
1,28.77300000190735,learn,31226.99999809265,Wed Jan 08 2025 11:15:13 GMT-0600 (Central Standard Time),177145.0,A,neado,I,backspace,577,1,2565.399999856949,174579.60000014305,8012,WL,A,7.0
1,29.055999994277954,learn,30944.000005722046,Wed Jan 08 2025 11:15:13 GMT-0600 (Central Standard Time),177428.30000019073,A,nead,I,backspace,266,1,2848.7000000476837,174579.60000014305,8012,WL,A,7.0
1,29.223000049591064,learn,30776.999950408936,Wed Jan 08 2025 11:15:13 GMT-0600 (Central Standard Time),177594.90000009537,A,nea,I,backspace,151,1,3015.2999999523163,174579.60000014305,8012,WL,A,7.0
1,29.35599994659424,learn,30644.00005340576,Wed Jan 08 2025 11:15:13 GMT-0600 (Central Standard Time),177728.20000004768,A,ne,I,backspace,120,1,3148.5999999046326,174579.60000014305,8012,WL,A,7.0
1,29.50600004196167,learn,30493.99995803833,Wed Jan 08 2025 11:15:13 GMT-0600 (Central Standard Time),177878.20000004768,A,n,I,backspace,139,1,3298.5999999046326,174579.60000014305,8012,WL,A,7.0
1,29.723000049591064,learn,30276.999950408936,Wed Jan 08 2025 11:15:13 GMT-0600 (Central Standard Time),178094.5,A,,I,backspace,197,1,3514.899999856949,174579.60000014305,8012,WL,A,7.0
1,30.372999906539917,learn,29627.000093460083,Wed Jan 08 2025 11:15:13 GMT-0600 (Central Standard Time),178744.30000019073,A,n,I,n,628,1,4164.700000047684,174579.60000014305,8012,WL,A,7.0
1,30.888999938964844,learn,29111.000061035156,Wed Jan 08 2025 11:15:13 GMT-0600 (Central Standard Time),179260.90000009537,A,,I,backspace,506,1,4681.299999952316,174579.60000014305,8012,WL,A,7.0
1,31.155999898910522,learn,28844.000101089478,Wed Jan 08 2025 11:15:13 GMT-0600 (Central Standard Time),179527.5,A,m,I,m,246,1,4947.899999856949,174579.60000014305,8012,WL,A,7.0
1,31.50600004196167,learn,28493.99995803833,Wed Jan 08 2025 11:15:13 GMT-0600 (Central Standard Time),179877.40000009537,A,me,I,e,339,1,5297.799999952316,174579.60000014305,8012,WL,A,7.0
1,31.621999979019165,learn,28378.000020980835,Wed Jan 08 2025 11:15:13 GMT-0600 (Central Standard Time),179994.0,A,mea,I,a,102,1,5414.399999856949,174579.60000014305,8012,WL,A,7.0
1,31.85599994659424,learn,28144.00005340576,Wed Jan 08 2025 11:15:13 GMT-0600 (Central Standard Time),180227.40000009537,A,mead,I,d,217,1,5647.799999952316,174579.60000014305,8012,WL,A,7.0
1,32.00499987602234,learn,27995.00012397766,Wed Jan 08 2025 11:15:13 GMT-0600 (Central Standard Time),180377.30000019073,A,meado,I,o,136,1,5797.700000047684,174579.60000014305,8012,WL,A,7.0
1,32.138999938964844,learn,27861.000061035156,Wed Jan 08 2025 11:15:13 GMT-0600 (Central Standard Time),180510.80000019073,A,meadow,I,w,113,1,5931.200000047684,174579.60000014305,8012,WL,A,7.0
1,32.83899998664856,learn,27161.00001335144,Wed Jan 08 2025 11:15:13 GMT-0600 (Central Standard Time),181210.40000009537,A,meadowenter,I,enter,676,1,6630.799999952316,174579.60000014305,8012,WL,A,7.0
1,37.853999853134155,learn,22146.000146865845,Wed Jan 08 2025 11:15:13 GMT-0600 (Central Standard Time),186225.5,A,b,I,b,4993,1,5014.699999809265,181210.80000019073,8012,WL,A,8.0
1,38.187000036239624,learn,21812.999963760376,Wed Jan 08 2025 11:15:13 GMT-0600 (Central Standard Time),186558.5,A,bo,I,o,321,1,5347.699999809265,181210.80000019073,8012,WL,A,8.0
1,38.36999988555908,learn,21630.000114440918,Wed Jan 08 2025 11:15:13 GMT-0600 (Central Standard Time),186741.90000009537,A,boo,I,o,172,1,5531.099999904633,181210.80000019073,8012,WL,A,8.0
1,38.45300006866455,learn,21546.99993133545,Wed Jan 08 2025 11:15:13 GMT-0600 (Central Standard Time),186825.30000019073,A,book,I,k,69,1,5614.5,181210.80000019073,8012,WL,A,8.0
1,39.45300006866455,learn,20546.99993133545,Wed Jan 08 2025 11:15:13 GMT-0600 (Central Standard Time),187825.0,A,bookenter,I,enter,977,1,6614.199999809265,181210.80000019073,8012,WL,A,8.0
1,40.30299997329712,learn,19697.00002670288,Wed Jan 08 2025 11:15:13 GMT-0600 (Central Standard Time),188674.60000014305,A,f,I,f,834,1,849.2000000476837,187825.40000009537,8012,WL,A,9.0
1,40.47000002861023,learn,19529.99997138977,Wed Jan 08 2025 11:15:13 GMT-0600 (Central Standard Time),188841.60000014305,A,fl,I,l,144,1,1016.2000000476837,187825.40000009537,8012,WL,A,9.0
1,40.63599991798401,learn,19364.00008201599,Wed Jan 08 2025 11:15:13 GMT-0600 (Central Standard Time),189007.90000009537,A,flo,I,o,154,1,1182.5,187825.40000009537,8012,WL,A,9.0
1,40.753000020980835,learn,19246.999979019165,Wed Jan 08 2025 11:15:13 GMT-0600 (Central Standard Time),189124.40000009537,A,flow,I,w,107,1,1299.0,187825.40000009537,8012,WL,A,9.0
1,40.835999965667725,learn,19164.000034332275,Wed Jan 08 2025 11:15:13 GMT-0600 (Central Standard Time),189208.20000004768,A,flowe,I,e,70,1,1382.7999999523163,187825.40000009537,8012,WL,A,9.0
1,40.9689998626709,learn,19031.0001373291,Wed Jan 08 2025 11:15:13 GMT-0600 (Central Standard Time),189341.20000004768,A,flower,I,r,115,1,1515.7999999523163,187825.40000009537,8012,WL,A,9.0
1,42.069000005722046,learn,17930.999994277954,Wed Jan 08 2025 11:15:13 GMT-0600 (Central Standard Time),190440.80000019073,A,flowerenter,I,enter,1078,1,2615.4000000953674,187825.40000009537,8012,WL,A,9.0
1,46.50099992752075,learn,13499.000072479248,Wed Jan 08 2025 11:15:13 GMT-0600 (Central Standard Time),194872.90000009537,A,c,I,c,4411,1,4431.799999952316,190441.10000014305,8012,WL,A,10.0
1,46.61699986457825,learn,13383.000135421753,Wed Jan 08 2025 11:15:13 GMT-0600 (Central Standard Time),194989.30000019073,A,ch,I,h,106,1,4548.200000047684,190441.10000014305,8012,WL,A,10.0
1,46.76799988746643,learn,13232.00011253357,Wed Jan 08 2025 11:15:13 GMT-0600 (Central Standard Time),195139.40000009537,A,chi,I,i,133,1,4698.299999952316,190441.10000014305,8012,WL,A,10.0
1,46.93400001525879,learn,13065.999984741211,Wed Jan 08 2025 11:15:13 GMT-0600 (Central Standard Time),195306.10000014305,A,chim,I,m,152,1,4865.0,190441.10000014305,8012,WL,A,10.0
1,48.28399991989136,learn,11716.000080108643,Wed Jan 08 2025 11:15:13 GMT-0600 (Central Standard Time),196655.5,A,chimn,I,n,1329,1,6214.399999856949,190441.10000014305,8012,WL,A,10.0
1,48.5,learn,11500.0,Wed Jan 08 2025 11:15:13 GMT-0600 (Central Standard Time),196872.30000019073,A,chimne,I,e,195,1,6431.200000047684,190441.10000014305,8012,WL,A,10.0
1,48.64800000190735,learn,11351.999998092651,Wed Jan 08 2025 11:15:13 GMT-0600 (Central Standard Time),197019.90000009537,A,chimney,I,y,140,1,6578.799999952316,190441.10000014305,8012,WL,A,10.0
1,49.532999992370605,learn,10467.000007629395,Wed Jan 08 2025 11:15:13 GMT-0600 (Central Standard Time),197904.90000009537,A,chimneyenter,I,enter,863,1,7463.799999952316,190441.10000014305,8012,WL,A,10.0
1,50.549999952316284,learn,9450.000047683716,Wed Jan 08 2025 11:15:13 GMT-0600 (Central Standard Time),198921.30000019073,A,l,I,l,994,1,1015.9000000953674,197905.40000009537,8012,WL,A,11.0
1,50.76600003242493,learn,9233.999967575073,Wed Jan 08 2025 11:15:13 GMT-0600 (Central Standard Time),199138.10000014305,A,lo,I,o,194,1,1232.7000000476837,197905.40000009537,8012,WL,A,11.0
1,50.93299984931946,learn,9067.000150680542,Wed Jan 08 2025 11:15:13 GMT-0600 (Central Standard Time),199304.60000014305,A,log,I,g,145,1,1399.2000000476837,197905.40000009537,8012,WL,A,11.0
1,51.348999977111816,learn,8651.000022888184,Wed Jan 08 2025 11:15:13 GMT-0600 (Central Standard Time),199721.30000019073,A,logenter,I,enter,402,1,1815.9000000953674,197905.40000009537,8012,WL,A,11.0
1,52.23300004005432,learn,7766.999959945679,Wed Jan 08 2025 11:15:13 GMT-0600 (Central Standard Time),200604.40000009537,A,b,I,b,867,1,882.7999999523163,199721.60000014305,8012,WL,A,12.0
1,52.448999881744385,learn,7551.000118255615,Wed Jan 08 2025 11:15:13 GMT-0600 (Central Standard Time),200821.0,A,bu,I,u,198,1,1099.3999998569489,199721.60000014305,8012,WL,A,12.0
1,52.6489999294281,learn,7351.000070571899,Wed Jan 08 2025 11:15:13 GMT-0600 (Central Standard Time),201020.60000014305,A,but,I,t,190,1,1299.0,199721.60000014305,8012,WL,A,12.0
1,52.79900002479553,learn,7200.999975204468,Wed Jan 08 2025 11:15:13 GMT-0600 (Central Standard Time),201170.70000004768,A,butt,I,t,134,1,1449.0999999046326,199721.60000014305,8012,WL,A,12.0
1,52.99899983406067,learn,7001.000165939331,Wed Jan 08 2025 11:15:13 GMT-0600 (Central Standard Time),201370.80000019073,A,butto,I,o,184,1,1649.2000000476837,199721.60000014305,8012,WL,A,12.0
1,53.26600003242493,learn,6733.999967575073,Wed Jan 08 2025 11:15:13 GMT-0600 (Central Standard Time),201637.5,A,button,I,n,248,1,1915.8999998569489,199721.60000014305,8012,WL,A,12.0
1,54.13199996948242,learn,5868.000030517578,Wed Jan 08 2025 11:15:13 GMT-0600 (Central Standard Time),202503.80000019073,A,buttonenter,I,enter,853,1,2782.2000000476837,199721.60000014305,8012,WL,A,12.0
1,60.01300001144409,learn,-13.000011444091797,Wed Jan 08 2025 11:15:13 GMT-0600 (Central Standard Time),208385.20000004768,A,None,I,None,5874,1,5881.0,202504.20000004768,8012,WL,A,13.0
2,0.8169999122619629,learn,59183.00008773804,Wed Jan 08 2025 11:15:13 GMT-0600 (Central Standard Time),279496.2000000477,A,g,I,g,804,1,816.2000000476837,278680.0,8012,WL,A,1.0
2,1.0,learn,59000.0,Wed Jan 08 2025 11:15:13 GMT-0600 (Central Standard Time),279679.40000009537,A,go,I,o,170,1,999.4000000953674,278680.0,8012,WL,A,1.0
2,1.183000087738037,learn,58816.99991226196,Wed Jan 08 2025 11:15:13 GMT-0600 (Central Standard Time),279862.7000000477,A,gol,I,l,171,1,1182.7000000476837,278680.0,8012,WL,A,1.0
2,1.2999999523162842,learn,58700.000047683716,Wed Jan 08 2025 11:15:13 GMT-0600 (Central Standard Time),279979.10000014305,A,gold,I,d,108,1,1299.1000001430511,278680.0,8012,WL,A,1.0
2,1.683000087738037,learn,58316.99991226196,Wed Jan 08 2025 11:15:13 GMT-0600 (Central Standard Time),280362.5,A,goldenter,I,enter,368,1,1682.5,278680.0,8012,WL,A,1.0
2,2.1660001277923584,learn,57833.99987220764,Wed Jan 08 2025 11:15:13 GMT-0600 (Central Standard Time),280845.80000019073,A,r,I,r,464,1,483.0,280362.80000019073,8012,WL,A,2.0
2,2.3329999446868896,learn,57667.00005531311,Wed Jan 08 2025 11:15:13 GMT-0600 (Central Standard Time),281012.40000009537,A,ra,I,a,157,1,649.5999999046326,280362.80000019073,8012,WL,A,2.0
2,2.5160000324249268,learn,57483.99996757507,Wed Jan 08 2025 11:15:13 GMT-0600 (Central Standard Time),281195.90000009537,A,rat,I,t,167,1,833.0999999046326,280362.80000019073,8012,WL,A,2.0
2,2.6489999294281006,learn,57351.0000705719,Wed Jan 08 2025 11:15:13 GMT-0600 (Central Standard Time),281329.10000014305,A,ratt,I,t,117,1,966.2999999523163,280362.80000019073,8012,WL,A,2.0
2,2.933000087738037,learn,57066.99991226196,Wed Jan 08 2025 11:15:13 GMT-0600 (Central Standard Time),281612.30000019073,A,rattl,I,l,265,1,1249.5,280362.80000019073,8012,WL,A,2.0
2,3.115999937057495,learn,56884.000062942505,Wed Jan 08 2025 11:15:13 GMT-0600 (Central Standard Time),281795.30000019073,A,rattle,I,e,166,1,1432.5,280362.80000019073,8012,WL,A,2.0
2,3.5989999771118164,learn,56401.00002288818,Wed Jan 08 2025 11:15:13 GMT-0600 (Central Standard Time),282278.60000014305,A,rattleenter,I,enter,463,1,1915.7999999523163,280362.80000019073,8012,WL,A,2.0
2,4.199000120162964,learn,55800.999879837036,Wed Jan 08 2025 11:15:13 GMT-0600 (Central Standard Time),282878.5,A,h,I,h,588,1,599.3999998569489,282279.10000014305,8012,WL,A,3.0
2,4.398999929428101,learn,55601.0000705719,Wed Jan 08 2025 11:15:13 GMT-0600 (Central Standard Time),283078.40000009537,A,ha,I,a,180,1,799.2999999523163,282279.10000014305,8012,WL,A,3.0
2,4.515000104904175,learn,55484.999895095825,Wed Jan 08 2025 11:15:13 GMT-0600 (Central Standard Time),283194.90000009537,A,har,I,r,109,1,915.7999999523163,282279.10000014305,8012,WL,A,3.0
2,4.848999977111816,learn,55151.00002288818,Wed Jan 08 2025 11:15:13 GMT-0600 (Central Standard Time),283528.2000000477,A,harp,I,p,319,1,1249.0999999046326,282279.10000014305,8012,WL,A,3.0
2,5.9649999141693115,learn,54035.00008583069,Wed Jan 08 2025 11:15:13 GMT-0600 (Central Standard Time),284644.5,A,harpenter,I,enter,1099,1,2365.399999856949,282279.10000014305,8012,WL,A,3.0
2,6.831000089645386,learn,53168.999910354614,Wed Jan 08 2025 11:15:13 GMT-0600 (Central Standard Time),285511.0,A,k,I,k,847,1,866.1999998092651,284644.80000019073,8012,WL,A,4.0
2,7.015000104904175,learn,52984.999895095825,Wed Jan 08 2025 11:15:13 GMT-0600 (Central Standard Time),285694.2000000477,A,ke,I,e,163,1,1049.3999998569489,284644.80000019073,8012,WL,A,4.0
2,7.2149999141693115,learn,52785.00008583069,Wed Jan 08 2025 11:15:13 GMT-0600 (Central Standard Time),285894.30000019073,A,key,I,y,189,1,1249.5,284644.80000019073,8012,WL,A,4.0
2,8.031000137329102,learn,51968.9998626709,Wed Jan 08 2025 11:15:13 GMT-0600 (Central Standard Time),286710.5,A,keyenter,I,enter,797,1,2065.699999809265,284644.80000019073,8012,WL,A,4.0
2,8.814000129699707,learn,51185.99987030029,Wed Jan 08 2025 11:15:13 GMT-0600 (Central Standard Time),287493.90000009537,A,t,I,t,764,1,783.0999999046326,286710.80000019073,8012,WL,A,5.0
2,9.013999938964844,learn,50986.000061035156,Wed Jan 08 2025 11:15:13 GMT-0600 (Central Standard Time),287693.7000000477,A,tr,I,r,189,1,982.8999998569489,286710.80000019073,8012,WL,A,5.0
2,9.147000074386597,learn,50852.9999256134,Wed Jan 08 2025 11:15:13 GMT-0600 (Central Standard Time),287827.10000014305,A,tra,I,a,110,1,1116.2999999523163,286710.80000019073,8012,WL,A,5.0
2,9.331000089645386,learn,50668.999910354614,Wed Jan 08 2025 11:15:13 GMT-0600 (Central Standard Time),288010.40000009537,A,trai,I,i,159,1,1299.5999999046326,286710.80000019073,8012,WL,A,5.0
2,9.480000019073486,learn,50519.999980926514,Wed Jan 08 2025 11:15:13 GMT-0600 (Central Standard Time),288160.10000014305,A,train,I,n,137,1,1449.2999999523163,286710.80000019073,8012,WL,A,5.0
2,10.062999963760376,learn,49937.000036239624,Wed Jan 08 2025 11:15:13 GMT-0600 (Central Standard Time),288743.0,A,trainenter,I,enter,572,1,2032.1999998092651,286710.80000019073,8012,WL,A,5.0
2,10.36299991607666,learn,49637.00008392334,Wed Jan 08 2025 11:15:13 GMT-0600 (Central Standard Time),289043.0,A,r,I,r,293,1,299.7999999523163,288743.2000000477,8012,WL,A,6.0
2,10.579999923706055,learn,49420.000076293945,Wed Jan 08 2025 11:15:13 GMT-0600 (Central Standard Time),289259.60000014305,A,ru,I,u,208,1,516.4000000953674,288743.2000000477,8012,WL,A,6.0
2,11.246999979019165,learn,48753.000020980835,Wed Jan 08 2025 11:15:13 GMT-0600 (Central Standard Time),289926.30000019073,A,rug,I,g,655,1,1183.1000001430511,288743.2000000477,8012,WL,A,6.0
2,11.52999997138977,learn,48470.00002861023,Wed Jan 08 2025 11:15:13 GMT-0600 (Central Standard Time),290209.5,A,rugenter,I,enter,268,1,1466.2999999523163,288743.2000000477,8012,WL,A,6.0
2,11.812999963760376,learn,48187.000036239624,Wed Jan 08 2025 11:15:13 GMT-0600 (Central Standard Time),290492.5,A,f,I,f,266,1,282.7999999523163,290209.7000000477,8012,WL,A,7.0
2,11.930000066757202,learn,48069.9999332428,Wed Jan 08 2025 11:15:13 GMT-0600 (Central Standard Time),290609.40000009537,A,fl,I,l,102,1,399.7000000476837,290209.7000000477,8012,WL,A,7.0
2,12.11299991607666,learn,47887.00008392334,Wed Jan 08 2025 11:15:13 GMT-0600 (Central Standard Time),290792.5,A,flo,I,o,170,1,582.7999999523163,290209.7000000477,8012,WL,A,7.0
2,12.230000019073486,learn,47769.999980926514,Wed Jan 08 2025 11:15:13 GMT-0600 (Central Standard Time),290909.2000000477,A,flow,I,w,107,1,699.5,290209.7000000477,8012,WL,A,7.0
2,12.329999923706055,learn,47670.000076293945,Wed Jan 08 2025 11:15:13 GMT-0600 (Central Standard Time),291009.2000000477,A,flowe,I,e,85,1,799.5,290209.7000000477,8012,WL,A,7.0
2,12.483999967575073,learn,47516.00003242493,Wed Jan 08 2025 11:15:13 GMT-0600 (Central Standard Time),291163.90000009537,A,flower,I,r,106,1,954.2000000476837,290209.7000000477,8012,WL,A,7.0
2,13.36299991607666,learn,46637.00008392334,Wed Jan 08 2025 11:15:13 GMT-0600 (Central Standard Time),292042.40000009537,A,flowerenter,I,enter,864,1,1832.7000000476837,290209.7000000477,8012,WL,A,7.0
2,16.01099991798401,learn,43989.00008201599,Wed Jan 08 2025 11:15:13 GMT-0600 (Central Standard Time),294691.40000009537,A,a,I,a,2633,1,2648.7999999523163,292042.60000014305,8012,WL,A,8.0
2,16.194999933242798,learn,43805.0000667572,Wed Jan 08 2025 11:15:13 GMT-0600 (Central Standard Time),294874.80000019073,A,ap,I,p,176,1,2832.2000000476837,292042.60000014305,8012,WL,A,8.0
2,16.378000020980835,learn,43621.999979019165,Wed Jan 08 2025 11:15:13 GMT-0600 (Central Standard Time),295058.10000014305,A,app,I,p,160,1,3015.5,292042.60000014305,8012,WL,A,8.0
2,16.477999925613403,learn,43522.0000743866,Wed Jan 08 2025 11:15:13 GMT-0600 (Central Standard Time),295158.10000014305,A,appl,I,l,89,1,3115.5,292042.60000014305,8012,WL,A,8.0
2,16.894999980926514,learn,43105.000019073486,Wed Jan 08 2025 11:15:13 GMT-0600 (Central Standard Time),295574.7000000477,A,apple,I,e,397,1,3532.0999999046326,292042.60000014305,8012,WL,A,8.0
2,17.47699999809265,learn,42523.00000190735,Wed Jan 08 2025 11:15:13 GMT-0600 (Central Standard Time),296157.60000014305,A,appleenter,I,enter,572,1,4115.0,292042.60000014305,8012,WL,A,8.0
2,22.325999975204468,learn,37674.00002479553,Wed Jan 08 2025 11:15:13 GMT-0600 (Central Standard Time),301006.2000000477,A,f,I,f,4838,1,4848.200000047684,296158.0,8012,WL,A,9.0
2,22.443000078201294,learn,37556.999921798706,Wed Jan 08 2025 11:15:13 GMT-0600 (Central Standard Time),301122.80000019073,A,fi,I,i,92,1,4964.800000190735,296158.0,8012,WL,A,9.0
2,22.526000022888184,learn,37473.99997711182,Wed Jan 08 2025 11:15:13 GMT-0600 (Central Standard Time),301206.2000000477,A,fin,I,n,64,1,5048.200000047684,296158.0,8012,WL,A,9.0
2,22.676000118255615,learn,37323.999881744385,Wed Jan 08 2025 11:15:13 GMT-0600 (Central Standard Time),301356.10000014305,A,fing,I,g,141,1,5198.100000143051,296158.0,8012,WL,A,9.0
2,22.842000007629395,learn,37157.999992370605,Wed Jan 08 2025 11:15:13 GMT-0600 (Central Standard Time),301522.60000014305,A,finge,I,e,151,1,5364.600000143051,296158.0,8012,WL,A,9.0
2,22.926000118255615,learn,37073.999881744385,Wed Jan 08 2025 11:15:13 GMT-0600 (Central Standard Time),301606.2000000477,A,finger,I,r,72,1,5448.200000047684,296158.0,8012,WL,A,9.0
2,24.475000143051147,learn,35524.99985694885,Wed Jan 08 2025 11:15:13 GMT-0600 (Central Standard Time),303155.2000000477,A,fingerenter,I,enter,1541,1,6997.200000047684,296158.0,8012,WL,A,9.0
2,24.825000047683716,learn,35174.999952316284,Wed Jan 08 2025 11:15:13 GMT-0600 (Central Standard Time),303505.30000019073,A,s,I,s,328,1,349.80000019073486,303155.5,8012,WL,A,10.0
2,24.941999912261963,learn,35058.00008773804,Wed Jan 08 2025 11:15:13 GMT-0600 (Central Standard Time),303622.0,A,sa,I,a,98,1,466.5,303155.5,8012,WL,A,10.0
2,25.075000047683716,learn,34924.999952316284,Wed Jan 08 2025 11:15:13 GMT-0600 (Central Standard Time),303755.2000000477,A,sal,I,l,125,1,599.7000000476837,303155.5,8012,WL,A,10.0
2,25.258000135421753,learn,34741.99986457825,Wed Jan 08 2025 11:15:13 GMT-0600 (Central Standard Time),303938.5,A,salt,I,t,168,1,783.0,303155.5,8012,WL,A,10.0
2,26.808000087738037,learn,33191.99991226196,Wed Jan 08 2025 11:15:13 GMT-0600 (Central Standard Time),305488.30000019073,A,saltenter,I,enter,1528,1,2332.800000190735,303155.5,8012,WL,A,10.0
2,27.758000135421753,learn,32241.999864578247,Wed Jan 08 2025 11:15:13 GMT-0600 (Central Standard Time),306437.7000000477,A,m,I,m,931,1,949.0999999046326,305488.60000014305,8012,WL,A,11.0
2,27.907999992370605,learn,32092.000007629395,Wed Jan 08 2025 11:15:13 GMT-0600 (Central Standard Time),306587.7000000477,A,me,I,e,133,1,1099.0999999046326,305488.60000014305,8012,WL,A,11.0
2,27.990999937057495,learn,32009.000062942505,Wed Jan 08 2025 11:15:13 GMT-0600 (Central Standard Time),306671.10000014305,A,mea,I,a,71,1,1182.5,305488.60000014305,8012,WL,A,11.0
2,28.157000064849854,learn,31842.999935150146,Wed Jan 08 2025 11:15:13 GMT-0600 (Central Standard Time),306837.5,A,mead,I,d,155,1,1348.8999998569489,305488.60000014305,8012,WL,A,11.0
2,28.324000120162964,learn,31675.999879837036,Wed Jan 08 2025 11:15:13 GMT-0600 (Central Standard Time),307004.2000000477,A,meado,I,o,158,1,1515.5999999046326,305488.60000014305,8012,WL,A,11.0
2,28.457000017166138,learn,31542.999982833862,Wed Jan 08 2025 11:15:13 GMT-0600 (Central Standard Time),307137.5,A,meadow,I,w,111,1,1648.8999998569489,305488.60000014305,8012,WL,A,11.0
2,29.624000072479248,learn,30375.999927520752,Wed Jan 08 2025 11:15:13 GMT-0600 (Central Standard Time),308303.80000019073,A,meadowenter,I,enter,1153,1,2815.2000000476837,305488.60000014305,8012,WL,A,11.0
2,31.67300009727478,learn,28326.99990272522,Wed Jan 08 2025 11:15:13 GMT-0600 (Central Standard Time),310353.10000014305,A,b,I,b,2035,1,2048.9000000953674,308304.2000000477,8012,WL,A,12.0
2,32.00699996948242,learn,27993.000030517578,Wed Jan 08 2025 11:15:13 GMT-0600 (Central Standard Time),310687.5,A,bo,I,o,322,1,2383.2999999523163,308304.2000000477,8012,WL,A,12.0
2,32.1560001373291,learn,27843.9998626709,Wed Jan 08 2025 11:15:13 GMT-0600 (Central Standard Time),310836.30000019073,A,boo,I,o,131,1,2532.100000143051,308304.2000000477,8012,WL,A,12.0
2,32.23900008201599,learn,27760.99991798401,Wed Jan 08 2025 11:15:13 GMT-0600 (Central Standard Time),310919.7000000477,A,book,I,k,70,1,2615.5,308304.2000000477,8012,WL,A,12.0
2,32.93900012969971,learn,27060.999870300293,Wed Jan 08 2025 11:15:13 GMT-0600 (Central Standard Time),311619.10000014305,A,bookenter,I,enter,691,1,3314.9000000953674,308304.2000000477,8012,WL,A,12.0
2,40.98699998855591,learn,19013.00001144409,Wed Jan 08 2025 11:15:13 GMT-0600 (Central Standard Time),319666.80000019073,A,t,I,t,8032,1,8047.400000095367,311619.40000009537,8012,WL,A,13.0
2,41.20300006866455,learn,18796.99993133545,Wed Jan 08 2025 11:15:13 GMT-0600 (Central Standard Time),319883.40000009537,A,tr,I,r,208,1,8264.0,311619.40000009537,8012,WL,A,13.0
2,41.28699994087219,learn,18713.000059127808,Wed Jan 08 2025 11:15:13 GMT-0600 (Central Standard Time),319966.7000000477,A,tra,I,a,70,1,8347.299999952316,311619.40000009537,8012,WL,A,13.0
2,41.47000002861023,learn,18529.99997138977,Wed Jan 08 2025 11:15:13 GMT-0600 (Central Standard Time),320149.80000019073,A,trai,I,i,172,1,8530.400000095367,311619.40000009537,8012,WL,A,13.0
2,41.62000012397766,learn,18379.99987602234,Wed Jan 08 2025 11:15:13 GMT-0600 (Central Standard Time),320299.90000009537,A,train,I,n,141,1,8680.5,311619.40000009537,8012,WL,A,13.0
2,42.13599991798401,learn,17864.00008201599,Wed Jan 08 2025 11:15:13 GMT-0600 (Central Standard Time),320816.2000000477,A,trainenter,I,enter,502,1,9196.799999952316,311619.40000009537,8012,WL,A,13.0
2,54.43300008773804,learn,5566.999912261963,Wed Jan 08 2025 11:15:13 GMT-0600 (Central Standard Time),333112.90000009537,A,c,I,c,12283,1,12296.400000095367,320816.5,8012,WL,A,14.0
2,54.54900002479553,learn,5450.999975204468,Wed Jan 08 2025 11:15:13 GMT-0600 (Central Standard Time),333229.30000019073,A,ch,I,h,98,1,12412.800000190735,320816.5,8012,WL,A,14.0
2,54.6489999294281,learn,5351.000070571899,Wed Jan 08 2025 11:15:13 GMT-0600 (Central Standard Time),333329.5,A,chi,I,i,78,1,12513.0,320816.5,8012,WL,A,14.0
2,54.782999992370605,learn,5217.0000076293945,Wed Jan 08 2025 11:15:13 GMT-0600 (Central Standard Time),333462.7000000477,A,chim,I,m,114,1,12646.200000047684,320816.5,8012,WL,A,14.0
2,54.98200011253357,learn,5017.999887466431,Wed Jan 08 2025 11:15:13 GMT-0600 (Central Standard Time),333662.40000009537,A,chimn,I,n,180,1,12845.900000095367,320816.5,8012,WL,A,14.0
2,55.098999977111816,learn,4901.000022888184,Wed Jan 08 2025 11:15:13 GMT-0600 (Central Standard Time),333779.0,A,chimne,I,e,109,1,12962.5,320816.5,8012,WL,A,14.0
2,55.28200006484985,learn,4717.9999351501465,Wed Jan 08 2025 11:15:13 GMT-0600 (Central Standard Time),333962.5,A,chimney,I,y,168,1,13146.0,320816.5,8012,WL,A,14.0
2,55.74900007247925,learn,4250.999927520752,Wed Jan 08 2025 11:15:13 GMT-0600 (Central Standard Time),334429.10000014305,A,chimneyenter,I,enter,448,1,13612.600000143051,320816.5,8012,WL,A,14.0
2,57.19799995422363,learn,2802.000045776367,Wed Jan 08 2025 11:15:13 GMT-0600 (Central Standard Time),335878.5,A,l,I,l,1430,1,1449.0999999046326,334429.40000009537,8012,WL,A,15.0
2,57.38199996948242,learn,2618.000030517578,Wed Jan 08 2025 11:15:13 GMT-0600 (Central Standard Time),336061.80000019073,A,lo,I,o,172,1,1632.4000000953674,334429.40000009537,8012,WL,A,15.0
2,57.48200011253357,learn,2517.9998874664307,Wed Jan 08 2025 11:15:13 GMT-0600 (Central Standard Time),336162.0,A,log,I,g,77,1,1732.5999999046326,334429.40000009537,8012,WL,A,15.0
2,58.331000089645386,learn,1668.9999103546143,Wed Jan 08 2025 11:15:13 GMT-0600 (Central Standard Time),337011.5,A,logenter,I,enter,833,1,2582.0999999046326,334429.40000009537,8012,WL,A,15.0
3,0.998999834060669,learn,59001.00016593933,Wed Jan 08 2025 11:15:13 GMT-0600 (Central Standard Time),406623.10000014305,A,b,I,b,980,1,999.5,405623.60000014305,8012,WL,A,1.0
3,1.2330000400543213,learn,58766.99995994568,Wed Jan 08 2025 11:15:13 GMT-0600 (Central Standard Time),406856.40000009537,A,bo,I,o,218,1,1232.7999999523163,405623.60000014305,8012,WL,A,1.0
3,1.4159998893737793,learn,58584.00011062622,Wed Jan 08 2025 11:15:13 GMT-0600 (Central Standard Time),407039.60000014305,A,boo,I,o,163,1,1416.0,405623.60000014305,8012,WL,A,1.0
3,1.5829999446868896,learn,58417.00005531311,Wed Jan 08 2025 11:15:13 GMT-0600 (Central Standard Time),407206.40000009537,A,book,I,k,147,1,1582.7999999523163,405623.60000014305,8012,WL,A,1.0
3,2.2159998416900635,learn,57784.00015830994,Wed Jan 08 2025 11:15:13 GMT-0600 (Central Standard Time),407839.40000009537,A,bookenter,I,enter,621,1,2215.7999999523163,405623.60000014305,8012,WL,A,1.0
3,2.565999984741211,learn,57434.00001525879,Wed Jan 08 2025 11:15:13 GMT-0600 (Central Standard Time),408189.30000019073,A,f,I,f,331,1,349.5,407839.80000019073,8012,WL,A,2.0
3,2.681999921798706,learn,57318.000078201294,Wed Jan 08 2025 11:15:13 GMT-0600 (Central Standard Time),408305.7000000477,A,fl,I,l,94,1,465.89999985694885,407839.80000019073,8012,WL,A,2.0
3,2.881999969482422,learn,57118.00003051758,Wed Jan 08 2025 11:15:13 GMT-0600 (Central Standard Time),408505.7000000477,A,flo,I,o,185,1,665.8999998569489,407839.80000019073,8012,WL,A,2.0
3,2.998999834060669,learn,57001.00016593933,Wed Jan 08 2025 11:15:13 GMT-0600 (Central Standard Time),408622.2000000477,A,flow,I,w,105,1,782.3999998569489,407839.80000019073,8012,WL,A,2.0
3,3.244999885559082,learn,56755.00011444092,Wed Jan 08 2025 11:15:13 GMT-0600 (Central Standard Time),408869.10000014305,A,flowr,I,r,240,1,1029.2999999523163,407839.80000019073,8012,WL,A,2.0
3,3.8320000171661377,learn,56167.99998283386,Wed Jan 08 2025 11:15:13 GMT-0600 (Central Standard Time),409455.5,A,flow,I,backspace,566,1,1615.6999998092651,407839.80000019073,8012,WL,A,2.0
3,4.631999969482422,learn,55368.00003051758,Wed Jan 08 2025 11:15:13 GMT-0600 (Central Standard Time),410255.30000019073,A,flowe,I,e,787,1,2415.5,407839.80000019073,8012,WL,A,2.0
3,4.7820000648498535,learn,55217.99993515015,Wed Jan 08 2025 11:15:13 GMT-0600 (Central Standard Time),410405.2000000477,A,flower,I,r,132,1,2565.399999856949,407839.80000019073,8012,WL,A,2.0
3,5.5309998989105225,learn,54469.00010108948,Wed Jan 08 2025 11:15:13 GMT-0600 (Central Standard Time),411154.90000009537,A,flowerenter,I,enter,742,1,3315.0999999046326,407839.80000019073,8012,WL,A,2.0
3,6.38100004196167,learn,53618.99995803833,Wed Jan 08 2025 11:15:13 GMT-0600 (Central Standard Time),412004.80000019073,A,r,I,r,840,1,849.7000000476837,411155.10000014305,8012,WL,A,3.0
3,6.697999954223633,learn,53302.00004577637,Wed Jan 08 2025 11:15:13 GMT-0600 (Central Standard Time),412321.30000019073,A,ru,I,u,294,1,1166.2000000476837,411155.10000014305,8012,WL,A,3.0
3,6.914000034332275,learn,53085.999965667725,Wed Jan 08 2025 11:15:13 GMT-0600 (Central Standard Time),412537.90000009537,A,rug,I,g,202,1,1382.7999999523163,411155.10000014305,8012,WL,A,3.0
3,7.330999851226807,learn,52669.00014877319,Wed Jan 08 2025 11:15:13 GMT-0600 (Central Standard Time),412954.7000000477,A,rugenter,I,enter,409,1,1799.5999999046326,411155.10000014305,8012,WL,A,3.0
3,7.646999835968018,learn,52353.00016403198,Wed Jan 08 2025 11:15:13 GMT-0600 (Central Standard Time),413270.90000009537,A,t,I,t,304,1,315.90000009536743,412955.0,8012,WL,A,4.0
3,7.896999835968018,learn,52103.00016403198,Wed Jan 08 2025 11:15:13 GMT-0600 (Central Standard Time),413521.0,A,tr,I,r,236,1,566.0,412955.0,8012,WL,A,4.0
3,7.980000019073486,learn,52019.999980926514,Wed Jan 08 2025 11:15:13 GMT-0600 (Central Standard Time),413604.2000000477,A,tra,I,a,74,1,649.2000000476837,412955.0,8012,WL,A,4.0
3,8.230000019073486,learn,51769.999980926514,Wed Jan 08 2025 11:15:13 GMT-0600 (Central Standard Time),413854.30000019073,A,trai,I,i,231,1,899.3000001907349,412955.0,8012,WL,A,4.0
3,8.463000059127808,learn,51536.99994087219,Wed Jan 08 2025 11:15:13 GMT-0600 (Central Standard Time),414087.10000014305,A,train,I,n,212,1,1132.1000001430511,412955.0,8012,WL,A,4.0
3,8.94599986076355,learn,51054.00013923645,Wed Jan 08 2025 11:15:13 GMT-0600 (Central Standard Time),414570.5,A,trainenter,I,enter,468,1,1615.5,412955.0,8012,WL,A,4.0
3,9.27999997138977,learn,50720.00002861023,Wed Jan 08 2025 11:15:13 GMT-0600 (Central Standard Time),414903.7000000477,A,m,I,m,312,1,332.7999999523163,414570.90000009537,8012,WL,A,5.0
3,9.412999868392944,learn,50587.000131607056,Wed Jan 08 2025 11:15:13 GMT-0600 (Central Standard Time),415037.10000014305,A,me,I,e,123,1,466.2000000476837,414570.90000009537,8012,WL,A,5.0
3,9.513000011444092,learn,50486.99998855591,Wed Jan 08 2025 11:15:13 GMT-0600 (Central Standard Time),415136.90000009537,A,mea,I,a,78,1,566.0,414570.90000009537,8012,WL,A,5.0
3,9.69599986076355,learn,50304.00013923645,Wed Jan 08 2025 11:15:13 GMT-0600 (Central Standard Time),415320.30000019073,A,mead,I,d,170,1,749.4000000953674,414570.90000009537,8012,WL,A,5.0
3,10.095999956130981,learn,49904.00004386902,Wed Jan 08 2025 11:15:13 GMT-0600 (Central Standard Time),415720.2000000477,A,meado,I,o,387,1,1149.2999999523163,414570.90000009537,8012,WL,A,5.0
3,10.36299991607666,learn,49637.00008392334,Wed Jan 08 2025 11:15:13 GMT-0600 (Central Standard Time),415986.80000019073,A,meadow,I,w,244,1,1415.9000000953674,414570.90000009537,8012,WL,A,5.0
3,11.678999900817871,learn,48321.00009918213,Wed Jan 08 2025 11:15:13 GMT-0600 (Central Standard Time),417303.0,A,meadowenter,I,enter,1304,1,2732.0999999046326,414570.90000009537,8012,WL,A,5.0
3,12.444999933242798,learn,47555.0000667572,Wed Jan 08 2025 11:15:13 GMT-0600 (Central Standard Time),418069.40000009537,A,h,I,h,748,1,766.0,417303.40000009537,8012,WL,A,6.0
3,12.628999948501587,learn,47371.00005149841,Wed Jan 08 2025 11:15:13 GMT-0600 (Central Standard Time),418252.60000014305,A,ha,I,a,173,1,949.2000000476837,417303.40000009537,8012,WL,A,6.0
3,12.812000036239624,learn,47187.999963760376,Wed Jan 08 2025 11:15:13 GMT-0600 (Central Standard Time),418435.90000009537,A,har,I,r,166,1,1132.5,417303.40000009537,8012,WL,A,6.0
3,13.01199984550476,learn,46988.00015449524,Wed Jan 08 2025 11:15:13 GMT-0600 (Central Standard Time),418636.0,A,harp,I,p,183,1,1332.5999999046326,417303.40000009537,8012,WL,A,6.0
3,13.861999988555908,learn,46138.00001144409,Wed Jan 08 2025 11:15:13 GMT-0600 (Central Standard Time),419485.60000014305,A,harpenter,I,enter,830,1,2182.2000000476837,417303.40000009537,8012,WL,A,6.0
3,14.74399995803833,learn,45256.00004196167,Wed Jan 08 2025 11:15:13 GMT-0600 (Central Standard Time),420368.60000014305,A,c,I,c,869,1,882.4000000953674,419486.2000000477,8012,WL,A,7.0
3,14.861000061035156,learn,45138.999938964844,Wed Jan 08 2025 11:15:13 GMT-0600 (Central Standard Time),420485.40000009537,A,ch,I,h,106,1,999.2000000476837,419486.2000000477,8012,WL,A,7.0
3,15.010999917984009,learn,44989.00008201599,Wed Jan 08 2025 11:15:13 GMT-0600 (Central Standard Time),420635.0,A,chi,I,i,142,1,1148.7999999523163,419486.2000000477,8012,WL,A,7.0
3,15.16100001335144,learn,44838.99998664856,Wed Jan 08 2025 11:15:13 GMT-0600 (Central Standard Time),420785.2000000477,A,chim,I,m,128,1,1299.0,419486.2000000477,8012,WL,A,7.0
3,15.378000020980835,learn,44621.999979019165,Wed Jan 08 2025 11:15:13 GMT-0600 (Central Standard Time),421002.0,A,chimn,I,n,194,1,1515.7999999523163,419486.2000000477,8012,WL,A,7.0
3,15.543999910354614,learn,44456.000089645386,Wed Jan 08 2025 11:15:13 GMT-0600 (Central Standard Time),421168.2000000477,A,chimne,I,e,145,1,1682.0,419486.2000000477,8012,WL,A,7.0
3,15.694000005722046,learn,44305.999994277954,Wed Jan 08 2025 11:15:13 GMT-0600 (Central Standard Time),421318.30000019073,A,chimney,I,y,131,1,1832.1000001430511,419486.2000000477,8012,WL,A,7.0
3,16.5939998626709,learn,43406.0001373291,Wed Jan 08 2025 11:15:13 GMT-0600 (Central Standard Time),422218.40000009537,A,chimneyenter,I,enter,884,1,2732.2000000476837,419486.2000000477,8012,WL,A,7.0
3,17.177000045776367,learn,42822.99995422363,Wed Jan 08 2025 11:15:13 GMT-0600 (Central Standard Time),422801.2000000477,A,b,I,b,560,1,582.5,422218.7000000477,8012,WL,A,8.0
3,17.310999870300293,learn,42689.00012969971,Wed Jan 08 2025 11:15:13 GMT-0600 (Central Standard Time),422934.80000019073,A,bu,I,u,114,1,716.1000001430511,422218.7000000477,8012,WL,A,8.0
3,17.460000038146973,learn,42539.99996185303,Wed Jan 08 2025 11:15:13 GMT-0600 (Central Standard Time),423084.60000014305,A,but,I,t,132,1,865.9000000953674,422218.7000000477,8012,WL,A,8.0
3,17.609999895095825,learn,42390.000104904175,Wed Jan 08 2025 11:15:13 GMT-0600 (Central Standard Time),423234.10000014305,A,butt,I,t,126,1,1015.4000000953674,422218.7000000477,8012,WL,A,8.0
3,17.72699999809265,learn,42273.00000190735,Wed Jan 08 2025 11:15:13 GMT-0600 (Central Standard Time),423351.10000014305,A,butto,I,o,106,1,1132.4000000953674,422218.7000000477,8012,WL,A,8.0
3,17.89400005340576,learn,42105.99994659424,Wed Jan 08 2025 11:15:13 GMT-0600 (Central Standard Time),423517.7000000477,A,button,I,n,156,1,1299.0,422218.7000000477,8012,WL,A,8.0
3,18.3439998626709,learn,41656.0001373291,Wed Jan 08 2025 11:15:13 GMT-0600 (Central Standard Time),423967.80000019073,A,buttonenter,I,enter,429,1,1749.1000001430511,422218.7000000477,8012,WL,A,8.0
3,18.792999982833862,learn,41207.00001716614,Wed Jan 08 2025 11:15:13 GMT-0600 (Central Standard Time),424417.40000009537,A,l,I,l,427,1,449.2000000476837,423968.2000000477,8012,WL,A,9.0
3,18.993000030517578,learn,41006.99996948242,Wed Jan 08 2025 11:15:13 GMT-0600 (Central Standard Time),424617.5,A,lo,I,o,186,1,649.2999999523163,423968.2000000477,8012,WL,A,9.0
3,19.175999879837036,learn,40824.000120162964,Wed Jan 08 2025 11:15:13 GMT-0600 (Central Standard Time),424800.60000014305,A,log,I,g,170,1,832.4000000953674,423968.2000000477,8012,WL,A,9.0
3,19.942999839782715,learn,40057.000160217285,Wed Jan 08 2025 11:15:13 GMT-0600 (Central Standard Time),425567.0,A,logenter,I,enter,746,1,1598.7999999523163,423968.2000000477,8012,WL,A,9.0
3,20.692999839782715,learn,39307.000160217285,Wed Jan 08 2025 11:15:13 GMT-0600 (Central Standard Time),426316.90000009537,A,k,I,k,740,1,749.4000000953674,425567.5,8012,WL,A,10.0
3,20.89299988746643,learn,39107.00011253357,Wed Jan 08 2025 11:15:13 GMT-0600 (Central Standard Time),426517.0,A,ke,I,e,182,1,949.5,425567.5,8012,WL,A,10.0
3,21.05900001525879,learn,38940.99998474121,Wed Jan 08 2025 11:15:13 GMT-0600 (Central Standard Time),426683.5,A,key,I,y,149,1,1116.0,425567.5,8012,WL,A,10.0
3,23.075999975204468,learn,36924.00002479553,Wed Jan 08 2025 11:15:13 GMT-0600 (Central Standard Time),428700.60000014305,A,keyenter,I,enter,2000,1,3133.100000143051,425567.5,8012,WL,A,10.0
3,29.806999921798706,learn,30193.000078201294,Wed Jan 08 2025 11:15:13 GMT-0600 (Central Standard Time),435430.7000000477,A,r,I,r,6718,1,6729.799999952316,428700.90000009537,8012,WL,A,11.0
3,29.990000009536743,learn,30009.999990463257,Wed Jan 08 2025 11:15:13 GMT-0600 (Central Standard Time),435614.0,A,ra,I,a,164,1,6913.099999904633,428700.90000009537,8012,WL,A,11.0
3,30.155999898910522,learn,29844.000101089478,Wed Jan 08 2025 11:15:13 GMT-0600 (Central Standard Time),435780.40000009537,A,rat,I,t,149,1,7079.5,428700.90000009537,8012,WL,A,11.0
3,30.305999994277954,learn,29694.000005722046,Wed Jan 08 2025 11:15:13 GMT-0600 (Central Standard Time),435930.40000009537,A,ratt,I,t,142,1,7229.5,428700.90000009537,8012,WL,A,11.0
3,30.639999866485596,learn,29360.000133514404,Wed Jan 08 2025 11:15:13 GMT-0600 (Central Standard Time),436263.80000019073,A,rattl,I,l,313,1,7562.900000095367,428700.90000009537,8012,WL,A,11.0
3,31.039000034332275,learn,28960.999965667725,Wed Jan 08 2025 11:15:13 GMT-0600 (Central Standard Time),436663.5,A,rattle,I,e,379,1,7962.599999904633,428700.90000009537,8012,WL,A,11.0
3,31.35599994659424,learn,28644.00005340576,Wed Jan 08 2025 11:15:13 GMT-0600 (Central Standard Time),436980.10000014305,A,rattleenter,I,enter,300,1,8279.200000047684,428700.90000009537,8012,WL,A,11.0
3,31.58899998664856,learn,28411.00001335144,Wed Jan 08 2025 11:15:13 GMT-0600 (Central Standard Time),437213.30000019073,A,g,I,g,223,1,232.80000019073486,436980.5,8012,WL,A,12.0
3,31.721999883651733,learn,28278.000116348267,Wed Jan 08 2025 11:15:13 GMT-0600 (Central Standard Time),437346.60000014305,A,go,I,o,118,1,366.10000014305115,436980.5,8012,WL,A,12.0
3,31.938999891281128,learn,28061.000108718872,Wed Jan 08 2025 11:15:13 GMT-0600 (Central Standard Time),437563.40000009537,A,gol,I,l,201,1,582.9000000953674,436980.5,8012,WL,A,12.0
3,32.039000034332275,learn,27960.999965667725,Wed Jan 08 2025 11:15:13 GMT-0600 (Central Standard Time),437663.2000000477,A,gold,I,d,88,1,682.7000000476837,436980.5,8012,WL,A,12.0
3,37.00399994850159,learn,22996.000051498413,Wed Jan 08 2025 11:15:13 GMT-0600 (Central Standard Time),442628.10000014305,A,goldenter,I,enter,4948,1,5647.600000143051,436980.5,8012,WL,A,12.0
3,39.36999988555908,learn,20630.000114440918,Wed Jan 08 2025 11:15:13 GMT-0600 (Central Standard Time),444994.30000019073,A,f,I,f,2343,1,2365.800000190735,442628.5,8012,WL,A,13.0
3,39.53699994087219,learn,20463.000059127808,Wed Jan 08 2025 11:15:13 GMT-0600 (Central Standard Time),445161.0,A,fi,I,i,145,1,2532.5,442628.5,8012,WL,A,13.0
3,39.61999988555908,learn,20380.000114440918,Wed Jan 08 2025 11:15:13 GMT-0600 (Central Standard Time),445244.40000009537,A,fin,I,n,74,1,2615.9000000953674,442628.5,8012,WL,A,13.0
3,39.753000020980835,learn,20246.999979019165,Wed Jan 08 2025 11:15:13 GMT-0600 (Central Standard Time),445377.60000014305,A,fing,I,g,118,1,2749.100000143051,442628.5,8012,WL,A,13.0
3,39.97000002861023,learn,20029.99997138977,Wed Jan 08 2025 11:15:13 GMT-0600 (Central Standard Time),445594.10000014305,A,finge,I,e,201,1,2965.600000143051,442628.5,8012,WL,A,13.0
3,40.0699999332428,learn,19930.000066757202,Wed Jan 08 2025 11:15:13 GMT-0600 (Central Standard Time),445694.5,A,finger,I,r,81,1,3066.0,442628.5,8012,WL,A,13.0
3,45.70099997520447,learn,14299.000024795532,Wed Jan 08 2025 11:15:13 GMT-0600 (Central Standard Time),451325.40000009537,A,fingerenter,I,enter,5620,1,8696.900000095367,442628.5,8012,WL,A,13.0
3,47.91799998283386,learn,12082.000017166138,Wed Jan 08 2025 11:15:13 GMT-0600 (Central Standard Time),453541.60000014305,A,s,I,s,2198,1,2216.0,451325.60000014305,8012,WL,A,14.0
3,48.03399991989136,learn,11966.000080108643,Wed Jan 08 2025 11:15:13 GMT-0600 (Central Standard Time),453658.5,A,sa,I,a,109,1,2332.899999856949,451325.60000014305,8012,WL,A,14.0
3,48.26699995994568,learn,11733.000040054321,Wed Jan 08 2025 11:15:13 GMT-0600 (Central Standard Time),453891.5,A,sal,I,l,217,1,2565.899999856949,451325.60000014305,8012,WL,A,14.0
3,48.41700005531311,learn,11582.99994468689,Wed Jan 08 2025 11:15:13 GMT-0600 (Central Standard Time),454041.5,A,salt,I,t,136,1,2715.899999856949,451325.60000014305,8012,WL,A,14.0
3,48.78399991989136,learn,11216.000080108643,Wed Jan 08 2025 11:15:13 GMT-0600 (Central Standard Time),454407.90000009537,A,saltenter,I,enter,346,1,3082.2999999523163,451325.60000014305,8012,WL,A,14.0
3,49.28399991989136,learn,10716.000080108643,Wed Jan 08 2025 11:15:13 GMT-0600 (Central Standard Time),454907.80000019073,A,a,I,a,483,1,499.5,454408.30000019073,8012,WL,A,15.0
3,49.41700005531311,learn,10582.99994468689,Wed Jan 08 2025 11:15:13 GMT-0600 (Central Standard Time),455041.40000009537,A,ap,I,p,119,1,633.0999999046326,454408.30000019073,8012,WL,A,15.0
3,49.56699991226196,learn,10433.000087738037,Wed Jan 08 2025 11:15:13 GMT-0600 (Central Standard Time),455191.2000000477,A,app,I,p,138,1,782.8999998569489,454408.30000019073,8012,WL,A,15.0
3,49.64999985694885,learn,10350.000143051147,Wed Jan 08 2025 11:15:13 GMT-0600 (Central Standard Time),455274.40000009537,A,appl,I,l,76,1,866.0999999046326,454408.30000019073,8012,WL,A,15.0
3,49.93400001525879,learn,10065.999984741211,Wed Jan 08 2025 11:15:13 GMT-0600 (Central Standard Time),455557.60000014305,A,apple,I,e,272,1,1149.2999999523163,454408.30000019073,8012,WL,A,15.0
3,50.08399987220764,learn,9916.000127792358,Wed Jan 08 2025 11:15:13 GMT-0600 (Central Standard Time),455707.7000000477,A,appleenter,I,enter,141,1,1299.3999998569489,454408.30000019073,8012,WL,A,15.0
4,0.9669997692108154,learn,59033.000230789185,Wed Jan 08 2025 11:15:13 GMT-0600 (Central Standard Time),524169.60000014305,A,b,I,b,952,1,966.2999999523163,523203.30000019073,8012,WL,A,1.0
4,1.1999998092651367,learn,58800.00019073486,Wed Jan 08 2025 11:15:13 GMT-0600 (Central Standard Time),524402.600000143,A,bo,I,o,225,1,1199.2999999523163,523203.30000019073,8012,WL,A,1.0
4,1.366999864578247,learn,58633.00013542175,Wed Jan 08 2025 11:15:13 GMT-0600 (Central Standard Time),524569.2000000477,A,boo,I,o,152,1,1365.8999998569489,523203.30000019073,8012,WL,A,1.0
4,1.4659998416900635,learn,58534.00015830994,Wed Jan 08 2025 11:15:13 GMT-0600 (Central Standard Time),524669.0,A,book,I,k,90,1,1465.6999998092651,523203.30000019073,8012,WL,A,1.0
4,1.816999912261963,learn,58183.00008773804,Wed Jan 08 2025 11:15:13 GMT-0600 (Central Standard Time),525019.2000000477,A,bookenter,I,enter,334,1,1815.8999998569489,523203.30000019073,8012,WL,A,1.0
4,2.115999937057495,learn,57884.000062942505,Wed Jan 08 2025 11:15:13 GMT-0600 (Central Standard Time),525319.100000143,A,f,I,f,288,1,299.5,525019.600000143,8012,WL,A,2.0
4,2.2169997692108154,learn,57783.000230789185,Wed Jan 08 2025 11:15:13 GMT-0600 (Central Standard Time),525419.4000000954,A,fl,I,l,84,1,399.7999999523163,525019.600000143,8012,WL,A,2.0
4,2.3999998569488525,learn,57600.00014305115,Wed Jan 08 2025 11:15:13 GMT-0600 (Central Standard Time),525602.2000000477,A,flo,I,o,168,1,582.5999999046326,525019.600000143,8012,WL,A,2.0
4,2.5,learn,57500.0,Wed Jan 08 2025 11:15:13 GMT-0600 (Central Standard Time),525702.3000001907,A,flow,I,w,89,1,682.7000000476837,525019.600000143,8012,WL,A,2.0
4,2.5829999446868896,learn,57417.00005531311,Wed Jan 08 2025 11:15:13 GMT-0600 (Central Standard Time),525785.7000000477,A,flowe,I,e,68,1,766.0999999046326,525019.600000143,8012,WL,A,2.0
4,2.6669998168945312,learn,57333.00018310547,Wed Jan 08 2025 11:15:13 GMT-0600 (Central Standard Time),525869.4000000954,A,flower,I,r,65,1,849.7999999523163,525019.600000143,8012,WL,A,2.0
4,3.2159998416900635,learn,56784.00015830994,Wed Jan 08 2025 11:15:13 GMT-0600 (Central Standard Time),526418.7000000477,A,flowerenter,I,enter,542,1,1399.0999999046326,525019.600000143,8012,WL,A,2.0
4,3.982999801635742,learn,56017.00019836426,Wed Jan 08 2025 11:15:13 GMT-0600 (Central Standard Time),527185.2000000477,A,t,I,t,745,1,766.2999999523163,526418.9000000954,8012,WL,A,3.0
4,4.165999889373779,learn,55834.00011062622,Wed Jan 08 2025 11:15:13 GMT-0600 (Central Standard Time),527368.3000001907,A,tr,I,r,170,1,949.4000000953674,526418.9000000954,8012,WL,A,3.0
4,4.25,learn,55750.0,Wed Jan 08 2025 11:15:13 GMT-0600 (Central Standard Time),527452.8000001907,A,tra,I,a,75,1,1033.9000000953674,526418.9000000954,8012,WL,A,3.0
4,4.398999929428101,learn,55601.0000705719,Wed Jan 08 2025 11:15:13 GMT-0600 (Central Standard Time),527601.7000000477,A,trai,I,i,126,1,1182.7999999523163,526418.9000000954,8012,WL,A,3.0
4,4.498999834060669,learn,55501.00016593933,Wed Jan 08 2025 11:15:13 GMT-0600 (Central Standard Time),527701.8000001907,A,train,I,n,89,1,1282.9000000953674,526418.9000000954,8012,WL,A,3.0
4,4.781999826431274,learn,55218.000173568726,Wed Jan 08 2025 11:15:13 GMT-0600 (Central Standard Time),527985.100000143,A,trainenter,I,enter,269,1,1566.2000000476837,526418.9000000954,8012,WL,A,3.0
4,5.098999977111816,learn,54901.00002288818,Wed Jan 08 2025 11:15:13 GMT-0600 (Central Standard Time),528301.600000143,A,r,I,r,306,1,316.10000014305115,527985.5,8012,WL,A,4.0
4,5.248999834060669,learn,54751.00016593933,Wed Jan 08 2025 11:15:13 GMT-0600 (Central Standard Time),528451.5,A,ru,I,u,141,1,466.0,527985.5,8012,WL,A,4.0
4,5.431999921798706,learn,54568.000078201294,Wed Jan 08 2025 11:15:13 GMT-0600 (Central Standard Time),528634.7000000477,A,rug,I,g,176,1,649.2000000476837,527985.5,8012,WL,A,4.0
4,5.798999786376953,learn,54201.00021362305,Wed Jan 08 2025 11:15:13 GMT-0600 (Central Standard Time),529001.3000001907,A,rugenter,I,enter,352,1,1015.8000001907349,527985.5,8012,WL,A,4.0
4,6.06499981880188,learn,53935.00018119812,Wed Jan 08 2025 11:15:13 GMT-0600 (Central Standard Time),529267.9000000954,A,m,I,m,250,1,266.2999999523163,529001.600000143,8012,WL,A,5.0
4,6.198999881744385,learn,53801.000118255615,Wed Jan 08 2025 11:15:13 GMT-0600 (Central Standard Time),529401.2000000477,A,me,I,e,111,1,399.59999990463257,529001.600000143,8012,WL,A,5.0
4,6.281999826431274,learn,53718.000173568726,Wed Jan 08 2025 11:15:13 GMT-0600 (Central Standard Time),529484.600000143,A,mea,I,a,66,1,483.0,529001.600000143,8012,WL,A,5.0
4,6.414999961853027,learn,53585.00003814697,Wed Jan 08 2025 11:15:13 GMT-0600 (Central Standard Time),529617.8000001907,A,mead,I,d,118,1,616.2000000476837,529001.600000143,8012,WL,A,5.0
4,6.581999778747559,learn,53418.00022125244,Wed Jan 08 2025 11:15:13 GMT-0600 (Central Standard Time),529784.4000000954,A,meado,I,o,153,1,782.7999999523163,529001.600000143,8012,WL,A,5.0
4,6.73199987411499,learn,53268.00012588501,Wed Jan 08 2025 11:15:13 GMT-0600 (Central Standard Time),529934.5,A,meadow,I,w,138,1,932.8999998569489,529001.600000143,8012,WL,A,5.0
4,7.06499981880188,learn,52935.00018119812,Wed Jan 08 2025 11:15:13 GMT-0600 (Central Standard Time),530267.600000143,A,meadowenter,I,enter,317,1,1266.0,529001.600000143,8012,WL,A,5.0
4,7.347999811172485,learn,52652.000188827515,Wed Jan 08 2025 11:15:13 GMT-0600 (Central Standard Time),530550.7000000477,A,h,I,h,271,1,282.7999999523163,530267.9000000954,8012,WL,A,6.0
4,7.497999906539917,learn,52502.00009346008,Wed Jan 08 2025 11:15:13 GMT-0600 (Central Standard Time),530700.7000000477,A,he,I,e,140,1,432.7999999523163,530267.9000000954,8012,WL,A,6.0
4,7.614999771118164,learn,52385.000228881836,Wed Jan 08 2025 11:15:13 GMT-0600 (Central Standard Time),530817.4000000954,A,hea,I,a,94,1,549.5,530267.9000000954,8012,WL,A,6.0
4,7.747999906539917,learn,52252.00009346008,Wed Jan 08 2025 11:15:13 GMT-0600 (Central Standard Time),530950.8000001907,A,hear,I,r,114,1,682.9000000953674,530267.9000000954,8012,WL,A,6.0
4,8.097999811172485,learn,51902.000188827515,Wed Jan 08 2025 11:15:13 GMT-0600 (Central Standard Time),531300.600000143,A,hea,I,backspace,332,1,1032.7000000476837,530267.9000000954,8012,WL,A,6.0
4,8.247999906539917,learn,51752.00009346008,Wed Jan 08 2025 11:15:13 GMT-0600 (Central Standard Time),531450.4000000954,A,he,I,backspace,134,1,1182.5,530267.9000000954,8012,WL,A,6.0
4,8.39799976348877,learn,51602.00023651123,Wed Jan 08 2025 11:15:13 GMT-0600 (Central Standard Time),531600.5,A,h,I,backspace,128,1,1332.5999999046326,530267.9000000954,8012,WL,A,6.0
4,8.480999946594238,learn,51519.00005340576,Wed Jan 08 2025 11:15:13 GMT-0600 (Central Standard Time),531683.9000000954,A,ha,I,a,67,1,1416.0,530267.9000000954,8012,WL,A,6.0
4,8.56499981880188,learn,51435.00018119812,Wed Jan 08 2025 11:15:13 GMT-0600 (Central Standard Time),531767.2000000477,A,har,I,r,63,1,1499.2999999523163,530267.9000000954,8012,WL,A,6.0
4,8.830999851226807,learn,51169.00014877319,Wed Jan 08 2025 11:15:13 GMT-0600 (Central Standard Time),532034.0,A,harp,I,p,244,1,1766.0999999046326,530267.9000000954,8012,WL,A,6.0
4,10.363999843597412,learn,49636.00015640259,Wed Jan 08 2025 11:15:13 GMT-0600 (Central Standard Time),533566.7000000477,A,harpenter,I,enter,1513,1,3298.7999999523163,530267.9000000954,8012,WL,A,6.0
4,10.946999788284302,learn,49053.0002117157,Wed Jan 08 2025 11:15:13 GMT-0600 (Central Standard Time),534149.7000000477,A,f,I,f,564,1,582.7000000476837,533567.0,8012,WL,A,7.0
4,11.11299991607666,learn,48887.00008392334,Wed Jan 08 2025 11:15:13 GMT-0600 (Central Standard Time),534316.4000000954,A,fi,I,i,149,1,749.4000000953674,533567.0,8012,WL,A,7.0
4,11.212999820709229,learn,48787.00017929077,Wed Jan 08 2025 11:15:13 GMT-0600 (Central Standard Time),534416.3000001907,A,fin,I,n,79,1,849.3000001907349,533567.0,8012,WL,A,7.0
4,11.395999908447266,learn,48604.000091552734,Wed Jan 08 2025 11:15:13 GMT-0600 (Central Standard Time),534599.5,A,fing,I,g,171,1,1032.5,533567.0,8012,WL,A,7.0
4,11.61299991607666,learn,48387.00008392334,Wed Jan 08 2025 11:15:13 GMT-0600 (Central Standard Time),534816.2000000477,A,finge,I,e,203,1,1249.2000000476837,533567.0,8012,WL,A,7.0
4,11.679999828338623,learn,48320.00017166138,Wed Jan 08 2025 11:15:13 GMT-0600 (Central Standard Time),534882.7000000477,A,finger,I,r,59,1,1315.7000000476837,533567.0,8012,WL,A,7.0
4,11.88099980354309,learn,48119.00019645691,Wed Jan 08 2025 11:15:13 GMT-0600 (Central Standard Time),535083.9000000954,A,fingerenter,I,enter,192,1,1516.9000000953674,533567.0,8012,WL,A,7.0
4,12.096999883651733,learn,47903.00011634827,Wed Jan 08 2025 11:15:13 GMT-0600 (Central Standard Time),535300.5,A,s,I,s,207,1,216.19999980926514,535084.3000001907,8012,WL,A,8.0
4,12.212999820709229,learn,47787.00017929077,Wed Jan 08 2025 11:15:13 GMT-0600 (Central Standard Time),535416.100000143,A,sa,I,a,95,1,331.7999999523163,535084.3000001907,8012,WL,A,8.0
4,12.347999811172485,learn,47652.000188827515,Wed Jan 08 2025 11:15:13 GMT-0600 (Central Standard Time),535551.100000143,A,sal,I,l,116,1,466.7999999523163,535084.3000001907,8012,WL,A,8.0
4,12.512999773025513,learn,47487.00022697449,Wed Jan 08 2025 11:15:13 GMT-0600 (Central Standard Time),535715.8000001907,A,salt,I,t,156,1,631.5,535084.3000001907,8012,WL,A,8.0
4,12.762999773025513,learn,47237.00022697449,Wed Jan 08 2025 11:15:13 GMT-0600 (Central Standard Time),535965.8000001907,A,saltenter,I,enter,231,1,881.5,535084.3000001907,8012,WL,A,8.0
4,13.062999963760376,learn,46937.000036239624,Wed Jan 08 2025 11:15:13 GMT-0600 (Central Standard Time),536265.600000143,A,a,I,a,285,1,299.40000009536743,535966.2000000477,8012,WL,A,9.0
4,13.178999900817871,learn,46821.00009918213,Wed Jan 08 2025 11:15:13 GMT-0600 (Central Standard Time),536382.3000001907,A,ap,I,p,105,1,416.10000014305115,535966.2000000477,8012,WL,A,9.0
4,13.345999956130981,learn,46654.00004386902,Wed Jan 08 2025 11:15:13 GMT-0600 (Central Standard Time),536549.0,A,app,I,p,149,1,582.7999999523163,535966.2000000477,8012,WL,A,9.0
4,13.44599986076355,learn,46554.00013923645,Wed Jan 08 2025 11:15:13 GMT-0600 (Central Standard Time),536649.0,A,appl,I,l,86,1,682.7999999523163,535966.2000000477,8012,WL,A,9.0
4,13.86299991607666,learn,46137.00008392334,Wed Jan 08 2025 11:15:13 GMT-0600 (Central Standard Time),537065.600000143,A,apple,I,e,402,1,1099.4000000953674,535966.2000000477,8012,WL,A,9.0
4,14.128999948501587,learn,45871.00005149841,Wed Jan 08 2025 11:15:13 GMT-0600 (Central Standard Time),537332.100000143,A,appleenter,I,enter,257,1,1365.9000000953674,535966.2000000477,8012,WL,A,9.0
4,14.428999900817871,learn,45571.00009918213,Wed Jan 08 2025 11:15:13 GMT-0600 (Central Standard Time),537632.0,A,c,I,c,279,1,299.5,537332.5,8012,WL,A,10.0
4,14.545999765396118,learn,45454.00023460388,Wed Jan 08 2025 11:15:13 GMT-0600 (Central Standard Time),537748.600000143,A,ch,I,h,99,1,416.10000014305115,537332.5,8012,WL,A,10.0
4,14.611999988555908,learn,45388.00001144409,Wed Jan 08 2025 11:15:13 GMT-0600 (Central Standard Time),537815.3000001907,A,chi,I,i,54,1,482.80000019073486,537332.5,8012,WL,A,10.0
4,14.928999900817871,learn,45071.00009918213,Wed Jan 08 2025 11:15:13 GMT-0600 (Central Standard Time),538131.8000001907,A,chim,I,m,309,1,799.3000001907349,537332.5,8012,WL,A,10.0
4,15.428999900817871,learn,44571.00009918213,Wed Jan 08 2025 11:15:13 GMT-0600 (Central Standard Time),538631.8000001907,A,chimn,I,n,487,1,1299.3000001907349,537332.5,8012,WL,A,10.0
4,15.627999782562256,learn,44372.000217437744,Wed Jan 08 2025 11:15:13 GMT-0600 (Central Standard Time),538831.5,A,chimne,I,e,179,1,1499.0,537332.5,8012,WL,A,10.0
4,15.811999797821045,learn,44188.000202178955,Wed Jan 08 2025 11:15:13 GMT-0600 (Central Standard Time),539014.7000000477,A,chimney,I,y,164,1,1682.2000000476837,537332.5,8012,WL,A,10.0
4,16.52999997138977,learn,43470.00002861023,Wed Jan 08 2025 11:15:13 GMT-0600 (Central Standard Time),539733.0,A,chimneyenter,I,enter,700,1,2400.5,537332.5,8012,WL,A,10.0
4,16.777999877929688,learn,43222.00012207031,Wed Jan 08 2025 11:15:13 GMT-0600 (Central Standard Time),539981.100000143,A,l,I,l,240,1,247.90000009536743,539733.2000000477,8012,WL,A,11.0
4,16.977999925613403,learn,43022.0000743866,Wed Jan 08 2025 11:15:13 GMT-0600 (Central Standard Time),540180.8000001907,A,lo,I,o,191,1,447.60000014305115,539733.2000000477,8012,WL,A,11.0
4,17.09499979019165,learn,42905.00020980835,Wed Jan 08 2025 11:15:13 GMT-0600 (Central Standard Time),540297.8000001907,A,log,I,g,94,1,564.6000001430511,539733.2000000477,8012,WL,A,11.0
4,17.32799983024597,learn,42672.00016975403,Wed Jan 08 2025 11:15:13 GMT-0600 (Central Standard Time),540530.8000001907,A,logenter,I,enter,225,1,797.6000001430511,539733.2000000477,8012,WL,A,11.0
4,17.67799997329712,learn,42322.00002670288,Wed Jan 08 2025 11:15:13 GMT-0600 (Central Standard Time),540881.100000143,A,b,I,b,328,1,350.10000014305115,540531.0,8012,WL,A,12.0
4,17.99399995803833,learn,42006.00004196167,Wed Jan 08 2025 11:15:13 GMT-0600 (Central Standard Time),541197.4000000954,A,bu,I,u,306,1,666.4000000953674,540531.0,8012,WL,A,12.0
4,18.16099977493286,learn,41839.00022506714,Wed Jan 08 2025 11:15:13 GMT-0600 (Central Standard Time),541364.100000143,A,but,I,t,158,1,833.1000001430511,540531.0,8012,WL,A,12.0
4,18.310999870300293,learn,41689.00012969971,Wed Jan 08 2025 11:15:13 GMT-0600 (Central Standard Time),541514.100000143,A,butt,I,t,127,1,983.1000001430511,540531.0,8012,WL,A,12.0
4,18.443999767303467,learn,41556.00023269653,Wed Jan 08 2025 11:15:13 GMT-0600 (Central Standard Time),541647.3000001907,A,butto,I,o,113,1,1116.3000001907349,540531.0,8012,WL,A,12.0
4,18.610999822616577,learn,41389.00017738342,Wed Jan 08 2025 11:15:13 GMT-0600 (Central Standard Time),541813.9000000954,A,button,I,n,155,1,1282.9000000953674,540531.0,8012,WL,A,12.0
4,18.977999925613403,learn,41022.0000743866,Wed Jan 08 2025 11:15:13 GMT-0600 (Central Standard Time),542180.600000143,A,buttonenter,I,enter,357,1,1649.6000001430511,540531.0,8012,WL,A,12.0
4,19.276999950408936,learn,40723.000049591064,Wed Jan 08 2025 11:15:13 GMT-0600 (Central Standard Time),542480.4000000954,A,k,I,k,279,1,299.5,542180.9000000954,8012,WL,A,13.0
4,19.41099977493286,learn,40589.00022506714,Wed Jan 08 2025 11:15:13 GMT-0600 (Central Standard Time),542613.600000143,A,ke,I,e,115,1,432.7000000476837,542180.9000000954,8012,WL,A,13.0
4,19.543999910354614,learn,40456.000089645386,Wed Jan 08 2025 11:15:13 GMT-0600 (Central Standard Time),542747.2000000477,A,key,I,y,117,1,566.2999999523163,542180.9000000954,8012,WL,A,13.0
4,19.99399995803833,learn,40006.00004196167,Wed Jan 08 2025 11:15:13 GMT-0600 (Central Standard Time),543196.9000000954,A,keyenter,I,enter,440,1,1016.0,542180.9000000954,8012,WL,A,13.0
4,20.460999965667725,learn,39539.000034332275,Wed Jan 08 2025 11:15:13 GMT-0600 (Central Standard Time),543663.5,A,r,I,r,454,1,466.19999980926514,543197.3000001907,8012,WL,A,14.0
4,20.626999855041504,learn,39373.000144958496,Wed Jan 08 2025 11:15:13 GMT-0600 (Central Standard Time),543829.9000000954,A,ra,I,a,147,1,632.5999999046326,543197.3000001907,8012,WL,A,14.0
4,20.74399995803833,learn,39256.00004196167,Wed Jan 08 2025 11:15:13 GMT-0600 (Central Standard Time),543946.600000143,A,rat,I,t,101,1,749.2999999523163,543197.3000001907,8012,WL,A,14.0
4,20.876999855041504,learn,39123.000144958496,Wed Jan 08 2025 11:15:13 GMT-0600 (Central Standard Time),544079.9000000954,A,ratt,I,t,120,1,882.5999999046326,543197.3000001907,8012,WL,A,14.0
4,21.009999990463257,learn,38990.00000953674,Wed Jan 08 2025 11:15:13 GMT-0600 (Central Standard Time),544213.3000001907,A,rattl,I,l,123,1,1016.0,543197.3000001907,8012,WL,A,14.0
4,21.144999980926514,learn,38855.000019073486,Wed Jan 08 2025 11:15:13 GMT-0600 (Central Standard Time),544347.7000000477,A,rattle,I,e,117,1,1150.3999998569489,543197.3000001907,8012,WL,A,14.0
4,21.492999792099,learn,38507.000207901,Wed Jan 08 2025 11:15:13 GMT-0600 (Central Standard Time),544696.2000000477,A,rattleenter,I,enter,327,1,1498.8999998569489,543197.3000001907,8012,WL,A,14.0
4,22.192999839782715,learn,37807.000160217285,Wed Jan 08 2025 11:15:13 GMT-0600 (Central Standard Time),545396.0,A,g,I,g,683,1,699.3999998569489,544696.600000143,8012,WL,A,15.0
4,22.30999994277954,learn,37690.00005722046,Wed Jan 08 2025 11:15:13 GMT-0600 (Central Standard Time),545512.9000000954,A,go,I,o,103,1,816.2999999523163,544696.600000143,8012,WL,A,15.0
4,22.492999792099,learn,37507.000207901,Wed Jan 08 2025 11:15:13 GMT-0600 (Central Standard Time),545696.2000000477,A,gol,I,l,171,1,999.5999999046326,544696.600000143,8012,WL,A,15.0
4,22.609999895095825,learn,37390.000104904175,Wed Jan 08 2025 11:15:13 GMT-0600 (Central Standard Time),545812.9000000954,A,gold,I,d,99,1,1116.2999999523163,544696.600000143,8012,WL,A,15.0
4,22.776999950408936,learn,37223.000049591064,Wed Jan 08 2025 11:15:13 GMT-0600 (Central Standard Time),545980.4000000954,A,goldenter,I,enter,158,1,1283.7999999523163,544696.600000143,8012,WL,A,15.0
5,0.7990000247955322,learn,60000.0,Wed Jan 08 2025 11:15:13 GMT-0600 (Central Standard Time),612458.600000143,A,b,I,b,792,1,799.7000000476837,611658.9000000954,8012,WL,A,1.0
5,1.0160000324249268,learn,60000.0,Wed Jan 08 2025 11:15:13 GMT-0600 (Central Standard Time),612675.3000001907,A,bo,I,o,200,1,1016.4000000953674,611658.9000000954,8012,WL,A,1.0
5,1.183000087738037,learn,60000.0,Wed Jan 08 2025 11:15:13 GMT-0600 (Central Standard Time),612841.7000000477,A,boo,I,o,144,1,1182.7999999523163,611658.9000000954,8012,WL,A,1.0
5,1.2660000324249268,learn,60000.0,Wed Jan 08 2025 11:15:13 GMT-0600 (Central Standard Time),612924.8000001907,A,book,I,k,73,1,1265.9000000953674,611658.9000000954,8012,WL,A,1.0
5,1.499000072479248,learn,60000.0,Wed Jan 08 2025 11:15:13 GMT-0600 (Central Standard Time),613158.2000000477,A,bookenter,I,enter,222,1,1499.2999999523163,611658.9000000954,8012,WL,A,1.0
5,2.0490000247955322,learn,60000.0,Wed Jan 08 2025 11:15:13 GMT-0600 (Central Standard Time),613708.2000000477,A,f,I,f,533,1,549.7000000476837,613158.5,8012,WL,A,2.0
5,2.199000120162964,learn,60000.0,Wed Jan 08 2025 11:15:13 GMT-0600 (Central Standard Time),613857.9000000954,A,fl,I,l,127,1,699.4000000953674,613158.5,8012,WL,A,2.0
5,2.365000009536743,learn,60000.0,Wed Jan 08 2025 11:15:13 GMT-0600 (Central Standard Time),614024.7000000477,A,flo,I,o,153,1,866.2000000476837,613158.5,8012,WL,A,2.0
5,2.4660000801086426,learn,60000.0,Wed Jan 08 2025 11:15:13 GMT-0600 (Central Standard Time),614124.8000001907,A,flow,I,w,92,1,966.3000001907349,613158.5,8012,WL,A,2.0
5,2.565000057220459,learn,60000.0,Wed Jan 08 2025 11:15:13 GMT-0600 (Central Standard Time),614224.600000143,A,flowe,I,e,86,1,1066.1000001430511,613158.5,8012,WL,A,2.0
5,2.6489999294281006,learn,60000.0,Wed Jan 08 2025 11:15:13 GMT-0600 (Central Standard Time),614307.9000000954,A,flower,I,r,66,1,1149.4000000953674,613158.5,8012,WL,A,2.0
5,2.815000057220459,learn,60000.0,Wed Jan 08 2025 11:15:13 GMT-0600 (Central Standard Time),614474.600000143,A,flowerenter,I,enter,159,1,1316.1000001430511,613158.5,8012,WL,A,2.0
5,3.0490000247955322,learn,60000.0,Wed Jan 08 2025 11:15:13 GMT-0600 (Central Standard Time),614707.7000000477,A,t,I,t,225,1,232.89999985694885,614474.8000001907,8012,WL,A,3.0
5,3.265000104904175,learn,60000.0,Wed Jan 08 2025 11:15:13 GMT-0600 (Central Standard Time),614924.5,A,tr,I,r,200,1,449.69999980926514,614474.8000001907,8012,WL,A,3.0
5,3.365999937057495,learn,60000.0,Wed Jan 08 2025 11:15:13 GMT-0600 (Central Standard Time),615025.5,A,tra,I,a,87,1,550.6999998092651,614474.8000001907,8012,WL,A,3.0
5,3.5480000972747803,learn,60000.0,Wed Jan 08 2025 11:15:13 GMT-0600 (Central Standard Time),615207.600000143,A,trai,I,i,170,1,732.7999999523163,614474.8000001907,8012,WL,A,3.0
5,3.7320001125335693,learn,60000.0,Wed Jan 08 2025 11:15:13 GMT-0600 (Central Standard Time),615391.0,A,train,I,n,172,1,916.1999998092651,614474.8000001907,8012,WL,A,3.0
5,4.015000104904175,learn,60000.0,Wed Jan 08 2025 11:15:13 GMT-0600 (Central Standard Time),615674.2000000477,A,trainenter,I,enter,260,1,1199.3999998569489,614474.8000001907,8012,WL,A,3.0
5,4.447999954223633,learn,60000.0,Wed Jan 08 2025 11:15:13 GMT-0600 (Central Standard Time),616107.5,A,r,I,r,417,1,432.69999980926514,615674.8000001907,8012,WL,A,4.0
5,4.680999994277954,learn,60000.0,Wed Jan 08 2025 11:15:13 GMT-0600 (Central Standard Time),616340.600000143,A,ru,I,u,224,1,665.7999999523163,615674.8000001907,8012,WL,A,4.0
5,4.898000001907349,learn,60000.0,Wed Jan 08 2025 11:15:13 GMT-0600 (Central Standard Time),616557.3000001907,A,rug,I,g,198,1,882.5,615674.8000001907,8012,WL,A,4.0
5,5.081000089645386,learn,60000.0,Wed Jan 08 2025 11:15:13 GMT-0600 (Central Standard Time),616740.4000000954,A,rugenter,I,enter,165,1,1065.5999999046326,615674.8000001907,8012,WL,A,4.0
5,5.398000001907349,learn,60000.0,Wed Jan 08 2025 11:15:13 GMT-0600 (Central Standard Time),617057.100000143,A,m,I,m,294,1,316.2999999523163,616740.8000001907,8012,WL,A,5.0
5,5.498000144958496,learn,60000.0,Wed Jan 08 2025 11:15:13 GMT-0600 (Central Standard Time),617157.100000143,A,me,I,e,90,1,416.2999999523163,616740.8000001907,8012,WL,A,5.0
5,5.581000089645386,learn,60000.0,Wed Jan 08 2025 11:15:13 GMT-0600 (Central Standard Time),617240.2000000477,A,mea,I,a,70,1,499.39999985694885,616740.8000001907,8012,WL,A,5.0
5,5.730999946594238,learn,60000.0,Wed Jan 08 2025 11:15:13 GMT-0600 (Central Standard Time),617390.3000001907,A,mead,I,d,131,1,649.5,616740.8000001907,8012,WL,A,5.0
5,5.914999961853027,learn,60000.0,Wed Jan 08 2025 11:15:13 GMT-0600 (Central Standard Time),617573.8000001907,A,meado,I,o,165,1,833.0,616740.8000001907,8012,WL,A,5.0
5,6.064000129699707,learn,60000.0,Wed Jan 08 2025 11:15:13 GMT-0600 (Central Standard Time),617723.5,A,meadow,I,w,142,1,982.6999998092651,616740.8000001907,8012,WL,A,5.0
5,6.5980000495910645,learn,60000.0,Wed Jan 08 2025 11:15:13 GMT-0600 (Central Standard Time),618256.8000001907,A,meadowenter,I,enter,519,1,1516.0,616740.8000001907,8012,WL,A,5.0
5,7.081000089645386,learn,60000.0,Wed Jan 08 2025 11:15:13 GMT-0600 (Central Standard Time),618739.8000001907,A,h,I,h,466,1,482.60000014305115,618257.2000000477,8012,WL,A,6.0
5,7.281000137329102,learn,60000.0,Wed Jan 08 2025 11:15:13 GMT-0600 (Central Standard Time),618940.0,A,ha,I,a,183,1,682.7999999523163,618257.2000000477,8012,WL,A,6.0
5,7.414000034332275,learn,60000.0,Wed Jan 08 2025 11:15:13 GMT-0600 (Central Standard Time),619073.2000000477,A,har,I,r,119,1,816.0,618257.2000000477,8012,WL,A,6.0
5,7.630000114440918,learn,60000.0,Wed Jan 08 2025 11:15:13 GMT-0600 (Central Standard Time),619289.4000000954,A,harp,I,p,202,1,1032.2000000476837,618257.2000000477,8012,WL,A,6.0
5,9.630000114440918,learn,60000.0,Wed Jan 08 2025 11:15:13 GMT-0600 (Central Standard Time),621289.100000143,A,harpenter,I,enter,1978,1,3031.9000000953674,618257.2000000477,8012,WL,A,6.0
5,11.146000146865845,learn,60000.0,Wed Jan 08 2025 11:15:13 GMT-0600 (Central Standard Time),622805.3000001907,A,f,I,f,1499,1,1515.9000000953674,621289.4000000954,8012,WL,A,7.0
5,11.296000003814697,learn,60000.0,Wed Jan 08 2025 11:15:13 GMT-0600 (Central Standard Time),622955.100000143,A,fi,I,i,143,1,1665.7000000476837,621289.4000000954,8012,WL,A,7.0
5,11.413000106811523,learn,60000.0,Wed Jan 08 2025 11:15:13 GMT-0600 (Central Standard Time),623071.8000001907,A,fin,I,n,104,1,1782.4000000953674,621289.4000000954,8012,WL,A,7.0
5,11.546000003814697,learn,60000.0,Wed Jan 08 2025 11:15:13 GMT-0600 (Central Standard Time),623205.2000000477,A,fing,I,g,115,1,1915.7999999523163,621289.4000000954,8012,WL,A,7.0
5,11.712000131607056,learn,60000.0,Wed Jan 08 2025 11:15:13 GMT-0600 (Central Standard Time),623371.5,A,finge,I,e,158,1,2082.0999999046326,621289.4000000954,8012,WL,A,7.0
5,11.812000036239624,learn,60000.0,Wed Jan 08 2025 11:15:13 GMT-0600 (Central Standard Time),623471.600000143,A,finger,I,r,80,1,2182.2000000476837,621289.4000000954,8012,WL,A,7.0
5,12.146000146865845,learn,60000.0,Wed Jan 08 2025 11:15:13 GMT-0600 (Central Standard Time),623805.100000143,A,fingerenter,I,enter,315,1,2515.7000000476837,621289.4000000954,8012,WL,A,7.0
5,12.496000051498413,learn,60000.0,Wed Jan 08 2025 11:15:13 GMT-0600 (Central Standard Time),624154.8000001907,A,s,I,s,342,1,349.40000009536743,623805.4000000954,8012,WL,A,8.0
5,12.595999956130981,learn,60000.0,Wed Jan 08 2025 11:15:13 GMT-0600 (Central Standard Time),624254.8000001907,A,sa,I,a,81,1,449.40000009536743,623805.4000000954,8012,WL,A,8.0
5,12.76200008392334,learn,60000.0,Wed Jan 08 2025 11:15:13 GMT-0600 (Central Standard Time),624421.600000143,A,sal,I,l,148,1,616.2000000476837,623805.4000000954,8012,WL,A,8.0
5,12.962000131607056,learn,60000.0,Wed Jan 08 2025 11:15:13 GMT-0600 (Central Standard Time),624621.4000000954,A,salt,I,t,181,1,816.0,623805.4000000954,8012,WL,A,8.0
5,13.479000091552734,learn,60000.0,Wed Jan 08 2025 11:15:13 GMT-0600 (Central Standard Time),625137.7000000477,A,saltenter,I,enter,502,1,1332.2999999523163,623805.4000000954,8012,WL,A,8.0
5,13.745000123977661,learn,60000.0,Wed Jan 08 2025 11:15:13 GMT-0600 (Central Standard Time),625404.3000001907,A,a,I,a,249,1,266.2000000476837,625138.100000143,8012,WL,A,9.0
5,13.878000020980835,learn,60000.0,Wed Jan 08 2025 11:15:13 GMT-0600 (Central Standard Time),625537.7000000477,A,ap,I,p,111,1,399.59999990463257,625138.100000143,8012,WL,A,9.0
5,14.028000116348267,learn,60000.0,Wed Jan 08 2025 11:15:13 GMT-0600 (Central Standard Time),625687.600000143,A,app,I,p,137,1,549.5,625138.100000143,8012,WL,A,9.0
5,14.128000020980835,learn,60000.0,Wed Jan 08 2025 11:15:13 GMT-0600 (Central Standard Time),625787.7000000477,A,appl,I,l,84,1,649.5999999046326,625138.100000143,8012,WL,A,9.0
5,14.528000116348267,learn,60000.0,Wed Jan 08 2025 11:15:13 GMT-0600 (Central Standard Time),626187.3000001907,A,apple,I,e,391,1,1049.2000000476837,625138.100000143,8012,WL,A,9.0
5,15.194999933242798,learn,60000.0,Wed Jan 08 2025 11:15:13 GMT-0600 (Central Standard Time),626854.0,A,appleenter,I,enter,648,1,1715.8999998569489,625138.100000143,8012,WL,A,9.0
5,15.561000108718872,learn,60000.0,Wed Jan 08 2025 11:15:13 GMT-0600 (Central Standard Time),627220.4000000954,A,c,I,c,350,1,366.09999990463257,626854.3000001907,8012,WL,A,10.0
5,15.67799997329712,learn,60000.0,Wed Jan 08 2025 11:15:13 GMT-0600 (Central Standard Time),627337.100000143,A,ch,I,h,103,1,482.7999999523163,626854.3000001907,8012,WL,A,10.0
5,15.811000108718872,learn,60000.0,Wed Jan 08 2025 11:15:13 GMT-0600 (Central Standard Time),627470.4000000954,A,chi,I,i,122,1,616.0999999046326,626854.3000001907,8012,WL,A,10.0
5,15.92799997329712,learn,60000.0,Wed Jan 08 2025 11:15:13 GMT-0600 (Central Standard Time),627587.100000143,A,chim,I,m,101,1,732.7999999523163,626854.3000001907,8012,WL,A,10.0
5,16.210999965667725,learn,60000.0,Wed Jan 08 2025 11:15:13 GMT-0600 (Central Standard Time),627870.3000001907,A,chimn,I,n,264,1,1016.0,626854.3000001907,8012,WL,A,10.0
5,16.34500002861023,learn,60000.0,Wed Jan 08 2025 11:15:13 GMT-0600 (Central Standard Time),628004.5,A,chimne,I,e,125,1,1150.1999998092651,626854.3000001907,8012,WL,A,10.0
5,16.49399995803833,learn,60000.0,Wed Jan 08 2025 11:15:13 GMT-0600 (Central Standard Time),628153.600000143,A,chimney,I,y,134,1,1299.2999999523163,626854.3000001907,8012,WL,A,10.0
5,17.3270001411438,learn,60000.0,Wed Jan 08 2025 11:15:13 GMT-0600 (Central Standard Time),628986.5,A,chimneyenter,I,enter,810,1,2132.199999809265,626854.3000001907,8012,WL,A,10.0
5,18.210000038146973,learn,60000.0,Wed Jan 08 2025 11:15:13 GMT-0600 (Central Standard Time),629869.7000000477,A,b,I,b,873,1,882.8999998569489,628986.8000001907,8012,WL,A,11.0
5,18.39400005340576,learn,60000.0,Wed Jan 08 2025 11:15:13 GMT-0600 (Central Standard Time),630053.3000001907,A,bu,I,u,165,1,1066.5,628986.8000001907,8012,WL,A,11.0
5,18.49399995803833,learn,60000.0,Wed Jan 08 2025 11:15:13 GMT-0600 (Central Standard Time),630153.100000143,A,but,I,t,78,1,1166.2999999523163,628986.8000001907,8012,WL,A,11.0
5,18.627000093460083,learn,60000.0,Wed Jan 08 2025 11:15:13 GMT-0600 (Central Standard Time),630286.3000001907,A,butt,I,t,114,1,1299.5,628986.8000001907,8012,WL,A,11.0
5,18.794000148773193,learn,60000.0,Wed Jan 08 2025 11:15:13 GMT-0600 (Central Standard Time),630452.8000001907,A,butto,I,o,149,1,1466.0,628986.8000001907,8012,WL,A,11.0
5,19.294000148773193,learn,60000.0,Wed Jan 08 2025 11:15:13 GMT-0600 (Central Standard Time),630952.8000001907,A,button,I,n,478,1,1966.0,628986.8000001907,8012,WL,A,11.0
5,19.776999950408936,learn,60000.0,Wed Jan 08 2025 11:15:13 GMT-0600 (Central Standard Time),631436.0,A,buttonenter,I,enter,467,1,2449.199999809265,628986.8000001907,8012,WL,A,11.0
5,20.16000008583069,learn,60000.0,Wed Jan 08 2025 11:15:13 GMT-0600 (Central Standard Time),631818.8000001907,A,l,I,l,375,1,382.5,631436.3000001907,8012,WL,A,12.0
5,20.342999935150146,learn,60000.0,Wed Jan 08 2025 11:15:13 GMT-0600 (Central Standard Time),632002.5,A,lo,I,o,176,1,566.1999998092651,631436.3000001907,8012,WL,A,12.0
5,20.509999990463257,learn,60000.0,Wed Jan 08 2025 11:15:13 GMT-0600 (Central Standard Time),632168.9000000954,A,log,I,g,153,1,732.5999999046326,631436.3000001907,8012,WL,A,12.0
5,21.009999990463257,learn,60000.0,Wed Jan 08 2025 11:15:13 GMT-0600 (Central Standard Time),632668.8000001907,A,logenter,I,enter,482,1,1232.5,631436.3000001907,8012,WL,A,12.0
5,21.743000030517578,learn,60000.0,Wed Jan 08 2025 11:15:13 GMT-0600 (Central Standard Time),633402.0,A,k,I,k,718,1,732.8999998569489,632669.100000143,8012,WL,A,13.0
5,21.960000038146973,learn,60000.0,Wed Jan 08 2025 11:15:13 GMT-0600 (Central Standard Time),633618.8000001907,A,ke,I,e,193,1,949.7000000476837,632669.100000143,8012,WL,A,13.0
5,22.125999927520752,learn,60000.0,Wed Jan 08 2025 11:15:13 GMT-0600 (Central Standard Time),633785.3000001907,A,key,I,y,153,1,1116.2000000476837,632669.100000143,8012,WL,A,13.0
5,23.14199995994568,learn,60000.0,Wed Jan 08 2025 11:15:13 GMT-0600 (Central Standard Time),634801.3000001907,A,keyenter,I,enter,1001,1,2132.2000000476837,632669.100000143,8012,WL,A,13.0
5,23.54200005531311,learn,60000.0,Wed Jan 08 2025 11:15:13 GMT-0600 (Central Standard Time),635201.3000001907,A,r,I,r,378,1,399.60000014305115,634801.7000000477,8012,WL,A,14.0
5,23.70900011062622,learn,60000.0,Wed Jan 08 2025 11:15:13 GMT-0600 (Central Standard Time),635368.0,A,ra,I,a,154,1,566.2999999523163,634801.7000000477,8012,WL,A,14.0
5,23.842000007629395,learn,60000.0,Wed Jan 08 2025 11:15:13 GMT-0600 (Central Standard Time),635501.2000000477,A,rat,I,t,115,1,699.5,634801.7000000477,8012,WL,A,14.0
5,23.992000102996826,learn,60000.0,Wed Jan 08 2025 11:15:13 GMT-0600 (Central Standard Time),635650.9000000954,A,ratt,I,t,142,1,849.2000000476837,634801.7000000477,8012,WL,A,14.0
5,24.259000062942505,learn,60000.0,Wed Jan 08 2025 11:15:13 GMT-0600 (Central Standard Time),635917.7000000477,A,rattl,I,l,248,1,1116.0,634801.7000000477,8012,WL,A,14.0
5,24.475000143051147,learn,60000.0,Wed Jan 08 2025 11:15:13 GMT-0600 (Central Standard Time),636134.5,A,rattle,I,e,197,1,1332.7999999523163,634801.7000000477,8012,WL,A,14.0
5,24.674999952316284,learn,60000.0,Wed Jan 08 2025 11:15:13 GMT-0600 (Central Standard Time),636334.3000001907,A,rattleenter,I,enter,180,1,1532.6000001430511,634801.7000000477,8012,WL,A,14.0
5,24.95799994468689,learn,60000.0,Wed Jan 08 2025 11:15:13 GMT-0600 (Central Standard Time),636617.600000143,A,g,I,g,269,1,282.90000009536743,636334.7000000477,8012,WL,A,15.0
5,25.10800004005432,learn,60000.0,Wed Jan 08 2025 11:15:13 GMT-0600 (Central Standard Time),636767.3000001907,A,go,I,o,138,1,432.60000014305115,636334.7000000477,8012,WL,A,15.0
5,25.325000047683716,learn,60000.0,Wed Jan 08 2025 11:15:13 GMT-0600 (Central Standard Time),636984.2000000477,A,gol,I,l,196,1,649.5,636334.7000000477,8012,WL,A,15.0
5,25.475000143051147,learn,60000.0,Wed Jan 08 2025 11:15:13 GMT-0600 (Central Standard Time),637134.2000000477,A,gold,I,d,131,1,799.5,636334.7000000477,8012,WL,A,15.0
5,25.70799994468689,learn,60000.0,Wed Jan 08 2025 11:15:13 GMT-0600 (Central Standard Time),637367.4000000954,A,goldenter,I,enter,213,1,1032.7000000476837,636334.7000000477,8012,WL,A,15.0
6,1.0160000324249268,distr,58983.99996757507,Wed Jan 08 2025 11:15:13 GMT-0600 (Central Standard Time),707495.5,B,b,I,b,996,1,1016.1999998092651,706479.3000001907,8012,WL,A,1.0
6,1.2330000400543213,distr,58766.99995994568,Wed Jan 08 2025 11:15:13 GMT-0600 (Central Standard Time),707712.100000143,B,bo,I,o,195,1,1232.7999999523163,706479.3000001907,8012,WL,A,1.0
6,1.3660001754760742,distr,58633.999824523926,Wed Jan 08 2025 11:15:13 GMT-0600 (Central Standard Time),707845.4000000954,B,bow,I,w,115,1,1366.0999999046326,706479.3000001907,8012,WL,A,1.0
6,1.5490000247955322,distr,58450.99997520447,Wed Jan 08 2025 11:15:13 GMT-0600 (Central Standard Time),708028.5,B,bowl,I,l,165,1,1549.1999998092651,706479.3000001907,8012,WL,A,1.0
6,2.2990000247955322,distr,57700.99997520447,Wed Jan 08 2025 11:15:13 GMT-0600 (Central Standard Time),708778.3000001907,B,bowlenter,I,enter,735,1,2299.0,706479.3000001907,8012,WL,A,1.0
6,2.9150002002716064,distr,57084.99979972839,Wed Jan 08 2025 11:15:13 GMT-0600 (Central Standard Time),709394.7000000477,B,d,I,d,609,1,616.0,708778.7000000477,8012,WL,A,2.0
6,3.065000057220459,distr,56934.99994277954,Wed Jan 08 2025 11:15:13 GMT-0600 (Central Standard Time),709544.7000000477,B,da,I,a,137,1,766.0,708778.7000000477,8012,WL,A,2.0
6,3.365000009536743,distr,56634.99999046326,Wed Jan 08 2025 11:15:13 GMT-0600 (Central Standard Time),709844.600000143,B,daw,I,w,282,1,1065.9000000953674,708778.7000000477,8012,WL,A,2.0
6,3.8490002155303955,distr,56150.999784469604,Wed Jan 08 2025 11:15:13 GMT-0600 (Central Standard Time),710328.2000000477,B,dawn,I,n,460,1,1549.5,708778.7000000477,8012,WL,A,2.0
6,4.3480000495910645,distr,55651.999950408936,Wed Jan 08 2025 11:15:13 GMT-0600 (Central Standard Time),710828.0,B,dawnenter,I,enter,483,1,2049.2999999523163,708778.7000000477,8012,WL,A,2.0
6,4.648000001907349,distr,55351.99999809265,Wed Jan 08 2025 11:15:13 GMT-0600 (Central Standard Time),711127.7000000477,B,j,I,j,279,1,299.39999985694885,710828.3000001907,8012,WL,A,3.0
6,4.8480000495910645,distr,55151.999950408936,Wed Jan 08 2025 11:15:13 GMT-0600 (Central Standard Time),711327.600000143,B,ju,I,u,187,1,499.2999999523163,710828.3000001907,8012,WL,A,3.0
6,4.981000185012817,distr,55018.99981498718,Wed Jan 08 2025 11:15:13 GMT-0600 (Central Standard Time),711460.8000001907,B,jud,I,d,123,1,632.5,710828.3000001907,8012,WL,A,3.0
6,5.148000001907349,distr,54851.99999809265,Wed Jan 08 2025 11:15:13 GMT-0600 (Central Standard Time),711627.3000001907,B,judg,I,g,150,1,799.0,710828.3000001907,8012,WL,A,3.0
6,5.281000137329102,distr,54718.9998626709,Wed Jan 08 2025 11:15:13 GMT-0600 (Central Standard Time),711760.7000000477,B,judge,I,e,120,1,932.3999998569489,710828.3000001907,8012,WL,A,3.0
6,5.96399998664856,distr,54036.00001335144,Wed Jan 08 2025 11:15:13 GMT-0600 (Central Standard Time),712443.8000001907,B,judgeenter,I,enter,667,1,1615.5,710828.3000001907,8012,WL,A,3.0
6,7.746999979019165,distr,52253.000020980835,Wed Jan 08 2025 11:15:13 GMT-0600 (Central Standard Time),714226.7000000477,B,i,I,i,1759,1,1782.7000000476837,712444.0,8012,WL,A,4.0
6,7.864000082015991,distr,52135.99991798401,Wed Jan 08 2025 11:15:13 GMT-0600 (Central Standard Time),714343.5,B,in,I,n,96,1,1899.5,712444.0,8012,WL,A,4.0
6,8.749000072479248,distr,51250.99992752075,Wed Jan 08 2025 11:15:13 GMT-0600 (Central Standard Time),715228.3000001907,B,ins,I,s,878,1,2784.300000190735,712444.0,8012,WL,A,4.0
6,8.930000066757202,distr,51069.9999332428,Wed Jan 08 2025 11:15:13 GMT-0600 (Central Standard Time),715409.4000000954,B,inse,I,e,159,1,2965.4000000953674,712444.0,8012,WL,A,4.0
6,9.047000169754028,distr,50952.99983024597,Wed Jan 08 2025 11:15:13 GMT-0600 (Central Standard Time),715526.3000001907,B,insec,I,c,105,1,3082.300000190735,712444.0,8012,WL,A,4.0
6,9.796000003814697,distr,50203.9999961853,Wed Jan 08 2025 11:15:13 GMT-0600 (Central Standard Time),716275.9000000954,B,insect,I,t,740,1,3831.9000000953674,712444.0,8012,WL,A,4.0
6,12.479000091552734,distr,47520.999908447266,Wed Jan 08 2025 11:15:13 GMT-0600 (Central Standard Time),718958.5,B,insectenter,I,enter,2663,1,6514.5,712444.0,8012,WL,A,4.0
6,14.144999980926514,distr,45855.000019073486,Wed Jan 08 2025 11:15:13 GMT-0600 (Central Standard Time),720624.5,B,p,I,p,1645,1,1665.6999998092651,718958.8000001907,8012,WL,A,5.0
6,14.228000164031982,distr,45771.99983596802,Wed Jan 08 2025 11:15:13 GMT-0600 (Central Standard Time),720708.2000000477,B,pl,I,l,67,1,1749.3999998569489,718958.8000001907,8012,WL,A,5.0
6,14.445000171661377,distr,45554.99982833862,Wed Jan 08 2025 11:15:13 GMT-0600 (Central Standard Time),720924.8000001907,B,pla,I,a,200,1,1966.0,718958.8000001907,8012,WL,A,5.0
6,14.66100001335144,distr,45338.99998664856,Wed Jan 08 2025 11:15:13 GMT-0600 (Central Standard Time),721141.0,B,plan,I,n,206,1,2182.199999809265,718958.8000001907,8012,WL,A,5.0
6,14.811000108718872,distr,45188.99989128113,Wed Jan 08 2025 11:15:13 GMT-0600 (Central Standard Time),721290.9000000954,B,plane,I,e,142,1,2332.0999999046326,718958.8000001907,8012,WL,A,5.0
6,15.495000123977661,distr,44504.99987602234,Wed Jan 08 2025 11:15:13 GMT-0600 (Central Standard Time),721974.3000001907,B,planeenter,I,enter,672,1,3015.5,718958.8000001907,8012,WL,A,5.0
6,15.82800006866455,distr,44171.99993133545,Wed Jan 08 2025 11:15:13 GMT-0600 (Central Standard Time),722307.100000143,B,c,I,c,325,1,332.40000009536743,721974.7000000477,8012,WL,A,6.0
6,15.978000164031982,distr,44021.99983596802,Wed Jan 08 2025 11:15:13 GMT-0600 (Central Standard Time),722457.4000000954,B,co,I,o,128,1,482.7000000476837,721974.7000000477,8012,WL,A,6.0
6,16.111000061035156,distr,43888.999938964844,Wed Jan 08 2025 11:15:13 GMT-0600 (Central Standard Time),722590.600000143,B,cou,I,u,114,1,615.9000000953674,721974.7000000477,8012,WL,A,6.0
6,16.3270001411438,distr,43672.9998588562,Wed Jan 08 2025 11:15:13 GMT-0600 (Central Standard Time),722807.100000143,B,coun,I,n,204,1,832.4000000953674,721974.7000000477,8012,WL,A,6.0
6,16.528000116348267,distr,43471.99988365173,Wed Jan 08 2025 11:15:13 GMT-0600 (Central Standard Time),723007.2000000477,B,count,I,t,180,1,1032.5,721974.7000000477,8012,WL,A,6.0
6,16.778000116348267,distr,43221.99988365173,Wed Jan 08 2025 11:15:13 GMT-0600 (Central Standard Time),723257.2000000477,B,county,I,y,228,1,1282.5,721974.7000000477,8012,WL,A,6.0
6,17.99400019645691,distr,42005.99980354309,Wed Jan 08 2025 11:15:13 GMT-0600 (Central Standard Time),724473.5,B,countyenter,I,enter,1202,1,2498.7999999523163,721974.7000000477,8012,WL,A,6.0
6,19.127000093460083,distr,40872.99990653992,Wed Jan 08 2025 11:15:13 GMT-0600 (Central Standard Time),725606.3000001907,B,s,I,s,1113,1,1132.4000000953674,724473.9000000954,8012,WL,A,7.0
6,19.31000018119812,distr,40689.99981880188,Wed Jan 08 2025 11:15:13 GMT-0600 (Central Standard Time),725789.600000143,B,sh,I,h,173,1,1315.7000000476837,724473.9000000954,8012,WL,A,7.0
6,19.460000038146973,distr,40539.99996185303,Wed Jan 08 2025 11:15:13 GMT-0600 (Central Standard Time),725939.600000143,B,she,I,e,134,1,1465.7000000476837,724473.9000000954,8012,WL,A,7.0
6,19.593000173568726,distr,40406.999826431274,Wed Jan 08 2025 11:15:13 GMT-0600 (Central Standard Time),726073.100000143,B,shee,I,e,119,1,1599.2000000476837,724473.9000000954,8012,WL,A,7.0
6,20.076000213623047,distr,39923.99978637695,Wed Jan 08 2025 11:15:13 GMT-0600 (Central Standard Time),726556.100000143,B,sheep,I,p,474,1,2082.2000000476837,724473.9000000954,8012,WL,A,7.0
6,20.527000188827515,distr,39472.999811172485,Wed Jan 08 2025 11:15:13 GMT-0600 (Central Standard Time),727006.2000000477,B,sheepenter,I,enter,431,1,2532.2999999523163,724473.9000000954,8012,WL,A,7.0
6,20.826000213623047,distr,39173.99978637695,Wed Jan 08 2025 11:15:13 GMT-0600 (Central Standard Time),727305.9000000954,B,c,I,c,277,1,299.2999999523163,727006.600000143,8012,WL,A,8.0
6,20.943000078201294,distr,39056.999921798706,Wed Jan 08 2025 11:15:13 GMT-0600 (Central Standard Time),727422.3000001907,B,co,I,o,105,1,415.7000000476837,727006.600000143,8012,WL,A,8.0
6,21.110000133514404,distr,38889.999866485596,Wed Jan 08 2025 11:15:13 GMT-0600 (Central Standard Time),727589.2000000477,B,coa,I,a,157,1,582.5999999046326,727006.600000143,8012,WL,A,8.0
6,21.243000030517578,distr,38756.99996948242,Wed Jan 08 2025 11:15:13 GMT-0600 (Central Standard Time),727722.4000000954,B,coat,I,t,126,1,715.7999999523163,727006.600000143,8012,WL,A,8.0
6,22.55900001525879,distr,37440.99998474121,Wed Jan 08 2025 11:15:13 GMT-0600 (Central Standard Time),729038.600000143,B,coatenter,I,enter,1305,1,2032.0,727006.600000143,8012,WL,A,8.0
6,29.59000015258789,distr,30409.99984741211,Wed Jan 08 2025 11:15:13 GMT-0600 (Central Standard Time),736069.7000000477,B,p,I,p,7020,1,7030.799999952316,729038.9000000954,8012,WL,A,9.0
6,29.740000009536743,distr,30259.999990463257,Wed Jan 08 2025 11:15:13 GMT-0600 (Central Standard Time),736219.8000001907,B,pe,I,e,133,1,7180.900000095367,729038.9000000954,8012,WL,A,9.0
6,29.823000192642212,distr,30176.999807357788,Wed Jan 08 2025 11:15:13 GMT-0600 (Central Standard Time),736303.100000143,B,pea,I,a,63,1,7264.200000047684,729038.9000000954,8012,WL,A,9.0
6,29.94000005722046,distr,30059.99994277954,Wed Jan 08 2025 11:15:13 GMT-0600 (Central Standard Time),736419.5,B,pear,I,r,108,1,7380.599999904633,729038.9000000954,8012,WL,A,9.0
6,30.073000192642212,distr,29926.999807357788,Wed Jan 08 2025 11:15:13 GMT-0600 (Central Standard Time),736553.100000143,B,pearenter,I,enter,112,1,7514.200000047684,729038.9000000954,8012,WL,A,9.0
6,37.771000146865845,distr,22228.999853134155,Wed Jan 08 2025 11:15:13 GMT-0600 (Central Standard Time),744250.600000143,B,g,I,g,7675,1,7697.200000047684,736553.4000000954,8012,WL,A,10.0
6,38.004000186920166,distr,21995.999813079834,Wed Jan 08 2025 11:15:13 GMT-0600 (Central Standard Time),744483.600000143,B,gr,I,r,224,1,7930.200000047684,736553.4000000954,8012,WL,A,10.0
6,38.104000091552734,distr,21895.999908447266,Wed Jan 08 2025 11:15:13 GMT-0600 (Central Standard Time),744584.0,B,gra,I,a,87,1,8030.599999904633,736553.4000000954,8012,WL,A,10.0
6,38.337000131607056,distr,21662.999868392944,Wed Jan 08 2025 11:15:13 GMT-0600 (Central Standard Time),744816.9000000954,B,gran,I,n,219,1,8263.5,736553.4000000954,8012,WL,A,10.0
6,38.47100019454956,distr,21528.99980545044,Wed Jan 08 2025 11:15:13 GMT-0600 (Central Standard Time),744950.5,B,grant,I,t,122,1,8397.099999904633,736553.4000000954,8012,WL,A,10.0
6,38.754000186920166,distr,21245.999813079834,Wed Jan 08 2025 11:15:13 GMT-0600 (Central Standard Time),745233.4000000954,B,grantenter,I,enter,261,1,8680.0,736553.4000000954,8012,WL,A,10.0
6,41.670000076293945,distr,18329.999923706055,Wed Jan 08 2025 11:15:13 GMT-0600 (Central Standard Time),748149.4000000954,B,p,I,p,2906,1,2915.5999999046326,745233.8000001907,8012,WL,A,11.0
6,41.90300011634827,distr,18096.999883651733,Wed Jan 08 2025 11:15:13 GMT-0600 (Central Standard Time),748382.5,B,po,I,o,213,1,3148.699999809265,745233.8000001907,8012,WL,A,11.0
6,42.03600001335144,distr,17963.99998664856,Wed Jan 08 2025 11:15:13 GMT-0600 (Central Standard Time),748515.8000001907,B,poo,I,o,125,1,3282.0,745233.8000001907,8012,WL,A,11.0
6,42.236000061035156,distr,17763.999938964844,Wed Jan 08 2025 11:15:13 GMT-0600 (Central Standard Time),748715.8000001907,B,pool,I,l,191,1,3482.0,745233.8000001907,8012,WL,A,11.0
6,42.53600001335144,distr,17463.99998664856,Wed Jan 08 2025 11:15:13 GMT-0600 (Central Standard Time),749015.9000000954,B,poolenter,I,enter,287,1,3782.0999999046326,745233.8000001907,8012,WL,A,11.0
6,60.015000104904175,distr,-15.000104904174805,Wed Jan 08 2025 11:15:13 GMT-0600 (Central Standard Time),766494.5,B,None,I,None,17471,1,17478.0,749016.5,8012,WL,A,12.0
7,1.0940001010894775,immed,58905.99989891052,Wed Jan 08 2025 11:15:13 GMT-0600 (Central Standard Time),785849.0,A,b,I,b,1087,1,1094.2999999523163,784754.7000000477,8012,WL,A,1.0
7,1.3489999771118164,immed,58651.00002288818,Wed Jan 08 2025 11:15:13 GMT-0600 (Central Standard Time),786103.8000001907,A,bo,I,o,230,1,1349.1000001430511,784754.7000000477,8012,WL,A,1.0
7,1.499000072479248,immed,58500.99992752075,Wed Jan 08 2025 11:15:13 GMT-0600 (Central Standard Time),786254.2000000477,A,boo,I,o,140,1,1499.5,784754.7000000477,8012,WL,A,1.0
7,1.6159999370574951,immed,58384.000062942505,Wed Jan 08 2025 11:15:13 GMT-0600 (Central Standard Time),786370.5,A,book,I,k,101,1,1615.7999999523163,784754.7000000477,8012,WL,A,1.0
7,2.8320000171661377,immed,57167.99998283386,Wed Jan 08 2025 11:15:13 GMT-0600 (Central Standard Time),787586.9000000954,A,bookenter,I,enter,1208,1,2832.2000000476837,784754.7000000477,8012,WL,A,1.0
7,3.181999921798706,immed,56818.000078201294,Wed Jan 08 2025 11:15:13 GMT-0600 (Central Standard Time),787936.9000000954,A,f,I,f,328,1,349.7000000476837,787587.2000000477,8012,WL,A,2.0
7,3.2990000247955322,immed,56700.99997520447,Wed Jan 08 2025 11:15:13 GMT-0600 (Central Standard Time),788053.5,A,fl,I,l,106,1,466.2999999523163,787587.2000000477,8012,WL,A,2.0
7,3.4820001125335693,immed,56517.99988746643,Wed Jan 08 2025 11:15:13 GMT-0600 (Central Standard Time),788236.7000000477,A,flo,I,o,174,1,649.5,787587.2000000477,8012,WL,A,2.0
7,3.5820000171661377,immed,56417.99998283386,Wed Jan 08 2025 11:15:13 GMT-0600 (Central Standard Time),788336.7000000477,A,flow,I,w,86,1,749.5,787587.2000000477,8012,WL,A,2.0
7,3.681999921798706,immed,56318.000078201294,Wed Jan 08 2025 11:15:13 GMT-0600 (Central Standard Time),788436.600000143,A,flowe,I,e,90,1,849.4000000953674,787587.2000000477,8012,WL,A,2.0
7,3.765000104904175,immed,56234.999895095825,Wed Jan 08 2025 11:15:13 GMT-0600 (Central Standard Time),788520.0,A,flower,I,r,63,1,932.7999999523163,787587.2000000477,8012,WL,A,2.0
7,4.449000120162964,immed,55550.999879837036,Wed Jan 08 2025 11:15:13 GMT-0600 (Central Standard Time),789204.2000000477,A,flowerenter,I,enter,674,1,1617.0,787587.2000000477,8012,WL,A,2.0
7,5.997999906539917,immed,54002.00009346008,Wed Jan 08 2025 11:15:13 GMT-0600 (Central Standard Time),790752.600000143,A,t,I,t,1527,1,1548.1000001430511,789204.5,8012,WL,A,3.0
7,6.21399998664856,immed,53786.00001335144,Wed Jan 08 2025 11:15:13 GMT-0600 (Central Standard Time),790969.100000143,A,tr,I,r,194,1,1764.6000001430511,789204.5,8012,WL,A,3.0
7,6.2809998989105225,immed,53719.00010108948,Wed Jan 08 2025 11:15:13 GMT-0600 (Central Standard Time),791035.8000001907,A,tra,I,a,58,1,1831.3000001907349,789204.5,8012,WL,A,3.0
7,6.447999954223633,immed,53552.00004577637,Wed Jan 08 2025 11:15:13 GMT-0600 (Central Standard Time),791202.5,A,trai,I,i,151,1,1998.0,789204.5,8012,WL,A,3.0
7,6.614000082015991,immed,53385.99991798401,Wed Jan 08 2025 11:15:13 GMT-0600 (Central Standard Time),791369.2000000477,A,train,I,n,145,1,2164.7000000476837,789204.5,8012,WL,A,3.0
7,6.930999994277954,immed,53069.000005722046,Wed Jan 08 2025 11:15:13 GMT-0600 (Central Standard Time),791685.600000143,A,trainenter,I,enter,306,1,2481.100000143051,789204.5,8012,WL,A,3.0
7,7.21399998664856,immed,52786.00001335144,Wed Jan 08 2025 11:15:13 GMT-0600 (Central Standard Time),791969.0,A,r,I,r,261,1,283.0,791686.0,8012,WL,A,4.0
7,7.364000082015991,immed,52635.99991798401,Wed Jan 08 2025 11:15:13 GMT-0600 (Central Standard Time),792118.9000000954,A,ru,I,u,138,1,432.90000009536743,791686.0,8012,WL,A,4.0
7,7.5299999713897705,immed,52470.00002861023,Wed Jan 08 2025 11:15:13 GMT-0600 (Central Standard Time),792285.3000001907,A,rug,I,g,148,1,599.3000001907349,791686.0,8012,WL,A,4.0
7,7.880000114440918,immed,52119.99988555908,Wed Jan 08 2025 11:15:13 GMT-0600 (Central Standard Time),792635.2000000477,A,rugenter,I,enter,334,1,949.2000000476837,791686.0,8012,WL,A,4.0
7,8.130000114440918,immed,51869.99988555908,Wed Jan 08 2025 11:15:13 GMT-0600 (Central Standard Time),792885.2000000477,A,m,I,m,232,1,249.59999990463257,792635.600000143,8012,WL,A,5.0
7,8.263999938964844,immed,51736.000061035156,Wed Jan 08 2025 11:15:13 GMT-0600 (Central Standard Time),793018.600000143,A,me,I,e,110,1,383.0,792635.600000143,8012,WL,A,5.0
7,8.331000089645386,immed,51668.999910354614,Wed Jan 08 2025 11:15:13 GMT-0600 (Central Standard Time),793085.4000000954,A,mea,I,a,57,1,449.7999999523163,792635.600000143,8012,WL,A,5.0
7,8.46399998664856,immed,51536.00001335144,Wed Jan 08 2025 11:15:13 GMT-0600 (Central Standard Time),793218.5,A,meas,I,s,117,1,582.8999998569489,792635.600000143,8012,WL,A,5.0
7,8.930000066757202,immed,51069.9999332428,Wed Jan 08 2025 11:15:13 GMT-0600 (Central Standard Time),793685.0,A,measd,I,d,449,1,1049.3999998569489,792635.600000143,8012,WL,A,5.0
7,9.11299991607666,immed,50887.00008392334,Wed Jan 08 2025 11:15:13 GMT-0600 (Central Standard Time),793868.2000000477,A,meas,I,backspace,166,1,1232.5999999046326,792635.600000143,8012,WL,A,5.0
7,9.263000011444092,immed,50736.99998855591,Wed Jan 08 2025 11:15:13 GMT-0600 (Central Standard Time),794018.100000143,A,mea,I,backspace,134,1,1382.5,792635.600000143,8012,WL,A,5.0
7,9.364000082015991,immed,50635.99991798401,Wed Jan 08 2025 11:15:13 GMT-0600 (Central Standard Time),794118.5,A,mead,I,d,81,1,1482.8999998569489,792635.600000143,8012,WL,A,5.0
7,9.463000059127808,immed,50536.99994087219,Wed Jan 08 2025 11:15:13 GMT-0600 (Central Standard Time),794218.2000000477,A,meado,I,o,85,1,1582.5999999046326,792635.600000143,8012,WL,A,5.0
7,9.61299991607666,immed,50387.00008392334,Wed Jan 08 2025 11:15:13 GMT-0600 (Central Standard Time),794368.3000001907,A,meadow,I,w,129,1,1732.7000000476837,792635.600000143,8012,WL,A,5.0
7,11.729000091552734,immed,48270.999908447266,Wed Jan 08 2025 11:15:13 GMT-0600 (Central Standard Time),796484.2000000477,A,meadowenter,I,enter,2107,1,3848.5999999046326,792635.600000143,8012,WL,A,5.0
7,12.696000099182129,immed,47303.99990081787,Wed Jan 08 2025 11:15:13 GMT-0600 (Central Standard Time),797450.7000000477,A,h,I,h,943,1,966.2000000476837,796484.5,8012,WL,A,6.0
7,12.84500002861023,immed,47154.99997138977,Wed Jan 08 2025 11:15:13 GMT-0600 (Central Standard Time),797600.4000000954,A,ha,I,a,136,1,1115.9000000953674,796484.5,8012,WL,A,6.0
7,12.946000099182129,immed,47053.99990081787,Wed Jan 08 2025 11:15:13 GMT-0600 (Central Standard Time),797700.4000000954,A,har,I,r,83,1,1215.9000000953674,796484.5,8012,WL,A,6.0
7,13.078999996185303,immed,46921.0000038147,Wed Jan 08 2025 11:15:13 GMT-0600 (Central Standard Time),797834.0,A,harp,I,p,119,1,1349.5,796484.5,8012,WL,A,6.0
7,14.628000020980835,immed,45371.999979019165,Wed Jan 08 2025 11:15:13 GMT-0600 (Central Standard Time),799383.100000143,A,harpenter,I,enter,1537,1,2898.600000143051,796484.5,8012,WL,A,6.0
7,15.795000076293945,immed,44204.999923706055,Wed Jan 08 2025 11:15:13 GMT-0600 (Central Standard Time),800549.7000000477,A,a,I,a,1148,1,1166.2000000476837,799383.5,8012,WL,A,7.0
