Q,Q1,Q2,Q3,Q4,acc_sum,block,block_c,correct,correct_response,datetime,endtime,project,response,response_time,row_sel,session_number,squiggle1,squiggle1x,squiggle1y,squiggle2,squiggle2x,squiggle2y,squiggle3,squiggle3x,squiggle3y,squiggle4,squiggle4x,squiggle4y,start_end,starttime,subject_id,target_congruent,task,task_vers,testsquiggle,testsquigglex,testsquiggley,time_practice_delay,time_practice_fixation,time_practice_stimuli,time_practice_study,time_test_delay,time_test_fixation,time_test_stimuli,time_test_study,trial
1,1,0,0,0,0,prac,1,0,z,Fri Feb 28 2025 16:52:22 GMT-0600 (Central Standard Time),149986.5,O,None,2016,1,1,116.bmp,-120,-120,117.bmp,120,-120,118.bmp,-120,120,119.bmp,120,120,10827.299999999814,139159.2000000002,7073,yes,SM,A,116.bmp,-120,-120,139376,133347,141392,135361,,,,,1
3,0,0,1,0,0,prac,1,0,m,Fri Feb 28 2025 16:52:22 GMT-0600 (Central Standard Time),160816.40000000037,O,None,2016,2,1,120.bmp,-120,-120,121.bmp,120,-120,122.bmp,-120,120,123.bmp,120,120,10825.900000000373,149990.5,7073,no,SM,A,123.bmp,-120,120,150206,144179,152222,146191,,,,,2
4,0,0,0,1,1,prac,1,1,m,Fri Feb 28 2025 16:52:22 GMT-0600 (Central Standard Time),171596.5,O,m,1954,3,1,124.bmp,-120,-120,125.bmp,120,-120,126.bmp,-120,120,127.bmp,120,120,10776.5,160820.0,7073,no,SM,A,124.bmp,120,120,161036,155008,163052,157021,,,,,3
2,0,1,0,0,1,prac,1,0,z,Fri Feb 28 2025 16:52:22 GMT-0600 (Central Standard Time),182426.2000000002,O,None,2016,4,1,128.bmp,-120,-120,129.bmp,120,-120,130.bmp,-120,120,131.bmp,120,120,10826.0,171600.2000000002,7073,yes,SM,A,129.bmp,120,-120,171816,165788,173832,167801,,,,,4
3,0,0,1,0,1,prac,1,0,z,Fri Feb 28 2025 16:52:22 GMT-0600 (Central Standard Time),193022.7999999998,O,m,1775,5,1,132.bmp,-120,-120,133.bmp,120,-120,134.bmp,-120,120,135.bmp,120,120,10592.799999999814,182430.0,7073,yes,SM,A,134.bmp,-120,120,182646,176618,184663,178631,,,,,5
1,1,0,0,0,1,prac,1,0,m,Fri Feb 28 2025 16:52:22 GMT-0600 (Central Standard Time),203852.90000000037,O,None,2015,6,1,136.bmp,-120,-120,137.bmp,120,-120,138.bmp,-120,120,139.bmp,120,120,10826.5,193026.40000000037,7073,no,SM,A,139.bmp,-120,-120,193242,187215,195259,189227,,,,,6
2,0,1,0,0,1,prac,1,0,m,Fri Feb 28 2025 16:52:22 GMT-0600 (Central Standard Time),214682.90000000037,O,None,2015,7,1,140.bmp,-120,-120,141.bmp,120,-120,142.bmp,-120,120,143.bmp,120,120,10826.700000000186,203856.2000000002,7073,no,SM,A,140.bmp,120,-120,204073,198044,206089,200057,,,,,7
4,0,0,0,1,1,prac,1,0,z,Fri Feb 28 2025 16:52:22 GMT-0600 (Central Standard Time),225079.2999999998,O,m,1575,8,1,144.bmp,-120,-120,145.bmp,120,-120,146.bmp,-120,120,147.bmp,120,120,10392.899999999441,214686.40000000037,7073,yes,SM,A,147.bmp,120,120,214902,208875,216919,210888,,,,,8
1,1,0,0,0,0,prac,2,0,z,Fri Feb 28 2025 16:52:22 GMT-0600 (Central Standard Time),240857.7000000002,O,m,1889,1,1,116.bmp,-120,-120,117.bmp,120,-120,118.bmp,-120,120,119.bmp,120,120,10710.5,230147.2000000002,7073,yes,SM,A,116.bmp,-120,-120,230364,224335,232381,226349,,,,,1
3,0,0,1,0,1,prac,2,1,m,Fri Feb 28 2025 16:52:22 GMT-0600 (Central Standard Time),251187.90000000037,O,m,1504,2,1,120.bmp,-120,-120,121.bmp,120,-120,122.bmp,-120,120,123.bmp,120,120,10326.900000000373,240861.0,7073,no,SM,A,123.bmp,-120,120,241077,235049,243094,237062,,,,,2
4,0,0,0,1,2,prac,2,1,m,Fri Feb 28 2025 16:52:22 GMT-0600 (Central Standard Time),261618.2000000002,O,m,1606,3,1,124.bmp,-120,-120,125.bmp,120,-120,126.bmp,-120,120,127.bmp,120,120,10427.099999999627,251191.10000000056,7073,no,SM,A,124.bmp,120,120,251407,245379,253424,247392,,,,,3
2,0,1,0,0,2,prac,2,0,z,Fri Feb 28 2025 16:52:22 GMT-0600 (Central Standard Time),272448.2000000002,O,None,2016,4,1,128.bmp,-120,-120,129.bmp,120,-120,130.bmp,-120,120,131.bmp,120,120,10826.0,261622.2000000002,7073,yes,SM,A,129.bmp,120,-120,261838,255810,263854,257823,,,,,4
3,0,0,1,0,2,prac,2,0,z,Fri Feb 28 2025 16:52:22 GMT-0600 (Central Standard Time),283277.9000000004,O,None,2015,5,1,132.bmp,-120,-120,133.bmp,120,-120,134.bmp,-120,120,135.bmp,120,120,10826.299999999814,272451.60000000056,7073,yes,SM,A,134.bmp,-120,120,272668,266640,274684,268652,,,,,5
1,1,0,0,0,3,prac,2,1,m,Fri Feb 28 2025 16:52:22 GMT-0600 (Central Standard Time),293474.9000000004,O,m,1374,6,1,136.bmp,-120,-120,137.bmp,120,-120,138.bmp,-120,120,139.bmp,120,120,10193.600000000559,283281.2999999998,7073,no,SM,A,139.bmp,-120,-120,283498,277470,285514,279482,,,,,6
2,0,1,0,0,3,prac,2,0,m,Fri Feb 28 2025 16:52:22 GMT-0600 (Central Standard Time),303988.2000000002,O,z,1695,7,1,140.bmp,-120,-120,141.bmp,120,-120,142.bmp,-120,120,143.bmp,120,120,10509.900000000373,293478.2999999998,7073,no,SM,A,140.bmp,120,-120,293695,287667,295711,289679,,,,,7
4,0,0,0,1,3,prac,2,0,z,Fri Feb 28 2025 16:52:22 GMT-0600 (Central Standard Time),314201.60000000056,O,m,1398,8,1,144.bmp,-120,-120,145.bmp,120,-120,146.bmp,-120,120,147.bmp,120,120,10209.900000000373,303991.7000000002,7073,yes,SM,A,147.bmp,120,120,304208,298180,306224,300192,,,,,8
4,0,0,0,1,1,test,1,1,m,Fri Feb 28 2025 16:52:22 GMT-0600 (Central Standard Time),336727.7000000002,O,m,1726,1,1,148.bmp,-120,-120,149.bmp,120,-120,150.bmp,-120,120,143.bmp,120,120,9777.400000000373,326950.2999999998,7073,no,SM,A,150.bmp,120,120,304208,298180,306224,300192,327167.0,321138.0,329184.0,323152.0,1
2,0,1,0,0,1,test,1,0,m,Fri Feb 28 2025 16:52:22 GMT-0600 (Central Standard Time),345941.7999999998,O,z,1154,2,1,101.bmp,-120,-120,102.bmp,120,-120,103.bmp,-120,120,104.bmp,120,120,9210.599999999627,336731.2000000002,7073,no,SM,A,103.bmp,120,-120,304208,298180,306224,300192,336947.0,330919.0,338964.0,332932.0,2
1,1,0,0,0,1,test,1,0,z,Fri Feb 28 2025 16:52:22 GMT-0600 (Central Standard Time),355355.10000000056,O,m,1364,3,1,105.bmp,-120,-120,106.bmp,120,-120,107.bmp,-120,120,108.bmp,120,120,9409.400000000373,345945.7000000002,7073,yes,SM,A,105.bmp,-120,-120,304208,298180,306224,300192,346161.0,340134.0,348178.0,342146.0,3
3,0,0,1,0,2,test,1,1,m,Fri Feb 28 2025 16:52:22 GMT-0600 (Central Standard Time),364752.2999999998,O,m,1342,4,1,109.bmp,-120,-120,110.bmp,120,-120,111.bmp,-120,120,112.bmp,120,120,9393.799999999814,355358.5,7073,no,SM,A,109.bmp,-120,120,304208,298180,306224,300192,355575.0,349547.0,357592.0,351560.0,4
2,0,1,0,0,3,test,1,1,z,Fri Feb 28 2025 16:52:22 GMT-0600 (Central Standard Time),374449.4000000004,O,z,1642,5,1,113.bmp,-120,-120,114.bmp,120,-120,115.bmp,-120,120,116.bmp,120,120,9694.100000000559,364755.2999999998,7073,yes,SM,A,114.bmp,120,-120,304208,298180,306224,300192,364972.0,358943.0,366988.0,360957.0,5
3,0,0,1,0,3,test,1,0,z,Fri Feb 28 2025 16:52:22 GMT-0600 (Central Standard Time),384079.60000000056,O,m,1576,6,1,117.bmp,-120,-120,118.bmp,120,-120,119.bmp,-120,120,120.bmp,120,120,9626.900000000373,374452.7000000002,7073,yes,SM,A,119.bmp,-120,120,304208,298180,306224,300192,374669.0,368641.0,376685.0,370654.0,6
4,0,0,0,1,4,test,1,1,z,Fri Feb 28 2025 16:52:22 GMT-0600 (Central Standard Time),393410.5,O,z,1282,7,1,121.bmp,-120,-120,122.bmp,120,-120,123.bmp,-120,120,124.bmp,120,120,9327.700000000186,384082.7999999998,7073,yes,SM,A,124.bmp,120,120,304208,298180,306224,300192,384299.0,378271.0,386316.0,380284.0,7
2,0,1,0,0,4,test,1,0,m,Fri Feb 28 2025 16:52:22 GMT-0600 (Central Standard Time),403473.7000000002,O,None,2016,8,1,125.bmp,-120,-120,126.bmp,120,-120,127.bmp,-120,120,128.bmp,120,120,10059.700000000186,393414.0,7073,no,SM,A,125.bmp,120,-120,304208,298180,306224,300192,393630.0,387602.0,395646.0,389615.0,8
3,0,0,1,0,4,test,1,0,m,Fri Feb 28 2025 16:52:22 GMT-0600 (Central Standard Time),412820.7999999998,O,z,1296,9,1,129.bmp,-120,-120,130.bmp,120,-120,131.bmp,-120,120,132.bmp,120,120,9343.699999999255,403477.10000000056,7073,no,SM,A,130.bmp,-120,120,304208,298180,306224,300192,403693.0,397665.0,405710.0,399679.0,9
4,0,0,0,1,4,test,1,0,z,Fri Feb 28 2025 16:52:22 GMT-0600 (Central Standard Time),422517.60000000056,O,m,1645,10,1,137.bmp,-120,-120,138.bmp,120,-120,139.bmp,-120,120,140.bmp,120,120,9693.5,412824.10000000056,7073,yes,SM,A,140.bmp,120,120,304208,298180,306224,300192,413041.0,407012.0,415057.0,409025.0,10
3,0,0,1,0,5,test,1,1,z,Fri Feb 28 2025 16:52:22 GMT-0600 (Central Standard Time),432031.2000000002,O,z,1453,11,1,133.bmp,-120,-120,134.bmp,120,-120,135.bmp,-120,120,136.bmp,120,120,9510.200000000186,422521.0,7073,yes,SM,A,135.bmp,-120,120,304208,298180,306224,300192,422737.0,416709.0,424753.0,418722.0,11
2,0,1,0,0,5,test,1,0,m,Fri Feb 28 2025 16:52:22 GMT-0600 (Central Standard Time),442095.7999999998,O,None,2017,12,1,141.bmp,-120,-120,142.bmp,120,-120,143.bmp,-120,120,144.bmp,120,120,10061.5,432034.2999999998,7073,no,SM,A,141.bmp,120,-120,304208,298180,306224,300192,432251.0,426223.0,434267.0,428236.0,12
3,0,0,1,0,5,test,1,0,m,Fri Feb 28 2025 16:52:22 GMT-0600 (Central Standard Time),452158.7000000002,O,None,2016,13,1,145.bmp,-120,-120,146.bmp,120,-120,147.bmp,-120,120,148.bmp,120,120,10060.0,442098.7000000002,7073,no,SM,A,146.bmp,-120,120,304208,298180,306224,300192,442315.0,436287.0,444331.0,438299.0,13
1,1,0,0,0,5,test,1,0,z,Fri Feb 28 2025 16:52:22 GMT-0600 (Central Standard Time),462038.7000000002,O,m,1828,14,1,149.bmp,-120,-120,150.bmp,120,-120,104.bmp,-120,120,101.bmp,120,120,9876.700000000186,452162.0,7073,yes,SM,A,149.bmp,-120,-120,304208,298180,306224,300192,452378.0,446350.0,454394.0,448363.0,14
4,0,0,0,1,6,test,1,1,m,Fri Feb 28 2025 16:52:22 GMT-0600 (Central Standard Time),471469.2000000002,O,m,1371,15,1,110.bmp,-120,-120,111.bmp,120,-120,112.bmp,-120,120,113.bmp,120,120,9427.5,462041.7000000002,7073,no,SM,A,111.bmp,120,120,304208,298180,306224,300192,462258.0,456230.0,464275.0,458243.0,15
1,1,0,0,0,6,test,1,0,m,Fri Feb 28 2025 16:52:22 GMT-0600 (Central Standard Time),481532.7000000002,O,None,2016,16,1,102.bmp,-120,-120,103.bmp,120,-120,104.bmp,-120,120,105.bmp,120,120,10060.0,471472.7000000002,7073,no,SM,A,105.bmp,-120,-120,304208,298180,306224,300192,471689.0,465661.0,473705.0,467674.0,16
3,0,0,1,0,7,test,1,1,m,Fri Feb 28 2025 16:52:22 GMT-0600 (Central Standard Time),491346.10000000056,O,m,1749,17,1,122.bmp,-120,-120,123.bmp,120,-120,124.bmp,-120,120,125.bmp,120,120,9810.300000000745,481535.7999999998,7073,no,SM,A,122.bmp,-120,120,304208,298180,306224,300192,481753.0,475724.0,483769.0,477737.0,17
1,1,0,0,0,7,test,1,0,z,Fri Feb 28 2025 16:52:22 GMT-0600 (Central Standard Time),501409.4000000004,O,None,2015,18,1,106.bmp,-120,-120,107.bmp,120,-120,108.bmp,-120,120,109.bmp,120,120,10059.900000000373,491349.5,7073,yes,SM,A,106.bmp,-120,-120,304208,298180,306224,300192,491566.0,485538.0,493582.0,487551.0,18
2,0,1,0,0,7,test,1,0,z,Fri Feb 28 2025 16:52:22 GMT-0600 (Central Standard Time),510540.4000000004,O,m,1072,19,1,126.bmp,-120,-120,127.bmp,120,-120,128.bmp,-120,120,129.bmp,120,120,9127.100000000559,501413.2999999998,7073,yes,SM,A,127.bmp,120,-120,304208,298180,306224,300192,501629.0,495602.0,503646.0,497615.0,19
3,0,0,1,0,8,test,1,1,z,Fri Feb 28 2025 16:52:22 GMT-0600 (Central Standard Time),520520.4000000004,O,z,1918,20,1,130.bmp,-120,-120,131.bmp,120,-120,132.bmp,-120,120,133.bmp,120,120,9976.700000000186,510543.7000000002,7073,yes,SM,A,132.bmp,-120,120,304208,298180,306224,300192,510760.0,504732.0,512776.0,506745.0,20
1,1,0,0,0,9,test,1,1,m,Fri Feb 28 2025 16:52:22 GMT-0600 (Central Standard Time),530184.0,O,m,1601,21,1,114.bmp,-120,-120,115.bmp,120,-120,116.bmp,-120,120,117.bmp,120,120,9660.599999999627,520523.4000000004,7073,no,SM,A,116.bmp,-120,-120,304208,298180,306224,300192,520740.0,514712.0,522757.0,516725.0,21
4,0,0,0,1,9,test,1,0,z,Fri Feb 28 2025 16:52:22 GMT-0600 (Central Standard Time),539881.2000000002,O,m,1642,22,1,118.bmp,-120,-120,119.bmp,120,-120,120.bmp,-120,120,121.bmp,120,120,9694.0,530187.2000000002,7073,yes,SM,A,121.bmp,120,120,304208,298180,306224,300192,530404.0,524375.0,532420.0,526389.0,22
1,1,0,0,0,9,test,1,0,m,Fri Feb 28 2025 16:52:22 GMT-0600 (Central Standard Time),549944.7000000002,O,None,2016,23,1,134.bmp,-120,-120,135.bmp,120,-120,136.bmp,-120,120,137.bmp,120,120,10060.200000000186,539884.5,7073,no,SM,A,137.bmp,-120,-120,304208,298180,306224,300192,540101.0,534073.0,542117.0,536085.0,23
2,0,1,0,0,9,test,1,0,z,Fri Feb 28 2025 16:52:22 GMT-0600 (Central Standard Time),560008.2000000002,O,None,2015,24,1,142.bmp,-120,-120,143.bmp,120,-120,144.bmp,-120,120,145.bmp,120,120,10060.099999999627,549948.1000000006,7073,yes,SM,A,143.bmp,120,-120,304208,298180,306224,300192,550165.0,544136.0,552181.0,546149.0,24
4,0,0,0,1,10,test,1,1,m,Fri Feb 28 2025 16:52:22 GMT-0600 (Central Standard Time),570038.2999999998,O,m,1971,25,1,146.bmp,-120,-120,147.bmp,120,-120,148.bmp,-120,120,149.bmp,120,120,10026.699999999255,560011.6000000006,7073,no,SM,A,148.bmp,120,120,304208,298180,306224,300192,560228.0,554200.0,562244.0,556212.0,25
1,1,0,0,0,10,test,1,0,z,Fri Feb 28 2025 16:52:22 GMT-0600 (Central Standard Time),579685.4000000004,O,m,1588,26,1,138.bmp,-120,-120,139.bmp,120,-120,140.bmp,-120,120,141.bmp,120,120,9643.299999999814,570042.1000000006,7073,yes,SM,A,138.bmp,-120,-120,304208,298180,306224,300192,570258.0,564230.0,572274.0,566243.0,26
4,0,0,0,1,11,test,1,1,z,Fri Feb 28 2025 16:52:22 GMT-0600 (Central Standard Time),589682.7999999998,O,z,1950,27,1,150.bmp,-120,-120,111.bmp,120,-120,101.bmp,-120,120,102.bmp,120,120,9994.5,579688.2999999998,7073,yes,SM,A,102.bmp,120,120,304208,298180,306224,300192,579905.0,573877.0,581921.0,575890.0,27
3,0,0,1,0,12,test,1,1,m,Fri Feb 28 2025 16:52:22 GMT-0600 (Central Standard Time),599395.5,O,m,1664,28,1,103.bmp,-120,-120,104.bmp,120,-120,105.bmp,-120,120,106.bmp,120,120,9709.899999999441,589685.6000000006,7073,no,SM,A,103.bmp,-120,120,304208,298180,306224,300192,589902.0,583874.0,591918.0,585887.0,28
2,0,1,0,0,12,test,1,0,z,Fri Feb 28 2025 16:52:22 GMT-0600 (Central Standard Time),609459.0,O,None,2015,29,1,107.bmp,-120,-120,108.bmp,120,-120,109.bmp,-120,120,110.bmp,120,120,10060.799999999814,599398.2000000002,7073,yes,SM,A,108.bmp,120,-120,304208,298180,306224,300192,599616.0,593586.0,601632.0,595600.0,29
3,0,0,1,0,12,test,1,0,z,Fri Feb 28 2025 16:52:22 GMT-0600 (Central Standard Time),619522.7999999998,O,None,2016,30,1,111.bmp,-120,-120,112.bmp,120,-120,113.bmp,-120,120,114.bmp,120,120,10060.299999999814,609462.5,7073,yes,SM,A,113.bmp,-120,120,304208,298180,306224,300192,609679.0,603651.0,611695.0,605664.0,30
1,1,0,0,0,13,test,1,1,z,Fri Feb 28 2025 16:52:22 GMT-0600 (Central Standard Time),629069.9000000004,O,z,1496,31,1,115.bmp,-120,-120,116.bmp,120,-120,117.bmp,-120,120,118.bmp,120,120,9543.700000000186,619526.2000000002,7073,yes,SM,A,115.bmp,-120,-120,304208,298180,306224,300192,619742.0,613714.0,621759.0,615727.0,31
2,0,1,0,0,13,test,1,0,m,Fri Feb 28 2025 16:52:22 GMT-0600 (Central Standard Time),639133.2999999998,O,None,2015,32,1,119.bmp,-120,-120,120.bmp,120,-120,121.bmp,-120,120,122.bmp,120,120,10060.199999999255,629073.1000000006,7073,no,SM,A,119.bmp,120,-120,304208,298180,306224,300192,629289.0,623261.0,631306.0,625274.0,32
4,0,0,0,1,13,test,1,0,z,Fri Feb 28 2025 16:52:22 GMT-0600 (Central Standard Time),648480.7000000002,O,m,1294,33,1,131.bmp,-120,-120,132.bmp,120,-120,133.bmp,-120,120,134.bmp,120,120,9343.700000000186,639137.0,7073,yes,SM,A,134.bmp,120,120,304208,298180,306224,300192,639353.0,633325.0,641369.0,635338.0,33
2,0,1,0,0,13,test,1,0,z,Fri Feb 28 2025 16:52:22 GMT-0600 (Central Standard Time),657894.1000000006,O,m,1353,34,1,123.bmp,-120,-120,124.bmp,120,-120,125.bmp,-120,120,126.bmp,120,120,9410.300000000745,648483.7999999998,7073,yes,SM,A,124.bmp,120,-120,304208,298180,306224,300192,648700.0,642672.0,650717.0,644685.0,34
4,0,0,0,1,14,test,1,1,m,Fri Feb 28 2025 16:52:22 GMT-0600 (Central Standard Time),667857.7999999998,O,m,1900,35,1,127.bmp,-120,-120,128.bmp,120,-120,129.bmp,-120,120,130.bmp,120,120,9960.699999999255,657897.1000000006,7073,no,SM,A,129.bmp,120,120,304208,298180,306224,300192,658114.0,652085.0,660130.0,654098.0,35
3,0,0,1,0,15,test,1,1,m,Fri Feb 28 2025 16:52:22 GMT-0600 (Central Standard Time),677721.2000000002,O,m,1800,36,1,135.bmp,-120,-120,136.bmp,120,-120,137.bmp,-120,120,138.bmp,120,120,9860.200000000186,667861.0,7073,no,SM,A,135.bmp,-120,120,304208,298180,306224,300192,668077.0,662049.0,670094.0,664062.0,36
1,1,0,0,0,15,test,1,0,m,Fri Feb 28 2025 16:52:22 GMT-0600 (Central Standard Time),687784.9000000004,O,None,2016,37,1,139.bmp,-120,-120,140.bmp,120,-120,141.bmp,-120,120,142.bmp,120,120,10060.600000000559,677724.2999999998,7073,no,SM,A,140.bmp,-120,-120,304208,298180,306224,300192,677941.0,671913.0,679957.0,673926.0,37
2,0,1,0,0,15,test,1,0,m,Fri Feb 28 2025 16:52:22 GMT-0600 (Central Standard Time),697848.5,O,None,2015,38,1,143.bmp,-120,-120,144.bmp,120,-120,145.bmp,-120,120,146.bmp,120,120,10060.399999999441,687788.1000000006,7073,no,SM,A,145.bmp,120,-120,304208,298180,306224,300192,688005.0,681976.0,690021.0,683989.0,38
4,0,0,0,1,15,test,1,0,z,Fri Feb 28 2025 16:52:22 GMT-0600 (Central Standard Time),707912.0,O,None,2015,39,1,147.bmp,-120,-120,148.bmp,120,-120,149.bmp,-120,120,150.bmp,120,120,10059.799999999814,697852.2000000002,7073,yes,SM,A,150.bmp,120,120,304208,298180,306224,300192,698068.0,692040.0,700085.0,694053.0,39
3,0,0,1,0,16,test,1,1,m,Fri Feb 28 2025 16:52:22 GMT-0600 (Central Standard Time),717042.6000000006,O,m,1082,40,1,104.bmp,-120,-120,105.bmp,120,-120,106.bmp,-120,120,107.bmp,120,120,9127.600000000559,707915.0,7073,no,SM,A,105.bmp,-120,120,304208,298180,306224,300192,708132.0,702103.0,710148.0,704116.0,40
1,1,0,0,0,17,test,1,1,z,Fri Feb 28 2025 16:52:22 GMT-0600 (Central Standard Time),726323.0,O,z,1224,41,1,108.bmp,-120,-120,109.bmp,120,-120,110.bmp,-120,120,111.bmp,120,120,9277.700000000186,717045.2999999998,7073,yes,SM,A,108.bmp,-120,-120,304208,298180,306224,300192,717262.0,711234.0,719279.0,713247.0,41
4,0,0,0,1,17,test,1,0,z,Fri Feb 28 2025 16:52:22 GMT-0600 (Central Standard Time),735686.2000000002,O,m,1312,42,1,112.bmp,-120,-120,113.bmp,120,-120,114.bmp,-120,120,115.bmp,120,120,9360.200000000186,726326.0,7073,yes,SM,A,115.bmp,120,120,304208,298180,306224,300192,726542.0,720514.0,728559.0,722527.0,42
1,1,0,0,0,18,test,1,1,z,Fri Feb 28 2025 16:52:22 GMT-0600 (Central Standard Time),745133.7000000002,O,z,1387,43,1,116.bmp,-120,-120,117.bmp,120,-120,118.bmp,-120,120,119.bmp,120,120,9444.5,735689.2000000002,7073,yes,SM,A,116.bmp,-120,-120,304208,298180,306224,300192,735906.0,729878.0,737923.0,731891.0,43
4,0,0,0,1,19,test,1,1,m,Fri Feb 28 2025 16:52:22 GMT-0600 (Central Standard Time),754680.6000000006,O,m,1492,44,1,104.bmp,-120,-120,101.bmp,120,-120,102.bmp,-120,120,103.bmp,120,120,9543.900000000373,745136.7000000002,7073,no,SM,A,104.bmp,120,120,304208,298180,306224,300192,745353.0,739325.0,747370.0,741338.0,44
1,1,0,0,0,20,test,1,1,m,Fri Feb 28 2025 16:52:22 GMT-0600 (Central Standard Time),763761.1000000006,O,m,1025,45,1,128.bmp,-120,-120,129.bmp,120,-120,130.bmp,-120,120,131.bmp,120,120,9077.200000000186,754683.9000000004,7073,no,SM,A,131.bmp,-120,-120,304208,298180,306224,300192,754900.0,748872.0,756917.0,750885.0,45
1,1,0,0,0,20,test,1,0,m,Fri Feb 28 2025 16:52:22 GMT-0600 (Central Standard Time),773724.5,O,z,1914,46,1,120.bmp,-120,-120,121.bmp,120,-120,122.bmp,-120,120,123.bmp,120,120,9960.399999999441,763764.1000000006,7073,no,SM,A,121.bmp,-120,-120,304208,298180,306224,300192,763980.0,757952.0,765997.0,759965.0,46
3,0,0,1,0,20,test,1,0,z,Fri Feb 28 2025 16:52:22 GMT-0600 (Central Standard Time),783789.2999999998,O,None,2016,47,1,124.bmp,-120,-120,125.bmp,120,-120,126.bmp,-120,120,127.bmp,120,120,10061.899999999441,773727.4000000004,7073,yes,SM,A,126.bmp,-120,120,304208,298180,306224,300192,773944.0,767916.0,775961.0,769929.0,47
3,0,0,1,0,21,test,1,1,z,Fri Feb 28 2025 16:52:22 GMT-0600 (Central Standard Time),793668.2999999998,O,z,1823,48,1,140.bmp,-120,-120,141.bmp,120,-120,142.bmp,-120,120,143.bmp,120,120,9875.399999999441,783792.9000000004,7073,yes,SM,A,142.bmp,-120,120,304208,298180,306224,300192,784008.0,777981.0,786024.0,779993.0,48
2,0,1,0,0,21,test,1,0,z,Fri Feb 28 2025 16:52:22 GMT-0600 (Central Standard Time),802632.1000000006,O,m,901,49,1,136.bmp,-120,-120,137.bmp,120,-120,138.bmp,-120,120,139.bmp,120,120,8960.600000000559,793671.5,7073,yes,SM,A,137.bmp,120,-120,304208,298180,306224,300192,793888.0,787860.0,795905.0,789873.0,49
3,0,0,1,0,22,test,1,1,m,Fri Feb 28 2025 16:52:22 GMT-0600 (Central Standard Time),812362.5,O,m,1682,50,1,132.bmp,-120,-120,133.bmp,120,-120,134.bmp,-120,120,135.bmp,120,120,9727.299999999814,802635.2000000002,7073,no,SM,A,132.bmp,-120,120,304208,298180,306224,300192,802852.0,796823.0,804868.0,798837.0,50
2,0,1,0,0,23,test,1,1,z,Fri Feb 28 2025 16:52:22 GMT-0600 (Central Standard Time),821409.6000000006,O,z,983,51,1,144.bmp,-120,-120,145.bmp,120,-120,146.bmp,-120,120,147.bmp,120,120,9044.400000000373,812365.2000000002,7073,yes,SM,A,145.bmp,120,-120,304208,298180,306224,300192,812582.0,806553.0,814599.0,808567.0,51
4,0,0,0,1,23,test,1,0,m,Fri Feb 28 2025 16:52:22 GMT-0600 (Central Standard Time),831473.2999999998,O,None,2015,52,1,148.bmp,-120,-120,149.bmp,120,-120,150.bmp,-120,120,131.bmp,120,120,10060.799999999814,821412.5,7073,no,SM,A,148.bmp,120,120,304208,298180,306224,300192,821629.0,815601.0,823646.0,817615.0,52
3,0,0,1,0,23,test,1,0,z,Fri Feb 28 2025 16:52:22 GMT-0600 (Central Standard Time),841536.6000000006,O,None,2016,53,1,101.bmp,-120,-120,102.bmp,120,-120,103.bmp,-120,120,104.bmp,120,120,10060.100000000559,831476.5,7073,yes,SM,A,103.bmp,-120,120,304208,298180,306224,300192,831693.0,825665.0,833709.0,827678.0,53
1,1,0,0,0,24,test,1,1,m,Fri Feb 28 2025 16:52:22 GMT-0600 (Central Standard Time),850983.7000000002,O,m,1394,54,1,105.bmp,-120,-120,106.bmp,120,-120,107.bmp,-120,120,108.bmp,120,120,9444.200000000186,841539.5,7073,no,SM,A,107.bmp,-120,-120,304208,298180,306224,300192,841757.0,835728.0,843773.0,837742.0,54
4,0,0,0,1,24,test,1,0,z,Fri Feb 28 2025 16:52:22 GMT-0600 (Central Standard Time),860380.7999999998,O,m,1339,55,1,109.bmp,-120,-120,110.bmp,120,-120,111.bmp,-120,120,112.bmp,120,120,9393.899999999441,850986.9000000004,7073,yes,SM,A,112.bmp,120,120,304208,298180,306224,300192,851203.0,845175.0,853220.0,847188.0,55
2,0,1,0,0,25,test,1,1,m,Fri Feb 28 2025 16:52:22 GMT-0600 (Central Standard Time),870044.5,O,m,1606,56,1,113.bmp,-120,-120,114.bmp,120,-120,115.bmp,-120,120,116.bmp,120,120,9660.700000000186,860383.7999999998,7073,no,SM,A,113.bmp,120,-120,304208,298180,306224,300192,860601.0,854572.0,862617.0,856585.0,56
4,0,0,0,1,26,test,1,1,m,Fri Feb 28 2025 16:52:22 GMT-0600 (Central Standard Time),879941.4000000004,O,m,1838,57,1,117.bmp,-120,-120,118.bmp,120,-120,119.bmp,-120,120,120.bmp,120,120,9894.0,870047.4000000004,7073,no,SM,A,118.bmp,120,120,304208,298180,306224,300192,870264.0,864236.0,872280.0,866249.0,57
3,0,0,1,0,26,test,1,0,z,Fri Feb 28 2025 16:52:22 GMT-0600 (Central Standard Time),889421.9000000004,O,m,1430,58,1,121.bmp,-120,-120,122.bmp,120,-120,123.bmp,-120,120,124.bmp,120,120,9477.400000000373,879944.5,7073,yes,SM,A,123.bmp,-120,120,304208,298180,306224,300192,880161.0,874133.0,882177.0,876146.0,58
2,0,1,0,0,27,test,1,1,m,Fri Feb 28 2025 16:52:22 GMT-0600 (Central Standard Time),898769.0,O,m,1285,59,1,125.bmp,-120,-120,126.bmp,120,-120,127.bmp,-120,120,128.bmp,120,120,9343.799999999814,889425.2000000002,7073,no,SM,A,128.bmp,120,-120,304208,298180,306224,300192,889642.0,883613.0,891658.0,885626.0,59
1,1,0,0,0,27,test,1,0,z,Fri Feb 28 2025 16:52:22 GMT-0600 (Central Standard Time),908832.4000000004,O,None,2015,60,1,129.bmp,-120,-120,130.bmp,120,-120,131.bmp,-120,120,132.bmp,120,120,10060.400000000373,898772.0,7073,yes,SM,A,129.bmp,-120,-120,304208,298180,306224,300192,898989.0,892960.0,901005.0,894973.0,60
2,0,1,0,0,28,test,1,1,z,Fri Feb 28 2025 16:52:22 GMT-0600 (Central Standard Time),918229.5,O,z,1347,61,1,133.bmp,-120,-120,134.bmp,120,-120,135.bmp,-120,120,136.bmp,120,120,9393.899999999441,908835.6000000006,7073,yes,SM,A,134.bmp,120,-120,304208,298180,306224,300192,909052.0,903024.0,911068.0,905037.0,61
4,0,0,0,1,28,test,1,0,z,Fri Feb 28 2025 16:52:22 GMT-0600 (Central Standard Time),928292.7000000002,O,None,2016,62,1,141.bmp,-120,-120,142.bmp,120,-120,143.bmp,-120,120,144.bmp,120,120,10060.099999999627,918232.6000000006,7073,yes,SM,A,144.bmp,120,120,304208,298180,306224,300192,918449.0,912421.0,920465.0,914434.0,62
1,1,0,0,0,29,test,1,1,m,Fri Feb 28 2025 16:52:22 GMT-0600 (Central Standard Time),937539.7999999998,O,m,1197,63,1,145.bmp,-120,-120,146.bmp,120,-120,147.bmp,-120,120,148.bmp,120,120,9243.899999999441,928295.9000000004,7073,no,SM,A,145.bmp,-120,120,304208,298180,306224,300192,928513.0,922484.0,930529.0,924498.0,63
2,0,1,0,0,30,test,1,1,z,Fri Feb 28 2025 16:52:22 GMT-0600 (Central Standard Time),946903.7000000002,O,z,1311,64,1,149.bmp,-120,-120,150.bmp,120,-120,112.bmp,-120,120,101.bmp,120,120,9361.0,937542.7000000002,7073,yes,SM,A,150.bmp,120,-120,304208,298180,306224,300192,937760.0,931731.0,939776.0,933744.0,64
4,0,0,0,1,31,test,1,1,m,Fri Feb 28 2025 16:52:22 GMT-0600 (Central Standard Time),956584.1000000006,O,m,1626,65,1,102.bmp,-120,-120,103.bmp,120,-120,104.bmp,-120,120,105.bmp,120,120,9677.300000000745,946906.7999999998,7073,no,SM,A,104.bmp,120,120,304208,298180,306224,300192,947123.0,941095.0,949140.0,943108.0,65
3,0,0,1,0,31,test,1,0,m,Fri Feb 28 2025 16:52:22 GMT-0600 (Central Standard Time),966648.7000000002,O,None,2017,66,1,106.bmp,-120,-120,107.bmp,120,-120,108.bmp,-120,120,109.bmp,120,120,10057.200000000186,956591.5,7073,no,SM,A,109.bmp,-120,120,304208,298180,306224,300192,956804.0,950780.0,958820.0,952789.0,66
2,0,1,0,0,32,test,1,1,m,Fri Feb 28 2025 16:52:22 GMT-0600 (Central Standard Time),975911.6000000006,O,m,1203,67,1,137.bmp,-120,-120,138.bmp,120,-120,139.bmp,-120,120,140.bmp,120,120,9259.0,966652.6000000006,7073,no,SM,A,139.bmp,120,-120,304208,298180,306224,300192,966867.0,960841.0,968884.0,962852.0,67
3,0,0,1,0,32,test,1,0,z,Fri Feb 28 2025 16:52:22 GMT-0600 (Central Standard Time),985608.2999999998,O,m,1635,68,1,110.bmp,-120,-120,111.bmp,120,-120,112.bmp,-120,120,113.bmp,120,120,9693.299999999814,975915.0,7073,yes,SM,A,112.bmp,-120,120,304208,298180,306224,300192,976131.0,970103.0,978147.0,972116.0,68
1,1,0,0,0,33,test,1,1,m,Fri Feb 28 2025 16:52:22 GMT-0600 (Central Standard Time),995305.4000000004,O,m,1634,69,1,114.bmp,-120,-120,115.bmp,120,-120,116.bmp,-120,120,117.bmp,120,120,9694.100000000559,985611.2999999998,7073,no,SM,A,115.bmp,-120,-120,304208,298180,306224,300192,985829.0,979799.0,987844.0,981813.0,69
2,0,1,0,0,34,test,1,1,m,Fri Feb 28 2025 16:52:22 GMT-0600 (Central Standard Time),1004868.9000000004,O,m,1514,70,1,118.bmp,-120,-120,119.bmp,120,-120,120.bmp,-120,120,121.bmp,120,120,9560.400000000373,995308.5,7073,no,SM,A,120.bmp,120,-120,304208,298180,306224,300192,995525.0,989497.0,997541.0,991510.0,70
4,0,0,0,1,34,test,1,0,z,Fri Feb 28 2025 16:52:22 GMT-0600 (Central Standard Time),1014282.7000000002,O,m,1358,71,1,122.bmp,-120,-120,123.bmp,120,-120,124.bmp,-120,120,125.bmp,120,120,9411.099999999627,1004871.6000000006,7073,yes,SM,A,125.bmp,120,120,304208,298180,306224,300192,1005089.0,999060.0,1007105.0,1001073.0,71
1,1,0,0,0,35,test,1,1,z,Fri Feb 28 2025 16:52:22 GMT-0600 (Central Standard Time),1023597.5,O,z,1269,72,1,126.bmp,-120,-120,127.bmp,120,-120,128.bmp,-120,120,129.bmp,120,120,9311.700000000186,1014285.7999999998,7073,yes,SM,A,126.bmp,-120,-120,304208,298180,306224,300192,1014502.0,1008474.0,1016505.0,1010487.0,72
2,0,1,0,0,36,test,1,1,z,Fri Feb 28 2025 16:52:22 GMT-0600 (Central Standard Time),1033143.6000000006,O,z,1494,73,1,130.bmp,-120,-120,131.bmp,120,-120,132.bmp,-120,120,133.bmp,120,120,9542.800000000745,1023600.7999999998,7073,yes,SM,A,131.bmp,120,-120,304208,298180,306224,300192,1023816.0,1017789.0,1025833.0,1019801.0,73
4,0,0,0,1,37,test,1,1,m,Fri Feb 28 2025 16:52:22 GMT-0600 (Central Standard Time),1042940.5,O,m,1748,74,1,134.bmp,-120,-120,135.bmp,120,-120,136.bmp,-120,120,137.bmp,120,120,9793.599999999627,1033146.9000000004,7073,no,SM,A,136.bmp,120,120,304208,298180,306224,300192,1033363.0,1027335.0,1035379.0,1029348.0,74
2,0,1,0,0,37,test,1,0,m,Fri Feb 28 2025 16:52:22 GMT-0600 (Central Standard Time),1053004.0,O,None,2016,75,1,138.bmp,-120,-120,139.bmp,120,-120,140.bmp,-120,120,141.bmp,120,120,10060.599999999627,1042943.4000000004,7073,no,SM,A,141.bmp,120,-120,304208,298180,306224,300192,1043160.0,1037132.0,1045176.0,1039145.0,75
1,1,0,0,0,38,test,1,1,z,Fri Feb 28 2025 16:52:22 GMT-0600 (Central Standard Time),1062134.2999999998,O,z,1070,76,1,142.bmp,-120,-120,143.bmp,120,-120,144.bmp,-120,120,145.bmp,120,120,9127.199999999255,1053007.1000000006,7073,yes,SM,A,142.bmp,-120,-120,304208,298180,306224,300192,1053224.0,1047195.0,1055240.0,1049208.0,76
3,0,0,1,0,38,test,1,0,z,Fri Feb 28 2025 16:52:22 GMT-0600 (Central Standard Time),1071114.9000000004,O,m,924,77,1,150.bmp,-120,-120,111.bmp,120,-120,101.bmp,-120,120,102.bmp,120,120,8977.100000000559,1062137.7999999998,7073,yes,SM,A,101.bmp,-120,120,304208,298180,306224,300192,1062354.0,1056326.0,1064371.0,1058339.0,77
1,1,0,0,0,39,test,1,1,m,Fri Feb 28 2025 16:52:22 GMT-0600 (Central Standard Time),1080428.7999999998,O,m,1256,78,1,146.bmp,-120,-120,147.bmp,120,-120,148.bmp,-120,120,149.bmp,120,120,9311.0,1071117.7999999998,7073,no,SM,A,147.bmp,-120,-120,304208,298180,306224,300192,1071334.0,1065306.0,1073351.0,1067320.0,78
4,0,0,0,1,40,test,1,1,m,Fri Feb 28 2025 16:52:22 GMT-0600 (Central Standard Time),1089625.7999999998,O,m,1142,79,1,107.bmp,-120,-120,108.bmp,120,-120,109.bmp,-120,120,110.bmp,120,120,9194.299999999814,1080431.5,7073,no,SM,A,107.bmp,120,120,304208,298180,306224,300192,1080648.0,1074620.0,1082665.0,1076633.0,79
3,0,0,1,0,41,test,1,1,m,Fri Feb 28 2025 16:52:22 GMT-0600 (Central Standard Time),1098923.0,O,m,1249,80,1,103.bmp,-120,-120,104.bmp,120,-120,105.bmp,-120,120,106.bmp,120,120,9294.099999999627,1089628.9000000004,7073,no,SM,A,106.bmp,-120,120,304208,298180,306224,300192,1089846.0,1083817.0,1091862.0,1085830.0,80
