Number,acc_sum,block,block_c,block_cond,con_img,correct,correct_response,datetime,endtime,jitter,project,response,response_time,row_sel,session_number,start_end,starttime,subject_id,task,task_vers,trial
3,0,prac,1,A,circle.png,0,z,Thu Nov 07 2024 13:07:54 GMT-0600 (Central Standard Time),52456.0,1200,O,None,1512,3,1,3488.9000000953674,48967.09999990463,7027,NTS,A,1
2,1,prac,1,A,circle.png,1,z,Thu Nov 07 2024 13:07:54 GMT-0600 (Central Standard Time),55505.09999990463,2000,O,z,232,2,1,3026.0,52479.09999990463,7027,NTS,A,2
6,2,prac,1,A,circle.png,1,m,Thu Nov 07 2024 13:07:54 GMT-0600 (Central Standard Time),58970.90000009537,1900,O,m,746,5,1,3438.600000143051,55532.299999952316,7027,NTS,A,3
9,3,prac,1,A,circle.png,1,m,Thu Nov 07 2024 13:07:54 GMT-0600 (Central Standard Time),62003.200000047684,1500,O,m,706,8,1,3001.600000143051,59001.59999990463,7027,NTS,A,4
1,4,prac,1,A,circle.png,1,z,Thu Nov 07 2024 13:07:54 GMT-0600 (Central Standard Time),64785.200000047684,1000,O,z,973,1,1,2753.5,62031.700000047684,7027,NTS,A,5
6,5,prac,1,A,circle.png,1,m,Thu Nov 07 2024 13:07:54 GMT-0600 (Central Standard Time),68184.09999990463,1900,O,m,689,5,1,3369.699999809265,64814.40000009537,7027,NTS,A,6
4,6,prac,1,A,circle.png,1,z,Thu Nov 07 2024 13:07:54 GMT-0600 (Central Standard Time),71799.79999995232,1400,O,z,1400,4,1,3589.7999999523163,68210.0,7027,NTS,A,7
8,7,prac,1,A,circle.png,1,m,Thu Nov 07 2024 13:07:54 GMT-0600 (Central Standard Time),74882.0,1600,O,m,666,7,1,3052.9000000953674,71829.09999990463,7027,NTS,A,8
7,8,prac,1,A,circle.png,1,m,Thu Nov 07 2024 13:07:54 GMT-0600 (Central Standard Time),78364.09999990463,1700,O,m,955,6,1,3451.0,74913.09999990463,7027,NTS,A,9
7,9,prac,1,A,circle.png,1,m,Thu Nov 07 2024 13:07:54 GMT-0600 (Central Standard Time),81479.79999995232,1700,O,m,608,6,1,3087.2000000476837,78392.59999990463,7027,NTS,A,10
4,10,prac,1,A,circle.png,1,z,Thu Nov 07 2024 13:07:54 GMT-0600 (Central Standard Time),84312.40000009537,1400,O,z,618,4,1,2810.300000190735,81502.09999990463,7027,NTS,A,11
9,11,prac,1,A,circle.png,1,m,Thu Nov 07 2024 13:07:54 GMT-0600 (Central Standard Time),87228.20000004768,1500,O,m,614,8,1,2886.4000000953674,84341.79999995232,7027,NTS,A,12
3,1,prac,1,B,triangle.png,1,z,Thu Nov 07 2024 13:07:54 GMT-0600 (Central Standard Time),112336.29999995232,1600,O,z,1259,3,1,3638.7999999523163,108697.5,7027,NTS,A,1
9,2,prac,1,B,triangle.png,1,z,Thu Nov 07 2024 13:07:54 GMT-0600 (Central Standard Time),115418.5,1400,O,z,857,8,1,3051.0999999046326,112367.40000009537,7027,NTS,A,2
3,3,prac,1,B,triangle.png,1,z,Thu Nov 07 2024 13:07:54 GMT-0600 (Central Standard Time),118451.20000004768,1600,O,z,632,3,1,3005.4000000953674,115445.79999995232,7027,NTS,A,3
4,4,prac,1,B,triangle.png,1,m,Thu Nov 07 2024 13:07:54 GMT-0600 (Central Standard Time),121150.0,1500,O,m,396,4,1,2674.4000000953674,118475.59999990463,7027,NTS,A,4
6,5,prac,1,B,triangle.png,1,m,Thu Nov 07 2024 13:07:54 GMT-0600 (Central Standard Time),123749.20000004768,1000,O,m,788,5,1,2570.5,121178.70000004768,7027,NTS,A,5
2,6,prac,1,B,triangle.png,1,m,Thu Nov 07 2024 13:07:54 GMT-0600 (Central Standard Time),127031.40000009537,1700,O,m,769,2,1,3253.600000143051,123777.79999995232,7027,NTS,A,6
7,7,prac,1,B,triangle.png,1,z,Thu Nov 07 2024 13:07:54 GMT-0600 (Central Standard Time),130645.90000009537,2000,O,z,813,6,1,3588.600000143051,127057.29999995232,7027,NTS,A,7
2,8,prac,1,B,triangle.png,1,m,Thu Nov 07 2024 13:07:54 GMT-0600 (Central Standard Time),134161.59999990463,1700,O,m,1017,2,1,3508.5999999046326,130653.0,7027,NTS,A,8
8,9,prac,1,B,triangle.png,1,m,Thu Nov 07 2024 13:07:54 GMT-0600 (Central Standard Time),137043.90000009537,1200,O,m,897,7,1,2875.100000143051,134168.79999995232,7027,NTS,A,9
1,10,prac,1,B,triangle.png,1,z,Thu Nov 07 2024 13:07:54 GMT-0600 (Central Standard Time),140409.5,1900,O,z,666,1,1,3358.2000000476837,137051.29999995232,7027,NTS,A,10
4,11,prac,1,B,triangle.png,1,m,Thu Nov 07 2024 13:07:54 GMT-0600 (Central Standard Time),143675.0,1500,O,m,973,4,1,3258.5999999046326,140416.40000009537,7027,NTS,A,11
6,12,prac,1,B,triangle.png,1,m,Thu Nov 07 2024 13:07:54 GMT-0600 (Central Standard Time),146257.5,1000,O,m,783,5,1,2574.5999999046326,143682.90000009537,7027,NTS,A,12
1,1,test,1,A,circle.png,1,z,Thu Nov 07 2024 13:07:54 GMT-0600 (Central Standard Time),170949.40000009537,1000,O,z,805,1,1,1825.0,169124.40000009537,7027,NTS,A,1
4,2,test,1,A,circle.png,1,z,Thu Nov 07 2024 13:07:54 GMT-0600 (Central Standard Time),173065.40000009537,1400,O,z,693,4,1,2109.9000000953674,170955.5,7027,NTS,A,2
9,3,test,1,A,circle.png,1,m,Thu Nov 07 2024 13:07:54 GMT-0600 (Central Standard Time),175347.79999995232,1500,O,m,757,8,1,2276.5,173071.29999995232,7027,NTS,A,3
1,4,test,1,A,circle.png,1,z,Thu Nov 07 2024 13:07:54 GMT-0600 (Central Standard Time),177130.70000004768,1000,O,z,750,1,1,1777.1000001430511,175353.59999990463,7027,NTS,A,4
3,5,test,1,A,circle.png,1,z,Thu Nov 07 2024 13:07:54 GMT-0600 (Central Standard Time),179163.40000009537,1200,O,z,799,3,1,2026.8000001907349,177136.59999990463,7027,NTS,A,5
8,6,test,1,A,circle.png,1,m,Thu Nov 07 2024 13:07:54 GMT-0600 (Central Standard Time),181729.20000004768,1600,O,m,934,7,1,2560.7999999523163,179168.40000009537,7027,NTS,A,6
3,7,test,1,A,circle.png,1,z,Thu Nov 07 2024 13:07:54 GMT-0600 (Central Standard Time),183861.90000009537,1200,O,z,905,3,1,2127.5,181734.40000009537,7027,NTS,A,7
8,8,test,1,A,circle.png,1,m,Thu Nov 07 2024 13:07:54 GMT-0600 (Central Standard Time),185994.5,1600,O,m,500,7,1,2127.9000000953674,183866.59999990463,7027,NTS,A,8
2,9,test,1,A,circle.png,1,z,Thu Nov 07 2024 13:07:54 GMT-0600 (Central Standard Time),188777.0,2000,O,z,752,2,1,2777.0999999046326,185999.90000009537,7027,NTS,A,9
3,10,test,1,A,circle.png,1,z,Thu Nov 07 2024 13:07:54 GMT-0600 (Central Standard Time),190842.70000004768,1200,O,z,833,3,1,2059.7999999523163,188782.90000009537,7027,NTS,A,10
1,11,test,1,A,circle.png,1,z,Thu Nov 07 2024 13:07:54 GMT-0600 (Central Standard Time),192608.70000004768,1000,O,z,735,1,1,1760.9000000953674,190847.79999995232,7027,NTS,A,11
7,12,test,1,A,circle.png,1,m,Thu Nov 07 2024 13:07:54 GMT-0600 (Central Standard Time),194891.20000004768,1700,O,m,566,6,1,2276.600000143051,192614.59999990463,7027,NTS,A,12
1,13,test,1,A,circle.png,1,z,Thu Nov 07 2024 13:07:54 GMT-0600 (Central Standard Time),196541.79999995232,1000,O,z,620,1,1,1645.2999999523163,194896.5,7027,NTS,A,13
3,14,test,1,A,circle.png,1,z,Thu Nov 07 2024 13:07:54 GMT-0600 (Central Standard Time),198657.70000004768,1200,O,z,876,3,1,2096.2000000476837,196561.5,7027,NTS,A,14
7,15,test,1,A,circle.png,1,m,Thu Nov 07 2024 13:07:54 GMT-0600 (Central Standard Time),201323.29999995232,1700,O,m,914,6,1,2646.0999999046326,198677.20000004768,7027,NTS,A,15
6,16,test,1,A,circle.png,1,m,Thu Nov 07 2024 13:07:54 GMT-0600 (Central Standard Time),203989.40000009537,1900,O,m,721,5,1,2647.4000000953674,201342.0,7027,NTS,A,16
2,17,test,1,A,circle.png,1,z,Thu Nov 07 2024 13:07:54 GMT-0600 (Central Standard Time),206721.79999995232,2000,O,z,684,2,1,2712.399999856949,204009.40000009537,7027,NTS,A,17
2,18,test,1,A,circle.png,1,z,Thu Nov 07 2024 13:07:54 GMT-0600 (Central Standard Time),209570.79999995232,2000,O,z,800,2,1,2829.7999999523163,206741.0,7027,NTS,A,18
6,19,test,1,A,circle.png,1,m,Thu Nov 07 2024 13:07:54 GMT-0600 (Central Standard Time),212552.90000009537,1900,O,m,1043,5,1,2963.600000143051,209589.29999995232,7027,NTS,A,19
7,20,test,1,A,circle.png,1,m,Thu Nov 07 2024 13:07:54 GMT-0600 (Central Standard Time),215285.40000009537,1700,O,m,988,6,1,2713.800000190735,212571.59999990463,7027,NTS,A,20
4,21,test,1,A,circle.png,1,z,Thu Nov 07 2024 13:07:54 GMT-0600 (Central Standard Time),217584.79999995232,1400,O,z,860,4,1,2280.7000000476837,215304.09999990463,7027,NTS,A,21
8,22,test,1,A,circle.png,1,m,Thu Nov 07 2024 13:07:54 GMT-0600 (Central Standard Time),219967.40000009537,1600,O,m,735,7,1,2363.2000000476837,217604.20000004768,7027,NTS,A,22
9,23,test,1,A,circle.png,1,m,Thu Nov 07 2024 13:07:54 GMT-0600 (Central Standard Time),222099.40000009537,1500,O,m,581,8,1,2113.300000190735,219986.09999990463,7027,NTS,A,23
6,24,test,1,A,circle.png,1,m,Thu Nov 07 2024 13:07:54 GMT-0600 (Central Standard Time),224782.5,1900,O,m,752,5,1,2670.2999999523163,222112.20000004768,7027,NTS,A,24
4,1,test,1,B,triangle.png,1,m,Thu Nov 07 2024 13:07:54 GMT-0600 (Central Standard Time),235145.70000004768,1000,O,m,818,12,1,1848.0,233297.70000004768,7027,NTS,A,1
3,2,test,1,B,triangle.png,1,z,Thu Nov 07 2024 13:07:54 GMT-0600 (Central Standard Time),237844.90000009537,2000,O,z,665,11,1,2679.4000000953674,235165.5,7027,NTS,A,2
3,3,test,1,B,triangle.png,1,z,Thu Nov 07 2024 13:07:54 GMT-0600 (Central Standard Time),240160.70000004768,1600,O,z,677,3,1,2296.2000000476837,237864.5,7027,NTS,A,3
9,4,test,1,B,triangle.png,1,z,Thu Nov 07 2024 13:07:54 GMT-0600 (Central Standard Time),242626.59999990463,1400,O,z,1018,8,1,2445.399999856949,240181.20000004768,7027,NTS,A,4
9,5,test,1,B,triangle.png,1,z,Thu Nov 07 2024 13:07:54 GMT-0600 (Central Standard Time),245392.29999995232,1400,O,z,1327,8,1,2746.2999999523163,242646.0,7027,NTS,A,5
6,6,test,1,B,triangle.png,1,m,Thu Nov 07 2024 13:07:54 GMT-0600 (Central Standard Time),247591.5,1000,O,m,1162,5,1,2180.7000000476837,245410.79999995232,7027,NTS,A,6
9,7,test,1,B,triangle.png,1,z,Thu Nov 07 2024 13:07:54 GMT-0600 (Central Standard Time),250690.90000009537,1900,O,z,1150,16,1,3081.2000000476837,247609.70000004768,7027,NTS,A,7
3,8,test,1,B,triangle.png,1,z,Thu Nov 07 2024 13:07:54 GMT-0600 (Central Standard Time),253556.59999990463,2000,O,z,832,11,1,2846.7999999523163,250709.79999995232,7027,NTS,A,8
4,9,test,1,B,triangle.png,1,m,Thu Nov 07 2024 13:07:54 GMT-0600 (Central Standard Time),255754.70000004768,1500,O,m,657,4,1,2177.7000000476837,253577.0,7027,NTS,A,9
6,10,test,1,B,triangle.png,1,m,Thu Nov 07 2024 13:07:54 GMT-0600 (Central Standard Time),258687.59999990463,1500,O,m,1411,13,1,2927.5999999046326,255760.0,7027,NTS,A,10
1,11,test,1,B,triangle.png,1,z,Thu Nov 07 2024 13:07:54 GMT-0600 (Central Standard Time),260887.29999995232,1400,O,z,762,9,1,2181.0999999046326,258706.20000004768,7027,NTS,A,11
8,12,test,1,B,triangle.png,1,m,Thu Nov 07 2024 13:07:54 GMT-0600 (Central Standard Time),263302.2999999523,1700,O,m,678,15,1,2395.0999999046326,260907.20000004768,7027,NTS,A,12
1,13,test,1,B,triangle.png,1,z,Thu Nov 07 2024 13:07:54 GMT-0600 (Central Standard Time),265834.7999999523,1900,O,z,608,1,1,2524.5999999046326,263310.2000000477,7027,NTS,A,13
8,14,test,1,B,triangle.png,1,m,Thu Nov 07 2024 13:07:54 GMT-0600 (Central Standard Time),267751.7999999523,1200,O,m,687,7,1,1910.7999999523163,265841.0,7027,NTS,A,14
7,15,test,1,B,triangle.png,1,z,Thu Nov 07 2024 13:07:54 GMT-0600 (Central Standard Time),271017.2000000477,2000,O,z,1227,6,1,3245.0,267772.2000000477,7027,NTS,A,15
6,16,test,1,B,triangle.png,1,m,Thu Nov 07 2024 13:07:54 GMT-0600 (Central Standard Time),273516.59999990463,1500,O,m,949,13,1,2479.0999999046326,271037.5,7027,NTS,A,16
7,16,test,1,B,triangle.png,0,z,Thu Nov 07 2024 13:07:54 GMT-0600 (Central Standard Time),275849.09999990463,1600,O,m,686,14,1,2314.2999999523163,273534.7999999523,7027,NTS,A,17
4,17,test,1,B,triangle.png,1,m,Thu Nov 07 2024 13:07:54 GMT-0600 (Central Standard Time),278597.90000009537,1500,O,m,1213,4,1,2730.2000000476837,275867.7000000477,7027,NTS,A,18
7,18,test,1,B,triangle.png,1,z,Thu Nov 07 2024 13:07:54 GMT-0600 (Central Standard Time),281146.2999999523,1600,O,z,899,14,1,2531.2000000476837,278615.09999990463,7027,NTS,A,19
2,19,test,1,B,triangle.png,1,m,Thu Nov 07 2024 13:07:54 GMT-0600 (Central Standard Time),283996.09999990463,1700,O,m,1124,2,1,2845.0999999046326,281151.0,7027,NTS,A,20
1,20,test,1,B,triangle.png,1,z,Thu Nov 07 2024 13:07:54 GMT-0600 (Central Standard Time),286545.5,1900,O,z,602,1,1,2529.0999999046326,284016.40000009537,7027,NTS,A,21
2,21,test,1,B,triangle.png,1,m,Thu Nov 07 2024 13:07:54 GMT-0600 (Central Standard Time),288561.40000009537,1200,O,m,777,10,1,1997.6000001430511,286563.7999999523,7027,NTS,A,22
6,22,test,1,B,triangle.png,1,m,Thu Nov 07 2024 13:07:54 GMT-0600 (Central Standard Time),290610.90000009537,1000,O,m,1009,5,1,2033.2000000476837,288577.7000000477,7027,NTS,A,23
2,23,test,1,B,triangle.png,1,m,Thu Nov 07 2024 13:07:54 GMT-0600 (Central Standard Time),292843.2999999523,1200,O,m,991,10,1,2213.2999999523163,290630.0,7027,NTS,A,24
9,1,prac,1,C,circle.png,1,m,Thu Nov 07 2024 13:07:54 GMT-0600 (Central Standard Time),321867.40000009537,1900,O,m,1298,8,1,3976.7000000476837,317890.7000000477,7027,NTS,A,1
9,2,prac,1,C,circle.png,1,m,Thu Nov 07 2024 13:07:54 GMT-0600 (Central Standard Time),325249.5,1900,O,m,675,8,1,3356.2000000476837,321893.2999999523,7027,NTS,A,2
2,2,prac,1,C,triangle.png,0,m,Thu Nov 07 2024 13:07:54 GMT-0600 (Central Standard Time),329164.90000009537,1600,O,None,1514,2,1,3889.0,325275.90000009537,7027,NTS,A,3
7,3,prac,1,C,triangle.png,1,z,Thu Nov 07 2024 13:07:54 GMT-0600 (Central Standard Time),332030.59999990463,1200,O,z,861,6,1,2843.0,329187.59999990463,7027,NTS,A,4
8,4,prac,1,C,triangle.png,1,m,Thu Nov 07 2024 13:07:54 GMT-0600 (Central Standard Time),335096.5,1400,O,m,860,7,1,3044.2999999523163,332052.2000000477,7027,NTS,A,5
1,5,prac,1,C,circle.png,1,z,Thu Nov 07 2024 13:07:54 GMT-0600 (Central Standard Time),338445.09999990463,1700,O,z,846,1,1,3328.0999999046326,335117.0,7027,NTS,A,6
2,5,prac,1,C,triangle.png,0,m,Thu Nov 07 2024 13:07:54 GMT-0600 (Central Standard Time),342360.5,1600,O,None,1515,2,1,3891.2999999523163,338469.2000000477,7027,NTS,A,7
3,6,prac,1,C,triangle.png,1,z,Thu Nov 07 2024 13:07:54 GMT-0600 (Central Standard Time),345809.5,1500,O,z,1117,3,1,3418.4000000953674,342391.09999990463,7027,NTS,A,8
6,7,prac,1,C,circle.png,1,m,Thu Nov 07 2024 13:07:54 GMT-0600 (Central Standard Time),349491.5,2000,O,m,881,5,1,3655.9000000953674,345835.59999990463,7027,NTS,A,9
7,7,prac,1,C,triangle.png,0,z,Thu Nov 07 2024 13:07:54 GMT-0600 (Central Standard Time),352623.7000000477,1200,O,m,1127,6,1,3111.100000143051,349512.59999990463,7027,NTS,A,10
4,7,prac,1,C,circle.png,0,z,Thu Nov 07 2024 13:07:54 GMT-0600 (Central Standard Time),355323.0,1000,O,m,898,4,1,2672.0999999046326,352650.90000009537,7027,NTS,A,11
4,8,prac,1,C,circle.png,1,z,Thu Nov 07 2024 13:07:54 GMT-0600 (Central Standard Time),357755.59999990463,1000,O,z,631,4,1,2405.399999856949,355350.2000000477,7027,NTS,A,12
4,1,test,1,C,circle.png,1,z,Thu Nov 07 2024 13:07:54 GMT-0600 (Central Standard Time),375783.09999990463,1400,O,z,1255,4,1,2680.399999856949,373102.7000000477,7027,NTS,A,1
8,2,test,1,C,triangle.png,1,m,Thu Nov 07 2024 13:07:54 GMT-0600 (Central Standard Time),378881.7000000477,1600,O,m,1459,23,1,3077.100000143051,375804.59999990463,7027,NTS,A,2
9,2,test,1,C,circle.png,0,m,Thu Nov 07 2024 13:07:54 GMT-0600 (Central Standard Time),381930.7000000477,1500,O,None,1516,8,1,3029.0,378901.7000000477,7027,NTS,A,3
1,3,test,1,C,triangle.png,1,z,Thu Nov 07 2024 13:07:54 GMT-0600 (Central Standard Time),385229.7000000477,1900,O,z,1355,9,1,3279.600000143051,381950.09999990463,7027,NTS,A,4
9,3,test,1,C,triangle.png,0,z,Thu Nov 07 2024 13:07:54 GMT-0600 (Central Standard Time),388178.59999990463,1400,O,None,1515,16,1,2929.0,385249.59999990463,7027,NTS,A,5
6,4,test,1,C,circle.png,1,m,Thu Nov 07 2024 13:07:54 GMT-0600 (Central Standard Time),390944.40000009537,1900,O,m,829,5,1,2745.800000190735,388198.59999990463,7027,NTS,A,6
7,5,test,1,C,triangle.png,1,z,Thu Nov 07 2024 13:07:54 GMT-0600 (Central Standard Time),393460.0,1700,O,z,774,6,1,2496.0999999046326,390963.90000009537,7027,NTS,A,7
3,6,test,1,C,circle.png,1,z,Thu Nov 07 2024 13:07:54 GMT-0600 (Central Standard Time),396192.7000000477,1600,O,z,1086,11,1,2713.7999999523163,393478.90000009537,7027,NTS,A,8
7,6,test,1,C,circle.png,0,m,Thu Nov 07 2024 13:07:54 GMT-0600 (Central Standard Time),399591.59999990463,2000,O,z,1362,14,1,3379.399999856949,396212.2000000477,7027,NTS,A,9
6,7,test,1,C,circle.png,1,m,Thu Nov 07 2024 13:07:54 GMT-0600 (Central Standard Time),402573.59999990463,1900,O,m,1049,21,1,2963.5999999046326,399610.0,7027,NTS,A,10
6,7,test,1,C,triangle.png,0,m,Thu Nov 07 2024 13:07:54 GMT-0600 (Central Standard Time),404656.7000000477,1000,O,z,1036,13,1,2062.2999999523163,402594.40000009537,7027,NTS,A,11
1,7,test,1,C,circle.png,0,z,Thu Nov 07 2024 13:07:54 GMT-0600 (Central Standard Time),407205.7999999523,1000,O,None,1516,1,1,2529.399999856949,404676.40000009537,7027,NTS,A,12
2,8,test,1,C,triangle.png,1,m,Thu Nov 07 2024 13:07:54 GMT-0600 (Central Standard Time),410437.7000000477,2000,O,m,1197,2,1,3213.2000000476837,407224.5,7027,NTS,A,13
7,9,test,1,C,triangle.png,1,z,Thu Nov 07 2024 13:07:54 GMT-0600 (Central Standard Time),413437.09999990463,1700,O,z,1256,22,1,2980.199999809265,410456.90000009537,7027,NTS,A,14
3,10,test,1,C,circle.png,1,z,Thu Nov 07 2024 13:07:54 GMT-0600 (Central Standard Time),416102.90000009537,1600,O,z,1029,19,1,2646.100000143051,413456.7999999523,7027,NTS,A,15
1,10,test,1,C,triangle.png,0,z,Thu Nov 07 2024 13:07:54 GMT-0600 (Central Standard Time),419068.5,1900,O,m,1024,17,1,2946.0,416122.5,7027,NTS,A,16
2,11,test,1,C,circle.png,1,z,Thu Nov 07 2024 13:07:54 GMT-0600 (Central Standard Time),422084.0,1700,O,z,1266,18,1,2996.5999999046326,419087.40000009537,7027,NTS,A,17
4,12,test,1,C,triangle.png,1,m,Thu Nov 07 2024 13:07:54 GMT-0600 (Central Standard Time),424933.40000009537,1500,O,m,1306,12,1,2830.0,422103.40000009537,7027,NTS,A,18
2,13,test,1,C,circle.png,1,z,Thu Nov 07 2024 13:07:54 GMT-0600 (Central Standard Time),427631.7000000477,1700,O,z,960,10,1,2678.2999999523163,424953.40000009537,7027,NTS,A,19
4,14,test,1,C,triangle.png,1,m,Thu Nov 07 2024 13:07:54 GMT-0600 (Central Standard Time),430314.7999999523,1500,O,m,1159,20,1,2676.2999999523163,427638.5,7027,NTS,A,20
9,14,test,1,C,circle.png,0,m,Thu Nov 07 2024 13:07:54 GMT-0600 (Central Standard Time),432913.90000009537,1500,O,z,1052,24,1,2578.800000190735,430335.09999990463,7027,NTS,A,21
8,15,test,1,C,circle.png,1,m,Thu Nov 07 2024 13:07:54 GMT-0600 (Central Standard Time),435363.09999990463,1200,O,m,1200,15,1,2424.0999999046326,432939.0,7027,NTS,A,22
8,16,test,1,C,triangle.png,1,m,Thu Nov 07 2024 13:07:54 GMT-0600 (Central Standard Time),438012.59999990463,1600,O,m,1007,7,1,2629.5999999046326,435383.0,7027,NTS,A,23
3,17,test,1,C,triangle.png,1,z,Thu Nov 07 2024 13:07:54 GMT-0600 (Central Standard Time),440311.40000009537,1200,O,z,1062,3,1,2278.100000143051,438033.2999999523,7027,NTS,A,24
2,0,test,2,C,circle.png,0,z,Thu Nov 07 2024 13:07:54 GMT-0600 (Central Standard Time),447426.2000000477,1700,O,None,1515,10,1,3232.0,444194.2000000477,7027,NTS,A,1
1,0,test,2,C,triangle.png,0,z,Thu Nov 07 2024 13:07:54 GMT-0600 (Central Standard Time),450291.90000009537,1900,O,m,917,17,1,2845.5,447446.40000009537,7027,NTS,A,2
4,1,test,2,C,triangle.png,1,m,Thu Nov 07 2024 13:07:54 GMT-0600 (Central Standard Time),453207.2000000477,1500,O,m,1371,20,1,2896.4000000953674,450310.7999999523,7027,NTS,A,3
9,1,test,2,C,circle.png,0,m,Thu Nov 07 2024 13:07:54 GMT-0600 (Central Standard Time),456256.40000009537,1500,O,None,1515,8,1,3029.300000190735,453227.09999990463,7027,NTS,A,4
2,2,test,2,C,circle.png,1,z,Thu Nov 07 2024 13:07:54 GMT-0600 (Central Standard Time),459055.40000009537,1700,O,z,1062,18,1,2779.800000190735,456275.59999990463,7027,NTS,A,5
6,3,test,2,C,triangle.png,1,m,Thu Nov 07 2024 13:07:54 GMT-0600 (Central Standard Time),461121.09999990463,1000,O,m,1027,13,1,2046.0,459075.09999990463,7027,NTS,A,6
1,4,test,2,C,circle.png,1,z,Thu Nov 07 2024 13:07:54 GMT-0600 (Central Standard Time),462987.40000009537,1000,O,z,817,1,1,1846.0,461141.40000009537,7027,NTS,A,7
1,4,test,2,C,triangle.png,0,z,Thu Nov 07 2024 13:07:54 GMT-0600 (Central Standard Time),466036.2999999523,1900,O,m,1099,9,1,3030.399999856949,463005.90000009537,7027,NTS,A,8
9,4,test,2,C,triangle.png,0,z,Thu Nov 07 2024 13:07:54 GMT-0600 (Central Standard Time),468868.59999990463,1400,O,m,1398,16,1,2813.5,466055.09999990463,7027,NTS,A,9
7,5,test,2,C,triangle.png,1,z,Thu Nov 07 2024 13:07:54 GMT-0600 (Central Standard Time),471601.2999999523,1700,O,z,996,6,1,2713.0999999046326,468888.2000000477,7027,NTS,A,10
8,6,test,2,C,triangle.png,1,m,Thu Nov 07 2024 13:07:54 GMT-0600 (Central Standard Time),474215.90000009537,1600,O,m,968,7,1,2594.9000000953674,471621.0,7027,NTS,A,11
7,7,test,2,C,circle.png,1,m,Thu Nov 07 2024 13:07:54 GMT-0600 (Central Standard Time),477366.0,2000,O,m,1124,22,1,3145.5,474220.5,7027,NTS,A,12
4,8,test,2,C,circle.png,1,z,Thu Nov 07 2024 13:07:54 GMT-0600 (Central Standard Time),479847.7999999523,1400,O,z,1043,4,1,2463.399999856949,477384.40000009537,7027,NTS,A,13
8,9,test,2,C,circle.png,1,m,Thu Nov 07 2024 13:07:54 GMT-0600 (Central Standard Time),481797.2999999523,1200,O,m,731,23,1,1944.5,479852.7999999523,7027,NTS,A,14
8,10,test,2,C,circle.png,1,m,Thu Nov 07 2024 13:07:54 GMT-0600 (Central Standard Time),484230.40000009537,1200,O,m,1188,15,1,2415.2000000476837,481815.2000000477,7027,NTS,A,15
7,10,test,2,C,circle.png,0,m,Thu Nov 07 2024 13:07:54 GMT-0600 (Central Standard Time),487662.59999990463,2000,O,z,1396,14,1,3412.399999856949,484250.2000000477,7027,NTS,A,16
6,11,test,2,C,triangle.png,1,m,Thu Nov 07 2024 13:07:54 GMT-0600 (Central Standard Time),489828.59999990463,1000,O,m,1124,21,1,2147.199999809265,487681.40000009537,7027,NTS,A,17
9,12,test,2,C,triangle.png,1,z,Thu Nov 07 2024 13:07:54 GMT-0600 (Central Standard Time),492361.0,1400,O,z,1086,24,1,2513.7999999523163,489847.2000000477,7027,NTS,A,18
3,13,test,2,C,circle.png,1,z,Thu Nov 07 2024 13:07:54 GMT-0600 (Central Standard Time),495243.40000009537,1600,O,z,1241,11,1,2861.9000000953674,492381.5,7027,NTS,A,19
3,14,test,2,C,circle.png,1,z,Thu Nov 07 2024 13:07:54 GMT-0600 (Central Standard Time),497809.09999990463,1600,O,z,927,19,1,2545.899999856949,495263.2000000477,7027,NTS,A,20
2,15,test,2,C,triangle.png,1,m,Thu Nov 07 2024 13:07:54 GMT-0600 (Central Standard Time),501174.7999999523,2000,O,m,1321,2,1,3346.399999856949,497828.40000009537,7027,NTS,A,21
6,16,test,2,C,circle.png,1,m,Thu Nov 07 2024 13:07:54 GMT-0600 (Central Standard Time),504390.59999990463,1900,O,m,1272,5,1,3197.0999999046326,501193.5,7027,NTS,A,22
3,17,test,2,C,triangle.png,1,z,Thu Nov 07 2024 13:07:54 GMT-0600 (Central Standard Time),506739.5,1200,O,z,1099,3,1,2328.4000000953674,504411.09999990463,7027,NTS,A,23
4,18,test,2,C,triangle.png,1,m,Thu Nov 07 2024 13:07:54 GMT-0600 (Central Standard Time),509105.40000009537,1500,O,m,827,12,1,2347.0,506758.40000009537,7027,NTS,A,24
4,1,test,3,C,circle.png,1,z,Thu Nov 07 2024 13:07:54 GMT-0600 (Central Standard Time),514437.5,1400,O,z,840,4,1,2264.2999999523163,512173.2000000477,7027,NTS,A,1
6,2,test,3,C,circle.png,1,m,Thu Nov 07 2024 13:07:54 GMT-0600 (Central Standard Time),517269.2000000477,1900,O,m,897,21,1,2812.0,514457.2000000477,7027,NTS,A,2
9,2,test,3,C,circle.png,0,m,Thu Nov 07 2024 13:07:54 GMT-0600 (Central Standard Time),520318.7000000477,1500,O,None,1516,24,1,3029.7999999523163,517288.90000009537,7027,NTS,A,3
2,3,test,3,C,triangle.png,1,m,Thu Nov 07 2024 13:07:54 GMT-0600 (Central Standard Time),523467.59999990463,2000,O,m,1108,18,1,3130.0999999046326,520337.5,7027,NTS,A,4
3,4,test,3,C,circle.png,1,z,Thu Nov 07 2024 13:07:54 GMT-0600 (Central Standard Time),526233.2999999523,1600,O,z,1119,11,1,2747.0999999046326,523486.2000000477,7027,NTS,A,5
8,5,test,3,C,circle.png,1,m,Thu Nov 07 2024 13:07:54 GMT-0600 (Central Standard Time),528432.0999999046,1200,O,m,952,15,1,2179.199999809265,526252.9000000954,7027,NTS,A,6
4,6,test,3,C,circle.png,1,z,Thu Nov 07 2024 13:07:54 GMT-0600 (Central Standard Time),530815.0999999046,1400,O,z,946,20,1,2364.7999999523163,528450.2999999523,7027,NTS,A,7
7,7,test,3,C,circle.png,1,m,Thu Nov 07 2024 13:07:54 GMT-0600 (Central Standard Time),533664.2000000477,2000,O,m,803,14,1,2829.9000000953674,530834.2999999523,7027,NTS,A,8
2,7,test,3,C,triangle.png,0,m,Thu Nov 07 2024 13:07:54 GMT-0600 (Central Standard Time),536663.2000000477,2000,O,z,962,2,1,2976.7999999523163,533686.4000000954,7027,NTS,A,9
8,8,test,3,C,triangle.png,1,m,Thu Nov 07 2024 13:07:54 GMT-0600 (Central Standard Time),539578.7000000477,1600,O,m,1267,23,1,2894.600000143051,536684.0999999046,7027,NTS,A,10
3,9,test,3,C,triangle.png,1,z,Thu Nov 07 2024 13:07:54 GMT-0600 (Central Standard Time),541528.2999999523,1200,O,z,703,19,1,1929.8999998569489,539598.4000000954,7027,NTS,A,11
1,10,test,3,C,triangle.png,1,z,Thu Nov 07 2024 13:07:54 GMT-0600 (Central Standard Time),544244.0999999046,1900,O,z,766,9,1,2696.5,541547.5999999046,7027,NTS,A,12
7,11,test,3,C,triangle.png,1,z,Thu Nov 07 2024 13:07:54 GMT-0600 (Central Standard Time),546926.5,1700,O,z,939,22,1,2664.5999999046326,544261.9000000954,7027,NTS,A,13
6,12,test,3,C,triangle.png,1,m,Thu Nov 07 2024 13:07:54 GMT-0600 (Central Standard Time),548842.5,1000,O,m,868,13,1,1896.0,546946.5,7027,NTS,A,14
7,13,test,3,C,triangle.png,1,z,Thu Nov 07 2024 13:07:54 GMT-0600 (Central Standard Time),551641.7000000477,1700,O,z,1060,6,1,2779.5,548862.2000000477,7027,NTS,A,15
9,14,test,3,C,circle.png,1,m,Thu Nov 07 2024 13:07:54 GMT-0600 (Central Standard Time),554124.0,1500,O,m,942,8,1,2463.5,551660.5,7027,NTS,A,16
1,15,test,3,C,circle.png,1,z,Thu Nov 07 2024 13:07:54 GMT-0600 (Central Standard Time),556289.7999999523,1000,O,z,1126,17,1,2146.7999999523163,554143.0,7027,NTS,A,17
8,16,test,3,C,triangle.png,1,m,Thu Nov 07 2024 13:07:54 GMT-0600 (Central Standard Time),559322.2999999523,1600,O,m,1392,7,1,3014.7000000476837,556307.5999999046,7027,NTS,A,18
2,17,test,3,C,circle.png,1,z,Thu Nov 07 2024 13:07:54 GMT-0600 (Central Standard Time),562171.7000000477,1700,O,z,1100,10,1,2828.5,559343.2000000477,7027,NTS,A,19
1,18,test,3,C,circle.png,1,z,Thu Nov 07 2024 13:07:54 GMT-0600 (Central Standard Time),564204.0,1000,O,z,991,1,1,2012.4000000953674,562191.5999999046,7027,NTS,A,20
9,19,test,3,C,triangle.png,1,z,Thu Nov 07 2024 13:07:54 GMT-0600 (Central Standard Time),566853.0999999046,1400,O,z,1206,16,1,2629.699999809265,564223.4000000954,7027,NTS,A,21
4,20,test,3,C,triangle.png,1,m,Thu Nov 07 2024 13:07:54 GMT-0600 (Central Standard Time),569252.2000000477,1500,O,m,857,12,1,2380.2999999523163,566871.9000000954,7027,NTS,A,22
6,21,test,3,C,circle.png,1,m,Thu Nov 07 2024 13:07:54 GMT-0600 (Central Standard Time),572368.0999999046,1900,O,m,1170,5,1,3096.5,569271.5999999046,7027,NTS,A,23
3,22,test,3,C,triangle.png,1,z,Thu Nov 07 2024 13:07:54 GMT-0600 (Central Standard Time),574917.0,1200,O,z,1314,3,1,2529.2000000476837,572387.7999999523,7027,NTS,A,24
8,0,test,4,C,triangle.png,0,m,Thu Nov 07 2024 13:07:54 GMT-0600 (Central Standard Time),580998.7999999523,1600,O,None,1515,23,1,3131.7000000476837,577867.0999999046,7027,NTS,A,1
4,1,test,4,C,triangle.png,1,m,Thu Nov 07 2024 13:07:54 GMT-0600 (Central Standard Time),583264.7000000477,1500,O,m,720,12,1,2245.7999999523163,581018.9000000954,7027,NTS,A,2
2,2,test,4,C,triangle.png,1,m,Thu Nov 07 2024 13:07:54 GMT-0600 (Central Standard Time),586229.5,2000,O,m,929,18,1,2943.5999999046326,583285.9000000954,7027,NTS,A,3
9,3,test,4,C,circle.png,1,m,Thu Nov 07 2024 13:07:54 GMT-0600 (Central Standard Time),588646.2000000477,1500,O,m,889,24,1,2405.7999999523163,586240.4000000954,7027,NTS,A,4
3,4,test,4,C,circle.png,1,z,Thu Nov 07 2024 13:07:54 GMT-0600 (Central Standard Time),591428.7999999523,1600,O,z,1148,11,1,2763.2000000476837,588665.5999999046,7027,NTS,A,5
3,5,test,4,C,triangle.png,1,z,Thu Nov 07 2024 13:07:54 GMT-0600 (Central Standard Time),593677.5,1200,O,z,1006,19,1,2229.7000000476837,591447.7999999523,7027,NTS,A,6
9,6,test,4,C,triangle.png,1,z,Thu Nov 07 2024 13:07:54 GMT-0600 (Central Standard Time),596193.5999999046,1400,O,z,1069,16,1,2496.2999999523163,593697.2999999523,7027,NTS,A,7
9,7,test,4,C,circle.png,1,m,Thu Nov 07 2024 13:07:54 GMT-0600 (Central Standard Time),598542.7999999523,1500,O,m,805,8,1,2330.7999999523163,596212.0,7027,NTS,A,8
2,8,test,4,C,circle.png,1,z,Thu Nov 07 2024 13:07:54 GMT-0600 (Central Standard Time),601175.0999999046,1700,O,z,888,10,1,2614.0,598561.0999999046,7027,NTS,A,9
6,9,test,4,C,triangle.png,1,m,Thu Nov 07 2024 13:07:54 GMT-0600 (Central Standard Time),603224.5999999046,1000,O,m,1003,13,1,2033.3999998569489,601191.2000000477,7027,NTS,A,10
8,10,test,4,C,circle.png,1,m,Thu Nov 07 2024 13:07:54 GMT-0600 (Central Standard Time),605723.9000000954,1200,O,m,1250,15,1,2480.600000143051,603243.2999999523,7027,NTS,A,11
4,10,test,4,C,circle.png,0,z,Thu Nov 07 2024 13:07:54 GMT-0600 (Central Standard Time),608272.9000000954,1400,O,m,1103,4,1,2530.4000000953674,605742.5,7027,NTS,A,12
7,11,test,4,C,circle.png,1,m,Thu Nov 07 2024 13:07:54 GMT-0600 (Central Standard Time),611421.0,2000,O,m,1106,14,1,3129.4000000953674,608291.5999999046,7027,NTS,A,13
6,12,test,4,C,circle.png,1,m,Thu Nov 07 2024 13:07:54 GMT-0600 (Central Standard Time),614254.4000000954,1900,O,m,905,5,1,2827.300000190735,611427.0999999046,7027,NTS,A,14
3,13,test,4,C,triangle.png,1,z,Thu Nov 07 2024 13:07:54 GMT-0600 (Central Standard Time),616586.9000000954,1200,O,z,1092,3,1,2312.100000143051,614274.7999999523,7027,NTS,A,15
1,14,test,4,C,circle.png,1,z,Thu Nov 07 2024 13:07:54 GMT-0600 (Central Standard Time),618419.5,1000,O,z,792,17,1,1812.5,616607.0,7027,NTS,A,16
1,15,test,4,C,circle.png,1,z,Thu Nov 07 2024 13:07:54 GMT-0600 (Central Standard Time),620235.5999999046,1000,O,z,775,1,1,1797.2999999523163,618438.2999999523,7027,NTS,A,17
8,16,test,4,C,triangle.png,1,m,Thu Nov 07 2024 13:07:54 GMT-0600 (Central Standard Time),623117.7999999523,1600,O,m,1247,7,1,2862.0999999046326,620255.7000000477,7027,NTS,A,18
4,17,test,4,C,circle.png,1,z,Thu Nov 07 2024 13:07:54 GMT-0600 (Central Standard Time),625483.5999999046,1400,O,z,917,20,1,2346.899999856949,623136.7000000477,7027,NTS,A,19
1,18,test,4,C,triangle.png,1,z,Thu Nov 07 2024 13:07:54 GMT-0600 (Central Standard Time),628516.7000000477,1900,O,z,1099,9,1,3020.9000000953674,625495.7999999523,7027,NTS,A,20
2,19,test,4,C,triangle.png,1,m,Thu Nov 07 2024 13:07:54 GMT-0600 (Central Standard Time),631765.2000000477,2000,O,m,1206,2,1,3229.2000000476837,628536.0,7027,NTS,A,21
6,20,test,4,C,circle.png,1,m,Thu Nov 07 2024 13:07:54 GMT-0600 (Central Standard Time),634831.0,1900,O,m,1121,21,1,3046.7000000476837,631784.2999999523,7027,NTS,A,22
7,21,test,4,C,triangle.png,1,z,Thu Nov 07 2024 13:07:54 GMT-0600 (Central Standard Time),637696.4000000954,1700,O,z,1129,6,1,2842.300000190735,634854.0999999046,7027,NTS,A,23
7,22,test,4,C,triangle.png,1,z,Thu Nov 07 2024 13:07:54 GMT-0600 (Central Standard Time),640311.5,1700,O,z,869,22,1,2595.5,637716.0,7027,NTS,A,24
