block_c,block_dur,condition,countdown,datetime,endtime,list,multichar_response,project,response,response_time,session_number,start_end,starttime,subject_id,task,task_vers,trial
,,,,Wed Mar 05 2025 11:05:29 GMT-0600 (Central Standard Time),,,,O,space,710,1,,,7087,WL,B,
prac,,0,,Wed Mar 05 2025 11:05:29 GMT-0600 (Central Standard Time),,NA,b,O,b,2599,1,,,7087,WL,B,1.0
prac,,0,,Wed Mar 05 2025 11:05:29 GMT-0600 (Central Standard Time),,NA,bi,O,i,144,1,,,7087,WL,B,1.0
prac,,0,,Wed Mar 05 2025 11:05:29 GMT-0600 (Central Standard Time),,NA,bii,O,i,100,1,,,7087,WL,B,1.0
prac,,0,,Wed Mar 05 2025 11:05:29 GMT-0600 (Central Standard Time),,NA,bi,O,backspace,958,1,,,7087,WL,B,1.0
prac,,0,,Wed Mar 05 2025 11:05:29 GMT-0600 (Central Standard Time),,NA,b,O,backspace,104,1,,,7087,WL,B,1.0
prac,,0,,Wed Mar 05 2025 11:05:29 GMT-0600 (Central Standard Time),,NA,bo,O,o,792,1,,,7087,WL,B,1.0
prac,,0,,Wed Mar 05 2025 11:05:29 GMT-0600 (Central Standard Time),,NA,boo,O,o,105,1,,,7087,WL,B,1.0
prac,,0,,Wed Mar 05 2025 11:05:29 GMT-0600 (Central Standard Time),,NA,boos,O,s,298,1,,,7087,WL,B,1.0
prac,,0,,Wed Mar 05 2025 11:05:29 GMT-0600 (Central Standard Time),,NA,boost,O,t,286,1,,,7087,WL,B,1.0
prac,,0,,Wed Mar 05 2025 11:05:29 GMT-0600 (Central Standard Time),,NA,boostenter,O,enter,788,1,,,7087,WL,B,1.0
1,0.6010000705718994,learn,59398.9999294281,Wed Mar 05 2025 11:05:29 GMT-0600 (Central Standard Time),152943.5,A,s,O,s,563,1,599.1000000238419,152344.39999997616,7087,WL,B,1.0
1,0.8510000705718994,learn,59148.9999294281,Wed Mar 05 2025 11:05:29 GMT-0600 (Central Standard Time),153193.5,A,st,O,t,205,1,849.1000000238419,152344.39999997616,7087,WL,B,1.0
1,1.066999912261963,learn,58933.00008773804,Wed Mar 05 2025 11:05:29 GMT-0600 (Central Standard Time),153409.60000002384,A,str,O,r,180,1,1065.2000000476837,152344.39999997616,7087,WL,B,1.0
1,1.2669999599456787,learn,58733.00004005432,Wed Mar 05 2025 11:05:29 GMT-0600 (Central Standard Time),153609.5,A,stre,O,e,163,1,1265.1000000238419,152344.39999997616,7087,WL,B,1.0
1,1.4170000553131104,learn,58582.99994468689,Wed Mar 05 2025 11:05:29 GMT-0600 (Central Standard Time),153759.5,A,stree,O,e,116,1,1415.1000000238419,152344.39999997616,7087,WL,B,1.0
1,1.7160000801086426,learn,58283.99991989136,Wed Mar 05 2025 11:05:29 GMT-0600 (Central Standard Time),154059.20000004768,A,street,O,t,264,1,1714.8000000715256,152344.39999997616,7087,WL,B,1.0
1,1.9159998893737793,learn,58084.00011062622,Wed Mar 05 2025 11:05:29 GMT-0600 (Central Standard Time),154258.29999995232,A,streetenter,O,enter,167,1,1913.8999999761581,152344.39999997616,7087,WL,B,1.0
1,2.2660000324249268,learn,57733.99996757507,Wed Mar 05 2025 11:05:29 GMT-0600 (Central Standard Time),154609.20000004768,A,g,O,g,336,1,350.5,154258.70000004768,7087,WL,B,2.0
1,2.4660000801086426,learn,57533.99991989136,Wed Mar 05 2025 11:05:29 GMT-0600 (Central Standard Time),154809.20000004768,A,gr,O,r,155,1,550.5,154258.70000004768,7087,WL,B,2.0
1,2.6659998893737793,learn,57334.00011062622,Wed Mar 05 2025 11:05:29 GMT-0600 (Central Standard Time),155009.10000002384,A,gra,O,a,162,1,750.3999999761581,154258.70000004768,7087,WL,B,2.0
1,3.049999952316284,learn,56950.000047683716,Wed Mar 05 2025 11:05:29 GMT-0600 (Central Standard Time),155392.39999997616,A,gras,O,s,344,1,1133.6999999284744,154258.70000004768,7087,WL,B,2.0
1,3.183000087738037,learn,56816.99991226196,Wed Mar 05 2025 11:05:29 GMT-0600 (Central Standard Time),155525.60000002384,A,grass,O,s,101,1,1266.8999999761581,154258.70000004768,7087,WL,B,2.0
1,3.3980000019073486,learn,56601.99999809265,Wed Mar 05 2025 11:05:29 GMT-0600 (Central Standard Time),155741.20000004768,A,grassenter,O,enter,190,1,1482.5,154258.70000004768,7087,WL,B,2.0
1,3.9159998893737793,learn,56084.00011062622,Wed Mar 05 2025 11:05:29 GMT-0600 (Central Standard Time),156258.79999995232,A,a,O,a,503,1,517.1999999284744,155741.60000002384,7087,WL,B,3.0
1,4.082000017166138,learn,55917.99998283386,Wed Mar 05 2025 11:05:29 GMT-0600 (Central Standard Time),156425.29999995232,A,ar,O,r,132,1,683.6999999284744,155741.60000002384,7087,WL,B,3.0
1,4.249000072479248,learn,55750.99992752075,Wed Mar 05 2025 11:05:29 GMT-0600 (Central Standard Time),156591.89999997616,A,arm,O,m,130,1,850.2999999523163,155741.60000002384,7087,WL,B,3.0
1,4.516000032424927,learn,55483.99996757507,Wed Mar 05 2025 11:05:29 GMT-0600 (Central Standard Time),156858.60000002384,A,armenter,O,enter,221,1,1117.0,155741.60000002384,7087,WL,B,3.0
1,4.766000032424927,learn,55233.99996757507,Wed Mar 05 2025 11:05:29 GMT-0600 (Central Standard Time),157108.70000004768,A,d,O,d,233,1,249.60000002384186,156859.10000002384,7087,WL,B,4.0
1,4.865000009536743,learn,55134.99999046326,Wed Mar 05 2025 11:05:29 GMT-0600 (Central Standard Time),157208.20000004768,A,do,O,o,64,1,349.10000002384186,156859.10000002384,7087,WL,B,4.0
1,5.016000032424927,learn,54983.99996757507,Wed Mar 05 2025 11:05:29 GMT-0600 (Central Standard Time),157358.39999997616,A,doo,O,o,118,1,499.2999999523163,156859.10000002384,7087,WL,B,4.0
1,5.23199987411499,learn,54768.00012588501,Wed Mar 05 2025 11:05:29 GMT-0600 (Central Standard Time),157575.10000002384,A,door,O,r,185,1,716.0,156859.10000002384,7087,WL,B,4.0
1,5.447999954223633,learn,54552.00004577637,Wed Mar 05 2025 11:05:29 GMT-0600 (Central Standard Time),157790.5,A,doorenter,O,enter,176,1,931.3999999761581,156859.10000002384,7087,WL,B,4.0
1,5.648999929428101,learn,54351.0000705719,Wed Mar 05 2025 11:05:29 GMT-0600 (Central Standard Time),157991.39999997616,A,c,O,c,181,1,200.5,157790.89999997616,7087,WL,B,5.0
1,5.815000057220459,learn,54184.99994277954,Wed Mar 05 2025 11:05:29 GMT-0600 (Central Standard Time),158158.0,A,ca,O,a,135,1,367.10000002384186,157790.89999997616,7087,WL,B,5.0
1,6.131999969482422,learn,53868.00003051758,Wed Mar 05 2025 11:05:29 GMT-0600 (Central Standard Time),158474.70000004768,A,cab,O,b,274,1,683.8000000715256,157790.89999997616,7087,WL,B,5.0
1,6.29800009727478,learn,53701.99990272522,Wed Mar 05 2025 11:05:29 GMT-0600 (Central Standard Time),158641.10000002384,A,cabi,O,i,133,1,850.2000000476837,157790.89999997616,7087,WL,B,5.0
1,6.414999961853027,learn,53585.00003814697,Wed Mar 05 2025 11:05:29 GMT-0600 (Central Standard Time),158757.79999995232,A,cabin,O,n,88,1,966.8999999761581,157790.89999997616,7087,WL,B,5.0
1,6.697999954223633,learn,53302.00004577637,Wed Mar 05 2025 11:05:29 GMT-0600 (Central Standard Time),159040.20000004768,A,cabinenter,O,enter,241,1,1249.3000000715256,157790.89999997616,7087,WL,B,5.0
1,7.014999866485596,learn,52985.000133514404,Wed Mar 05 2025 11:05:29 GMT-0600 (Central Standard Time),159357.79999995232,A,l,O,l,308,1,317.2999999523163,159040.5,7087,WL,B,6.0
1,7.2149999141693115,learn,52785.00008583069,Wed Mar 05 2025 11:05:29 GMT-0600 (Central Standard Time),159557.29999995232,A,la,O,a,169,1,516.7999999523163,159040.5,7087,WL,B,6.0
1,7.38100004196167,learn,52618.99995803833,Wed Mar 05 2025 11:05:29 GMT-0600 (Central Standard Time),159724.0,A,lak,O,k,143,1,683.5,159040.5,7087,WL,B,6.0
1,7.930999994277954,learn,52069.000005722046,Wed Mar 05 2025 11:05:29 GMT-0600 (Central Standard Time),160274.0,A,lake,O,e,518,1,1233.5,159040.5,7087,WL,B,6.0
1,8.897000074386597,learn,51102.9999256134,Wed Mar 05 2025 11:05:29 GMT-0600 (Central Standard Time),161239.5,A,lakeenter,O,enter,923,1,2199.0,159040.5,7087,WL,B,6.0
1,12.596999883651733,learn,47403.00011634827,Wed Mar 05 2025 11:05:29 GMT-0600 (Central Standard Time),164939.39999997616,A,w,O,w,3685,1,3699.600000023842,161239.79999995232,7087,WL,B,7.0
1,12.678999900817871,learn,47321.00009918213,Wed Mar 05 2025 11:05:29 GMT-0600 (Central Standard Time),165021.79999995232,A,wi,O,i,53,1,3782.0,161239.79999995232,7087,WL,B,7.0
1,12.779000043869019,learn,47220.99995613098,Wed Mar 05 2025 11:05:29 GMT-0600 (Central Standard Time),165121.89999997616,A,win,O,n,86,1,3882.100000023842,161239.79999995232,7087,WL,B,7.0
1,12.88100004196167,learn,47118.99995803833,Wed Mar 05 2025 11:05:29 GMT-0600 (Central Standard Time),165223.60000002384,A,wind,O,d,90,1,3983.8000000715256,161239.79999995232,7087,WL,B,7.0
1,12.996000051498413,learn,47003.99994850159,Wed Mar 05 2025 11:05:29 GMT-0600 (Central Standard Time),165339.10000002384,A,windo,O,o,79,1,4099.300000071526,161239.79999995232,7087,WL,B,7.0
1,13.129999876022339,learn,46870.00012397766,Wed Mar 05 2025 11:05:29 GMT-0600 (Central Standard Time),165472.29999995232,A,window,O,w,104,1,4232.5,161239.79999995232,7087,WL,B,7.0
1,13.562000036239624,learn,46437.999963760376,Wed Mar 05 2025 11:05:29 GMT-0600 (Central Standard Time),165904.60000002384,A,windowenter,O,enter,406,1,4664.800000071526,161239.79999995232,7087,WL,B,7.0
1,19.543999910354614,learn,40456.000089645386,Wed Mar 05 2025 11:05:29 GMT-0600 (Central Standard Time),171886.89999997616,A,a,O,a,5964,1,5981.899999976158,165905.0,7087,WL,B,8.0
1,19.644999980926514,learn,40355.000019073486,Wed Mar 05 2025 11:05:29 GMT-0600 (Central Standard Time),171987.70000004768,A,ai,O,i,74,1,6082.700000047684,165905.0,7087,WL,B,8.0
1,19.793999910354614,learn,40206.000089645386,Wed Mar 05 2025 11:05:29 GMT-0600 (Central Standard Time),172136.39999997616,A,air,O,r,108,1,6231.399999976158,165905.0,7087,WL,B,8.0
1,19.960000038146973,learn,40039.99996185303,Wed Mar 05 2025 11:05:29 GMT-0600 (Central Standard Time),172302.29999995232,A,airenter,O,enter,135,1,6397.299999952316,165905.0,7087,WL,B,8.0
1,27.174000024795532,learn,32825.99997520447,Wed Mar 05 2025 11:05:29 GMT-0600 (Central Standard Time),179516.79999995232,A,enter,O,enter,7197,1,7214.099999904633,172302.70000004768,7087,WL,B,9.0
1,31.539000034332275,learn,28460.999965667725,Wed Mar 05 2025 11:05:29 GMT-0600 (Central Standard Time),183882.0,A,enter,O,enter,4358,1,4364.700000047684,179517.29999995232,7087,WL,B,10.0
1,32.039000034332275,learn,27960.999965667725,Wed Mar 05 2025 11:05:29 GMT-0600 (Central Standard Time),184381.89999997616,A,enter,O,enter,489,1,499.5,183882.39999997616,7087,WL,B,11.0
1,32.42199993133545,learn,27578.00006866455,Wed Mar 05 2025 11:05:29 GMT-0600 (Central Standard Time),184765.10000002384,A,enter,O,enter,374,1,382.8000000715256,184382.29999995232,7087,WL,B,12.0
1,32.78999996185303,learn,27210.000038146973,Wed Mar 05 2025 11:05:29 GMT-0600 (Central Standard Time),185132.79999995232,A,enter,O,enter,359,1,367.39999997615814,184765.39999997616,7087,WL,B,13.0
1,33.18899989128113,learn,26811.000108718872,Wed Mar 05 2025 11:05:29 GMT-0600 (Central Standard Time),185531.5,A,enter,O,enter,383,1,398.39999997615814,185133.10000002384,7087,WL,B,14.0
1,33.5550000667572,learn,26444.999933242798,Wed Mar 05 2025 11:05:29 GMT-0600 (Central Standard Time),185898.10000002384,A,enter,O,enter,359,1,366.39999997615814,185531.70000004768,7087,WL,B,15.0
2,0.48399996757507324,learn,59516.00003242493,Wed Mar 05 2025 11:05:29 GMT-0600 (Central Standard Time),272270.7000000477,A,s,O,s,467,1,483.3000000715256,271787.39999997616,7087,WL,B,1.0
2,0.68399977684021,learn,59316.00022315979,Wed Mar 05 2025 11:05:29 GMT-0600 (Central Standard Time),272470.60000002384,A,st,O,t,162,1,683.2000000476837,271787.39999997616,7087,WL,B,1.0
2,0.8839998245239258,learn,59116.000175476074,Wed Mar 05 2025 11:05:29 GMT-0600 (Central Standard Time),272670.60000002384,A,str,O,r,161,1,883.2000000476837,271787.39999997616,7087,WL,B,1.0
2,1.18399977684021,learn,58816.00022315979,Wed Mar 05 2025 11:05:29 GMT-0600 (Central Standard Time),272970.39999997616,A,stre,O,e,268,1,1183.0,271787.39999997616,7087,WL,B,1.0
2,1.316999912261963,learn,58683.00008773804,Wed Mar 05 2025 11:05:29 GMT-0600 (Central Standard Time),273103.10000002384,A,stree,O,e,103,1,1315.7000000476837,271787.39999997616,7087,WL,B,1.0
2,1.5339999198913574,learn,58466.00008010864,Wed Mar 05 2025 11:05:29 GMT-0600 (Central Standard Time),273320.39999997616,A,street,O,t,189,1,1533.0,271787.39999997616,7087,WL,B,1.0
2,1.682999849319458,learn,58317.00015068054,Wed Mar 05 2025 11:05:29 GMT-0600 (Central Standard Time),273469.39999997616,A,streetenter,O,enter,119,1,1682.0,271787.39999997616,7087,WL,B,1.0
2,1.866999864578247,learn,58133.00013542175,Wed Mar 05 2025 11:05:29 GMT-0600 (Central Standard Time),273653.2999999523,A,g,O,g,176,1,183.69999992847443,273469.60000002384,7087,WL,B,2.0
2,2.049999952316284,learn,57950.000047683716,Wed Mar 05 2025 11:05:29 GMT-0600 (Central Standard Time),273836.5,A,gr,O,r,156,1,366.89999997615814,273469.60000002384,7087,WL,B,2.0
2,2.2339999675750732,learn,57766.00003242493,Wed Mar 05 2025 11:05:29 GMT-0600 (Central Standard Time),274020.2000000477,A,gra,O,a,162,1,550.6000000238419,273469.60000002384,7087,WL,B,2.0
2,2.432999849319458,learn,57567.00015068054,Wed Mar 05 2025 11:05:29 GMT-0600 (Central Standard Time),274220.10000002384,A,gras,O,s,167,1,750.5,273469.60000002384,7087,WL,B,2.0
2,2.615999937057495,learn,57384.000062942505,Wed Mar 05 2025 11:05:29 GMT-0600 (Central Standard Time),274403.10000002384,A,grass,O,s,149,1,933.5,273469.60000002384,7087,WL,B,2.0
2,2.865999937057495,learn,57134.000062942505,Wed Mar 05 2025 11:05:29 GMT-0600 (Central Standard Time),274652.2999999523,A,grassenter,O,enter,219,1,1182.6999999284744,273469.60000002384,7087,WL,B,2.0
2,3.0999999046325684,learn,56900.00009536743,Wed Mar 05 2025 11:05:29 GMT-0600 (Central Standard Time),274886.5,A,w,O,w,216,1,234.0,274652.5,7087,WL,B,3.0
2,3.1999998092651367,learn,56800.00019073486,Wed Mar 05 2025 11:05:29 GMT-0600 (Central Standard Time),274986.2999999523,A,wi,O,i,57,1,333.7999999523163,274652.5,7087,WL,B,3.0
2,3.2659997940063477,learn,56734.00020599365,Wed Mar 05 2025 11:05:29 GMT-0600 (Central Standard Time),275052.2999999523,A,win,O,n,43,1,399.7999999523163,274652.5,7087,WL,B,3.0
2,3.3999998569488525,learn,56600.00014305115,Wed Mar 05 2025 11:05:29 GMT-0600 (Central Standard Time),275186.39999997616,A,wind,O,d,115,1,533.8999999761581,274652.5,7087,WL,B,3.0
2,3.498999834060669,learn,56501.00016593933,Wed Mar 05 2025 11:05:29 GMT-0600 (Central Standard Time),275285.7000000477,A,windo,O,o,71,1,633.2000000476837,274652.5,7087,WL,B,3.0
2,3.616999864578247,learn,56383.00013542175,Wed Mar 05 2025 11:05:29 GMT-0600 (Central Standard Time),275403.2999999523,A,window,O,w,98,1,750.7999999523163,274652.5,7087,WL,B,3.0
2,3.8989999294281006,learn,56101.0000705719,Wed Mar 05 2025 11:05:29 GMT-0600 (Central Standard Time),275685.2999999523,A,windowenter,O,enter,249,1,1032.7999999523163,274652.5,7087,WL,B,3.0
2,4.232999801635742,learn,55767.00019836426,Wed Mar 05 2025 11:05:29 GMT-0600 (Central Standard Time),276020.10000002384,A,l,O,l,327,1,334.5,275685.60000002384,7087,WL,B,4.0
2,4.448999881744385,learn,55551.000118255615,Wed Mar 05 2025 11:05:29 GMT-0600 (Central Standard Time),276236.10000002384,A,la,O,a,181,1,550.5,275685.60000002384,7087,WL,B,4.0
2,4.598999977111816,learn,55401.00002288818,Wed Mar 05 2025 11:05:29 GMT-0600 (Central Standard Time),276386.0,A,lak,O,k,110,1,700.3999999761581,275685.60000002384,7087,WL,B,4.0
2,4.7159998416900635,learn,55284.00015830994,Wed Mar 05 2025 11:05:29 GMT-0600 (Central Standard Time),276502.89999997616,A,lake,O,e,87,1,817.2999999523163,275685.60000002384,7087,WL,B,4.0
2,4.881999969482422,learn,55118.00003051758,Wed Mar 05 2025 11:05:29 GMT-0600 (Central Standard Time),276668.2999999523,A,lakeenter,O,enter,129,1,982.6999999284744,275685.60000002384,7087,WL,B,4.0
2,5.065999984741211,learn,54934.00001525879,Wed Mar 05 2025 11:05:29 GMT-0600 (Central Standard Time),276852.5,A,f,O,f,169,1,183.89999997615814,276668.60000002384,7087,WL,B,5.0
2,5.348999977111816,learn,54651.00002288818,Wed Mar 05 2025 11:05:29 GMT-0600 (Central Standard Time),277136.0,A,fr,O,r,245,1,467.39999997615814,276668.60000002384,7087,WL,B,5.0
2,5.430999994277954,learn,54569.000005722046,Wed Mar 05 2025 11:05:29 GMT-0600 (Central Standard Time),277218.0,A,fre,O,e,56,1,549.3999999761581,276668.60000002384,7087,WL,B,5.0
2,5.698999881744385,learn,54301.000118255615,Wed Mar 05 2025 11:05:29 GMT-0600 (Central Standard Time),277485.60000002384,A,fr,O,backspace,253,1,817.0,276668.60000002384,7087,WL,B,5.0
2,5.865999937057495,learn,54134.000062942505,Wed Mar 05 2025 11:05:29 GMT-0600 (Central Standard Time),277652.2999999523,A,f,O,backspace,131,1,983.6999999284744,276668.60000002384,7087,WL,B,5.0
2,6.181999921798706,learn,53818.000078201294,Wed Mar 05 2025 11:05:29 GMT-0600 (Central Standard Time),277968.7999999523,A,fi,O,i,278,1,1300.1999999284744,276668.60000002384,7087,WL,B,5.0
2,6.398999929428101,learn,53601.0000705719,Wed Mar 05 2025 11:05:29 GMT-0600 (Central Standard Time),278185.2000000477,A,fir,O,r,174,1,1516.6000000238419,276668.60000002384,7087,WL,B,5.0
2,6.497999906539917,learn,53502.00009346008,Wed Mar 05 2025 11:05:29 GMT-0600 (Central Standard Time),278284.5,A,fire,O,e,64,1,1615.8999999761581,276668.60000002384,7087,WL,B,5.0
2,7.263999938964844,learn,52736.000061035156,Wed Mar 05 2025 11:05:29 GMT-0600 (Central Standard Time),279050.7999999523,A,fireenter,O,enter,753,1,2382.1999999284744,276668.60000002384,7087,WL,B,5.0
2,8.146999835968018,learn,51853.00016403198,Wed Mar 05 2025 11:05:29 GMT-0600 (Central Standard Time),279933.89999997616,A,p,O,p,864,1,882.8999999761581,279051.0,7087,WL,B,6.0
2,8.297999858856201,learn,51702.0001411438,Wed Mar 05 2025 11:05:29 GMT-0600 (Central Standard Time),280084.39999997616,A,pu,O,u,142,1,1033.3999999761581,279051.0,7087,WL,B,6.0
2,8.480999946594238,learn,51519.00005340576,Wed Mar 05 2025 11:05:29 GMT-0600 (Central Standard Time),280267.89999997616,A,pup,O,p,160,1,1216.8999999761581,279051.0,7087,WL,B,6.0
2,8.764999866485596,learn,51235.000133514404,Wed Mar 05 2025 11:05:29 GMT-0600 (Central Standard Time),280551.2999999523,A,pupi,O,i,252,1,1500.2999999523163,279051.0,7087,WL,B,6.0
2,8.947999954223633,learn,51052.00004577637,Wed Mar 05 2025 11:05:29 GMT-0600 (Central Standard Time),280734.60000002384,A,pupil,O,l,146,1,1683.6000000238419,279051.0,7087,WL,B,6.0
2,9.263999938964844,learn,50736.000061035156,Wed Mar 05 2025 11:05:29 GMT-0600 (Central Standard Time),281050.2000000477,A,pupilenter,O,enter,282,1,1999.2000000476837,279051.0,7087,WL,B,6.0
2,9.780999898910522,learn,50219.00010108948,Wed Mar 05 2025 11:05:29 GMT-0600 (Central Standard Time),281567.60000002384,A,c,O,c,507,1,517.1000000238419,281050.5,7087,WL,B,7.0
2,9.879999876022339,learn,50120.00012397766,Wed Mar 05 2025 11:05:29 GMT-0600 (Central Standard Time),281666.7000000477,A,ca,O,a,73,1,616.2000000476837,281050.5,7087,WL,B,7.0
2,10.097999811172485,learn,49902.000188827515,Wed Mar 05 2025 11:05:29 GMT-0600 (Central Standard Time),281884.89999997616,A,cab,O,b,203,1,834.3999999761581,281050.5,7087,WL,B,7.0
2,10.196999788284302,learn,49803.0002117157,Wed Mar 05 2025 11:05:29 GMT-0600 (Central Standard Time),281984.0,A,cabi,O,i,72,1,933.5,281050.5,7087,WL,B,7.0
2,10.27999997138977,learn,49720.00002861023,Wed Mar 05 2025 11:05:29 GMT-0600 (Central Standard Time),282066.60000002384,A,cabin,O,n,60,1,1016.1000000238419,281050.5,7087,WL,B,7.0
2,10.812999963760376,learn,49187.000036239624,Wed Mar 05 2025 11:05:29 GMT-0600 (Central Standard Time),282599.7000000477,A,cabinenter,O,enter,517,1,1549.2000000476837,281050.5,7087,WL,B,7.0
2,12.113999843597412,learn,47886.00015640259,Wed Mar 05 2025 11:05:29 GMT-0600 (Central Standard Time),283900.2000000477,A,a,O,a,1285,1,1300.2000000476837,282600.0,7087,WL,B,8.0
2,12.263999938964844,learn,47736.000061035156,Wed Mar 05 2025 11:05:29 GMT-0600 (Central Standard Time),284050.2000000477,A,ar,O,r,107,1,1450.2000000476837,282600.0,7087,WL,B,8.0
2,12.395999908447266,learn,47604.000091552734,Wed Mar 05 2025 11:05:29 GMT-0600 (Central Standard Time),284183.10000002384,A,arm,O,m,102,1,1583.1000000238419,282600.0,7087,WL,B,8.0
2,12.77999997138977,learn,47220.00002861023,Wed Mar 05 2025 11:05:29 GMT-0600 (Central Standard Time),284566.7999999523,A,armenter,O,enter,355,1,1966.7999999523163,282600.0,7087,WL,B,8.0
2,15.09499979019165,learn,44905.00020980835,Wed Mar 05 2025 11:05:29 GMT-0600 (Central Standard Time),286881.7000000477,A,c,O,c,2308,1,2314.5,284567.2000000477,7087,WL,B,9.0
2,15.17799997329712,learn,44822.00002670288,Wed Mar 05 2025 11:05:29 GMT-0600 (Central Standard Time),286964.89999997616,A,ci,O,i,74,1,2397.6999999284744,284567.2000000477,7087,WL,B,9.0
2,15.312999963760376,learn,44687.000036239624,Wed Mar 05 2025 11:05:29 GMT-0600 (Central Standard Time),287099.89999997616,A,cit,O,t,128,1,2532.6999999284744,284567.2000000477,7087,WL,B,9.0
2,15.51199984550476,learn,44488.00015449524,Wed Mar 05 2025 11:05:29 GMT-0600 (Central Standard Time),287299.10000002384,A,city,O,y,167,1,2731.899999976158,284567.2000000477,7087,WL,B,9.0
2,15.644999980926514,learn,44355.000019073486,Wed Mar 05 2025 11:05:29 GMT-0600 (Central Standard Time),287431.39999997616,A,cityenter,O,enter,101,1,2864.1999999284744,284567.2000000477,7087,WL,B,9.0
2,15.861999988555908,learn,44138.00001144409,Wed Mar 05 2025 11:05:29 GMT-0600 (Central Standard Time),287648.5,A,w,O,w,196,1,216.79999995231628,287431.7000000477,7087,WL,B,10.0
2,15.961999893188477,learn,44038.00010681152,Wed Mar 05 2025 11:05:29 GMT-0600 (Central Standard Time),287748.5,A,wi,O,i,72,1,316.7999999523163,287431.7000000477,7087,WL,B,10.0
2,16.09599995613098,learn,43904.00004386902,Wed Mar 05 2025 11:05:29 GMT-0600 (Central Standard Time),287882.2000000477,A,wif,O,f,108,1,450.5,287431.7000000477,7087,WL,B,10.0
2,16.17899990081787,learn,43821.00009918213,Wed Mar 05 2025 11:05:29 GMT-0600 (Central Standard Time),287965.5,A,wife,O,e,56,1,533.7999999523163,287431.7000000477,7087,WL,B,10.0
2,16.51099991798401,learn,43489.00008201599,Wed Mar 05 2025 11:05:29 GMT-0600 (Central Standard Time),288297.7000000477,A,wifeenter,O,enter,290,1,866.0,287431.7000000477,7087,WL,B,10.0
2,26.091999769210815,learn,33908.000230789185,Wed Mar 05 2025 11:05:29 GMT-0600 (Central Standard Time),297878.89999997616,A,c,O,c,9571,1,9581.0,288297.89999997616,7087,WL,B,11.0
2,26.191999912261963,learn,33808.00008773804,Wed Mar 05 2025 11:05:29 GMT-0600 (Central Standard Time),297978.2000000477,A,ci,O,i,71,1,9680.300000071526,288297.89999997616,7087,WL,B,11.0
2,26.324999809265137,learn,33675.00019073486,Wed Mar 05 2025 11:05:29 GMT-0600 (Central Standard Time),298111.7999999523,A,cit,O,t,107,1,9813.899999976158,288297.89999997616,7087,WL,B,11.0
2,26.507999897003174,learn,33492.000102996826,Wed Mar 05 2025 11:05:29 GMT-0600 (Central Standard Time),298295.10000002384,A,city,O,y,148,1,9997.200000047684,288297.89999997616,7087,WL,B,11.0
2,26.674999952316284,learn,33325.000047683716,Wed Mar 05 2025 11:05:29 GMT-0600 (Central Standard Time),298461.10000002384,A,cityenter,O,enter,139,1,10163.200000047684,288297.89999997616,7087,WL,B,11.0
2,38.537999868392944,learn,21462.000131607056,Wed Mar 05 2025 11:05:29 GMT-0600 (Central Standard Time),310324.0,A,enter,O,enter,11847,1,11862.600000023842,298461.39999997616,7087,WL,B,12.0
2,38.787999868392944,learn,21212.000131607056,Wed Mar 05 2025 11:05:29 GMT-0600 (Central Standard Time),310573.7999999523,A,enter,O,enter,240,1,249.5,310324.2999999523,7087,WL,B,13.0
2,39.037999868392944,learn,20962.000131607056,Wed Mar 05 2025 11:05:29 GMT-0600 (Central Standard Time),310823.7000000477,A,enter,O,enter,238,1,249.60000002384186,310574.10000002384,7087,WL,B,14.0
2,39.38799977302551,learn,20612.000226974487,Wed Mar 05 2025 11:05:29 GMT-0600 (Central Standard Time),311173.60000002384,A,enter,O,enter,340,1,349.39999997615814,310824.2000000477,7087,WL,B,15.0
3,0.4509999752044678,learn,59549.00002479553,Wed Mar 05 2025 11:05:29 GMT-0600 (Central Standard Time),377003.5,A,s,O,s,410,1,450.2000000476837,376553.2999999523,7087,WL,B,1.0
3,0.6510000228881836,learn,59348.99997711182,Wed Mar 05 2025 11:05:29 GMT-0600 (Central Standard Time),377203.5,A,st,O,t,173,1,650.2000000476837,376553.2999999523,7087,WL,B,1.0
3,0.8499999046325684,learn,59150.00009536743,Wed Mar 05 2025 11:05:29 GMT-0600 (Central Standard Time),377403.0,A,str,O,r,158,1,849.7000000476837,376553.2999999523,7087,WL,B,1.0
3,1.0339999198913574,learn,58966.00008010864,Wed Mar 05 2025 11:05:29 GMT-0600 (Central Standard Time),377586.39999997616,A,stre,O,e,145,1,1033.1000000238419,376553.2999999523,7087,WL,B,1.0
3,1.184000015258789,learn,58815.99998474121,Wed Mar 05 2025 11:05:29 GMT-0600 (Central Standard Time),377736.10000002384,A,stree,O,e,124,1,1182.8000000715256,376553.2999999523,7087,WL,B,1.0
3,1.3670001029968262,learn,58632.999897003174,Wed Mar 05 2025 11:05:29 GMT-0600 (Central Standard Time),377919.5,A,street,O,t,149,1,1366.2000000476837,376553.2999999523,7087,WL,B,1.0
3,1.4830000400543213,learn,58516.99995994568,Wed Mar 05 2025 11:05:29 GMT-0600 (Central Standard Time),378035.10000002384,A,streetenter,O,enter,79,1,1481.8000000715256,376553.2999999523,7087,WL,B,1.0
3,1.6659998893737793,learn,58334.00011062622,Wed Mar 05 2025 11:05:29 GMT-0600 (Central Standard Time),378218.89999997616,A,g,O,g,168,1,183.39999997615814,378035.5,7087,WL,B,2.0
3,1.8659999370574951,learn,58134.000062942505,Wed Mar 05 2025 11:05:29 GMT-0600 (Central Standard Time),378419.0,A,gr,O,r,168,1,383.5,378035.5,7087,WL,B,2.0
3,2.049999952316284,learn,57950.000047683716,Wed Mar 05 2025 11:05:29 GMT-0600 (Central Standard Time),378602.2000000477,A,gra,O,a,152,1,566.7000000476837,378035.5,7087,WL,B,2.0
3,2.2330000400543213,learn,57766.99995994568,Wed Mar 05 2025 11:05:29 GMT-0600 (Central Standard Time),378785.7000000477,A,gras,O,s,156,1,750.2000000476837,378035.5,7087,WL,B,2.0
3,2.3499999046325684,learn,57650.00009536743,Wed Mar 05 2025 11:05:29 GMT-0600 (Central Standard Time),378902.5,A,grass,O,s,91,1,867.0,378035.5,7087,WL,B,2.0
3,2.5,learn,57500.0,Wed Mar 05 2025 11:05:29 GMT-0600 (Central Standard Time),379052.2999999523,A,grassenter,O,enter,125,1,1016.7999999523163,378035.5,7087,WL,B,2.0
3,2.683000087738037,learn,57316.99991226196,Wed Mar 05 2025 11:05:29 GMT-0600 (Central Standard Time),379235.89999997616,A,a,O,a,176,1,183.19999992847443,379052.7000000477,7087,WL,B,3.0
3,2.7829999923706055,learn,57217.000007629395,Wed Mar 05 2025 11:05:29 GMT-0600 (Central Standard Time),379335.2999999523,A,ar,O,r,65,1,282.59999990463257,379052.7000000477,7087,WL,B,3.0
3,2.9159998893737793,learn,57084.00011062622,Wed Mar 05 2025 11:05:29 GMT-0600 (Central Standard Time),379468.60000002384,A,arm,O,m,115,1,415.89999997615814,379052.7000000477,7087,WL,B,3.0
3,3.1989998817443848,learn,56801.000118255615,Wed Mar 05 2025 11:05:29 GMT-0600 (Central Standard Time),379751.2000000477,A,armenter,O,enter,244,1,698.5,379052.7000000477,7087,WL,B,3.0
3,3.3989999294281006,learn,56601.0000705719,Wed Mar 05 2025 11:05:29 GMT-0600 (Central Standard Time),379951.7999999523,A,d,O,d,190,1,200.29999995231628,379751.5,7087,WL,B,4.0
3,3.7829999923706055,learn,56217.000007629395,Wed Mar 05 2025 11:05:29 GMT-0600 (Central Standard Time),380335.2999999523,A,do,O,o,351,1,583.7999999523163,379751.5,7087,WL,B,4.0
3,3.8989999294281006,learn,56101.0000705719,Wed Mar 05 2025 11:05:29 GMT-0600 (Central Standard Time),380452.10000002384,A,doo,O,o,91,1,700.6000000238419,379751.5,7087,WL,B,4.0
3,4.165999889373779,learn,55834.00011062622,Wed Mar 05 2025 11:05:29 GMT-0600 (Central Standard Time),380718.7000000477,A,door,O,r,230,1,967.2000000476837,379751.5,7087,WL,B,4.0
3,4.5320000648498535,learn,55467.99993515015,Wed Mar 05 2025 11:05:29 GMT-0600 (Central Standard Time),381084.10000002384,A,doorenter,O,enter,338,1,1332.6000000238419,379751.5,7087,WL,B,4.0
3,5.165999889373779,learn,54834.00011062622,Wed Mar 05 2025 11:05:29 GMT-0600 (Central Standard Time),381718.2000000477,A,f,O,f,617,1,633.9000000953674,381084.2999999523,7087,WL,B,5.0
3,5.299000024795532,learn,54700.99997520447,Wed Mar 05 2025 11:05:29 GMT-0600 (Central Standard Time),381851.2999999523,A,fi,O,i,92,1,767.0,381084.2999999523,7087,WL,B,5.0
3,5.415999889373779,learn,54584.00011062622,Wed Mar 05 2025 11:05:29 GMT-0600 (Central Standard Time),381968.10000002384,A,fir,O,r,83,1,883.8000000715256,381084.2999999523,7087,WL,B,5.0
3,5.480999946594238,learn,54519.00005340576,Wed Mar 05 2025 11:05:29 GMT-0600 (Central Standard Time),382033.89999997616,A,fire,O,e,31,1,949.6000000238419,381084.2999999523,7087,WL,B,5.0
3,5.63100004196167,learn,54368.99995803833,Wed Mar 05 2025 11:05:29 GMT-0600 (Central Standard Time),382183.5,A,fireenter,O,enter,130,1,1099.2000000476837,381084.2999999523,7087,WL,B,5.0
3,5.865000009536743,learn,54134.99999046326,Wed Mar 05 2025 11:05:29 GMT-0600 (Central Standard Time),382417.7000000477,A,w,O,w,213,1,233.90000009536743,382183.7999999523,7087,WL,B,6.0
3,5.982000112533569,learn,54017.99988746643,Wed Mar 05 2025 11:05:29 GMT-0600 (Central Standard Time),382534.10000002384,A,wi,O,i,88,1,350.3000000715256,382183.7999999523,7087,WL,B,6.0
3,6.131999969482422,learn,53868.00003051758,Wed Mar 05 2025 11:05:29 GMT-0600 (Central Standard Time),382684.5,A,wif,O,f,125,1,500.7000000476837,382183.7999999523,7087,WL,B,6.0
3,6.180999994277954,learn,53819.000005722046,Wed Mar 05 2025 11:05:29 GMT-0600 (Central Standard Time),382733.60000002384,A,wife,O,e,24,1,549.8000000715256,382183.7999999523,7087,WL,B,6.0
3,6.3480000495910645,learn,53651.999950408936,Wed Mar 05 2025 11:05:29 GMT-0600 (Central Standard Time),382900.2000000477,A,wifeenter,O,enter,148,1,716.4000000953674,382183.7999999523,7087,WL,B,6.0
3,6.513999938964844,learn,53486.000061035156,Wed Mar 05 2025 11:05:29 GMT-0600 (Central Standard Time),383066.7999999523,A,w,O,w,151,1,166.39999997615814,382900.39999997616,7087,WL,B,7.0
3,6.614000082015991,learn,53385.99991798401,Wed Mar 05 2025 11:05:29 GMT-0600 (Central Standard Time),383166.7000000477,A,wi,O,i,88,1,266.3000000715256,382900.39999997616,7087,WL,B,7.0
3,6.697000026702881,learn,53302.99997329712,Wed Mar 05 2025 11:05:29 GMT-0600 (Central Standard Time),383249.89999997616,A,win,O,n,67,1,349.5,382900.39999997616,7087,WL,B,7.0
3,6.813999891281128,learn,53186.00010871887,Wed Mar 05 2025 11:05:29 GMT-0600 (Central Standard Time),383366.7999999523,A,wind,O,d,97,1,466.39999997615814,382900.39999997616,7087,WL,B,7.0
3,7.0309998989105225,learn,52969.00010108948,Wed Mar 05 2025 11:05:29 GMT-0600 (Central Standard Time),383583.5,A,windw,O,w,196,1,683.1000000238419,382900.39999997616,7087,WL,B,7.0
3,7.398000001907349,learn,52601.99999809265,Wed Mar 05 2025 11:05:29 GMT-0600 (Central Standard Time),383950.7000000477,A,wind,O,backspace,349,1,1050.3000000715256,382900.39999997616,7087,WL,B,7.0
3,7.664999961853027,learn,52335.00003814697,Wed Mar 05 2025 11:05:29 GMT-0600 (Central Standard Time),384217.2999999523,A,windo,O,o,231,1,1316.8999999761581,382900.39999997616,7087,WL,B,7.0
3,7.7809998989105225,learn,52219.00010108948,Wed Mar 05 2025 11:05:29 GMT-0600 (Central Standard Time),384333.7999999523,A,window,O,w,87,1,1433.3999999761581,382900.39999997616,7087,WL,B,7.0
3,8.013999938964844,learn,51986.000061035156,Wed Mar 05 2025 11:05:29 GMT-0600 (Central Standard Time),384566.2999999523,A,windowenter,O,enter,206,1,1665.8999999761581,382900.39999997616,7087,WL,B,7.0
3,8.29800009727478,learn,51701.99990272522,Wed Mar 05 2025 11:05:29 GMT-0600 (Central Standard Time),384850.39999997616,A,l,O,l,263,1,283.7999999523163,384566.60000002384,7087,WL,B,8.0
3,8.414999961853027,learn,51585.00003814697,Wed Mar 05 2025 11:05:29 GMT-0600 (Central Standard Time),384967.2000000477,A,la,O,a,87,1,400.60000002384186,384566.60000002384,7087,WL,B,8.0
3,8.563999891281128,learn,51436.00010871887,Wed Mar 05 2025 11:05:29 GMT-0600 (Central Standard Time),385116.7999999523,A,lak,O,k,127,1,550.1999999284744,384566.60000002384,7087,WL,B,8.0
3,8.697999954223633,learn,51302.00004577637,Wed Mar 05 2025 11:05:29 GMT-0600 (Central Standard Time),385250.39999997616,A,lake,O,e,107,1,683.7999999523163,384566.60000002384,7087,WL,B,8.0
3,9.063999891281128,learn,50936.00010871887,Wed Mar 05 2025 11:05:29 GMT-0600 (Central Standard Time),385616.0,A,lakeenter,O,enter,327,1,1049.3999999761581,384566.60000002384,7087,WL,B,8.0
3,9.29800009727478,learn,50701.99990272522,Wed Mar 05 2025 11:05:29 GMT-0600 (Central Standard Time),385850.2000000477,A,c,O,c,221,1,234.0,385616.2000000477,7087,WL,B,9.0
3,9.46399998664856,learn,50536.00001335144,Wed Mar 05 2025 11:05:29 GMT-0600 (Central Standard Time),386016.7999999523,A,ca,O,a,128,1,400.59999990463257,385616.2000000477,7087,WL,B,9.0
3,9.579999923706055,learn,50420.000076293945,Wed Mar 05 2025 11:05:29 GMT-0600 (Central Standard Time),386132.89999997616,A,cab,O,b,80,1,516.6999999284744,385616.2000000477,7087,WL,B,9.0
3,9.680000066757202,learn,50319.9999332428,Wed Mar 05 2025 11:05:29 GMT-0600 (Central Standard Time),386232.39999997616,A,cabi,O,i,81,1,616.1999999284744,385616.2000000477,7087,WL,B,9.0
3,9.77999997138977,learn,50220.00002861023,Wed Mar 05 2025 11:05:29 GMT-0600 (Central Standard Time),386333.0,A,cabin,O,n,84,1,716.7999999523163,385616.2000000477,7087,WL,B,9.0
3,10.046000003814697,learn,49953.9999961853,Wed Mar 05 2025 11:05:29 GMT-0600 (Central Standard Time),386598.89999997616,A,cabinenter,O,enter,236,1,982.6999999284744,385616.2000000477,7087,WL,B,9.0
3,10.29699993133545,learn,49703.00006866455,Wed Mar 05 2025 11:05:29 GMT-0600 (Central Standard Time),386849.7000000477,A,p,O,p,229,1,250.5,386599.2000000477,7087,WL,B,10.0
3,10.46399998664856,learn,49536.00001335144,Wed Mar 05 2025 11:05:29 GMT-0600 (Central Standard Time),387016.39999997616,A,pu,O,u,133,1,417.1999999284744,386599.2000000477,7087,WL,B,10.0
3,10.614000082015991,learn,49385.99991798401,Wed Mar 05 2025 11:05:29 GMT-0600 (Central Standard Time),387166.5,A,pup,O,p,112,1,567.2999999523163,386599.2000000477,7087,WL,B,10.0
3,10.831000089645386,learn,49168.999910354614,Wed Mar 05 2025 11:05:29 GMT-0600 (Central Standard Time),387383.0,A,pupl,O,l,180,1,783.7999999523163,386599.2000000477,7087,WL,B,10.0
3,11.313999891281128,learn,48686.00010871887,Wed Mar 05 2025 11:05:29 GMT-0600 (Central Standard Time),387866.10000002384,A,pup,O,backspace,451,1,1266.8999999761581,386599.2000000477,7087,WL,B,10.0
3,11.54699993133545,learn,48453.00006866455,Wed Mar 05 2025 11:05:29 GMT-0600 (Central Standard Time),388099.10000002384,A,pupi,O,i,199,1,1499.8999999761581,386599.2000000477,7087,WL,B,10.0
3,11.69700002670288,learn,48302.99997329712,Wed Mar 05 2025 11:05:29 GMT-0600 (Central Standard Time),388249.5,A,pupil,O,l,124,1,1650.2999999523163,386599.2000000477,7087,WL,B,10.0
3,11.963000059127808,learn,48036.99994087219,Wed Mar 05 2025 11:05:29 GMT-0600 (Central Standard Time),388515.0,A,pupilenter,O,enter,232,1,1915.7999999523163,386599.2000000477,7087,WL,B,10.0
3,12.196000099182129,learn,47803.99990081787,Wed Mar 05 2025 11:05:29 GMT-0600 (Central Standard Time),388748.89999997616,A,f,O,f,226,1,233.69999992847443,388515.2000000477,7087,WL,B,11.0
3,12.296000003814697,learn,47703.9999961853,Wed Mar 05 2025 11:05:29 GMT-0600 (Central Standard Time),388848.60000002384,A,fi,O,i,61,1,333.39999997615814,388515.2000000477,7087,WL,B,11.0
3,12.463000059127808,learn,47536.99994087219,Wed Mar 05 2025 11:05:29 GMT-0600 (Central Standard Time),389015.7000000477,A,fir,O,r,142,1,500.5,388515.2000000477,7087,WL,B,11.0
3,12.546000003814697,learn,47453.9999961853,Wed Mar 05 2025 11:05:29 GMT-0600 (Central Standard Time),389098.10000002384,A,fire,O,e,41,1,582.8999999761581,388515.2000000477,7087,WL,B,11.0
3,12.796000003814697,learn,47203.9999961853,Wed Mar 05 2025 11:05:29 GMT-0600 (Central Standard Time),389348.10000002384,A,fireenter,O,enter,236,1,832.8999999761581,388515.2000000477,7087,WL,B,11.0
3,14.578999996185303,learn,45421.0000038147,Wed Mar 05 2025 11:05:29 GMT-0600 (Central Standard Time),391131.10000002384,A,s,O,s,1776,1,1782.8000000715256,389348.2999999523,7087,WL,B,12.0
3,14.696000099182129,learn,45303.99990081787,Wed Mar 05 2025 11:05:29 GMT-0600 (Central Standard Time),391248.39999997616,A,sk,O,k,91,1,1900.1000000238419,389348.2999999523,7087,WL,B,12.0
3,14.845999956130981,learn,45154.00004386902,Wed Mar 05 2025 11:05:29 GMT-0600 (Central Standard Time),391398.2999999523,A,ski,O,i,122,1,2050.0,389348.2999999523,7087,WL,B,12.0
3,14.961999893188477,learn,45038.00010681152,Wed Mar 05 2025 11:05:29 GMT-0600 (Central Standard Time),391514.2999999523,A,skin,O,n,83,1,2166.0,389348.2999999523,7087,WL,B,12.0
3,16.061000108718872,learn,43938.99989128113,Wed Mar 05 2025 11:05:29 GMT-0600 (Central Standard Time),392613.60000002384,A,skinenter,O,enter,1076,1,3265.3000000715256,389348.2999999523,7087,WL,B,12.0
3,19.194000005722046,learn,40805.999994277954,Wed Mar 05 2025 11:05:29 GMT-0600 (Central Standard Time),395746.89999997616,A,w,O,w,3119,1,3133.0,392613.89999997616,7087,WL,B,13.0
3,19.293999910354614,learn,40706.000089645386,Wed Mar 05 2025 11:05:29 GMT-0600 (Central Standard Time),395846.10000002384,A,wi,O,i,61,1,3232.2000000476837,392613.89999997616,7087,WL,B,13.0
3,19.41100001335144,learn,40588.99998664856,Wed Mar 05 2025 11:05:29 GMT-0600 (Central Standard Time),395963.10000002384,A,wif,O,f,99,1,3349.2000000476837,392613.89999997616,7087,WL,B,13.0
3,19.493000030517578,learn,40506.99996948242,Wed Mar 05 2025 11:05:29 GMT-0600 (Central Standard Time),396045.89999997616,A,wife,O,e,55,1,3432.0,392613.89999997616,7087,WL,B,13.0
3,19.792999982833862,learn,40207.00001716614,Wed Mar 05 2025 11:05:29 GMT-0600 (Central Standard Time),396345.7000000477,A,wifeenter,O,enter,280,1,3731.8000000715256,392613.89999997616,7087,WL,B,13.0
3,30.17300009727478,learn,29826.99990272522,Wed Mar 05 2025 11:05:29 GMT-0600 (Central Standard Time),406725.89999997616,A,p,O,p,10370,1,10379.799999952316,396346.10000002384,7087,WL,B,14.0
3,30.35700011253357,learn,29642.99988746643,Wed Mar 05 2025 11:05:29 GMT-0600 (Central Standard Time),406909.89999997616,A,pi,O,i,170,1,10563.799999952316,396346.10000002384,7087,WL,B,14.0
3,30.54099988937378,learn,29459.00011062622,Wed Mar 05 2025 11:05:29 GMT-0600 (Central Standard Time),407093.2999999523,A,pip,O,p,148,1,10747.199999928474,396346.10000002384,7087,WL,B,14.0
3,30.75600004196167,learn,29243.99995803833,Wed Mar 05 2025 11:05:29 GMT-0600 (Central Standard Time),407308.7999999523,A,pipe,O,e,187,1,10962.699999928474,396346.10000002384,7087,WL,B,14.0
3,31.122999906539917,learn,28877.000093460083,Wed Mar 05 2025 11:05:29 GMT-0600 (Central Standard Time),407675.2000000477,A,pipeenter,O,enter,358,1,11329.100000023842,396346.10000002384,7087,WL,B,14.0
3,39.25399994850159,learn,20746.000051498413,Wed Mar 05 2025 11:05:29 GMT-0600 (Central Standard Time),415806.0,A,enter,O,enter,8121,1,8130.600000023842,407675.39999997616,7087,WL,B,15.0
4,0.36700010299682617,learn,59632.999897003174,Wed Mar 05 2025 11:05:29 GMT-0600 (Central Standard Time),482418.5,A,s,O,s,336,1,366.0,482052.5,7087,WL,B,1.0
4,0.5669999122619629,learn,59433.00008773804,Wed Mar 05 2025 11:05:29 GMT-0600 (Central Standard Time),482618.5,A,st,O,t,159,1,566.0,482052.5,7087,WL,B,1.0
4,0.75,learn,59250.0,Wed Mar 05 2025 11:05:29 GMT-0600 (Central Standard Time),482801.39999997616,A,str,O,r,143,1,748.8999999761581,482052.5,7087,WL,B,1.0
4,0.9170000553131104,learn,59082.99994468689,Wed Mar 05 2025 11:05:29 GMT-0600 (Central Standard Time),482968.5,A,stre,O,e,145,1,916.0,482052.5,7087,WL,B,1.0
4,1.066999912261963,learn,58933.00008773804,Wed Mar 05 2025 11:05:29 GMT-0600 (Central Standard Time),483118.5,A,stree,O,e,121,1,1066.0,482052.5,7087,WL,B,1.0
4,1.2839999198913574,learn,58716.00008010864,Wed Mar 05 2025 11:05:29 GMT-0600 (Central Standard Time),483335.0,A,street,O,t,179,1,1282.5,482052.5,7087,WL,B,1.0
4,1.433000087738037,learn,58566.99991226196,Wed Mar 05 2025 11:05:29 GMT-0600 (Central Standard Time),483483.89999997616,A,streetenter,O,enter,116,1,1431.3999999761581,482052.5,7087,WL,B,1.0
4,1.6170001029968262,learn,58382.999897003174,Wed Mar 05 2025 11:05:29 GMT-0600 (Central Standard Time),483668.0,A,g,O,g,177,1,183.79999995231628,483484.2000000477,7087,WL,B,2.0
4,1.816999912261963,learn,58183.00008773804,Wed Mar 05 2025 11:05:29 GMT-0600 (Central Standard Time),483868.2000000477,A,gr,O,r,166,1,384.0,483484.2000000477,7087,WL,B,2.0
4,2.0,learn,58000.0,Wed Mar 05 2025 11:05:29 GMT-0600 (Central Standard Time),484051.39999997616,A,gra,O,a,150,1,567.1999999284744,483484.2000000477,7087,WL,B,2.0
4,2.200000047683716,learn,57799.999952316284,Wed Mar 05 2025 11:05:29 GMT-0600 (Central Standard Time),484251.39999997616,A,gras,O,s,168,1,767.1999999284744,483484.2000000477,7087,WL,B,2.0
4,2.382999897003174,learn,57617.000102996826,Wed Mar 05 2025 11:05:29 GMT-0600 (Central Standard Time),484434.39999997616,A,grass,O,s,150,1,950.1999999284744,483484.2000000477,7087,WL,B,2.0
4,2.5490000247955322,learn,57450.99997520447,Wed Mar 05 2025 11:05:29 GMT-0600 (Central Standard Time),484600.2000000477,A,grassenter,O,enter,130,1,1116.0,483484.2000000477,7087,WL,B,2.0
4,2.7330000400543213,learn,57266.99995994568,Wed Mar 05 2025 11:05:29 GMT-0600 (Central Standard Time),484784.5,A,c,O,c,165,1,184.10000002384186,484600.39999997616,7087,WL,B,3.0
4,2.815000057220459,learn,57184.99994277954,Wed Mar 05 2025 11:05:29 GMT-0600 (Central Standard Time),484866.89999997616,A,cl,O,l,42,1,266.5,484600.39999997616,7087,WL,B,3.0
4,3.0160000324249268,learn,56983.99996757507,Wed Mar 05 2025 11:05:29 GMT-0600 (Central Standard Time),485067.5,A,clo,O,o,171,1,467.10000002384186,484600.39999997616,7087,WL,B,3.0
4,3.5829999446868896,learn,56417.00005531311,Wed Mar 05 2025 11:05:29 GMT-0600 (Central Standard Time),485634.39999997616,A,cloc,O,c,534,1,1034.0,484600.39999997616,7087,WL,B,3.0
4,3.6989998817443848,learn,56301.000118255615,Wed Mar 05 2025 11:05:29 GMT-0600 (Central Standard Time),485750.89999997616,A,clock,O,k,77,1,1150.5,484600.39999997616,7087,WL,B,3.0
4,3.9149999618530273,learn,56085.00003814697,Wed Mar 05 2025 11:05:29 GMT-0600 (Central Standard Time),485966.2999999523,A,clockenter,O,enter,193,1,1365.8999999761581,484600.39999997616,7087,WL,B,3.0
4,4.115000009536743,learn,55884.99999046326,Wed Mar 05 2025 11:05:29 GMT-0600 (Central Standard Time),486166.2999999523,A,w,O,w,180,1,199.69999992847443,485966.60000002384,7087,WL,B,4.0
4,4.2149999141693115,learn,55785.00008583069,Wed Mar 05 2025 11:05:29 GMT-0600 (Central Standard Time),486266.5,A,wi,O,i,76,1,299.89999997615814,485966.60000002384,7087,WL,B,4.0
4,4.331000089645386,learn,55668.999910354614,Wed Mar 05 2025 11:05:29 GMT-0600 (Central Standard Time),486382.89999997616,A,wif,O,f,104,1,416.2999999523163,485966.60000002384,7087,WL,B,4.0
4,4.414999961853027,learn,55585.00003814697,Wed Mar 05 2025 11:05:29 GMT-0600 (Central Standard Time),486466.0,A,wife,O,e,76,1,499.39999997615814,485966.60000002384,7087,WL,B,4.0
4,4.7149999141693115,learn,55285.00008583069,Wed Mar 05 2025 11:05:29 GMT-0600 (Central Standard Time),486766.2999999523,A,wifeenter,O,enter,290,1,799.6999999284744,485966.60000002384,7087,WL,B,4.0
4,5.0320000648498535,learn,54967.99993515015,Wed Mar 05 2025 11:05:29 GMT-0600 (Central Standard Time),487083.89999997616,A,p,O,p,302,1,317.2999999523163,486766.60000002384,7087,WL,B,5.0
4,5.263999938964844,learn,54736.000061035156,Wed Mar 05 2025 11:05:29 GMT-0600 (Central Standard Time),487315.7999999523,A,pi,O,i,200,1,549.1999999284744,486766.60000002384,7087,WL,B,5.0
4,5.447999954223633,learn,54552.00004577637,Wed Mar 05 2025 11:05:29 GMT-0600 (Central Standard Time),487499.2000000477,A,pip,O,p,175,1,732.6000000238419,486766.60000002384,7087,WL,B,5.0
4,5.664999961853027,learn,54335.00003814697,Wed Mar 05 2025 11:05:29 GMT-0600 (Central Standard Time),487716.5,A,pipe,O,e,209,1,949.8999999761581,486766.60000002384,7087,WL,B,5.0
4,7.150000095367432,learn,52849.99990463257,Wed Mar 05 2025 11:05:29 GMT-0600 (Central Standard Time),489200.5,A,pipeenter,O,enter,1458,1,2433.899999976158,486766.60000002384,7087,WL,B,5.0
4,8.782000064849854,learn,51217.99993515015,Wed Mar 05 2025 11:05:29 GMT-0600 (Central Standard Time),490832.2999999523,A,g,O,g,1607,1,1631.5,489200.7999999523,7087,WL,B,6.0
4,9.164999961853027,learn,50835.00003814697,Wed Mar 05 2025 11:05:29 GMT-0600 (Central Standard Time),491215.5,A,,O,backspace,347,1,2014.7000000476837,489200.7999999523,7087,WL,B,6.0
4,10.480999946594238,learn,49519.00005340576,Wed Mar 05 2025 11:05:29 GMT-0600 (Central Standard Time),492532.0,A,w,O,w,1284,1,3331.2000000476837,489200.7999999523,7087,WL,B,6.0
4,10.63100004196167,learn,49368.99995803833,Wed Mar 05 2025 11:05:29 GMT-0600 (Central Standard Time),492681.89999997616,A,wi,O,i,118,1,3481.100000023842,489200.7999999523,7087,WL,B,6.0
4,10.747999906539917,learn,49252.00009346008,Wed Mar 05 2025 11:05:29 GMT-0600 (Central Standard Time),492798.39999997616,A,wif,O,f,88,1,3597.600000023842,489200.7999999523,7087,WL,B,6.0
4,10.831000089645386,learn,49168.999910354614,Wed Mar 05 2025 11:05:29 GMT-0600 (Central Standard Time),492881.0,A,wife,O,e,51,1,3680.2000000476837,489200.7999999523,7087,WL,B,6.0
4,10.94700002670288,learn,49052.99997329712,Wed Mar 05 2025 11:05:29 GMT-0600 (Central Standard Time),492997.2999999523,A,wifeenter,O,enter,97,1,3796.5,489200.7999999523,7087,WL,B,6.0
4,11.164999961853027,learn,48835.00003814697,Wed Mar 05 2025 11:05:29 GMT-0600 (Central Standard Time),493215.10000002384,A,p,O,p,207,1,217.5,492997.60000002384,7087,WL,B,7.0
4,11.364000082015991,learn,48635.99991798401,Wed Mar 05 2025 11:05:29 GMT-0600 (Central Standard Time),493414.7000000477,A,pi,O,i,161,1,417.10000002384186,492997.60000002384,7087,WL,B,7.0
4,12.21399998664856,learn,47786.00001335144,Wed Mar 05 2025 11:05:29 GMT-0600 (Central Standard Time),494264.5,A,pip,O,p,814,1,1266.8999999761581,492997.60000002384,7087,WL,B,7.0
4,12.46399998664856,learn,47536.00001335144,Wed Mar 05 2025 11:05:29 GMT-0600 (Central Standard Time),494514.5,A,pipe,O,e,217,1,1516.8999999761581,492997.60000002384,7087,WL,B,7.0
4,12.579999923706055,learn,47420.000076293945,Wed Mar 05 2025 11:05:29 GMT-0600 (Central Standard Time),494630.2999999523,A,pipeenter,O,enter,87,1,1632.6999999284744,492997.60000002384,7087,WL,B,7.0
4,12.88100004196167,learn,47118.99995803833,Wed Mar 05 2025 11:05:29 GMT-0600 (Central Standard Time),494931.10000002384,A,p,O,p,279,1,300.60000002384186,494630.5,7087,WL,B,8.0
4,13.13100004196167,learn,46868.99995803833,Wed Mar 05 2025 11:05:29 GMT-0600 (Central Standard Time),495181.0,A,pu,O,u,216,1,550.5,494630.5,7087,WL,B,8.0
4,13.29699993133545,learn,46703.00006866455,Wed Mar 05 2025 11:05:29 GMT-0600 (Central Standard Time),495347.60000002384,A,pup,O,p,126,1,717.1000000238419,494630.5,7087,WL,B,8.0
4,13.52999997138977,learn,46470.00002861023,Wed Mar 05 2025 11:05:29 GMT-0600 (Central Standard Time),495580.89999997616,A,pupi,O,i,199,1,950.3999999761581,494630.5,7087,WL,B,8.0
4,13.71399998664856,learn,46286.00001335144,Wed Mar 05 2025 11:05:29 GMT-0600 (Central Standard Time),495764.2000000477,A,pupil,O,l,149,1,1133.7000000476837,494630.5,7087,WL,B,8.0
4,14.062999963760376,learn,45937.000036239624,Wed Mar 05 2025 11:05:29 GMT-0600 (Central Standard Time),496113.10000002384,A,pupilenter,O,enter,325,1,1482.6000000238419,494630.5,7087,WL,B,8.0
4,14.463000059127808,learn,45536.99994087219,Wed Mar 05 2025 11:05:29 GMT-0600 (Central Standard Time),496513.89999997616,A,w,O,w,380,1,400.60000002384186,496113.2999999523,7087,WL,B,9.0
4,14.562999963760376,learn,45437.000036239624,Wed Mar 05 2025 11:05:29 GMT-0600 (Central Standard Time),496613.10000002384,A,wi,O,i,71,1,499.8000000715256,496113.2999999523,7087,WL,B,9.0
4,14.663000106811523,learn,45336.99989318848,Wed Mar 05 2025 11:05:29 GMT-0600 (Central Standard Time),496713.89999997616,A,win,O,n,78,1,600.6000000238419,496113.2999999523,7087,WL,B,9.0
4,14.796000003814697,learn,45203.9999961853,Wed Mar 05 2025 11:05:29 GMT-0600 (Central Standard Time),496846.89999997616,A,wind,O,d,98,1,733.6000000238419,496113.2999999523,7087,WL,B,9.0
4,14.895999908447266,learn,45104.000091552734,Wed Mar 05 2025 11:05:29 GMT-0600 (Central Standard Time),496947.0,A,windo,O,o,56,1,833.7000000476837,496113.2999999523,7087,WL,B,9.0
4,15.046000003814697,learn,44953.9999961853,Wed Mar 05 2025 11:05:29 GMT-0600 (Central Standard Time),497096.7999999523,A,window,O,w,118,1,983.5,496113.2999999523,7087,WL,B,9.0
4,15.296000003814697,learn,44703.9999961853,Wed Mar 05 2025 11:05:29 GMT-0600 (Central Standard Time),497346.10000002384,A,windowenter,O,enter,215,1,1232.8000000715256,496113.2999999523,7087,WL,B,9.0
4,15.51200008392334,learn,44487.99991607666,Wed Mar 05 2025 11:05:29 GMT-0600 (Central Standard Time),497562.60000002384,A,l,O,l,210,1,216.20000004768372,497346.39999997616,7087,WL,B,10.0
4,15.663000106811523,learn,44336.99989318848,Wed Mar 05 2025 11:05:29 GMT-0600 (Central Standard Time),497713.7000000477,A,la,O,a,135,1,367.3000000715256,497346.39999997616,7087,WL,B,10.0
4,15.845999956130981,learn,44154.00004386902,Wed Mar 05 2025 11:05:29 GMT-0600 (Central Standard Time),497896.7000000477,A,lak,O,k,152,1,550.3000000715256,497346.39999997616,7087,WL,B,10.0
4,15.996000051498413,learn,44003.99994850159,Wed Mar 05 2025 11:05:29 GMT-0600 (Central Standard Time),498046.60000002384,A,lake,O,e,122,1,700.2000000476837,497346.39999997616,7087,WL,B,10.0
4,16.211999893188477,learn,43788.00010681152,Wed Mar 05 2025 11:05:29 GMT-0600 (Central Standard Time),498262.39999997616,A,lakeenter,O,enter,179,1,916.0,497346.39999997616,7087,WL,B,10.0
4,16.34599995613098,learn,43654.00004386902,Wed Mar 05 2025 11:05:29 GMT-0600 (Central Standard Time),498396.60000002384,A,c,O,c,127,1,133.89999997615814,498262.7000000477,7087,WL,B,11.0
4,16.645999908447266,learn,43354.000091552734,Wed Mar 05 2025 11:05:29 GMT-0600 (Central Standard Time),498696.39999997616,A,ca,O,a,267,1,433.6999999284744,498262.7000000477,7087,WL,B,11.0
4,16.86299991607666,learn,43137.00008392334,Wed Mar 05 2025 11:05:29 GMT-0600 (Central Standard Time),498913.10000002384,A,cab,O,b,186,1,650.3999999761581,498262.7000000477,7087,WL,B,11.0
4,16.979000091552734,learn,43020.999908447266,Wed Mar 05 2025 11:05:29 GMT-0600 (Central Standard Time),499029.39999997616,A,cabi,O,i,89,1,766.6999999284744,498262.7000000477,7087,WL,B,11.0
4,17.07800006866455,learn,42921.99993133545,Wed Mar 05 2025 11:05:29 GMT-0600 (Central Standard Time),499128.7000000477,A,cabin,O,n,55,1,866.0,498262.7000000477,7087,WL,B,11.0
4,17.811000108718872,learn,42188.99989128113,Wed Mar 05 2025 11:05:29 GMT-0600 (Central Standard Time),499861.89999997616,A,cabinenter,O,enter,714,1,1599.1999999284744,498262.7000000477,7087,WL,B,11.0
4,18.527999877929688,learn,41472.00012207031,Wed Mar 05 2025 11:05:29 GMT-0600 (Central Standard Time),500578.7999999523,A,f,O,f,703,1,716.5999999046326,499862.2000000477,7087,WL,B,12.0
4,18.644999980926514,learn,41355.000019073486,Wed Mar 05 2025 11:05:29 GMT-0600 (Central Standard Time),500695.7000000477,A,fi,O,i,86,1,833.5,499862.2000000477,7087,WL,B,12.0
4,18.77900004386902,learn,41220.99995613098,Wed Mar 05 2025 11:05:29 GMT-0600 (Central Standard Time),500829.10000002384,A,fir,O,r,103,1,966.8999999761581,499862.2000000477,7087,WL,B,12.0
4,18.844000101089478,learn,41155.99989891052,Wed Mar 05 2025 11:05:29 GMT-0600 (Central Standard Time),500895.0,A,fire,O,e,36,1,1032.7999999523163,499862.2000000477,7087,WL,B,12.0
4,19.194000005722046,learn,40805.999994277954,Wed Mar 05 2025 11:05:29 GMT-0600 (Central Standard Time),501244.7000000477,A,fireenter,O,enter,337,1,1382.5,499862.2000000477,7087,WL,B,12.0
4,24.927000045776367,learn,35072.99995422363,Wed Mar 05 2025 11:05:29 GMT-0600 (Central Standard Time),506977.2000000477,A,s,O,s,5721,1,5732.200000047684,501245.0,7087,WL,B,13.0
4,25.026000022888184,learn,34973.99997711182,Wed Mar 05 2025 11:05:29 GMT-0600 (Central Standard Time),507076.2000000477,A,sk,O,k,68,1,5831.200000047684,501245.0,7087,WL,B,13.0
4,25.17799997329712,learn,34822.00002670288,Wed Mar 05 2025 11:05:29 GMT-0600 (Central Standard Time),507229.0,A,ski,O,i,142,1,5984.0,501245.0,7087,WL,B,13.0
4,25.259000062942505,learn,34740.999937057495,Wed Mar 05 2025 11:05:29 GMT-0600 (Central Standard Time),507309.39999997616,A,skin,O,n,52,1,6064.399999976158,501245.0,7087,WL,B,13.0
4,25.575999975204468,learn,34424.00002479553,Wed Mar 05 2025 11:05:29 GMT-0600 (Central Standard Time),507626.0,A,skinenter,O,enter,298,1,6381.0,501245.0,7087,WL,B,13.0
4,28.79200005531311,learn,31207.99994468689,Wed Mar 05 2025 11:05:29 GMT-0600 (Central Standard Time),510842.60000002384,A,c,O,c,3203,1,3216.3000000715256,507626.2999999523,7087,WL,B,14.0
4,28.86299991607666,learn,31137.00008392334,Wed Mar 05 2025 11:05:29 GMT-0600 (Central Standard Time),510913.7000000477,A,cl,O,l,33,1,3287.4000000953674,507626.2999999523,7087,WL,B,14.0
4,29.02500009536743,learn,30974.99990463257,Wed Mar 05 2025 11:05:29 GMT-0600 (Central Standard Time),511075.60000002384,A,clo,O,o,131,1,3449.3000000715256,507626.2999999523,7087,WL,B,14.0
4,29.20900011062622,learn,30790.99988937378,Wed Mar 05 2025 11:05:29 GMT-0600 (Central Standard Time),511259.2000000477,A,cloc,O,c,142,1,3632.9000000953674,507626.2999999523,7087,WL,B,14.0
4,29.240999937057495,learn,30759.000062942505,Wed Mar 05 2025 11:05:29 GMT-0600 (Central Standard Time),511291.60000002384,A,clock,O,k,7,1,3665.3000000715256,507626.2999999523,7087,WL,B,14.0
4,29.808000087738037,learn,30191.999912261963,Wed Mar 05 2025 11:05:29 GMT-0600 (Central Standard Time),511858.0,A,clockenter,O,enter,535,1,4231.700000047684,507626.2999999523,7087,WL,B,14.0
4,31.60800004005432,learn,28391.99995994568,Wed Mar 05 2025 11:05:29 GMT-0600 (Central Standard Time),513658.39999997616,A,c,O,c,1779,1,1800.1999999284744,511858.2000000477,7087,WL,B,15.0
4,31.70799994468689,learn,28292.00005531311,Wed Mar 05 2025 11:05:29 GMT-0600 (Central Standard Time),513758.0,A,ci,O,i,71,1,1899.7999999523163,511858.2000000477,7087,WL,B,15.0
4,31.841000080108643,learn,28158.999919891357,Wed Mar 05 2025 11:05:29 GMT-0600 (Central Standard Time),513891.39999997616,A,cit,O,t,101,1,2033.1999999284744,511858.2000000477,7087,WL,B,15.0
4,32.02500009536743,learn,27974.99990463257,Wed Mar 05 2025 11:05:29 GMT-0600 (Central Standard Time),514075.2000000477,A,city,O,y,143,1,2217.0,511858.2000000477,7087,WL,B,15.0
4,32.32299995422363,learn,27677.000045776367,Wed Mar 05 2025 11:05:29 GMT-0600 (Central Standard Time),514373.7999999523,A,cityenter,O,enter,269,1,2515.5999999046326,511858.2000000477,7087,WL,B,15.0
5,0.4010000228881836,learn,60000.0,Wed Mar 05 2025 11:05:29 GMT-0600 (Central Standard Time),579670.3999999762,A,s,O,s,373,1,400.10000002384186,579270.2999999523,7087,WL,B,1.0
5,0.6159999370574951,learn,60000.0,Wed Mar 05 2025 11:05:29 GMT-0600 (Central Standard Time),579885.7000000477,A,st,O,t,177,1,615.4000000953674,579270.2999999523,7087,WL,B,1.0
5,0.8169999122619629,learn,60000.0,Wed Mar 05 2025 11:05:29 GMT-0600 (Central Standard Time),580086.6000000238,A,str,O,r,182,1,816.3000000715256,579270.2999999523,7087,WL,B,1.0
5,1.0,learn,60000.0,Wed Mar 05 2025 11:05:29 GMT-0600 (Central Standard Time),580269.7999999523,A,stre,O,e,154,1,999.5,579270.2999999523,7087,WL,B,1.0
5,1.184000015258789,learn,60000.0,Wed Mar 05 2025 11:05:29 GMT-0600 (Central Standard Time),580453.0,A,stree,O,e,149,1,1182.7000000476837,579270.2999999523,7087,WL,B,1.0
5,1.366999864578247,learn,60000.0,Wed Mar 05 2025 11:05:29 GMT-0600 (Central Standard Time),580636.7999999523,A,street,O,t,157,1,1366.5,579270.2999999523,7087,WL,B,1.0
5,1.5490000247955322,learn,60000.0,Wed Mar 05 2025 11:05:29 GMT-0600 (Central Standard Time),580818.7999999523,A,streetenter,O,enter,146,1,1548.5,579270.2999999523,7087,WL,B,1.0
5,1.7170000076293945,learn,60000.0,Wed Mar 05 2025 11:05:29 GMT-0600 (Central Standard Time),580986.3999999762,A,g,O,g,155,1,167.39999997615814,580819.0,7087,WL,B,2.0
5,1.934000015258789,learn,60000.0,Wed Mar 05 2025 11:05:29 GMT-0600 (Central Standard Time),581203.5,A,gr,O,r,187,1,384.5,580819.0,7087,WL,B,2.0
5,2.134000062942505,learn,60000.0,Wed Mar 05 2025 11:05:29 GMT-0600 (Central Standard Time),581403.0,A,gra,O,a,159,1,584.0,580819.0,7087,WL,B,2.0
5,2.299999952316284,learn,60000.0,Wed Mar 05 2025 11:05:29 GMT-0600 (Central Standard Time),581569.5,A,gras,O,s,130,1,750.5,580819.0,7087,WL,B,2.0
5,2.4660000801086426,learn,60000.0,Wed Mar 05 2025 11:05:29 GMT-0600 (Central Standard Time),581735.7000000477,A,grass,O,s,136,1,916.7000000476837,580819.0,7087,WL,B,2.0
5,2.6489999294281006,learn,60000.0,Wed Mar 05 2025 11:05:29 GMT-0600 (Central Standard Time),581918.2000000477,A,grassenter,O,enter,158,1,1099.2000000476837,580819.0,7087,WL,B,2.0
5,3.7660000324249268,learn,60000.0,Wed Mar 05 2025 11:05:29 GMT-0600 (Central Standard Time),583035.7000000477,A,a,O,a,1102,1,1117.2000000476837,581918.5,7087,WL,B,3.0
5,3.9830000400543213,learn,60000.0,Wed Mar 05 2025 11:05:29 GMT-0600 (Central Standard Time),583252.2000000477,A,ar,O,r,176,1,1333.7000000476837,581918.5,7087,WL,B,3.0
5,4.165999889373779,learn,60000.0,Wed Mar 05 2025 11:05:29 GMT-0600 (Central Standard Time),583435.7999999523,A,arm,O,m,141,1,1517.2999999523163,581918.5,7087,WL,B,3.0
5,4.997999906539917,learn,60000.0,Wed Mar 05 2025 11:05:29 GMT-0600 (Central Standard Time),584267.6000000238,A,armenter,O,enter,795,1,2349.100000023842,581918.5,7087,WL,B,3.0
5,5.382999897003174,learn,60000.0,Wed Mar 05 2025 11:05:29 GMT-0600 (Central Standard Time),584652.3999999762,A,g,O,g,377,1,384.5,584267.8999999762,7087,WL,B,4.0
5,5.598999977111816,learn,60000.0,Wed Mar 05 2025 11:05:29 GMT-0600 (Central Standard Time),584868.2999999523,A,gr,O,r,180,1,600.3999999761581,584267.8999999762,7087,WL,B,4.0
5,5.749000072479248,learn,60000.0,Wed Mar 05 2025 11:05:29 GMT-0600 (Central Standard Time),585018.3999999762,A,gra,O,a,117,1,750.5,584267.8999999762,7087,WL,B,4.0
5,5.931999921798706,learn,60000.0,Wed Mar 05 2025 11:05:29 GMT-0600 (Central Standard Time),585201.7000000477,A,gras,O,s,152,1,933.8000000715256,584267.8999999762,7087,WL,B,4.0
5,6.047999858856201,learn,60000.0,Wed Mar 05 2025 11:05:29 GMT-0600 (Central Standard Time),585317.6000000238,A,grass,O,s,80,1,1049.7000000476837,584267.8999999762,7087,WL,B,4.0
5,6.5980000495910645,learn,60000.0,Wed Mar 05 2025 11:05:29 GMT-0600 (Central Standard Time),585867.1000000238,A,grassenter,O,enter,526,1,1599.2000000476837,584267.8999999762,7087,WL,B,4.0
5,9.27999997138977,learn,60000.0,Wed Mar 05 2025 11:05:29 GMT-0600 (Central Standard Time),588549.3999999762,A,w,O,w,2673,1,2682.0,585867.3999999762,7087,WL,B,5.0
5,9.397000074386597,learn,60000.0,Wed Mar 05 2025 11:05:29 GMT-0600 (Central Standard Time),588666.0,A,wi,O,i,101,1,2798.600000023842,585867.3999999762,7087,WL,B,5.0
5,9.54699993133545,learn,60000.0,Wed Mar 05 2025 11:05:29 GMT-0600 (Central Standard Time),588816.3999999762,A,wif,O,f,137,1,2949.0,585867.3999999762,7087,WL,B,5.0
5,9.61299991607666,learn,60000.0,Wed Mar 05 2025 11:05:29 GMT-0600 (Central Standard Time),588882.6000000238,A,wife,O,e,46,1,3015.2000000476837,585867.3999999762,7087,WL,B,5.0
5,9.763000011444092,learn,60000.0,Wed Mar 05 2025 11:05:29 GMT-0600 (Central Standard Time),589032.5,A,wifeenter,O,enter,137,1,3165.100000023842,585867.3999999762,7087,WL,B,5.0
5,9.96399998664856,learn,60000.0,Wed Mar 05 2025 11:05:29 GMT-0600 (Central Standard Time),589233.6000000238,A,c,O,c,179,1,200.89999997615814,589032.7000000477,7087,WL,B,6.0
5,10.02999997138977,learn,60000.0,Wed Mar 05 2025 11:05:29 GMT-0600 (Central Standard Time),589299.2999999523,A,cl,O,l,42,1,266.59999990463257,589032.7000000477,7087,WL,B,6.0
5,10.214999914169312,learn,60000.0,Wed Mar 05 2025 11:05:29 GMT-0600 (Central Standard Time),589484.1000000238,A,clo,O,o,173,1,451.39999997615814,589032.7000000477,7087,WL,B,6.0
5,10.364000082015991,learn,60000.0,Wed Mar 05 2025 11:05:29 GMT-0600 (Central Standard Time),589633.2000000477,A,cloc,O,c,112,1,600.5,589032.7000000477,7087,WL,B,6.0
5,10.44700002670288,learn,60000.0,Wed Mar 05 2025 11:05:29 GMT-0600 (Central Standard Time),589715.8999999762,A,clock,O,k,57,1,683.1999999284744,589032.7000000477,7087,WL,B,6.0
5,10.680000066757202,learn,60000.0,Wed Mar 05 2025 11:05:29 GMT-0600 (Central Standard Time),589949.1000000238,A,clockenter,O,enter,210,1,916.3999999761581,589032.7000000477,7087,WL,B,6.0
5,10.864000082015991,learn,60000.0,Wed Mar 05 2025 11:05:29 GMT-0600 (Central Standard Time),590133.2999999523,A,s,O,s,168,1,184.0,589949.2999999523,7087,WL,B,7.0
5,10.963000059127808,learn,60000.0,Wed Mar 05 2025 11:05:29 GMT-0600 (Central Standard Time),590232.2999999523,A,sk,O,k,58,1,283.0,589949.2999999523,7087,WL,B,7.0
5,11.129999876022339,learn,60000.0,Wed Mar 05 2025 11:05:29 GMT-0600 (Central Standard Time),590399.7000000477,A,ski,O,i,145,1,450.40000009536743,589949.2999999523,7087,WL,B,7.0
5,11.230000019073486,learn,60000.0,Wed Mar 05 2025 11:05:29 GMT-0600 (Central Standard Time),590499.2999999523,A,skin,O,n,60,1,550.0,589949.2999999523,7087,WL,B,7.0
5,11.61299991607666,learn,60000.0,Wed Mar 05 2025 11:05:29 GMT-0600 (Central Standard Time),590881.8999999762,A,skinenter,O,enter,342,1,932.6000000238419,589949.2999999523,7087,WL,B,7.0
5,12.096999883651733,learn,60000.0,Wed Mar 05 2025 11:05:29 GMT-0600 (Central Standard Time),591366.2999999523,A,l,O,l,467,1,484.09999990463257,590882.2000000477,7087,WL,B,8.0
5,12.21399998664856,learn,60000.0,Wed Mar 05 2025 11:05:29 GMT-0600 (Central Standard Time),591483.0,A,la,O,a,81,1,600.7999999523163,590882.2000000477,7087,WL,B,8.0
5,12.397000074386597,learn,60000.0,Wed Mar 05 2025 11:05:29 GMT-0600 (Central Standard Time),591666.3999999762,A,lak,O,k,145,1,784.1999999284744,590882.2000000477,7087,WL,B,8.0
5,12.496000051498413,learn,60000.0,Wed Mar 05 2025 11:05:29 GMT-0600 (Central Standard Time),591765.5,A,lake,O,e,62,1,883.2999999523163,590882.2000000477,7087,WL,B,8.0
5,12.645999908447266,learn,60000.0,Wed Mar 05 2025 11:05:29 GMT-0600 (Central Standard Time),591915.0,A,lakeenter,O,enter,136,1,1032.7999999523163,590882.2000000477,7087,WL,B,8.0
5,13.013000011444092,learn,60000.0,Wed Mar 05 2025 11:05:29 GMT-0600 (Central Standard Time),592282.3999999762,A,c,O,c,346,1,367.2999999523163,591915.1000000238,7087,WL,B,9.0
5,13.19599986076355,learn,60000.0,Wed Mar 05 2025 11:05:29 GMT-0600 (Central Standard Time),592465.8999999762,A,ca,O,a,150,1,550.7999999523163,591915.1000000238,7087,WL,B,9.0
5,13.345999956130981,learn,60000.0,Wed Mar 05 2025 11:05:29 GMT-0600 (Central Standard Time),592615.7999999523,A,cab,O,b,112,1,700.6999999284744,591915.1000000238,7087,WL,B,9.0
5,13.496000051498413,learn,60000.0,Wed Mar 05 2025 11:05:29 GMT-0600 (Central Standard Time),592765.7999999523,A,cabi,O,i,114,1,850.6999999284744,591915.1000000238,7087,WL,B,9.0
5,13.578999996185303,learn,60000.0,Wed Mar 05 2025 11:05:29 GMT-0600 (Central Standard Time),592847.8999999762,A,cabin,O,n,44,1,932.7999999523163,591915.1000000238,7087,WL,B,9.0
5,13.84500002861023,learn,60000.0,Wed Mar 05 2025 11:05:29 GMT-0600 (Central Standard Time),593114.7999999523,A,cabinenter,O,enter,251,1,1199.6999999284744,591915.1000000238,7087,WL,B,9.0
5,14.595999956130981,learn,60000.0,Wed Mar 05 2025 11:05:29 GMT-0600 (Central Standard Time),593865.3999999762,A,d,O,d,731,1,750.3999999761581,593115.0,7087,WL,B,10.0
5,14.711999893188477,learn,60000.0,Wed Mar 05 2025 11:05:29 GMT-0600 (Central Standard Time),593981.8999999762,A,do,O,o,82,1,866.8999999761581,593115.0,7087,WL,B,10.0
5,14.82800006866455,learn,60000.0,Wed Mar 05 2025 11:05:29 GMT-0600 (Central Standard Time),594097.6000000238,A,doo,O,o,84,1,982.6000000238419,593115.0,7087,WL,B,10.0
5,15.013000011444092,learn,60000.0,Wed Mar 05 2025 11:05:29 GMT-0600 (Central Standard Time),594282.1000000238,A,door,O,r,161,1,1167.1000000238419,593115.0,7087,WL,B,10.0
5,16.66100001335144,learn,60000.0,Wed Mar 05 2025 11:05:29 GMT-0600 (Central Standard Time),595930.3999999762,A,doorenter,O,enter,1606,1,2815.399999976158,593115.0,7087,WL,B,10.0
5,17.26200008392334,learn,60000.0,Wed Mar 05 2025 11:05:29 GMT-0600 (Central Standard Time),596531.3999999762,A,f,O,f,587,1,600.7999999523163,595930.6000000238,7087,WL,B,11.0
5,17.361000061035156,learn,60000.0,Wed Mar 05 2025 11:05:29 GMT-0600 (Central Standard Time),596630.6000000238,A,fi,O,i,62,1,700.0,595930.6000000238,7087,WL,B,11.0
5,17.527999877929688,learn,60000.0,Wed Mar 05 2025 11:05:29 GMT-0600 (Central Standard Time),596797.7999999523,A,fir,O,r,142,1,867.1999999284744,595930.6000000238,7087,WL,B,11.0
5,17.611000061035156,learn,60000.0,Wed Mar 05 2025 11:05:29 GMT-0600 (Central Standard Time),596880.8999999762,A,fire,O,e,47,1,950.2999999523163,595930.6000000238,7087,WL,B,11.0
5,18.26099991798401,learn,60000.0,Wed Mar 05 2025 11:05:29 GMT-0600 (Central Standard Time),597530.0,A,fireenter,O,enter,617,1,1599.3999999761581,595930.6000000238,7087,WL,B,11.0
5,18.59500002861023,learn,60000.0,Wed Mar 05 2025 11:05:29 GMT-0600 (Central Standard Time),597864.2999999523,A,w,O,w,315,1,334.09999990463257,597530.2000000477,7087,WL,B,12.0
5,18.66100001335144,learn,60000.0,Wed Mar 05 2025 11:05:29 GMT-0600 (Central Standard Time),597930.2000000477,A,wi,O,i,33,1,400.0,597530.2000000477,7087,WL,B,12.0
5,18.74399995803833,learn,60000.0,Wed Mar 05 2025 11:05:29 GMT-0600 (Central Standard Time),598013.7999999523,A,win,O,n,59,1,483.59999990463257,597530.2000000477,7087,WL,B,12.0
5,18.8439998626709,learn,60000.0,Wed Mar 05 2025 11:05:29 GMT-0600 (Central Standard Time),598113.2999999523,A,wind,O,d,67,1,583.0999999046326,597530.2000000477,7087,WL,B,12.0
5,18.927000045776367,learn,60000.0,Wed Mar 05 2025 11:05:29 GMT-0600 (Central Standard Time),598196.7999999523,A,windo,O,o,67,1,666.5999999046326,597530.2000000477,7087,WL,B,12.0
5,19.477999925613403,learn,60000.0,Wed Mar 05 2025 11:05:29 GMT-0600 (Central Standard Time),598747.0,A,window,O,w,519,1,1216.7999999523163,597530.2000000477,7087,WL,B,12.0
5,19.90999984741211,learn,60000.0,Wed Mar 05 2025 11:05:29 GMT-0600 (Central Standard Time),599179.3999999762,A,windowenter,O,enter,407,1,1649.1999999284744,597530.2000000477,7087,WL,B,12.0
5,23.342999935150146,learn,60000.0,Wed Mar 05 2025 11:05:29 GMT-0600 (Central Standard Time),602612.5,A,a,O,a,3427,1,3432.7999999523163,599179.7000000477,7087,WL,B,13.0
5,23.443000078201294,learn,60000.0,Wed Mar 05 2025 11:05:29 GMT-0600 (Central Standard Time),602712.6000000238,A,ar,O,r,73,1,3532.899999976158,599179.7000000477,7087,WL,B,13.0
5,23.55900001525879,learn,60000.0,Wed Mar 05 2025 11:05:29 GMT-0600 (Central Standard Time),602828.7000000477,A,arm,O,m,81,1,3649.0,599179.7000000477,7087,WL,B,13.0
5,23.858999967575073,learn,60000.0,Wed Mar 05 2025 11:05:29 GMT-0600 (Central Standard Time),603128.0,A,armenter,O,enter,262,1,3948.2999999523163,599179.7000000477,7087,WL,B,13.0
5,27.057999849319458,learn,60000.0,Wed Mar 05 2025 11:05:29 GMT-0600 (Central Standard Time),606327.7999999523,A,p,O,p,3181,1,3199.5999999046326,603128.2000000477,7087,WL,B,14.0
5,27.274999856948853,learn,60000.0,Wed Mar 05 2025 11:05:29 GMT-0600 (Central Standard Time),606544.2000000477,A,pu,O,u,178,1,3416.0,603128.2000000477,7087,WL,B,14.0
5,27.407999992370605,learn,60000.0,Wed Mar 05 2025 11:05:29 GMT-0600 (Central Standard Time),606677.8999999762,A,pup,O,p,110,1,3549.6999999284744,603128.2000000477,7087,WL,B,14.0
5,27.64199995994568,learn,60000.0,Wed Mar 05 2025 11:05:29 GMT-0600 (Central Standard Time),606911.1000000238,A,pupi,O,i,196,1,3782.899999976158,603128.2000000477,7087,WL,B,14.0
5,27.842000007629395,learn,60000.0,Wed Mar 05 2025 11:05:29 GMT-0600 (Central Standard Time),607111.0,A,pupil,O,l,162,1,3982.7999999523163,603128.2000000477,7087,WL,B,14.0
5,28.19099998474121,learn,60000.0,Wed Mar 05 2025 11:05:29 GMT-0600 (Central Standard Time),607460.1000000238,A,pupilenter,O,enter,315,1,4331.899999976158,603128.2000000477,7087,WL,B,14.0
5,36.60599994659424,learn,60000.0,Wed Mar 05 2025 11:05:29 GMT-0600 (Central Standard Time),615873.8999999762,A,enter,O,enter,8392,1,8413.600000023842,607460.2999999523,7087,WL,B,15.0
6,0.2839999198913574,distr,59716.00008010864,Wed Mar 05 2025 11:05:29 GMT-0600 (Central Standard Time),698548.0,B,b,O,b,244,1,283.0,698265.0,7087,WL,B,1.0
6,0.4330000877380371,distr,59566.99991226196,Wed Mar 05 2025 11:05:29 GMT-0600 (Central Standard Time),698697.3999999762,B,ba,O,a,119,1,432.39999997615814,698265.0,7087,WL,B,1.0
6,0.5829999446868896,distr,59417.00005531311,Wed Mar 05 2025 11:05:29 GMT-0600 (Central Standard Time),698847.5,B,bab,O,b,123,1,582.5,698265.0,7087,WL,B,1.0
6,0.8329999446868896,distr,59167.00005531311,Wed Mar 05 2025 11:05:29 GMT-0600 (Central Standard Time),699097.7999999523,B,baby,O,y,212,1,832.7999999523163,698265.0,7087,WL,B,1.0
6,1.065999984741211,distr,58934.00001525879,Wed Mar 05 2025 11:05:29 GMT-0600 (Central Standard Time),699329.8999999762,B,babyenter,O,enter,191,1,1064.8999999761581,698265.0,7087,WL,B,1.0
6,1.3499999046325684,distr,58650.00009536743,Wed Mar 05 2025 11:05:29 GMT-0600 (Central Standard Time),699613.8999999762,B,l,O,l,276,1,283.7999999523163,699330.1000000238,7087,WL,B,2.0
6,1.5490000247955322,distr,58450.99997520447,Wed Mar 05 2025 11:05:29 GMT-0600 (Central Standard Time),699813.5,B,li,O,i,169,1,483.39999997615814,699330.1000000238,7087,WL,B,2.0
6,1.7319998741149902,distr,58268.00012588501,Wed Mar 05 2025 11:05:29 GMT-0600 (Central Standard Time),699996.8999999762,B,lip,O,p,168,1,666.7999999523163,699330.1000000238,7087,WL,B,2.0
6,2.0490000247955322,distr,57950.99997520447,Wed Mar 05 2025 11:05:29 GMT-0600 (Central Standard Time),700312.8999999762,B,lipenter,O,enter,288,1,982.7999999523163,699330.1000000238,7087,WL,B,2.0
6,2.2829999923706055,distr,57717.000007629395,Wed Mar 05 2025 11:05:29 GMT-0600 (Central Standard Time),700547.0,B,o,O,o,221,1,233.89999997615814,700313.1000000238,7087,WL,B,3.0
6,2.933000087738037,distr,57066.99991226196,Wed Mar 05 2025 11:05:29 GMT-0600 (Central Standard Time),701197.0,B,oc,O,c,616,1,883.8999999761581,700313.1000000238,7087,WL,B,3.0
6,3.1659998893737793,distr,56834.00011062622,Wed Mar 05 2025 11:05:29 GMT-0600 (Central Standard Time),701430.2000000477,B,oce,O,e,210,1,1117.1000000238419,700313.1000000238,7087,WL,B,3.0
6,3.431999921798706,distr,56568.000078201294,Wed Mar 05 2025 11:05:29 GMT-0600 (Central Standard Time),701696.8999999762,B,ocea,O,a,239,1,1383.7999999523163,700313.1000000238,7087,WL,B,3.0
6,3.6659998893737793,distr,56334.00011062622,Wed Mar 05 2025 11:05:29 GMT-0600 (Central Standard Time),701930.1000000238,B,ocean,O,n,203,1,1617.0,700313.1000000238,7087,WL,B,3.0
6,4.015000104904175,distr,55984.999895095825,Wed Mar 05 2025 11:05:29 GMT-0600 (Central Standard Time),702278.8999999762,B,oceanenter,O,enter,319,1,1965.7999999523163,700313.1000000238,7087,WL,B,3.0
6,5.631999969482422,distr,54368.00003051758,Wed Mar 05 2025 11:05:29 GMT-0600 (Central Standard Time),703896.0,B,l,O,l,1607,1,1616.7999999523163,702279.2000000477,7087,WL,B,4.0
6,5.799000024795532,distr,54200.99997520447,Wed Mar 05 2025 11:05:29 GMT-0600 (Central Standard Time),704062.8999999762,B,li,O,i,143,1,1783.6999999284744,702279.2000000477,7087,WL,B,4.0
6,5.98199987411499,distr,54018.00012588501,Wed Mar 05 2025 11:05:29 GMT-0600 (Central Standard Time),704246.0,B,lip,O,p,157,1,1966.7999999523163,702279.2000000477,7087,WL,B,4.0
6,6.381999969482422,distr,53618.00003051758,Wed Mar 05 2025 11:05:29 GMT-0600 (Central Standard Time),704646.1000000238,B,lipenter,O,enter,363,1,2366.899999976158,702279.2000000477,7087,WL,B,4.0
6,8.54699993133545,distr,51453.00006866455,Wed Mar 05 2025 11:05:29 GMT-0600 (Central Standard Time),706811.2999999523,B,f,O,f,2151,1,2165.0,704646.2999999523,7087,WL,B,5.0
6,8.746999979019165,distr,51253.000020980835,Wed Mar 05 2025 11:05:29 GMT-0600 (Central Standard Time),707011.5,B,fr,O,r,173,1,2365.2000000476837,704646.2999999523,7087,WL,B,5.0
6,8.88100004196167,distr,51118.99995803833,Wed Mar 05 2025 11:05:29 GMT-0600 (Central Standard Time),707145.0,B,fri,O,i,105,1,2498.7000000476837,704646.2999999523,7087,WL,B,5.0
6,8.996999979019165,distr,51003.000020980835,Wed Mar 05 2025 11:05:29 GMT-0600 (Central Standard Time),707261.7999999523,B,frie,O,e,89,1,2615.5,704646.2999999523,7087,WL,B,5.0
6,9.13100004196167,distr,50868.99995803833,Wed Mar 05 2025 11:05:29 GMT-0600 (Central Standard Time),707395.1000000238,B,frien,O,n,102,1,2748.8000000715256,704646.2999999523,7087,WL,B,5.0
6,9.246999979019165,distr,50753.000020980835,Wed Mar 05 2025 11:05:29 GMT-0600 (Central Standard Time),707510.7999999523,B,friend,O,d,79,1,2864.5,704646.2999999523,7087,WL,B,5.0
6,9.696000099182129,distr,50303.99990081787,Wed Mar 05 2025 11:05:29 GMT-0600 (Central Standard Time),707960.5,B,friendenter,O,enter,421,1,3314.2000000476837,704646.2999999523,7087,WL,B,5.0
6,12.678999900817871,distr,47321.00009918213,Wed Mar 05 2025 11:05:29 GMT-0600 (Central Standard Time),710943.7999999523,B,r,O,r,2973,1,2983.0,707960.7999999523,7087,WL,B,6.0
6,12.76200008392334,distr,47237.99991607666,Wed Mar 05 2025 11:05:29 GMT-0600 (Central Standard Time),711026.5,B,ro,O,o,53,1,3065.7000000476837,707960.7999999523,7087,WL,B,6.0
6,12.946000099182129,distr,47053.99990081787,Wed Mar 05 2025 11:05:29 GMT-0600 (Central Standard Time),711210.5,B,roc,O,c,157,1,3249.7000000476837,707960.7999999523,7087,WL,B,6.0
6,13.01200008392334,distr,46987.99991607666,Wed Mar 05 2025 11:05:29 GMT-0600 (Central Standard Time),711276.1000000238,B,rock,O,k,41,1,3315.3000000715256,707960.7999999523,7087,WL,B,6.0
6,13.444999933242798,distr,46555.0000667572,Wed Mar 05 2025 11:05:29 GMT-0600 (Central Standard Time),711709.2999999523,B,rockenter,O,enter,421,1,3748.5,707960.7999999523,7087,WL,B,6.0
6,26.657999992370605,distr,33342.000007629395,Wed Mar 05 2025 11:05:29 GMT-0600 (Central Standard Time),724922.6000000238,B,c,O,c,13201,1,13213.100000023842,711709.5,7087,WL,B,7.0
6,26.841000080108643,distr,33158.99991989136,Wed Mar 05 2025 11:05:29 GMT-0600 (Central Standard Time),725105.8999999762,B,ce,O,e,155,1,13396.399999976158,711709.5,7087,WL,B,7.0
6,26.97499990463257,distr,33025.00009536743,Wed Mar 05 2025 11:05:29 GMT-0600 (Central Standard Time),725239.2999999523,B,cel,O,l,107,1,13529.799999952316,711709.5,7087,WL,B,7.0
6,27.10800004005432,distr,32891.99995994568,Wed Mar 05 2025 11:05:29 GMT-0600 (Central Standard Time),725372.2999999523,B,cell,O,l,91,1,13662.799999952316,711709.5,7087,WL,B,7.0
6,27.407000064849854,distr,32592.999935150146,Wed Mar 05 2025 11:05:29 GMT-0600 (Central Standard Time),725671.2999999523,B,cellenter,O,enter,262,1,13961.799999952316,711709.5,7087,WL,B,7.0
6,31.740000009536743,distr,28259.999990463257,Wed Mar 05 2025 11:05:29 GMT-0600 (Central Standard Time),730003.2000000477,B,enter,O,enter,4318,1,4331.600000023842,725671.6000000238,7087,WL,B,8.0
6,31.92300009727478,distr,28076.99990272522,Wed Mar 05 2025 11:05:29 GMT-0600 (Central Standard Time),730186.3999999762,B,enter,O,enter,161,1,182.89999997615814,730003.5,7087,WL,B,9.0
6,32.07299995422363,distr,27927.000045776367,Wed Mar 05 2025 11:05:29 GMT-0600 (Central Standard Time),730336.6000000238,B,enter,O,enter,129,1,149.89999997615814,730186.7000000477,7087,WL,B,10.0
6,32.223000049591064,distr,27776.999950408936,Wed Mar 05 2025 11:05:29 GMT-0600 (Central Standard Time),730486.2999999523,B,enter,O,enter,132,1,149.39999997615814,730336.8999999762,7087,WL,B,11.0
6,32.50600004196167,distr,27493.99995803833,Wed Mar 05 2025 11:05:29 GMT-0600 (Central Standard Time),730769.7999999523,B,enter,O,enter,262,1,283.09999990463257,730486.7000000477,7087,WL,B,12.0
6,32.890000104904175,distr,27109.999895095825,Wed Mar 05 2025 11:05:29 GMT-0600 (Central Standard Time),731152.8999999762,B,enter,O,enter,371,1,382.89999997615814,730770.0,7087,WL,B,13.0
6,33.138999938964844,distr,26861.000061035156,Wed Mar 05 2025 11:05:29 GMT-0600 (Central Standard Time),731402.7000000477,B,enter,O,enter,235,1,249.5,731153.2000000477,7087,WL,B,14.0
6,33.53999996185303,distr,26460.000038146973,Wed Mar 05 2025 11:05:29 GMT-0600 (Central Standard Time),731803.6000000238,B,enter,O,enter,377,1,400.5,731403.1000000238,7087,WL,B,15.0
7,0.3839998245239258,immed,59616.000175476074,Wed Mar 05 2025 11:05:29 GMT-0600 (Central Standard Time),752597.2000000477,A,g,O,g,360,1,383.0,752214.2000000477,7087,WL,B,1.0
7,0.5999999046325684,immed,59400.00009536743,Wed Mar 05 2025 11:05:29 GMT-0600 (Central Standard Time),752813.1000000238,A,gr,O,r,189,1,598.8999999761581,752214.2000000477,7087,WL,B,1.0
7,0.8329999446868896,immed,59167.00005531311,Wed Mar 05 2025 11:05:29 GMT-0600 (Central Standard Time),753046.6000000238,A,gra,O,a,198,1,832.3999999761581,752214.2000000477,7087,WL,B,1.0
7,1.0499999523162842,immed,58950.000047683716,Wed Mar 05 2025 11:05:29 GMT-0600 (Central Standard Time),753263.1000000238,A,gras,O,s,179,1,1048.8999999761581,752214.2000000477,7087,WL,B,1.0
7,1.2000000476837158,immed,58799.999952316284,Wed Mar 05 2025 11:05:29 GMT-0600 (Central Standard Time),753413.1000000238,A,grass,O,s,115,1,1198.8999999761581,752214.2000000477,7087,WL,B,1.0
7,1.3819999694824219,immed,58618.00003051758,Wed Mar 05 2025 11:05:29 GMT-0600 (Central Standard Time),753595.5,A,grassenter,O,enter,150,1,1381.2999999523163,752214.2000000477,7087,WL,B,1.0
7,1.5999999046325684,immed,58400.00009536743,Wed Mar 05 2025 11:05:29 GMT-0600 (Central Standard Time),753813.3999999762,A,a,O,a,203,1,217.69999992847443,753595.7000000477,7087,WL,B,2.0
7,1.681999921798706,immed,58318.000078201294,Wed Mar 05 2025 11:05:29 GMT-0600 (Central Standard Time),753895.5,A,ar,O,r,49,1,299.7999999523163,753595.7000000477,7087,WL,B,2.0
7,2.5329999923706055,immed,57467.000007629395,Wed Mar 05 2025 11:05:29 GMT-0600 (Central Standard Time),754746.7000000477,A,arm,O,m,825,1,1151.0,753595.7000000477,7087,WL,B,2.0
7,3.0319998264312744,immed,56968.000173568726,Wed Mar 05 2025 11:05:29 GMT-0600 (Central Standard Time),755245.0,A,armenter,O,enter,477,1,1649.2999999523163,753595.7000000477,7087,WL,B,2.0
7,3.365999937057495,immed,56634.000062942505,Wed Mar 05 2025 11:05:29 GMT-0600 (Central Standard Time),755579.1000000238,A,d,O,d,321,1,333.89999997615814,755245.2000000477,7087,WL,B,3.0
7,3.4649999141693115,immed,56535.00008583069,Wed Mar 05 2025 11:05:29 GMT-0600 (Central Standard Time),755678.7999999523,A,do,O,o,72,1,433.59999990463257,755245.2000000477,7087,WL,B,3.0
7,3.5989999771118164,immed,56401.00002288818,Wed Mar 05 2025 11:05:29 GMT-0600 (Central Standard Time),755812.3999999762,A,doo,O,o,108,1,567.1999999284744,755245.2000000477,7087,WL,B,3.0
7,3.815999984741211,immed,56184.00001525879,Wed Mar 05 2025 11:05:29 GMT-0600 (Central Standard Time),756029.0,A,door,O,r,182,1,783.7999999523163,755245.2000000477,7087,WL,B,3.0
7,5.513999938964844,immed,54486.000061035156,Wed Mar 05 2025 11:05:29 GMT-0600 (Central Standard Time),757727.6000000238,A,doorenter,O,enter,1666,1,2482.399999976158,755245.2000000477,7087,WL,B,3.0
7,6.330999851226807,immed,53669.00014877319,Wed Mar 05 2025 11:05:29 GMT-0600 (Central Standard Time),758544.7000000477,A,w,O,w,806,1,816.9000000953674,757727.7999999523,7087,WL,B,4.0
7,6.497999906539917,immed,53502.00009346008,Wed Mar 05 2025 11:05:29 GMT-0600 (Central Standard Time),758711.2999999523,A,wi,O,i,128,1,983.5,757727.7999999523,7087,WL,B,4.0
7,6.5980000495910645,immed,53401.999950408936,Wed Mar 05 2025 11:05:29 GMT-0600 (Central Standard Time),758811.2000000477,A,wif,O,f,74,1,1083.4000000953674,757727.7999999523,7087,WL,B,4.0
7,6.730999946594238,immed,53269.00005340576,Wed Mar 05 2025 11:05:29 GMT-0600 (Central Standard Time),758944.7999999523,A,wife,O,e,104,1,1217.0,757727.7999999523,7087,WL,B,4.0
7,6.914000034332275,immed,53085.999965667725,Wed Mar 05 2025 11:05:29 GMT-0600 (Central Standard Time),759127.1000000238,A,wifeenter,O,enter,156,1,1399.3000000715256,757727.7999999523,7087,WL,B,4.0
7,7.180999994277954,immed,52819.000005722046,Wed Mar 05 2025 11:05:29 GMT-0600 (Central Standard Time),759394.8999999762,A,c,O,c,246,1,267.60000002384186,759127.2999999523,7087,WL,B,5.0
7,7.23799991607666,immed,52762.00008392334,Wed Mar 05 2025 11:05:29 GMT-0600 (Central Standard Time),759452.0,A,cl,O,l,16,1,324.7000000476837,759127.2999999523,7087,WL,B,5.0
7,7.414000034332275,immed,52585.999965667725,Wed Mar 05 2025 11:05:29 GMT-0600 (Central Standard Time),759627.7999999523,A,clo,O,o,146,1,500.5,759127.2999999523,7087,WL,B,5.0
7,7.579999923706055,immed,52420.000076293945,Wed Mar 05 2025 11:05:29 GMT-0600 (Central Standard Time),759793.7999999523,A,cloc,O,c,135,1,666.5,759127.2999999523,7087,WL,B,5.0
7,7.629999876022339,immed,52370.00012397766,Wed Mar 05 2025 11:05:29 GMT-0600 (Central Standard Time),759843.2000000477,A,clock,O,k,35,1,715.9000000953674,759127.2999999523,7087,WL,B,5.0
7,7.879999876022339,immed,52120.00012397766,Wed Mar 05 2025 11:05:29 GMT-0600 (Central Standard Time),760093.2999999523,A,clockenter,O,enter,233,1,966.0,759127.2999999523,7087,WL,B,5.0
7,8.063999891281128,immed,51936.00010871887,Wed Mar 05 2025 11:05:29 GMT-0600 (Central Standard Time),760277.2000000477,A,f,O,f,176,1,183.60000002384186,760093.6000000238,7087,WL,B,6.0
7,8.146999835968018,immed,51853.00016403198,Wed Mar 05 2025 11:05:29 GMT-0600 (Central Standard Time),760360.1000000238,A,fi,O,i,54,1,266.5,760093.6000000238,7087,WL,B,6.0
7,8.313999891281128,immed,51686.00010871887,Wed Mar 05 2025 11:05:29 GMT-0600 (Central Standard Time),760527.5,A,fir,O,r,148,1,433.89999997615814,760093.6000000238,7087,WL,B,6.0
7,8.379999876022339,immed,51620.00012397766,Wed Mar 05 2025 11:05:29 GMT-0600 (Central Standard Time),760593.2000000477,A,fire,O,e,26,1,499.60000002384186,760093.6000000238,7087,WL,B,6.0
7,8.69599986076355,immed,51304.00013923645,Wed Mar 05 2025 11:05:29 GMT-0600 (Central Standard Time),760909.7999999523,A,fireenter,O,enter,306,1,816.1999999284744,760093.6000000238,7087,WL,B,6.0
7,8.94700002670288,immed,51052.99997329712,Wed Mar 05 2025 11:05:29 GMT-0600 (Central Standard Time),761160.7000000477,A,s,O,s,240,1,250.70000004768372,760910.0,7087,WL,B,7.0
7,9.02999997138977,immed,50970.00002861023,Wed Mar 05 2025 11:05:29 GMT-0600 (Central Standard Time),761243.5,A,sk,O,k,56,1,333.5,760910.0,7087,WL,B,7.0
7,9.230999946594238,immed,50769.00005340576,Wed Mar 05 2025 11:05:29 GMT-0600 (Central Standard Time),761443.8999999762,A,ski,O,i,171,1,533.8999999761581,760910.0,7087,WL,B,7.0
7,9.363999843597412,immed,50636.00015640259,Wed Mar 05 2025 11:05:29 GMT-0600 (Central Standard Time),761577.1000000238,A,skin,O,n,104,1,667.1000000238419,760910.0,7087,WL,B,7.0
7,9.662999868392944,immed,50337.000131607056,Wed Mar 05 2025 11:05:29 GMT-0600 (Central Standard Time),761876.2000000477,A,skinenter,O,enter,265,1,966.2000000476837,760910.0,7087,WL,B,7.0
7,10.063999891281128,immed,49936.00010871887,Wed Mar 05 2025 11:05:29 GMT-0600 (Central Standard Time),762277.1000000238,A,w,O,w,394,1,400.7000000476837,761876.3999999762,7087,WL,B,8.0
7,10.145999908447266,immed,49854.000091552734,Wed Mar 05 2025 11:05:29 GMT-0600 (Central Standard Time),762359.7000000477,A,wi,O,i,44,1,483.3000000715256,761876.3999999762,7087,WL,B,8.0
7,10.230000019073486,immed,49769.999980926514,Wed Mar 05 2025 11:05:29 GMT-0600 (Central Standard Time),762443.5,A,win,O,n,69,1,567.1000000238419,761876.3999999762,7087,WL,B,8.0
7,10.345999956130981,immed,49654.00004386902,Wed Mar 05 2025 11:05:29 GMT-0600 (Central Standard Time),762559.2999999523,A,wind,O,d,77,1,682.8999999761581,761876.3999999762,7087,WL,B,8.0
7,10.428999900817871,immed,49571.00009918213,Wed Mar 05 2025 11:05:29 GMT-0600 (Central Standard Time),762642.7999999523,A,windo,O,o,56,1,766.3999999761581,761876.3999999762,7087,WL,B,8.0
7,10.546000003814697,immed,49453.9999961853,Wed Mar 05 2025 11:05:29 GMT-0600 (Central Standard Time),762759.7000000477,A,window,O,w,99,1,883.3000000715256,761876.3999999762,7087,WL,B,8.0
7,10.779000043869019,immed,49220.99995613098,Wed Mar 05 2025 11:05:29 GMT-0600 (Central Standard Time),762992.2999999523,A,windowenter,O,enter,196,1,1115.8999999761581,761876.3999999762,7087,WL,B,8.0
7,11.062999963760376,immed,48937.000036239624,Wed Mar 05 2025 11:05:29 GMT-0600 (Central Standard Time),763276.7000000477,A,c,O,c,262,1,284.10000002384186,762992.6000000238,7087,WL,B,9.0
7,11.162999868392944,immed,48837.000131607056,Wed Mar 05 2025 11:05:29 GMT-0600 (Central Standard Time),763375.8999999762,A,ca,O,a,70,1,383.2999999523163,762992.6000000238,7087,WL,B,9.0
7,11.379999876022339,immed,48620.00012397766,Wed Mar 05 2025 11:05:29 GMT-0600 (Central Standard Time),763593.1000000238,A,cab,O,b,200,1,600.5,762992.6000000238,7087,WL,B,9.0
7,11.496000051498413,immed,48503.99994850159,Wed Mar 05 2025 11:05:29 GMT-0600 (Central Standard Time),763709.5,A,cabi,O,i,85,1,716.8999999761581,762992.6000000238,7087,WL,B,9.0
7,11.595999956130981,immed,48404.00004386902,Wed Mar 05 2025 11:05:29 GMT-0600 (Central Standard Time),763809.5,A,cabin,O,n,69,1,816.8999999761581,762992.6000000238,7087,WL,B,9.0
7,11.828999996185303,immed,48171.0000038147,Wed Mar 05 2025 11:05:29 GMT-0600 (Central Standard Time),764042.0,A,cabinenter,O,enter,199,1,1049.3999999761581,762992.6000000238,7087,WL,B,9.0
7,12.062999963760376,immed,47937.000036239624,Wed Mar 05 2025 11:05:29 GMT-0600 (Central Standard Time),764276.1000000238,A,l,O,l,220,1,233.89999997615814,764042.2000000477,7087,WL,B,10.0
7,12.19599986076355,immed,47804.00013923645,Wed Mar 05 2025 11:05:29 GMT-0600 (Central Standard Time),764409.2999999523,A,la,O,a,94,1,367.09999990463257,764042.2000000477,7087,WL,B,10.0
7,12.763000011444092,immed,47236.99998855591,Wed Mar 05 2025 11:05:29 GMT-0600 (Central Standard Time),764976.2999999523,A,lak,O,k,529,1,934.0999999046326,764042.2000000477,7087,WL,B,10.0
7,12.895999908447266,immed,47104.000091552734,Wed Mar 05 2025 11:05:29 GMT-0600 (Central Standard Time),765109.3999999762,A,lake,O,e,99,1,1067.1999999284744,764042.2000000477,7087,WL,B,10.0
7,14.67799997329712,immed,45322.00002670288,Wed Mar 05 2025 11:05:29 GMT-0600 (Central Standard Time),766891.1000000238,A,lakeenter,O,enter,1748,1,2848.899999976158,764042.2000000477,7087,WL,B,10.0
7,18.210000038146973,immed,41789.99996185303,Wed Mar 05 2025 11:05:29 GMT-0600 (Central Standard Time),770423.2000000477,A,g,O,g,3521,1,3531.9000000953674,766891.2999999523,7087,WL,B,11.0
7,18.39299988746643,immed,41607.00011253357,Wed Mar 05 2025 11:05:29 GMT-0600 (Central Standard Time),770606.7000000477,A,gr,O,r,173,1,3715.4000000953674,766891.2999999523,7087,WL,B,11.0
7,18.575999975204468,immed,41424.00002479553,Wed Mar 05 2025 11:05:29 GMT-0600 (Central Standard Time),770789.7000000477,A,gra,O,a,164,1,3898.4000000953674,766891.2999999523,7087,WL,B,11.0
7,18.74399995803833,immed,41256.00004196167,Wed Mar 05 2025 11:05:29 GMT-0600 (Central Standard Time),770957.2999999523,A,gras,O,s,152,1,4066.0,766891.2999999523,7087,WL,B,11.0
7,18.89299988746643,immed,41107.00011253357,Wed Mar 05 2025 11:05:29 GMT-0600 (Central Standard Time),771106.5,A,grass,O,s,117,1,4215.200000047684,766891.2999999523,7087,WL,B,11.0
7,19.276000022888184,immed,40723.99997711182,Wed Mar 05 2025 11:05:29 GMT-0600 (Central Standard Time),771489.6000000238,A,grassenter,O,enter,370,1,4598.300000071526,766891.2999999523,7087,WL,B,11.0
7,23.741999864578247,immed,36258.00013542175,Wed Mar 05 2025 11:05:29 GMT-0600 (Central Standard Time),775955.7999999523,A,p,O,p,4444,1,4466.0,771489.7999999523,7087,WL,B,12.0
7,23.924999952316284,immed,36075.000047683716,Wed Mar 05 2025 11:05:29 GMT-0600 (Central Standard Time),776138.3999999762,A,pu,O,u,155,1,4648.600000023842,771489.7999999523,7087,WL,B,12.0
7,24.05900001525879,immed,35940.99998474121,Wed Mar 05 2025 11:05:29 GMT-0600 (Central Standard Time),776272.1000000238,A,pup,O,p,115,1,4782.300000071526,771489.7999999523,7087,WL,B,12.0
7,24.29200005531311,immed,35707.99994468689,Wed Mar 05 2025 11:05:29 GMT-0600 (Central Standard Time),776504.8999999762,A,pupi,O,i,202,1,5015.100000023842,771489.7999999523,7087,WL,B,12.0
7,24.524999856948853,immed,35475.00014305115,Wed Mar 05 2025 11:05:29 GMT-0600 (Central Standard Time),776738.6000000238,A,pupil,O,l,206,1,5248.800000071526,771489.7999999523,7087,WL,B,12.0
7,24.907999992370605,immed,35092.000007629395,Wed Mar 05 2025 11:05:29 GMT-0600 (Central Standard Time),777121.1000000238,A,pupilenter,O,enter,356,1,5631.300000071526,771489.7999999523,7087,WL,B,12.0
7,42.019999980926514,immed,17980.000019073486,Wed Mar 05 2025 11:05:29 GMT-0600 (Central Standard Time),794232.1000000238,A,enter,O,enter,17100,1,17110.800000071526,777121.2999999523,7087,WL,B,13.0
7,42.169999837875366,immed,17830.000162124634,Wed Mar 05 2025 11:05:29 GMT-0600 (Central Standard Time),794382.1000000238,A,enter,O,enter,141,1,149.70000004768372,794232.3999999762,7087,WL,B,14.0
7,42.5699999332428,immed,17430.000066757202,Wed Mar 05 2025 11:05:29 GMT-0600 (Central Standard Time),794782.0,A,enter,O,enter,383,1,399.60000002384186,794382.3999999762,7087,WL,B,15.0
