acc_sum,block,block_c,change,condition,correct,correct_response,datetime,endtime,face,project,response,response_time,row_sel,session_number,start_end,starttime,subject_id,task,task_vers,trial
0,prac,1,,1-Back,,,Fri Apr 04 2025 13:49:55 GMT-0500 (Central Daylight Time),,005_o_f_d_a.png,O,space,4978,1,1,,,7098,VNB,B,0
1,prac,1,0.0,1-Back,1,m,Fri Apr 04 2025 13:49:55 GMT-0500 (Central Daylight Time),126719.60000000149,020_y_f_n_a.png,O,m,1183,2,1,2057.0,124662.60000000149,7098,VNB,B,1
2,prac,1,0.0,1-Back,1,m,Fri Apr 04 2025 13:49:55 GMT-0500 (Central Daylight Time),128835.60000000149,007_m_m_h_a.png,O,m,1222,3,1,2110.0,126725.60000000149,7098,VNB,B,2
3,prac,1,0.0,1-Back,1,m,Fri Apr 04 2025 13:49:55 GMT-0500 (Central Daylight Time),131035.19999999553,016_y_m_d_a.png,O,m,1300,4,1,2192.1999999955297,128843.0,7098,VNB,B,3
4,prac,1,0.0,1-Back,1,m,Fri Apr 04 2025 13:49:55 GMT-0500 (Central Daylight Time),133301.79999999702,005_o_f_n_a.png,O,m,1384,5,1,2260.10000000149,131041.69999999553,7098,VNB,B,4
5,prac,1,1.0,1-Back,1,z,Fri Apr 04 2025 13:49:55 GMT-0500 (Central Daylight Time),135300.29999999702,016_y_m_n_a.png,O,z,1099,6,1,1991.5,133308.79999999702,7098,VNB,B,5
6,prac,1,0.0,1-Back,1,m,Fri Apr 04 2025 13:49:55 GMT-0500 (Central Daylight Time),137282.8999999985,004_o_m_h_a.png,O,m,1108,7,1,1976.2999999970198,135306.6000000015,7098,VNB,B,6
7,prac,1,0.0,1-Back,1,m,Fri Apr 04 2025 13:49:55 GMT-0500 (Central Daylight Time),139165.79999999702,011_m_f_d_a.png,O,m,987,8,1,1877.5,137288.29999999702,7098,VNB,B,7
8,prac,1,1.0,1-Back,1,z,Fri Apr 04 2025 13:49:55 GMT-0500 (Central Daylight Time),141415.1000000015,020_y_f_d_a.png,O,z,1359,9,1,2242.0,139173.1000000015,7098,VNB,B,8
9,prac,1,0.0,1-Back,1,m,Fri Apr 04 2025 13:49:55 GMT-0500 (Central Daylight Time),143399.5,007_m_m_n_a.png,O,m,1076,10,1,1978.0,141421.5,7098,VNB,B,9
10,prac,1,0.0,1-Back,1,m,Fri Apr 04 2025 13:49:55 GMT-0500 (Central Daylight Time),145447.1000000015,005_o_f_h_a.png,O,m,1121,11,1,2040.5,143406.6000000015,7098,VNB,B,10
11,prac,1,0.0,1-Back,1,m,Fri Apr 04 2025 13:49:55 GMT-0500 (Central Daylight Time),147546.3999999985,016_y_m_d_a.png,O,m,1200,12,1,2091.89999999851,145454.5,7098,VNB,B,11
0,test,1,0.0,1-Back,,,Fri Apr 04 2025 13:49:55 GMT-0500 (Central Daylight Time),147546.3999999985,020_y_f_d_a.png,O,space,5006,1,1,2091.89999999851,145454.5,7098,VNB,B,0
1,test,1,0.0,1-Back,1,m,Fri Apr 04 2025 13:49:55 GMT-0500 (Central Daylight Time),162541.69999999553,011_m_f_n_a.png,O,m,1254,2,1,2278.0999999940395,160263.6000000015,7098,VNB,B,1
2,test,1,0.0,1-Back,1,m,Fri Apr 04 2025 13:49:55 GMT-0500 (Central Daylight Time),164441.19999999553,004_o_m_h_a.png,O,m,875,3,1,1895.5,162545.69999999553,7098,VNB,B,2
3,test,1,1.0,1-Back,1,z,Fri Apr 04 2025 13:49:55 GMT-0500 (Central Daylight Time),166340.3999999985,007_m_m_h_a.png,O,z,872,4,1,1894.8999999985099,164445.5,7098,VNB,B,3
4,test,1,0.0,1-Back,1,m,Fri Apr 04 2025 13:49:55 GMT-0500 (Central Daylight Time),168373.19999999553,005_o_f_n_a.png,O,m,1013,5,1,2028.6999999955297,166344.5,7098,VNB,B,4
5,test,1,0.0,1-Back,1,m,Fri Apr 04 2025 13:49:55 GMT-0500 (Central Daylight Time),170589.1000000015,016_y_m_d_a.png,O,m,1196,6,1,2212.2000000029802,168376.8999999985,7098,VNB,B,5
6,test,1,1.0,1-Back,1,z,Fri Apr 04 2025 13:49:55 GMT-0500 (Central Daylight Time),172705.29999999702,011_m_f_d_a.png,O,z,1092,7,1,2111.6999999955297,170593.6000000015,7098,VNB,B,6
7,test,1,0.0,1-Back,1,m,Fri Apr 04 2025 13:49:55 GMT-0500 (Central Daylight Time),174921.1000000015,020_y_f_h_a.png,O,m,1192,8,1,2211.5,172709.6000000015,7098,VNB,B,7
8,test,1,0.0,1-Back,1,m,Fri Apr 04 2025 13:49:55 GMT-0500 (Central Daylight Time),177253.69999999553,004_o_m_n_a.png,O,m,1305,9,1,2329.0,174924.69999999553,7098,VNB,B,8
9,test,1,0.0,1-Back,1,m,Fri Apr 04 2025 13:49:55 GMT-0500 (Central Daylight Time),179369.69999999553,016_y_m_h_a.png,O,m,1084,10,1,2111.6999999955297,177258.0,7098,VNB,B,9
10,test,1,0.0,1-Back,1,m,Fri Apr 04 2025 13:49:55 GMT-0500 (Central Daylight Time),181902.3999999985,004_o_m_d_a.png,O,m,1511,11,1,2529.39999999851,179373.0,7098,VNB,B,10
11,test,1,1.0,1-Back,1,z,Fri Apr 04 2025 13:49:55 GMT-0500 (Central Daylight Time),184001.5,005_o_f_d_a.png,O,z,1075,12,1,2094.8000000044703,181906.69999999553,7098,VNB,B,11
12,test,1,0.0,1-Back,1,m,Fri Apr 04 2025 13:49:55 GMT-0500 (Central Daylight Time),186317.6000000015,007_m_m_n_a.png,O,m,1287,13,1,2312.10000000149,184005.5,7098,VNB,B,12
12,test,1,1.0,1-Back,0,z,Fri Apr 04 2025 13:49:55 GMT-0500 (Central Daylight Time),189350.19999999553,020_y_f_n_a.png,O,None,2016,14,1,3029.1999999955297,186321.0,7098,VNB,B,13
13,test,1,0.0,1-Back,1,m,Fri Apr 04 2025 13:49:55 GMT-0500 (Central Daylight Time),191366.19999999553,011_m_f_h_a.png,O,m,859,15,1,2011.6999999955297,189354.5,7098,VNB,B,14
14,test,1,0.0,1-Back,1,m,Fri Apr 04 2025 13:49:55 GMT-0500 (Central Daylight Time),193215.29999999702,007_m_m_d_a.png,O,m,826,16,1,1845.1000000014901,191370.19999999553,7098,VNB,B,15
15,test,1,0.0,1-Back,1,m,Fri Apr 04 2025 13:49:55 GMT-0500 (Central Daylight Time),195314.79999999702,016_y_m_n_a.png,O,m,1067,17,1,2094.2999999970198,193220.5,7098,VNB,B,16
16,test,1,0.0,1-Back,1,m,Fri Apr 04 2025 13:49:55 GMT-0500 (Central Daylight Time),197464.1000000015,005_o_f_h_a.png,O,m,1126,18,1,2144.8000000044703,195319.29999999702,7098,VNB,B,17
0,test,2,0.0,1-Back,,,Fri Apr 04 2025 13:49:55 GMT-0500 (Central Daylight Time),197464.1000000015,016_y_m_n_a.png,O,space,1889,1,1,2144.8000000044703,195319.29999999702,7098,VNB,B,0
1,test,2,0.0,1-Back,1,m,Fri Apr 04 2025 13:49:55 GMT-0500 (Central Daylight Time),203378.79999999702,020_y_f_h_a.png,O,m,972,2,1,1995.6000000014901,201383.19999999553,7098,VNB,B,1
2,test,2,1.0,1-Back,1,m,Fri Apr 04 2025 13:49:55 GMT-0500 (Central Daylight Time),205428.3999999985,004_o_m_n_a.png,O,m,1030,3,1,2046.1000000014901,203382.29999999702,7098,VNB,B,2
3,test,2,0.0,1-Back,1,m,Fri Apr 04 2025 13:49:55 GMT-0500 (Central Daylight Time),207877.3999999985,011_m_f_d_a.png,O,m,1429,4,1,2444.89999999851,205432.5,7098,VNB,B,3
4,test,2,0.0,1-Back,1,z,Fri Apr 04 2025 13:49:55 GMT-0500 (Central Daylight Time),209926.8999999985,007_m_m_d_a.png,O,z,1020,5,1,2046.1000000014901,207880.79999999702,7098,VNB,B,4
5,test,2,0.0,1-Back,1,m,Fri Apr 04 2025 13:49:55 GMT-0500 (Central Daylight Time),211926.19999999553,016_y_m_h_a.png,O,m,978,6,1,1995.1999999955297,209931.0,7098,VNB,B,5
6,test,2,1.0,1-Back,1,z,Fri Apr 04 2025 13:49:55 GMT-0500 (Central Daylight Time),214088.19999999553,005_o_f_h_a.png,O,z,1127,7,1,2158.5,211929.69999999553,7098,VNB,B,6
7,test,2,0.0,1-Back,1,m,Fri Apr 04 2025 13:49:55 GMT-0500 (Central Daylight Time),216191.5,011_m_f_n_a.png,O,m,1077,8,1,2098.5,214093.0,7098,VNB,B,7
8,test,2,0.0,1-Back,1,m,Fri Apr 04 2025 13:49:55 GMT-0500 (Central Daylight Time),218507.1000000015,020_y_f_d_a.png,O,m,1299,9,1,2311.2000000029802,216195.8999999985,7098,VNB,B,8
9,test,2,0.0,1-Back,1,m,Fri Apr 04 2025 13:49:55 GMT-0500 (Central Daylight Time),220606.6000000015,007_m_m_n_a.png,O,m,1070,10,1,2095.0,218511.6000000015,7098,VNB,B,9
10,test,2,1.0,1-Back,1,m,Fri Apr 04 2025 13:49:55 GMT-0500 (Central Daylight Time),223306.1000000015,011_m_f_h_a.png,O,m,1674,11,1,2695.8000000044703,220610.29999999702,7098,VNB,B,10
11,test,2,0.0,1-Back,1,z,Fri Apr 04 2025 13:49:55 GMT-0500 (Central Daylight Time),225155.29999999702,004_o_m_h_a.png,O,z,823,12,1,1845.1000000014901,223310.19999999553,7098,VNB,B,11
12,test,2,0.0,1-Back,1,m,Fri Apr 04 2025 13:49:55 GMT-0500 (Central Daylight Time),227154.6000000015,016_y_m_d_a.png,O,m,974,13,1,1994.6000000014901,225160.0,7098,VNB,B,12
12,test,2,0.0,1-Back,0,m,Fri Apr 04 2025 13:49:55 GMT-0500 (Central Daylight Time),230187.19999999553,005_o_f_n_a.png,O,None,2015,14,1,3028.39999999851,227158.79999999702,7098,VNB,B,13
13,test,2,0.0,1-Back,1,z,Fri Apr 04 2025 13:49:55 GMT-0500 (Central Daylight Time),232753.1000000015,020_y_f_n_a.png,O,z,1534,15,1,2561.0,230192.1000000015,7098,VNB,B,14
14,test,2,1.0,1-Back,1,m,Fri Apr 04 2025 13:49:55 GMT-0500 (Central Daylight Time),234968.8999999985,007_m_m_h_a.png,O,m,1192,16,1,2211.39999999851,232757.5,7098,VNB,B,15
15,test,2,0.0,1-Back,1,m,Fri Apr 04 2025 13:49:55 GMT-0500 (Central Daylight Time),237118.19999999553,005_o_f_d_a.png,O,m,1120,17,1,2144.89999999851,234973.29999999702,7098,VNB,B,16
16,test,2,1.0,1-Back,1,z,Fri Apr 04 2025 13:49:55 GMT-0500 (Central Daylight Time),239067.79999999702,004_o_m_d_a.png,O,z,923,18,1,1944.7999999970198,237123.0,7098,VNB,B,17
0,test,3,1.0,1-Back,,,Fri Apr 04 2025 13:49:55 GMT-0500 (Central Daylight Time),239067.79999999702,005_o_f_h_a.png,O,space,2013,1,1,1944.7999999970198,237123.0,7098,VNB,B,0
1,test,3,0.0,1-Back,1,m,Fri Apr 04 2025 13:49:55 GMT-0500 (Central Daylight Time),244965.69999999553,011_m_f_d_a.png,O,m,721,2,1,1762.5999999940395,243203.1000000015,7098,VNB,B,1
2,test,3,1.0,1-Back,1,m,Fri Apr 04 2025 13:49:55 GMT-0500 (Central Daylight Time),247666.1000000015,007_m_m_n_a.png,O,m,1667,3,1,2697.0,244969.1000000015,7098,VNB,B,2
3,test,3,0.0,1-Back,1,z,Fri Apr 04 2025 13:49:55 GMT-0500 (Central Daylight Time),249498.8999999985,005_o_f_n_a.png,O,z,808,4,1,1828.7999999970198,247670.1000000015,7098,VNB,B,3
4,test,3,1.0,1-Back,1,m,Fri Apr 04 2025 13:49:55 GMT-0500 (Central Daylight Time),251413.8999999985,004_o_m_d_a.png,O,m,895,5,1,1910.7000000029802,249503.19999999553,7098,VNB,B,4
5,test,3,0.0,1-Back,1,m,Fri Apr 04 2025 13:49:55 GMT-0500 (Central Daylight Time),253296.5,020_y_f_h_a.png,O,m,859,6,1,1878.3000000044703,251418.19999999553,7098,VNB,B,5
6,test,3,0.0,1-Back,1,z,Fri Apr 04 2025 13:49:55 GMT-0500 (Central Daylight Time),254996.0,016_y_m_h_a.png,O,z,673,7,1,1694.8999999985099,253301.1000000015,7098,VNB,B,6
7,test,3,0.0,1-Back,1,m,Fri Apr 04 2025 13:49:55 GMT-0500 (Central Daylight Time),257378.6000000015,011_m_f_n_a.png,O,m,1349,8,1,2378.9000000059605,254999.69999999553,7098,VNB,B,7
8,test,3,0.0,1-Back,1,m,Fri Apr 04 2025 13:49:55 GMT-0500 (Central Daylight Time),259144.5,020_y_f_d_a.png,O,m,734,9,1,1761.8000000044703,257382.69999999553,7098,VNB,B,8
9,test,3,1.0,1-Back,1,m,Fri Apr 04 2025 13:49:55 GMT-0500 (Central Daylight Time),261205.19999999553,004_o_m_n_a.png,O,m,897,10,1,2056.0999999940395,259149.1000000015,7098,VNB,B,9
10,test,3,0.0,1-Back,1,m,Fri Apr 04 2025 13:49:55 GMT-0500 (Central Daylight Time),262994.6000000015,007_m_m_h_a.png,O,m,758,11,1,1784.5,261210.1000000015,7098,VNB,B,10
11,test,3,0.0,1-Back,1,z,Fri Apr 04 2025 13:49:55 GMT-0500 (Central Daylight Time),264759.6000000015,011_m_f_h_a.png,O,z,736,12,1,1760.4000000059605,262999.19999999553,7098,VNB,B,11
12,test,3,1.0,1-Back,1,m,Fri Apr 04 2025 13:49:55 GMT-0500 (Central Daylight Time),266592.299999997,005_o_f_d_a.png,O,m,801,13,1,1829.0,264763.299999997,7098,VNB,B,12
12,test,3,0.0,1-Back,0,z,Fri Apr 04 2025 13:49:55 GMT-0500 (Central Daylight Time),269391.299999997,007_m_m_d_a.png,O,m,1769,14,1,2795.0,266596.299999997,7098,VNB,B,13
13,test,3,0.0,1-Back,1,m,Fri Apr 04 2025 13:49:55 GMT-0500 (Central Daylight Time),271790.69999999553,016_y_m_n_a.png,O,m,1377,15,1,2395.5,269395.19999999553,7098,VNB,B,14
14,test,3,1.0,1-Back,1,m,Fri Apr 04 2025 13:49:55 GMT-0500 (Central Daylight Time),273806.8999999985,004_o_m_h_a.png,O,m,995,16,1,2011.7999999970198,271795.1000000015,7098,VNB,B,15
15,test,3,0.0,1-Back,1,m,Fri Apr 04 2025 13:49:55 GMT-0500 (Central Daylight Time),275789.3999999985,016_y_m_d_a.png,O,m,963,17,1,1979.1000000014901,273810.299999997,7098,VNB,B,16
16,test,3,1.0,1-Back,1,m,Fri Apr 04 2025 13:49:55 GMT-0500 (Central Daylight Time),278155.5,020_y_f_n_a.png,O,m,1341,18,1,2361.89999999851,275793.6000000015,7098,VNB,B,17
0,test,4,1.0,1-Back,,,Fri Apr 04 2025 13:49:55 GMT-0500 (Central Daylight Time),278155.5,007_m_m_d_a.png,O,space,2094,1,1,2361.89999999851,275793.6000000015,7098,VNB,B,0
1,test,4,0.0,1-Back,1,z,Fri Apr 04 2025 13:49:55 GMT-0500 (Central Daylight Time),284136.8999999985,004_o_m_d_a.png,O,z,834,2,1,1861.3999999985099,282275.5,7098,VNB,B,1
2,test,4,0.0,1-Back,1,m,Fri Apr 04 2025 13:49:55 GMT-0500 (Central Daylight Time),285803.0,016_y_m_h_a.png,O,m,648,3,1,1662.5,284140.5,7098,VNB,B,2
3,test,4,0.0,1-Back,1,m,Fri Apr 04 2025 13:49:55 GMT-0500 (Central Daylight Time),288385.5,011_m_f_n_a.png,O,m,1550,4,1,2579.3000000044703,285806.19999999553,7098,VNB,B,3
4,test,4,1.0,1-Back,1,m,Fri Apr 04 2025 13:49:55 GMT-0500 (Central Daylight Time),290185.299999997,005_o_f_h_a.png,O,m,776,5,1,1795.8999999985099,288389.3999999985,7098,VNB,B,4
5,test,4,0.0,1-Back,1,m,Fri Apr 04 2025 13:49:55 GMT-0500 (Central Daylight Time),292068.8999999985,007_m_m_n_a.png,O,m,856,6,1,1879.5,290189.3999999985,7098,VNB,B,5
6,test,4,0.0,1-Back,1,m,Fri Apr 04 2025 13:49:55 GMT-0500 (Central Daylight Time),294283.69999999553,016_y_m_d_a.png,O,m,1197,7,1,2211.2999999970198,292072.3999999985,7098,VNB,B,6
7,test,4,1.0,1-Back,1,z,Fri Apr 04 2025 13:49:55 GMT-0500 (Central Daylight Time),296233.299999997,020_y_f_d_a.png,O,z,925,8,1,1945.7999999970198,294287.5,7098,VNB,B,7
8,test,4,0.0,1-Back,1,m,Fri Apr 04 2025 13:49:55 GMT-0500 (Central Daylight Time),298082.6000000015,011_m_f_h_a.png,O,m,832,9,1,1845.2000000029802,296237.3999999985,7098,VNB,B,8
9,test,4,0.0,1-Back,1,z,Fri Apr 04 2025 13:49:55 GMT-0500 (Central Daylight Time),299765.3999999985,004_o_m_h_a.png,O,z,663,10,1,1678.3999999985099,298087.0,7098,VNB,B,9
10,test,4,1.0,1-Back,1,m,Fri Apr 04 2025 13:49:55 GMT-0500 (Central Daylight Time),301532.299999997,005_o_f_n_a.png,O,m,747,11,1,1760.8999999985099,299771.3999999985,7098,VNB,B,10
10,test,4,0.0,1-Back,0,m,Fri Apr 04 2025 13:49:55 GMT-0500 (Central Daylight Time),303497.3999999985,011_m_f_d_a.png,O,z,934,12,1,1961.1000000014901,301536.299999997,7098,VNB,B,11
10,test,4,0.0,1-Back,0,m,Fri Apr 04 2025 13:49:55 GMT-0500 (Central Daylight Time),305613.19999999553,020_y_f_n_a.png,O,z,1096,13,1,2111.7999999970198,303501.3999999985,7098,VNB,B,12
11,test,4,0.0,1-Back,1,m,Fri Apr 04 2025 13:49:55 GMT-0500 (Central Daylight Time),307596.299999997,005_o_f_d_a.png,O,m,964,14,1,1979.6999999955297,305616.6000000015,7098,VNB,B,13
12,test,4,0.0,1-Back,1,m,Fri Apr 04 2025 13:49:55 GMT-0500 (Central Daylight Time),309545.5,020_y_f_h_a.png,O,m,925,15,1,1945.3999999985099,307600.1000000015,7098,VNB,B,14
13,test,4,1.0,1-Back,1,z,Fri Apr 04 2025 13:49:55 GMT-0500 (Central Daylight Time),311245.0,007_m_m_h_a.png,O,z,680,16,1,1695.2000000029802,309549.799999997,7098,VNB,B,15
14,test,4,0.0,1-Back,1,m,Fri Apr 04 2025 13:49:55 GMT-0500 (Central Daylight Time),313227.799999997,004_o_m_n_a.png,O,m,956,17,1,1979.5,311248.299999997,7098,VNB,B,16
15,test,4,1.0,1-Back,1,z,Fri Apr 04 2025 13:49:55 GMT-0500 (Central Daylight Time),315160.6000000015,016_y_m_n_a.png,O,z,909,18,1,1928.4000000059605,313232.19999999553,7098,VNB,B,17
0,test,5,1.0,1-Back,,,Fri Apr 04 2025 13:49:55 GMT-0500 (Central Daylight Time),315160.6000000015,004_o_m_n_a.png,O,space,2504,1,1,1928.4000000059605,313232.19999999553,7098,VNB,B,0
1,test,5,1.0,1-Back,1,m,Fri Apr 04 2025 13:49:55 GMT-0500 (Central Daylight Time),321441.799999997,005_o_f_h_a.png,O,m,725,2,1,1744.8999999985099,319696.8999999985,7098,VNB,B,1
2,test,5,0.0,1-Back,1,m,Fri Apr 04 2025 13:49:55 GMT-0500 (Central Daylight Time),323291.299999997,016_y_m_d_a.png,O,m,823,3,1,1846.1000000014901,321445.19999999553,7098,VNB,B,2
3,test,5,0.0,1-Back,1,z,Fri Apr 04 2025 13:49:55 GMT-0500 (Central Daylight Time),325257.299999997,004_o_m_d_a.png,O,z,942,4,1,1962.0,323295.299999997,7098,VNB,B,3
4,test,5,0.0,1-Back,1,m,Fri Apr 04 2025 13:49:55 GMT-0500 (Central Daylight Time),326890.1000000015,011_m_f_h_a.png,O,m,608,5,1,1628.3000000044703,325261.799999997,7098,VNB,B,4
5,test,5,0.0,1-Back,1,m,Fri Apr 04 2025 13:49:55 GMT-0500 (Central Daylight Time),328972.8999999985,020_y_f_n_a.png,O,m,1055,6,1,2078.7000000029802,326894.19999999553,7098,VNB,B,5
6,test,5,1.0,1-Back,1,z,Fri Apr 04 2025 13:49:55 GMT-0500 (Central Daylight Time),330738.799999997,005_o_f_n_a.png,O,z,748,7,1,1762.5,328976.299999997,7098,VNB,B,6
6,test,5,0.0,1-Back,0,m,Fri Apr 04 2025 13:49:55 GMT-0500 (Central Daylight Time),333421.5,011_m_f_d_a.png,O,z,1593,8,1,2679.10000000149,330742.3999999985,7098,VNB,B,7
7,test,5,0.0,1-Back,1,m,Fri Apr 04 2025 13:49:55 GMT-0500 (Central Daylight Time),335170.799999997,016_y_m_h_a.png,O,m,724,9,1,1746.0,333424.799999997,7098,VNB,B,8
8,test,5,0.0,1-Back,1,m,Fri Apr 04 2025 13:49:55 GMT-0500 (Central Daylight Time),336786.8999999985,020_y_f_d_a.png,O,m,590,10,1,1612.7999999970198,335174.1000000015,7098,VNB,B,9
9,test,5,0.0,1-Back,1,m,Fri Apr 04 2025 13:49:55 GMT-0500 (Central Daylight Time),338569.799999997,007_m_m_n_a.png,O,m,758,11,1,1779.2999999970198,336790.5,7098,VNB,B,10
10,test,5,1.0,1-Back,1,z,Fri Apr 04 2025 13:49:55 GMT-0500 (Central Daylight Time),340436.1000000015,011_m_f_n_a.png,O,z,847,12,1,1862.8000000044703,338573.299999997,7098,VNB,B,11
11,test,5,0.0,1-Back,1,m,Fri Apr 04 2025 13:49:55 GMT-0500 (Central Daylight Time),342285.3999999985,004_o_m_h_a.png,O,m,830,13,1,1845.2999999970198,340440.1000000015,7098,VNB,B,12
12,test,5,0.0,1-Back,1,z,Fri Apr 04 2025 13:49:55 GMT-0500 (Central Daylight Time),344384.6000000015,007_m_m_h_a.png,O,z,1068,14,1,2095.2000000029802,342289.3999999985,7098,VNB,B,13
13,test,5,1.0,1-Back,1,m,Fri Apr 04 2025 13:49:55 GMT-0500 (Central Daylight Time),346284.1000000015,005_o_f_d_a.png,O,m,873,15,1,1896.6000000014901,344387.5,7098,VNB,B,14
14,test,5,0.0,1-Back,1,m,Fri Apr 04 2025 13:49:55 GMT-0500 (Central Daylight Time),348283.3999999985,016_y_m_n_a.png,O,m,973,16,1,1995.5,346287.8999999985,7098,VNB,B,15
15,test,5,0.0,1-Back,1,m,Fri Apr 04 2025 13:49:55 GMT-0500 (Central Daylight Time),350049.69999999553,020_y_f_h_a.png,O,m,742,17,1,1763.1999999955297,348286.5,7098,VNB,B,16
16,test,5,0.0,1-Back,1,m,Fri Apr 04 2025 13:49:55 GMT-0500 (Central Daylight Time),352348.799999997,007_m_m_d_a.png,O,m,1272,18,1,2294.89999999851,350053.8999999985,7098,VNB,B,17
0,prac,1,0.0,2-Back,,,Fri Apr 04 2025 13:49:55 GMT-0500 (Central Daylight Time),352348.799999997,011_m_f_n_a.png,O,space,5086,1,1,2294.89999999851,350053.8999999985,7098,VNB,B,0
0,prac,1,0.0,2-Back,,,Fri Apr 04 2025 13:49:55 GMT-0500 (Central Daylight Time),352348.799999997,005_o_f_h_a.png,O,space,5086,2,1,2294.89999999851,350053.8999999985,7098,VNB,B,0
1,prac,1,0.0,2-Back,1,m,Fri Apr 04 2025 13:49:55 GMT-0500 (Central Daylight Time),467996.19999999553,004_o_m_d_a.png,O,m,1081,3,1,1942.8999999985099,466053.299999997,7098,VNB,B,1
2,prac,1,1.0,2-Back,1,z,Fri Apr 04 2025 13:49:55 GMT-0500 (Central Daylight Time),470279.69999999553,007_m_m_h_a.png,O,z,1400,4,1,2277.2999999970198,468002.3999999985,7098,VNB,B,2
3,prac,1,0.0,2-Back,1,m,Fri Apr 04 2025 13:49:55 GMT-0500 (Central Daylight Time),472277.799999997,020_y_f_n_a.png,O,m,1121,5,1,1991.6999999955297,470286.1000000015,7098,VNB,B,3
3,prac,1,1.0,2-Back,0,z,Fri Apr 04 2025 13:49:55 GMT-0500 (Central Daylight Time),475110.3999999985,004_o_m_h_a.png,O,m,1964,6,1,2827.89999999851,472282.5,7098,VNB,B,4
4,prac,1,1.0,2-Back,1,z,Fri Apr 04 2025 13:49:55 GMT-0500 (Central Daylight Time),477226.5,016_y_m_n_a.png,O,z,1219,7,1,2109.2000000029802,475117.299999997,7098,VNB,B,5
5,prac,1,0.0,2-Back,1,m,Fri Apr 04 2025 13:49:55 GMT-0500 (Central Daylight Time),479809.19999999553,011_m_f_d_a.png,O,m,1688,8,1,2577.0999999940395,477232.1000000015,7098,VNB,B,6
5,prac,1,0.0,2-Back,0,m,Fri Apr 04 2025 13:49:55 GMT-0500 (Central Daylight Time),482708.1000000015,005_o_f_d_a.png,O,None,2010,9,1,2892.4000000059605,479815.69999999553,7098,VNB,B,7
5,prac,1,0.0,2-Back,0,m,Fri Apr 04 2025 13:49:55 GMT-0500 (Central Daylight Time),485040.6000000015,007_m_m_h_a.png,O,z,1559,10,1,2325.9000000059605,482714.69999999553,7098,VNB,B,8
5,prac,1,1.0,2-Back,0,z,Fri Apr 04 2025 13:49:55 GMT-0500 (Central Daylight Time),487923.1000000015,020_y_f_d_a.png,O,None,2011,11,1,2877.5,485045.6000000015,7098,VNB,B,9
5,prac,1,0.0,2-Back,0,m,Fri Apr 04 2025 13:49:55 GMT-0500 (Central Daylight Time),489956.1000000015,004_o_m_n_a.png,O,z,1163,12,1,2027.1000000014901,487929.0,7098,VNB,B,10
0,prac,2,0.0,2-Back,,,Fri Apr 04 2025 13:49:55 GMT-0500 (Central Daylight Time),489956.1000000015,011_m_f_n_a.png,O,a,5362,1,1,2027.1000000014901,487929.0,7098,VNB,B,0
0,prac,2,0.0,2-Back,,,Fri Apr 04 2025 13:49:55 GMT-0500 (Central Daylight Time),489956.1000000015,005_o_f_h_a.png,O,a,5362,2,1,2027.1000000014901,487929.0,7098,VNB,B,0
1,prac,2,0.0,2-Back,1,m,Fri Apr 04 2025 13:49:55 GMT-0500 (Central Daylight Time),502501.8999999985,004_o_m_d_a.png,O,m,1048,3,1,1910.2000000029802,500591.69999999553,7098,VNB,B,1
1,prac,2,1.0,2-Back,0,z,Fri Apr 04 2025 13:49:55 GMT-0500 (Central Daylight Time),505284.299999997,007_m_m_h_a.png,O,None,2011,4,1,2777.39999999851,502506.8999999985,7098,VNB,B,2
1,prac,2,0.0,2-Back,0,m,Fri Apr 04 2025 13:49:55 GMT-0500 (Central Daylight Time),508150.299999997,020_y_f_n_a.png,O,z,1988,5,1,2859.89999999851,505290.3999999985,7098,VNB,B,3
2,prac,2,1.0,2-Back,1,z,Fri Apr 04 2025 13:49:55 GMT-0500 (Central Daylight Time),509633.1000000015,004_o_m_h_a.png,O,z,603,6,1,1476.7000000029802,508156.3999999985,7098,VNB,B,4
3,prac,2,1.0,2-Back,1,z,Fri Apr 04 2025 13:49:55 GMT-0500 (Central Daylight Time),511315.69999999553,016_y_m_n_a.png,O,z,780,7,1,1677.1999999955297,509638.5,7098,VNB,B,5
4,prac,2,0.0,2-Back,1,m,Fri Apr 04 2025 13:49:55 GMT-0500 (Central Daylight Time),512948.799999997,011_m_f_d_a.png,O,m,735,8,1,1626.5,511322.299999997,7098,VNB,B,6
4,prac,2,0.0,2-Back,0,m,Fri Apr 04 2025 13:49:55 GMT-0500 (Central Daylight Time),515481.1000000015,005_o_f_d_a.png,O,z,1637,9,1,2525.9000000059605,512955.19999999553,7098,VNB,B,7
5,prac,2,0.0,2-Back,1,m,Fri Apr 04 2025 13:49:55 GMT-0500 (Central Daylight Time),518030.299999997,007_m_m_h_a.png,O,m,1763,10,1,2543.7999999970198,515486.5,7098,VNB,B,8
6,prac,2,1.0,2-Back,1,z,Fri Apr 04 2025 13:49:55 GMT-0500 (Central Daylight Time),520229.3999999985,020_y_f_d_a.png,O,z,1311,11,1,2192.7999999970198,518036.6000000015,7098,VNB,B,9
7,prac,2,0.0,2-Back,1,m,Fri Apr 04 2025 13:49:55 GMT-0500 (Central Daylight Time),522428.8999999985,004_o_m_n_a.png,O,m,1318,12,1,2193.7999999970198,520235.1000000015,7098,VNB,B,10
0,test,1,0.0,2-Back,,,Fri Apr 04 2025 13:49:55 GMT-0500 (Central Daylight Time),522428.8999999985,016_y_m_h_a.png,O,space,4684,1,1,2193.7999999970198,520235.1000000015,7098,VNB,B,0
0,test,1,0.0,2-Back,,,Fri Apr 04 2025 13:49:55 GMT-0500 (Central Daylight Time),522428.8999999985,005_o_f_n_a.png,O,space,4684,2,1,2193.7999999970198,520235.1000000015,7098,VNB,B,0
1,test,1,0.0,2-Back,1,z,Fri Apr 04 2025 13:49:55 GMT-0500 (Central Daylight Time),543222.6000000015,004_o_m_h_a.png,O,z,928,3,1,1946.3000000044703,541276.299999997,7098,VNB,B,1
1,test,1,0.0,2-Back,0,m,Fri Apr 04 2025 13:49:55 GMT-0500 (Central Daylight Time),545871.3999999985,011_m_f_d_a.png,O,z,1619,4,1,2645.0,543226.3999999985,7098,VNB,B,2
2,test,1,1.0,2-Back,1,m,Fri Apr 04 2025 13:49:55 GMT-0500 (Central Daylight Time),548354.3999999985,016_y_m_n_a.png,O,m,1450,5,1,2479.7000000029802,545874.6999999955,7098,VNB,B,3
2,test,1,0.0,2-Back,0,z,Fri Apr 04 2025 13:49:55 GMT-0500 (Central Daylight Time),551386.5,020_y_f_d_a.png,O,None,2015,6,1,3027.89999999851,548358.6000000015,7098,VNB,B,4
2,test,1,0.0,2-Back,0,m,Fri Apr 04 2025 13:49:55 GMT-0500 (Central Daylight Time),554418.6999999955,007_m_m_h_a.png,O,None,2016,7,1,3028.0999999940395,551390.6000000015,7098,VNB,B,5
3,test,1,1.0,2-Back,1,m,Fri Apr 04 2025 13:49:55 GMT-0500 (Central Daylight Time),556201.5,020_y_f_n_a.png,O,m,758,8,1,1778.8999999985099,554422.6000000015,7098,VNB,B,6
4,test,1,0.0,2-Back,1,z,Fri Apr 04 2025 13:49:55 GMT-0500 (Central Daylight Time),558317.6000000015,005_o_f_h_a.png,O,z,1096,9,1,2112.3000000044703,556205.299999997,7098,VNB,B,7
4,test,1,0.0,2-Back,0,m,Fri Apr 04 2025 13:49:55 GMT-0500 (Central Daylight Time),560483.299999997,004_o_m_d_a.png,O,z,1148,10,1,2162.1999999955297,558321.1000000015,7098,VNB,B,8
5,test,1,1.0,2-Back,1,m,Fri Apr 04 2025 13:49:55 GMT-0500 (Central Daylight Time),562382.8999999985,007_m_m_d_a.png,O,m,869,11,1,1896.3999999985099,560486.5,7098,VNB,B,9
5,test,1,0.0,2-Back,0,m,Fri Apr 04 2025 13:49:55 GMT-0500 (Central Daylight Time),565415.6000000015,011_m_f_n_a.png,O,None,2016,12,1,3028.9000000059605,562386.6999999955,7098,VNB,B,10
5,test,1,0.0,2-Back,0,m,Fri Apr 04 2025 13:49:55 GMT-0500 (Central Daylight Time),568447.799999997,020_y_f_h_a.png,O,None,2016,13,1,3028.2999999970198,565419.5,7098,VNB,B,11
5,test,1,0.0,2-Back,0,z,Fri Apr 04 2025 13:49:55 GMT-0500 (Central Daylight Time),571480.1000000015,007_m_m_n_a.png,O,None,2016,14,1,3028.0,568452.1000000015,7098,VNB,B,12
6,test,1,0.0,2-Back,1,m,Fri Apr 04 2025 13:49:55 GMT-0500 (Central Daylight Time),573213.1000000015,016_y_m_d_a.png,O,m,705,15,1,1730.0,571483.1000000015,7098,VNB,B,13
7,test,1,1.0,2-Back,1,m,Fri Apr 04 2025 13:49:55 GMT-0500 (Central Daylight Time),575895.5,011_m_f_h_a.png,O,m,1660,16,1,2678.89999999851,573216.6000000015,7098,VNB,B,14
8,test,1,0.0,2-Back,1,z,Fri Apr 04 2025 13:49:55 GMT-0500 (Central Daylight Time),578528.1000000015,005_o_f_d_a.png,O,z,1602,17,1,2628.4000000059605,575899.6999999955,7098,VNB,B,15
9,test,1,0.0,2-Back,1,m,Fri Apr 04 2025 13:49:55 GMT-0500 (Central Daylight Time),581327.299999997,004_o_m_n_a.png,O,m,1769,18,1,2795.60000000149,578531.6999999955,7098,VNB,B,16
0,test,2,0.0,2-Back,,,Fri Apr 04 2025 13:49:55 GMT-0500 (Central Daylight Time),581327.299999997,007_m_m_h_a.png,O,space,2154,1,1,2795.60000000149,578531.6999999955,7098,VNB,B,0
0,test,2,0.0,2-Back,,,Fri Apr 04 2025 13:49:55 GMT-0500 (Central Daylight Time),581327.299999997,020_y_f_n_a.png,O,space,2154,2,1,2795.60000000149,578531.6999999955,7098,VNB,B,0
1,test,2,1.0,2-Back,1,z,Fri Apr 04 2025 13:49:55 GMT-0500 (Central Daylight Time),591007.299999997,005_o_f_h_a.png,O,z,1244,3,1,2261.6999999955297,588745.6000000015,7098,VNB,B,1
2,test,2,0.0,2-Back,1,m,Fri Apr 04 2025 13:49:55 GMT-0500 (Central Daylight Time),593206.6999999955,004_o_m_d_a.png,O,m,1178,4,1,2196.0999999940395,591010.6000000015,7098,VNB,B,2
3,test,2,0.0,2-Back,1,m,Fri Apr 04 2025 13:49:55 GMT-0500 (Central Daylight Time),595706.0,011_m_f_d_a.png,O,m,1467,5,1,2495.39999999851,593210.6000000015,7098,VNB,B,3
4,test,2,0.0,2-Back,1,m,Fri Apr 04 2025 13:49:55 GMT-0500 (Central Daylight Time),598055.1000000015,016_y_m_h_a.png,O,m,1327,6,1,2345.60000000149,595709.5,7098,VNB,B,4
5,test,2,0.0,2-Back,1,m,Fri Apr 04 2025 13:49:55 GMT-0500 (Central Daylight Time),600871.0,005_o_f_n_a.png,O,m,1786,7,1,2812.0,598059.0,7098,VNB,B,5
6,test,2,1.0,2-Back,1,z,Fri Apr 04 2025 13:49:55 GMT-0500 (Central Daylight Time),603053.6000000015,004_o_m_h_a.png,O,z,1154,8,1,2177.9000000059605,600875.6999999955,7098,VNB,B,6
7,test,2,0.0,2-Back,1,m,Fri Apr 04 2025 13:49:55 GMT-0500 (Central Daylight Time),605586.1000000015,020_y_f_d_a.png,O,m,1507,9,1,2529.2000000029802,603056.8999999985,7098,VNB,B,7
7,test,2,0.0,2-Back,0,m,Fri Apr 04 2025 13:49:55 GMT-0500 (Central Daylight Time),608618.6999999955,016_y_m_d_a.png,O,None,2016,10,1,3029.39999999851,605589.299999997,7098,VNB,B,8
8,test,2,0.0,2-Back,1,m,Fri Apr 04 2025 13:49:55 GMT-0500 (Central Daylight Time),610934.3999999985,007_m_m_n_a.png,O,m,1294,11,1,2311.89999999851,608622.5,7098,VNB,B,9
9,test,2,0.0,2-Back,1,m,Fri Apr 04 2025 13:49:55 GMT-0500 (Central Daylight Time),613517.1000000015,011_m_f_h_a.png,O,m,1563,12,1,2578.9000000059605,610938.1999999955,7098,VNB,B,10
10,test,2,1.0,2-Back,1,z,Fri Apr 04 2025 13:49:55 GMT-0500 (Central Daylight Time),615866.3999999985,004_o_m_n_a.png,O,z,1316,13,1,2345.2000000029802,613521.1999999955,7098,VNB,B,11
10,test,2,0.0,2-Back,0,m,Fri Apr 04 2025 13:49:55 GMT-0500 (Central Daylight Time),618898.6999999955,005_o_f_d_a.png,O,None,2016,14,1,3029.39999999851,615869.299999997,7098,VNB,B,12
11,test,2,0.0,2-Back,1,m,Fri Apr 04 2025 13:49:55 GMT-0500 (Central Daylight Time),621114.5,020_y_f_h_a.png,O,m,1191,15,1,2211.89999999851,618902.6000000015,7098,VNB,B,13
12,test,2,0.0,2-Back,1,z,Fri Apr 04 2025 13:49:55 GMT-0500 (Central Daylight Time),623697.1000000015,007_m_m_d_a.png,O,z,1558,16,1,2579.10000000149,621118.0,7098,VNB,B,14
12,test,2,0.0,2-Back,0,m,Fri Apr 04 2025 13:49:55 GMT-0500 (Central Daylight Time),626729.6999999955,016_y_m_n_a.png,O,None,2016,17,1,3028.5999999940395,623701.1000000015,7098,VNB,B,15
12,test,2,1.0,2-Back,0,m,Fri Apr 04 2025 13:49:55 GMT-0500 (Central Daylight Time),628679.0,011_m_f_n_a.png,O,z,920,18,1,1945.8999999985099,626733.1000000015,7098,VNB,B,16
0,test,3,1.0,2-Back,,,Fri Apr 04 2025 13:49:55 GMT-0500 (Central Daylight Time),628679.0,004_o_m_n_a.png,O,space,2074,1,1,1945.8999999985099,626733.1000000015,7098,VNB,B,0
0,test,3,1.0,2-Back,,,Fri Apr 04 2025 13:49:55 GMT-0500 (Central Daylight Time),628679.0,005_o_f_d_a.png,O,space,2074,2,1,1945.8999999985099,626733.1000000015,7098,VNB,B,0
1,test,3,0.0,2-Back,1,m,Fri Apr 04 2025 13:49:55 GMT-0500 (Central Daylight Time),637909.0,020_y_f_h_a.png,O,m,1079,3,1,2095.7000000029802,635813.299999997,7098,VNB,B,1
2,test,3,0.0,2-Back,1,z,Fri Apr 04 2025 13:49:55 GMT-0500 (Central Daylight Time),640558.5,011_m_f_d_a.png,O,z,1628,4,1,2646.0,637912.5,7098,VNB,B,2
3,test,3,1.0,2-Back,1,m,Fri Apr 04 2025 13:49:55 GMT-0500 (Central Daylight Time),643041.0,016_y_m_n_a.png,O,m,1451,5,1,2478.60000000149,640562.3999999985,7098,VNB,B,3
4,test,3,0.0,2-Back,1,m,Fri Apr 04 2025 13:49:55 GMT-0500 (Central Daylight Time),646040.299999997,004_o_m_h_a.png,O,m,1976,6,1,2995.89999999851,643044.3999999985,7098,VNB,B,4
5,test,3,0.0,2-Back,1,z,Fri Apr 04 2025 13:49:55 GMT-0500 (Central Daylight Time),647773.0,020_y_f_n_a.png,O,z,705,7,1,1729.3000000044703,646043.6999999955,7098,VNB,B,5
6,test,3,1.0,2-Back,1,m,Fri Apr 04 2025 13:49:55 GMT-0500 (Central Daylight Time),650355.1999999955,007_m_m_d_a.png,O,m,1564,8,1,2578.6999999955297,647776.5,7098,VNB,B,6
7,test,3,0.0,2-Back,1,m,Fri Apr 04 2025 13:49:55 GMT-0500 (Central Daylight Time),652538.299999997,016_y_m_d_a.png,O,m,1158,9,1,2179.0,650359.299999997,7098,VNB,B,7
8,test,3,0.0,2-Back,1,m,Fri Apr 04 2025 13:49:55 GMT-0500 (Central Daylight Time),654587.299999997,005_o_f_h_a.png,O,m,1031,10,1,2045.6000000014901,652541.6999999955,7098,VNB,B,8
9,test,3,1.0,2-Back,1,m,Fri Apr 04 2025 13:49:55 GMT-0500 (Central Daylight Time),657070.1000000015,011_m_f_n_a.png,O,m,1454,11,1,2478.8000000044703,654591.299999997,7098,VNB,B,9
10,test,3,1.0,2-Back,1,z,Fri Apr 04 2025 13:49:55 GMT-0500 (Central Daylight Time),658869.1999999955,007_m_m_h_a.png,O,z,779,12,1,1794.7999999970198,657074.3999999985,7098,VNB,B,10
11,test,3,0.0,2-Back,1,m,Fri Apr 04 2025 13:49:55 GMT-0500 (Central Daylight Time),661281.1000000015,020_y_f_d_a.png,O,m,1394,13,1,2408.60000000149,658872.5,7098,VNB,B,11
12,test,3,0.0,2-Back,1,m,Fri Apr 04 2025 13:49:55 GMT-0500 (Central Daylight Time),663801.1999999955,005_o_f_n_a.png,O,m,1492,14,1,2516.5999999940395,661284.6000000015,7098,VNB,B,12
13,test,3,0.0,2-Back,1,z,Fri Apr 04 2025 13:49:55 GMT-0500 (Central Daylight Time),666217.1000000015,004_o_m_d_a.png,O,z,1393,15,1,2412.2000000029802,663804.8999999985,7098,VNB,B,13
14,test,3,1.0,2-Back,1,m,Fri Apr 04 2025 13:49:55 GMT-0500 (Central Daylight Time),668416.5,011_m_f_h_a.png,O,m,1176,16,1,2196.0,666220.5,7098,VNB,B,14
15,test,3,0.0,2-Back,1,m,Fri Apr 04 2025 13:49:55 GMT-0500 (Central Daylight Time),670915.5,007_m_m_n_a.png,O,m,1481,17,1,2495.89999999851,668419.6000000015,7098,VNB,B,15
16,test,3,0.0,2-Back,1,z,Fri Apr 04 2025 13:49:55 GMT-0500 (Central Daylight Time),673032.8999999985,016_y_m_h_a.png,O,z,1085,18,1,2114.10000000149,670918.799999997,7098,VNB,B,16
0,test,4,0.0,2-Back,,,Fri Apr 04 2025 13:49:55 GMT-0500 (Central Daylight Time),673032.8999999985,011_m_f_n_a.png,O,space,2424,1,1,2114.10000000149,670918.799999997,7098,VNB,B,0
0,test,4,0.0,2-Back,,,Fri Apr 04 2025 13:49:55 GMT-0500 (Central Daylight Time),673032.8999999985,004_o_m_n_a.png,O,space,2424,2,1,2114.10000000149,670918.799999997,7098,VNB,B,0
1,test,4,1.0,2-Back,1,m,Fri Apr 04 2025 13:49:55 GMT-0500 (Central Daylight Time),682662.0,016_y_m_h_a.png,O,m,945,3,1,1962.1000000014901,680699.8999999985,7098,VNB,B,1
1,test,4,1.0,2-Back,0,m,Fri Apr 04 2025 13:49:55 GMT-0500 (Central Daylight Time),685394.6000000015,005_o_f_d_a.png,O,z,1700,4,1,2728.3000000044703,682666.299999997,7098,VNB,B,2
2,test,4,0.0,2-Back,1,z,Fri Apr 04 2025 13:49:55 GMT-0500 (Central Daylight Time),687993.5,004_o_m_h_a.png,O,z,1567,5,1,2595.60000000149,685397.8999999985,7098,VNB,B,3
2,test,4,0.0,2-Back,0,m,Fri Apr 04 2025 13:49:55 GMT-0500 (Central Daylight Time),690459.5,007_m_m_n_a.png,O,z,1440,6,1,2462.10000000149,687997.3999999985,7098,VNB,B,4
3,test,4,0.0,2-Back,1,m,Fri Apr 04 2025 13:49:55 GMT-0500 (Central Daylight Time),692908.6999999955,011_m_f_d_a.png,O,m,1422,7,1,2445.5999999940395,690463.1000000015,7098,VNB,B,5
4,test,4,0.0,2-Back,1,z,Fri Apr 04 2025 13:49:55 GMT-0500 (Central Daylight Time),694974.799999997,020_y_f_n_a.png,O,z,1044,8,1,2062.6999999955297,692912.1000000015,7098,VNB,B,6
4,test,4,1.0,2-Back,0,m,Fri Apr 04 2025 13:49:55 GMT-0500 (Central Daylight Time),698007.299999997,005_o_f_h_a.png,O,None,2015,9,1,3028.60000000149,694978.6999999955,7098,VNB,B,7
5,test,4,0.0,2-Back,1,m,Fri Apr 04 2025 13:49:55 GMT-0500 (Central Daylight Time),700656.1999999955,007_m_m_h_a.png,O,m,1626,10,1,2645.0999999940395,698011.1000000015,7098,VNB,B,8
5,test,4,0.0,2-Back,0,m,Fri Apr 04 2025 13:49:55 GMT-0500 (Central Daylight Time),702655.799999997,020_y_f_d_a.png,O,z,969,11,1,1995.3999999985099,700660.3999999985,7098,VNB,B,9
5,test,4,0.0,2-Back,0,m,Fri Apr 04 2025 13:49:55 GMT-0500 (Central Daylight Time),705688.1999999955,016_y_m_n_a.png,O,None,2014,12,1,3029.2999999970198,702658.8999999985,7098,VNB,B,10
5,test,4,0.0,2-Back,0,z,Fri Apr 04 2025 13:49:55 GMT-0500 (Central Daylight Time),708720.799999997,004_o_m_d_a.png,O,None,2016,13,1,3029.10000000149,705691.6999999955,7098,VNB,B,11
6,test,4,1.0,2-Back,1,m,Fri Apr 04 2025 13:49:55 GMT-0500 (Central Daylight Time),710569.799999997,011_m_f_h_a.png,O,m,817,14,1,1845.6000000014901,708724.1999999955,7098,VNB,B,12
7,test,4,1.0,2-Back,1,m,Fri Apr 04 2025 13:49:55 GMT-0500 (Central Daylight Time),712719.1999999955,020_y_f_h_a.png,O,m,1127,15,1,2144.89999999851,710574.299999997,7098,VNB,B,13
8,test,4,0.0,2-Back,1,m,Fri Apr 04 2025 13:49:55 GMT-0500 (Central Daylight Time),714985.5,005_o_f_n_a.png,O,m,1234,16,1,2261.89999999851,712723.6000000015,7098,VNB,B,14
9,test,4,0.0,2-Back,1,m,Fri Apr 04 2025 13:49:55 GMT-0500 (Central Daylight Time),717467.6000000015,016_y_m_d_a.png,O,m,1456,17,1,2478.5,714989.1000000015,7098,VNB,B,15
9,test,4,1.0,2-Back,0,m,Fri Apr 04 2025 13:49:55 GMT-0500 (Central Daylight Time),720500.1999999955,007_m_m_d_a.png,O,None,2015,18,1,3029.0,717471.1999999955,7098,VNB,B,16
0,test,5,1.0,2-Back,,,Fri Apr 04 2025 13:49:55 GMT-0500 (Central Daylight Time),720500.1999999955,020_y_f_d_a.png,O,space,2437,1,1,3029.0,717471.1999999955,7098,VNB,B,0
0,test,5,1.0,2-Back,,,Fri Apr 04 2025 13:49:55 GMT-0500 (Central Daylight Time),720500.1999999955,005_o_f_h_a.png,O,space,2437,2,1,3029.0,717471.1999999955,7098,VNB,B,0
1,test,5,1.0,2-Back,1,z,Fri Apr 04 2025 13:49:55 GMT-0500 (Central Daylight Time),730330.299999997,004_o_m_d_a.png,O,z,1099,3,1,2129.2999999970198,728201.0,7098,VNB,B,1
2,test,5,1.0,2-Back,1,m,Fri Apr 04 2025 13:49:55 GMT-0500 (Central Daylight Time),732279.6999999955,011_m_f_n_a.png,O,m,926,4,1,1945.7999999970198,730333.8999999985,7098,VNB,B,2
2,test,5,0.0,2-Back,0,m,Fri Apr 04 2025 13:49:55 GMT-0500 (Central Daylight Time),734712.5,007_m_m_h_a.png,O,z,1409,5,1,2429.2000000029802,732283.299999997,7098,VNB,B,3
3,test,5,0.0,2-Back,1,z,Fri Apr 04 2025 13:49:55 GMT-0500 (Central Daylight Time),736961.5,020_y_f_n_a.png,O,z,1225,6,1,2245.8000000044703,734715.6999999955,7098,VNB,B,4
4,test,5,0.0,2-Back,1,m,Fri Apr 04 2025 13:49:55 GMT-0500 (Central Daylight Time),739260.8999999985,005_o_f_d_a.png,O,m,1280,7,1,2296.0,736964.8999999985,7098,VNB,B,5
4,test,5,0.0,2-Back,0,m,Fri Apr 04 2025 13:49:55 GMT-0500 (Central Daylight Time),742276.3999999985,004_o_m_h_a.png,O,z,1988,8,1,3012.39999999851,739264.0,7098,VNB,B,6
5,test,5,1.0,2-Back,1,z,Fri Apr 04 2025 13:49:55 GMT-0500 (Central Daylight Time),744775.799999997,011_m_f_d_a.png,O,z,1477,9,1,2495.89999999851,742279.8999999985,7098,VNB,B,7
6,test,5,0.0,2-Back,1,m,Fri Apr 04 2025 13:49:55 GMT-0500 (Central Daylight Time),746442.1000000015,016_y_m_n_a.png,O,m,633,10,1,1662.6000000014901,744779.5,7098,VNB,B,8
7,test,5,0.0,2-Back,1,m,Fri Apr 04 2025 13:49:55 GMT-0500 (Central Daylight Time),748857.8999999985,007_m_m_n_a.png,O,m,1391,11,1,2412.5,746445.3999999985,7098,VNB,B,9
8,test,5,0.0,2-Back,1,m,Fri Apr 04 2025 13:49:55 GMT-0500 (Central Daylight Time),751290.6999999955,020_y_f_h_a.png,O,m,1400,12,1,2428.7999999970198,748861.8999999985,7098,VNB,B,10
9,test,5,0.0,2-Back,1,m,Fri Apr 04 2025 13:49:55 GMT-0500 (Central Daylight Time),753723.0,016_y_m_d_a.png,O,m,1415,13,1,2428.60000000149,751294.3999999985,7098,VNB,B,11
10,test,5,1.0,2-Back,1,z,Fri Apr 04 2025 13:49:55 GMT-0500 (Central Daylight Time),755872.5,011_m_f_h_a.png,O,z,1126,14,1,2145.8000000044703,753726.6999999955,7098,VNB,B,12
11,test,5,0.0,2-Back,1,m,Fri Apr 04 2025 13:49:55 GMT-0500 (Central Daylight Time),758072.0,004_o_m_n_a.png,O,m,1177,15,1,2195.5,755876.5,7098,VNB,B,13
11,test,5,0.0,2-Back,0,m,Fri Apr 04 2025 13:49:55 GMT-0500 (Central Daylight Time),761104.299999997,007_m_m_d_a.png,O,None,2016,16,1,3028.6999999955297,758075.6000000015,7098,VNB,B,14
12,test,5,0.0,2-Back,1,z,Fri Apr 04 2025 13:49:55 GMT-0500 (Central Daylight Time),763253.5,005_o_f_n_a.png,O,z,1130,17,1,2145.5,761108.0,7098,VNB,B,15
13,test,5,1.0,2-Back,1,m,Fri Apr 04 2025 13:49:55 GMT-0500 (Central Daylight Time),765752.5,016_y_m_h_a.png,O,m,1476,18,1,2494.7000000029802,763257.799999997,7098,VNB,B,16
