acc_sum,block,block_c,change,condition,correct,correct_response,datetime,endtime,face,project,response,response_time,row_sel,session_number,start_end,starttime,subject_id,task,task_vers,trial
0,prac,1,,1-Back,,,Thu Mar 27 2025 10:24:21 GMT-0500 (Central Daylight Time),,050_m_f_n_a.png,O,space,11723,1,1,,,7106,NNB,A,0
1,prac,1,0.0,1-Back,1,m,Thu Mar 27 2025 10:24:21 GMT-0500 (Central Daylight Time),121689.39999997616,063_y_f_n_a.png,O,m,890,2,1,1724.199999988079,119965.19999998808,7106,NNB,A,1
2,prac,1,1.0,1-Back,1,z,Thu Mar 27 2025 10:24:21 GMT-0500 (Central Daylight Time),123538.59999996424,063_y_f_n_a.png,O,z,1033,3,1,1809.3999999761581,121729.19999998808,7106,NNB,A,2
3,prac,1,0.0,1-Back,1,m,Thu Mar 27 2025 10:24:21 GMT-0500 (Central Daylight Time),125154.5,053_o_m_n_a.png,O,m,756,4,1,1585.6000000238419,123568.89999997616,7106,NNB,A,3
4,prac,1,0.0,1-Back,1,m,Thu Mar 27 2025 10:24:21 GMT-0500 (Central Daylight Time),126820.5,058_m_m_n_a.png,O,m,810,5,1,1634.300000011921,125186.19999998808,7106,NNB,A,4
5,prac,1,1.0,1-Back,1,z,Thu Mar 27 2025 10:24:21 GMT-0500 (Central Daylight Time),128387.0,058_m_m_n_a.png,O,z,751,6,1,1527.7000000476837,126859.29999995232,7106,NNB,A,5
6,prac,1,0.0,1-Back,1,m,Thu Mar 27 2025 10:24:21 GMT-0500 (Central Daylight Time),130102.89999997616,047_o_f_n_a.png,O,m,810,7,1,1679.8999999761581,128423.0,7106,NNB,A,6
7,prac,1,0.0,1-Back,1,m,Thu Mar 27 2025 10:24:21 GMT-0500 (Central Daylight Time),132002.0,045_m_m_n_a.png,O,m,1034,8,1,1863.5,130138.5,7106,NNB,A,7
8,prac,1,0.0,1-Back,1,m,Thu Mar 27 2025 10:24:21 GMT-0500 (Central Daylight Time),133601.69999998808,050_m_f_n_a.png,O,m,741,9,1,1573.300000011921,132028.39999997616,7106,NNB,A,8
9,prac,1,1.0,1-Back,1,z,Thu Mar 27 2025 10:24:21 GMT-0500 (Central Daylight Time),135085.39999997616,050_m_f_n_a.png,O,z,675,10,1,1444.8999999761581,133640.5,7106,NNB,A,9
10,prac,1,0.0,1-Back,1,m,Thu Mar 27 2025 10:24:21 GMT-0500 (Central Daylight Time),136767.29999995232,053_o_m_n_a.png,O,m,879,11,1,1650.8999999761581,135116.39999997616,7106,NNB,A,10
11,prac,1,0.0,1-Back,1,m,Thu Mar 27 2025 10:24:21 GMT-0500 (Central Daylight Time),138600.0,010_y_f_n_a.png,O,m,935,12,1,1801.7000000476837,136798.29999995232,7106,NNB,A,11
0,test,1,0.0,1-Back,,,Thu Mar 27 2025 10:24:21 GMT-0500 (Central Daylight Time),138600.0,063_y_f_n_a.png,O,space,12210,1,1,1801.7000000476837,136798.29999995232,7106,NNB,A,0
1,test,1,0.0,1-Back,1,m,Thu Mar 27 2025 10:24:21 GMT-0500 (Central Daylight Time),160059.69999998808,043_m_f_n_a.png,O,m,924,2,1,1936.699999988079,158123.0,7106,NNB,A,1
2,test,1,0.0,1-Back,1,m,Thu Mar 27 2025 10:24:21 GMT-0500 (Central Daylight Time),162076.59999996424,010_y_f_n_a.png,O,m,965,3,1,1981.0,160095.59999996424,7106,NNB,A,2
3,test,1,1.0,1-Back,1,z,Thu Mar 27 2025 10:24:21 GMT-0500 (Central Daylight Time),163925.29999995232,010_y_f_n_a.png,O,z,797,4,1,1813.699999988079,162111.59999996424,7106,NNB,A,3
4,test,1,0.0,1-Back,1,m,Thu Mar 27 2025 10:24:21 GMT-0500 (Central Daylight Time),165674.89999997616,043_m_f_n_a.png,O,m,708,5,1,1727.1000000238419,163947.79999995232,7106,NNB,A,4
5,test,1,0.0,1-Back,1,m,Thu Mar 27 2025 10:24:21 GMT-0500 (Central Daylight Time),167373.89999997616,053_o_m_n_a.png,O,m,639,6,1,1666.699999988079,165707.19999998808,7106,NNB,A,5
6,test,1,1.0,1-Back,1,z,Thu Mar 27 2025 10:24:21 GMT-0500 (Central Daylight Time),169140.5,053_o_m_n_a.png,O,z,732,7,1,1741.0,167399.5,7106,NNB,A,6
7,test,1,0.0,1-Back,1,m,Thu Mar 27 2025 10:24:21 GMT-0500 (Central Daylight Time),170822.69999998808,058_m_m_n_a.png,O,m,646,8,1,1657.1000000238419,169165.59999996424,7106,NNB,A,7
8,test,1,0.0,1-Back,1,m,Thu Mar 27 2025 10:24:21 GMT-0500 (Central Daylight Time),172704.89999997616,047_o_f_n_a.png,O,m,833,9,1,1858.300000011921,170846.59999996424,7106,NNB,A,8
9,test,1,0.0,1-Back,1,m,Thu Mar 27 2025 10:24:21 GMT-0500 (Central Daylight Time),174738.0,058_m_m_n_a.png,O,m,1008,10,1,2021.0,172717.0,7106,NNB,A,9
10,test,1,0.0,1-Back,1,m,Thu Mar 27 2025 10:24:21 GMT-0500 (Central Daylight Time),176654.09999996424,041_y_m_n_a.png,O,m,863,11,1,1884.0999999642372,174770.0,7106,NNB,A,10
11,test,1,1.0,1-Back,1,z,Thu Mar 27 2025 10:24:21 GMT-0500 (Central Daylight Time),178286.69999998808,041_y_m_n_a.png,O,z,579,12,1,1601.199999988079,176685.5,7106,NNB,A,11
12,test,1,0.0,1-Back,1,m,Thu Mar 27 2025 10:24:21 GMT-0500 (Central Daylight Time),180068.89999997616,044_o_f_n_a.png,O,m,746,13,1,1755.0,178313.89999997616,7106,NNB,A,12
13,test,1,1.0,1-Back,1,z,Thu Mar 27 2025 10:24:21 GMT-0500 (Central Daylight Time),181902.19999998808,044_o_f_n_a.png,O,z,795,14,1,1817.199999988079,180085.0,7106,NNB,A,13
14,test,1,0.0,1-Back,1,m,Thu Mar 27 2025 10:24:21 GMT-0500 (Central Daylight Time),183618.79999995232,008_y_m_n_a.png,O,m,649,15,1,1682.5,181936.29999995232,7106,NNB,A,14
15,test,1,0.0,1-Back,1,m,Thu Mar 27 2025 10:24:21 GMT-0500 (Central Daylight Time),185384.79999995232,050_m_f_n_a.png,O,m,702,16,1,1734.699999988079,183650.09999996424,7106,NNB,A,15
16,test,1,0.0,1-Back,1,m,Thu Mar 27 2025 10:24:21 GMT-0500 (Central Daylight Time),187100.59999996424,046_o_m_n_a.png,O,m,656,17,1,1684.5,185416.09999996424,7106,NNB,A,16
17,test,1,0.0,1-Back,1,m,Thu Mar 27 2025 10:24:21 GMT-0500 (Central Daylight Time),189099.89999997616,050_m_f_n_a.png,O,m,957,18,1,1968.1000000238419,187131.79999995232,7106,NNB,A,17
0,test,2,0.0,1-Back,,,Thu Mar 27 2025 10:24:21 GMT-0500 (Central Daylight Time),189099.89999997616,058_m_m_n_a.png,O,space,2534,1,1,1968.1000000238419,187131.79999995232,7106,NNB,A,0
1,test,2,0.0,1-Back,1,m,Thu Mar 27 2025 10:24:21 GMT-0500 (Central Daylight Time),195530.5,043_m_f_n_a.png,O,m,807,2,1,1824.2000000476837,193706.29999995232,7106,NNB,A,1
2,test,2,1.0,1-Back,1,z,Thu Mar 27 2025 10:24:21 GMT-0500 (Central Daylight Time),197247.29999995232,043_m_f_n_a.png,O,z,687,3,1,1707.0999999642372,195540.19999998808,7106,NNB,A,2
3,test,2,0.0,1-Back,1,m,Thu Mar 27 2025 10:24:21 GMT-0500 (Central Daylight Time),198980.09999996424,058_m_m_n_a.png,O,m,684,4,1,1706.199999988079,197273.89999997616,7106,NNB,A,3
4,test,2,0.0,1-Back,1,m,Thu Mar 27 2025 10:24:21 GMT-0500 (Central Daylight Time),200729.5,041_y_m_n_a.png,O,m,709,5,1,1718.2000000476837,199011.29999995232,7106,NNB,A,4
5,test,2,0.0,1-Back,1,m,Thu Mar 27 2025 10:24:21 GMT-0500 (Central Daylight Time),202445.29999995232,063_y_f_n_a.png,O,m,680,6,1,1689.5,200755.79999995232,7106,NNB,A,5
5,test,2,1.0,1-Back,0,z,Thu Mar 27 2025 10:24:21 GMT-0500 (Central Daylight Time),204844.5,063_y_f_n_a.png,O,m,1355,7,1,2374.400000035763,202470.09999996424,7106,NNB,A,6
6,test,2,0.0,1-Back,1,m,Thu Mar 27 2025 10:24:21 GMT-0500 (Central Daylight Time),206577.5,041_y_m_n_a.png,O,m,709,8,1,1720.4000000357628,204857.09999996424,7106,NNB,A,7
7,test,2,0.0,1-Back,1,m,Thu Mar 27 2025 10:24:21 GMT-0500 (Central Daylight Time),208443.59999996424,044_o_f_n_a.png,O,m,824,9,1,1838.800000011921,206604.79999995232,7106,NNB,A,8
8,test,2,0.0,1-Back,1,m,Thu Mar 27 2025 10:24:21 GMT-0500 (Central Daylight Time),210459.69999998808,045_m_m_n_a.png,O,m,974,10,1,1991.300000011921,208468.39999997616,7106,NNB,A,9
9,test,2,1.0,1-Back,1,z,Thu Mar 27 2025 10:24:21 GMT-0500 (Central Daylight Time),212208.89999997616,045_m_m_n_a.png,O,z,693,11,1,1717.699999988079,210491.19999998808,7106,NNB,A,10
10,test,2,0.0,1-Back,1,m,Thu Mar 27 2025 10:24:21 GMT-0500 (Central Daylight Time),214041.79999995232,044_o_f_n_a.png,O,m,784,12,1,1801.0999999642372,212240.69999998808,7106,NNB,A,11
11,test,2,0.0,1-Back,1,m,Thu Mar 27 2025 10:24:21 GMT-0500 (Central Daylight Time),215791.0,047_o_f_n_a.png,O,m,712,13,1,1719.2000000476837,214071.79999995232,7106,NNB,A,12
12,test,2,0.0,1-Back,1,m,Thu Mar 27 2025 10:24:21 GMT-0500 (Central Daylight Time),217590.69999998808,053_o_m_n_a.png,O,m,754,14,1,1774.300000011921,215816.39999997616,7106,NNB,A,13
13,test,2,0.0,1-Back,1,m,Thu Mar 27 2025 10:24:21 GMT-0500 (Central Daylight Time),219340.09999996424,046_o_m_n_a.png,O,m,707,15,1,1721.800000011921,217618.29999995232,7106,NNB,A,14
14,test,2,1.0,1-Back,1,z,Thu Mar 27 2025 10:24:21 GMT-0500 (Central Daylight Time),221189.39999997616,046_o_m_n_a.png,O,z,788,16,1,1814.0,219375.39999997616,7106,NNB,A,15
15,test,2,0.0,1-Back,1,m,Thu Mar 27 2025 10:24:21 GMT-0500 (Central Daylight Time),222888.89999997616,008_y_m_n_a.png,O,m,652,17,1,1672.199999988079,221216.69999998808,7106,NNB,A,16
16,test,2,1.0,1-Back,1,z,Thu Mar 27 2025 10:24:21 GMT-0500 (Central Daylight Time),224771.5,008_y_m_n_a.png,O,z,833,18,1,1851.800000011921,222919.69999998808,7106,NNB,A,17
0,test,3,1.0,1-Back,,,Thu Mar 27 2025 10:24:21 GMT-0500 (Central Daylight Time),224771.5,010_y_f_n_a.png,O,space,1854,1,1,1851.800000011921,222919.69999998808,7106,NNB,A,0
0,test,3,0.0,1-Back,0,m,Thu Mar 27 2025 10:24:21 GMT-0500 (Central Daylight Time),231785.39999997616,046_o_m_n_a.png,O,None,2015,2,1,3023.699999988079,228761.69999998808,7106,NNB,A,1
0,test,3,1.0,1-Back,0,z,Thu Mar 27 2025 10:24:21 GMT-0500 (Central Daylight Time),234817.59999996424,046_o_m_n_a.png,O,None,2016,3,1,3018.099999964237,231799.5,7106,NNB,A,2
0,test,3,0.0,1-Back,0,m,Thu Mar 27 2025 10:24:21 GMT-0500 (Central Daylight Time),237850.79999995232,050_m_f_n_a.png,O,None,2015,4,1,3022.5,234828.29999995232,7106,NNB,A,3
0,test,3,1.0,1-Back,0,z,Thu Mar 27 2025 10:24:21 GMT-0500 (Central Daylight Time),240916.39999997616,050_m_f_n_a.png,O,None,2014,5,1,3031.699999988079,237884.69999998808,7106,NNB,A,4
0,test,3,0.0,1-Back,0,m,Thu Mar 27 2025 10:24:21 GMT-0500 (Central Daylight Time),243982.5,044_o_f_n_a.png,O,None,2015,6,1,3034.5,240948.0,7106,NNB,A,5
0,test,3,0.0,1-Back,0,m,Thu Mar 27 2025 10:24:21 GMT-0500 (Central Daylight Time),247030.79999995232,041_y_m_n_a.png,O,None,2014,7,1,3018.2999999523163,244012.5,7106,NNB,A,6
0,test,3,0.0,1-Back,0,m,Thu Mar 27 2025 10:24:21 GMT-0500 (Central Daylight Time),250096.79999995232,044_o_f_n_a.png,O,None,2014,8,1,3033.0,247063.79999995232,7106,NNB,A,7
0,test,3,0.0,1-Back,0,m,Thu Mar 27 2025 10:24:21 GMT-0500 (Central Daylight Time),253162.59999996424,008_y_m_n_a.png,O,None,2014,9,1,3033.5,250129.09999996424,7106,NNB,A,8
0,test,3,1.0,1-Back,0,z,Thu Mar 27 2025 10:24:21 GMT-0500 (Central Daylight Time),256211.09999996424,008_y_m_n_a.png,O,None,2014,10,1,3019.0,253192.09999996424,7106,NNB,A,9
0,test,3,0.0,1-Back,0,m,Thu Mar 27 2025 10:24:21 GMT-0500 (Central Daylight Time),259277.39999997616,043_m_f_n_a.png,O,None,2017,11,1,3025.0,256252.39999997616,7106,NNB,A,10
0,test,3,0.0,1-Back,0,m,Thu Mar 27 2025 10:24:21 GMT-0500 (Central Daylight Time),262342.5,063_y_f_n_a.png,O,None,2014,12,1,3031.100000023842,259311.39999997616,7106,NNB,A,11
0,test,3,1.0,1-Back,0,z,Thu Mar 27 2025 10:24:21 GMT-0500 (Central Daylight Time),265391.59999996424,063_y_f_n_a.png,O,None,2014,13,1,3019.199999988079,262372.39999997616,7106,NNB,A,12
0,test,3,0.0,1-Back,0,m,Thu Mar 27 2025 10:24:21 GMT-0500 (Central Daylight Time),268457.2999999523,043_m_f_n_a.png,O,None,2014,14,1,3033.399999976158,265423.89999997616,7106,NNB,A,13
0,test,3,0.0,1-Back,0,m,Thu Mar 27 2025 10:24:21 GMT-0500 (Central Daylight Time),271523.2999999523,058_m_m_n_a.png,O,None,2015,15,1,3032.599999964237,268490.6999999881,7106,NNB,A,14
0,test,3,1.0,1-Back,0,z,Thu Mar 27 2025 10:24:21 GMT-0500 (Central Daylight Time),274572.1999999881,058_m_m_n_a.png,O,None,2015,16,1,3019.800000011921,271552.39999997616,7106,NNB,A,15
0,test,3,0.0,1-Back,0,m,Thu Mar 27 2025 10:24:21 GMT-0500 (Central Daylight Time),277637.5,047_o_f_n_a.png,O,None,2014,17,1,3031.900000035763,274605.59999996424,7106,NNB,A,16
0,test,3,1.0,1-Back,0,z,Thu Mar 27 2025 10:24:21 GMT-0500 (Central Daylight Time),280703.1999999881,047_o_f_n_a.png,O,None,2014,18,1,3032.5,277670.6999999881,7106,NNB,A,17
0,test,4,1.0,1-Back,,,Thu Mar 27 2025 10:24:21 GMT-0500 (Central Daylight Time),280703.1999999881,050_m_f_n_a.png,O,None,60011,1,1,3032.5,277670.6999999881,7106,NNB,A,0
0,test,4,0.0,1-Back,0,m,Thu Mar 27 2025 10:24:21 GMT-0500 (Central Daylight Time),345865.59999996424,046_o_m_n_a.png,O,None,2014,2,1,3019.0,342846.59999996424,7106,NNB,A,1
0,test,4,0.0,1-Back,0,m,Thu Mar 27 2025 10:24:21 GMT-0500 (Central Daylight Time),348930.89999997616,050_m_f_n_a.png,O,None,2014,3,1,3032.600000023842,345898.2999999523,7106,NNB,A,2
0,test,4,0.0,1-Back,0,m,Thu Mar 27 2025 10:24:21 GMT-0500 (Central Daylight Time),351996.1999999881,044_o_f_n_a.png,O,None,2014,4,1,3032.900000035763,348963.2999999523,7106,NNB,A,3
0,test,4,1.0,1-Back,0,z,Thu Mar 27 2025 10:24:21 GMT-0500 (Central Daylight Time),355045.39999997616,044_o_f_n_a.png,O,None,2014,5,1,3017.899999976158,352027.5,7106,NNB,A,4
0,test,4,0.0,1-Back,0,m,Thu Mar 27 2025 10:24:21 GMT-0500 (Central Daylight Time),358111.1999999881,063_y_f_n_a.png,O,None,2014,6,1,3030.100000023842,355081.09999996424,7106,NNB,A,5
0,test,4,0.0,1-Back,0,m,Thu Mar 27 2025 10:24:21 GMT-0500 (Central Daylight Time),361176.7999999523,041_y_m_n_a.png,O,None,2014,7,1,3033.2999999523163,358143.5,7106,NNB,A,6
0,test,4,1.0,1-Back,0,z,Thu Mar 27 2025 10:24:21 GMT-0500 (Central Daylight Time),364225.7999999523,041_y_m_n_a.png,O,None,2015,8,1,3018.0,361207.7999999523,7106,NNB,A,7
0,test,4,0.0,1-Back,0,m,Thu Mar 27 2025 10:24:21 GMT-0500 (Central Daylight Time),367275.7999999523,063_y_f_n_a.png,O,None,2015,9,1,3024.7999999523163,364251.0,7106,NNB,A,8
0,test,4,0.0,1-Back,0,m,Thu Mar 27 2025 10:24:21 GMT-0500 (Central Daylight Time),370323.6999999881,045_m_m_n_a.png,O,None,2015,10,1,3021.5,367302.1999999881,7106,NNB,A,9
0,test,4,1.0,1-Back,0,z,Thu Mar 27 2025 10:24:21 GMT-0500 (Central Daylight Time),373389.39999997616,045_m_m_n_a.png,O,None,2016,11,1,3033.899999976158,370355.5,7106,NNB,A,10
0,test,4,0.0,1-Back,0,m,Thu Mar 27 2025 10:24:21 GMT-0500 (Central Daylight Time),376438.39999997616,047_o_f_n_a.png,O,None,2015,12,1,3019.800000011921,373418.59999996424,7106,NNB,A,11
0,test,4,0.0,1-Back,0,m,Thu Mar 27 2025 10:24:21 GMT-0500 (Central Daylight Time),379504.1999999881,053_o_m_n_a.png,O,None,2015,13,1,3026.5,376477.6999999881,7106,NNB,A,12
0,test,4,0.0,1-Back,0,m,Thu Mar 27 2025 10:24:21 GMT-0500 (Central Daylight Time),382569.6999999881,047_o_f_n_a.png,O,None,2015,14,1,3032.600000023842,379537.09999996424,7106,NNB,A,13
0,test,4,0.0,1-Back,0,m,Thu Mar 27 2025 10:24:21 GMT-0500 (Central Daylight Time),385618.59999996424,010_y_f_n_a.png,O,None,2014,15,1,3020.0,382598.59999996424,7106,NNB,A,14
0,test,4,1.0,1-Back,0,z,Thu Mar 27 2025 10:24:21 GMT-0500 (Central Daylight Time),388684.59999996424,010_y_f_n_a.png,O,None,2014,16,1,3033.699999988079,385650.89999997616,7106,NNB,A,15
0,test,4,0.0,1-Back,0,m,Thu Mar 27 2025 10:24:21 GMT-0500 (Central Daylight Time),391750.2999999523,043_m_f_n_a.png,O,None,2015,17,1,3033.399999976158,388716.89999997616,7106,NNB,A,16
0,test,4,1.0,1-Back,0,z,Thu Mar 27 2025 10:24:21 GMT-0500 (Central Daylight Time),394799.09999996424,043_m_f_n_a.png,O,None,2015,18,1,3019.699999988079,391779.39999997616,7106,NNB,A,17
0,test,5,1.0,1-Back,,,Thu Mar 27 2025 10:24:21 GMT-0500 (Central Daylight Time),394799.09999996424,053_o_m_n_a.png,O,space,25267,1,1,3019.699999988079,391779.39999997616,7106,NNB,A,0
1,test,5,1.0,1-Back,1,z,Thu Mar 27 2025 10:24:21 GMT-0500 (Central Daylight Time),424139.59999996424,053_o_m_n_a.png,O,z,924,2,1,1939.5999999642372,422200.0,7106,NNB,A,1
2,test,5,0.0,1-Back,1,m,Thu Mar 27 2025 10:24:21 GMT-0500 (Central Daylight Time),426205.2999999523,063_y_f_n_a.png,O,m,1015,3,1,2033.2999999523163,424172.0,7106,NNB,A,2
3,test,5,0.0,1-Back,1,m,Thu Mar 27 2025 10:24:21 GMT-0500 (Central Daylight Time),428154.7999999523,041_y_m_n_a.png,O,m,884,4,1,1917.5,426237.2999999523,7106,NNB,A,3
4,test,5,0.0,1-Back,1,m,Thu Mar 27 2025 10:24:21 GMT-0500 (Central Daylight Time),430276.6999999881,063_y_f_n_a.png,O,m,1070,5,1,2088.400000035763,428188.2999999523,7106,NNB,A,4
5,test,5,0.0,1-Back,1,m,Thu Mar 27 2025 10:24:21 GMT-0500 (Central Daylight Time),432086.39999997616,058_m_m_n_a.png,O,m,780,6,1,1799.8999999761581,430286.5,7106,NNB,A,5
6,test,5,1.0,1-Back,1,z,Thu Mar 27 2025 10:24:21 GMT-0500 (Central Daylight Time),433952.09999996424,058_m_m_n_a.png,O,z,825,7,1,1843.3999999761581,432108.6999999881,7106,NNB,A,6
7,test,5,0.0,1-Back,1,m,Thu Mar 27 2025 10:24:21 GMT-0500 (Central Daylight Time),435802.1999999881,010_y_f_n_a.png,O,m,825,8,1,1841.6000000238419,433960.59999996424,7106,NNB,A,7
8,test,5,0.0,1-Back,1,m,Thu Mar 27 2025 10:24:21 GMT-0500 (Central Daylight Time),437617.89999997616,008_y_m_n_a.png,O,m,758,9,1,1778.800000011921,435839.09999996424,7106,NNB,A,8
9,test,5,0.0,1-Back,1,m,Thu Mar 27 2025 10:24:21 GMT-0500 (Central Daylight Time),439483.5,010_y_f_n_a.png,O,m,829,10,1,1849.6000000238419,437633.89999997616,7106,NNB,A,9
10,test,5,0.0,1-Back,1,m,Thu Mar 27 2025 10:24:21 GMT-0500 (Central Daylight Time),441167.1999999881,047_o_f_n_a.png,O,m,662,11,1,1674.5,439492.6999999881,7106,NNB,A,10
11,test,5,1.0,1-Back,1,z,Thu Mar 27 2025 10:24:21 GMT-0500 (Central Daylight Time),442916.59999996424,047_o_f_n_a.png,O,z,715,12,1,1725.0,441191.59999996424,7106,NNB,A,11
12,test,5,0.0,1-Back,1,m,Thu Mar 27 2025 10:24:21 GMT-0500 (Central Daylight Time),444716.6999999881,046_o_m_n_a.png,O,m,765,13,1,1777.699999988079,442939.0,7106,NNB,A,12
13,test,5,0.0,1-Back,1,m,Thu Mar 27 2025 10:24:21 GMT-0500 (Central Daylight Time),446432.0,050_m_f_n_a.png,O,m,661,14,1,1683.7000000476837,444748.2999999523,7106,NNB,A,13
14,test,5,1.0,1-Back,1,z,Thu Mar 27 2025 10:24:21 GMT-0500 (Central Daylight Time),448115.0,050_m_f_n_a.png,O,z,641,15,1,1651.5,446463.5,7106,NNB,A,14
15,test,5,0.0,1-Back,1,m,Thu Mar 27 2025 10:24:21 GMT-0500 (Central Daylight Time),449847.5,046_o_m_n_a.png,O,m,678,16,1,1699.9000000357628,448147.59999996424,7106,NNB,A,15
16,test,5,0.0,1-Back,1,m,Thu Mar 27 2025 10:24:21 GMT-0500 (Central Daylight Time),451780.2999999523,043_m_f_n_a.png,O,m,866,17,1,1900.8999999761581,449879.39999997616,7106,NNB,A,16
17,test,5,0.0,1-Back,1,m,Thu Mar 27 2025 10:24:21 GMT-0500 (Central Daylight Time),453513.0,045_m_m_n_a.png,O,m,685,18,1,1704.300000011921,451808.6999999881,7106,NNB,A,17
0,prac,1,0.0,2-Back,,,Thu Mar 27 2025 10:24:21 GMT-0500 (Central Daylight Time),453513.0,008_y_m_n_a.png,O,space,8271,1,1,1704.300000011921,451808.6999999881,7106,NNB,A,0
0,prac,1,0.0,2-Back,,,Thu Mar 27 2025 10:24:21 GMT-0500 (Central Daylight Time),453513.0,043_m_f_n_a.png,O,space,8271,2,1,1704.300000011921,451808.6999999881,7106,NNB,A,0
1,prac,1,1.0,2-Back,1,m,Thu Mar 27 2025 10:24:21 GMT-0500 (Central Daylight Time),564576.8999999762,046_o_m_n_a.png,O,m,1062,3,1,1899.0,562677.8999999762,7106,NNB,A,1
2,prac,1,0.0,2-Back,1,m,Thu Mar 27 2025 10:24:21 GMT-0500 (Central Daylight Time),566626.1999999881,047_o_f_n_a.png,O,m,1136,4,1,2024.1000000238419,564602.0999999642,7106,NNB,A,2
3,prac,1,0.0,2-Back,1,z,Thu Mar 27 2025 10:24:21 GMT-0500 (Central Daylight Time),568758.6999999881,046_o_m_n_a.png,O,z,1314,5,1,2093.400000035763,566665.2999999523,7106,NNB,A,3
4,prac,1,1.0,2-Back,1,z,Thu Mar 27 2025 10:24:21 GMT-0500 (Central Daylight Time),571441.1999999881,047_o_f_n_a.png,O,z,1871,6,1,2644.900000035763,568796.2999999523,7106,NNB,A,4
5,prac,1,0.0,2-Back,1,m,Thu Mar 27 2025 10:24:21 GMT-0500 (Central Daylight Time),573890.2999999523,045_m_m_n_a.png,O,m,1607,7,1,2417.899999976158,571472.3999999762,7106,NNB,A,5
6,prac,1,0.0,2-Back,1,m,Thu Mar 27 2025 10:24:21 GMT-0500 (Central Daylight Time),575705.2999999523,053_o_m_n_a.png,O,m,910,8,1,1778.7999999523163,573926.5,7106,NNB,A,6
7,prac,1,0.0,2-Back,1,m,Thu Mar 27 2025 10:24:21 GMT-0500 (Central Daylight Time),577937.7999999523,010_y_f_n_a.png,O,m,1351,9,1,2220.399999976158,575717.3999999762,7106,NNB,A,7
8,prac,1,1.0,2-Back,1,z,Thu Mar 27 2025 10:24:21 GMT-0500 (Central Daylight Time),579871.6999999881,053_o_m_n_a.png,O,z,1142,10,1,1915.300000011921,577956.3999999762,7106,NNB,A,8
9,prac,1,0.0,2-Back,1,m,Thu Mar 27 2025 10:24:21 GMT-0500 (Central Daylight Time),581970.8999999762,063_y_f_n_a.png,O,m,1245,11,1,2069.800000011921,579901.0999999642,7106,NNB,A,9
10,prac,1,0.0,2-Back,1,m,Thu Mar 27 2025 10:24:21 GMT-0500 (Central Daylight Time),584019.2999999523,045_m_m_n_a.png,O,m,1208,12,1,2019.5999999642372,581999.6999999881,7106,NNB,A,10
0,test,1,0.0,2-Back,,,Thu Mar 27 2025 10:24:21 GMT-0500 (Central Daylight Time),584019.2999999523,041_y_m_n_a.png,O,space,8436,1,1,2019.5999999642372,581999.6999999881,7106,NNB,A,0
0,test,1,0.0,2-Back,,,Thu Mar 27 2025 10:24:21 GMT-0500 (Central Daylight Time),584019.2999999523,041_y_m_n_a.png,O,space,8436,2,1,2019.5999999642372,581999.6999999881,7106,NNB,A,0
1,test,1,0.0,2-Back,1,m,Thu Mar 27 2025 10:24:21 GMT-0500 (Central Daylight Time),607479.1999999881,047_o_f_n_a.png,O,m,1062,3,1,2078.100000023842,605401.0999999642,7106,NNB,A,1
2,test,1,0.0,2-Back,1,m,Thu Mar 27 2025 10:24:21 GMT-0500 (Central Daylight Time),609661.2999999523,058_m_m_n_a.png,O,m,1130,4,1,2145.5,607515.7999999523,7106,NNB,A,2
3,test,1,1.0,2-Back,1,z,Thu Mar 27 2025 10:24:21 GMT-0500 (Central Daylight Time),611744.6999999881,047_o_f_n_a.png,O,z,1036,5,1,2064.699999988079,609680.0,7106,NNB,A,3
4,test,1,0.0,2-Back,1,m,Thu Mar 27 2025 10:24:21 GMT-0500 (Central Daylight Time),613943.7999999523,063_y_f_n_a.png,O,m,1137,6,1,2163.0,611780.7999999523,7106,NNB,A,4
5,test,1,0.0,2-Back,1,m,Thu Mar 27 2025 10:24:21 GMT-0500 (Central Daylight Time),616109.5999999642,058_m_m_n_a.png,O,m,1122,7,1,2134.800000011921,613974.7999999523,7106,NNB,A,5
6,test,1,1.0,2-Back,1,z,Thu Mar 27 2025 10:24:21 GMT-0500 (Central Daylight Time),618425.3999999762,063_y_f_n_a.png,O,z,1268,8,1,2288.600000023842,616136.7999999523,7106,NNB,A,6
7,test,1,0.0,2-Back,1,m,Thu Mar 27 2025 10:24:21 GMT-0500 (Central Daylight Time),621076.5999999642,008_y_m_n_a.png,O,m,1599,9,1,2613.800000011921,618462.7999999523,7106,NNB,A,7
8,test,1,0.0,2-Back,1,m,Thu Mar 27 2025 10:24:21 GMT-0500 (Central Daylight Time),623190.5999999642,044_o_f_n_a.png,O,m,1054,10,1,2079.5,621111.0999999642,7106,NNB,A,8
9,test,1,1.0,2-Back,1,z,Thu Mar 27 2025 10:24:21 GMT-0500 (Central Daylight Time),624873.2999999523,008_y_m_n_a.png,O,z,643,11,1,1655.3999999761581,623217.8999999762,7106,NNB,A,9
10,test,1,0.0,2-Back,1,m,Thu Mar 27 2025 10:24:21 GMT-0500 (Central Daylight Time),627522.5,043_m_f_n_a.png,O,m,1608,12,1,2626.0,624896.5,7106,NNB,A,10
10,test,1,0.0,2-Back,0,m,Thu Mar 27 2025 10:24:21 GMT-0500 (Central Daylight Time),630105.0999999642,043_m_f_n_a.png,O,z,1535,13,1,2559.899999976158,627545.1999999881,7106,NNB,A,11
11,test,1,0.0,2-Back,1,m,Thu Mar 27 2025 10:24:21 GMT-0500 (Central Daylight Time),632554.1999999881,046_o_m_n_a.png,O,m,1384,14,1,2410.800000011921,630143.3999999762,7106,NNB,A,12
12,test,1,0.0,2-Back,1,m,Thu Mar 27 2025 10:24:21 GMT-0500 (Central Daylight Time),634703.3999999762,044_o_f_n_a.png,O,m,1112,15,1,2124.800000011921,632578.5999999642,7106,NNB,A,13
13,test,1,1.0,2-Back,1,z,Thu Mar 27 2025 10:24:21 GMT-0500 (Central Daylight Time),636586.0,046_o_m_n_a.png,O,z,834,16,1,1851.1000000238419,634734.8999999762,7106,NNB,A,14
14,test,1,0.0,2-Back,1,m,Thu Mar 27 2025 10:24:21 GMT-0500 (Central Daylight Time),638752.1999999881,050_m_f_n_a.png,O,m,1103,17,1,2131.600000023842,636620.5999999642,7106,NNB,A,15
15,test,1,0.0,2-Back,1,m,Thu Mar 27 2025 10:24:21 GMT-0500 (Central Daylight Time),641084.6999999881,045_m_m_n_a.png,O,m,1273,18,1,2298.199999988079,638786.5,7106,NNB,A,16
0,test,2,0.0,2-Back,,,Thu Mar 27 2025 10:24:21 GMT-0500 (Central Daylight Time),641084.6999999881,045_m_m_n_a.png,O,space,1645,1,1,2298.199999988079,638786.5,7106,NNB,A,0
0,test,2,0.0,2-Back,,,Thu Mar 27 2025 10:24:21 GMT-0500 (Central Daylight Time),641084.6999999881,010_y_f_n_a.png,O,space,1645,2,1,2298.199999988079,638786.5,7106,NNB,A,0
1,test,2,1.0,2-Back,1,z,Thu Mar 27 2025 10:24:21 GMT-0500 (Central Daylight Time),650648.5,045_m_m_n_a.png,O,z,1688,3,1,2714.900000035763,647933.5999999642,7106,NNB,A,1
1,test,2,0.0,2-Back,0,m,Thu Mar 27 2025 10:24:21 GMT-0500 (Central Daylight Time),653180.6999999881,050_m_f_n_a.png,O,z,1472,4,1,2498.800000011921,650681.8999999762,7106,NNB,A,2
1,test,2,0.0,2-Back,0,m,Thu Mar 27 2025 10:24:21 GMT-0500 (Central Daylight Time),656246.2999999523,010_y_f_n_a.png,O,None,2014,5,1,3031.399999976158,653214.8999999762,7106,NNB,A,3
2,test,2,0.0,2-Back,1,m,Thu Mar 27 2025 10:24:21 GMT-0500 (Central Daylight Time),659011.5,046_o_m_n_a.png,O,m,1724,6,1,2735.7000000476837,656275.7999999523,7106,NNB,A,4
3,test,2,0.0,2-Back,1,m,Thu Mar 27 2025 10:24:21 GMT-0500 (Central Daylight Time),661178.0999999642,063_y_f_n_a.png,O,m,1136,7,1,2154.0,659024.0999999642,7106,NNB,A,5
4,test,2,1.0,2-Back,1,z,Thu Mar 27 2025 10:24:21 GMT-0500 (Central Daylight Time),663410.7999999523,046_o_m_n_a.png,O,z,1166,8,1,2199.2999999523163,661211.5,7106,NNB,A,6
5,test,2,0.0,2-Back,1,m,Thu Mar 27 2025 10:24:21 GMT-0500 (Central Daylight Time),665476.7999999523,008_y_m_n_a.png,O,m,1006,9,1,2032.7999999523163,663444.0,7106,NNB,A,7
6,test,2,0.0,2-Back,1,m,Thu Mar 27 2025 10:24:21 GMT-0500 (Central Daylight Time),667942.6999999881,008_y_m_n_a.png,O,m,1412,10,1,2431.400000035763,665511.2999999523,7106,NNB,A,8
7,test,2,0.0,2-Back,1,m,Thu Mar 27 2025 10:24:21 GMT-0500 (Central Daylight Time),670358.3999999762,043_m_f_n_a.png,O,m,1371,11,1,2383.699999988079,667974.6999999881,7106,NNB,A,9
8,test,2,0.0,2-Back,1,m,Thu Mar 27 2025 10:24:21 GMT-0500 (Central Daylight Time),672541.0,010_y_f_n_a.png,O,m,1123,12,1,2149.100000023842,670391.8999999762,7106,NNB,A,10
9,test,2,1.0,2-Back,1,z,Thu Mar 27 2025 10:24:21 GMT-0500 (Central Daylight Time),674657.0999999642,043_m_f_n_a.png,O,z,1068,13,1,2087.899999976158,672569.1999999881,7106,NNB,A,11
10,test,2,0.0,2-Back,1,m,Thu Mar 27 2025 10:24:21 GMT-0500 (Central Daylight Time),676823.0,053_o_m_n_a.png,O,m,1112,14,1,2131.600000023842,674691.3999999762,7106,NNB,A,12
11,test,2,0.0,2-Back,1,m,Thu Mar 27 2025 10:24:21 GMT-0500 (Central Daylight Time),679554.6999999881,053_o_m_n_a.png,O,m,1697,15,1,2700.5,676854.1999999881,7106,NNB,A,13
12,test,2,0.0,2-Back,1,m,Thu Mar 27 2025 10:24:21 GMT-0500 (Central Daylight Time),681871.1999999881,044_o_f_n_a.png,O,m,1288,16,1,2306.600000023842,679564.5999999642,7106,NNB,A,14
13,test,2,0.0,2-Back,1,m,Thu Mar 27 2025 10:24:21 GMT-0500 (Central Daylight Time),684037.1999999881,058_m_m_n_a.png,O,m,1130,17,1,2139.300000011921,681897.8999999762,7106,NNB,A,15
14,test,2,1.0,2-Back,1,z,Thu Mar 27 2025 10:24:21 GMT-0500 (Central Daylight Time),686286.2999999523,044_o_f_n_a.png,O,z,1211,18,1,2225.7999999523163,684060.5,7106,NNB,A,16
0,test,3,1.0,2-Back,,,Thu Mar 27 2025 10:24:21 GMT-0500 (Central Daylight Time),686286.2999999523,041_y_m_n_a.png,O,space,1540,1,1,2225.7999999523163,684060.5,7106,NNB,A,0
0,test,3,1.0,2-Back,,,Thu Mar 27 2025 10:24:21 GMT-0500 (Central Daylight Time),686286.2999999523,041_y_m_n_a.png,O,space,1540,2,1,2225.7999999523163,684060.5,7106,NNB,A,0
1,test,3,0.0,2-Back,1,m,Thu Mar 27 2025 10:24:21 GMT-0500 (Central Daylight Time),694900.6999999881,044_o_f_n_a.png,O,m,882,3,1,1916.4000000357628,692984.2999999523,7106,NNB,A,1
2,test,3,0.0,2-Back,1,m,Thu Mar 27 2025 10:24:21 GMT-0500 (Central Daylight Time),696900.0999999642,045_m_m_n_a.png,O,m,933,4,1,1965.199999988079,694934.8999999762,7106,NNB,A,2
3,test,3,1.0,2-Back,1,z,Thu Mar 27 2025 10:24:21 GMT-0500 (Central Daylight Time),698949.0,044_o_f_n_a.png,O,z,1007,5,1,2021.800000011921,696927.1999999881,7106,NNB,A,3
4,test,3,0.0,2-Back,1,m,Thu Mar 27 2025 10:24:21 GMT-0500 (Central Daylight Time),701280.7999999523,008_y_m_n_a.png,O,m,1266,6,1,2296.399999976158,698984.3999999762,7106,NNB,A,4
5,test,3,0.0,2-Back,1,m,Thu Mar 27 2025 10:24:21 GMT-0500 (Central Daylight Time),703630.7999999523,045_m_m_n_a.png,O,m,1320,7,1,2334.699999988079,701296.0999999642,7106,NNB,A,5
6,test,3,1.0,2-Back,1,z,Thu Mar 27 2025 10:24:21 GMT-0500 (Central Daylight Time),705546.8999999762,008_y_m_n_a.png,O,z,858,8,1,1880.800000011921,703666.0999999642,7106,NNB,A,6
7,test,3,0.0,2-Back,1,m,Thu Mar 27 2025 10:24:21 GMT-0500 (Central Daylight Time),707729.6999999881,010_y_f_n_a.png,O,m,1143,9,1,2156.400000035763,705573.2999999523,7106,NNB,A,7
8,test,3,0.0,2-Back,1,m,Thu Mar 27 2025 10:24:21 GMT-0500 (Central Daylight Time),709895.6999999881,058_m_m_n_a.png,O,m,1120,10,1,2137.800000011921,707757.8999999762,7106,NNB,A,8
9,test,3,1.0,2-Back,1,z,Thu Mar 27 2025 10:24:21 GMT-0500 (Central Daylight Time),711961.5999999642,010_y_f_n_a.png,O,z,1018,11,1,2037.8999999761581,709923.6999999881,7106,NNB,A,9
10,test,3,1.0,2-Back,1,z,Thu Mar 27 2025 10:24:21 GMT-0500 (Central Daylight Time),714110.5999999642,058_m_m_n_a.png,O,z,1112,12,1,2121.099999964237,711989.5,7106,NNB,A,10
11,test,3,0.0,2-Back,1,m,Thu Mar 27 2025 10:24:21 GMT-0500 (Central Daylight Time),716109.8999999762,044_o_f_n_a.png,O,m,962,13,1,1966.3999999761581,714143.5,7106,NNB,A,11
12,test,3,0.0,2-Back,1,m,Thu Mar 27 2025 10:24:21 GMT-0500 (Central Daylight Time),718293.3999999762,050_m_f_n_a.png,O,m,1132,14,1,2149.199999988079,716144.1999999881,7106,NNB,A,12
13,test,3,0.0,2-Back,1,m,Thu Mar 27 2025 10:24:21 GMT-0500 (Central Daylight Time),720225.6999999881,046_o_m_n_a.png,O,m,886,15,1,1907.0,718318.6999999881,7106,NNB,A,13
14,test,3,1.0,2-Back,1,z,Thu Mar 27 2025 10:24:21 GMT-0500 (Central Daylight Time),722258.1999999881,050_m_f_n_a.png,O,z,976,16,1,1997.9000000357628,720260.2999999523,7106,NNB,A,14
15,test,3,0.0,2-Back,1,m,Thu Mar 27 2025 10:24:21 GMT-0500 (Central Daylight Time),724640.5,047_o_f_n_a.png,O,m,1319,17,1,2340.600000023842,722299.8999999762,7106,NNB,A,15
16,test,3,0.0,2-Back,1,m,Thu Mar 27 2025 10:24:21 GMT-0500 (Central Daylight Time),727139.7999999523,047_o_f_n_a.png,O,m,1440,18,1,2461.399999976158,724678.3999999762,7106,NNB,A,16
0,test,4,0.0,2-Back,,,Thu Mar 27 2025 10:24:21 GMT-0500 (Central Daylight Time),727139.7999999523,053_o_m_n_a.png,O,space,1492,1,1,2461.399999976158,724678.3999999762,7106,NNB,A,0
0,test,4,0.0,2-Back,,,Thu Mar 27 2025 10:24:21 GMT-0500 (Central Daylight Time),727139.7999999523,063_y_f_n_a.png,O,space,1492,2,1,2461.399999976158,724678.3999999762,7106,NNB,A,0
1,test,4,1.0,2-Back,1,z,Thu Mar 27 2025 10:24:21 GMT-0500 (Central Daylight Time),735953.7999999523,053_o_m_n_a.png,O,z,1070,3,1,2091.7999999523163,733862.0,7106,NNB,A,1
2,test,4,1.0,2-Back,1,z,Thu Mar 27 2025 10:24:21 GMT-0500 (Central Daylight Time),738070.0,063_y_f_n_a.png,O,z,1081,4,1,2085.300000011921,735984.6999999881,7106,NNB,A,2
3,test,4,0.0,2-Back,1,m,Thu Mar 27 2025 10:24:21 GMT-0500 (Central Daylight Time),739934.6999999881,044_o_f_n_a.png,O,m,804,5,1,1829.699999988079,738105.0,7106,NNB,A,3
4,test,4,0.0,2-Back,1,m,Thu Mar 27 2025 10:24:21 GMT-0500 (Central Daylight Time),742201.3999999762,044_o_f_n_a.png,O,m,1235,6,1,2256.800000011921,739944.5999999642,7106,NNB,A,4
5,test,4,0.0,2-Back,1,m,Thu Mar 27 2025 10:24:21 GMT-0500 (Central Daylight Time),744634.0999999642,043_m_f_n_a.png,O,m,1384,7,1,2405.399999976158,742228.6999999881,7106,NNB,A,5
6,test,4,0.0,2-Back,1,m,Thu Mar 27 2025 10:24:21 GMT-0500 (Central Daylight Time),746668.2999999523,008_y_m_n_a.png,O,m,992,8,1,2008.0999999642372,744660.1999999881,7106,NNB,A,6
7,test,4,1.0,2-Back,1,z,Thu Mar 27 2025 10:24:21 GMT-0500 (Central Daylight Time),748582.6999999881,043_m_f_n_a.png,O,z,848,9,1,1886.6000000238419,746696.0999999642,7106,NNB,A,7
8,test,4,0.0,2-Back,1,m,Thu Mar 27 2025 10:24:21 GMT-0500 (Central Daylight Time),750598.6999999881,058_m_m_n_a.png,O,m,962,10,1,1984.0,748614.6999999881,7106,NNB,A,8
9,test,4,0.0,2-Back,1,m,Thu Mar 27 2025 10:24:21 GMT-0500 (Central Daylight Time),752931.1999999881,008_y_m_n_a.png,O,m,1283,11,1,2304.100000023842,750627.0999999642,7106,NNB,A,9
10,test,4,0.0,2-Back,1,m,Thu Mar 27 2025 10:24:21 GMT-0500 (Central Daylight Time),755046.3999999762,047_o_f_n_a.png,O,m,1052,12,1,2082.199999988079,752964.1999999881,7106,NNB,A,10
11,test,4,0.0,2-Back,1,m,Thu Mar 27 2025 10:24:21 GMT-0500 (Central Daylight Time),756963.2999999523,041_y_m_n_a.png,O,m,866,13,1,1899.0,755064.2999999523,7106,NNB,A,11
11,test,4,1.0,2-Back,0,z,Thu Mar 27 2025 10:24:21 GMT-0500 (Central Daylight Time),759229.1999999881,047_o_f_n_a.png,O,m,1230,14,1,2240.300000011921,756988.8999999762,7106,NNB,A,12
11,test,4,1.0,2-Back,0,z,Thu Mar 27 2025 10:24:21 GMT-0500 (Central Daylight Time),761811.7999999523,041_y_m_n_a.png,O,m,1518,15,1,2548.899999976158,759262.8999999762,7106,NNB,A,13
12,test,4,0.0,2-Back,1,m,Thu Mar 27 2025 10:24:21 GMT-0500 (Central Daylight Time),763911.0,045_m_m_n_a.png,O,m,1037,16,1,2066.7000000476837,761844.2999999523,7106,NNB,A,14
13,test,4,0.0,2-Back,1,m,Thu Mar 27 2025 10:24:21 GMT-0500 (Central Daylight Time),766061.0,050_m_f_n_a.png,O,m,1098,17,1,2116.900000035763,763944.0999999642,7106,NNB,A,15
14,test,4,1.0,2-Back,1,z,Thu Mar 27 2025 10:24:21 GMT-0500 (Central Daylight Time),767892.7999999523,045_m_m_n_a.png,O,z,789,18,1,1807.7999999523163,766085.0,7106,NNB,A,16
0,test,5,1.0,2-Back,,,Thu Mar 27 2025 10:24:21 GMT-0500 (Central Daylight Time),767892.7999999523,041_y_m_n_a.png,O,space,1349,1,1,1807.7999999523163,766085.0,7106,NNB,A,0
0,test,5,1.0,2-Back,,,Thu Mar 27 2025 10:24:21 GMT-0500 (Central Daylight Time),767892.7999999523,050_m_f_n_a.png,O,space,1349,2,1,1807.7999999523163,766085.0,7106,NNB,A,0
1,test,5,1.0,2-Back,1,z,Thu Mar 27 2025 10:24:21 GMT-0500 (Central Daylight Time),776439.7999999523,041_y_m_n_a.png,O,z,1076,3,1,2086.2999999523163,774353.5,7106,NNB,A,1
2,test,5,1.0,2-Back,1,z,Thu Mar 27 2025 10:24:21 GMT-0500 (Central Daylight Time),778973.0,050_m_f_n_a.png,O,z,1482,4,1,2513.300000011921,776459.6999999881,7106,NNB,A,2
3,test,5,0.0,2-Back,1,m,Thu Mar 27 2025 10:24:21 GMT-0500 (Central Daylight Time),780972.0,047_o_f_n_a.png,O,m,940,5,1,1967.300000011921,779004.6999999881,7106,NNB,A,3
4,test,5,0.0,2-Back,1,m,Thu Mar 27 2025 10:24:21 GMT-0500 (Central Daylight Time),783187.8999999762,041_y_m_n_a.png,O,m,1149,6,1,2179.800000011921,781008.0999999642,7106,NNB,A,4
5,test,5,0.0,2-Back,1,m,Thu Mar 27 2025 10:24:21 GMT-0500 (Central Daylight Time),785221.0,010_y_f_n_a.png,O,m,980,7,1,1998.300000011921,783222.6999999881,7106,NNB,A,5
5,test,5,0.0,2-Back,0,m,Thu Mar 27 2025 10:24:21 GMT-0500 (Central Daylight Time),787419.2999999523,047_o_f_n_a.png,O,z,1156,8,1,2172.399999976158,785246.8999999762,7106,NNB,A,6
6,test,5,1.0,2-Back,1,z,Thu Mar 27 2025 10:24:21 GMT-0500 (Central Daylight Time),789752.5999999642,010_y_f_n_a.png,O,z,1302,9,1,2318.0,787434.5999999642,7106,NNB,A,7
7,test,5,0.0,2-Back,1,m,Thu Mar 27 2025 10:24:21 GMT-0500 (Central Daylight Time),791768.3999999762,046_o_m_n_a.png,O,m,977,10,1,1988.1000000238419,789780.2999999523,7106,NNB,A,8
8,test,5,0.0,2-Back,1,m,Thu Mar 27 2025 10:24:21 GMT-0500 (Central Daylight Time),793767.7999999523,043_m_f_n_a.png,O,m,945,11,1,1964.5,791803.2999999523,7106,NNB,A,9
9,test,5,0.0,2-Back,1,m,Thu Mar 27 2025 10:24:21 GMT-0500 (Central Daylight Time),795783.7999999523,058_m_m_n_a.png,O,m,970,12,1,1987.5999999642372,793796.1999999881,7106,NNB,A,10
10,test,5,0.0,2-Back,1,m,Thu Mar 27 2025 10:24:21 GMT-0500 (Central Daylight Time),798050.0999999642,046_o_m_n_a.png,O,m,1217,13,1,2238.599999964237,795811.5,7106,NNB,A,11
11,test,5,1.0,2-Back,1,z,Thu Mar 27 2025 10:24:21 GMT-0500 (Central Daylight Time),800615.5,058_m_m_n_a.png,O,z,1511,14,1,2531.100000023842,798084.3999999762,7106,NNB,A,12
12,test,5,0.0,2-Back,1,m,Thu Mar 27 2025 10:24:21 GMT-0500 (Central Daylight Time),802698.3999999762,063_y_f_n_a.png,O,m,1044,15,1,2055.899999976158,800642.5,7106,NNB,A,13
13,test,5,0.0,2-Back,1,m,Thu Mar 27 2025 10:24:21 GMT-0500 (Central Daylight Time),804697.5999999642,053_o_m_n_a.png,O,m,947,16,1,1964.199999988079,802733.3999999762,7106,NNB,A,14
14,test,5,0.0,2-Back,1,m,Thu Mar 27 2025 10:24:21 GMT-0500 (Central Daylight Time),806713.5999999642,043_m_f_n_a.png,O,m,968,17,1,1991.5999999642372,804722.0,7106,NNB,A,15
15,test,5,1.0,2-Back,1,z,Thu Mar 27 2025 10:24:21 GMT-0500 (Central Daylight Time),808795.8999999762,053_o_m_n_a.png,O,z,1022,18,1,2043.8999999761581,806752.0,7106,NNB,A,16
