acc_sum,block,block_c,change,condition,correct,correct_response,datetime,endtime,face,project,response,response_time,row_sel,session_number,start_end,starttime,subject_id,task,task_vers,trial
0,prac,1,,1-Back,,,Thu Mar 13 2025 17:10:39 GMT-0500 (Central Daylight Time),,012_o_f_d_a.png,O,space,9114,1,1,,,7108,VNB,C,0
0,prac,1,0.0,1-Back,0,m,Thu Mar 13 2025 17:10:39 GMT-0500 (Central Daylight Time),156190.80000000028,022_y_f_n_a.png,O,z,1223,2,1,2093.100000000093,154097.7000000002,7108,VNB,C,1
1,prac,1,0.0,1-Back,1,m,Thu Mar 13 2025 17:10:39 GMT-0500 (Central Daylight Time),158540.80000000028,014_m_m_h_a.png,O,m,1468,3,1,2341.8000000002794,156199.0,7108,VNB,C,2
2,prac,1,0.0,1-Back,1,m,Thu Mar 13 2025 17:10:39 GMT-0500 (Central Daylight Time),160622.2000000002,025_y_m_d_a.png,O,m,1217,4,1,2072.399999999907,158549.80000000028,7108,VNB,C,3
3,prac,1,0.0,1-Back,1,m,Thu Mar 13 2025 17:10:39 GMT-0500 (Central Daylight Time),162555.1000000001,012_o_f_n_a.png,O,m,1053,5,1,1923.2999999998137,160631.80000000028,7108,VNB,C,4
3,prac,1,1.0,1-Back,0,z,Thu Mar 13 2025 17:10:39 GMT-0500 (Central Daylight Time),164323.80000000028,025_y_m_n_a.png,O,m,916,6,1,1759.3000000002794,162564.5,7108,VNB,C,5
4,prac,1,0.0,1-Back,1,m,Thu Mar 13 2025 17:10:39 GMT-0500 (Central Daylight Time),166387.80000000028,015_o_m_h_a.png,O,m,1171,7,1,2054.399999999907,164333.40000000037,7108,VNB,C,6
5,prac,1,0.0,1-Back,1,m,Thu Mar 13 2025 17:10:39 GMT-0500 (Central Daylight Time),168436.6000000001,019_m_f_d_a.png,O,m,1150,8,1,2033.1000000000931,166403.5,7108,VNB,C,7
6,prac,1,1.0,1-Back,1,z,Thu Mar 13 2025 17:10:39 GMT-0500 (Central Daylight Time),170334.90000000037,022_y_f_d_a.png,O,z,1000,9,1,1889.6000000000931,168445.30000000028,7108,VNB,C,8
7,prac,1,0.0,1-Back,1,m,Thu Mar 13 2025 17:10:39 GMT-0500 (Central Daylight Time),172818.5,014_m_m_n_a.png,O,m,1603,10,1,2474.5,170344.0,7108,VNB,C,9
8,prac,1,0.0,1-Back,1,m,Thu Mar 13 2025 17:10:39 GMT-0500 (Central Daylight Time),174802.40000000037,012_o_f_h_a.png,O,m,1094,11,1,1979.4000000003725,172823.0,7108,VNB,C,10
9,prac,1,0.0,1-Back,1,m,Thu Mar 13 2025 17:10:39 GMT-0500 (Central Daylight Time),177034.40000000037,025_y_m_d_a.png,O,m,1354,12,1,2221.100000000093,174813.30000000028,7108,VNB,C,11
0,test,1,0.0,1-Back,,,Thu Mar 13 2025 17:10:39 GMT-0500 (Central Daylight Time),177034.40000000037,022_y_f_d_a.png,O,space,8558,1,1,2221.100000000093,174813.30000000028,7108,VNB,C,0
1,test,1,0.0,1-Back,1,m,Thu Mar 13 2025 17:10:39 GMT-0500 (Central Daylight Time),196610.2000000002,019_m_f_n_a.png,O,m,1251,2,1,2277.7000000001863,194332.5,7108,VNB,C,1
2,test,1,0.0,1-Back,1,m,Thu Mar 13 2025 17:10:39 GMT-0500 (Central Daylight Time),198861.1000000001,015_o_m_h_a.png,O,m,1234,3,1,2243.5,196617.6000000001,7108,VNB,C,2
3,test,1,1.0,1-Back,1,z,Thu Mar 13 2025 17:10:39 GMT-0500 (Central Daylight Time),200710.40000000037,014_m_m_h_a.png,O,z,833,4,1,1841.4000000003725,198869.0,7108,VNB,C,3
4,test,1,0.0,1-Back,1,m,Thu Mar 13 2025 17:10:39 GMT-0500 (Central Daylight Time),202742.0,012_o_f_n_a.png,O,m,1006,5,1,2028.2999999998137,200713.7000000002,7108,VNB,C,4
5,test,1,0.0,1-Back,1,m,Thu Mar 13 2025 17:10:39 GMT-0500 (Central Daylight Time),205323.30000000028,025_y_m_d_a.png,O,m,1550,6,1,2576.8000000002794,202746.5,7108,VNB,C,5
6,test,1,1.0,1-Back,1,z,Thu Mar 13 2025 17:10:39 GMT-0500 (Central Daylight Time),207490.2000000002,019_m_f_d_a.png,O,z,1135,7,1,2162.5,205327.7000000002,7108,VNB,C,6
7,test,1,0.0,1-Back,1,m,Thu Mar 13 2025 17:10:39 GMT-0500 (Central Daylight Time),209439.80000000028,022_y_f_h_a.png,O,m,922,8,1,1941.3999999999069,207498.40000000037,7108,VNB,C,7
8,test,1,0.0,1-Back,1,m,Thu Mar 13 2025 17:10:39 GMT-0500 (Central Daylight Time),211671.30000000028,015_o_m_n_a.png,O,m,1203,9,1,2222.7000000001863,209448.6000000001,7108,VNB,C,8
9,test,1,0.0,1-Back,1,m,Thu Mar 13 2025 17:10:39 GMT-0500 (Central Daylight Time),213971.40000000037,025_y_m_h_a.png,O,m,1275,10,1,2292.9000000003725,211678.5,7108,VNB,C,9
10,test,1,0.0,1-Back,1,m,Thu Mar 13 2025 17:10:39 GMT-0500 (Central Daylight Time),216070.80000000028,015_o_m_d_a.png,O,m,1081,11,1,2092.600000000093,213978.2000000002,7108,VNB,C,10
11,test,1,1.0,1-Back,1,z,Thu Mar 13 2025 17:10:39 GMT-0500 (Central Daylight Time),218552.1000000001,012_o_f_d_a.png,O,z,1463,12,1,2473.5,216078.6000000001,7108,VNB,C,11
12,test,1,0.0,1-Back,1,m,Thu Mar 13 2025 17:10:39 GMT-0500 (Central Daylight Time),221053.30000000028,014_m_m_n_a.png,O,m,1475,13,1,2494.399999999907,218558.90000000037,7108,VNB,C,12
13,test,1,1.0,1-Back,1,z,Thu Mar 13 2025 17:10:39 GMT-0500 (Central Daylight Time),223469.80000000028,022_y_f_n_a.png,O,z,1401,14,1,2408.399999999907,221061.40000000037,7108,VNB,C,13
14,test,1,0.0,1-Back,1,m,Thu Mar 13 2025 17:10:39 GMT-0500 (Central Daylight Time),225616.90000000037,019_m_f_h_a.png,O,m,1127,15,1,2137.7000000001863,223479.2000000002,7108,VNB,C,14
15,test,1,0.0,1-Back,1,m,Thu Mar 13 2025 17:10:39 GMT-0500 (Central Daylight Time),227849.6000000001,014_m_m_d_a.png,O,m,1210,16,1,2225.5,225624.1000000001,7108,VNB,C,15
16,test,1,0.0,1-Back,1,m,Thu Mar 13 2025 17:10:39 GMT-0500 (Central Daylight Time),230033.6000000001,025_y_m_n_a.png,O,m,1162,17,1,2176.5,227857.1000000001,7108,VNB,C,16
17,test,1,0.0,1-Back,1,m,Thu Mar 13 2025 17:10:39 GMT-0500 (Central Daylight Time),232165.1000000001,012_o_f_h_a.png,O,m,1107,18,1,2124.100000000093,230041.0,7108,VNB,C,17
0,test,2,0.0,1-Back,,,Thu Mar 13 2025 17:10:39 GMT-0500 (Central Daylight Time),232165.1000000001,025_y_m_n_a.png,O,space,1239,1,1,2124.100000000093,230041.0,7108,VNB,C,0
1,test,2,0.0,1-Back,1,m,Thu Mar 13 2025 17:10:39 GMT-0500 (Central Daylight Time),237377.7000000002,022_y_f_h_a.png,O,m,924,2,1,1938.8999999999069,235438.80000000028,7108,VNB,C,1
2,test,2,1.0,1-Back,1,m,Thu Mar 13 2025 17:10:39 GMT-0500 (Central Daylight Time),239511.80000000028,015_o_m_n_a.png,O,m,1125,3,1,2131.600000000093,237380.2000000002,7108,VNB,C,2
3,test,2,0.0,1-Back,1,m,Thu Mar 13 2025 17:10:39 GMT-0500 (Central Daylight Time),241528.40000000037,019_m_f_d_a.png,O,m,997,4,1,2010.0,239518.40000000037,7108,VNB,C,3
4,test,2,0.0,1-Back,1,z,Thu Mar 13 2025 17:10:39 GMT-0500 (Central Daylight Time),243578.90000000037,014_m_m_d_a.png,O,z,1018,5,1,2043.8000000002794,241535.1000000001,7108,VNB,C,4
5,test,2,0.0,1-Back,1,m,Thu Mar 13 2025 17:10:39 GMT-0500 (Central Daylight Time),245495.30000000028,025_y_m_h_a.png,O,m,899,6,1,1909.0,243586.30000000028,7108,VNB,C,5
6,test,2,1.0,1-Back,1,z,Thu Mar 13 2025 17:10:39 GMT-0500 (Central Daylight Time),247575.5,012_o_f_h_a.png,O,z,1061,7,1,2073.0999999996275,245502.40000000037,7108,VNB,C,6
7,test,2,0.0,1-Back,1,m,Thu Mar 13 2025 17:10:39 GMT-0500 (Central Daylight Time),249643.30000000028,019_m_f_n_a.png,O,m,1042,8,1,2061.3000000002794,247582.0,7108,VNB,C,7
8,test,2,0.0,1-Back,1,m,Thu Mar 13 2025 17:10:39 GMT-0500 (Central Daylight Time),251858.30000000028,022_y_f_d_a.png,O,m,1192,9,1,2207.3000000002794,249651.0,7108,VNB,C,8
9,test,2,0.0,1-Back,1,m,Thu Mar 13 2025 17:10:39 GMT-0500 (Central Daylight Time),253944.80000000028,014_m_m_n_a.png,O,m,1067,10,1,2080.899999999907,251863.90000000037,7108,VNB,C,9
10,test,2,1.0,1-Back,1,m,Thu Mar 13 2025 17:10:39 GMT-0500 (Central Daylight Time),256057.2000000002,019_m_f_h_a.png,O,m,1084,11,1,2104.399999999907,253952.80000000028,7108,VNB,C,10
11,test,2,0.0,1-Back,1,z,Thu Mar 13 2025 17:10:39 GMT-0500 (Central Daylight Time),258092.0,015_o_m_h_a.png,O,z,1011,12,1,2028.5,256063.5,7108,VNB,C,11
12,test,2,0.0,1-Back,1,m,Thu Mar 13 2025 17:10:39 GMT-0500 (Central Daylight Time),260057.1000000001,025_y_m_d_a.png,O,m,937,13,1,1957.5,258099.6000000001,7108,VNB,C,12
13,test,2,0.0,1-Back,1,m,Thu Mar 13 2025 17:10:39 GMT-0500 (Central Daylight Time),262638.7000000002,012_o_f_n_a.png,O,m,1553,14,1,2573.2000000001863,260065.5,7108,VNB,C,13
14,test,2,0.0,1-Back,1,z,Thu Mar 13 2025 17:10:39 GMT-0500 (Central Daylight Time),264875.1000000001,022_y_f_n_a.png,O,z,1204,15,1,2228.399999999907,262646.7000000002,7108,VNB,C,14
15,test,2,1.0,1-Back,1,m,Thu Mar 13 2025 17:10:39 GMT-0500 (Central Daylight Time),267039.0,014_m_m_h_a.png,O,m,1150,16,1,2159.899999999907,264879.1000000001,7108,VNB,C,15
16,test,2,0.0,1-Back,1,m,Thu Mar 13 2025 17:10:39 GMT-0500 (Central Daylight Time),269254.6000000001,012_o_f_d_a.png,O,m,1198,17,1,2208.2999999998137,267046.3000000003,7108,VNB,C,16
17,test,2,1.0,1-Back,1,z,Thu Mar 13 2025 17:10:39 GMT-0500 (Central Daylight Time),271835.4000000004,015_o_m_d_a.png,O,z,1557,18,1,2574.9000000003725,269260.5,7108,VNB,C,17
0,test,3,1.0,1-Back,,,Thu Mar 13 2025 17:10:39 GMT-0500 (Central Daylight Time),271835.4000000004,012_o_f_h_a.png,O,space,2869,1,1,2574.9000000003725,269260.5,7108,VNB,C,0
1,test,3,0.0,1-Back,1,m,Thu Mar 13 2025 17:10:39 GMT-0500 (Central Daylight Time),278734.9000000004,019_m_f_d_a.png,O,m,901,2,1,1911.2000000001863,276823.7000000002,7108,VNB,C,1
2,test,3,1.0,1-Back,1,m,Thu Mar 13 2025 17:10:39 GMT-0500 (Central Daylight Time),280752.4000000004,014_m_m_n_a.png,O,m,1000,3,1,2011.8000000002794,278740.6000000001,7108,VNB,C,2
3,test,3,0.0,1-Back,1,z,Thu Mar 13 2025 17:10:39 GMT-0500 (Central Daylight Time),282881.6000000001,012_o_f_n_a.png,O,z,1110,4,1,2121.5,280760.1000000001,7108,VNB,C,3
4,test,3,1.0,1-Back,1,m,Thu Mar 13 2025 17:10:39 GMT-0500 (Central Daylight Time),284750.0,015_o_m_d_a.png,O,m,832,5,1,1860.2999999998137,282889.7000000002,7108,VNB,C,4
5,test,3,0.0,1-Back,1,m,Thu Mar 13 2025 17:10:39 GMT-0500 (Central Daylight Time),287014.7000000002,022_y_f_h_a.png,O,m,1247,6,1,2256.100000000093,284758.6000000001,7108,VNB,C,5
6,test,3,0.0,1-Back,1,z,Thu Mar 13 2025 17:10:39 GMT-0500 (Central Daylight Time),289146.5,025_y_m_h_a.png,O,z,1100,7,1,2127.7999999998137,287018.7000000002,7108,VNB,C,6
7,test,3,0.0,1-Back,1,m,Thu Mar 13 2025 17:10:39 GMT-0500 (Central Daylight Time),291080.8000000003,019_m_f_n_a.png,O,m,905,8,1,1927.8999999999069,289152.9000000004,7108,VNB,C,7
8,test,3,0.0,1-Back,1,m,Thu Mar 13 2025 17:10:39 GMT-0500 (Central Daylight Time),293145.9000000004,022_y_f_d_a.png,O,m,1044,9,1,2056.0,291089.9000000004,7108,VNB,C,8
9,test,3,1.0,1-Back,1,m,Thu Mar 13 2025 17:10:39 GMT-0500 (Central Daylight Time),295297.7000000002,015_o_m_n_a.png,O,m,1121,10,1,2141.7999999998137,293155.9000000004,7108,VNB,C,9
10,test,3,0.0,1-Back,1,m,Thu Mar 13 2025 17:10:39 GMT-0500 (Central Daylight Time),297461.3000000003,014_m_m_h_a.png,O,m,1139,11,1,2155.899999999907,295305.4000000004,7108,VNB,C,10
11,test,3,0.0,1-Back,1,z,Thu Mar 13 2025 17:10:39 GMT-0500 (Central Daylight Time),299462.0,019_m_f_h_a.png,O,z,973,12,1,1990.8999999999069,297471.1000000001,7108,VNB,C,11
12,test,3,1.0,1-Back,1,m,Thu Mar 13 2025 17:10:39 GMT-0500 (Central Daylight Time),301593.0,012_o_f_d_a.png,O,m,1101,13,1,2123.2999999998137,299469.7000000002,7108,VNB,C,12
13,test,3,0.0,1-Back,1,z,Thu Mar 13 2025 17:10:39 GMT-0500 (Central Daylight Time),304310.4000000004,014_m_m_d_a.png,O,z,1699,14,1,2709.2000000001863,301601.2000000002,7108,VNB,C,13
14,test,3,0.0,1-Back,1,m,Thu Mar 13 2025 17:10:39 GMT-0500 (Central Daylight Time),306192.1000000001,025_y_m_n_a.png,O,m,853,15,1,1874.2999999998137,304317.8000000003,7108,VNB,C,14
15,test,3,1.0,1-Back,1,m,Thu Mar 13 2025 17:10:39 GMT-0500 (Central Daylight Time),308390.7000000002,015_o_m_h_a.png,O,m,1169,16,1,2191.0,306199.7000000002,7108,VNB,C,15
16,test,3,0.0,1-Back,1,m,Thu Mar 13 2025 17:10:39 GMT-0500 (Central Daylight Time),310475.10000000056,025_y_m_d_a.png,O,m,1060,17,1,2077.9000000003725,308397.2000000002,7108,VNB,C,16
17,test,3,1.0,1-Back,1,m,Thu Mar 13 2025 17:10:39 GMT-0500 (Central Daylight Time),313108.60000000056,022_y_f_n_a.png,O,m,1601,18,1,2623.2000000001863,310485.4000000004,7108,VNB,C,17
0,test,4,1.0,1-Back,,,Thu Mar 13 2025 17:10:39 GMT-0500 (Central Daylight Time),313108.60000000056,014_m_m_d_a.png,O,space,1934,1,1,2623.2000000001863,310485.4000000004,7108,VNB,C,0
1,test,4,0.0,1-Back,1,z,Thu Mar 13 2025 17:10:39 GMT-0500 (Central Daylight Time),319337.7999999998,015_o_m_d_a.png,O,z,1135,2,1,2160.7999999998137,317177.0,7108,VNB,C,1
2,test,4,0.0,1-Back,1,m,Thu Mar 13 2025 17:10:39 GMT-0500 (Central Daylight Time),321221.7999999998,025_y_m_h_a.png,O,m,850,3,1,1875.5999999996275,319346.2000000002,7108,VNB,C,2
3,test,4,0.0,1-Back,1,m,Thu Mar 13 2025 17:10:39 GMT-0500 (Central Daylight Time),323336.2000000002,019_m_f_n_a.png,O,m,1086,4,1,2106.5,321229.7000000002,7108,VNB,C,3
4,test,4,1.0,1-Back,1,m,Thu Mar 13 2025 17:10:39 GMT-0500 (Central Daylight Time),325417.7000000002,012_o_f_h_a.png,O,m,1050,5,1,2073.4000000003725,323344.2999999998,7108,VNB,C,4
5,test,4,0.0,1-Back,1,m,Thu Mar 13 2025 17:10:39 GMT-0500 (Central Daylight Time),327501.9000000004,014_m_m_n_a.png,O,m,1056,6,1,2078.2000000001863,325423.7000000002,7108,VNB,C,5
6,test,4,0.0,1-Back,1,m,Thu Mar 13 2025 17:10:39 GMT-0500 (Central Daylight Time),329767.2999999998,025_y_m_d_a.png,O,m,1248,7,1,2258.199999999255,327509.10000000056,7108,VNB,C,6
7,test,4,1.0,1-Back,1,z,Thu Mar 13 2025 17:10:39 GMT-0500 (Central Daylight Time),331866.9000000004,022_y_f_d_a.png,O,z,1075,8,1,2089.5,329777.4000000004,7108,VNB,C,7
8,test,4,0.0,1-Back,1,m,Thu Mar 13 2025 17:10:39 GMT-0500 (Central Daylight Time),333767.60000000056,019_m_f_h_a.png,O,m,882,9,1,1894.2000000001863,331873.4000000004,7108,VNB,C,8
9,test,4,0.0,1-Back,1,z,Thu Mar 13 2025 17:10:39 GMT-0500 (Central Daylight Time),335862.9000000004,015_o_m_h_a.png,O,z,1068,10,1,2087.2000000001863,333775.7000000002,7108,VNB,C,9
10,test,4,1.0,1-Back,1,m,Thu Mar 13 2025 17:10:39 GMT-0500 (Central Daylight Time),337848.5,012_o_f_n_a.png,O,m,955,11,1,1981.2000000001863,335867.2999999998,7108,VNB,C,10
11,test,4,0.0,1-Back,1,m,Thu Mar 13 2025 17:10:39 GMT-0500 (Central Daylight Time),339982.7999999998,019_m_f_d_a.png,O,m,1117,12,1,2125.5,337857.2999999998,7108,VNB,C,11
12,test,4,0.0,1-Back,1,m,Thu Mar 13 2025 17:10:39 GMT-0500 (Central Daylight Time),342063.2000000002,022_y_f_n_a.png,O,m,1064,13,1,2072.2000000001863,339991.0,7108,VNB,C,12
12,test,4,0.0,1-Back,0,m,Thu Mar 13 2025 17:10:39 GMT-0500 (Central Daylight Time),344830.9000000004,012_o_f_d_a.png,O,z,1750,14,1,2759.600000000559,342071.2999999998,7108,VNB,C,13
13,test,4,0.0,1-Back,1,m,Thu Mar 13 2025 17:10:39 GMT-0500 (Central Daylight Time),346880.0,022_y_f_h_a.png,O,m,1033,15,1,2040.3999999994412,344839.60000000056,7108,VNB,C,14
14,test,4,1.0,1-Back,1,z,Thu Mar 13 2025 17:10:39 GMT-0500 (Central Daylight Time),348910.7000000002,014_m_m_h_a.png,O,z,1011,16,1,2023.2999999998137,346887.4000000004,7108,VNB,C,15
15,test,4,0.0,1-Back,1,m,Thu Mar 13 2025 17:10:39 GMT-0500 (Central Daylight Time),350794.0,015_o_m_n_a.png,O,m,861,17,1,1874.0999999996275,348919.9000000004,7108,VNB,C,16
15,test,4,1.0,1-Back,0,z,Thu Mar 13 2025 17:10:39 GMT-0500 (Central Daylight Time),353358.7999999998,025_y_m_n_a.png,O,m,1537,18,1,2556.7999999998137,350802.0,7108,VNB,C,17
0,test,5,1.0,1-Back,,,Thu Mar 13 2025 17:10:39 GMT-0500 (Central Daylight Time),353358.7999999998,015_o_m_n_a.png,O,space,1093,1,1,2556.7999999998137,350802.0,7108,VNB,C,0
1,test,5,1.0,1-Back,1,m,Thu Mar 13 2025 17:10:39 GMT-0500 (Central Daylight Time),358494.60000000056,012_o_f_h_a.png,O,m,982,2,1,2011.6000000005588,356483.0,7108,VNB,C,1
2,test,5,0.0,1-Back,1,m,Thu Mar 13 2025 17:10:39 GMT-0500 (Central Daylight Time),360557.10000000056,025_y_m_d_a.png,O,m,1047,3,1,2049.9000000003725,358507.2000000002,7108,VNB,C,2
3,test,5,0.0,1-Back,1,z,Thu Mar 13 2025 17:10:39 GMT-0500 (Central Daylight Time),362707.5,015_o_m_d_a.png,O,z,1116,4,1,2143.7999999998137,360563.7000000002,7108,VNB,C,3
4,test,5,0.0,1-Back,1,m,Thu Mar 13 2025 17:10:39 GMT-0500 (Central Daylight Time),364589.9000000004,019_m_f_h_a.png,O,m,856,5,1,1873.9000000003725,362716.0,7108,VNB,C,4
5,test,5,0.0,1-Back,1,m,Thu Mar 13 2025 17:10:39 GMT-0500 (Central Daylight Time),366674.5,022_y_f_n_a.png,O,m,1064,6,1,2075.899999999441,364598.60000000056,7108,VNB,C,5
6,test,5,1.0,1-Back,1,z,Thu Mar 13 2025 17:10:39 GMT-0500 (Central Daylight Time),368838.7999999998,012_o_f_n_a.png,O,z,1140,7,1,2157.2999999998137,366681.5,7108,VNB,C,6
7,test,5,0.0,1-Back,1,m,Thu Mar 13 2025 17:10:39 GMT-0500 (Central Daylight Time),370704.2000000002,019_m_f_d_a.png,O,m,844,8,1,1858.2999999998137,368845.9000000004,7108,VNB,C,7
8,test,5,0.0,1-Back,1,m,Thu Mar 13 2025 17:10:39 GMT-0500 (Central Daylight Time),372836.7000000002,025_y_m_h_a.png,O,m,1107,9,1,2125.7999999998137,370710.9000000004,7108,VNB,C,8
9,test,5,0.0,1-Back,1,m,Thu Mar 13 2025 17:10:39 GMT-0500 (Central Daylight Time),374805.2999999998,022_y_f_d_a.png,O,m,934,10,1,1960.7999999998137,372844.5,7108,VNB,C,9
10,test,5,0.0,1-Back,1,m,Thu Mar 13 2025 17:10:39 GMT-0500 (Central Daylight Time),377235.60000000056,014_m_m_n_a.png,O,m,1406,11,1,2423.0,374812.60000000056,7108,VNB,C,10
11,test,5,1.0,1-Back,1,z,Thu Mar 13 2025 17:10:39 GMT-0500 (Central Daylight Time),379418.2999999998,019_m_f_n_a.png,O,z,1159,12,1,2175.899999999441,377242.4000000004,7108,VNB,C,11
12,test,5,0.0,1-Back,1,m,Thu Mar 13 2025 17:10:39 GMT-0500 (Central Daylight Time),382050.10000000056,015_o_m_h_a.png,O,m,1607,13,1,2624.800000000745,379425.2999999998,7108,VNB,C,12
13,test,5,0.0,1-Back,1,z,Thu Mar 13 2025 17:10:39 GMT-0500 (Central Daylight Time),384017.5,014_m_m_h_a.png,O,z,936,14,1,1965.0,382052.5,7108,VNB,C,13
14,test,5,1.0,1-Back,1,m,Thu Mar 13 2025 17:10:39 GMT-0500 (Central Daylight Time),386082.9000000004,012_o_f_d_a.png,O,m,1033,15,1,2057.9000000003725,384025.0,7108,VNB,C,14
15,test,5,0.0,1-Back,1,m,Thu Mar 13 2025 17:10:39 GMT-0500 (Central Daylight Time),388334.5,025_y_m_n_a.png,O,m,1233,16,1,2243.5999999996275,386090.9000000004,7108,VNB,C,15
16,test,5,0.0,1-Back,1,m,Thu Mar 13 2025 17:10:39 GMT-0500 (Central Daylight Time),390432.2999999998,022_y_f_h_a.png,O,m,1071,17,1,2090.199999999255,388342.10000000056,7108,VNB,C,16
17,test,5,0.0,1-Back,1,m,Thu Mar 13 2025 17:10:39 GMT-0500 (Central Daylight Time),392365.4000000004,014_m_m_d_a.png,O,m,908,18,1,1926.0,390439.4000000004,7108,VNB,C,17
0,prac,1,0.0,2-Back,,,Thu Mar 13 2025 17:10:39 GMT-0500 (Central Daylight Time),392365.4000000004,019_m_f_n_a.png,O,space,7686,1,1,1926.0,390439.4000000004,7108,VNB,C,0
0,prac,1,0.0,2-Back,,,Thu Mar 13 2025 17:10:39 GMT-0500 (Central Daylight Time),392365.4000000004,012_o_f_h_a.png,O,space,7686,2,1,1926.0,390439.4000000004,7108,VNB,C,0
1,prac,1,0.0,2-Back,1,m,Thu Mar 13 2025 17:10:39 GMT-0500 (Central Daylight Time),508993.2999999998,015_o_m_d_a.png,O,m,1381,3,1,2255.899999999441,506737.4000000004,7108,VNB,C,1
1,prac,1,1.0,2-Back,0,z,Thu Mar 13 2025 17:10:39 GMT-0500 (Central Daylight Time),511860.4000000004,014_m_m_h_a.png,O,None,2004,4,1,2857.7999999998137,509002.60000000056,7108,VNB,C,2
2,prac,1,0.0,2-Back,1,m,Thu Mar 13 2025 17:10:39 GMT-0500 (Central Daylight Time),514176.9000000004,022_y_f_n_a.png,O,m,1416,5,1,2304.7999999998137,511872.10000000056,7108,VNB,C,3
3,prac,1,1.0,2-Back,1,z,Thu Mar 13 2025 17:10:39 GMT-0500 (Central Daylight Time),516307.9000000004,015_o_m_h_a.png,O,z,1238,6,1,2122.4000000003725,514185.5,7108,VNB,C,4
4,prac,1,1.0,2-Back,1,z,Thu Mar 13 2025 17:10:39 GMT-0500 (Central Daylight Time),518424.9000000004,025_y_m_n_a.png,O,z,1240,7,1,2107.0,516317.9000000004,7108,VNB,C,5
5,prac,1,0.0,2-Back,1,m,Thu Mar 13 2025 17:10:39 GMT-0500 (Central Daylight Time),520508.2999999998,019_m_f_d_a.png,O,m,1196,8,1,2074.699999999255,518433.60000000056,7108,VNB,C,6
6,prac,1,0.0,2-Back,1,m,Thu Mar 13 2025 17:10:39 GMT-0500 (Central Daylight Time),522706.0,012_o_f_d_a.png,O,m,1320,9,1,2188.5,520517.5,7108,VNB,C,7
7,prac,1,0.0,2-Back,1,m,Thu Mar 13 2025 17:10:39 GMT-0500 (Central Daylight Time),524789.9000000004,014_m_m_h_a.png,O,m,1296,10,1,2073.7999999998137,522716.10000000056,7108,VNB,C,8
8,prac,1,1.0,2-Back,1,z,Thu Mar 13 2025 17:10:39 GMT-0500 (Central Daylight Time),526805.5,022_y_f_d_a.png,O,z,1131,11,1,2006.3999999994412,524799.1000000006,7108,VNB,C,9
9,prac,1,0.0,2-Back,1,m,Thu Mar 13 2025 17:10:39 GMT-0500 (Central Daylight Time),528772.4000000004,015_o_m_n_a.png,O,m,1070,12,1,1961.2000000001863,526811.2000000002,7108,VNB,C,10
0,test,1,0.0,2-Back,,,Thu Mar 13 2025 17:10:39 GMT-0500 (Central Daylight Time),528772.4000000004,025_y_m_h_a.png,O,space,14575,1,1,1961.2000000001863,526811.2000000002,7108,VNB,C,0
0,test,1,0.0,2-Back,,,Thu Mar 13 2025 17:10:39 GMT-0500 (Central Daylight Time),528772.4000000004,012_o_f_n_a.png,O,space,14575,2,1,1961.2000000001863,526811.2000000002,7108,VNB,C,0
1,test,1,0.0,2-Back,1,z,Thu Mar 13 2025 17:10:39 GMT-0500 (Central Daylight Time),556427.7000000002,015_o_m_h_a.png,O,z,765,3,1,1775.0,554652.7000000002,7108,VNB,C,1
1,test,1,0.0,2-Back,0,m,Thu Mar 13 2025 17:10:39 GMT-0500 (Central Daylight Time),559461.7999999998,019_m_f_d_a.png,O,None,2016,4,1,3029.199999999255,556432.6000000006,7108,VNB,C,2
1,test,1,1.0,2-Back,0,m,Thu Mar 13 2025 17:10:39 GMT-0500 (Central Daylight Time),562160.5,025_y_m_n_a.png,O,z,1670,5,1,2691.7999999998137,559468.7000000002,7108,VNB,C,3
2,test,1,0.0,2-Back,1,z,Thu Mar 13 2025 17:10:39 GMT-0500 (Central Daylight Time),564343.7999999998,022_y_f_d_a.png,O,z,1164,6,1,2176.5,562167.2999999998,7108,VNB,C,4
3,test,1,0.0,2-Back,1,m,Thu Mar 13 2025 17:10:39 GMT-0500 (Central Daylight Time),567042.7000000002,014_m_m_h_a.png,O,m,1676,7,1,2692.2000000001863,564350.5,7108,VNB,C,5
4,test,1,1.0,2-Back,1,m,Thu Mar 13 2025 17:10:39 GMT-0500 (Central Daylight Time),569758.6000000006,022_y_f_n_a.png,O,m,1698,8,1,2708.7000000001863,567049.9000000004,7108,VNB,C,6
5,test,1,0.0,2-Back,1,z,Thu Mar 13 2025 17:10:39 GMT-0500 (Central Daylight Time),572240.7999999998,012_o_f_h_a.png,O,z,1455,9,1,2474.899999999441,569765.9000000004,7108,VNB,C,7
6,test,1,0.0,2-Back,1,m,Thu Mar 13 2025 17:10:39 GMT-0500 (Central Daylight Time),574840.6000000006,015_o_m_d_a.png,O,m,1581,10,1,2591.300000000745,572249.2999999998,7108,VNB,C,8
7,test,1,1.0,2-Back,1,m,Thu Mar 13 2025 17:10:39 GMT-0500 (Central Daylight Time),577373.7999999998,014_m_m_d_a.png,O,m,1516,11,1,2525.899999999441,574847.9000000004,7108,VNB,C,9
8,test,1,0.0,2-Back,1,m,Thu Mar 13 2025 17:10:39 GMT-0500 (Central Daylight Time),579988.9000000004,019_m_f_n_a.png,O,m,1583,12,1,2606.7999999998137,577382.1000000006,7108,VNB,C,10
9,test,1,0.0,2-Back,1,m,Thu Mar 13 2025 17:10:39 GMT-0500 (Central Daylight Time),582720.4000000004,022_y_f_h_a.png,O,m,1711,13,1,2723.2000000001863,579997.2000000002,7108,VNB,C,11
10,test,1,0.0,2-Back,1,z,Thu Mar 13 2025 17:10:39 GMT-0500 (Central Daylight Time),585370.1000000006,014_m_m_n_a.png,O,z,1618,14,1,2642.0,582728.1000000006,7108,VNB,C,12
11,test,1,0.0,2-Back,1,m,Thu Mar 13 2025 17:10:39 GMT-0500 (Central Daylight Time),587784.2999999998,025_y_m_d_a.png,O,m,1393,15,1,2407.899999999441,585376.4000000004,7108,VNB,C,13
11,test,1,1.0,2-Back,0,m,Thu Mar 13 2025 17:10:39 GMT-0500 (Central Daylight Time),590817.7999999998,019_m_f_h_a.png,O,None,2015,16,1,3026.199999999255,587791.6000000006,7108,VNB,C,14
11,test,1,0.0,2-Back,0,z,Thu Mar 13 2025 17:10:39 GMT-0500 (Central Daylight Time),591900.5,012_o_f_d_a.png,O,m,58,17,1,1076.0,590824.5,7108,VNB,C,15
12,test,1,0.0,2-Back,1,m,Thu Mar 13 2025 17:10:39 GMT-0500 (Central Daylight Time),594616.7999999998,015_o_m_n_a.png,O,m,1694,18,1,2710.0,591906.7999999998,7108,VNB,C,16
0,test,2,0.0,2-Back,,,Thu Mar 13 2025 17:10:39 GMT-0500 (Central Daylight Time),594616.7999999998,014_m_m_h_a.png,O,space,1332,1,1,2710.0,591906.7999999998,7108,VNB,C,0
0,test,2,0.0,2-Back,,,Thu Mar 13 2025 17:10:39 GMT-0500 (Central Daylight Time),594616.7999999998,022_y_f_n_a.png,O,space,1332,2,1,2710.0,591906.7999999998,7108,VNB,C,0
1,test,2,1.0,2-Back,1,z,Thu Mar 13 2025 17:10:39 GMT-0500 (Central Daylight Time),603280.7000000002,012_o_f_h_a.png,O,z,1070,3,1,2091.0,601189.7000000002,7108,VNB,C,1
2,test,2,0.0,2-Back,1,m,Thu Mar 13 2025 17:10:39 GMT-0500 (Central Daylight Time),605929.9000000004,015_o_m_d_a.png,O,m,1616,4,1,2642.7999999998137,603287.1000000006,7108,VNB,C,2
2,test,2,0.0,2-Back,0,m,Thu Mar 13 2025 17:10:39 GMT-0500 (Central Daylight Time),608962.7999999998,019_m_f_d_a.png,O,None,2014,5,1,3025.5,605937.2999999998,7108,VNB,C,3
3,test,2,0.0,2-Back,1,m,Thu Mar 13 2025 17:10:39 GMT-0500 (Central Daylight Time),611544.1000000006,025_y_m_h_a.png,O,m,1552,6,1,2573.2000000001863,608970.9000000004,7108,VNB,C,4
4,test,2,0.0,2-Back,1,m,Thu Mar 13 2025 17:10:39 GMT-0500 (Central Daylight Time),614161.0,012_o_f_n_a.png,O,m,1581,7,1,2610.5,611550.5,7108,VNB,C,5
4,test,2,1.0,2-Back,0,z,Thu Mar 13 2025 17:10:39 GMT-0500 (Central Daylight Time),616943.2000000002,015_o_m_h_a.png,O,m,1754,8,1,2774.9000000003725,614168.2999999998,7108,VNB,C,6
5,test,2,0.0,2-Back,1,m,Thu Mar 13 2025 17:10:39 GMT-0500 (Central Daylight Time),619591.6000000006,022_y_f_d_a.png,O,m,1627,9,1,2641.4000000003725,616950.2000000002,7108,VNB,C,7
6,test,2,0.0,2-Back,1,m,Thu Mar 13 2025 17:10:39 GMT-0500 (Central Daylight Time),622208.5,025_y_m_d_a.png,O,m,1595,10,1,2609.7000000001863,619598.7999999998,7108,VNB,C,8
7,test,2,0.0,2-Back,1,m,Thu Mar 13 2025 17:10:39 GMT-0500 (Central Daylight Time),625007.1000000006,014_m_m_n_a.png,O,m,1773,11,1,2790.800000000745,622216.2999999998,7108,VNB,C,9
8,test,2,0.0,2-Back,1,m,Thu Mar 13 2025 17:10:39 GMT-0500 (Central Daylight Time),627623.0,019_m_f_h_a.png,O,m,1587,12,1,2608.5999999996275,625014.4000000004,7108,VNB,C,10
9,test,2,1.0,2-Back,1,z,Thu Mar 13 2025 17:10:39 GMT-0500 (Central Daylight Time),629921.9000000004,015_o_m_n_a.png,O,z,1277,13,1,2291.5,627630.4000000004,7108,VNB,C,11
10,test,2,0.0,2-Back,1,m,Thu Mar 13 2025 17:10:39 GMT-0500 (Central Daylight Time),632522.1000000006,012_o_f_d_a.png,O,m,1576,14,1,2592.300000000745,629929.7999999998,7108,VNB,C,12
11,test,2,0.0,2-Back,1,m,Thu Mar 13 2025 17:10:39 GMT-0500 (Central Daylight Time),635020.2000000002,022_y_f_h_a.png,O,m,1482,15,1,2489.2999999998137,632530.9000000004,7108,VNB,C,13
11,test,2,0.0,2-Back,0,z,Thu Mar 13 2025 17:10:39 GMT-0500 (Central Daylight Time),638001.9000000004,014_m_m_d_a.png,O,m,1950,16,1,2976.2999999998137,635025.6000000006,7108,VNB,C,14
12,test,2,0.0,2-Back,1,m,Thu Mar 13 2025 17:10:39 GMT-0500 (Central Daylight Time),640286.1000000006,025_y_m_n_a.png,O,m,1267,17,1,2276.7000000001863,638009.4000000004,7108,VNB,C,15
13,test,2,1.0,2-Back,1,m,Thu Mar 13 2025 17:10:39 GMT-0500 (Central Daylight Time),642486.2999999998,019_m_f_n_a.png,O,m,1174,18,1,2196.399999999441,640289.9000000004,7108,VNB,C,16
0,test,3,1.0,2-Back,,,Thu Mar 13 2025 17:10:39 GMT-0500 (Central Daylight Time),642486.2999999998,015_o_m_n_a.png,O,space,1188,1,1,2196.399999999441,640289.9000000004,7108,VNB,C,0
0,test,3,1.0,2-Back,,,Thu Mar 13 2025 17:10:39 GMT-0500 (Central Daylight Time),642486.2999999998,012_o_f_d_a.png,O,space,1188,2,1,2196.399999999441,640289.9000000004,7108,VNB,C,0
1,test,3,0.0,2-Back,1,m,Thu Mar 13 2025 17:10:39 GMT-0500 (Central Daylight Time),650815.6000000006,022_y_f_h_a.png,O,m,1052,3,1,2072.4000000003725,648743.2000000002,7108,VNB,C,1
1,test,3,0.0,2-Back,0,z,Thu Mar 13 2025 17:10:39 GMT-0500 (Central Daylight Time),653681.4000000004,019_m_f_d_a.png,O,m,1842,4,1,2861.5,650819.9000000004,7108,VNB,C,2
2,test,3,1.0,2-Back,1,m,Thu Mar 13 2025 17:10:39 GMT-0500 (Central Daylight Time),656313.7999999998,025_y_m_n_a.png,O,m,1601,5,1,2627.0999999996275,653686.7000000002,7108,VNB,C,3
2,test,3,0.0,2-Back,0,m,Thu Mar 13 2025 17:10:39 GMT-0500 (Central Daylight Time),658930.5,015_o_m_h_a.png,O,z,1593,6,1,2608.0,656322.5,7108,VNB,C,4
3,test,3,0.0,2-Back,1,z,Thu Mar 13 2025 17:10:39 GMT-0500 (Central Daylight Time),661496.1000000006,022_y_f_n_a.png,O,z,1547,7,1,2558.100000000559,658938.0,7108,VNB,C,5
4,test,3,1.0,2-Back,1,m,Thu Mar 13 2025 17:10:39 GMT-0500 (Central Daylight Time),664125.6000000006,014_m_m_d_a.png,O,m,1600,8,1,2625.2000000001863,661500.4000000004,7108,VNB,C,6
5,test,3,0.0,2-Back,1,m,Thu Mar 13 2025 17:10:39 GMT-0500 (Central Daylight Time),667093.7000000002,025_y_m_d_a.png,O,m,1931,9,1,2965.2000000001863,664128.5,7108,VNB,C,7
6,test,3,0.0,2-Back,1,m,Thu Mar 13 2025 17:10:39 GMT-0500 (Central Daylight Time),669662.4000000004,012_o_f_h_a.png,O,m,1549,10,1,2561.7999999998137,667100.6000000006,7108,VNB,C,8
7,test,3,1.0,2-Back,1,m,Thu Mar 13 2025 17:10:39 GMT-0500 (Central Daylight Time),672358.7000000002,019_m_f_n_a.png,O,m,1672,11,1,2687.5,669671.2000000002,7108,VNB,C,9
8,test,3,1.0,2-Back,1,z,Thu Mar 13 2025 17:10:39 GMT-0500 (Central Daylight Time),674957.7999999998,014_m_m_h_a.png,O,z,1574,12,1,2591.199999999255,672366.6000000006,7108,VNB,C,10
8,test,3,0.0,2-Back,0,m,Thu Mar 13 2025 17:10:39 GMT-0500 (Central Daylight Time),677758.2000000002,022_y_f_d_a.png,O,z,1783,13,1,2793.5,674964.7000000002,7108,VNB,C,11
8,test,3,0.0,2-Back,0,m,Thu Mar 13 2025 17:10:39 GMT-0500 (Central Daylight Time),680789.4000000004,012_o_f_n_a.png,O,None,2015,14,1,3022.2000000001863,677767.2000000002,7108,VNB,C,12
8,test,3,0.0,2-Back,0,z,Thu Mar 13 2025 17:10:39 GMT-0500 (Central Daylight Time),683254.7999999998,015_o_m_d_a.png,O,m,1437,15,1,2457.899999999441,680796.9000000004,7108,VNB,C,13
9,test,3,1.0,2-Back,1,m,Thu Mar 13 2025 17:10:39 GMT-0500 (Central Daylight Time),686171.9000000004,019_m_f_h_a.png,O,m,1885,16,1,2909.2000000001863,683262.7000000002,7108,VNB,C,14
10,test,3,0.0,2-Back,1,m,Thu Mar 13 2025 17:10:39 GMT-0500 (Central Daylight Time),688489.0,014_m_m_n_a.png,O,m,1300,17,1,2308.0999999996275,686180.9000000004,7108,VNB,C,15
10,test,3,0.0,2-Back,0,z,Thu Mar 13 2025 17:10:39 GMT-0500 (Central Daylight Time),691136.6000000006,025_y_m_h_a.png,O,m,1619,18,1,2640.2000000001863,688496.4000000004,7108,VNB,C,16
0,test,4,0.0,2-Back,,,Thu Mar 13 2025 17:10:39 GMT-0500 (Central Daylight Time),691136.6000000006,019_m_f_n_a.png,O,space,1549,1,1,2640.2000000001863,688496.4000000004,7108,VNB,C,0
0,test,4,0.0,2-Back,,,Thu Mar 13 2025 17:10:39 GMT-0500 (Central Daylight Time),691136.6000000006,015_o_m_n_a.png,O,space,1549,2,1,2640.2000000001863,688496.4000000004,7108,VNB,C,0
1,test,4,1.0,2-Back,1,m,Thu Mar 13 2025 17:10:39 GMT-0500 (Central Daylight Time),700165.7000000002,025_y_m_h_a.png,O,m,1173,3,1,2194.0999999996275,697971.6000000006,7108,VNB,C,1
1,test,4,1.0,2-Back,0,m,Thu Mar 13 2025 17:10:39 GMT-0500 (Central Daylight Time),703198.9000000004,012_o_f_d_a.png,O,None,2015,4,1,3028.7999999998137,700170.1000000006,7108,VNB,C,2
1,test,4,0.0,2-Back,0,z,Thu Mar 13 2025 17:10:39 GMT-0500 (Central Daylight Time),706131.2000000002,015_o_m_h_a.png,O,m,1909,5,1,2926.2000000001863,703205.0,7108,VNB,C,3
1,test,4,0.0,2-Back,0,m,Thu Mar 13 2025 17:10:39 GMT-0500 (Central Daylight Time),709149.6000000006,014_m_m_n_a.png,O,None,2001,6,1,3011.7000000001863,706137.9000000004,7108,VNB,C,4
2,test,4,0.0,2-Back,1,m,Thu Mar 13 2025 17:10:39 GMT-0500 (Central Daylight Time),711545.2000000002,019_m_f_d_a.png,O,m,1375,7,1,2388.7000000001863,709156.5,7108,VNB,C,5
3,test,4,0.0,2-Back,1,z,Thu Mar 13 2025 17:10:39 GMT-0500 (Central Daylight Time),713878.5,022_y_f_n_a.png,O,z,1298,8,1,2325.399999999441,711553.1000000006,7108,VNB,C,6
4,test,4,1.0,2-Back,1,m,Thu Mar 13 2025 17:10:39 GMT-0500 (Central Daylight Time),716294.2000000002,012_o_f_h_a.png,O,m,1390,9,1,2408.4000000003725,713885.7999999998,7108,VNB,C,7
5,test,4,0.0,2-Back,1,m,Thu Mar 13 2025 17:10:39 GMT-0500 (Central Daylight Time),719177.6000000006,014_m_m_h_a.png,O,m,1853,10,1,2875.300000000745,716302.2999999998,7108,VNB,C,8
6,test,4,0.0,2-Back,1,m,Thu Mar 13 2025 17:10:39 GMT-0500 (Central Daylight Time),721678.2999999998,022_y_f_d_a.png,O,m,1482,11,1,2493.5999999996275,719184.7000000002,7108,VNB,C,9
7,test,4,0.0,2-Back,1,m,Thu Mar 13 2025 17:10:39 GMT-0500 (Central Daylight Time),724492.7000000002,025_y_m_n_a.png,O,m,1798,12,1,2809.0999999996275,721683.6000000006,7108,VNB,C,10
8,test,4,0.0,2-Back,1,z,Thu Mar 13 2025 17:10:39 GMT-0500 (Central Daylight Time),726708.0,015_o_m_d_a.png,O,z,1193,13,1,2209.7999999998137,724498.2000000002,7108,VNB,C,11
9,test,4,1.0,2-Back,1,m,Thu Mar 13 2025 17:10:39 GMT-0500 (Central Daylight Time),729491.1000000006,019_m_f_h_a.png,O,m,1760,14,1,2775.600000000559,726715.5,7108,VNB,C,12
10,test,4,1.0,2-Back,1,m,Thu Mar 13 2025 17:10:39 GMT-0500 (Central Daylight Time),732124.7000000002,022_y_f_h_a.png,O,m,1608,15,1,2626.7999999998137,729497.9000000004,7108,VNB,C,13
11,test,4,0.0,2-Back,1,m,Thu Mar 13 2025 17:10:39 GMT-0500 (Central Daylight Time),734737.2999999998,012_o_f_n_a.png,O,m,1593,16,1,2606.199999999255,732131.1000000006,7108,VNB,C,14
12,test,4,0.0,2-Back,1,m,Thu Mar 13 2025 17:10:39 GMT-0500 (Central Daylight Time),737671.6000000006,025_y_m_d_a.png,O,m,1904,17,1,2928.0,734743.6000000006,7108,VNB,C,15
13,test,4,1.0,2-Back,1,m,Thu Mar 13 2025 17:10:39 GMT-0500 (Central Daylight Time),740354.0,014_m_m_d_a.png,O,m,1650,18,1,2675.0,737679.0,7108,VNB,C,16
0,test,5,1.0,2-Back,,,Thu Mar 13 2025 17:10:39 GMT-0500 (Central Daylight Time),740354.0,022_y_f_d_a.png,O,space,1642,1,1,2675.0,737679.0,7108,VNB,C,0
0,test,5,1.0,2-Back,,,Thu Mar 13 2025 17:10:39 GMT-0500 (Central Daylight Time),740354.0,012_o_f_h_a.png,O,space,1642,2,1,2675.0,737679.0,7108,VNB,C,0
1,test,5,1.0,2-Back,1,z,Thu Mar 13 2025 17:10:39 GMT-0500 (Central Daylight Time),749567.9000000004,015_o_m_d_a.png,O,z,1296,3,1,2308.100000000559,747259.7999999998,7108,VNB,C,1
2,test,5,1.0,2-Back,1,m,Thu Mar 13 2025 17:10:39 GMT-0500 (Central Daylight Time),752367.0,019_m_f_n_a.png,O,m,1781,4,1,2793.2000000001863,749573.7999999998,7108,VNB,C,2
3,test,5,0.0,2-Back,1,m,Thu Mar 13 2025 17:10:39 GMT-0500 (Central Daylight Time),754982.6000000006,014_m_m_h_a.png,O,m,1595,5,1,2605.7000000001863,752376.9000000004,7108,VNB,C,3
4,test,5,0.0,2-Back,1,z,Thu Mar 13 2025 17:10:39 GMT-0500 (Central Daylight Time),757214.9000000004,022_y_f_n_a.png,O,z,1216,6,1,2224.0,754990.9000000004,7108,VNB,C,4
5,test,5,0.0,2-Back,1,m,Thu Mar 13 2025 17:10:39 GMT-0500 (Central Daylight Time),760062.2999999998,012_o_f_d_a.png,O,m,1820,7,1,2842.5999999996275,757219.7000000002,7108,VNB,C,5
6,test,5,0.0,2-Back,1,m,Thu Mar 13 2025 17:10:39 GMT-0500 (Central Daylight Time),762348.7000000002,015_o_m_h_a.png,O,m,1251,8,1,2278.7000000001863,760070.0,7108,VNB,C,6
6,test,5,1.0,2-Back,0,z,Thu Mar 13 2025 17:10:39 GMT-0500 (Central Daylight Time),764979.9000000004,019_m_f_d_a.png,O,m,1610,9,1,2621.9000000003725,762358.0,7108,VNB,C,7
7,test,5,0.0,2-Back,1,m,Thu Mar 13 2025 17:10:39 GMT-0500 (Central Daylight Time),767447.2999999998,025_y_m_n_a.png,O,m,1450,10,1,2457.5999999996275,764989.7000000002,7108,VNB,C,8
7,test,5,0.0,2-Back,0,m,Thu Mar 13 2025 17:10:39 GMT-0500 (Central Daylight Time),770478.0,014_m_m_n_a.png,O,None,2015,11,1,3024.2000000001863,767453.7999999998,7108,VNB,C,9
8,test,5,0.0,2-Back,1,m,Thu Mar 13 2025 17:10:39 GMT-0500 (Central Daylight Time),772744.4000000004,022_y_f_h_a.png,O,m,1238,12,1,2260.7000000001863,770483.7000000002,7108,VNB,C,10
9,test,5,0.0,2-Back,1,m,Thu Mar 13 2025 17:10:39 GMT-0500 (Central Daylight Time),775545.2000000002,025_y_m_d_a.png,O,m,1786,13,1,2794.0,772751.2000000002,7108,VNB,C,11
10,test,5,1.0,2-Back,1,z,Thu Mar 13 2025 17:10:39 GMT-0500 (Central Daylight Time),778041.4000000004,019_m_f_h_a.png,O,z,1475,14,1,2488.7000000001863,775552.7000000002,7108,VNB,C,12
11,test,5,0.0,2-Back,1,m,Thu Mar 13 2025 17:10:39 GMT-0500 (Central Daylight Time),780724.7999999998,015_o_m_n_a.png,O,m,1651,15,1,2675.699999999255,778049.1000000006,7108,VNB,C,13
12,test,5,0.0,2-Back,1,m,Thu Mar 13 2025 17:10:39 GMT-0500 (Central Daylight Time),783239.7999999998,014_m_m_d_a.png,O,m,1485,16,1,2507.5,780732.2999999998,7108,VNB,C,14
13,test,5,0.0,2-Back,1,z,Thu Mar 13 2025 17:10:39 GMT-0500 (Central Daylight Time),785590.0,012_o_f_n_a.png,O,z,1333,17,1,2343.399999999441,783246.6000000006,7108,VNB,C,15
14,test,5,1.0,2-Back,1,m,Thu Mar 13 2025 17:10:39 GMT-0500 (Central Daylight Time),787771.5,025_y_m_h_a.png,O,m,1156,18,1,2175.0,785596.5,7108,VNB,C,16
