acc_sum,block,block_c,change,condition,correct,correct_response,datetime,endtime,face,project,response,response_time,row_sel,session_number,start_end,starttime,subject_id,task,task_vers,trial
0,prac,1,,1-Back,,,Wed Feb 12 2025 11:00:25 GMT-0600 (Central Standard Time),,124_o_f_d_a.png,O,space,16989,1,1,,,7052,VNB,A,0
1,prac,1,0.0,1-Back,1,m,Wed Feb 12 2025 11:00:25 GMT-0600 (Central Standard Time),173916.3999999985,071_y_f_n_a.png,O,m,1182,2,1,1989.5,171926.8999999985,7052,VNB,A,1
2,prac,1,0.0,1-Back,1,m,Wed Feb 12 2025 11:00:25 GMT-0600 (Central Standard Time),175898.70000000298,165_m_m_h_a.png,O,m,1168,3,1,1973.6000000014901,173925.1000000015,7052,VNB,A,2
3,prac,1,0.0,1-Back,1,m,Wed Feb 12 2025 11:00:25 GMT-0600 (Central Standard Time),177731.5,109_y_m_d_a.png,O,m,1008,4,1,1822.7999999970198,175908.70000000298,7052,VNB,A,3
4,prac,1,0.0,1-Back,1,m,Wed Feb 12 2025 11:00:25 GMT-0600 (Central Standard Time),179831.0,124_o_f_n_a.png,O,m,1253,5,1,2091.39999999851,177739.6000000015,7052,VNB,A,4
5,prac,1,1.0,1-Back,1,z,Wed Feb 12 2025 11:00:25 GMT-0600 (Central Standard Time),181830.5,109_y_m_n_a.png,O,z,1177,6,1,1991.2000000029802,179839.29999999702,7052,VNB,A,5
6,prac,1,0.0,1-Back,1,m,Wed Feb 12 2025 11:00:25 GMT-0600 (Central Standard Time),183846.5,039_o_m_h_a.png,O,m,1196,7,1,2005.3999999985099,181841.1000000015,7052,VNB,A,6
7,prac,1,0.0,1-Back,1,m,Wed Feb 12 2025 11:00:25 GMT-0600 (Central Standard Time),185762.5,139_m_f_d_a.png,O,m,1104,8,1,1907.6000000014901,183854.8999999985,7052,VNB,A,7
8,prac,1,1.0,1-Back,1,z,Wed Feb 12 2025 11:00:25 GMT-0600 (Central Standard Time),187724.29999999702,071_y_f_d_a.png,O,z,1164,9,1,1953.1999999955297,185771.1000000015,7052,VNB,A,8
9,prac,1,0.0,1-Back,1,m,Wed Feb 12 2025 11:00:25 GMT-0600 (Central Standard Time),189911.1000000015,165_m_m_n_a.png,O,m,1370,10,1,2175.60000000149,187735.5,7052,VNB,A,9
10,prac,1,0.0,1-Back,1,m,Wed Feb 12 2025 11:00:25 GMT-0600 (Central Standard Time),191860.5,124_o_f_h_a.png,O,m,1117,11,1,1940.7000000029802,189919.79999999702,7052,VNB,A,10
11,prac,1,0.0,1-Back,1,m,Wed Feb 12 2025 11:00:25 GMT-0600 (Central Standard Time),193709.8999999985,109_y_m_d_a.png,O,m,1068,12,1,1841.6000000014901,191868.29999999702,7052,VNB,A,11
0,test,1,0.0,1-Back,,,Wed Feb 12 2025 11:00:25 GMT-0600 (Central Standard Time),193709.8999999985,071_y_f_d_a.png,O,space,11274,1,1,1841.6000000014901,191868.29999999702,7052,VNB,A,0
1,test,1,0.0,1-Back,1,m,Wed Feb 12 2025 11:00:25 GMT-0600 (Central Standard Time),217619.1000000015,139_m_f_n_a.png,O,m,946,2,1,1955.7000000029802,215663.3999999985,7052,VNB,A,1
2,test,1,0.0,1-Back,1,m,Wed Feb 12 2025 11:00:25 GMT-0600 (Central Standard Time),220268.3999999985,039_o_m_h_a.png,O,m,1620,3,1,2642.39999999851,217626.0,7052,VNB,A,2
3,test,1,1.0,1-Back,1,z,Wed Feb 12 2025 11:00:25 GMT-0600 (Central Standard Time),222402.20000000298,165_m_m_h_a.png,O,z,1099,4,1,2126.4000000059605,220275.79999999702,7052,VNB,A,3
4,test,1,0.0,1-Back,1,m,Wed Feb 12 2025 11:00:25 GMT-0600 (Central Standard Time),224466.5,124_o_f_n_a.png,O,m,1047,5,1,2057.39999999851,222409.1000000015,7052,VNB,A,4
5,test,1,0.0,1-Back,1,m,Wed Feb 12 2025 11:00:25 GMT-0600 (Central Standard Time),226782.8999999985,109_y_m_d_a.png,O,m,1284,6,1,2309.5,224473.3999999985,7052,VNB,A,5
6,test,1,1.0,1-Back,1,z,Wed Feb 12 2025 11:00:25 GMT-0600 (Central Standard Time),228865.5,139_m_f_d_a.png,O,z,1064,7,1,2075.7999999970198,226789.70000000298,7052,VNB,A,6
7,test,1,0.0,1-Back,1,m,Wed Feb 12 2025 11:00:25 GMT-0600 (Central Standard Time),230914.79999999702,071_y_f_h_a.png,O,m,1021,8,1,2042.5999999940395,228872.20000000298,7052,VNB,A,7
8,test,1,0.0,1-Back,1,m,Wed Feb 12 2025 11:00:25 GMT-0600 (Central Standard Time),232947.5,039_o_m_n_a.png,O,m,1004,9,1,2025.7000000029802,230921.79999999702,7052,VNB,A,8
8,test,1,0.0,1-Back,0,m,Wed Feb 12 2025 11:00:25 GMT-0600 (Central Standard Time),235113.6000000015,109_y_m_h_a.png,O,z,1140,10,1,2159.39999999851,232954.20000000298,7052,VNB,A,9
9,test,1,0.0,1-Back,1,m,Wed Feb 12 2025 11:00:25 GMT-0600 (Central Standard Time),237246.20000000298,039_o_m_d_a.png,O,m,1102,11,1,2126.0,235120.20000000298,7052,VNB,A,10
10,test,1,1.0,1-Back,1,z,Wed Feb 12 2025 11:00:25 GMT-0600 (Central Standard Time),239278.79999999702,124_o_f_d_a.png,O,z,1001,12,1,2025.1999999955297,237253.6000000015,7052,VNB,A,11
11,test,1,0.0,1-Back,1,m,Wed Feb 12 2025 11:00:25 GMT-0600 (Central Standard Time),241444.79999999702,165_m_m_n_a.png,O,m,1144,13,1,2159.1999999955297,239285.6000000015,7052,VNB,A,12
12,test,1,1.0,1-Back,1,z,Wed Feb 12 2025 11:00:25 GMT-0600 (Central Standard Time),243477.6000000015,071_y_f_n_a.png,O,z,1002,14,1,2025.3999999985099,241452.20000000298,7052,VNB,A,13
13,test,1,0.0,1-Back,1,m,Wed Feb 12 2025 11:00:25 GMT-0600 (Central Standard Time),245460.3999999985,139_m_f_h_a.png,O,m,961,15,1,1976.1999999955297,243484.20000000298,7052,VNB,A,14
14,test,1,0.0,1-Back,1,m,Wed Feb 12 2025 11:00:25 GMT-0600 (Central Standard Time),247409.5,165_m_m_d_a.png,O,m,922,16,1,1942.6000000014901,245466.8999999985,7052,VNB,A,15
15,test,1,0.0,1-Back,1,m,Wed Feb 12 2025 11:00:25 GMT-0600 (Central Standard Time),249459.1000000015,109_y_m_n_a.png,O,m,1021,17,1,2042.2000000029802,247416.8999999985,7052,VNB,A,16
16,test,1,0.0,1-Back,1,m,Wed Feb 12 2025 11:00:25 GMT-0600 (Central Standard Time),251541.70000000298,124_o_f_h_a.png,O,m,1050,18,1,2075.8000000044703,249465.8999999985,7052,VNB,A,17
0,test,2,0.0,1-Back,,,Wed Feb 12 2025 11:00:25 GMT-0600 (Central Standard Time),251541.70000000298,109_y_m_n_a.png,O,space,3090,1,1,2075.8000000044703,249465.8999999985,7052,VNB,A,0
1,test,2,0.0,1-Back,1,m,Wed Feb 12 2025 11:00:25 GMT-0600 (Central Standard Time),258589.5,071_y_f_h_a.png,O,m,902,2,1,1925.0,256664.5,7052,VNB,A,1
2,test,2,1.0,1-Back,1,m,Wed Feb 12 2025 11:00:25 GMT-0600 (Central Standard Time),260488.79999999702,039_o_m_n_a.png,O,m,873,3,1,1892.0999999940395,258596.70000000298,7052,VNB,A,2
2,test,2,0.0,1-Back,0,m,Wed Feb 12 2025 11:00:25 GMT-0600 (Central Standard Time),262521.6000000015,139_m_f_d_a.png,O,z,1014,4,1,2026.2000000029802,260495.3999999985,7052,VNB,A,3
3,test,2,0.0,1-Back,1,z,Wed Feb 12 2025 11:00:25 GMT-0600 (Central Standard Time),264271.200000003,165_m_m_d_a.png,O,z,717,5,1,1742.6000000014901,262528.6000000015,7052,VNB,A,4
4,test,2,0.0,1-Back,1,m,Wed Feb 12 2025 11:00:25 GMT-0600 (Central Standard Time),266237.200000003,109_y_m_h_a.png,O,m,943,6,1,1959.4000000059605,264277.799999997,7052,VNB,A,5
5,test,2,1.0,1-Back,1,z,Wed Feb 12 2025 11:00:25 GMT-0600 (Central Standard Time),268252.799999997,124_o_f_h_a.png,O,z,986,7,1,2008.8999999985099,266243.8999999985,7052,VNB,A,6
6,test,2,0.0,1-Back,1,m,Wed Feb 12 2025 11:00:25 GMT-0600 (Central Standard Time),270119.299999997,139_m_f_n_a.png,O,m,833,8,1,1859.0,268260.299999997,7052,VNB,A,7
7,test,2,0.0,1-Back,1,m,Wed Feb 12 2025 11:00:25 GMT-0600 (Central Standard Time),272051.700000003,071_y_f_d_a.png,O,m,903,9,1,1925.3000000044703,270126.3999999985,7052,VNB,A,8
8,test,2,0.0,1-Back,1,m,Wed Feb 12 2025 11:00:25 GMT-0600 (Central Standard Time),274001.6000000015,165_m_m_n_a.png,O,m,931,10,1,1943.0,272058.6000000015,7052,VNB,A,9
9,test,2,1.0,1-Back,1,m,Wed Feb 12 2025 11:00:25 GMT-0600 (Central Standard Time),276000.6000000015,139_m_f_h_a.png,O,m,974,11,1,1992.3000000044703,274008.299999997,7052,VNB,A,10
10,test,2,0.0,1-Back,1,z,Wed Feb 12 2025 11:00:25 GMT-0600 (Central Standard Time),277816.700000003,039_o_m_h_a.png,O,z,782,12,1,1810.1000000014901,276006.6000000015,7052,VNB,A,11
11,test,2,0.0,1-Back,1,m,Wed Feb 12 2025 11:00:25 GMT-0600 (Central Standard Time),279732.799999997,109_y_m_d_a.png,O,m,895,13,1,1909.1999999955297,277823.6000000015,7052,VNB,A,12
12,test,2,0.0,1-Back,1,m,Wed Feb 12 2025 11:00:25 GMT-0600 (Central Standard Time),281779.6000000015,124_o_f_n_a.png,O,m,1027,14,1,2039.6000000014901,279740.0,7052,VNB,A,13
13,test,2,0.0,1-Back,1,z,Wed Feb 12 2025 11:00:25 GMT-0600 (Central Standard Time),283548.3999999985,071_y_f_n_a.png,O,z,736,15,1,1761.5,281786.8999999985,7052,VNB,A,14
14,test,2,1.0,1-Back,1,m,Wed Feb 12 2025 11:00:25 GMT-0600 (Central Standard Time),285731.0,165_m_m_h_a.png,O,m,1162,16,1,2175.7999999970198,283555.200000003,7052,VNB,A,15
15,test,2,0.0,1-Back,1,m,Wed Feb 12 2025 11:00:25 GMT-0600 (Central Standard Time),287730.3999999985,124_o_f_d_a.png,O,m,972,17,1,1991.7999999970198,285738.6000000015,7052,VNB,A,16
16,test,2,1.0,1-Back,1,z,Wed Feb 12 2025 11:00:25 GMT-0600 (Central Standard Time),289596.5,039_o_m_d_a.png,O,z,836,18,1,1859.2000000029802,287737.299999997,7052,VNB,A,17
0,test,3,1.0,1-Back,,,Wed Feb 12 2025 11:00:25 GMT-0600 (Central Standard Time),289596.5,124_o_f_h_a.png,O,space,3123,1,1,1859.2000000029802,287737.299999997,7052,VNB,A,0
1,test,3,0.0,1-Back,1,m,Wed Feb 12 2025 11:00:25 GMT-0600 (Central Standard Time),296427.5,139_m_f_d_a.png,O,m,629,2,1,1641.2999999970198,294786.200000003,7052,VNB,A,1
2,test,3,1.0,1-Back,1,m,Wed Feb 12 2025 11:00:25 GMT-0600 (Central Standard Time),298210.3999999985,165_m_m_n_a.png,O,m,755,3,1,1776.1000000014901,296434.299999997,7052,VNB,A,2
3,test,3,0.0,1-Back,1,z,Wed Feb 12 2025 11:00:25 GMT-0600 (Central Standard Time),299909.8999999985,124_o_f_n_a.png,O,z,668,4,1,1693.0,298216.8999999985,7052,VNB,A,3
4,test,3,1.0,1-Back,1,m,Wed Feb 12 2025 11:00:25 GMT-0600 (Central Standard Time),301725.8999999985,039_o_m_d_a.png,O,m,784,5,1,1809.3999999985099,299916.5,7052,VNB,A,4
5,test,3,0.0,1-Back,1,m,Wed Feb 12 2025 11:00:25 GMT-0600 (Central Standard Time),303542.1000000015,071_y_f_h_a.png,O,m,785,6,1,1809.3999999985099,301732.700000003,7052,VNB,A,5
6,test,3,0.0,1-Back,1,z,Wed Feb 12 2025 11:00:25 GMT-0600 (Central Standard Time),305332.299999997,109_y_m_h_a.png,O,z,772,7,1,1783.5,303548.799999997,7052,VNB,A,6
7,test,3,0.0,1-Back,1,m,Wed Feb 12 2025 11:00:25 GMT-0600 (Central Standard Time),307107.799999997,139_m_f_n_a.png,O,m,753,8,1,1767.3999999985099,305340.3999999985,7052,VNB,A,7
8,test,3,0.0,1-Back,1,m,Wed Feb 12 2025 11:00:25 GMT-0600 (Central Standard Time),309306.8999999985,071_y_f_d_a.png,O,m,1172,9,1,2192.0,307114.8999999985,7052,VNB,A,8
9,test,3,1.0,1-Back,1,m,Wed Feb 12 2025 11:00:25 GMT-0600 (Central Standard Time),311306.299999997,039_o_m_n_a.png,O,m,972,10,1,1992.5,309313.799999997,7052,VNB,A,9
10,test,3,0.0,1-Back,1,m,Wed Feb 12 2025 11:00:25 GMT-0600 (Central Standard Time),313572.3999999985,165_m_m_h_a.png,O,m,1244,11,1,2258.5,311313.8999999985,7052,VNB,A,10
11,test,3,0.0,1-Back,1,z,Wed Feb 12 2025 11:00:25 GMT-0600 (Central Standard Time),315288.700000003,139_m_f_h_a.png,O,z,682,12,1,1709.5,313579.200000003,7052,VNB,A,11
12,test,3,1.0,1-Back,1,m,Wed Feb 12 2025 11:00:25 GMT-0600 (Central Standard Time),317371.200000003,124_o_f_d_a.png,O,m,1054,13,1,2075.5,315295.700000003,7052,VNB,A,12
13,test,3,0.0,1-Back,1,z,Wed Feb 12 2025 11:00:25 GMT-0600 (Central Standard Time),319137.5,165_m_m_d_a.png,O,z,732,14,1,1759.2000000029802,317378.299999997,7052,VNB,A,13
14,test,3,0.0,1-Back,1,m,Wed Feb 12 2025 11:00:25 GMT-0600 (Central Standard Time),320953.299999997,109_y_m_n_a.png,O,m,789,15,1,1809.2999999970198,319144.0,7052,VNB,A,14
15,test,3,1.0,1-Back,1,m,Wed Feb 12 2025 11:00:25 GMT-0600 (Central Standard Time),322869.299999997,039_o_m_h_a.png,O,m,885,16,1,1909.0,320960.299999997,7052,VNB,A,15
16,test,3,0.0,1-Back,1,m,Wed Feb 12 2025 11:00:25 GMT-0600 (Central Standard Time),324818.6000000015,109_y_m_d_a.png,O,m,929,17,1,1942.8999999985099,322875.700000003,7052,VNB,A,16
17,test,3,1.0,1-Back,1,m,Wed Feb 12 2025 11:00:25 GMT-0600 (Central Standard Time),326801.3999999985,071_y_f_n_a.png,O,m,957,18,1,1975.5,324825.8999999985,7052,VNB,A,17
0,test,4,1.0,1-Back,,,Wed Feb 12 2025 11:00:25 GMT-0600 (Central Standard Time),326801.3999999985,165_m_m_d_a.png,O,space,3094,1,1,1975.5,324825.8999999985,7052,VNB,A,0
1,test,4,0.0,1-Back,1,z,Wed Feb 12 2025 11:00:25 GMT-0600 (Central Standard Time),333582.5,039_o_m_d_a.png,O,z,617,2,1,1642.6000000014901,331939.8999999985,7052,VNB,A,1
2,test,4,0.0,1-Back,1,m,Wed Feb 12 2025 11:00:25 GMT-0600 (Central Standard Time),335432.200000003,109_y_m_h_a.png,O,m,816,3,1,1842.9000000059605,333589.299999997,7052,VNB,A,2
3,test,4,0.0,1-Back,1,m,Wed Feb 12 2025 11:00:25 GMT-0600 (Central Standard Time),337314.700000003,139_m_f_n_a.png,O,m,855,4,1,1875.8000000044703,335438.8999999985,7052,VNB,A,3
4,test,4,1.0,1-Back,1,m,Wed Feb 12 2025 11:00:25 GMT-0600 (Central Standard Time),339197.6000000015,124_o_f_h_a.png,O,m,852,5,1,1875.3000000044703,337322.299999997,7052,VNB,A,4
5,test,4,0.0,1-Back,1,m,Wed Feb 12 2025 11:00:25 GMT-0600 (Central Standard Time),341147.1000000015,165_m_m_n_a.png,O,m,929,6,1,1942.7000000029802,339204.3999999985,7052,VNB,A,5
6,test,4,0.0,1-Back,1,m,Wed Feb 12 2025 11:00:25 GMT-0600 (Central Standard Time),343113.200000003,109_y_m_d_a.png,O,m,932,7,1,1958.8000000044703,341154.3999999985,7052,VNB,A,6
7,test,4,1.0,1-Back,1,z,Wed Feb 12 2025 11:00:25 GMT-0600 (Central Standard Time),344897.1000000015,071_y_f_d_a.png,O,z,758,8,1,1777.6000000014901,343119.5,7052,VNB,A,7
8,test,4,0.0,1-Back,1,m,Wed Feb 12 2025 11:00:25 GMT-0600 (Central Standard Time),346811.799999997,139_m_f_h_a.png,O,m,887,9,1,1906.7999999970198,344905.0,7052,VNB,A,8
9,test,4,0.0,1-Back,1,z,Wed Feb 12 2025 11:00:25 GMT-0600 (Central Standard Time),348511.3999999985,039_o_m_h_a.png,O,z,675,10,1,1691.6999999955297,346819.700000003,7052,VNB,A,9
10,test,4,1.0,1-Back,1,m,Wed Feb 12 2025 11:00:25 GMT-0600 (Central Standard Time),350344.1000000015,124_o_f_n_a.png,O,m,798,11,1,1825.8000000044703,348518.299999997,7052,VNB,A,10
11,test,4,0.0,1-Back,1,m,Wed Feb 12 2025 11:00:25 GMT-0600 (Central Standard Time),352193.299999997,139_m_f_d_a.png,O,m,823,12,1,1842.5,350350.799999997,7052,VNB,A,11
12,test,4,0.0,1-Back,1,m,Wed Feb 12 2025 11:00:25 GMT-0600 (Central Standard Time),354059.5,071_y_f_n_a.png,O,m,837,13,1,1858.2999999970198,352201.200000003,7052,VNB,A,12
13,test,4,0.0,1-Back,1,m,Wed Feb 12 2025 11:00:25 GMT-0600 (Central Standard Time),356159.0,124_o_f_d_a.png,O,m,1067,14,1,2092.60000000149,354066.3999999985,7052,VNB,A,13
14,test,4,0.0,1-Back,1,m,Wed Feb 12 2025 11:00:25 GMT-0600 (Central Standard Time),358057.8999999985,071_y_f_h_a.png,O,m,880,15,1,1892.2999999970198,356165.6000000015,7052,VNB,A,14
15,test,4,1.0,1-Back,1,z,Wed Feb 12 2025 11:00:25 GMT-0600 (Central Standard Time),359741.0,165_m_m_h_a.png,O,z,653,16,1,1676.1000000014901,358064.8999999985,7052,VNB,A,15
16,test,4,0.0,1-Back,1,m,Wed Feb 12 2025 11:00:25 GMT-0600 (Central Standard Time),361607.200000003,039_o_m_n_a.png,O,m,842,17,1,1859.3000000044703,359747.8999999985,7052,VNB,A,16
17,test,4,1.0,1-Back,1,z,Wed Feb 12 2025 11:00:25 GMT-0600 (Central Standard Time),363507.700000003,109_y_m_n_a.png,O,z,872,18,1,1893.7000000029802,361614.0,7052,VNB,A,17
0,test,5,1.0,1-Back,,,Wed Feb 12 2025 11:00:25 GMT-0600 (Central Standard Time),363507.700000003,039_o_m_n_a.png,O,space,3796,1,1,1893.7000000029802,361614.0,7052,VNB,A,0
1,test,5,1.0,1-Back,1,m,Wed Feb 12 2025 11:00:25 GMT-0600 (Central Standard Time),371187.5,124_o_f_h_a.png,O,m,839,2,1,1859.0,369328.5,7052,VNB,A,1
2,test,5,0.0,1-Back,1,m,Wed Feb 12 2025 11:00:25 GMT-0600 (Central Standard Time),373020.1000000015,109_y_m_d_a.png,O,m,803,3,1,1826.0,371194.1000000015,7052,VNB,A,2
3,test,5,0.0,1-Back,1,z,Wed Feb 12 2025 11:00:25 GMT-0600 (Central Standard Time),374786.5,039_o_m_d_a.png,O,z,738,4,1,1759.3999999985099,373027.1000000015,7052,VNB,A,3
4,test,5,0.0,1-Back,1,m,Wed Feb 12 2025 11:00:25 GMT-0600 (Central Standard Time),376735.700000003,139_m_f_h_a.png,O,m,925,5,1,1943.0,374792.700000003,7052,VNB,A,4
5,test,5,0.0,1-Back,1,m,Wed Feb 12 2025 11:00:25 GMT-0600 (Central Standard Time),378601.799999997,071_y_f_n_a.png,O,m,839,6,1,1859.2999999970198,376742.5,7052,VNB,A,5
6,test,5,1.0,1-Back,1,z,Wed Feb 12 2025 11:00:25 GMT-0600 (Central Standard Time),380418.0,124_o_f_n_a.png,O,z,789,7,1,1809.0,378609.0,7052,VNB,A,6
7,test,5,0.0,1-Back,1,m,Wed Feb 12 2025 11:00:25 GMT-0600 (Central Standard Time),382300.799999997,139_m_f_d_a.png,O,m,853,8,1,1875.5,380425.299999997,7052,VNB,A,7
8,test,5,0.0,1-Back,1,m,Wed Feb 12 2025 11:00:25 GMT-0600 (Central Standard Time),384249.8999999985,109_y_m_h_a.png,O,m,922,9,1,1941.7999999970198,382308.1000000015,7052,VNB,A,8
9,test,5,0.0,1-Back,1,m,Wed Feb 12 2025 11:00:25 GMT-0600 (Central Standard Time),386199.3999999985,071_y_f_d_a.png,O,m,917,10,1,1942.8999999985099,384256.5,7052,VNB,A,9
10,test,5,0.0,1-Back,1,m,Wed Feb 12 2025 11:00:25 GMT-0600 (Central Standard Time),388148.799999997,165_m_m_n_a.png,O,m,927,11,1,1942.1999999955297,386206.6000000015,7052,VNB,A,10
11,test,5,1.0,1-Back,1,z,Wed Feb 12 2025 11:00:25 GMT-0600 (Central Standard Time),389831.6000000015,139_m_f_n_a.png,O,z,650,12,1,1675.8999999985099,388155.700000003,7052,VNB,A,11
12,test,5,0.0,1-Back,1,m,Wed Feb 12 2025 11:00:25 GMT-0600 (Central Standard Time),391781.200000003,039_o_m_h_a.png,O,m,928,13,1,1943.2000000029802,389838.0,7052,VNB,A,12
13,test,5,0.0,1-Back,1,z,Wed Feb 12 2025 11:00:25 GMT-0600 (Central Standard Time),393530.3999999985,165_m_m_h_a.png,O,z,729,14,1,1742.0,391788.3999999985,7052,VNB,A,13
14,test,5,1.0,1-Back,1,m,Wed Feb 12 2025 11:00:25 GMT-0600 (Central Standard Time),395396.700000003,124_o_f_d_a.png,O,m,844,15,1,1859.4000000059605,393537.299999997,7052,VNB,A,14
15,test,5,0.0,1-Back,1,m,Wed Feb 12 2025 11:00:25 GMT-0600 (Central Standard Time),397179.5,109_y_m_n_a.png,O,m,754,16,1,1775.8999999985099,395403.6000000015,7052,VNB,A,15
16,test,5,0.0,1-Back,1,m,Wed Feb 12 2025 11:00:25 GMT-0600 (Central Standard Time),398978.8999999985,071_y_f_h_a.png,O,m,771,17,1,1791.6999999955297,397187.200000003,7052,VNB,A,16
17,test,5,0.0,1-Back,1,m,Wed Feb 12 2025 11:00:25 GMT-0600 (Central Standard Time),401028.1000000015,165_m_m_d_a.png,O,m,1028,18,1,2042.0,398986.1000000015,7052,VNB,A,17
0,prac,1,0.0,2-Back,,,Wed Feb 12 2025 11:00:25 GMT-0600 (Central Standard Time),401028.1000000015,139_m_f_n_a.png,O,space,17438,1,1,2042.0,398986.1000000015,7052,VNB,A,0
0,prac,1,0.0,2-Back,,,Wed Feb 12 2025 11:00:25 GMT-0600 (Central Standard Time),401028.1000000015,124_o_f_h_a.png,O,space,17438,2,1,2042.0,398986.1000000015,7052,VNB,A,0
1,prac,1,0.0,2-Back,1,m,Wed Feb 12 2025 11:00:25 GMT-0600 (Central Standard Time),517725.200000003,039_o_m_d_a.png,O,m,1152,3,1,1958.3000000044703,515766.8999999985,7052,VNB,A,1
2,prac,1,1.0,2-Back,1,z,Wed Feb 12 2025 11:00:25 GMT-0600 (Central Standard Time),519474.5,165_m_m_h_a.png,O,z,935,4,1,1740.7000000029802,517733.799999997,7052,VNB,A,2
3,prac,1,0.0,2-Back,1,m,Wed Feb 12 2025 11:00:25 GMT-0600 (Central Standard Time),521623.799999997,071_y_f_n_a.png,O,m,1346,5,1,2141.0999999940395,519482.700000003,7052,VNB,A,3
4,prac,1,1.0,2-Back,1,z,Wed Feb 12 2025 11:00:25 GMT-0600 (Central Standard Time),523623.3999999985,039_o_m_h_a.png,O,z,1192,6,1,1992.1000000014901,521631.299999997,7052,VNB,A,4
5,prac,1,1.0,2-Back,1,z,Wed Feb 12 2025 11:00:25 GMT-0600 (Central Standard Time),525655.799999997,109_y_m_n_a.png,O,z,1225,7,1,2024.0999999940395,523631.700000003,7052,VNB,A,5
6,prac,1,0.0,2-Back,1,m,Wed Feb 12 2025 11:00:25 GMT-0600 (Central Standard Time),527356.3999999985,139_m_f_d_a.png,O,m,886,8,1,1692.3999999985099,525664.0,7052,VNB,A,6
7,prac,1,0.0,2-Back,1,m,Wed Feb 12 2025 11:00:25 GMT-0600 (Central Standard Time),529537.700000003,124_o_f_d_a.png,O,m,1348,9,1,2173.4000000059605,527364.299999997,7052,VNB,A,7
8,prac,1,0.0,2-Back,1,m,Wed Feb 12 2025 11:00:25 GMT-0600 (Central Standard Time),531537.3999999985,165_m_m_h_a.png,O,m,1213,10,1,1990.7999999970198,529546.6000000015,7052,VNB,A,8
9,prac,1,1.0,2-Back,1,z,Wed Feb 12 2025 11:00:25 GMT-0600 (Central Standard Time),533203.299999997,071_y_f_d_a.png,O,z,846,11,1,1658.3999999985099,531544.8999999985,7052,VNB,A,9
10,prac,1,0.0,2-Back,1,m,Wed Feb 12 2025 11:00:25 GMT-0600 (Central Standard Time),535052.6000000015,039_o_m_n_a.png,O,m,1043,12,1,1840.8000000044703,533211.799999997,7052,VNB,A,10
0,test,1,0.0,2-Back,,,Wed Feb 12 2025 11:00:25 GMT-0600 (Central Standard Time),535052.6000000015,109_y_m_h_a.png,O,space,16499,1,1,1840.8000000044703,533211.799999997,7052,VNB,A,0
0,test,1,0.0,2-Back,,,Wed Feb 12 2025 11:00:25 GMT-0600 (Central Standard Time),535052.6000000015,124_o_f_n_a.png,O,space,16499,2,1,1840.8000000044703,533211.799999997,7052,VNB,A,0
1,test,1,0.0,2-Back,1,z,Wed Feb 12 2025 11:00:25 GMT-0600 (Central Standard Time),567109.299999997,039_o_m_h_a.png,O,z,752,3,1,1776.1999999955297,565333.1000000015,7052,VNB,A,1
2,test,1,0.0,2-Back,1,m,Wed Feb 12 2025 11:00:25 GMT-0600 (Central Standard Time),569325.200000003,139_m_f_d_a.png,O,m,1185,4,1,2209.4000000059605,567115.799999997,7052,VNB,A,2
3,test,1,1.0,2-Back,1,m,Wed Feb 12 2025 11:00:25 GMT-0600 (Central Standard Time),571858.0,109_y_m_n_a.png,O,m,1498,5,1,2525.39999999851,569332.6000000015,7052,VNB,A,3
4,test,1,0.0,2-Back,1,z,Wed Feb 12 2025 11:00:25 GMT-0600 (Central Standard Time),573807.299999997,071_y_f_d_a.png,O,z,917,6,1,1942.7999999970198,571864.5,7052,VNB,A,4
4,test,1,0.0,2-Back,0,m,Wed Feb 12 2025 11:00:25 GMT-0600 (Central Standard Time),576489.799999997,165_m_m_h_a.png,O,z,1656,7,1,2675.7999999970198,573814.0,7052,VNB,A,5
5,test,1,1.0,2-Back,1,m,Wed Feb 12 2025 11:00:25 GMT-0600 (Central Standard Time),578872.299999997,071_y_f_n_a.png,O,m,1349,8,1,2375.5999999940395,576496.700000003,7052,VNB,A,6
6,test,1,0.0,2-Back,1,z,Wed Feb 12 2025 11:00:25 GMT-0600 (Central Standard Time),581055.1000000015,124_o_f_h_a.png,O,z,1158,9,1,2175.0,578880.1000000015,7052,VNB,A,7
7,test,1,0.0,2-Back,1,m,Wed Feb 12 2025 11:00:25 GMT-0600 (Central Standard Time),583220.8999999985,039_o_m_d_a.png,O,m,1135,10,1,2158.7999999970198,581062.1000000015,7052,VNB,A,8
8,test,1,1.0,2-Back,1,m,Wed Feb 12 2025 11:00:25 GMT-0600 (Central Standard Time),585420.200000003,165_m_m_d_a.png,O,m,1178,11,1,2192.4000000059605,583227.799999997,7052,VNB,A,9
9,test,1,0.0,2-Back,1,m,Wed Feb 12 2025 11:00:25 GMT-0600 (Central Standard Time),587588.0,139_m_f_n_a.png,O,m,1131,12,1,2161.2999999970198,585426.700000003,7052,VNB,A,10
10,test,1,0.0,2-Back,1,m,Wed Feb 12 2025 11:00:25 GMT-0600 (Central Standard Time),589869.0,071_y_f_h_a.png,O,m,1260,13,1,2272.89999999851,587596.1000000015,7052,VNB,A,11
11,test,1,0.0,2-Back,1,z,Wed Feb 12 2025 11:00:25 GMT-0600 (Central Standard Time),591784.8999999985,165_m_m_n_a.png,O,z,890,14,1,1908.6999999955297,589876.200000003,7052,VNB,A,12
12,test,1,0.0,2-Back,1,m,Wed Feb 12 2025 11:00:25 GMT-0600 (Central Standard Time),594417.5,109_y_m_d_a.png,O,m,1614,15,1,2626.0,591791.5,7052,VNB,A,13
12,test,1,1.0,2-Back,0,m,Wed Feb 12 2025 11:00:25 GMT-0600 (Central Standard Time),596600.200000003,139_m_f_h_a.png,O,z,1149,16,1,2176.10000000149,594424.1000000015,7052,VNB,A,14
13,test,1,0.0,2-Back,1,z,Wed Feb 12 2025 11:00:25 GMT-0600 (Central Standard Time),598899.200000003,124_o_f_d_a.png,O,z,1271,17,1,2290.7000000029802,596608.5,7052,VNB,A,15
14,test,1,0.0,2-Back,1,m,Wed Feb 12 2025 11:00:25 GMT-0600 (Central Standard Time),601382.0,039_o_m_n_a.png,O,m,1451,18,1,2474.7999999970198,598907.200000003,7052,VNB,A,16
0,test,2,0.0,2-Back,,,Wed Feb 12 2025 11:00:25 GMT-0600 (Central Standard Time),601382.0,165_m_m_h_a.png,O,space,5026,1,1,2474.7999999970198,598907.200000003,7052,VNB,A,0
0,test,2,0.0,2-Back,,,Wed Feb 12 2025 11:00:25 GMT-0600 (Central Standard Time),601382.0,071_y_f_n_a.png,O,space,5026,2,1,2474.7999999970198,598907.200000003,7052,VNB,A,0
1,test,2,1.0,2-Back,1,z,Wed Feb 12 2025 11:00:25 GMT-0600 (Central Standard Time),613628.299999997,124_o_f_h_a.png,O,z,1095,3,1,2108.6999999955297,611519.6000000015,7052,VNB,A,1
2,test,2,0.0,2-Back,1,m,Wed Feb 12 2025 11:00:25 GMT-0600 (Central Standard Time),615960.799999997,039_o_m_d_a.png,O,m,1307,4,1,2325.0999999940395,613635.700000003,7052,VNB,A,2
3,test,2,0.0,2-Back,1,m,Wed Feb 12 2025 11:00:25 GMT-0600 (Central Standard Time),618426.6000000015,139_m_f_d_a.png,O,m,1446,5,1,2458.89999999851,615967.700000003,7052,VNB,A,3
4,test,2,0.0,2-Back,1,m,Wed Feb 12 2025 11:00:25 GMT-0600 (Central Standard Time),620859.1000000015,109_y_m_h_a.png,O,m,1404,6,1,2425.0,618434.1000000015,7052,VNB,A,4
5,test,2,0.0,2-Back,1,m,Wed Feb 12 2025 11:00:25 GMT-0600 (Central Standard Time),623042.0,124_o_f_n_a.png,O,m,1156,7,1,2175.7000000029802,620866.299999997,7052,VNB,A,5
6,test,2,1.0,2-Back,1,z,Wed Feb 12 2025 11:00:25 GMT-0600 (Central Standard Time),624958.0,039_o_m_h_a.png,O,z,885,8,1,1909.8999999985099,623048.1000000015,7052,VNB,A,6
7,test,2,0.0,2-Back,1,m,Wed Feb 12 2025 11:00:25 GMT-0600 (Central Standard Time),627124.0,071_y_f_d_a.png,O,m,1137,9,1,2158.7000000029802,624965.299999997,7052,VNB,A,7
8,test,2,0.0,2-Back,1,m,Wed Feb 12 2025 11:00:25 GMT-0600 (Central Standard Time),629423.299999997,109_y_m_d_a.png,O,m,1275,10,1,2292.39999999851,627130.8999999985,7052,VNB,A,8
8,test,2,0.0,2-Back,0,m,Wed Feb 12 2025 11:00:25 GMT-0600 (Central Standard Time),631507.0,165_m_m_n_a.png,O,z,1064,11,1,2076.39999999851,629430.6000000015,7052,VNB,A,9
9,test,2,0.0,2-Back,1,m,Wed Feb 12 2025 11:00:25 GMT-0600 (Central Standard Time),633738.1000000015,139_m_f_h_a.png,O,m,1213,12,1,2223.10000000149,631515.0,7052,VNB,A,10
10,test,2,1.0,2-Back,1,z,Wed Feb 12 2025 11:00:25 GMT-0600 (Central Standard Time),635737.6000000015,039_o_m_n_a.png,O,z,865,13,1,1991.6000000014901,633746.0,7052,VNB,A,11
11,test,2,0.0,2-Back,1,m,Wed Feb 12 2025 11:00:25 GMT-0600 (Central Standard Time),638337.0,124_o_f_d_a.png,O,m,1573,14,1,2592.39999999851,635744.6000000015,7052,VNB,A,12
12,test,2,0.0,2-Back,1,m,Wed Feb 12 2025 11:00:25 GMT-0600 (Central Standard Time),641219.3999999985,071_y_f_h_a.png,O,m,1862,15,1,2875.1999999955297,638344.200000003,7052,VNB,A,13
13,test,2,0.0,2-Back,1,z,Wed Feb 12 2025 11:00:25 GMT-0600 (Central Standard Time),643285.3999999985,165_m_m_d_a.png,O,z,1035,16,1,2058.60000000149,641226.799999997,7052,VNB,A,14
14,test,2,0.0,2-Back,1,m,Wed Feb 12 2025 11:00:25 GMT-0600 (Central Standard Time),645401.6000000015,109_y_m_n_a.png,O,m,1083,17,1,2109.60000000149,643292.0,7052,VNB,A,15
15,test,2,1.0,2-Back,1,m,Wed Feb 12 2025 11:00:25 GMT-0600 (Central Standard Time),647934.0,139_m_f_n_a.png,O,m,1501,18,1,2525.5,645408.5,7052,VNB,A,16
0,test,3,1.0,2-Back,,,Wed Feb 12 2025 11:00:25 GMT-0600 (Central Standard Time),647934.0,039_o_m_n_a.png,O,space,5698,1,1,2525.5,645408.5,7052,VNB,A,0
0,test,3,1.0,2-Back,,,Wed Feb 12 2025 11:00:25 GMT-0600 (Central Standard Time),647934.0,124_o_f_d_a.png,O,space,5698,2,1,2525.5,645408.5,7052,VNB,A,0
1,test,3,0.0,2-Back,1,m,Wed Feb 12 2025 11:00:25 GMT-0600 (Central Standard Time),661163.3999999985,071_y_f_h_a.png,O,m,1362,3,1,2375.2999999970198,658788.1000000015,7052,VNB,A,1
2,test,3,0.0,2-Back,1,z,Wed Feb 12 2025 11:00:25 GMT-0600 (Central Standard Time),663479.200000003,139_m_f_d_a.png,O,z,1292,4,1,2308.3000000044703,661170.8999999985,7052,VNB,A,2
3,test,3,1.0,2-Back,1,m,Wed Feb 12 2025 11:00:25 GMT-0600 (Central Standard Time),665678.299999997,109_y_m_n_a.png,O,m,1176,5,1,2191.89999999851,663486.3999999985,7052,VNB,A,3
3,test,3,0.0,2-Back,0,m,Wed Feb 12 2025 11:00:25 GMT-0600 (Central Standard Time),668710.8999999985,039_o_m_h_a.png,O,None,2014,6,1,3025.1999999955297,665685.700000003,7052,VNB,A,4
4,test,3,0.0,2-Back,1,z,Wed Feb 12 2025 11:00:25 GMT-0600 (Central Standard Time),671127.0,071_y_f_n_a.png,O,z,1392,7,1,2408.60000000149,668718.3999999985,7052,VNB,A,5
5,test,3,1.0,2-Back,1,m,Wed Feb 12 2025 11:00:25 GMT-0600 (Central Standard Time),673009.5,165_m_m_d_a.png,O,m,849,8,1,1875.2000000029802,671134.299999997,7052,VNB,A,6
6,test,3,0.0,2-Back,1,m,Wed Feb 12 2025 11:00:25 GMT-0600 (Central Standard Time),675058.799999997,109_y_m_d_a.png,O,m,1021,9,1,2042.1999999955297,673016.6000000015,7052,VNB,A,7
7,test,3,0.0,2-Back,1,m,Wed Feb 12 2025 11:00:25 GMT-0600 (Central Standard Time),677324.799999997,124_o_f_h_a.png,O,m,1236,10,1,2257.7999999970198,675067.0,7052,VNB,A,8
8,test,3,1.0,2-Back,1,m,Wed Feb 12 2025 11:00:25 GMT-0600 (Central Standard Time),679557.299999997,139_m_f_n_a.png,O,m,1202,11,1,2225.5,677331.799999997,7052,VNB,A,9
9,test,3,1.0,2-Back,1,z,Wed Feb 12 2025 11:00:25 GMT-0600 (Central Standard Time),681323.5,165_m_m_h_a.png,O,z,737,12,1,1758.8999999985099,679564.6000000015,7052,VNB,A,10
10,test,3,0.0,2-Back,1,m,Wed Feb 12 2025 11:00:25 GMT-0600 (Central Standard Time),683572.8999999985,071_y_f_d_a.png,O,m,1227,13,1,2242.6999999955297,681330.200000003,7052,VNB,A,11
11,test,3,0.0,2-Back,1,m,Wed Feb 12 2025 11:00:25 GMT-0600 (Central Standard Time),686271.799999997,124_o_f_n_a.png,O,m,1674,14,1,2691.7999999970198,683580.0,7052,VNB,A,12
12,test,3,0.0,2-Back,1,z,Wed Feb 12 2025 11:00:25 GMT-0600 (Central Standard Time),689271.1000000015,039_o_m_d_a.png,O,z,1975,15,1,2991.89999999851,686279.200000003,7052,VNB,A,13
13,test,3,1.0,2-Back,1,m,Wed Feb 12 2025 11:00:25 GMT-0600 (Central Standard Time),691737.200000003,139_m_f_h_a.png,O,m,1432,16,1,2458.0,689279.200000003,7052,VNB,A,14
13,test,3,0.0,2-Back,0,m,Wed Feb 12 2025 11:00:25 GMT-0600 (Central Standard Time),694019.3999999985,165_m_m_n_a.png,O,z,1262,17,1,2274.7999999970198,691744.6000000015,7052,VNB,A,15
14,test,3,0.0,2-Back,1,z,Wed Feb 12 2025 11:00:25 GMT-0600 (Central Standard Time),696402.1000000015,109_y_m_h_a.png,O,z,1355,18,1,2375.2000000029802,694026.8999999985,7052,VNB,A,16
0,test,4,0.0,2-Back,,,Wed Feb 12 2025 11:00:25 GMT-0600 (Central Standard Time),696402.1000000015,139_m_f_n_a.png,O,space,3622,1,1,2375.2000000029802,694026.8999999985,7052,VNB,A,0
0,test,4,0.0,2-Back,,,Wed Feb 12 2025 11:00:25 GMT-0600 (Central Standard Time),696402.1000000015,039_o_m_n_a.png,O,space,3622,2,1,2375.2000000029802,694026.8999999985,7052,VNB,A,0
1,test,4,1.0,2-Back,1,m,Wed Feb 12 2025 11:00:25 GMT-0600 (Central Standard Time),707298.799999997,109_y_m_h_a.png,O,m,1155,3,1,2175.1999999955297,705123.6000000015,7052,VNB,A,1
2,test,4,1.0,2-Back,1,m,Wed Feb 12 2025 11:00:25 GMT-0600 (Central Standard Time),709997.8999999985,124_o_f_d_a.png,O,m,1668,4,1,2692.1999999955297,707305.700000003,7052,VNB,A,2
3,test,4,0.0,2-Back,1,z,Wed Feb 12 2025 11:00:25 GMT-0600 (Central Standard Time),711847.200000003,039_o_m_h_a.png,O,z,817,5,1,1841.8000000044703,710005.3999999985,7052,VNB,A,3
4,test,4,0.0,2-Back,1,m,Wed Feb 12 2025 11:00:25 GMT-0600 (Central Standard Time),714147.700000003,165_m_m_n_a.png,O,m,1280,6,1,2293.4000000059605,711854.299999997,7052,VNB,A,4
5,test,4,0.0,2-Back,1,m,Wed Feb 12 2025 11:00:25 GMT-0600 (Central Standard Time),716362.5,139_m_f_d_a.png,O,m,1188,7,1,2207.60000000149,714154.8999999985,7052,VNB,A,5
6,test,4,0.0,2-Back,1,z,Wed Feb 12 2025 11:00:25 GMT-0600 (Central Standard Time),718378.5,071_y_f_n_a.png,O,z,996,8,1,2008.1000000014901,716370.3999999985,7052,VNB,A,6
7,test,4,1.0,2-Back,1,m,Wed Feb 12 2025 11:00:25 GMT-0600 (Central Standard Time),720811.200000003,124_o_f_h_a.png,O,m,1412,9,1,2424.8000000044703,718386.3999999985,7052,VNB,A,7
7,test,4,0.0,2-Back,0,m,Wed Feb 12 2025 11:00:25 GMT-0600 (Central Standard Time),723777.1000000015,165_m_m_h_a.png,O,z,1932,10,1,2958.7000000029802,720818.3999999985,7052,VNB,A,8
8,test,4,0.0,2-Back,1,m,Wed Feb 12 2025 11:00:25 GMT-0600 (Central Standard Time),726360.3999999985,071_y_f_d_a.png,O,m,1550,11,1,2575.6999999955297,723784.700000003,7052,VNB,A,9
9,test,4,0.0,2-Back,1,m,Wed Feb 12 2025 11:00:25 GMT-0600 (Central Standard Time),729046.5,109_y_m_n_a.png,O,m,1668,12,1,2678.0,726368.5,7052,VNB,A,10
10,test,4,0.0,2-Back,1,z,Wed Feb 12 2025 11:00:25 GMT-0600 (Central Standard Time),731224.6000000015,039_o_m_d_a.png,O,z,1149,13,1,2170.8000000044703,729053.799999997,7052,VNB,A,11
11,test,4,1.0,2-Back,1,m,Wed Feb 12 2025 11:00:25 GMT-0600 (Central Standard Time),733390.6000000015,139_m_f_h_a.png,O,m,1142,14,1,2158.8000000044703,731231.799999997,7052,VNB,A,12
12,test,4,1.0,2-Back,1,m,Wed Feb 12 2025 11:00:25 GMT-0600 (Central Standard Time),735439.8999999985,071_y_f_h_a.png,O,m,1024,15,1,2041.1000000014901,733398.799999997,7052,VNB,A,13
13,test,4,0.0,2-Back,1,m,Wed Feb 12 2025 11:00:25 GMT-0600 (Central Standard Time),737590.3999999985,124_o_f_n_a.png,O,m,1119,16,1,2143.0,735447.3999999985,7052,VNB,A,14
14,test,4,0.0,2-Back,1,m,Wed Feb 12 2025 11:00:25 GMT-0600 (Central Standard Time),739705.700000003,109_y_m_d_a.png,O,m,1098,17,1,2107.5,737598.200000003,7052,VNB,A,15
15,test,4,1.0,2-Back,1,m,Wed Feb 12 2025 11:00:25 GMT-0600 (Central Standard Time),742487.6000000015,165_m_m_d_a.png,O,m,1750,18,1,2774.5,739713.1000000015,7052,VNB,A,16
0,test,5,1.0,2-Back,,,Wed Feb 12 2025 11:00:25 GMT-0600 (Central Standard Time),742487.6000000015,071_y_f_d_a.png,O,space,4192,1,1,2774.5,739713.1000000015,7052,VNB,A,0
0,test,5,1.0,2-Back,,,Wed Feb 12 2025 11:00:25 GMT-0600 (Central Standard Time),742487.6000000015,124_o_f_h_a.png,O,space,4192,2,1,2774.5,739713.1000000015,7052,VNB,A,0
1,test,5,1.0,2-Back,1,z,Wed Feb 12 2025 11:00:25 GMT-0600 (Central Standard Time),754067.3999999985,039_o_m_d_a.png,O,z,1254,3,1,2275.7999999970198,751791.6000000015,7052,VNB,A,1
2,test,5,1.0,2-Back,1,m,Wed Feb 12 2025 11:00:25 GMT-0600 (Central Standard Time),756433.299999997,139_m_f_n_a.png,O,m,1347,4,1,2358.6999999955297,754074.6000000015,7052,VNB,A,2
3,test,5,0.0,2-Back,1,m,Wed Feb 12 2025 11:00:25 GMT-0600 (Central Standard Time),758832.700000003,165_m_m_h_a.png,O,m,1365,5,1,2391.9000000059605,756440.799999997,7052,VNB,A,3
4,test,5,0.0,2-Back,1,z,Wed Feb 12 2025 11:00:25 GMT-0600 (Central Standard Time),760649.8999999985,071_y_f_n_a.png,O,z,790,6,1,1810.1999999955297,758839.700000003,7052,VNB,A,4
5,test,5,0.0,2-Back,1,m,Wed Feb 12 2025 11:00:25 GMT-0600 (Central Standard Time),763097.799999997,124_o_f_d_a.png,O,m,1422,7,1,2440.89999999851,760656.8999999985,7052,VNB,A,5
6,test,5,0.0,2-Back,1,m,Wed Feb 12 2025 11:00:25 GMT-0600 (Central Standard Time),765663.8999999985,039_o_m_h_a.png,O,m,1533,8,1,2558.60000000149,763105.299999997,7052,VNB,A,6
6,test,5,1.0,2-Back,0,z,Wed Feb 12 2025 11:00:25 GMT-0600 (Central Standard Time),768230.799999997,139_m_f_d_a.png,O,m,1535,9,1,2559.89999999851,765670.8999999985,7052,VNB,A,7
7,test,5,0.0,2-Back,1,m,Wed Feb 12 2025 11:00:25 GMT-0600 (Central Standard Time),770361.8999999985,109_y_m_n_a.png,O,m,1113,10,1,2123.89999999851,768238.0,7052,VNB,A,8
7,test,5,0.0,2-Back,0,m,Wed Feb 12 2025 11:00:25 GMT-0600 (Central Standard Time),772411.6000000015,165_m_m_n_a.png,O,z,1028,11,1,2042.7000000029802,770368.8999999985,7052,VNB,A,9
8,test,5,0.0,2-Back,1,m,Wed Feb 12 2025 11:00:25 GMT-0600 (Central Standard Time),774877.5,071_y_f_h_a.png,O,m,1435,12,1,2458.60000000149,772418.8999999985,7052,VNB,A,10
9,test,5,0.0,2-Back,1,m,Wed Feb 12 2025 11:00:25 GMT-0600 (Central Standard Time),777293.5,109_y_m_d_a.png,O,m,1383,13,1,2408.7999999970198,774884.700000003,7052,VNB,A,11
10,test,5,1.0,2-Back,1,z,Wed Feb 12 2025 11:00:25 GMT-0600 (Central Standard Time),779342.700000003,139_m_f_h_a.png,O,z,1025,14,1,2041.3000000044703,777301.3999999985,7052,VNB,A,12
11,test,5,0.0,2-Back,1,m,Wed Feb 12 2025 11:00:25 GMT-0600 (Central Standard Time),782358.5,039_o_m_n_a.png,O,m,1984,15,1,3008.7000000029802,779349.799999997,7052,VNB,A,13
11,test,5,0.0,2-Back,0,m,Wed Feb 12 2025 11:00:25 GMT-0600 (Central Standard Time),785224.200000003,165_m_m_d_a.png,O,z,1832,16,1,2858.10000000149,782366.1000000015,7052,VNB,A,14
12,test,5,0.0,2-Back,1,z,Wed Feb 12 2025 11:00:25 GMT-0600 (Central Standard Time),788073.3999999985,124_o_f_n_a.png,O,z,1814,17,1,2842.6999999955297,785230.700000003,7052,VNB,A,15
13,test,5,1.0,2-Back,1,m,Wed Feb 12 2025 11:00:25 GMT-0600 (Central Standard Time),790489.3999999985,109_y_m_h_a.png,O,m,1397,18,1,2408.39999999851,788081.0,7052,VNB,A,16
