acc_sum,block,block_c,change,condition,correct,correct_response,datetime,endtime,face,project,response,response_time,row_sel,session_number,start_end,starttime,subject_id,task,task_vers,trial
0,prac,1,,1-Back,,,Fri Apr 04 2025 16:31:33 GMT-0500 (Central Daylight Time),,005_o_f_d_a.png,O,space,8401,1,1,,,7112,VNB,B,0
0,prac,1,0.0,1-Back,0,m,Fri Apr 04 2025 16:31:33 GMT-0500 (Central Daylight Time),149210.90000003576,020_y_f_n_a.png,O,None,2009,2,1,2897.400000035763,146313.5,7112,VNB,B,1
1,prac,1,0.0,1-Back,1,m,Fri Apr 04 2025 16:31:33 GMT-0500 (Central Daylight Time),151510.30000001192,007_m_m_h_a.png,O,m,1346,3,1,2265.0,149245.30000001192,7112,VNB,B,2
2,prac,1,0.0,1-Back,1,m,Fri Apr 04 2025 16:31:33 GMT-0500 (Central Daylight Time),153542.90000003576,016_y_m_d_a.png,O,m,1060,4,1,1992.5,151550.40000003576,7112,VNB,B,3
3,prac,1,0.0,1-Back,1,m,Fri Apr 04 2025 16:31:33 GMT-0500 (Central Daylight Time),155408.90000003576,005_o_f_n_a.png,O,m,919,5,1,1841.300000011921,153567.60000002384,7112,VNB,B,4
3,prac,1,1.0,1-Back,0,z,Fri Apr 04 2025 16:31:33 GMT-0500 (Central Daylight Time),157174.80000001192,016_y_m_n_a.png,O,m,803,6,1,1723.0,155451.80000001192,7112,VNB,B,5
3,prac,1,0.0,1-Back,0,m,Fri Apr 04 2025 16:31:33 GMT-0500 (Central Daylight Time),159357.19999998808,004_o_m_h_a.png,O,z,1239,7,1,2139.399999976158,157217.80000001192,7112,VNB,B,6
3,prac,1,0.0,1-Back,0,m,Fri Apr 04 2025 16:31:33 GMT-0500 (Central Daylight Time),161706.80000001192,011_m_f_d_a.png,O,z,1411,8,1,2319.399999976158,159387.40000003576,7112,VNB,B,7
3,prac,1,1.0,1-Back,0,z,Fri Apr 04 2025 16:31:33 GMT-0500 (Central Daylight Time),163972.80000001192,020_y_f_d_a.png,O,m,1315,9,1,2225.399999976158,161747.40000003576,7112,VNB,B,8
3,prac,1,0.0,1-Back,0,m,Fri Apr 04 2025 16:31:33 GMT-0500 (Central Daylight Time),166305.5,007_m_m_n_a.png,O,z,1376,10,1,2297.399999976158,164008.10000002384,7112,VNB,B,9
4,prac,1,0.0,1-Back,1,m,Fri Apr 04 2025 16:31:33 GMT-0500 (Central Daylight Time),168371.10000002384,005_o_f_h_a.png,O,m,1120,11,1,2030.199999988079,166340.90000003576,7112,VNB,B,10
5,prac,1,0.0,1-Back,1,m,Fri Apr 04 2025 16:31:33 GMT-0500 (Central Daylight Time),170424.80000001192,016_y_m_d_a.png,O,m,1097,12,1,2018.800000011921,168406.0,7112,VNB,B,11
0,prac,2,0.0,1-Back,,,Fri Apr 04 2025 16:31:33 GMT-0500 (Central Daylight Time),170424.80000001192,005_o_f_d_a.png,O,a,4861,1,1,2018.800000011921,168406.0,7112,VNB,B,0
0,prac,2,0.0,1-Back,0,m,Fri Apr 04 2025 16:31:33 GMT-0500 (Central Daylight Time),180683.5,020_y_f_n_a.png,O,z,1404,2,1,2305.599999964237,178377.90000003576,7112,VNB,B,1
0,prac,2,0.0,1-Back,0,m,Fri Apr 04 2025 16:31:33 GMT-0500 (Central Daylight Time),183649.30000001192,007_m_m_h_a.png,O,None,2016,3,1,2935.5,180713.80000001192,7112,VNB,B,2
1,prac,2,0.0,1-Back,1,m,Fri Apr 04 2025 16:31:33 GMT-0500 (Central Daylight Time),185332.19999998808,016_y_m_d_a.png,O,m,870,4,1,1647.199999988079,183685.0,7112,VNB,B,3
2,prac,2,0.0,1-Back,1,m,Fri Apr 04 2025 16:31:33 GMT-0500 (Central Daylight Time),187115.40000003576,005_o_f_n_a.png,O,m,841,5,1,1748.9000000357628,185366.5,7112,VNB,B,4
2,prac,2,1.0,1-Back,0,z,Fri Apr 04 2025 16:31:33 GMT-0500 (Central Daylight Time),188797.60000002384,016_y_m_n_a.png,O,m,715,6,1,1641.199999988079,187156.40000003576,7112,VNB,B,5
2,prac,2,0.0,1-Back,0,m,Fri Apr 04 2025 16:31:33 GMT-0500 (Central Daylight Time),191197.0,004_o_m_h_a.png,O,z,1468,7,1,2360.899999976158,188836.10000002384,7112,VNB,B,6
3,prac,2,0.0,1-Back,1,m,Fri Apr 04 2025 16:31:33 GMT-0500 (Central Daylight Time),193196.30000001192,011_m_f_d_a.png,O,m,1043,8,1,1954.5,191241.80000001192,7112,VNB,B,7
3,prac,2,1.0,1-Back,0,z,Fri Apr 04 2025 16:31:33 GMT-0500 (Central Daylight Time),195095.90000003576,020_y_f_d_a.png,O,m,963,9,1,1870.800000011921,193225.10000002384,7112,VNB,B,8
4,prac,2,0.0,1-Back,1,m,Fri Apr 04 2025 16:31:33 GMT-0500 (Central Daylight Time),197711.60000002384,007_m_m_n_a.png,O,m,1642,10,1,2576.699999988079,195134.90000003576,7112,VNB,B,9
5,prac,2,0.0,1-Back,1,m,Fri Apr 04 2025 16:31:33 GMT-0500 (Central Daylight Time),199810.69999998808,005_o_f_h_a.png,O,m,1143,11,1,2063.0,197747.69999998808,7112,VNB,B,10
6,prac,2,0.0,1-Back,1,m,Fri Apr 04 2025 16:31:33 GMT-0500 (Central Daylight Time),201926.80000001192,016_y_m_d_a.png,O,m,1146,12,1,2078.899999976158,199847.90000003576,7112,VNB,B,11
0,test,1,0.0,1-Back,,,Fri Apr 04 2025 16:31:33 GMT-0500 (Central Daylight Time),201926.80000001192,020_y_f_d_a.png,O,space,12248,1,1,2078.899999976158,199847.90000003576,7112,VNB,B,0
0,test,1,0.0,1-Back,0,m,Fri Apr 04 2025 16:31:33 GMT-0500 (Central Daylight Time),228867.90000003576,011_m_f_n_a.png,O,z,1474,2,1,2490.2000000476837,226377.69999998808,7112,VNB,B,1
1,test,1,0.0,1-Back,1,m,Fri Apr 04 2025 16:31:33 GMT-0500 (Central Daylight Time),230950.60000002384,004_o_m_h_a.png,O,m,1038,3,1,2056.100000023842,228894.5,7112,VNB,B,2
1,test,1,1.0,1-Back,0,z,Fri Apr 04 2025 16:31:33 GMT-0500 (Central Daylight Time),232916.40000003576,007_m_m_h_a.png,O,m,907,4,1,1932.9000000357628,230983.5,7112,VNB,B,3
1,test,1,0.0,1-Back,0,m,Fri Apr 04 2025 16:31:33 GMT-0500 (Central Daylight Time),235665.80000001192,005_o_f_n_a.png,O,z,1709,5,1,2722.399999976158,232943.40000003576,7112,VNB,B,4
2,test,1,0.0,1-Back,1,m,Fri Apr 04 2025 16:31:33 GMT-0500 (Central Daylight Time),237930.60000002384,016_y_m_d_a.png,O,m,1222,6,1,2237.100000023842,235693.5,7112,VNB,B,5
3,test,1,1.0,1-Back,1,z,Fri Apr 04 2025 16:31:33 GMT-0500 (Central Daylight Time),240297.19999998808,011_m_f_d_a.png,O,z,1337,7,1,2360.899999976158,237936.30000001192,7112,VNB,B,6
4,test,1,0.0,1-Back,1,m,Fri Apr 04 2025 16:31:33 GMT-0500 (Central Daylight Time),242496.69999998808,020_y_f_h_a.png,O,m,1143,8,1,2167.599999964237,240329.10000002384,7112,VNB,B,7
5,test,1,0.0,1-Back,1,m,Fri Apr 04 2025 16:31:33 GMT-0500 (Central Daylight Time),244629.10000002384,004_o_m_n_a.png,O,m,1097,9,1,2102.5,242526.60000002384,7112,VNB,B,8
5,test,1,0.0,1-Back,0,m,Fri Apr 04 2025 16:31:33 GMT-0500 (Central Daylight Time),246911.90000003576,016_y_m_h_a.png,O,z,1220,10,1,2248.2000000476837,244663.69999998808,7112,VNB,B,9
5,test,1,0.0,1-Back,0,m,Fri Apr 04 2025 16:31:33 GMT-0500 (Central Daylight Time),249977.90000003576,004_o_m_d_a.png,O,None,2014,11,1,3033.100000023842,246944.80000001192,7112,VNB,B,10
5,test,1,1.0,1-Back,0,z,Fri Apr 04 2025 16:31:33 GMT-0500 (Central Daylight Time),252093.10000002384,005_o_f_d_a.png,O,m,1063,12,1,2084.900000035763,250008.19999998808,7112,VNB,B,11
5,test,1,0.0,1-Back,0,m,Fri Apr 04 2025 16:31:33 GMT-0500 (Central Daylight Time),254459.5,007_m_m_n_a.png,O,z,1316,13,1,2337.0,252122.5,7112,VNB,B,12
6,test,1,1.0,1-Back,1,z,Fri Apr 04 2025 16:31:33 GMT-0500 (Central Daylight Time),256875.40000003576,020_y_f_n_a.png,O,z,1374,14,1,2386.800000011921,254488.60000002384,7112,VNB,B,13
7,test,1,0.0,1-Back,1,m,Fri Apr 04 2025 16:31:33 GMT-0500 (Central Daylight Time),259157.30000001192,011_m_f_h_a.png,O,m,1246,15,1,2256.100000023842,256901.19999998808,7112,VNB,B,14
7,test,1,0.0,1-Back,0,m,Fri Apr 04 2025 16:31:33 GMT-0500 (Central Daylight Time),261390.19999998808,007_m_m_d_a.png,O,z,1195,16,1,2207.5,259182.69999998808,7112,VNB,B,15
8,test,1,0.0,1-Back,1,m,Fri Apr 04 2025 16:31:33 GMT-0500 (Central Daylight Time),263639.8000000119,016_y_m_n_a.png,O,m,1203,17,1,2218.899999976158,261420.90000003576,7112,VNB,B,16
9,test,1,0.0,1-Back,1,m,Fri Apr 04 2025 16:31:33 GMT-0500 (Central Daylight Time),266505.3000000119,005_o_f_h_a.png,O,m,1801,18,1,2833.800000011921,263671.5,7112,VNB,B,17
0,test,2,0.0,1-Back,,,Fri Apr 04 2025 16:31:33 GMT-0500 (Central Daylight Time),266505.3000000119,016_y_m_n_a.png,O,space,1648,1,1,2833.800000011921,263671.5,7112,VNB,B,0
1,test,2,0.0,1-Back,1,m,Fri Apr 04 2025 16:31:33 GMT-0500 (Central Daylight Time),272486.5,020_y_f_h_a.png,O,m,1262,2,1,2278.399999976158,270208.10000002384,7112,VNB,B,1
2,test,2,1.0,1-Back,1,m,Fri Apr 04 2025 16:31:33 GMT-0500 (Central Daylight Time),274952.6999999881,004_o_m_n_a.png,O,m,1427,3,1,2438.0,272514.6999999881,7112,VNB,B,2
2,test,2,0.0,1-Back,0,m,Fri Apr 04 2025 16:31:33 GMT-0500 (Central Daylight Time),277602.0,011_m_f_d_a.png,O,z,1592,4,1,2615.0,274987.0,7112,VNB,B,3
3,test,2,0.0,1-Back,1,z,Fri Apr 04 2025 16:31:33 GMT-0500 (Central Daylight Time),280300.90000003576,007_m_m_d_a.png,O,z,1656,5,1,2669.5,277631.40000003576,7112,VNB,B,4
4,test,2,0.0,1-Back,1,m,Fri Apr 04 2025 16:31:33 GMT-0500 (Central Daylight Time),282450.3000000119,016_y_m_h_a.png,O,m,1092,6,1,2118.699999988079,280331.60000002384,7112,VNB,B,5
4,test,2,1.0,1-Back,0,z,Fri Apr 04 2025 16:31:33 GMT-0500 (Central Daylight Time),285499.40000003576,005_o_f_h_a.png,O,None,2015,7,1,3024.2000000476837,282475.1999999881,7112,VNB,B,6
5,test,2,0.0,1-Back,1,m,Fri Apr 04 2025 16:31:33 GMT-0500 (Central Daylight Time),288198.3000000119,011_m_f_n_a.png,O,m,1655,8,1,2669.199999988079,285529.10000002384,7112,VNB,B,7
6,test,2,0.0,1-Back,1,m,Fri Apr 04 2025 16:31:33 GMT-0500 (Central Daylight Time),290663.90000003576,020_y_f_d_a.png,O,m,1403,9,1,2434.7000000476837,288229.1999999881,7112,VNB,B,8
6,test,2,0.0,1-Back,0,m,Fri Apr 04 2025 16:31:33 GMT-0500 (Central Daylight Time),293130.10000002384,007_m_m_n_a.png,O,z,1417,10,1,2439.100000023842,290691.0,7112,VNB,B,9
7,test,2,1.0,1-Back,1,m,Fri Apr 04 2025 16:31:33 GMT-0500 (Central Daylight Time),295179.40000003576,011_m_f_h_a.png,O,m,1010,11,1,2023.5,293155.90000003576,7112,VNB,B,10
8,test,2,0.0,1-Back,1,z,Fri Apr 04 2025 16:31:33 GMT-0500 (Central Daylight Time),297562.10000002384,004_o_m_h_a.png,O,z,1334,12,1,2358.199999988079,295203.90000003576,7112,VNB,B,11
9,test,2,0.0,1-Back,1,m,Fri Apr 04 2025 16:31:33 GMT-0500 (Central Daylight Time),300077.40000003576,016_y_m_d_a.png,O,m,1463,13,1,2484.2000000476837,297593.1999999881,7112,VNB,B,12
10,test,2,0.0,1-Back,1,m,Fri Apr 04 2025 16:31:33 GMT-0500 (Central Daylight Time),302693.60000002384,005_o_f_n_a.png,O,m,1555,14,1,2584.800000011921,300108.8000000119,7112,VNB,B,13
10,test,2,0.0,1-Back,0,z,Fri Apr 04 2025 16:31:33 GMT-0500 (Central Daylight Time),304659.1999999881,020_y_f_n_a.png,O,m,924,15,1,1935.3999999761581,302723.8000000119,7112,VNB,B,14
10,test,2,1.0,1-Back,0,m,Fri Apr 04 2025 16:31:33 GMT-0500 (Central Daylight Time),307708.90000003576,007_m_m_h_a.png,O,None,2015,16,1,3030.0,304678.90000003576,7112,VNB,B,15
10,test,2,0.0,1-Back,0,m,Fri Apr 04 2025 16:31:33 GMT-0500 (Central Daylight Time),309841.3000000119,005_o_f_d_a.png,O,z,1093,17,1,2106.0,307735.3000000119,7112,VNB,B,16
10,test,2,1.0,1-Back,0,z,Fri Apr 04 2025 16:31:33 GMT-0500 (Central Daylight Time),312074.10000002384,004_o_m_d_a.png,O,m,1184,18,1,2207.699999988079,309866.40000003576,7112,VNB,B,17
0,test,3,1.0,1-Back,,,Fri Apr 04 2025 16:31:33 GMT-0500 (Central Daylight Time),312074.10000002384,005_o_f_h_a.png,O,space,1048,1,1,2207.699999988079,309866.40000003576,7112,VNB,B,0
1,test,3,0.0,1-Back,1,m,Fri Apr 04 2025 16:31:33 GMT-0500 (Central Daylight Time),317805.3000000119,011_m_f_d_a.png,O,m,1430,2,1,2451.199999988079,315354.10000002384,7112,VNB,B,1
2,test,3,1.0,1-Back,1,m,Fri Apr 04 2025 16:31:33 GMT-0500 (Central Daylight Time),320071.3000000119,007_m_m_n_a.png,O,m,1205,3,1,2234.899999976158,317836.40000003576,7112,VNB,B,2
2,test,3,0.0,1-Back,0,z,Fri Apr 04 2025 16:31:33 GMT-0500 (Central Daylight Time),323053.40000003576,005_o_f_n_a.png,O,m,1939,4,1,2958.100000023842,320095.3000000119,7112,VNB,B,3
2,test,3,1.0,1-Back,0,m,Fri Apr 04 2025 16:31:33 GMT-0500 (Central Daylight Time),325669.0,004_o_m_d_a.png,O,z,1580,5,1,2589.0,323080.0,7112,VNB,B,4
3,test,3,0.0,1-Back,1,m,Fri Apr 04 2025 16:31:33 GMT-0500 (Central Daylight Time),327852.10000002384,020_y_f_h_a.png,O,m,1132,6,1,2157.600000023842,325694.5,7112,VNB,B,5
4,test,3,0.0,1-Back,1,z,Fri Apr 04 2025 16:31:33 GMT-0500 (Central Daylight Time),330017.8000000119,016_y_m_h_a.png,O,z,1126,7,1,2140.399999976158,327877.40000003576,7112,VNB,B,6
5,test,3,0.0,1-Back,1,m,Fri Apr 04 2025 16:31:33 GMT-0500 (Central Daylight Time),332400.6999999881,011_m_f_n_a.png,O,m,1344,8,1,2357.399999976158,330043.3000000119,7112,VNB,B,7
6,test,3,0.0,1-Back,1,m,Fri Apr 04 2025 16:31:33 GMT-0500 (Central Daylight Time),334916.10000002384,020_y_f_d_a.png,O,m,1472,9,1,2491.0,332425.10000002384,7112,VNB,B,8
7,test,3,1.0,1-Back,1,m,Fri Apr 04 2025 16:31:33 GMT-0500 (Central Daylight Time),337348.8000000119,004_o_m_n_a.png,O,m,1372,10,1,2402.899999976158,334945.90000003576,7112,VNB,B,9
8,test,3,0.0,1-Back,1,m,Fri Apr 04 2025 16:31:33 GMT-0500 (Central Daylight Time),339597.90000003576,007_m_m_h_a.png,O,m,1213,11,1,2221.7000000476837,337376.1999999881,7112,VNB,B,10
9,test,3,0.0,1-Back,1,z,Fri Apr 04 2025 16:31:33 GMT-0500 (Central Daylight Time),342296.60000002384,011_m_f_h_a.png,O,z,1634,12,1,2667.300000011921,339629.3000000119,7112,VNB,B,11
9,test,3,1.0,1-Back,0,m,Fri Apr 04 2025 16:31:33 GMT-0500 (Central Daylight Time),345330.0,005_o_f_d_a.png,O,None,2015,13,1,3019.099999964237,342310.90000003576,7112,VNB,B,12
9,test,3,0.0,1-Back,0,z,Fri Apr 04 2025 16:31:33 GMT-0500 (Central Daylight Time),348027.8000000119,007_m_m_d_a.png,O,m,1655,14,1,2674.800000011921,345353.0,7112,VNB,B,13
10,test,3,0.0,1-Back,1,m,Fri Apr 04 2025 16:31:33 GMT-0500 (Central Daylight Time),350794.5,016_y_m_n_a.png,O,m,1734,15,1,2762.300000011921,348032.1999999881,7112,VNB,B,14
11,test,3,1.0,1-Back,1,m,Fri Apr 04 2025 16:31:33 GMT-0500 (Central Daylight Time),353427.3000000119,004_o_m_h_a.png,O,m,1566,16,1,2600.0,350827.3000000119,7112,VNB,B,15
12,test,3,0.0,1-Back,1,m,Fri Apr 04 2025 16:31:33 GMT-0500 (Central Daylight Time),355809.60000002384,016_y_m_d_a.png,O,m,1336,17,1,2352.900000035763,353456.6999999881,7112,VNB,B,16
13,test,3,1.0,1-Back,1,m,Fri Apr 04 2025 16:31:33 GMT-0500 (Central Daylight Time),357725.1999999881,020_y_f_n_a.png,O,m,880,18,1,1886.0,355839.1999999881,7112,VNB,B,17
0,test,4,1.0,1-Back,,,Fri Apr 04 2025 16:31:33 GMT-0500 (Central Daylight Time),357725.1999999881,007_m_m_d_a.png,O,space,1044,1,1,1886.0,355839.1999999881,7112,VNB,B,0
1,test,4,0.0,1-Back,1,z,Fri Apr 04 2025 16:31:33 GMT-0500 (Central Daylight Time),363290.40000003576,004_o_m_d_a.png,O,z,1293,2,1,2303.800000011921,360986.60000002384,7112,VNB,B,1
2,test,4,0.0,1-Back,1,m,Fri Apr 04 2025 16:31:33 GMT-0500 (Central Daylight Time),365206.40000003576,016_y_m_h_a.png,O,m,871,3,1,1891.1000000238419,363315.3000000119,7112,VNB,B,2
2,test,4,0.0,1-Back,0,m,Fri Apr 04 2025 16:31:33 GMT-0500 (Central Daylight Time),368138.6999999881,011_m_f_n_a.png,O,z,1883,4,1,2908.899999976158,365229.8000000119,7112,VNB,B,3
3,test,4,1.0,1-Back,1,m,Fri Apr 04 2025 16:31:33 GMT-0500 (Central Daylight Time),370604.1999999881,005_o_f_h_a.png,O,m,1423,5,1,2442.0,368162.1999999881,7112,VNB,B,4
4,test,4,0.0,1-Back,1,m,Fri Apr 04 2025 16:31:33 GMT-0500 (Central Daylight Time),372836.40000003576,007_m_m_n_a.png,O,m,1196,6,1,2204.0,370632.40000003576,7112,VNB,B,5
5,test,4,0.0,1-Back,1,m,Fri Apr 04 2025 16:31:33 GMT-0500 (Central Daylight Time),375169.8000000119,016_y_m_d_a.png,O,m,1311,7,1,2323.600000023842,372846.1999999881,7112,VNB,B,6
5,test,4,1.0,1-Back,0,z,Fri Apr 04 2025 16:31:33 GMT-0500 (Central Daylight Time),377519.0,020_y_f_d_a.png,O,m,1312,8,1,2324.199999988079,375194.8000000119,7112,VNB,B,7
5,test,4,0.0,1-Back,0,m,Fri Apr 04 2025 16:31:33 GMT-0500 (Central Daylight Time),379701.5,011_m_f_h_a.png,O,z,1147,9,1,2153.399999976158,377548.10000002384,7112,VNB,B,8
5,test,4,0.0,1-Back,0,z,Fri Apr 04 2025 16:31:33 GMT-0500 (Central Daylight Time),382017.40000003576,004_o_m_h_a.png,O,m,1276,10,1,2290.7000000476837,379726.6999999881,7112,VNB,B,9
6,test,4,1.0,1-Back,1,m,Fri Apr 04 2025 16:31:33 GMT-0500 (Central Daylight Time),384683.60000002384,005_o_f_n_a.png,O,m,1599,11,1,2636.199999988079,382047.40000003576,7112,VNB,B,10
7,test,4,0.0,1-Back,1,m,Fri Apr 04 2025 16:31:33 GMT-0500 (Central Daylight Time),387282.3000000119,011_m_f_d_a.png,O,m,1558,12,1,2570.199999988079,384712.10000002384,7112,VNB,B,11
7,test,4,0.0,1-Back,0,m,Fri Apr 04 2025 16:31:33 GMT-0500 (Central Daylight Time),389897.90000003576,020_y_f_n_a.png,O,z,1575,13,1,2587.5,387310.40000003576,7112,VNB,B,12
8,test,4,0.0,1-Back,1,m,Fri Apr 04 2025 16:31:33 GMT-0500 (Central Daylight Time),391748.10000002384,005_o_f_d_a.png,O,m,808,14,1,1830.6000000238419,389917.5,7112,VNB,B,13
9,test,4,0.0,1-Back,1,m,Fri Apr 04 2025 16:31:33 GMT-0500 (Central Daylight Time),393763.6999999881,020_y_f_h_a.png,O,m,949,15,1,1984.8999999761581,391778.8000000119,7112,VNB,B,14
10,test,4,1.0,1-Back,1,z,Fri Apr 04 2025 16:31:33 GMT-0500 (Central Daylight Time),396262.90000003576,007_m_m_h_a.png,O,z,1445,16,1,2461.900000035763,393801.0,7112,VNB,B,15
11,test,4,0.0,1-Back,1,m,Fri Apr 04 2025 16:31:33 GMT-0500 (Central Daylight Time),398928.60000002384,004_o_m_n_a.png,O,m,1618,17,1,2637.800000011921,396290.8000000119,7112,VNB,B,16
12,test,4,1.0,1-Back,1,z,Fri Apr 04 2025 16:31:33 GMT-0500 (Central Daylight Time),401544.6999999881,016_y_m_n_a.png,O,z,1561,18,1,2585.699999988079,398959.0,7112,VNB,B,17
0,test,5,1.0,1-Back,,,Fri Apr 04 2025 16:31:33 GMT-0500 (Central Daylight Time),401544.6999999881,004_o_m_n_a.png,O,space,1192,1,1,2585.699999988079,398959.0,7112,VNB,B,0
1,test,5,1.0,1-Back,1,m,Fri Apr 04 2025 16:31:33 GMT-0500 (Central Daylight Time),406809.60000002384,005_o_f_h_a.png,O,m,1001,2,1,2022.4000000357628,404787.1999999881,7112,VNB,B,1
2,test,5,0.0,1-Back,1,m,Fri Apr 04 2025 16:31:33 GMT-0500 (Central Daylight Time),408775.40000003576,016_y_m_d_a.png,O,m,920,3,1,1943.7000000476837,406831.6999999881,7112,VNB,B,2
3,test,5,0.0,1-Back,1,z,Fri Apr 04 2025 16:31:33 GMT-0500 (Central Daylight Time),410941.40000003576,004_o_m_d_a.png,O,z,1122,4,1,2140.800000011921,408800.60000002384,7112,VNB,B,3
4,test,5,0.0,1-Back,1,m,Fri Apr 04 2025 16:31:33 GMT-0500 (Central Daylight Time),412958.0,011_m_f_h_a.png,O,m,981,5,1,1987.3999999761581,410970.60000002384,7112,VNB,B,4
5,test,5,0.0,1-Back,1,m,Fri Apr 04 2025 16:31:33 GMT-0500 (Central Daylight Time),415673.3000000119,020_y_f_n_a.png,O,m,1652,6,1,2683.100000023842,412990.1999999881,7112,VNB,B,5
5,test,5,1.0,1-Back,0,z,Fri Apr 04 2025 16:31:33 GMT-0500 (Central Daylight Time),418738.3000000119,005_o_f_n_a.png,O,None,2014,7,1,3026.600000023842,415711.6999999881,7112,VNB,B,6
5,test,5,0.0,1-Back,0,m,Fri Apr 04 2025 16:31:33 GMT-0500 (Central Daylight Time),421787.6999999881,011_m_f_d_a.png,O,None,2014,8,1,3033.699999988079,418754.0,7112,VNB,B,7
6,test,5,0.0,1-Back,1,m,Fri Apr 04 2025 16:31:33 GMT-0500 (Central Daylight Time),424253.60000002384,016_y_m_h_a.png,O,m,1422,9,1,2440.900000035763,421812.6999999881,7112,VNB,B,8
7,test,5,0.0,1-Back,1,m,Fri Apr 04 2025 16:31:33 GMT-0500 (Central Daylight Time),426436.6999999881,020_y_f_d_a.png,O,m,1148,10,1,2159.0,424277.6999999881,7112,VNB,B,9
7,test,5,0.0,1-Back,0,m,Fri Apr 04 2025 16:31:33 GMT-0500 (Central Daylight Time),428952.10000002384,007_m_m_n_a.png,O,z,1479,11,1,2486.800000011921,426465.3000000119,7112,VNB,B,10
7,test,5,1.0,1-Back,0,z,Fri Apr 04 2025 16:31:33 GMT-0500 (Central Daylight Time),431301.3000000119,011_m_f_n_a.png,O,m,1313,12,1,2320.800000011921,428980.5,7112,VNB,B,11
8,test,5,0.0,1-Back,1,m,Fri Apr 04 2025 16:31:33 GMT-0500 (Central Daylight Time),433750.5,004_o_m_h_a.png,O,m,1404,13,1,2425.399999976158,431325.10000002384,7112,VNB,B,12
9,test,5,0.0,1-Back,1,z,Fri Apr 04 2025 16:31:33 GMT-0500 (Central Daylight Time),435949.60000002384,007_m_m_h_a.png,O,z,1163,14,1,2171.199999988079,433778.40000003576,7112,VNB,B,13
10,test,5,1.0,1-Back,1,m,Fri Apr 04 2025 16:31:33 GMT-0500 (Central Daylight Time),437932.40000003576,005_o_f_d_a.png,O,m,932,15,1,1957.4000000357628,435975.0,7112,VNB,B,14
10,test,5,0.0,1-Back,0,m,Fri Apr 04 2025 16:31:33 GMT-0500 (Central Daylight Time),440381.8000000119,016_y_m_n_a.png,O,z,1406,16,1,2428.699999988079,437953.10000002384,7112,VNB,B,15
11,test,5,0.0,1-Back,1,m,Fri Apr 04 2025 16:31:33 GMT-0500 (Central Daylight Time),442381.10000002384,020_y_f_h_a.png,O,m,956,17,1,1971.1000000238419,440410.0,7112,VNB,B,16
12,test,5,0.0,1-Back,1,m,Fri Apr 04 2025 16:31:33 GMT-0500 (Central Daylight Time),445379.90000003576,007_m_m_d_a.png,O,m,1932,18,1,2965.400000035763,442414.5,7112,VNB,B,17
0,prac,1,0.0,2-Back,,,Fri Apr 04 2025 16:31:33 GMT-0500 (Central Daylight Time),445379.90000003576,011_m_f_n_a.png,O,space,5179,1,1,2965.400000035763,442414.5,7112,VNB,B,0
0,prac,1,0.0,2-Back,,,Fri Apr 04 2025 16:31:33 GMT-0500 (Central Daylight Time),445379.90000003576,005_o_f_h_a.png,O,space,5179,2,1,2965.400000035763,442414.5,7112,VNB,B,0
0,prac,1,0.0,2-Back,0,m,Fri Apr 04 2025 16:31:33 GMT-0500 (Central Daylight Time),537305.8000000119,004_o_m_d_a.png,O,z,1547,3,1,2476.600000023842,534829.1999999881,7112,VNB,B,1
0,prac,1,1.0,2-Back,0,z,Fri Apr 04 2025 16:31:33 GMT-0500 (Central Daylight Time),540282.4000000358,007_m_m_h_a.png,O,None,2001,4,1,2935.5,537346.9000000358,7112,VNB,B,2
1,prac,1,0.0,2-Back,1,m,Fri Apr 04 2025 16:31:33 GMT-0500 (Central Daylight Time),542548.5,020_y_f_n_a.png,O,m,1298,5,1,2227.5,540321.0,7112,VNB,B,3
1,prac,1,1.0,2-Back,0,z,Fri Apr 04 2025 16:31:33 GMT-0500 (Central Daylight Time),545497.1000000238,004_o_m_h_a.png,O,None,2009,6,1,2907.900000035763,542589.1999999881,7112,VNB,B,4
2,prac,1,1.0,2-Back,1,z,Fri Apr 04 2025 16:31:33 GMT-0500 (Central Daylight Time),547496.6000000238,016_y_m_n_a.png,O,z,1029,7,1,1964.800000011921,545531.8000000119,7112,VNB,B,5
2,prac,1,0.0,2-Back,0,m,Fri Apr 04 2025 16:31:33 GMT-0500 (Central Daylight Time),550029.0,011_m_f_d_a.png,O,z,1574,8,1,2490.599999964237,547538.4000000358,7112,VNB,B,6
3,prac,1,0.0,2-Back,1,m,Fri Apr 04 2025 16:31:33 GMT-0500 (Central Daylight Time),552245.3000000119,005_o_f_d_a.png,O,m,1256,9,1,2178.100000023842,550067.1999999881,7112,VNB,B,7
3,prac,1,0.0,2-Back,0,m,Fri Apr 04 2025 16:31:33 GMT-0500 (Central Daylight Time),554627.9000000358,007_m_m_h_a.png,O,z,1424,10,1,2341.800000011921,552286.1000000238,7112,VNB,B,8
3,prac,1,1.0,2-Back,0,z,Fri Apr 04 2025 16:31:33 GMT-0500 (Central Daylight Time),556860.4000000358,020_y_f_d_a.png,O,m,1281,11,1,2197.7000000476837,554662.6999999881,7112,VNB,B,9
3,prac,1,0.0,2-Back,0,m,Fri Apr 04 2025 16:31:33 GMT-0500 (Central Daylight Time),558942.9000000358,004_o_m_n_a.png,O,z,1139,12,1,2044.4000000357628,556898.5,7112,VNB,B,10
0,prac,2,0.0,2-Back,,,Fri Apr 04 2025 16:31:33 GMT-0500 (Central Daylight Time),558942.9000000358,011_m_f_n_a.png,O,a,4568,1,1,2044.4000000357628,556898.5,7112,VNB,B,0
0,prac,2,0.0,2-Back,,,Fri Apr 04 2025 16:31:33 GMT-0500 (Central Daylight Time),558942.9000000358,005_o_f_h_a.png,O,a,4568,2,1,2044.4000000357628,556898.5,7112,VNB,B,0
1,prac,2,0.0,2-Back,1,m,Fri Apr 04 2025 16:31:33 GMT-0500 (Central Daylight Time),571355.3000000119,004_o_m_d_a.png,O,m,1517,3,1,2404.699999988079,568950.6000000238,7112,VNB,B,1
2,prac,2,1.0,2-Back,1,z,Fri Apr 04 2025 16:31:33 GMT-0500 (Central Daylight Time),574071.4000000358,007_m_m_h_a.png,O,z,1755,4,1,2684.2000000476837,571387.1999999881,7112,VNB,B,2
3,prac,2,0.0,2-Back,1,m,Fri Apr 04 2025 16:31:33 GMT-0500 (Central Daylight Time),576803.6000000238,020_y_f_n_a.png,O,m,1791,5,1,2695.0,574108.6000000238,7112,VNB,B,3
3,prac,2,1.0,2-Back,0,z,Fri Apr 04 2025 16:31:33 GMT-0500 (Central Daylight Time),579569.5,004_o_m_h_a.png,O,m,1834,6,1,2729.300000011921,576840.1999999881,7112,VNB,B,4
4,prac,2,1.0,2-Back,1,z,Fri Apr 04 2025 16:31:33 GMT-0500 (Central Daylight Time),581618.0,016_y_m_n_a.png,O,z,1092,7,1,2010.300000011921,579607.6999999881,7112,VNB,B,5
5,prac,2,0.0,2-Back,1,m,Fri Apr 04 2025 16:31:33 GMT-0500 (Central Daylight Time),583767.1000000238,011_m_f_d_a.png,O,m,1223,8,1,2140.300000011921,581626.8000000119,7112,VNB,B,6
5,prac,2,0.0,2-Back,0,m,Fri Apr 04 2025 16:31:33 GMT-0500 (Central Daylight Time),586684.0,005_o_f_d_a.png,O,None,2002,9,1,2910.099999964237,583773.9000000358,7112,VNB,B,7
6,prac,2,0.0,2-Back,1,m,Fri Apr 04 2025 16:31:33 GMT-0500 (Central Daylight Time),588916.5,007_m_m_h_a.png,O,m,1281,10,1,2198.800000011921,586717.6999999881,7112,VNB,B,8
7,prac,2,1.0,2-Back,1,z,Fri Apr 04 2025 16:31:33 GMT-0500 (Central Daylight Time),591282.4000000358,020_y_f_d_a.png,O,z,1410,11,1,2324.0,588958.4000000358,7112,VNB,B,9
8,prac,2,0.0,2-Back,1,m,Fri Apr 04 2025 16:31:33 GMT-0500 (Central Daylight Time),593317.1000000238,004_o_m_n_a.png,O,m,1106,12,1,2010.199999988079,591306.9000000358,7112,VNB,B,10
0,test,1,0.0,2-Back,,,Fri Apr 04 2025 16:31:33 GMT-0500 (Central Daylight Time),593317.1000000238,016_y_m_h_a.png,O,space,3713,1,1,2010.199999988079,591306.9000000358,7112,VNB,B,0
0,test,1,0.0,2-Back,,,Fri Apr 04 2025 16:31:33 GMT-0500 (Central Daylight Time),593317.1000000238,005_o_f_n_a.png,O,space,3713,2,1,2010.199999988079,591306.9000000358,7112,VNB,B,0
1,test,1,0.0,2-Back,1,z,Fri Apr 04 2025 16:31:33 GMT-0500 (Central Daylight Time),613974.8000000119,004_o_m_h_a.png,O,z,1671,3,1,2697.300000011921,611277.5,7112,VNB,B,1
2,test,1,0.0,2-Back,1,m,Fri Apr 04 2025 16:31:33 GMT-0500 (Central Daylight Time),616790.3000000119,011_m_f_d_a.png,O,m,1763,4,1,2786.300000011921,614004.0,7112,VNB,B,2
2,test,1,1.0,2-Back,0,m,Fri Apr 04 2025 16:31:33 GMT-0500 (Central Daylight Time),619856.6000000238,016_y_m_n_a.png,O,None,2014,5,1,3035.0,616821.6000000238,7112,VNB,B,3
3,test,1,0.0,2-Back,1,z,Fri Apr 04 2025 16:31:33 GMT-0500 (Central Daylight Time),622372.1000000238,020_y_f_d_a.png,O,z,1458,6,1,2482.199999988079,619889.9000000358,7112,VNB,B,4
4,test,1,0.0,2-Back,1,m,Fri Apr 04 2025 16:31:33 GMT-0500 (Central Daylight Time),624405.1000000238,007_m_m_h_a.png,O,m,982,7,1,2002.6000000238419,622402.5,7112,VNB,B,5
4,test,1,1.0,2-Back,0,m,Fri Apr 04 2025 16:31:33 GMT-0500 (Central Daylight Time),626654.0,020_y_f_n_a.png,O,z,1188,8,1,2219.800000011921,624434.1999999881,7112,VNB,B,6
4,test,1,0.0,2-Back,0,z,Fri Apr 04 2025 16:31:33 GMT-0500 (Central Daylight Time),628486.4000000358,005_o_f_h_a.png,O,m,797,9,1,1807.4000000357628,626679.0,7112,VNB,B,7
4,test,1,0.0,2-Back,0,m,Fri Apr 04 2025 16:31:33 GMT-0500 (Central Daylight Time),630735.3000000119,004_o_m_d_a.png,O,z,1185,10,1,2217.800000011921,628517.5,7112,VNB,B,8
5,test,1,1.0,2-Back,1,m,Fri Apr 04 2025 16:31:33 GMT-0500 (Central Daylight Time),632535.3000000119,007_m_m_d_a.png,O,m,770,11,1,1785.5,630749.8000000119,7112,VNB,B,9
6,test,1,0.0,2-Back,1,m,Fri Apr 04 2025 16:31:33 GMT-0500 (Central Daylight Time),634951.1999999881,011_m_f_n_a.png,O,m,1370,12,1,2392.199999988079,632559.0,7112,VNB,B,10
6,test,1,0.0,2-Back,0,m,Fri Apr 04 2025 16:31:33 GMT-0500 (Central Daylight Time),637999.4000000358,020_y_f_h_a.png,O,None,2013,13,1,3019.5,634979.9000000358,7112,VNB,B,11
6,test,1,0.0,2-Back,0,z,Fri Apr 04 2025 16:31:33 GMT-0500 (Central Daylight Time),639533.1000000238,007_m_m_n_a.png,O,m,499,14,1,1528.4000000357628,638004.6999999881,7112,VNB,B,12
6,test,1,0.0,2-Back,0,m,Fri Apr 04 2025 16:31:33 GMT-0500 (Central Daylight Time),641399.3000000119,016_y_m_d_a.png,O,z,812,15,1,1832.699999988079,639566.6000000238,7112,VNB,B,13
7,test,1,1.0,2-Back,1,m,Fri Apr 04 2025 16:31:33 GMT-0500 (Central Daylight Time),643131.8000000119,011_m_f_h_a.png,O,m,690,16,1,1703.3999999761581,641428.4000000358,7112,VNB,B,14
8,test,1,0.0,2-Back,1,z,Fri Apr 04 2025 16:31:33 GMT-0500 (Central Daylight Time),644731.5,005_o_f_d_a.png,O,z,559,17,1,1573.5999999642372,643157.9000000358,7112,VNB,B,15
9,test,1,0.0,2-Back,1,m,Fri Apr 04 2025 16:31:33 GMT-0500 (Central Daylight Time),646364.1999999881,004_o_m_n_a.png,O,m,584,18,1,1603.699999988079,644760.5,7112,VNB,B,16
0,test,2,0.0,2-Back,,,Fri Apr 04 2025 16:31:33 GMT-0500 (Central Daylight Time),646364.1999999881,007_m_m_h_a.png,O,space,1397,1,1,1603.699999988079,644760.5,7112,VNB,B,0
0,test,2,0.0,2-Back,,,Fri Apr 04 2025 16:31:33 GMT-0500 (Central Daylight Time),646364.1999999881,020_y_f_n_a.png,O,space,1397,2,1,1603.699999988079,644760.5,7112,VNB,B,0
0,test,2,1.0,2-Back,0,z,Fri Apr 04 2025 16:31:33 GMT-0500 (Central Daylight Time),654260.9000000358,005_o_f_h_a.png,O,m,80,3,1,1097.4000000357628,653163.5,7112,VNB,B,1
1,test,2,0.0,2-Back,1,m,Fri Apr 04 2025 16:31:33 GMT-0500 (Central Daylight Time),656477.4000000358,004_o_m_d_a.png,O,m,1189,4,1,2201.400000035763,654276.0,7112,VNB,B,2
1,test,2,0.0,2-Back,0,m,Fri Apr 04 2025 16:31:33 GMT-0500 (Central Daylight Time),658093.4000000358,011_m_f_d_a.png,O,z,582,5,1,1591.1000000238419,656502.3000000119,7112,VNB,B,3
2,test,2,0.0,2-Back,1,m,Fri Apr 04 2025 16:31:33 GMT-0500 (Central Daylight Time),659893.5,016_y_m_h_a.png,O,m,764,6,1,1777.5,658116.0,7112,VNB,B,4
2,test,2,0.0,2-Back,0,m,Fri Apr 04 2025 16:31:33 GMT-0500 (Central Daylight Time),661709.3000000119,005_o_f_n_a.png,O,z,781,7,1,1794.1000000238419,659915.1999999881,7112,VNB,B,5
2,test,2,1.0,2-Back,0,z,Fri Apr 04 2025 16:31:33 GMT-0500 (Central Daylight Time),663509.3000000119,004_o_m_h_a.png,O,m,766,8,1,1771.6000000238419,661737.6999999881,7112,VNB,B,6
3,test,2,0.0,2-Back,1,m,Fri Apr 04 2025 16:31:33 GMT-0500 (Central Daylight Time),665307.8000000119,020_y_f_d_a.png,O,m,758,9,1,1768.1000000238419,663539.6999999881,7112,VNB,B,7
3,test,2,0.0,2-Back,0,m,Fri Apr 04 2025 16:31:33 GMT-0500 (Central Daylight Time),667040.6999999881,016_y_m_d_a.png,O,z,686,10,1,1705.199999988079,665335.5,7112,VNB,B,8
4,test,2,0.0,2-Back,1,m,Fri Apr 04 2025 16:31:33 GMT-0500 (Central Daylight Time),668490.3000000119,007_m_m_n_a.png,O,m,409,11,1,1419.3999999761581,667070.9000000358,7112,VNB,B,9
5,test,2,0.0,2-Back,1,m,Fri Apr 04 2025 16:31:33 GMT-0500 (Central Daylight Time),670422.9000000358,011_m_f_h_a.png,O,m,872,12,1,1903.0,668519.9000000358,7112,VNB,B,10
6,test,2,1.0,2-Back,1,z,Fri Apr 04 2025 16:31:33 GMT-0500 (Central Daylight Time),672239.0,004_o_m_n_a.png,O,z,779,13,1,1792.8999999761581,670446.1000000238,7112,VNB,B,11
7,test,2,0.0,2-Back,1,m,Fri Apr 04 2025 16:31:33 GMT-0500 (Central Daylight Time),673871.6999999881,005_o_f_d_a.png,O,m,594,14,1,1601.3999999761581,672270.3000000119,7112,VNB,B,12
8,test,2,0.0,2-Back,1,m,Fri Apr 04 2025 16:31:33 GMT-0500 (Central Daylight Time),675588.0,020_y_f_h_a.png,O,m,658,15,1,1675.0999999642372,673912.9000000358,7112,VNB,B,13
9,test,2,0.0,2-Back,1,z,Fri Apr 04 2025 16:31:33 GMT-0500 (Central Daylight Time),677637.1999999881,007_m_m_d_a.png,O,z,1015,16,1,2022.199999988079,675615.0,7112,VNB,B,14
10,test,2,0.0,2-Back,1,m,Fri Apr 04 2025 16:31:33 GMT-0500 (Central Daylight Time),679703.1999999881,016_y_m_n_a.png,O,m,1020,17,1,2036.199999988079,677667.0,7112,VNB,B,15
11,test,2,1.0,2-Back,1,m,Fri Apr 04 2025 16:31:33 GMT-0500 (Central Daylight Time),681835.8000000119,011_m_f_n_a.png,O,m,1090,18,1,2107.199999988079,679728.6000000238,7112,VNB,B,16
0,test,3,1.0,2-Back,,,Fri Apr 04 2025 16:31:33 GMT-0500 (Central Daylight Time),681835.8000000119,004_o_m_n_a.png,O,space,1446,1,1,2107.199999988079,679728.6000000238,7112,VNB,B,0
0,test,3,1.0,2-Back,,,Fri Apr 04 2025 16:31:33 GMT-0500 (Central Daylight Time),681835.8000000119,005_o_f_d_a.png,O,space,1446,2,1,2107.199999988079,679728.6000000238,7112,VNB,B,0
1,test,3,0.0,2-Back,1,m,Fri Apr 04 2025 16:31:33 GMT-0500 (Central Daylight Time),691049.6000000238,020_y_f_h_a.png,O,m,1335,3,1,2367.699999988079,688681.9000000358,7112,VNB,B,1
2,test,3,0.0,2-Back,1,z,Fri Apr 04 2025 16:31:33 GMT-0500 (Central Daylight Time),694031.6999999881,011_m_f_d_a.png,O,z,1944,4,1,2956.5,691075.1999999881,7112,VNB,B,2
3,test,3,1.0,2-Back,1,m,Fri Apr 04 2025 16:31:33 GMT-0500 (Central Daylight Time),696431.0,016_y_m_n_a.png,O,m,1361,5,1,2371.399999976158,694059.6000000238,7112,VNB,B,3
3,test,3,0.0,2-Back,0,m,Fri Apr 04 2025 16:31:33 GMT-0500 (Central Daylight Time),698880.4000000358,004_o_m_h_a.png,O,z,1403,6,1,2424.5,696455.9000000358,7112,VNB,B,4
3,test,3,0.0,2-Back,0,z,Fri Apr 04 2025 16:31:33 GMT-0500 (Central Daylight Time),700797.0,020_y_f_n_a.png,O,m,881,7,1,1892.5999999642372,698904.4000000358,7112,VNB,B,5
4,test,3,1.0,2-Back,1,m,Fri Apr 04 2025 16:31:33 GMT-0500 (Central Daylight Time),702529.0,007_m_m_d_a.png,O,m,686,8,1,1703.0,700826.0,7112,VNB,B,6
4,test,3,0.0,2-Back,0,m,Fri Apr 04 2025 16:31:33 GMT-0500 (Central Daylight Time),704278.3000000119,016_y_m_d_a.png,O,z,714,9,1,1720.6000000238419,702557.6999999881,7112,VNB,B,7
5,test,3,0.0,2-Back,1,m,Fri Apr 04 2025 16:31:33 GMT-0500 (Central Daylight Time),705827.3000000119,005_o_f_h_a.png,O,m,514,10,1,1524.5,704302.8000000119,7112,VNB,B,8
5,test,3,1.0,2-Back,0,m,Fri Apr 04 2025 16:31:33 GMT-0500 (Central Daylight Time),707844.5,011_m_f_n_a.png,O,z,982,11,1,2012.8999999761581,705831.6000000238,7112,VNB,B,9
5,test,3,1.0,2-Back,0,z,Fri Apr 04 2025 16:31:33 GMT-0500 (Central Daylight Time),709360.1999999881,007_m_m_h_a.png,O,m,453,12,1,1485.0999999642372,707875.1000000238,7112,VNB,B,10
6,test,3,0.0,2-Back,1,m,Fri Apr 04 2025 16:31:33 GMT-0500 (Central Daylight Time),710959.6000000238,020_y_f_d_a.png,O,m,545,13,1,1566.800000011921,709392.8000000119,7112,VNB,B,11
7,test,3,0.0,2-Back,1,m,Fri Apr 04 2025 16:31:33 GMT-0500 (Central Daylight Time),713158.6000000238,005_o_f_n_a.png,O,m,1163,14,1,2175.600000023842,710983.0,7112,VNB,B,12
8,test,3,0.0,2-Back,1,z,Fri Apr 04 2025 16:31:33 GMT-0500 (Central Daylight Time),715641.6000000238,004_o_m_d_a.png,O,z,1418,15,1,2448.699999988079,713192.9000000358,7112,VNB,B,13
9,test,3,1.0,2-Back,1,m,Fri Apr 04 2025 16:31:33 GMT-0500 (Central Daylight Time),717807.1999999881,011_m_f_h_a.png,O,m,1120,16,1,2137.599999964237,715669.6000000238,7112,VNB,B,14
10,test,3,0.0,2-Back,1,m,Fri Apr 04 2025 16:31:33 GMT-0500 (Central Daylight Time),720023.3000000119,007_m_m_n_a.png,O,m,1154,17,1,2185.100000023842,717838.1999999881,7112,VNB,B,15
11,test,3,0.0,2-Back,1,z,Fri Apr 04 2025 16:31:33 GMT-0500 (Central Daylight Time),722188.4000000358,016_y_m_h_a.png,O,z,1121,18,1,2137.5,720050.9000000358,7112,VNB,B,16
0,test,4,0.0,2-Back,,,Fri Apr 04 2025 16:31:33 GMT-0500 (Central Daylight Time),722188.4000000358,011_m_f_n_a.png,O,space,1400,1,1,2137.5,720050.9000000358,7112,VNB,B,0
0,test,4,0.0,2-Back,,,Fri Apr 04 2025 16:31:33 GMT-0500 (Central Daylight Time),722188.4000000358,004_o_m_n_a.png,O,space,1400,2,1,2137.5,720050.9000000358,7112,VNB,B,0
1,test,4,1.0,2-Back,1,m,Fri Apr 04 2025 16:31:33 GMT-0500 (Central Daylight Time),731119.6000000238,016_y_m_h_a.png,O,m,1144,3,1,2165.0,728954.6000000238,7112,VNB,B,1
1,test,4,1.0,2-Back,0,m,Fri Apr 04 2025 16:31:33 GMT-0500 (Central Daylight Time),734169.3000000119,005_o_f_d_a.png,O,None,2014,4,1,3024.5,731144.8000000119,7112,VNB,B,2
2,test,4,0.0,2-Back,1,z,Fri Apr 04 2025 16:31:33 GMT-0500 (Central Daylight Time),737034.4000000358,004_o_m_h_a.png,O,z,1825,5,1,2843.5,734190.9000000358,7112,VNB,B,3
3,test,4,0.0,2-Back,1,m,Fri Apr 04 2025 16:31:33 GMT-0500 (Central Daylight Time),738901.1999999881,007_m_m_n_a.png,O,m,833,6,1,1837.0999999642372,737064.1000000238,7112,VNB,B,4
4,test,4,0.0,2-Back,1,m,Fri Apr 04 2025 16:31:33 GMT-0500 (Central Daylight Time),740533.5,011_m_f_d_a.png,O,m,581,7,1,1603.0999999642372,738930.4000000358,7112,VNB,B,5
5,test,4,0.0,2-Back,1,z,Fri Apr 04 2025 16:31:33 GMT-0500 (Central Daylight Time),742216.0,020_y_f_n_a.png,O,z,644,8,1,1658.5999999642372,740557.4000000358,7112,VNB,B,6
6,test,4,1.0,2-Back,1,m,Fri Apr 04 2025 16:31:33 GMT-0500 (Central Daylight Time),744165.4000000358,005_o_f_h_a.png,O,m,905,9,1,1920.1000000238419,742245.3000000119,7112,VNB,B,7
6,test,4,0.0,2-Back,0,m,Fri Apr 04 2025 16:31:33 GMT-0500 (Central Daylight Time),746464.6000000238,007_m_m_h_a.png,O,z,1261,10,1,2273.5,744191.1000000238,7112,VNB,B,8
7,test,4,0.0,2-Back,1,m,Fri Apr 04 2025 16:31:33 GMT-0500 (Central Daylight Time),748614.1000000238,020_y_f_d_a.png,O,m,1088,11,1,2120.300000011921,746493.8000000119,7112,VNB,B,9
8,test,4,0.0,2-Back,1,m,Fri Apr 04 2025 16:31:33 GMT-0500 (Central Daylight Time),750379.8000000119,016_y_m_n_a.png,O,m,723,12,1,1739.3999999761581,748640.4000000358,7112,VNB,B,10
9,test,4,0.0,2-Back,1,z,Fri Apr 04 2025 16:31:33 GMT-0500 (Central Daylight Time),752279.4000000358,004_o_m_d_a.png,O,z,855,13,1,1873.0,750406.4000000358,7112,VNB,B,11
10,test,4,1.0,2-Back,1,m,Fri Apr 04 2025 16:31:33 GMT-0500 (Central Daylight Time),753845.5,011_m_f_h_a.png,O,m,522,14,1,1541.3999999761581,752304.1000000238,7112,VNB,B,12
11,test,4,1.0,2-Back,1,m,Fri Apr 04 2025 16:31:33 GMT-0500 (Central Daylight Time),755844.9000000358,020_y_f_h_a.png,O,m,932,15,1,1965.0,753879.9000000358,7112,VNB,B,13
12,test,4,0.0,2-Back,1,m,Fri Apr 04 2025 16:31:33 GMT-0500 (Central Daylight Time),757843.6999999881,005_o_f_n_a.png,O,m,965,16,1,1972.3999999761581,755871.3000000119,7112,VNB,B,14
12,test,4,0.0,2-Back,0,m,Fri Apr 04 2025 16:31:33 GMT-0500 (Central Daylight Time),759360.4000000358,016_y_m_d_a.png,O,z,483,17,1,1507.4000000357628,757853.0,7112,VNB,B,15
12,test,4,1.0,2-Back,0,m,Fri Apr 04 2025 16:31:33 GMT-0500 (Central Daylight Time),761525.9000000358,007_m_m_d_a.png,O,z,1130,18,1,2137.2000000476837,759388.6999999881,7112,VNB,B,16
0,test,5,1.0,2-Back,,,Fri Apr 04 2025 16:31:33 GMT-0500 (Central Daylight Time),761525.9000000358,020_y_f_d_a.png,O,space,1244,1,1,2137.2000000476837,759388.6999999881,7112,VNB,B,0
0,test,5,1.0,2-Back,,,Fri Apr 04 2025 16:31:33 GMT-0500 (Central Daylight Time),761525.9000000358,005_o_f_h_a.png,O,space,1244,2,1,2137.2000000476837,759388.6999999881,7112,VNB,B,0
1,test,5,1.0,2-Back,1,z,Fri Apr 04 2025 16:31:33 GMT-0500 (Central Daylight Time),770156.6999999881,004_o_m_d_a.png,O,z,1024,3,1,2043.8999999761581,768112.8000000119,7112,VNB,B,1
1,test,5,1.0,2-Back,0,m,Fri Apr 04 2025 16:31:33 GMT-0500 (Central Daylight Time),773205.4000000358,011_m_f_n_a.png,O,None,2013,4,1,3026.7000000476837,770178.6999999881,7112,VNB,B,2
1,test,5,0.0,2-Back,0,m,Fri Apr 04 2025 16:31:33 GMT-0500 (Central Daylight Time),775605.5,007_m_m_h_a.png,O,z,1376,5,1,2386.5,773219.0,7112,VNB,B,3
1,test,5,0.0,2-Back,0,z,Fri Apr 04 2025 16:31:33 GMT-0500 (Central Daylight Time),777187.8000000119,020_y_f_n_a.png,O,m,532,6,1,1551.300000011921,775636.5,7112,VNB,B,4
2,test,5,0.0,2-Back,1,m,Fri Apr 04 2025 16:31:33 GMT-0500 (Central Daylight Time),779053.6999999881,005_o_f_d_a.png,O,m,805,7,1,1831.0,777222.6999999881,7112,VNB,B,5
2,test,5,0.0,2-Back,0,m,Fri Apr 04 2025 16:31:33 GMT-0500 (Central Daylight Time),780569.8000000119,004_o_m_h_a.png,O,z,469,8,1,1487.0,779082.8000000119,7112,VNB,B,6
2,test,5,1.0,2-Back,0,z,Fri Apr 04 2025 16:31:33 GMT-0500 (Central Daylight Time),782019.6000000238,011_m_f_d_a.png,O,m,391,9,1,1415.5,780604.1000000238,7112,VNB,B,7
2,test,5,0.0,2-Back,0,m,Fri Apr 04 2025 16:31:33 GMT-0500 (Central Daylight Time),783801.4000000358,016_y_m_n_a.png,O,z,733,10,1,1753.2000000476837,782048.1999999881,7112,VNB,B,8
3,test,5,0.0,2-Back,1,m,Fri Apr 04 2025 16:31:33 GMT-0500 (Central Daylight Time),785434.1999999881,007_m_m_n_a.png,O,m,608,11,1,1623.3999999761581,783810.8000000119,7112,VNB,B,9
4,test,5,0.0,2-Back,1,m,Fri Apr 04 2025 16:31:33 GMT-0500 (Central Daylight Time),787001.4000000358,020_y_f_h_a.png,O,m,544,12,1,1562.4000000357628,785439.0,7112,VNB,B,10
4,test,5,0.0,2-Back,0,m,Fri Apr 04 2025 16:31:33 GMT-0500 (Central Daylight Time),788801.0,016_y_m_d_a.png,O,z,746,13,1,1768.199999988079,787032.8000000119,7112,VNB,B,11
4,test,5,1.0,2-Back,0,z,Fri Apr 04 2025 16:31:33 GMT-0500 (Central Daylight Time),790550.1000000238,011_m_f_h_a.png,O,m,696,14,1,1718.4000000357628,788831.6999999881,7112,VNB,B,12
5,test,5,0.0,2-Back,1,m,Fri Apr 04 2025 16:31:33 GMT-0500 (Central Daylight Time),792399.6000000238,004_o_m_n_a.png,O,m,805,15,1,1822.5,790577.1000000238,7112,VNB,B,13
5,test,5,0.0,2-Back,0,m,Fri Apr 04 2025 16:31:33 GMT-0500 (Central Daylight Time),793898.1999999881,007_m_m_d_a.png,O,z,434,16,1,1465.699999988079,792432.5,7112,VNB,B,14
5,test,5,0.0,2-Back,0,z,Fri Apr 04 2025 16:31:33 GMT-0500 (Central Daylight Time),795697.6000000238,005_o_f_n_a.png,O,m,768,17,1,1795.1000000238419,793902.5,7112,VNB,B,15
5,test,5,1.0,2-Back,0,m,Fri Apr 04 2025 16:31:33 GMT-0500 (Central Daylight Time),797646.9000000358,016_y_m_h_a.png,O,z,927,18,1,1944.300000011921,795702.6000000238,7112,VNB,B,16
