acc_sum,block,block_c,change,condition,correct,correct_response,datetime,endtime,face,project,response,response_time,row_sel,session_number,start_end,starttime,subject_id,task,task_vers,trial
0,prac,1,,1-Back,,,Fri Apr 11 2025 10:05:22 GMT-0500 (Central Daylight Time),,005_o_f_d_a.png,O,space,8123,1,1,,,7123,VNB,B,0
1,prac,1,0.0,1-Back,1,m,Fri Apr 11 2025 10:05:22 GMT-0500 (Central Daylight Time),133413.19999999553,020_y_f_n_a.png,O,m,1596,2,1,2470.89999999851,130942.29999999702,7123,VNB,B,1
2,prac,1,0.0,1-Back,1,m,Fri Apr 11 2025 10:05:22 GMT-0500 (Central Daylight Time),135678.5,007_m_m_h_a.png,O,m,1370,3,1,2256.4000000059605,133422.09999999404,7123,VNB,B,2
3,prac,1,0.0,1-Back,1,m,Fri Apr 11 2025 10:05:22 GMT-0500 (Central Daylight Time),137561.8999999985,016_y_m_d_a.png,O,m,990,4,1,1873.3000000044703,135688.59999999404,7123,VNB,B,3
4,prac,1,0.0,1-Back,1,m,Fri Apr 11 2025 10:05:22 GMT-0500 (Central Daylight Time),140110.19999999553,005_o_f_n_a.png,O,m,1668,5,1,2537.60000000149,137572.59999999404,7123,VNB,B,4
4,prac,1,1.0,1-Back,0,z,Fri Apr 11 2025 10:05:22 GMT-0500 (Central Daylight Time),142076.69999999553,016_y_m_n_a.png,O,m,1071,6,1,1956.6000000014901,140120.09999999404,7123,VNB,B,5
4,prac,1,0.0,1-Back,0,m,Fri Apr 11 2025 10:05:22 GMT-0500 (Central Daylight Time),144943.19999999553,004_o_m_h_a.png,O,None,2004,7,1,2852.10000000149,142091.09999999404,7123,VNB,B,6
5,prac,1,0.0,1-Back,1,m,Fri Apr 11 2025 10:05:22 GMT-0500 (Central Daylight Time),147675.19999999553,011_m_f_d_a.png,O,m,1846,8,1,2722.6999999955297,144952.5,7123,VNB,B,7
6,prac,1,1.0,1-Back,1,z,Fri Apr 11 2025 10:05:22 GMT-0500 (Central Daylight Time),149624.5,020_y_f_d_a.png,O,z,1080,9,1,1941.0,147683.5,7123,VNB,B,8
7,prac,1,0.0,1-Back,1,m,Fri Apr 11 2025 10:05:22 GMT-0500 (Central Daylight Time),151807.3999999985,007_m_m_n_a.png,O,m,1296,10,1,2174.89999999851,149632.5,7123,VNB,B,9
8,prac,1,0.0,1-Back,1,m,Fri Apr 11 2025 10:05:22 GMT-0500 (Central Daylight Time),154173.69999999553,005_o_f_h_a.png,O,m,1493,11,1,2357.39999999851,151816.29999999702,7123,VNB,B,10
8,prac,1,0.0,1-Back,0,m,Fri Apr 11 2025 10:05:22 GMT-0500 (Central Daylight Time),156172.0,016_y_m_d_a.png,O,z,1104,12,1,1988.5,154183.5,7123,VNB,B,11
0,test,1,0.0,1-Back,,,Fri Apr 11 2025 10:05:22 GMT-0500 (Central Daylight Time),156172.0,020_y_f_d_a.png,O,space,12106,1,1,1988.5,154183.5,7123,VNB,B,0
1,test,1,0.0,1-Back,1,m,Fri Apr 11 2025 10:05:22 GMT-0500 (Central Daylight Time),208422.0,011_m_f_n_a.png,O,m,1537,2,1,2557.4000000059605,205864.59999999404,7123,VNB,B,1
2,test,1,0.0,1-Back,1,m,Fri Apr 11 2025 10:05:22 GMT-0500 (Central Daylight Time),210523.19999999553,004_o_m_h_a.png,O,m,1066,3,1,2094.6999999955297,208428.5,7123,VNB,B,2
3,test,1,1.0,1-Back,1,z,Fri Apr 11 2025 10:05:22 GMT-0500 (Central Daylight Time),212604.79999999702,007_m_m_h_a.png,O,z,1063,4,1,2073.7999999970198,210531.0,7123,VNB,B,3
4,test,1,0.0,1-Back,1,m,Fri Apr 11 2025 10:05:22 GMT-0500 (Central Daylight Time),214571.19999999553,005_o_f_n_a.png,O,m,934,5,1,1955.7999999970198,212615.3999999985,7123,VNB,B,4
5,test,1,0.0,1-Back,1,m,Fri Apr 11 2025 10:05:22 GMT-0500 (Central Daylight Time),217286.3999999985,016_y_m_d_a.png,O,m,1686,6,1,2707.2000000029802,214579.19999999553,7123,VNB,B,5
6,test,1,1.0,1-Back,1,z,Fri Apr 11 2025 10:05:22 GMT-0500 (Central Daylight Time),219302.69999999553,011_m_f_d_a.png,O,z,987,7,1,2008.6999999955297,217294.0,7123,VNB,B,6
7,test,1,0.0,1-Back,1,m,Fri Apr 11 2025 10:05:22 GMT-0500 (Central Daylight Time),221518.5,020_y_f_h_a.png,O,m,1183,8,1,2208.10000000149,219310.3999999985,7123,VNB,B,7
8,test,1,0.0,1-Back,1,m,Fri Apr 11 2025 10:05:22 GMT-0500 (Central Daylight Time),224001.5,004_o_m_n_a.png,O,m,1450,9,1,2474.7000000029802,221526.79999999702,7123,VNB,B,8
9,test,1,0.0,1-Back,1,m,Fri Apr 11 2025 10:05:22 GMT-0500 (Central Daylight Time),226383.19999999553,016_y_m_h_a.png,O,m,1351,10,1,2372.7999999970198,224010.3999999985,7123,VNB,B,9
10,test,1,0.0,1-Back,1,m,Fri Apr 11 2025 10:05:22 GMT-0500 (Central Daylight Time),228365.79999999702,004_o_m_d_a.png,O,m,962,11,1,1975.5,226390.29999999702,7123,VNB,B,10
11,test,1,1.0,1-Back,1,z,Fri Apr 11 2025 10:05:22 GMT-0500 (Central Daylight Time),230499.09999999404,005_o_f_d_a.png,O,z,1114,12,1,2124.39999999851,228374.69999999553,7123,VNB,B,11
12,test,1,0.0,1-Back,1,m,Fri Apr 11 2025 10:05:22 GMT-0500 (Central Daylight Time),232567.69999999553,007_m_m_n_a.png,O,m,1051,13,1,2062.89999999851,230504.79999999702,7123,VNB,B,12
12,test,1,1.0,1-Back,0,z,Fri Apr 11 2025 10:05:22 GMT-0500 (Central Daylight Time),234664.69999999553,020_y_f_n_a.png,O,m,1077,14,1,2088.5,232576.19999999553,7123,VNB,B,13
13,test,1,0.0,1-Back,1,m,Fri Apr 11 2025 10:05:22 GMT-0500 (Central Daylight Time),237180.0,011_m_f_h_a.png,O,m,1488,15,1,2505.7000000029802,234674.29999999702,7123,VNB,B,14
14,test,1,0.0,1-Back,1,m,Fri Apr 11 2025 10:05:22 GMT-0500 (Central Daylight Time),239312.79999999702,007_m_m_d_a.png,O,m,1107,16,1,2122.7999999970198,237190.0,7123,VNB,B,15
15,test,1,0.0,1-Back,1,m,Fri Apr 11 2025 10:05:22 GMT-0500 (Central Daylight Time),241780.8999999985,016_y_m_n_a.png,O,m,1450,17,1,2458.8000000044703,239322.09999999404,7123,VNB,B,16
16,test,1,0.0,1-Back,1,m,Fri Apr 11 2025 10:05:22 GMT-0500 (Central Daylight Time),243944.79999999702,005_o_f_h_a.png,O,m,1144,18,1,2156.2000000029802,241788.59999999404,7123,VNB,B,17
0,test,2,0.0,1-Back,,,Fri Apr 11 2025 10:05:22 GMT-0500 (Central Daylight Time),243944.79999999702,016_y_m_n_a.png,O,space,1441,1,1,2156.2000000029802,241788.59999999404,7123,VNB,B,0
1,test,2,0.0,1-Back,1,m,Fri Apr 11 2025 10:05:22 GMT-0500 (Central Daylight Time),249309.8999999985,020_y_f_h_a.png,O,m,882,2,1,1892.1000000014901,247417.79999999702,7123,VNB,B,1
2,test,2,1.0,1-Back,1,m,Fri Apr 11 2025 10:05:22 GMT-0500 (Central Daylight Time),251358.69999999553,004_o_m_n_a.png,O,m,1028,3,1,2041.1000000014901,249317.59999999404,7123,VNB,B,2
3,test,2,0.0,1-Back,1,m,Fri Apr 11 2025 10:05:22 GMT-0500 (Central Daylight Time),254023.29999999702,011_m_f_d_a.png,O,m,1641,4,1,2655.0,251368.29999999702,7123,VNB,B,3
4,test,2,0.0,1-Back,1,z,Fri Apr 11 2025 10:05:22 GMT-0500 (Central Daylight Time),255908.5,007_m_m_d_a.png,O,z,867,5,1,1879.3000000044703,254029.19999999553,7123,VNB,B,4
5,test,2,0.0,1-Back,1,m,Fri Apr 11 2025 10:05:22 GMT-0500 (Central Daylight Time),257940.29999999702,016_y_m_h_a.png,O,m,1005,6,1,2023.7000000029802,255916.59999999404,7123,VNB,B,5
6,test,2,1.0,1-Back,1,z,Fri Apr 11 2025 10:05:22 GMT-0500 (Central Daylight Time),259955.59999999404,005_o_f_h_a.png,O,z,989,7,1,2004.7999999970198,257950.79999999702,7123,VNB,B,6
7,test,2,0.0,1-Back,1,m,Fri Apr 11 2025 10:05:22 GMT-0500 (Central Daylight Time),262637.69999999553,011_m_f_n_a.png,O,m,1653,8,1,2673.5,259964.19999999553,7123,VNB,B,7
8,test,2,0.0,1-Back,1,m,Fri Apr 11 2025 10:05:22 GMT-0500 (Central Daylight Time),264704.5,020_y_f_d_a.png,O,m,1043,9,1,2058.7000000029802,262645.799999997,7123,VNB,B,8
9,test,2,0.0,1-Back,1,m,Fri Apr 11 2025 10:05:22 GMT-0500 (Central Daylight Time),266670.59999999404,007_m_m_n_a.png,O,m,945,10,1,1957.3999999985099,264713.19999999553,7123,VNB,B,9
10,test,2,1.0,1-Back,1,m,Fri Apr 11 2025 10:05:22 GMT-0500 (Central Daylight Time),268752.69999999553,011_m_f_h_a.png,O,m,1059,11,1,2073.10000000149,266679.59999999404,7123,VNB,B,10
11,test,2,0.0,1-Back,1,z,Fri Apr 11 2025 10:05:22 GMT-0500 (Central Daylight Time),270452.3999999985,004_o_m_h_a.png,O,z,673,12,1,1691.7000000029802,268760.69999999553,7123,VNB,B,11
12,test,2,0.0,1-Back,1,m,Fri Apr 11 2025 10:05:22 GMT-0500 (Central Daylight Time),272402.299999997,016_y_m_d_a.png,O,m,918,13,1,1942.2000000029802,270460.09999999404,7123,VNB,B,12
13,test,2,0.0,1-Back,1,m,Fri Apr 11 2025 10:05:22 GMT-0500 (Central Daylight Time),274733.799999997,005_o_f_n_a.png,O,m,1314,14,1,2323.60000000149,272410.19999999553,7123,VNB,B,13
14,test,2,0.0,1-Back,1,z,Fri Apr 11 2025 10:05:22 GMT-0500 (Central Daylight Time),276716.59999999404,020_y_f_n_a.png,O,z,957,15,1,1974.7999999970198,274741.799999997,7123,VNB,B,14
15,test,2,1.0,1-Back,1,m,Fri Apr 11 2025 10:05:22 GMT-0500 (Central Daylight Time),279332.799999997,007_m_m_h_a.png,O,m,1597,16,1,2606.10000000149,276726.69999999553,7123,VNB,B,15
16,test,2,0.0,1-Back,1,m,Fri Apr 11 2025 10:05:22 GMT-0500 (Central Daylight Time),282132.09999999404,005_o_f_d_a.png,O,m,1773,17,1,2794.2999999970198,279337.799999997,7123,VNB,B,16
17,test,2,1.0,1-Back,1,z,Fri Apr 11 2025 10:05:22 GMT-0500 (Central Daylight Time),284014.5,004_o_m_d_a.png,O,z,861,18,1,1874.9000000059605,282139.59999999404,7123,VNB,B,17
0,test,3,1.0,1-Back,,,Fri Apr 11 2025 10:05:22 GMT-0500 (Central Daylight Time),284014.5,005_o_f_h_a.png,O,space,2788,1,1,1874.9000000059605,282139.59999999404,7123,VNB,B,0
1,test,3,0.0,1-Back,1,m,Fri Apr 11 2025 10:05:22 GMT-0500 (Central Daylight Time),290828.5,011_m_f_d_a.png,O,m,881,2,1,1891.6000000014901,288936.8999999985,7123,VNB,B,1
2,test,3,1.0,1-Back,1,m,Fri Apr 11 2025 10:05:22 GMT-0500 (Central Daylight Time),292929.8999999985,007_m_m_n_a.png,O,m,1068,3,1,2092.39999999851,290837.5,7123,VNB,B,2
3,test,3,0.0,1-Back,1,z,Fri Apr 11 2025 10:05:22 GMT-0500 (Central Daylight Time),294927.8999999985,005_o_f_n_a.png,O,z,968,4,1,1992.3000000044703,292935.59999999404,7123,VNB,B,3
4,test,3,1.0,1-Back,1,m,Fri Apr 11 2025 10:05:22 GMT-0500 (Central Daylight Time),297061.8999999985,004_o_m_d_a.png,O,m,1116,5,1,2126.39999999851,294935.5,7123,VNB,B,4
5,test,3,0.0,1-Back,1,m,Fri Apr 11 2025 10:05:22 GMT-0500 (Central Daylight Time),299541.5,020_y_f_h_a.png,O,m,1464,6,1,2474.8000000044703,297066.69999999553,7123,VNB,B,5
6,test,3,0.0,1-Back,1,z,Fri Apr 11 2025 10:05:22 GMT-0500 (Central Daylight Time),301429.59999999404,016_y_m_h_a.png,O,z,857,7,1,1879.5,299550.09999999404,7123,VNB,B,6
7,test,3,0.0,1-Back,1,m,Fri Apr 11 2025 10:05:22 GMT-0500 (Central Daylight Time),303408.09999999404,011_m_f_n_a.png,O,m,960,8,1,1974.2999999970198,301433.799999997,7123,VNB,B,7
8,test,3,0.0,1-Back,1,m,Fri Apr 11 2025 10:05:22 GMT-0500 (Central Daylight Time),305758.0,020_y_f_d_a.png,O,m,1321,9,1,2343.3000000044703,303414.69999999553,7123,VNB,B,8
9,test,3,1.0,1-Back,1,m,Fri Apr 11 2025 10:05:22 GMT-0500 (Central Daylight Time),307792.59999999404,004_o_m_n_a.png,O,m,1002,10,1,2027.3999999985099,305765.19999999553,7123,VNB,B,9
9,test,3,0.0,1-Back,0,m,Fri Apr 11 2025 10:05:22 GMT-0500 (Central Daylight Time),310239.799999997,007_m_m_h_a.png,O,z,1425,11,1,2441.60000000149,307798.19999999553,7123,VNB,B,10
10,test,3,0.0,1-Back,1,z,Fri Apr 11 2025 10:05:22 GMT-0500 (Central Daylight Time),312106.59999999404,011_m_f_h_a.png,O,z,834,12,1,1863.6999999955297,310242.8999999985,7123,VNB,B,11
11,test,3,1.0,1-Back,1,m,Fri Apr 11 2025 10:05:22 GMT-0500 (Central Daylight Time),314654.19999999553,005_o_f_d_a.png,O,m,1528,13,1,2540.10000000149,312114.09999999404,7123,VNB,B,12
12,test,3,0.0,1-Back,1,z,Fri Apr 11 2025 10:05:22 GMT-0500 (Central Daylight Time),316504.5,007_m_m_d_a.png,O,z,827,14,1,1843.0,314661.5,7123,VNB,B,13
13,test,3,0.0,1-Back,1,m,Fri Apr 11 2025 10:05:22 GMT-0500 (Central Daylight Time),318504.299999997,016_y_m_n_a.png,O,m,977,15,1,1990.7000000029802,316513.59999999404,7123,VNB,B,14
14,test,3,1.0,1-Back,1,m,Fri Apr 11 2025 10:05:22 GMT-0500 (Central Daylight Time),320536.299999997,004_o_m_h_a.png,O,m,1009,16,1,2026.2000000029802,318510.09999999404,7123,VNB,B,15
15,test,3,0.0,1-Back,1,m,Fri Apr 11 2025 10:05:22 GMT-0500 (Central Daylight Time),322352.09999999404,016_y_m_d_a.png,O,m,792,17,1,1808.1999999955297,320543.8999999985,7123,VNB,B,16
16,test,3,1.0,1-Back,1,m,Fri Apr 11 2025 10:05:22 GMT-0500 (Central Daylight Time),324203.3999999985,020_y_f_n_a.png,O,m,834,18,1,1843.2000000029802,322360.19999999553,7123,VNB,B,17
0,test,4,1.0,1-Back,,,Fri Apr 11 2025 10:05:22 GMT-0500 (Central Daylight Time),324203.3999999985,007_m_m_d_a.png,O,space,2086,1,1,1843.2000000029802,322360.19999999553,7123,VNB,B,0
1,test,4,0.0,1-Back,1,z,Fri Apr 11 2025 10:05:22 GMT-0500 (Central Daylight Time),330498.09999999404,004_o_m_d_a.png,O,z,1158,2,1,2170.89999999851,328327.19999999553,7123,VNB,B,1
2,test,4,0.0,1-Back,1,m,Fri Apr 11 2025 10:05:22 GMT-0500 (Central Daylight Time),332267.299999997,016_y_m_h_a.png,O,m,740,3,1,1761.5,330505.799999997,7123,VNB,B,2
3,test,4,0.0,1-Back,1,m,Fri Apr 11 2025 10:05:22 GMT-0500 (Central Daylight Time),334316.799999997,011_m_f_n_a.png,O,m,1032,4,1,2042.2000000029802,332274.59999999404,7123,VNB,B,3
4,test,4,1.0,1-Back,1,m,Fri Apr 11 2025 10:05:22 GMT-0500 (Central Daylight Time),336132.799999997,005_o_f_h_a.png,O,m,799,5,1,1809.1000000014901,334323.69999999553,7123,VNB,B,4
5,test,4,0.0,1-Back,1,m,Fri Apr 11 2025 10:05:22 GMT-0500 (Central Daylight Time),338797.8999999985,007_m_m_n_a.png,O,m,1632,6,1,2657.7000000029802,336140.19999999553,7123,VNB,B,5
6,test,4,0.0,1-Back,1,m,Fri Apr 11 2025 10:05:22 GMT-0500 (Central Daylight Time),340880.3999999985,016_y_m_d_a.png,O,m,1060,7,1,2074.10000000149,338806.299999997,7123,VNB,B,6
7,test,4,1.0,1-Back,1,z,Fri Apr 11 2025 10:05:22 GMT-0500 (Central Daylight Time),342746.5,020_y_f_d_a.png,O,z,833,8,1,1859.9000000059605,340886.59999999404,7123,VNB,B,7
8,test,4,0.0,1-Back,1,m,Fri Apr 11 2025 10:05:22 GMT-0500 (Central Daylight Time),344977.5,011_m_f_h_a.png,O,m,1198,9,1,2227.4000000059605,342750.09999999404,7123,VNB,B,8
9,test,4,0.0,1-Back,1,z,Fri Apr 11 2025 10:05:22 GMT-0500 (Central Daylight Time),346795.799999997,004_o_m_h_a.png,O,z,782,10,1,1812.7000000029802,344983.09999999404,7123,VNB,B,9
10,test,4,1.0,1-Back,1,m,Fri Apr 11 2025 10:05:22 GMT-0500 (Central Daylight Time),348627.09999999404,005_o_f_n_a.png,O,m,815,11,1,1824.0,346803.09999999404,7123,VNB,B,10
11,test,4,0.0,1-Back,1,m,Fri Apr 11 2025 10:05:22 GMT-0500 (Central Daylight Time),351326.5,011_m_f_d_a.png,O,m,1680,12,1,2691.3000000044703,348635.19999999553,7123,VNB,B,11
12,test,4,0.0,1-Back,1,m,Fri Apr 11 2025 10:05:22 GMT-0500 (Central Daylight Time),353410.09999999404,020_y_f_n_a.png,O,m,1059,13,1,2076.6999999955297,351333.3999999985,7123,VNB,B,12
13,test,4,0.0,1-Back,1,m,Fri Apr 11 2025 10:05:22 GMT-0500 (Central Daylight Time),355825.59999999404,005_o_f_d_a.png,O,m,1383,14,1,2402.39999999851,353423.19999999553,7123,VNB,B,13
14,test,4,0.0,1-Back,1,m,Fri Apr 11 2025 10:05:22 GMT-0500 (Central Daylight Time),357774.5,020_y_f_h_a.png,O,m,928,15,1,1941.2000000029802,355833.299999997,7123,VNB,B,14
15,test,4,1.0,1-Back,1,z,Fri Apr 11 2025 10:05:22 GMT-0500 (Central Daylight Time),359541.09999999404,007_m_m_h_a.png,O,z,745,16,1,1760.1999999955297,357780.8999999985,7123,VNB,B,15
16,test,4,0.0,1-Back,1,m,Fri Apr 11 2025 10:05:22 GMT-0500 (Central Daylight Time),361324.09999999404,004_o_m_n_a.png,O,m,748,17,1,1775.5,359548.59999999404,7123,VNB,B,16
17,test,4,1.0,1-Back,1,z,Fri Apr 11 2025 10:05:22 GMT-0500 (Central Daylight Time),363271.8999999985,016_y_m_n_a.png,O,z,927,18,1,1940.1000000014901,361331.799999997,7123,VNB,B,17
0,test,5,1.0,1-Back,,,Fri Apr 11 2025 10:05:22 GMT-0500 (Central Daylight Time),363271.8999999985,004_o_m_n_a.png,O,space,1100,1,1,1940.1000000014901,361331.799999997,7123,VNB,B,0
1,test,5,1.0,1-Back,1,m,Fri Apr 11 2025 10:05:22 GMT-0500 (Central Daylight Time),368288.799999997,005_o_f_h_a.png,O,m,877,2,1,1888.7999999970198,366400.0,7123,VNB,B,1
2,test,5,0.0,1-Back,1,m,Fri Apr 11 2025 10:05:22 GMT-0500 (Central Daylight Time),370152.8999999985,016_y_m_d_a.png,O,m,841,3,1,1856.5,368296.3999999985,7123,VNB,B,2
3,test,5,0.0,1-Back,1,z,Fri Apr 11 2025 10:05:22 GMT-0500 (Central Daylight Time),372669.5,004_o_m_d_a.png,O,z,1495,4,1,2511.4000000059605,370158.09999999404,7123,VNB,B,3
4,test,5,0.0,1-Back,1,m,Fri Apr 11 2025 10:05:22 GMT-0500 (Central Daylight Time),374752.09999999404,011_m_f_h_a.png,O,m,1060,5,1,2073.2999999970198,372678.799999997,7123,VNB,B,4
5,test,5,0.0,1-Back,1,m,Fri Apr 11 2025 10:05:22 GMT-0500 (Central Daylight Time),376820.69999999553,020_y_f_n_a.png,O,m,1051,6,1,2060.89999999851,374759.799999997,7123,VNB,B,5
6,test,5,1.0,1-Back,1,z,Fri Apr 11 2025 10:05:22 GMT-0500 (Central Daylight Time),378517.3999999985,005_o_f_n_a.png,O,z,678,7,1,1689.2000000029802,376828.19999999553,7123,VNB,B,6
7,test,5,0.0,1-Back,1,m,Fri Apr 11 2025 10:05:22 GMT-0500 (Central Daylight Time),380783.299999997,011_m_f_d_a.png,O,m,1243,8,1,2256.7999999970198,378526.5,7123,VNB,B,7
8,test,5,0.0,1-Back,1,m,Fri Apr 11 2025 10:05:22 GMT-0500 (Central Daylight Time),383434.8999999985,016_y_m_h_a.png,O,m,1616,9,1,2645.89999999851,380789.0,7123,VNB,B,8
9,test,5,0.0,1-Back,1,m,Fri Apr 11 2025 10:05:22 GMT-0500 (Central Daylight Time),385648.8999999985,020_y_f_d_a.png,O,m,1193,10,1,2206.60000000149,383442.299999997,7123,VNB,B,9
10,test,5,0.0,1-Back,1,m,Fri Apr 11 2025 10:05:22 GMT-0500 (Central Daylight Time),387682.299999997,007_m_m_n_a.png,O,m,1001,11,1,2027.3999999985099,385654.8999999985,7123,VNB,B,10
10,test,5,1.0,1-Back,0,z,Fri Apr 11 2025 10:05:22 GMT-0500 (Central Daylight Time),389731.3999999985,011_m_f_n_a.png,O,m,1030,12,1,2040.0,387691.3999999985,7123,VNB,B,11
11,test,5,0.0,1-Back,1,m,Fri Apr 11 2025 10:05:22 GMT-0500 (Central Daylight Time),391532.799999997,004_o_m_h_a.png,O,m,774,13,1,1795.2999999970198,389737.5,7123,VNB,B,12
12,test,5,0.0,1-Back,1,z,Fri Apr 11 2025 10:05:22 GMT-0500 (Central Daylight Time),393298.0,007_m_m_h_a.png,O,z,734,14,1,1757.7000000029802,391540.299999997,7123,VNB,B,13
13,test,5,1.0,1-Back,1,m,Fri Apr 11 2025 10:05:22 GMT-0500 (Central Daylight Time),395213.0,005_o_f_d_a.png,O,m,887,15,1,1908.4000000059605,393304.59999999404,7123,VNB,B,14
13,test,5,0.0,1-Back,0,m,Fri Apr 11 2025 10:05:22 GMT-0500 (Central Daylight Time),397361.5,016_y_m_n_a.png,O,z,1125,16,1,2141.7000000029802,395219.799999997,7123,VNB,B,15
14,test,5,0.0,1-Back,1,m,Fri Apr 11 2025 10:05:22 GMT-0500 (Central Daylight Time),400027.3999999985,020_y_f_h_a.png,O,m,1640,17,1,2659.7000000029802,397367.69999999553,7123,VNB,B,16
15,test,5,0.0,1-Back,1,m,Fri Apr 11 2025 10:05:22 GMT-0500 (Central Daylight Time),402044.5,007_m_m_d_a.png,O,m,998,18,1,2011.0,400033.5,7123,VNB,B,17
0,prac,1,0.0,2-Back,,,Fri Apr 11 2025 10:05:22 GMT-0500 (Central Daylight Time),402044.5,011_m_f_n_a.png,O,space,2053,1,1,2011.0,400033.5,7123,VNB,B,0
0,prac,1,0.0,2-Back,,,Fri Apr 11 2025 10:05:22 GMT-0500 (Central Daylight Time),402044.5,005_o_f_h_a.png,O,space,2053,2,1,2011.0,400033.5,7123,VNB,B,0
0,prac,1,0.0,2-Back,0,m,Fri Apr 11 2025 10:05:22 GMT-0500 (Central Daylight Time),493649.09999999404,004_o_m_d_a.png,O,None,2007,3,1,2857.0,490792.09999999404,7123,VNB,B,1
1,prac,1,1.0,2-Back,1,z,Fri Apr 11 2025 10:05:22 GMT-0500 (Central Daylight Time),496197.799999997,007_m_m_h_a.png,O,z,1655,4,1,2541.2000000029802,493656.59999999404,7123,VNB,B,2
2,prac,1,0.0,2-Back,1,m,Fri Apr 11 2025 10:05:22 GMT-0500 (Central Daylight Time),498514.3999999985,020_y_f_n_a.png,O,m,1446,5,1,2307.5,496206.8999999985,7123,VNB,B,3
3,prac,1,1.0,2-Back,1,z,Fri Apr 11 2025 10:05:22 GMT-0500 (Central Daylight Time),500664.0,004_o_m_h_a.png,O,z,1356,6,1,2138.60000000149,498525.3999999985,7123,VNB,B,4
4,prac,1,1.0,2-Back,1,z,Fri Apr 11 2025 10:05:22 GMT-0500 (Central Daylight Time),503094.8999999985,016_y_m_n_a.png,O,z,1532,7,1,2422.2000000029802,500672.69999999553,7123,VNB,B,5
5,prac,1,0.0,2-Back,1,m,Fri Apr 11 2025 10:05:22 GMT-0500 (Central Daylight Time),505194.799999997,011_m_f_d_a.png,O,m,1216,8,1,2092.0,503102.799999997,7123,VNB,B,6
5,prac,1,0.0,2-Back,0,m,Fri Apr 11 2025 10:05:22 GMT-0500 (Central Daylight Time),507511.5,005_o_f_d_a.png,O,z,1433,9,1,2309.60000000149,505201.8999999985,7123,VNB,B,7
5,prac,1,0.0,2-Back,0,m,Fri Apr 11 2025 10:05:22 GMT-0500 (Central Daylight Time),510126.19999999553,007_m_m_h_a.png,O,z,1825,10,1,2604.60000000149,507521.59999999404,7123,VNB,B,8
5,prac,1,1.0,2-Back,0,z,Fri Apr 11 2025 10:05:22 GMT-0500 (Central Daylight Time),513007.19999999553,020_y_f_d_a.png,O,None,2011,11,1,2871.10000000149,510136.09999999404,7123,VNB,B,9
6,prac,1,0.0,2-Back,1,m,Fri Apr 11 2025 10:05:22 GMT-0500 (Central Daylight Time),514375.69999999553,004_o_m_n_a.png,O,m,508,12,1,1363.6000000014901,513012.09999999404,7123,VNB,B,10
0,prac,2,0.0,2-Back,,,Fri Apr 11 2025 10:05:22 GMT-0500 (Central Daylight Time),514375.69999999553,011_m_f_n_a.png,O,a,7663,1,1,1363.6000000014901,513012.09999999404,7123,VNB,B,0
0,prac,2,0.0,2-Back,,,Fri Apr 11 2025 10:05:22 GMT-0500 (Central Daylight Time),514375.69999999553,005_o_f_h_a.png,O,a,7663,2,1,1363.6000000014901,513012.09999999404,7123,VNB,B,0
1,prac,2,0.0,2-Back,1,m,Fri Apr 11 2025 10:05:22 GMT-0500 (Central Daylight Time),529352.3999999985,004_o_m_d_a.png,O,m,1184,3,1,2037.2000000029802,527315.1999999955,7123,VNB,B,1
2,prac,2,1.0,2-Back,1,z,Fri Apr 11 2025 10:05:22 GMT-0500 (Central Daylight Time),531219.8999999985,007_m_m_h_a.png,O,z,1097,4,1,1858.3999999985099,529361.5,7123,VNB,B,2
3,prac,2,0.0,2-Back,1,m,Fri Apr 11 2025 10:05:22 GMT-0500 (Central Daylight Time),533352.299999997,020_y_f_n_a.png,O,m,1270,5,1,2123.60000000149,531228.6999999955,7123,VNB,B,3
4,prac,2,1.0,2-Back,1,z,Fri Apr 11 2025 10:05:22 GMT-0500 (Central Daylight Time),535201.799999997,004_o_m_h_a.png,O,z,983,6,1,1838.7000000029802,533363.099999994,7123,VNB,B,4
4,prac,2,1.0,2-Back,0,z,Fri Apr 11 2025 10:05:22 GMT-0500 (Central Daylight Time),537100.599999994,016_y_m_n_a.png,O,m,1007,7,1,1889.5,535211.099999994,7123,VNB,B,5
5,prac,2,0.0,2-Back,1,m,Fri Apr 11 2025 10:05:22 GMT-0500 (Central Daylight Time),539434.299999997,011_m_f_d_a.png,O,m,1451,8,1,2324.7000000029802,537109.599999994,7123,VNB,B,6
5,prac,2,0.0,2-Back,0,m,Fri Apr 11 2025 10:05:22 GMT-0500 (Central Daylight Time),541966.6999999955,005_o_f_d_a.png,O,z,1668,9,1,2524.39999999851,539442.299999997,7123,VNB,B,7
6,prac,2,0.0,2-Back,1,m,Fri Apr 11 2025 10:05:22 GMT-0500 (Central Daylight Time),544248.1999999955,007_m_m_h_a.png,O,m,1499,10,1,2272.60000000149,541975.599999994,7123,VNB,B,8
7,prac,2,1.0,2-Back,1,z,Fri Apr 11 2025 10:05:22 GMT-0500 (Central Daylight Time),546465.299999997,020_y_f_d_a.png,O,z,1347,11,1,2208.39999999851,544256.8999999985,7123,VNB,B,9
8,prac,2,0.0,2-Back,1,m,Fri Apr 11 2025 10:05:22 GMT-0500 (Central Daylight Time),549080.5,004_o_m_n_a.png,O,m,1743,12,1,2607.2000000029802,546473.299999997,7123,VNB,B,10
0,test,1,0.0,2-Back,,,Fri Apr 11 2025 10:05:22 GMT-0500 (Central Daylight Time),549080.5,016_y_m_h_a.png,O,space,11743,1,1,2607.2000000029802,546473.299999997,7123,VNB,B,0
0,test,1,0.0,2-Back,,,Fri Apr 11 2025 10:05:22 GMT-0500 (Central Daylight Time),549080.5,005_o_f_n_a.png,O,space,11743,2,1,2607.2000000029802,546473.299999997,7123,VNB,B,0
1,test,1,0.0,2-Back,1,z,Fri Apr 11 2025 10:05:22 GMT-0500 (Central Daylight Time),588452.299999997,004_o_m_h_a.png,O,z,1082,3,1,2091.0,586361.299999997,7123,VNB,B,1
2,test,1,0.0,2-Back,1,m,Fri Apr 11 2025 10:05:22 GMT-0500 (Central Daylight Time),590567.6999999955,011_m_f_d_a.png,O,m,1085,4,1,2107.7999999970198,588459.8999999985,7123,VNB,B,2
3,test,1,1.0,2-Back,1,m,Fri Apr 11 2025 10:05:22 GMT-0500 (Central Daylight Time),592701.6999999955,016_y_m_n_a.png,O,m,1115,5,1,2127.5,590574.1999999955,7123,VNB,B,3
4,test,1,0.0,2-Back,1,z,Fri Apr 11 2025 10:05:22 GMT-0500 (Central Daylight Time),595332.599999994,020_y_f_d_a.png,O,z,1606,6,1,2623.5,592709.099999994,7123,VNB,B,4
5,test,1,0.0,2-Back,1,m,Fri Apr 11 2025 10:05:22 GMT-0500 (Central Daylight Time),598298.099999994,007_m_m_h_a.png,O,m,1942,7,1,2958.1999999955297,595339.8999999985,7123,VNB,B,5
6,test,1,1.0,2-Back,1,m,Fri Apr 11 2025 10:05:22 GMT-0500 (Central Daylight Time),600601.6999999955,020_y_f_n_a.png,O,m,1285,8,1,2296.6999999955297,598305.0,7123,VNB,B,6
7,test,1,0.0,2-Back,1,z,Fri Apr 11 2025 10:05:22 GMT-0500 (Central Daylight Time),603280.5,005_o_f_h_a.png,O,z,1658,9,1,2671.8000000044703,600608.6999999955,7123,VNB,B,7
8,test,1,0.0,2-Back,1,m,Fri Apr 11 2025 10:05:22 GMT-0500 (Central Daylight Time),605829.0,004_o_m_d_a.png,O,m,1522,10,1,2540.0,603289.0,7123,VNB,B,8
8,test,1,1.0,2-Back,0,m,Fri Apr 11 2025 10:05:22 GMT-0500 (Central Daylight Time),608862.0,007_m_m_d_a.png,O,None,2017,11,1,3024.5,605837.5,7123,VNB,B,9
9,test,1,0.0,2-Back,1,m,Fri Apr 11 2025 10:05:22 GMT-0500 (Central Daylight Time),611445.5,011_m_f_n_a.png,O,m,1566,12,1,2574.4000000059605,608871.099999994,7123,VNB,B,10
10,test,1,0.0,2-Back,1,m,Fri Apr 11 2025 10:05:22 GMT-0500 (Central Daylight Time),613659.5,020_y_f_h_a.png,O,m,1188,13,1,2206.10000000149,611453.3999999985,7123,VNB,B,11
11,test,1,0.0,2-Back,1,z,Fri Apr 11 2025 10:05:22 GMT-0500 (Central Daylight Time),615808.1999999955,007_m_m_n_a.png,O,z,1126,14,1,2142.1999999955297,613666.0,7123,VNB,B,12
12,test,1,0.0,2-Back,1,m,Fri Apr 11 2025 10:05:22 GMT-0500 (Central Daylight Time),618541.1999999955,016_y_m_d_a.png,O,m,1712,15,1,2725.89999999851,615815.299999997,7123,VNB,B,13
12,test,1,1.0,2-Back,0,m,Fri Apr 11 2025 10:05:22 GMT-0500 (Central Daylight Time),620724.8999999985,011_m_f_h_a.png,O,z,1156,16,1,2173.7000000029802,618551.1999999955,7123,VNB,B,14
12,test,1,0.0,2-Back,0,z,Fri Apr 11 2025 10:05:22 GMT-0500 (Central Daylight Time),623240.099999994,005_o_f_d_a.png,O,m,1493,17,1,2506.0,620734.099999994,7123,VNB,B,15
13,test,1,0.0,2-Back,1,m,Fri Apr 11 2025 10:05:22 GMT-0500 (Central Daylight Time),625506.3999999985,004_o_m_n_a.png,O,m,1240,18,1,2257.39999999851,623249.0,7123,VNB,B,16
0,test,2,0.0,2-Back,,,Fri Apr 11 2025 10:05:22 GMT-0500 (Central Daylight Time),625506.3999999985,007_m_m_h_a.png,O,space,6736,1,1,2257.39999999851,623249.0,7123,VNB,B,0
0,test,2,0.0,2-Back,,,Fri Apr 11 2025 10:05:22 GMT-0500 (Central Daylight Time),625506.3999999985,020_y_f_n_a.png,O,space,6736,2,1,2257.39999999851,623249.0,7123,VNB,B,0
1,test,2,1.0,2-Back,1,z,Fri Apr 11 2025 10:05:22 GMT-0500 (Central Daylight Time),639270.299999997,005_o_f_h_a.png,O,z,768,3,1,1775.2999999970198,637495.0,7123,VNB,B,1
2,test,2,0.0,2-Back,1,m,Fri Apr 11 2025 10:05:22 GMT-0500 (Central Daylight Time),641383.6999999955,004_o_m_d_a.png,O,m,1083,4,1,2108.10000000149,639275.599999994,7123,VNB,B,2
3,test,2,0.0,2-Back,1,m,Fri Apr 11 2025 10:05:22 GMT-0500 (Central Daylight Time),643616.5,011_m_f_d_a.png,O,m,1200,5,1,2225.10000000149,641391.3999999985,7123,VNB,B,3
4,test,2,0.0,2-Back,1,m,Fri Apr 11 2025 10:05:22 GMT-0500 (Central Daylight Time),645615.599999994,016_y_m_h_a.png,O,m,976,6,1,1990.5999999940395,643625.0,7123,VNB,B,4
4,test,2,0.0,2-Back,0,m,Fri Apr 11 2025 10:05:22 GMT-0500 (Central Daylight Time),648231.6999999955,005_o_f_n_a.png,O,z,1585,7,1,2609.1999999955297,645622.5,7123,VNB,B,5
5,test,2,1.0,2-Back,1,z,Fri Apr 11 2025 10:05:22 GMT-0500 (Central Daylight Time),650331.799999997,004_o_m_h_a.png,O,z,1075,8,1,2094.2999999970198,648237.5,7123,VNB,B,6
6,test,2,0.0,2-Back,1,m,Fri Apr 11 2025 10:05:22 GMT-0500 (Central Daylight Time),653013.6999999955,020_y_f_d_a.png,O,m,1655,9,1,2673.5,650340.1999999955,7123,VNB,B,7
7,test,2,0.0,2-Back,1,m,Fri Apr 11 2025 10:05:22 GMT-0500 (Central Daylight Time),655830.1999999955,016_y_m_d_a.png,O,m,1782,10,1,2807.5,653022.6999999955,7123,VNB,B,8
8,test,2,0.0,2-Back,1,m,Fri Apr 11 2025 10:05:22 GMT-0500 (Central Daylight Time),658012.1999999955,007_m_m_n_a.png,O,m,1155,11,1,2174.0,655838.1999999955,7123,VNB,B,9
9,test,2,0.0,2-Back,1,m,Fri Apr 11 2025 10:05:22 GMT-0500 (Central Daylight Time),660478.1999999955,011_m_f_h_a.png,O,m,1438,12,1,2459.2999999970198,658018.8999999985,7123,VNB,B,10
10,test,2,1.0,2-Back,1,z,Fri Apr 11 2025 10:05:22 GMT-0500 (Central Daylight Time),662743.1999999955,004_o_m_n_a.png,O,z,1243,13,1,2258.10000000149,660485.099999994,7123,VNB,B,11
11,test,2,0.0,2-Back,1,m,Fri Apr 11 2025 10:05:22 GMT-0500 (Central Daylight Time),665759.299999997,005_o_f_d_a.png,O,m,1984,14,1,3009.0,662750.299999997,7123,VNB,B,12
11,test,2,0.0,2-Back,0,m,Fri Apr 11 2025 10:05:22 GMT-0500 (Central Daylight Time),668792.299999997,020_y_f_h_a.png,O,None,2014,15,1,3025.0,665767.299999997,7123,VNB,B,13
11,test,2,0.0,2-Back,0,z,Fri Apr 11 2025 10:05:22 GMT-0500 (Central Daylight Time),671373.799999997,007_m_m_d_a.png,O,m,1561,16,1,2573.39999999851,668800.3999999985,7123,VNB,B,14
12,test,2,0.0,2-Back,1,m,Fri Apr 11 2025 10:05:22 GMT-0500 (Central Daylight Time),673491.1999999955,016_y_m_n_a.png,O,m,1091,17,1,2109.7999999970198,671381.3999999985,7123,VNB,B,15
13,test,2,1.0,2-Back,1,m,Fri Apr 11 2025 10:05:22 GMT-0500 (Central Daylight Time),675490.299999997,011_m_f_n_a.png,O,m,974,18,1,1991.8999999985099,673498.3999999985,7123,VNB,B,16
0,test,3,1.0,2-Back,,,Fri Apr 11 2025 10:05:22 GMT-0500 (Central Daylight Time),675490.299999997,004_o_m_n_a.png,O,space,960,1,1,1991.8999999985099,673498.3999999985,7123,VNB,B,0
0,test,3,1.0,2-Back,,,Fri Apr 11 2025 10:05:22 GMT-0500 (Central Daylight Time),675490.299999997,005_o_f_d_a.png,O,space,960,2,1,1991.8999999985099,673498.3999999985,7123,VNB,B,0
1,test,3,0.0,2-Back,1,m,Fri Apr 11 2025 10:05:22 GMT-0500 (Central Daylight Time),683772.0,020_y_f_h_a.png,O,m,1247,3,1,2260.2000000029802,681511.799999997,7123,VNB,B,1
2,test,3,0.0,2-Back,1,z,Fri Apr 11 2025 10:05:22 GMT-0500 (Central Daylight Time),686037.0,011_m_f_d_a.png,O,z,1238,4,1,2260.60000000149,683776.3999999985,7123,VNB,B,2
3,test,3,1.0,2-Back,1,m,Fri Apr 11 2025 10:05:22 GMT-0500 (Central Daylight Time),687903.5,016_y_m_n_a.png,O,m,845,5,1,1858.8000000044703,686044.6999999955,7123,VNB,B,3
4,test,3,0.0,2-Back,1,m,Fri Apr 11 2025 10:05:22 GMT-0500 (Central Daylight Time),689885.6999999955,004_o_m_h_a.png,O,m,954,6,1,1975.0,687910.6999999955,7123,VNB,B,4
4,test,3,0.0,2-Back,0,z,Fri Apr 11 2025 10:05:22 GMT-0500 (Central Daylight Time),692285.0,020_y_f_n_a.png,O,m,1381,7,1,2391.60000000149,689893.3999999985,7123,VNB,B,5
5,test,3,1.0,2-Back,1,m,Fri Apr 11 2025 10:05:22 GMT-0500 (Central Daylight Time),694550.799999997,007_m_m_d_a.png,O,m,1237,8,1,2257.89999999851,692292.8999999985,7123,VNB,B,6
6,test,3,0.0,2-Back,1,m,Fri Apr 11 2025 10:05:22 GMT-0500 (Central Daylight Time),697066.599999994,016_y_m_d_a.png,O,m,1483,9,1,2510.0,694556.599999994,7123,VNB,B,7
7,test,3,0.0,2-Back,1,m,Fri Apr 11 2025 10:05:22 GMT-0500 (Central Daylight Time),699349.799999997,005_o_f_h_a.png,O,m,1254,10,1,2277.60000000149,697072.1999999955,7123,VNB,B,8
8,test,3,1.0,2-Back,1,m,Fri Apr 11 2025 10:05:22 GMT-0500 (Central Daylight Time),701247.099999994,011_m_f_n_a.png,O,m,867,11,1,1889.8999999985099,699357.1999999955,7123,VNB,B,9
9,test,3,1.0,2-Back,1,z,Fri Apr 11 2025 10:05:22 GMT-0500 (Central Daylight Time),703381.3999999985,007_m_m_h_a.png,O,z,1113,12,1,2127.8000000044703,701253.599999994,7123,VNB,B,10
10,test,3,0.0,2-Back,1,m,Fri Apr 11 2025 10:05:22 GMT-0500 (Central Daylight Time),705830.0,020_y_f_d_a.png,O,m,1428,13,1,2443.7000000029802,703386.299999997,7123,VNB,B,11
10,test,3,0.0,2-Back,0,m,Fri Apr 11 2025 10:05:22 GMT-0500 (Central Daylight Time),708030.299999997,005_o_f_n_a.png,O,z,1171,14,1,2194.0,705836.299999997,7123,VNB,B,12
10,test,3,0.0,2-Back,0,z,Fri Apr 11 2025 10:05:22 GMT-0500 (Central Daylight Time),711061.799999997,004_o_m_d_a.png,O,None,2015,15,1,3025.39999999851,708036.3999999985,7123,VNB,B,13
11,test,3,1.0,2-Back,1,m,Fri Apr 11 2025 10:05:22 GMT-0500 (Central Daylight Time),713996.299999997,011_m_f_h_a.png,O,m,1908,16,1,2926.89999999851,711069.3999999985,7123,VNB,B,14
11,test,3,0.0,2-Back,0,m,Fri Apr 11 2025 10:05:22 GMT-0500 (Central Daylight Time),716543.5,007_m_m_n_a.png,O,z,1528,17,1,2540.7000000029802,714002.799999997,7123,VNB,B,15
12,test,3,0.0,2-Back,1,z,Fri Apr 11 2025 10:05:22 GMT-0500 (Central Daylight Time),718976.1999999955,016_y_m_h_a.png,O,z,1409,18,1,2425.2999999970198,716550.8999999985,7123,VNB,B,16
0,test,4,0.0,2-Back,,,Fri Apr 11 2025 10:05:22 GMT-0500 (Central Daylight Time),718976.1999999955,011_m_f_n_a.png,O,space,14602,1,1,2425.2999999970198,716550.8999999985,7123,VNB,B,0
0,test,4,0.0,2-Back,,,Fri Apr 11 2025 10:05:22 GMT-0500 (Central Daylight Time),718976.1999999955,004_o_m_n_a.png,O,space,14602,2,1,2425.2999999970198,716550.8999999985,7123,VNB,B,0
1,test,4,1.0,2-Back,1,m,Fri Apr 11 2025 10:05:22 GMT-0500 (Central Daylight Time),741002.799999997,016_y_m_h_a.png,O,m,1174,3,1,2193.10000000149,738809.6999999955,7123,VNB,B,1
1,test,4,1.0,2-Back,0,m,Fri Apr 11 2025 10:05:22 GMT-0500 (Central Daylight Time),744034.1999999955,005_o_f_d_a.png,O,None,2014,4,1,3026.10000000149,741008.099999994,7123,VNB,B,2
1,test,4,0.0,2-Back,0,z,Fri Apr 11 2025 10:05:22 GMT-0500 (Central Daylight Time),746419.799999997,004_o_m_h_a.png,O,m,1358,5,1,2378.7000000029802,744041.099999994,7123,VNB,B,3
2,test,4,0.0,2-Back,1,m,Fri Apr 11 2025 10:05:22 GMT-0500 (Central Daylight Time),748384.0,007_m_m_n_a.png,O,m,944,6,1,1955.9000000059605,746428.099999994,7123,VNB,B,4
3,test,4,0.0,2-Back,1,m,Fri Apr 11 2025 10:05:22 GMT-0500 (Central Daylight Time),750535.599999994,011_m_f_d_a.png,O,m,1132,7,1,2145.0999999940395,748390.5,7123,VNB,B,5
4,test,4,0.0,2-Back,1,z,Fri Apr 11 2025 10:05:22 GMT-0500 (Central Daylight Time),752781.799999997,020_y_f_n_a.png,O,z,1221,8,1,2238.5,750543.299999997,7123,VNB,B,6
4,test,4,1.0,2-Back,0,m,Fri Apr 11 2025 10:05:22 GMT-0500 (Central Daylight Time),755265.099999994,005_o_f_h_a.png,O,z,1460,9,1,2476.1999999955297,752788.8999999985,7123,VNB,B,7
5,test,4,0.0,2-Back,1,m,Fri Apr 11 2025 10:05:22 GMT-0500 (Central Daylight Time),757447.0,007_m_m_h_a.png,O,m,1154,10,1,2175.5,755271.5,7123,VNB,B,8
6,test,4,0.0,2-Back,1,m,Fri Apr 11 2025 10:05:22 GMT-0500 (Central Daylight Time),759896.3999999985,020_y_f_d_a.png,O,m,1418,11,1,2443.3000000044703,757453.099999994,7123,VNB,B,9
7,test,4,0.0,2-Back,1,m,Fri Apr 11 2025 10:05:22 GMT-0500 (Central Daylight Time),762129.8999999985,016_y_m_n_a.png,O,m,1197,12,1,2224.7000000029802,759905.1999999955,7123,VNB,B,10
8,test,4,0.0,2-Back,1,z,Fri Apr 11 2025 10:05:22 GMT-0500 (Central Daylight Time),763712.8999999985,004_o_m_d_a.png,O,z,552,13,1,1577.0,762135.8999999985,7123,VNB,B,11
9,test,4,1.0,2-Back,1,m,Fri Apr 11 2025 10:05:22 GMT-0500 (Central Daylight Time),765993.6999999955,011_m_f_h_a.png,O,m,1258,14,1,2275.39999999851,763718.299999997,7123,VNB,B,12
9,test,4,1.0,2-Back,0,m,Fri Apr 11 2025 10:05:22 GMT-0500 (Central Daylight Time),769028.0,020_y_f_h_a.png,O,None,2016,15,1,3028.0,766000.0,7123,VNB,B,13
9,test,4,0.0,2-Back,0,m,Fri Apr 11 2025 10:05:22 GMT-0500 (Central Daylight Time),771758.5,005_o_f_n_a.png,O,z,1701,16,1,2723.8000000044703,769034.6999999955,7123,VNB,B,14
10,test,4,0.0,2-Back,1,m,Fri Apr 11 2025 10:05:22 GMT-0500 (Central Daylight Time),773526.1999999955,016_y_m_d_a.png,O,m,748,17,1,1761.5,771764.6999999955,7123,VNB,B,15
10,test,4,1.0,2-Back,0,m,Fri Apr 11 2025 10:05:22 GMT-0500 (Central Daylight Time),776077.3999999985,007_m_m_d_a.png,O,z,1522,18,1,2542.60000000149,773534.799999997,7123,VNB,B,16
0,test,5,1.0,2-Back,,,Fri Apr 11 2025 10:05:22 GMT-0500 (Central Daylight Time),776077.3999999985,020_y_f_d_a.png,O,space,11790,1,1,2542.60000000149,773534.799999997,7123,VNB,B,0
0,test,5,1.0,2-Back,,,Fri Apr 11 2025 10:05:22 GMT-0500 (Central Daylight Time),776077.3999999985,005_o_f_h_a.png,O,space,11790,2,1,2542.60000000149,773534.799999997,7123,VNB,B,0
1,test,5,1.0,2-Back,1,z,Fri Apr 11 2025 10:05:22 GMT-0500 (Central Daylight Time),794769.3999999985,004_o_m_d_a.png,O,z,634,3,1,1657.3999999985099,793112.0,7123,VNB,B,1
2,test,5,1.0,2-Back,1,m,Fri Apr 11 2025 10:05:22 GMT-0500 (Central Daylight Time),796918.099999994,011_m_f_n_a.png,O,m,1120,4,1,2140.6999999955297,794777.3999999985,7123,VNB,B,2
3,test,5,0.0,2-Back,1,m,Fri Apr 11 2025 10:05:22 GMT-0500 (Central Daylight Time),798869.0,007_m_m_h_a.png,O,m,935,5,1,1943.1000000014901,796925.8999999985,7123,VNB,B,3
4,test,5,0.0,2-Back,1,z,Fri Apr 11 2025 10:05:22 GMT-0500 (Central Daylight Time),800685.099999994,020_y_f_n_a.png,O,z,800,6,1,1808.2999999970198,798876.799999997,7123,VNB,B,4
5,test,5,0.0,2-Back,1,m,Fri Apr 11 2025 10:05:22 GMT-0500 (Central Daylight Time),803116.099999994,005_o_f_d_a.png,O,m,1415,7,1,2422.1999999955297,800693.8999999985,7123,VNB,B,5
6,test,5,0.0,2-Back,1,m,Fri Apr 11 2025 10:05:22 GMT-0500 (Central Daylight Time),805815.5,004_o_m_h_a.png,O,m,1677,8,1,2692.60000000149,803122.8999999985,7123,VNB,B,6
7,test,5,1.0,2-Back,1,z,Fri Apr 11 2025 10:05:22 GMT-0500 (Central Daylight Time),808347.5,011_m_f_d_a.png,O,z,1507,9,1,2524.5,805823.0,7123,VNB,B,7
8,test,5,0.0,2-Back,1,m,Fri Apr 11 2025 10:05:22 GMT-0500 (Central Daylight Time),810213.799999997,016_y_m_n_a.png,O,m,834,10,1,1860.0,808353.799999997,7123,VNB,B,8
9,test,5,0.0,2-Back,1,m,Fri Apr 11 2025 10:05:22 GMT-0500 (Central Daylight Time),812764.6999999955,007_m_m_n_a.png,O,m,1533,11,1,2544.0,810220.6999999955,7123,VNB,B,9
9,test,5,0.0,2-Back,0,m,Fri Apr 11 2025 10:05:22 GMT-0500 (Central Daylight Time),815245.099999994,020_y_f_h_a.png,O,z,1453,12,1,2474.89999999851,812770.1999999955,7123,VNB,B,10
10,test,5,0.0,2-Back,1,m,Fri Apr 11 2025 10:05:22 GMT-0500 (Central Daylight Time),817797.099999994,016_y_m_d_a.png,O,m,1519,13,1,2545.1999999955297,815251.8999999985,7123,VNB,B,11
11,test,5,1.0,2-Back,1,z,Fri Apr 11 2025 10:05:22 GMT-0500 (Central Daylight Time),819526.799999997,011_m_f_h_a.png,O,z,703,14,1,1724.5,817802.299999997,7123,VNB,B,12
12,test,5,0.0,2-Back,1,m,Fri Apr 11 2025 10:05:22 GMT-0500 (Central Daylight Time),821527.1999999955,004_o_m_n_a.png,O,m,978,15,1,1990.6000000014901,819536.599999994,7123,VNB,B,13
13,test,5,0.0,2-Back,1,m,Fri Apr 11 2025 10:05:22 GMT-0500 (Central Daylight Time),823543.8999999985,007_m_m_d_a.png,O,m,986,16,1,2008.3000000044703,821535.599999994,7123,VNB,B,14
14,test,5,0.0,2-Back,1,z,Fri Apr 11 2025 10:05:22 GMT-0500 (Central Daylight Time),825660.599999994,005_o_f_n_a.png,O,z,1100,17,1,2108.89999999851,823551.6999999955,7123,VNB,B,15
15,test,5,1.0,2-Back,1,m,Fri Apr 11 2025 10:05:22 GMT-0500 (Central Daylight Time),827608.8999999985,016_y_m_h_a.png,O,m,917,18,1,1942.8000000044703,825666.099999994,7123,VNB,B,16
