acc_sum,block,block_c,condition,correct,correct_response,datetime,endtime,flanker,jitter,project,response,response_test_buffer_response,response_test_target_response,response_time,response_time_test_buffer_response,response_time_test_target_response,row_sel,session_number,start_end,starttime,subject_id,target,task,task_vers,time_test_buffer,time_test_buffer_response,time_test_constants,time_test_flanker,time_test_jitter,time_test_logger,time_test_target,time_test_target_response,time_test_variables,trial
1,prac,1,inc,1,z,Wed Mar 19 2025 13:07:09 GMT-0500 (Central Daylight Time),231290.19999999553,window,1100,O,z,,,1248,,,16,1,3643.6999999955297,227646.5,7045,temper,AF,C,,,,,,,,,,1
1,prac,1,con,0,z,Wed Mar 19 2025 13:07:09 GMT-0500 (Central Daylight Time),234039.29999999702,elated,800,O,m,,,634,,,9,1,2742.7999999970198,231296.5,7045,elated,AF,C,,,,,,,,,,2
2,prac,1,con,1,z,Wed Mar 19 2025 13:07:09 GMT-0500 (Central Daylight Time),237071.59999999404,love,1000,O,z,,,725,,,11,1,3027.89999999851,234043.69999999553,7045,love,AF,C,,,,,,,,,,3
3,prac,1,inc,1,m,Wed Mar 19 2025 13:07:09 GMT-0500 (Central Daylight Time),240154.0,brutal,1100,O,m,,,672,,,8,1,3077.7000000029802,237076.29999999702,7045,window,AF,C,,,,,,,,,,4
4,prac,1,con,1,z,Wed Mar 19 2025 13:07:09 GMT-0500 (Central Daylight Time),243319.79999999702,rage,1000,O,z,,,859,,,15,1,3161.2000000029802,240158.59999999404,7045,rage,AF,C,,,,,,,,,,5
5,prac,1,inc,1,z,Wed Mar 19 2025 13:07:09 GMT-0500 (Central Daylight Time),246218.59999999404,film,900,O,z,,,688,,,14,1,2894.39999999851,243324.19999999553,7045,hate,AF,C,,,,,,,,,,6
5,prac,1,con,0,m,Wed Mar 19 2025 13:07:09 GMT-0500 (Central Daylight Time),248934.3999999985,jacket,800,O,z,,,602,,,5,1,2711.5,246222.8999999985,7045,jacket,AF,C,,,,,,,,,,7
5,prac,1,inc,0,z,Wed Mar 19 2025 13:07:09 GMT-0500 (Central Daylight Time),252350.29999999702,napkin,1100,O,m,,,1002,,,12,1,3411.7000000029802,248938.59999999404,7045,friend,AF,C,,,,,,,,,,8
6,prac,1,inc,1,m,Wed Mar 19 2025 13:07:09 GMT-0500 (Central Daylight Time),255715.69999999553,hate,1100,O,m,,,955,,,4,1,3361.1999999955297,252354.5,7045,film,AF,C,,,,,,,,,,9
7,prac,1,inc,1,m,Wed Mar 19 2025 13:07:09 GMT-0500 (Central Daylight Time),258714.69999999553,elated,900,O,m,,,797,,,6,1,2994.7999999970198,255719.8999999985,7045,napkin,AF,C,,,,,,,,,,10
8,prac,1,con,1,z,Wed Mar 19 2025 13:07:09 GMT-0500 (Central Daylight Time),261830.5,brutal,800,O,z,,,1001,,,13,1,3110.9000000059605,258719.59999999404,7045,brutal,AF,C,,,,,,,,,,11
9,prac,1,con,1,m,Wed Mar 19 2025 13:07:09 GMT-0500 (Central Daylight Time),265046.299999997,remote,1000,O,m,,,901,,,7,1,3211.60000000149,261834.69999999553,7045,remote,AF,C,,,,,,,,,,12
10,prac,1,con,1,m,Wed Mar 19 2025 13:07:09 GMT-0500 (Central Daylight Time),268246.19999999553,bell,1000,O,m,,,887,,,3,1,3195.6999999955297,265050.5,7045,bell,AF,C,,,,,,,,,,13
11,prac,1,inc,1,z,Wed Mar 19 2025 13:07:09 GMT-0500 (Central Daylight Time),271177.5,rock,900,O,z,,,740,,,10,1,2927.0,268250.5,7045,kind,AF,C,,,,,,,,,,14
12,prac,1,inc,1,m,Wed Mar 19 2025 13:07:09 GMT-0500 (Central Daylight Time),274326.5,kind,900,O,m,,,942,,,2,1,3143.5,271183.0,7045,rock,AF,C,,,,,,,,,,15
13,prac,1,con,1,m,Wed Mar 19 2025 13:07:09 GMT-0500 (Central Daylight Time),277525.5,step,800,O,m,,,1085,,,1,1,3194.7000000029802,274330.799999997,7045,step,AF,C,,,,,,,,,,16
1,test,1,con,1,m,Wed Mar 19 2025 13:07:09 GMT-0500 (Central Daylight Time),309432.299999997,step,1000,O,m,m,None,1135,935.0,200.0,67,1,2679.10000000149,306753.19999999553,7045,step,AF,C,299847,299847,298117,299131,298118,300796,299647,299647,300796,1
2,test,1,inc,1,m,Wed Mar 19 2025 13:07:09 GMT-0500 (Central Daylight Time),311631.3999999985,kind,900,O,m,m,None,759,560.0,199.0,70,1,2194.5,309436.8999999985,7045,step,AF,C,302430,302430,300801,301714,300801,302995,302229,302230,302995,2
3,test,1,con,1,m,Wed Mar 19 2025 13:07:09 GMT-0500 (Central Daylight Time),313697.5,window,800,O,m,m,None,716,517.0,199.0,121,1,2061.60000000149,311635.8999999985,7045,window,AF,C,304529,304529,303000,303812,303000,305062,304329,304329,305062,3
4,test,1,con,1,m,Wed Mar 19 2025 13:07:09 GMT-0500 (Central Daylight Time),315763.69999999553,window,900,O,m,m,None,631,431.0,200.0,122,1,2062.1999999955297,313701.5,7045,window,AF,C,306695,306695,305066,305978,305066,307128,306495,306495,307128,4
5,test,1,inc,1,m,Wed Mar 19 2025 13:07:09 GMT-0500 (Central Daylight Time),318462.69999999553,temper,1000,O,m,m,None,1072,870.0,202.0,111,1,2694.89999999851,315767.799999997,7045,napkin,AF,C,308944,308944,307132,308144,307132,309827,308742,308742,309827,5
6,test,1,con,1,m,Wed Mar 19 2025 13:07:09 GMT-0500 (Central Daylight Time),320678.799999997,rock,1000,O,m,m,None,676,461.0,215.0,75,1,2212.2000000029802,318466.59999999404,7045,rock,AF,C,311576,311577,309831,310844,309831,312043,311361,311361,312043,6
6,test,1,inc,0,z,Wed Mar 19 2025 13:07:09 GMT-0500 (Central Daylight Time),322894.799999997,window,1100,O,m,m,None,577,378.0,199.0,64,1,2212.0,320682.799999997,7045,temper,AF,C,313876,313876,312047,313159,312047,314259,313676,313676,314259,7
7,test,1,inc,1,z,Wed Mar 19 2025 13:07:09 GMT-0500 (Central Daylight Time),325110.59999999404,rock,900,O,z,z,None,769,570.0,199.0,46,1,2211.6999999955297,322898.8999999985,7045,hate,AF,C,315892,315892,314263,315175,314263,316475,315692,315692,316475,8
8,test,1,con,1,m,Wed Mar 19 2025 13:07:09 GMT-0500 (Central Daylight Time),327010.09999999404,jacket,800,O,m,m,None,550,350.0,200.0,97,1,1895.3999999985099,325114.69999999553,7045,jacket,AF,C,318008,318008,316479,317291,316479,318374,317808,317808,318374,9
9,test,1,inc,1,z,Wed Mar 19 2025 13:07:09 GMT-0500 (Central Daylight Time),329492.69999999553,jacket,800,O,z,z,None,1139,939.0,200.0,29,1,2478.6999999955297,327014.0,7045,friend,AF,C,319907,319907,318378,319191,318378,320857,319707,319707,320857,10
10,test,1,con,1,z,Wed Mar 19 2025 13:07:09 GMT-0500 (Central Daylight Time),331425.299999997,love,900,O,z,z,None,483,284.0,199.0,18,1,1928.1000000014901,329497.19999999553,7045,love,AF,C,322490,322490,320861,321774,320862,322789,322290,322290,322789,11
11,test,1,inc,1,m,Wed Mar 19 2025 13:07:09 GMT-0500 (Central Daylight Time),333807.799999997,friend,1100,O,m,m,None,735,535.0,200.0,120,1,2377.2000000029802,331430.59999999404,7045,remote,AF,C,324623,324623,322795,323906,322795,325172,324422,324422,325172,12
12,test,1,con,1,m,Wed Mar 19 2025 13:07:09 GMT-0500 (Central Daylight Time),335973.8999999985,film,900,O,m,m,None,721,521.0,200.0,90,1,2162.3000000044703,333811.59999999404,7045,film,AF,C,326805,326805,325176,326089,325176,327338,326605,326605,327338,13
13,test,1,con,1,z,Wed Mar 19 2025 13:07:09 GMT-0500 (Central Daylight Time),338123.0,friend,1000,O,z,z,None,615,415.0,200.0,27,1,2145.10000000149,335977.8999999985,7045,friend,AF,C,329071,329071,327342,328355,327342,329487,328871,328871,329487,14
14,test,1,inc,1,m,Wed Mar 19 2025 13:07:09 GMT-0500 (Central Daylight Time),340489.19999999553,hate,1100,O,m,m,None,725,526.0,199.0,80,1,2362.2999999970198,338126.8999999985,7045,rock,AF,C,331320,331320,329491,330604,329491,331853,331121,331121,331853,15
15,test,1,con,1,m,Wed Mar 19 2025 13:07:09 GMT-0500 (Central Daylight Time),342871.5,window,1000,O,m,m,None,844,644.0,200.0,123,1,2378.5,340493.0,7045,window,AF,C,333586,333586,331857,332870,331857,334236,333386,333386,334236,16
16,test,1,con,1,z,Wed Mar 19 2025 13:07:09 GMT-0500 (Central Daylight Time),344738.0,temper,800,O,z,z,None,525,325.0,200.0,57,1,1862.2000000029802,342875.799999997,7045,temper,AF,C,335769,335769,334240,335052,334240,336102,335569,335569,336102,17
17,test,1,inc,1,z,Wed Mar 19 2025 13:07:09 GMT-0500 (Central Daylight Time),346970.59999999404,rock,900,O,z,z,None,799,599.0,200.0,14,1,2228.7999999970198,344741.799999997,7045,kind,AF,C,337735,337735,336106,337019,336106,338335,337535,337535,338335,18
18,test,1,con,1,m,Wed Mar 19 2025 13:07:09 GMT-0500 (Central Daylight Time),349002.8999999985,jacket,1000,O,m,m,None,498,299.0,199.0,99,1,2028.6000000014901,346974.299999997,7045,jacket,AF,C,340067,340067,338338,339351,338339,340367,339868,339868,340367,19
19,test,1,inc,1,m,Wed Mar 19 2025 13:07:09 GMT-0500 (Central Daylight Time),351085.8999999985,rage,800,O,m,m,None,747,547.0,200.0,93,1,2079.10000000149,349006.799999997,7045,film,AF,C,341900,341900,340371,341184,340371,342450,341700,341700,342450,20
20,test,1,inc,1,z,Wed Mar 19 2025 13:07:09 GMT-0500 (Central Daylight Time),353385.299999997,bell,1000,O,z,z,None,759,559.0,200.0,15,1,2295.60000000149,351089.69999999553,7045,kind,AF,C,344183,344183,342454,343467,342454,344749,343983,343983,344749,21
21,test,1,con,1,z,Wed Mar 19 2025 13:07:09 GMT-0500 (Central Daylight Time),355351.09999999404,rage,900,O,z,z,None,528,328.0,200.0,50,1,1960.1999999955297,353390.8999999985,7045,rage,AF,C,346382,346382,344755,345666,344755,346715,346182,346182,346715,22
22,test,1,inc,1,m,Wed Mar 19 2025 13:07:09 GMT-0500 (Central Daylight Time),357383.69999999553,rage,800,O,m,m,None,684,485.0,199.0,85,1,2028.2999999970198,355355.3999999985,7045,bell,AF,C,348249,348249,346719,347532,346720,348748,348048,348049,348748,23
23,test,1,con,1,m,Wed Mar 19 2025 13:07:09 GMT-0500 (Central Daylight Time),359499.8999999985,napkin,900,O,m,m,None,681,481.0,200.0,106,1,2112.0,357387.8999999985,7045,napkin,AF,C,350381,350381,348752,349665,348752,350864,350181,350181,350864,24
24,test,1,con,1,m,Wed Mar 19 2025 13:07:09 GMT-0500 (Central Daylight Time),361500.299999997,step,900,O,m,m,None,565,365.0,200.0,66,1,1996.3999999985099,359503.8999999985,7045,step,AF,C,352497,352497,350868,351780,350868,352864,352297,352297,352864,25
25,test,1,inc,1,m,Wed Mar 19 2025 13:07:09 GMT-0500 (Central Daylight Time),363732.0,hate,1100,O,m,m,None,596,397.0,199.0,96,1,2227.60000000149,361504.3999999985,7045,film,AF,C,354697,354697,352868,353980,352869,355096,354497,354497,355096,26
26,test,1,inc,1,z,Wed Mar 19 2025 13:07:09 GMT-0500 (Central Daylight Time),366014.59999999404,film,1100,O,z,z,None,636,437.0,199.0,56,1,2278.5,363736.09999999404,7045,rage,AF,C,356929,356929,355100,356213,355100,357379,356730,356730,357379,27
27,test,1,inc,1,z,Wed Mar 19 2025 13:07:09 GMT-0500 (Central Daylight Time),367947.09999999404,step,800,O,z,z,None,598,399.0,199.0,21,1,1928.5,366018.59999999404,7045,love,AF,C,358911,358911,357383,358196,357383,359311,358712,358712,359311,28
28,test,1,inc,1,m,Wed Mar 19 2025 13:07:09 GMT-0500 (Central Daylight Time),370246.3999999985,friend,1100,O,m,m,None,661,462.0,199.0,128,1,2295.7000000029802,367950.69999999553,7045,window,AF,C,361144,361144,359315,360428,359315,361610,360945,360945,361610,29
29,test,1,inc,1,z,Wed Mar 19 2025 13:07:09 GMT-0500 (Central Daylight Time),372495.8999999985,window,1100,O,z,z,None,609,410.0,199.0,40,1,2245.7000000029802,370250.19999999553,7045,brutal,AF,C,363444,363444,361614,362727,361615,363860,363244,363244,363860,30
30,test,1,con,1,m,Wed Mar 19 2025 13:07:09 GMT-0500 (Central Daylight Time),374761.799999997,step,1100,O,m,m,None,617,417.0,200.0,68,1,2262.2000000029802,372499.59999999404,7045,step,AF,C,365693,365693,363864,364977,363864,366126,365493,365493,366126,31
31,test,1,con,1,m,Wed Mar 19 2025 13:07:09 GMT-0500 (Central Daylight Time),376995.69999999553,remote,900,O,m,m,None,784,584.0,200.0,114,1,2230.0,374765.69999999553,7045,remote,AF,C,367759,367759,366130,367042,366130,368360,367559,367559,368360,32
32,test,1,con,1,z,Wed Mar 19 2025 13:07:09 GMT-0500 (Central Daylight Time),379110.3999999985,love,1100,O,z,z,None,478,279.0,199.0,20,1,2110.7000000029802,376999.69999999553,7045,love,AF,C,370191,370191,368364,369475,368364,370475,369992,369992,370474,33
33,test,1,inc,1,m,Wed Mar 19 2025 13:07:09 GMT-0500 (Central Daylight Time),381343.0,love,1000,O,m,m,None,694,495.0,199.0,71,1,2229.0,379114.0,7045,step,AF,C,372207,372207,370478,371491,370478,372707,372008,372008,372707,34
34,test,1,inc,1,z,Wed Mar 19 2025 13:07:09 GMT-0500 (Central Daylight Time),383659.0,film,1100,O,z,z,None,675,475.0,200.0,48,1,2312.0,381347.0,7045,hate,AF,C,374540,374540,372711,373824,372711,375023,374340,374340,375023,35
35,test,1,con,1,z,Wed Mar 19 2025 13:07:09 GMT-0500 (Central Daylight Time),385708.5,hate,900,O,z,z,None,614,414.0,200.0,42,1,2045.8000000044703,383662.69999999553,7045,hate,AF,C,376656,376656,375027,375940,375027,377073,376456,376456,377072,36
36,test,1,inc,1,m,Wed Mar 19 2025 13:07:09 GMT-0500 (Central Daylight Time),387757.69999999553,elated,800,O,m,m,None,704,504.0,200.0,101,1,2045.6000000014901,385712.09999999404,7045,jacket,AF,C,378606,378606,377076,377889,377076,379122,378405,378405,379122,37
37,test,1,inc,1,z,Wed Mar 19 2025 13:07:09 GMT-0500 (Central Daylight Time),389807.09999999404,jacket,800,O,z,z,None,702,503.0,199.0,37,1,2045.5999999940395,387761.5,7045,brutal,AF,C,380655,380655,379126,379938,379126,381171,380455,380455,381171,38
38,test,1,inc,1,m,Wed Mar 19 2025 13:07:09 GMT-0500 (Central Daylight Time),391923.09999999404,kind,900,O,m,m,None,673,474.0,199.0,86,1,2111.89999999851,389811.19999999553,7045,bell,AF,C,382804,382804,381175,382088,381175,383287,382605,382605,383287,39
39,test,1,inc,1,m,Wed Mar 19 2025 13:07:09 GMT-0500 (Central Daylight Time),394039.19999999553,brutal,900,O,m,m,None,670,470.0,200.0,126,1,2112.10000000149,391927.09999999404,7045,window,AF,C,384920,384920,383291,384204,383292,385403,384720,384720,385403,40
40,test,1,inc,1,z,Wed Mar 19 2025 13:07:09 GMT-0500 (Central Daylight Time),396205.09999999404,bell,1000,O,z,z,None,622,422.0,200.0,23,1,2162.39999999851,394042.69999999553,7045,love,AF,C,387136,387136,385407,386420,385407,387569,386936,386936,387569,41
41,test,1,con,1,z,Wed Mar 19 2025 13:07:09 GMT-0500 (Central Daylight Time),398504.19999999553,brutal,1000,O,z,z,None,760,560.0,200.0,35,1,2295.2999999970198,396208.8999999985,7045,brutal,AF,C,389302,389302,387573,388586,387573,389868,389102,389102,389868,42
42,test,1,inc,1,m,Wed Mar 19 2025 13:07:09 GMT-0500 (Central Daylight Time),400721.3999999985,elated,800,O,m,m,None,876,677.0,199.0,125,1,2213.5,398507.8999999985,7045,window,AF,C,391401,391401,389872,390685,389872,392086,391202,391202,392085,43
43,test,1,con,1,m,Wed Mar 19 2025 13:07:09 GMT-0500 (Central Daylight Time),402986.19999999553,remote,1100,O,m,m,None,624,425.0,199.0,116,1,2260.89999999851,400725.299999997,7045,remote,AF,C,393917,393917,392089,393201,392090,394350,393718,393718,394350,44
43,test,1,con,0,z,Wed Mar 19 2025 13:07:09 GMT-0500 (Central Daylight Time),405268.799999997,rage,1100,O,m,m,None,647,448.0,199.0,52,1,2278.7000000029802,402990.09999999404,7045,rage,AF,C,396183,396183,394354,395467,394355,396633,395984,395984,396633,45
44,test,1,inc,1,z,Wed Mar 19 2025 13:07:09 GMT-0500 (Central Daylight Time),407468.19999999553,rock,900,O,z,z,None,764,564.0,200.0,22,1,2195.5,405272.69999999553,7045,love,AF,C,398266,398266,396637,397550,396637,398832,398066,398066,398832,46
45,test,1,con,1,m,Wed Mar 19 2025 13:07:09 GMT-0500 (Central Daylight Time),409917.3999999985,napkin,1100,O,m,m,None,804,604.0,200.0,108,1,2445.2000000029802,407472.19999999553,7045,napkin,AF,C,400665,400666,398836,399949,398837,401281,400465,400465,401281,47
46,test,1,inc,1,m,Wed Mar 19 2025 13:07:09 GMT-0500 (Central Daylight Time),412000.19999999553,kind,900,O,m,m,None,642,430.0,212.0,94,1,2079.1999999955297,409921.0,7045,film,AF,C,402928,402928,401285,402198,401285,403364,402715,402715,403364,48
47,test,1,con,1,m,Wed Mar 19 2025 13:07:09 GMT-0500 (Central Daylight Time),414082.799999997,remote,800,O,m,m,None,740,541.0,199.0,113,1,2078.89999999851,412003.8999999985,7045,remote,AF,C,404897,404897,403368,404181,403368,405447,404698,404698,405447,49
48,test,1,inc,1,m,Wed Mar 19 2025 13:07:09 GMT-0500 (Central Daylight Time),416398.8999999985,friend,1100,O,m,m,None,669,470.0,199.0,112,1,2312.2000000029802,414086.69999999553,7045,napkin,AF,C,407280,407280,405451,406563,405451,407763,407080,407080,407763,50
49,test,1,inc,1,z,Wed Mar 19 2025 13:07:09 GMT-0500 (Central Daylight Time),418648.09999999404,napkin,900,O,z,z,None,801,602.0,199.0,30,1,2245.5999999940395,416402.5,7045,friend,AF,C,409396,409396,407767,408679,407767,410012,409196,409196,410012,51
50,test,1,inc,1,m,Wed Mar 19 2025 13:07:09 GMT-0500 (Central Daylight Time),420914.69999999553,temper,1000,O,m,m,None,734,534.0,200.0,127,1,2262.6999999955297,418652.0,7045,window,AF,C,411745,411745,410016,411029,410016,412279,411545,411545,412279,52
51,test,1,inc,1,m,Wed Mar 19 2025 13:07:09 GMT-0500 (Central Daylight Time),423029.8999999985,rage,800,O,m,m,None,770,571.0,199.0,77,1,2111.5,420918.3999999985,7045,rock,AF,C,413811,413811,412282,413095,412283,414394,413612,413612,414394,53
52,test,1,inc,1,z,Wed Mar 19 2025 13:07:09 GMT-0500 (Central Daylight Time),425096.0,napkin,900,O,z,z,None,627,427.0,200.0,62,1,2062.3000000044703,423033.69999999553,7045,temper,AF,C,416027,416027,414398,415311,414398,416460,415827,415827,416460,54
53,test,1,con,1,z,Wed Mar 19 2025 13:07:09 GMT-0500 (Central Daylight Time),426928.69999999553,love,800,O,z,z,None,485,285.0,200.0,17,1,1828.8999999985099,425099.799999997,7045,love,AF,C,417993,417993,416464,417277,416464,418293,417793,417793,418293,55
54,test,1,con,1,m,Wed Mar 19 2025 13:07:09 GMT-0500 (Central Daylight Time),429346.0,film,1000,O,m,m,None,884,684.0,200.0,91,1,2413.60000000149,426932.3999999985,7045,film,AF,C,420026,420026,418296,419309,418297,420710,419826,419826,420710,56
55,test,1,con,1,z,Wed Mar 19 2025 13:07:09 GMT-0500 (Central Daylight Time),431644.0,friend,900,O,z,z,None,863,664.0,199.0,26,1,2294.0,429350.0,7045,friend,AF,C,422342,422342,420714,421625,420714,423008,422142,422142,423008,57
56,test,1,inc,1,m,Wed Mar 19 2025 13:07:09 GMT-0500 (Central Daylight Time),433909.8999999985,temper,1000,O,m,m,None,729,529.0,200.0,119,1,2262.10000000149,431647.799999997,7045,remote,AF,C,424741,424741,423012,424025,423012,425274,424541,424541,425274,58
57,test,1,con,1,m,Wed Mar 19 2025 13:07:09 GMT-0500 (Central Daylight Time),435875.8999999985,jacket,900,O,m,m,None,531,331.0,200.0,98,1,1962.5,433913.3999999985,7045,jacket,AF,C,426907,426907,425277,426191,425278,427240,426707,426707,427240,59
58,test,1,inc,1,m,Wed Mar 19 2025 13:07:09 GMT-0500 (Central Daylight Time),438108.59999999404,kind,900,O,m,m,None,789,589.0,200.0,78,1,2228.7999999970198,435879.799999997,7045,rock,AF,C,428873,428873,427244,428157,427244,429473,428673,428673,429473,60
59,test,1,con,1,z,Wed Mar 19 2025 13:07:09 GMT-0500 (Central Daylight Time),440258.09999999404,kind,900,O,z,z,None,699,500.0,199.0,10,1,2145.6999999955297,438112.3999999985,7045,kind,AF,C,431106,431106,429476,430389,429477,431622,430906,430906,431622,61
60,test,1,con,1,m,Wed Mar 19 2025 13:07:09 GMT-0500 (Central Daylight Time),442590.5,bell,1100,O,m,m,None,687,487.0,200.0,84,1,2328.4000000059605,440262.09999999404,7045,bell,AF,C,433455,433455,431626,432739,431626,433955,433255,433255,433954,62
61,test,1,inc,1,m,Wed Mar 19 2025 13:07:09 GMT-0500 (Central Daylight Time),444773.19999999553,elated,800,O,m,m,None,838,638.0,200.0,117,1,2179.10000000149,442594.09999999404,7045,remote,AF,C,435488,435488,433958,434771,433958,436137,435288,435288,436137,63
62,test,1,con,1,z,Wed Mar 19 2025 13:07:09 GMT-0500 (Central Daylight Time),446990.19999999553,temper,1000,O,z,z,None,679,480.0,199.0,59,1,2213.10000000149,444777.09999999404,7045,temper,AF,C,437870,437870,436141,437154,436141,438354,437671,437671,438354,64
63,test,1,con,1,m,Wed Mar 19 2025 13:07:09 GMT-0500 (Central Daylight Time),448888.5,napkin,800,O,m,m,None,551,352.0,199.0,105,1,1894.5,446994.0,7045,napkin,AF,C,439886,439886,438358,439170,438358,440253,439687,439687,440253,65
64,test,1,con,1,m,Wed Mar 19 2025 13:07:09 GMT-0500 (Central Daylight Time),451154.799999997,film,1100,O,m,m,None,616,416.0,200.0,92,1,2262.5,448892.299999997,7045,film,AF,C,442087,442087,440256,441369,440257,442519,441886,441886,442519,66
65,test,1,con,1,z,Wed Mar 19 2025 13:07:09 GMT-0500 (Central Daylight Time),453370.3999999985,temper,900,O,z,z,None,782,581.0,201.0,58,1,2211.7000000029802,451158.69999999553,7045,temper,AF,C,444153,444153,442523,443435,442523,444734,443952,443952,444734,67
66,test,1,con,1,z,Wed Mar 19 2025 13:07:09 GMT-0500 (Central Daylight Time),455786.3999999985,rage,1000,O,z,z,None,882,683.0,199.0,51,1,2412.60000000149,453373.799999997,7045,rage,AF,C,446467,446467,444738,445751,444738,447150,446268,446268,447150,68
67,test,1,con,1,z,Wed Mar 19 2025 13:07:09 GMT-0500 (Central Daylight Time),458218.799999997,hate,800,O,z,z,None,1097,898.0,199.0,41,1,2428.7999999970198,455790.0,7045,hate,AF,C,448684,448684,447154,447968,447154,449583,448484,448484,449583,69
68,test,1,con,1,z,Wed Mar 19 2025 13:07:09 GMT-0500 (Central Daylight Time),460368.299999997,friend,1100,O,z,z,None,502,302.0,200.0,28,1,2145.7999999970198,458222.5,7045,friend,AF,C,451416,451416,449587,450700,449587,451732,451216,451216,451732,70
69,test,1,con,1,m,Wed Mar 19 2025 13:07:09 GMT-0500 (Central Daylight Time),462485.19999999553,bell,1000,O,m,m,None,581,381.0,200.0,83,1,2113.0,460372.19999999553,7045,bell,AF,C,453465,453465,451736,452749,451737,453849,453265,453265,453849,71
70,test,1,con,1,z,Wed Mar 19 2025 13:07:09 GMT-0500 (Central Daylight Time),464317.299999997,kind,800,O,z,z,None,496,296.0,200.0,9,1,1828.5,462488.799999997,7045,kind,AF,C,455381,455382,453853,454665,453853,455681,455181,455181,455681,72
71,test,1,inc,1,z,Wed Mar 19 2025 13:07:09 GMT-0500 (Central Daylight Time),466283.0,step,800,O,z,z,None,631,432.0,199.0,45,1,1962.2000000029802,464320.799999997,7045,hate,AF,C,457214,457214,455685,456498,455685,457647,457015,457015,457647,73
72,test,1,con,1,m,Wed Mar 19 2025 13:07:09 GMT-0500 (Central Daylight Time),468382.3999999985,bell,900,O,m,m,None,653,453.0,200.0,82,1,2095.7000000029802,466286.69999999553,7045,bell,AF,C,459280,459281,457651,458564,457651,459746,459080,459080,459746,74
73,test,1,inc,1,m,Wed Mar 19 2025 13:07:09 GMT-0500 (Central Daylight Time),470698.59999999404,love,1000,O,m,m,None,781,582.0,199.0,87,1,2312.5,468386.09999999404,7045,bell,AF,C,461480,461480,459750,460763,459750,462063,461280,461280,462063,75
74,test,1,inc,1,z,Wed Mar 19 2025 13:07:09 GMT-0500 (Central Daylight Time),472864.3999999985,remote,1000,O,z,z,None,618,419.0,199.0,63,1,2162.10000000149,470702.299999997,7045,temper,AF,C,463795,463795,462066,463080,462067,464228,463596,463596,464228,76
75,test,1,inc,1,m,Wed Mar 19 2025 13:07:09 GMT-0500 (Central Daylight Time),475113.799999997,brutal,900,O,m,m,None,799,600.0,199.0,118,1,2245.39999999851,472868.3999999985,7045,remote,AF,C,465862,465862,464232,465145,464233,466478,465662,465662,466478,77
76,test,1,inc,1,z,Wed Mar 19 2025 13:07:09 GMT-0500 (Central Daylight Time),477396.3999999985,window,1100,O,z,z,None,646,447.0,199.0,8,1,2278.8000000044703,475117.59999999404,7045,elated,AF,C,468311,468311,466482,467594,466482,468760,468111,468111,468760,78
77,test,1,inc,1,z,Wed Mar 19 2025 13:07:09 GMT-0500 (Central Daylight Time),479812.299999997,window,1100,O,z,z,None,779,580.0,199.0,32,1,2412.10000000149,477400.19999999553,7045,friend,AF,C,470593,470594,468764,469877,468765,471176,470394,470394,471176,79
78,test,1,inc,1,z,Wed Mar 19 2025 13:07:09 GMT-0500 (Central Daylight Time),481911.59999999404,remote,1000,O,z,z,None,560,361.0,199.0,31,1,2095.6999999955297,479815.8999999985,7045,friend,AF,C,472909,472909,471180,472193,471180,473276,472710,472710,473276,80
79,test,1,con,1,z,Wed Mar 19 2025 13:07:09 GMT-0500 (Central Daylight Time),483811.0,elated,800,O,z,z,None,556,357.0,199.0,1,1,1895.6000000014901,481915.3999999985,7045,elated,AF,C,474809,474809,473279,474092,473280,475175,474609,474609,475175,81
80,test,1,con,1,z,Wed Mar 19 2025 13:07:09 GMT-0500 (Central Daylight Time),485943.69999999553,hate,1100,O,z,z,None,486,286.0,200.0,44,1,2128.89999999851,483814.799999997,7045,hate,AF,C,477008,477008,475179,476292,475179,477308,476808,476808,477308,82
81,test,1,inc,1,z,Wed Mar 19 2025 13:07:09 GMT-0500 (Central Daylight Time),487959.69999999553,step,800,O,z,z,None,669,469.0,200.0,53,1,2012.3999999985099,485947.299999997,7045,rage,AF,C,478841,478841,477311,478124,477312,479324,478641,478641,479324,83
82,test,1,inc,1,m,Wed Mar 19 2025 13:07:09 GMT-0500 (Central Daylight Time),490392.3999999985,hate,1100,O,m,m,None,785,585.0,200.0,72,1,2429.0,487963.3999999985,7045,step,AF,C,481157,481157,479327,480440,479328,481756,480957,480957,481756,84
83,test,1,con,1,z,Wed Mar 19 2025 13:07:09 GMT-0500 (Central Daylight Time),492475.19999999553,brutal,900,O,z,z,None,634,434.0,200.0,34,1,2078.60000000149,490396.59999999404,7045,brutal,AF,C,483389,483389,481761,482673,481761,483839,483189,483189,483839,85
84,test,1,inc,1,z,Wed Mar 19 2025 13:07:09 GMT-0500 (Central Daylight Time),494591.19999999553,napkin,900,O,z,z,None,670,470.0,200.0,6,1,2112.2999999970198,492478.8999999985,7045,elated,AF,C,485472,485472,483843,484756,483843,485955,485272,485272,485955,86
85,test,1,inc,1,z,Wed Mar 19 2025 13:07:09 GMT-0500 (Central Daylight Time),496723.3999999985,rock,900,O,z,z,None,690,490.0,200.0,54,1,2128.5,494594.8999999985,7045,rage,AF,C,487588,487588,485959,486872,485959,488088,487388,487388,488087,87
86,test,1,con,1,m,Wed Mar 19 2025 13:07:09 GMT-0500 (Central Daylight Time),498889.5,rock,900,O,m,m,None,726,526.0,200.0,74,1,2162.4000000059605,496727.09999999404,7045,rock,AF,C,489721,489721,488091,489004,488091,490254,489521,489521,490253,88
87,test,1,con,1,z,Wed Mar 19 2025 13:07:09 GMT-0500 (Central Daylight Time),500889.09999999404,rage,800,O,z,z,None,658,459.0,199.0,49,1,1995.7999999970198,498893.299999997,7045,rage,AF,C,491787,491787,490257,491071,490258,492253,491587,491587,492253,89
88,test,1,con,1,z,Wed Mar 19 2025 13:07:09 GMT-0500 (Central Daylight Time),503038.19999999553,elated,1000,O,z,z,None,612,412.0,200.0,3,1,2145.1999999955297,500893.0,7045,elated,AF,C,493986,493986,492257,493270,492257,494402,493786,493786,494402,90
89,test,1,inc,1,z,Wed Mar 19 2025 13:07:09 GMT-0500 (Central Daylight Time),505237.5,film,1100,O,z,z,None,562,363.0,199.0,24,1,2195.60000000149,503041.8999999985,7045,love,AF,C,496235,496235,494406,495519,494406,496602,496036,496036,496602,91
90,test,1,inc,1,z,Wed Mar 19 2025 13:07:09 GMT-0500 (Central Daylight Time),507336.8999999985,remote,1000,O,z,z,None,559,359.0,200.0,7,1,2095.39999999851,505241.5,7045,elated,AF,C,498335,498335,496606,497618,496606,498701,498135,498135,498701,92
91,test,1,con,1,m,Wed Mar 19 2025 13:07:09 GMT-0500 (Central Daylight Time),509336.19999999553,bell,800,O,m,m,None,652,452.0,200.0,81,1,1995.6000000014901,507340.59999999404,7045,bell,AF,C,500234,500234,498705,499518,498705,500700,500034,500034,500700,93
92,test,1,con,1,m,Wed Mar 19 2025 13:07:09 GMT-0500 (Central Daylight Time),511603.19999999553,jacket,1100,O,m,m,None,624,425.0,199.0,100,1,2262.5,509340.69999999553,7045,jacket,AF,C,502533,502533,500705,501817,500705,502967,502334,502334,502967,94
93,test,1,con,1,m,Wed Mar 19 2025 13:07:09 GMT-0500 (Central Daylight Time),514018.299999997,remote,1000,O,m,m,None,866,667.0,199.0,115,1,2411.10000000149,511607.19999999553,7045,remote,AF,C,504699,504699,502971,503983,502971,505382,504500,504500,505382,95
94,test,1,inc,1,m,Wed Mar 19 2025 13:07:09 GMT-0500 (Central Daylight Time),516135.09999999404,brutal,900,O,m,m,None,670,471.0,199.0,110,1,2112.89999999851,514022.19999999553,7045,napkin,AF,C,507015,507015,505386,506299,505386,507499,506816,506816,507499,96
95,test,1,con,1,m,Wed Mar 19 2025 13:07:09 GMT-0500 (Central Daylight Time),517950.3999999985,film,800,O,m,m,None,479,279.0,200.0,89,1,1811.2000000029802,516139.19999999553,7045,film,AF,C,509031,509031,507503,508315,507504,509315,508831,508831,509314,97
96,test,1,con,1,z,Wed Mar 19 2025 13:07:09 GMT-0500 (Central Daylight Time),519882.799999997,elated,900,O,z,z,None,497,298.0,199.0,2,1,1928.7000000029802,517954.09999999404,7045,elated,AF,C,510947,510948,509318,510231,509318,511247,510748,510748,511247,98
97,test,1,con,1,z,Wed Mar 19 2025 13:07:09 GMT-0500 (Central Daylight Time),521732.299999997,friend,800,O,z,z,None,505,306.0,199.0,25,1,1845.8999999985099,519886.3999999985,7045,friend,AF,C,512780,512780,511250,512064,511251,513096,512581,512581,513096,99
98,test,1,con,1,z,Wed Mar 19 2025 13:07:09 GMT-0500 (Central Daylight Time),524198.299999997,kind,1100,O,z,z,None,828,629.0,199.0,12,1,2462.2000000029802,521736.09999999404,7045,kind,AF,C,514929,514929,513100,514213,513101,515562,514730,514730,515562,100
99,test,1,con,1,m,Wed Mar 19 2025 13:07:09 GMT-0500 (Central Daylight Time),526231.0,step,800,O,m,m,None,685,486.0,199.0,65,1,2029.0,524202.0,7045,step,AF,C,517096,517096,515566,516379,515566,517595,516896,516896,517595,101
100,test,1,inc,1,z,Wed Mar 19 2025 13:07:09 GMT-0500 (Central Daylight Time),528213.599999994,jacket,800,O,z,z,None,646,446.0,200.0,5,1,1979.0999999940395,526234.5,7045,elated,AF,C,519128,519128,517599,518411,517599,519578,518928,518928,519578,102
101,test,1,con,1,m,Wed Mar 19 2025 13:07:09 GMT-0500 (Central Daylight Time),530346.5,rock,800,O,m,m,None,783,583.0,200.0,73,1,2129.10000000149,528217.3999999985,7045,rock,AF,C,521111,521111,519581,520394,519582,521711,520911,520911,521711,103
102,test,1,inc,1,m,Wed Mar 19 2025 13:07:09 GMT-0500 (Central Daylight Time),532645.599999994,rage,800,O,m,m,None,961,762.0,199.0,69,1,2295.39999999851,530350.1999999955,7045,step,AF,C,523244,523244,521714,522527,521714,524010,523044,523044,524010,104
103,test,1,inc,1,z,Wed Mar 19 2025 13:07:09 GMT-0500 (Central Daylight Time),534994.799999997,film,1100,O,z,z,None,714,515.0,199.0,16,1,2345.60000000149,532649.1999999955,7045,kind,AF,C,525843,525843,524013,525126,524014,526359,525643,525643,526359,105
104,test,1,inc,1,m,Wed Mar 19 2025 13:07:09 GMT-0500 (Central Daylight Time),537327.3999999985,friend,1100,O,m,m,None,686,486.0,200.0,104,1,2329.10000000149,534998.299999997,7045,jacket,AF,C,528192,528192,526362,527476,526363,528692,527992,527992,528691,106
105,test,1,inc,1,m,Wed Mar 19 2025 13:07:09 GMT-0500 (Central Daylight Time),539726.6999999955,hate,1100,O,m,m,None,759,545.0,214.0,88,1,2395.10000000149,537331.599999994,7045,bell,AF,C,530541,530541,528696,529808,528696,531091,530327,530327,531091,107
106,test,1,inc,1,m,Wed Mar 19 2025 13:07:09 GMT-0500 (Central Daylight Time),542009.1999999955,love,1000,O,m,m,None,742,542.0,200.0,79,1,2278.60000000149,539730.599999994,7045,rock,AF,C,532824,532824,531095,532107,531095,533373,532624,532624,533373,108
107,test,1,con,1,m,Wed Mar 19 2025 13:07:09 GMT-0500 (Central Daylight Time),544375.5,window,1100,O,m,m,None,726,527.0,199.0,124,1,2362.4000000059605,542013.099999994,7045,window,AF,C,535207,535207,533377,534490,533378,535740,535007,535007,535739,109
108,test,1,inc,1,z,Wed Mar 19 2025 13:07:09 GMT-0500 (Central Daylight Time),546458.099999994,jacket,800,O,z,z,None,741,542.0,199.0,61,1,2078.39999999851,544379.6999999955,7045,temper,AF,C,537273,537273,535744,536556,535744,537822,537073,537073,537822,110
109,test,1,con,1,z,Wed Mar 19 2025 13:07:09 GMT-0500 (Central Daylight Time),548540.799999997,kind,1000,O,z,z,None,546,347.0,199.0,11,1,2078.60000000149,546462.1999999955,7045,kind,AF,C,539555,539555,537826,538839,537827,539905,539356,539356,539905,111
110,test,1,con,1,m,Wed Mar 19 2025 13:07:09 GMT-0500 (Central Daylight Time),551089.799999997,rock,1100,O,m,m,None,907,708.0,199.0,76,1,2545.10000000149,548544.6999999955,7045,rock,AF,C,541738,541738,539909,541021,539909,542454,541538,541538,542454,112
111,test,1,con,1,z,Wed Mar 19 2025 13:07:09 GMT-0500 (Central Daylight Time),553272.5,brutal,1100,O,z,z,None,466,257.0,209.0,36,1,2179.10000000149,551093.3999999985,7045,brutal,AF,C,544373,544373,542457,543571,542458,544637,544164,544164,544636,113
112,test,1,inc,1,m,Wed Mar 19 2025 13:07:09 GMT-0500 (Central Daylight Time),555388.6999999955,brutal,900,O,m,m,None,680,480.0,200.0,102,1,2112.60000000149,553276.099999994,7045,jacket,AF,C,546271,546271,544640,545553,544640,546753,546070,546070,546753,114
113,test,1,con,1,m,Wed Mar 19 2025 13:07:09 GMT-0500 (Central Daylight Time),557487.799999997,napkin,1000,O,m,m,None,550,335.0,215.0,107,1,2095.39999999851,555392.3999999985,7045,napkin,AF,C,548502,548503,546756,547769,546757,548852,548287,548287,548852,115
114,test,1,inc,1,m,Wed Mar 19 2025 13:07:09 GMT-0500 (Central Daylight Time),559720.5,temper,1000,O,m,m,None,685,485.0,200.0,103,1,2228.8000000044703,557491.6999999955,7045,jacket,AF,C,550585,550585,548856,549869,548856,551085,550385,550385,551085,116
115,test,1,con,1,z,Wed Mar 19 2025 13:07:09 GMT-0500 (Central Daylight Time),562119.799999997,temper,1100,O,z,z,None,760,561.0,199.0,60,1,2395.7000000029802,559724.099999994,7045,temper,AF,C,552917,552917,551088,552201,551088,553484,552718,552718,553484,117
116,test,1,inc,1,z,Wed Mar 19 2025 13:07:09 GMT-0500 (Central Daylight Time),564336.8999999985,bell,1000,O,z,z,None,677,477.0,200.0,47,1,2213.5,562123.3999999985,7045,hate,AF,C,555217,555217,553487,554500,553488,555701,555017,555017,555701,118
117,test,1,con,1,z,Wed Mar 19 2025 13:07:09 GMT-0500 (Central Daylight Time),566418.299999997,hate,1000,O,z,z,None,540,341.0,199.0,43,1,2077.5,564340.799999997,7045,hate,AF,C,557433,557433,555705,556717,555705,557782,557233,557233,557782,119
118,test,1,inc,1,m,Wed Mar 19 2025 13:07:09 GMT-0500 (Central Daylight Time),568784.3999999985,love,1000,O,m,m,None,828,628.0,200.0,95,1,2362.39999999851,566422.0,7045,film,AF,C,559515,559515,557786,558799,557786,560149,559315,559315,560148,120
119,test,1,con,1,z,Wed Mar 19 2025 13:07:09 GMT-0500 (Central Daylight Time),570983.6999999955,love,1000,O,z,z,None,660,461.0,199.0,19,1,2195.6999999955297,568788.0,7045,love,AF,C,561881,561881,560152,561165,560152,562348,561682,561682,562348,121
120,test,1,con,1,z,Wed Mar 19 2025 13:07:09 GMT-0500 (Central Daylight Time),573166.1999999955,elated,1100,O,z,z,None,544,345.0,199.0,4,1,2178.6999999955297,570987.5,7045,elated,AF,C,564181,564181,562352,563465,562352,564530,563981,563981,564530,122
121,test,1,inc,1,z,Wed Mar 19 2025 13:07:09 GMT-0500 (Central Daylight Time),575399.0,bell,1000,O,z,z,None,694,495.0,199.0,55,1,2229.10000000149,573169.8999999985,7045,rage,AF,C,566263,566263,564534,565548,564534,566763,566064,566064,566763,123
122,test,1,inc,1,z,Wed Mar 19 2025 13:07:09 GMT-0500 (Central Daylight Time),577665.0,remote,1000,O,z,z,None,668,468.0,200.0,39,1,2262.3000000044703,575402.6999999955,7045,brutal,AF,C,568546,568546,566767,567841,566767,569029,568346,568346,569029,124
123,test,1,inc,1,m,Wed Mar 19 2025 13:07:09 GMT-0500 (Central Daylight Time),579731.099999994,elated,800,O,m,m,None,724,524.0,200.0,109,1,2062.39999999851,577668.6999999955,7045,napkin,AF,C,570562,570562,569033,569846,569033,571095,570362,570362,571095,125
124,test,1,inc,1,z,Wed Mar 19 2025 13:07:09 GMT-0500 (Central Daylight Time),581713.6999999955,step,800,O,z,z,None,633,434.0,199.0,13,1,1979.1000000014901,579734.599999994,7045,kind,AF,C,572628,572628,571099,571912,571099,573078,572429,572429,573078,126
125,test,1,inc,1,z,Wed Mar 19 2025 13:07:09 GMT-0500 (Central Daylight Time),583846.299999997,napkin,900,O,z,z,None,695,495.0,200.0,38,1,2128.7000000029802,581717.599999994,7045,brutal,AF,C,574711,574711,573082,573995,573082,575210,574511,574511,575210,127
126,test,1,con,1,z,Wed Mar 19 2025 13:07:09 GMT-0500 (Central Daylight Time),585979.0,brutal,800,O,z,z,None,790,591.0,199.0,33,1,2129.10000000149,583849.8999999985,7045,brutal,AF,C,576743,576743,575214,576027,575214,577343,576544,576544,577343,128
