Number,acc_sum,block,block_c,block_cond,con_img,correct,correct_response,datetime,endtime,jitter,project,response,response_time,row_sel,session_number,start_end,starttime,subject_id,task,task_vers,trial
8,1,prac,1,A,circle.png,1,m,Fri Oct 11 2024 10:36:26 GMT-0400 (Eastern Daylight Time),83333.20000004768,1600,I,m,1048,7,1,3440.0,79893.20000004768,9002,NTS,A,1
9,2,prac,1,A,circle.png,1,m,Fri Oct 11 2024 10:36:26 GMT-0400 (Eastern Daylight Time),86316.5,1500,I,m,688,8,1,2969.899999976158,83346.60000002384,9002,NTS,A,2
9,3,prac,1,A,circle.png,1,m,Fri Oct 11 2024 10:36:26 GMT-0400 (Eastern Daylight Time),89249.60000002384,1500,I,m,635,8,1,2922.100000023842,86327.5,9002,NTS,A,3
6,4,prac,1,A,circle.png,1,m,Fri Oct 11 2024 10:36:26 GMT-0400 (Eastern Daylight Time),92866.5,1900,I,m,918,5,1,3604.0999999046326,89262.40000009537,9002,NTS,A,4
2,5,prac,1,A,circle.png,1,z,Fri Oct 11 2024 10:36:26 GMT-0400 (Eastern Daylight Time),96249.5,2000,I,z,592,2,1,3371.899999976158,92877.60000002384,9002,NTS,A,5
1,6,prac,1,A,circle.png,1,z,Fri Oct 11 2024 10:36:26 GMT-0400 (Eastern Daylight Time),98832.90000009537,1000,I,z,786,1,1,2570.600000023842,96262.30000007153,9002,NTS,A,6
6,7,prac,1,A,circle.png,1,m,Fri Oct 11 2024 10:36:26 GMT-0400 (Eastern Daylight Time),102249.80000007153,1900,I,m,727,5,1,3405.5,98844.30000007153,9002,NTS,A,7
3,8,prac,1,A,circle.png,1,z,Fri Oct 11 2024 10:36:26 GMT-0400 (Eastern Daylight Time),104782.90000009537,1200,I,z,539,3,1,2522.7000000476837,102260.20000004768,9002,NTS,A,8
8,9,prac,1,A,circle.png,1,m,Fri Oct 11 2024 10:36:26 GMT-0400 (Eastern Daylight Time),107733.0,1600,I,m,549,7,1,2936.5999999046326,104796.40000009537,9002,NTS,A,9
4,10,prac,1,A,circle.png,1,z,Fri Oct 11 2024 10:36:26 GMT-0400 (Eastern Daylight Time),110566.30000007153,1400,I,z,647,4,1,2822.0,107744.30000007153,9002,NTS,A,10
4,11,prac,1,A,circle.png,1,z,Fri Oct 11 2024 10:36:26 GMT-0400 (Eastern Daylight Time),113466.40000009537,1400,I,z,709,4,1,2889.2000000476837,110577.20000004768,9002,NTS,A,11
7,12,prac,1,A,circle.png,1,m,Fri Oct 11 2024 10:36:26 GMT-0400 (Eastern Daylight Time),116733.10000002384,1700,I,m,774,6,1,3255.7999999523163,113477.30000007153,9002,NTS,A,12
1,1,prac,1,B,triangle.png,1,z,Fri Oct 11 2024 10:36:26 GMT-0400 (Eastern Daylight Time),168316.40000009537,1900,I,z,1492,1,1,4173.800000071526,164142.60000002384,9002,NTS,A,1
4,2,prac,1,B,triangle.png,1,m,Fri Oct 11 2024 10:36:26 GMT-0400 (Eastern Daylight Time),171332.80000007153,1500,I,m,716,4,1,3005.0,168327.80000007153,9002,NTS,A,2
2,3,prac,1,B,triangle.png,1,m,Fri Oct 11 2024 10:36:26 GMT-0400 (Eastern Daylight Time),175182.80000007153,1700,I,m,1356,2,1,3839.399999976158,171343.40000009537,9002,NTS,A,3
8,4,prac,1,B,triangle.png,1,m,Fri Oct 11 2024 10:36:26 GMT-0400 (Eastern Daylight Time),177916.30000007153,1200,I,m,742,7,1,2720.899999976158,175195.40000009537,9002,NTS,A,4
4,5,prac,1,B,triangle.png,1,m,Fri Oct 11 2024 10:36:26 GMT-0400 (Eastern Daylight Time),181049.5,1500,I,m,844,4,1,3121.1999999284744,177928.30000007153,9002,NTS,A,5
3,6,prac,1,B,triangle.png,1,z,Fri Oct 11 2024 10:36:26 GMT-0400 (Eastern Daylight Time),183949.70000004768,1600,I,z,507,3,1,2888.0,181061.70000004768,9002,NTS,A,6
3,7,prac,1,B,triangle.png,1,z,Fri Oct 11 2024 10:36:26 GMT-0400 (Eastern Daylight Time),187232.30000007153,1600,I,z,887,3,1,3270.7000000476837,183961.60000002384,9002,NTS,A,7
7,8,prac,1,B,triangle.png,1,z,Fri Oct 11 2024 10:36:26 GMT-0400 (Eastern Daylight Time),190966.30000007153,2000,I,z,948,6,1,3726.3000000715256,187240.0,9002,NTS,A,8
2,9,prac,1,B,triangle.png,1,m,Fri Oct 11 2024 10:36:26 GMT-0400 (Eastern Daylight Time),194132.90000009537,1700,I,m,667,2,1,3156.5,190976.40000009537,9002,NTS,A,9
9,10,prac,1,B,triangle.png,1,z,Fri Oct 11 2024 10:36:26 GMT-0400 (Eastern Daylight Time),197349.70000004768,1400,I,z,1031,8,1,3206.2999999523163,194143.40000009537,9002,NTS,A,10
1,11,prac,1,B,triangle.png,1,z,Fri Oct 11 2024 10:36:26 GMT-0400 (Eastern Daylight Time),200716.30000007153,1900,I,z,675,1,1,3356.100000023842,197360.20000004768,9002,NTS,A,11
6,12,prac,1,B,triangle.png,1,m,Fri Oct 11 2024 10:36:26 GMT-0400 (Eastern Daylight Time),203349.70000004768,1000,I,m,848,5,1,2621.0,200728.70000004768,9002,NTS,A,12
1,1,test,1,A,circle.png,1,z,Fri Oct 11 2024 10:36:26 GMT-0400 (Eastern Daylight Time),234649.70000004768,1000,I,z,695,1,1,1705.8999999761581,232943.80000007153,9002,NTS,A,1
1,2,test,1,A,circle.png,1,z,Fri Oct 11 2024 10:36:26 GMT-0400 (Eastern Daylight Time),236432.90000009537,1000,I,z,754,1,1,1773.5,234659.40000009537,9002,NTS,A,2
1,3,test,1,A,circle.png,1,z,Fri Oct 11 2024 10:36:26 GMT-0400 (Eastern Daylight Time),238132.90000009537,1000,I,z,667,1,1,1690.8000000715256,236442.10000002384,9002,NTS,A,3
6,4,test,1,A,circle.png,1,m,Fri Oct 11 2024 10:36:26 GMT-0400 (Eastern Daylight Time),240632.90000009537,1900,I,m,579,5,1,2491.7000000476837,238141.20000004768,9002,NTS,A,4
7,5,test,1,A,circle.png,1,m,Fri Oct 11 2024 10:36:26 GMT-0400 (Eastern Daylight Time),243366.0,1700,I,m,997,6,1,2724.399999976158,240641.60000002384,9002,NTS,A,5
6,6,test,1,A,circle.png,1,m,Fri Oct 11 2024 10:36:26 GMT-0400 (Eastern Daylight Time),246282.90000009537,1900,I,m,994,5,1,2908.4000000953674,243374.5,9002,NTS,A,6
8,7,test,1,A,circle.png,1,m,Fri Oct 11 2024 10:36:26 GMT-0400 (Eastern Daylight Time),248832.80000007153,1600,I,m,920,7,1,2541.3000000715256,246291.5,9002,NTS,A,7
7,8,test,1,A,circle.png,1,m,Fri Oct 11 2024 10:36:26 GMT-0400 (Eastern Daylight Time),251749.5,1700,I,m,1183,6,1,2908.0999999046326,248841.40000009537,9002,NTS,A,8
4,9,test,1,A,circle.png,1,z,Fri Oct 11 2024 10:36:26 GMT-0400 (Eastern Daylight Time),254482.90000009537,1400,I,z,1302,4,1,2723.5,251759.40000009537,9002,NTS,A,9
1,10,test,1,A,circle.png,1,z,Fri Oct 11 2024 10:36:26 GMT-0400 (Eastern Daylight Time),256383.10000002384,1000,I,z,873,1,1,1890.1000000238419,254493.0,9002,NTS,A,10
9,11,test,1,A,circle.png,1,m,Fri Oct 11 2024 10:36:26 GMT-0400 (Eastern Daylight Time),258616.30000007153,1500,I,m,713,8,1,2225.399999976158,256390.90000009537,9002,NTS,A,11
3,12,test,1,A,circle.png,1,z,Fri Oct 11 2024 10:36:26 GMT-0400 (Eastern Daylight Time),260666.40000009537,1200,I,z,826,3,1,2041.0,258625.40000009537,9002,NTS,A,12
9,13,test,1,A,circle.png,1,m,Fri Oct 11 2024 10:36:26 GMT-0400 (Eastern Daylight Time),262916.40000009537,1500,I,m,717,8,1,2240.8000000715256,260675.60000002384,9002,NTS,A,13
4,14,test,1,A,circle.png,1,z,Fri Oct 11 2024 10:36:26 GMT-0400 (Eastern Daylight Time),265233.0,1400,I,z,888,4,1,2307.5,262925.5,9002,NTS,A,14
6,15,test,1,A,circle.png,1,m,Fri Oct 11 2024 10:36:26 GMT-0400 (Eastern Daylight Time),268016.0,1900,I,m,854,5,1,2773.899999976158,265242.10000002384,9002,NTS,A,15
9,16,test,1,A,circle.png,1,m,Fri Oct 11 2024 10:36:26 GMT-0400 (Eastern Daylight Time),270432.90000009537,1500,I,m,886,8,1,2409.2000000476837,268023.7000000477,9002,NTS,A,16
8,17,test,1,A,circle.png,1,m,Fri Oct 11 2024 10:36:26 GMT-0400 (Eastern Daylight Time),272966.5,1600,I,m,915,7,1,2525.6999999284744,270440.8000000715,9002,NTS,A,17
2,18,test,1,A,circle.png,1,z,Fri Oct 11 2024 10:36:26 GMT-0400 (Eastern Daylight Time),275799.40000009537,2000,I,z,812,2,1,2826.5,272972.90000009537,9002,NTS,A,18
8,19,test,1,A,circle.png,1,m,Fri Oct 11 2024 10:36:26 GMT-0400 (Eastern Daylight Time),278166.3000000715,1600,I,m,733,7,1,2356.899999976158,275809.40000009537,9002,NTS,A,19
3,20,test,1,A,circle.png,1,z,Fri Oct 11 2024 10:36:26 GMT-0400 (Eastern Daylight Time),280216.3000000715,1200,I,z,830,3,1,2039.2000000476837,278177.10000002384,9002,NTS,A,20
7,21,test,1,A,circle.png,1,m,Fri Oct 11 2024 10:36:26 GMT-0400 (Eastern Daylight Time),282699.7000000477,1700,I,m,760,6,1,2475.600000023842,280224.10000002384,9002,NTS,A,21
2,22,test,1,A,circle.png,1,z,Fri Oct 11 2024 10:36:26 GMT-0400 (Eastern Daylight Time),285482.90000009537,2000,I,z,760,2,1,2774.0,282708.90000009537,9002,NTS,A,22
6,23,test,1,A,circle.png,1,m,Fri Oct 11 2024 10:36:26 GMT-0400 (Eastern Daylight Time),288299.60000002384,1900,I,m,892,5,1,2803.5,285496.10000002384,9002,NTS,A,23
2,24,test,1,A,circle.png,1,z,Fri Oct 11 2024 10:36:26 GMT-0400 (Eastern Daylight Time),291049.3000000715,2000,I,z,727,2,1,2741.399999976158,288307.90000009537,9002,NTS,A,24
9,1,test,1,B,triangle.png,1,z,Fri Oct 11 2024 10:36:26 GMT-0400 (Eastern Daylight Time),308016.5,1400,I,z,1205,8,1,2627.5,305389.0,9002,NTS,A,1
1,2,test,1,B,triangle.png,1,z,Fri Oct 11 2024 10:36:26 GMT-0400 (Eastern Daylight Time),310216.3000000715,1400,I,z,780,9,1,2191.0,308025.3000000715,9002,NTS,A,2
3,3,test,1,B,triangle.png,1,z,Fri Oct 11 2024 10:36:26 GMT-0400 (Eastern Daylight Time),312699.7000000477,1600,I,z,860,3,1,2473.0,310226.7000000477,9002,NTS,A,3
6,4,test,1,B,triangle.png,1,m,Fri Oct 11 2024 10:36:26 GMT-0400 (Eastern Daylight Time),315166.5,1500,I,m,941,13,1,2457.6999999284744,312708.8000000715,9002,NTS,A,4
4,5,test,1,B,triangle.png,1,m,Fri Oct 11 2024 10:36:26 GMT-0400 (Eastern Daylight Time),317599.8000000715,1500,I,m,906,4,1,2424.600000023842,315175.2000000477,9002,NTS,A,5
8,6,test,1,B,triangle.png,1,m,Fri Oct 11 2024 10:36:26 GMT-0400 (Eastern Daylight Time),320433.0,1700,I,m,1105,15,1,2825.399999976158,317607.60000002384,9002,NTS,A,6
7,7,test,1,B,triangle.png,1,z,Fri Oct 11 2024 10:36:26 GMT-0400 (Eastern Daylight Time),322966.60000002384,1600,I,z,899,14,1,2523.5,320443.10000002384,9002,NTS,A,7
1,8,test,1,B,triangle.png,1,z,Fri Oct 11 2024 10:36:26 GMT-0400 (Eastern Daylight Time),325282.90000009537,1400,I,z,886,9,1,2305.4000000953674,322977.5,9002,NTS,A,8
2,8,test,1,B,triangle.png,0,m,Fri Oct 11 2024 10:36:26 GMT-0400 (Eastern Daylight Time),327333.2000000477,1200,I,z,818,10,1,2040.1000000238419,325293.10000002384,9002,NTS,A,9
4,9,test,1,B,triangle.png,1,m,Fri Oct 11 2024 10:36:26 GMT-0400 (Eastern Daylight Time),329583.2000000477,1000,I,m,1223,12,1,2242.100000023842,327341.10000002384,9002,NTS,A,10
2,10,test,1,B,triangle.png,1,m,Fri Oct 11 2024 10:36:26 GMT-0400 (Eastern Daylight Time),332266.40000009537,1700,I,m,961,2,1,2672.5,329593.90000009537,9002,NTS,A,11
1,11,test,1,B,triangle.png,1,z,Fri Oct 11 2024 10:36:26 GMT-0400 (Eastern Daylight Time),334966.5,1900,I,z,766,1,1,2689.5,332277.0,9002,NTS,A,12
6,12,test,1,B,triangle.png,1,m,Fri Oct 11 2024 10:36:26 GMT-0400 (Eastern Daylight Time),337066.40000009537,1000,I,m,1078,5,1,2090.5,334975.90000009537,9002,NTS,A,13
2,13,test,1,B,triangle.png,1,m,Fri Oct 11 2024 10:36:26 GMT-0400 (Eastern Daylight Time),340165.8000000715,1700,I,m,1366,2,1,3090.2000000476837,337075.60000002384,9002,NTS,A,14
4,14,test,1,B,triangle.png,1,m,Fri Oct 11 2024 10:36:26 GMT-0400 (Eastern Daylight Time),342099.60000002384,1000,I,m,902,12,1,1927.7999999523163,340171.8000000715,9002,NTS,A,15
9,15,test,1,B,triangle.png,1,z,Fri Oct 11 2024 10:36:26 GMT-0400 (Eastern Daylight Time),344416.40000009537,1400,I,z,889,8,1,2306.600000023842,342109.8000000715,9002,NTS,A,16
7,16,test,1,B,triangle.png,1,z,Fri Oct 11 2024 10:36:26 GMT-0400 (Eastern Daylight Time),347782.7000000477,2000,I,z,1348,6,1,3357.899999976158,344424.8000000715,9002,NTS,A,17
4,17,test,1,B,triangle.png,1,m,Fri Oct 11 2024 10:36:26 GMT-0400 (Eastern Daylight Time),350716.40000009537,1500,I,m,1411,4,1,2926.4000000953674,347790.0,9002,NTS,A,18
8,18,test,1,B,triangle.png,1,m,Fri Oct 11 2024 10:36:26 GMT-0400 (Eastern Daylight Time),353132.90000009537,1700,I,m,692,15,1,2406.4000000953674,350726.5,9002,NTS,A,19
6,19,test,1,B,triangle.png,1,m,Fri Oct 11 2024 10:36:26 GMT-0400 (Eastern Daylight Time),355733.0,1500,I,m,1068,13,1,2591.6999999284744,353141.3000000715,9002,NTS,A,20
3,20,test,1,B,triangle.png,1,z,Fri Oct 11 2024 10:36:26 GMT-0400 (Eastern Daylight Time),358733.0,2000,I,z,975,11,1,2991.399999976158,355741.60000002384,9002,NTS,A,21
1,21,test,1,B,triangle.png,1,z,Fri Oct 11 2024 10:36:26 GMT-0400 (Eastern Daylight Time),361599.8000000715,1900,I,z,940,1,1,2859.100000023842,358740.7000000477,9002,NTS,A,22
9,22,test,1,B,triangle.png,1,z,Fri Oct 11 2024 10:36:26 GMT-0400 (Eastern Daylight Time),364482.8000000715,1900,I,z,953,16,1,2875.3000000715256,361607.5,9002,NTS,A,23
8,23,test,1,B,triangle.png,1,m,Fri Oct 11 2024 10:36:26 GMT-0400 (Eastern Daylight Time),366566.5,1200,I,m,865,7,1,2073.2999999523163,364493.2000000477,9002,NTS,A,24
8,0,prac,1,C,triangle.png,0,m,Fri Oct 11 2024 10:36:26 GMT-0400 (Eastern Daylight Time),417249.8000000715,1400,I,None,1515,7,1,3689.399999976158,413560.40000009537,9002,NTS,A,1
3,0,prac,1,C,triangle.png,0,z,Fri Oct 11 2024 10:36:26 GMT-0400 (Eastern Daylight Time),421049.8000000715,1500,I,None,1516,3,1,3788.5,417261.3000000715,9002,NTS,A,2
9,0,prac,1,C,circle.png,0,m,Fri Oct 11 2024 10:36:26 GMT-0400 (Eastern Daylight Time),424883.2000000477,1900,I,z,1135,8,1,3819.7000000476837,421063.5,9002,NTS,A,3
8,1,prac,1,C,triangle.png,1,m,Fri Oct 11 2024 10:36:26 GMT-0400 (Eastern Daylight Time),428399.90000009537,1400,I,m,1321,7,1,3505.9000000953674,424894.0,9002,NTS,A,4
1,2,prac,1,C,circle.png,1,z,Fri Oct 11 2024 10:36:26 GMT-0400 (Eastern Daylight Time),432233.10000002384,1700,I,z,1345,1,1,3822.899999976158,428410.2000000477,9002,NTS,A,5
7,2,prac,1,C,triangle.png,0,z,Fri Oct 11 2024 10:36:26 GMT-0400 (Eastern Daylight Time),435733.10000002384,1200,I,None,1515,6,1,3488.2999999523163,432244.8000000715,9002,NTS,A,6
7,3,prac,1,C,triangle.png,1,z,Fri Oct 11 2024 10:36:26 GMT-0400 (Eastern Daylight Time),438416.5,1200,I,z,688,6,1,2672.5999999046326,435743.90000009537,9002,NTS,A,7
9,3,prac,1,C,circle.png,0,m,Fri Oct 11 2024 10:36:26 GMT-0400 (Eastern Daylight Time),442133.3000000715,1900,I,z,1016,8,1,3706.899999976158,438426.40000009537,9002,NTS,A,8
2,3,prac,1,C,triangle.png,0,m,Fri Oct 11 2024 10:36:26 GMT-0400 (Eastern Daylight Time),445966.5,1600,I,z,1440,2,1,3823.0999999046326,442143.40000009537,9002,NTS,A,9
6,3,prac,1,C,circle.png,0,m,Fri Oct 11 2024 10:36:26 GMT-0400 (Eastern Daylight Time),449866.5,2000,I,z,1110,5,1,3889.0999999046326,445977.40000009537,9002,NTS,A,10
1,4,prac,1,C,circle.png,1,z,Fri Oct 11 2024 10:36:26 GMT-0400 (Eastern Daylight Time),453499.90000009537,1700,I,z,1142,1,1,3620.2000000476837,449879.7000000477,9002,NTS,A,11
4,4,prac,1,C,circle.png,0,z,Fri Oct 11 2024 10:36:26 GMT-0400 (Eastern Daylight Time),456299.90000009537,1000,I,m,1009,4,1,2787.2000000476837,453512.7000000477,9002,NTS,A,12
4,0,prac,2,C,circle.png,0,z,Fri Oct 11 2024 10:36:26 GMT-0400 (Eastern Daylight Time),480383.3000000715,1000,I,None,1517,4,1,3290.399999976158,477092.90000009537,9002,NTS,A,1
3,0,prac,2,C,triangle.png,0,z,Fri Oct 11 2024 10:36:26 GMT-0400 (Eastern Daylight Time),484183.2000000477,1500,I,None,1515,3,1,3788.100000023842,480395.10000002384,9002,NTS,A,2
6,1,prac,2,C,circle.png,1,m,Fri Oct 11 2024 10:36:26 GMT-0400 (Eastern Daylight Time),488100.0,2000,I,m,1118,5,1,3905.899999976158,484194.10000002384,9002,NTS,A,3
3,2,prac,2,C,triangle.png,1,z,Fri Oct 11 2024 10:36:26 GMT-0400 (Eastern Daylight Time),491550.0,1500,I,z,1157,3,1,3438.899999976158,488111.10000002384,9002,NTS,A,4
7,3,prac,2,C,triangle.png,1,z,Fri Oct 11 2024 10:36:26 GMT-0400 (Eastern Daylight Time),494916.8000000715,1200,I,z,1367,6,1,3353.399999976158,491563.40000009537,9002,NTS,A,5
8,3,prac,2,C,triangle.png,0,m,Fri Oct 11 2024 10:36:26 GMT-0400 (Eastern Daylight Time),498616.7000000477,1400,I,None,1516,7,1,3689.399999976158,494927.3000000715,9002,NTS,A,6
8,3,prac,2,C,triangle.png,0,m,Fri Oct 11 2024 10:36:26 GMT-0400 (Eastern Daylight Time),502099.90000009537,1400,I,z,1284,7,1,3470.9000000953674,498629.0,9002,NTS,A,7
1,4,prac,2,C,circle.png,1,z,Fri Oct 11 2024 10:36:26 GMT-0400 (Eastern Daylight Time),505716.7000000477,1700,I,z,1117,1,1,3605.2999999523163,502111.40000009537,9002,NTS,A,8
9,5,prac,2,C,circle.png,1,m,Fri Oct 11 2024 10:36:26 GMT-0400 (Eastern Daylight Time),509616.8000000715,1900,I,m,1205,8,1,3888.0,505728.8000000715,9002,NTS,A,9
2,6,prac,2,C,triangle.png,1,m,Fri Oct 11 2024 10:36:26 GMT-0400 (Eastern Daylight Time),513033.40000009537,1600,I,m,1028,2,1,3404.3000000715256,509629.10000002384,9002,NTS,A,10
9,7,prac,2,C,circle.png,1,m,Fri Oct 11 2024 10:36:26 GMT-0400 (Eastern Daylight Time),517199.90000009537,1900,I,m,1471,8,1,4155.900000095367,513044.0,9002,NTS,A,11
4,8,prac,2,C,circle.png,1,z,Fri Oct 11 2024 10:36:26 GMT-0400 (Eastern Daylight Time),519866.7000000477,1000,I,z,878,4,1,2656.399999976158,517210.3000000715,9002,NTS,A,12
6,1,prac,3,C,circle.png,1,m,Fri Oct 11 2024 10:36:26 GMT-0400 (Eastern Daylight Time),552066.8000000715,2000,I,m,719,5,1,3507.399999976158,548559.4000000954,9002,NTS,A,1
7,2,prac,3,C,triangle.png,1,z,Fri Oct 11 2024 10:36:26 GMT-0400 (Eastern Daylight Time),555299.9000000954,1200,I,z,1234,6,1,3222.2000000476837,552077.7000000477,9002,NTS,A,2
8,2,prac,3,C,triangle.png,0,m,Fri Oct 11 2024 10:36:26 GMT-0400 (Eastern Daylight Time),558733.3000000715,1400,I,z,1241,7,1,3424.3000000715256,555309.0,9002,NTS,A,3
2,2,prac,3,C,triangle.png,0,m,Fri Oct 11 2024 10:36:26 GMT-0400 (Eastern Daylight Time),561916.6000000238,1600,I,z,792,2,1,3172.7999999523163,558743.8000000715,9002,NTS,A,4
7,3,prac,3,C,triangle.png,1,z,Fri Oct 11 2024 10:36:26 GMT-0400 (Eastern Daylight Time),565000.2000000477,1200,I,z,1096,6,1,3072.0,561928.2000000477,9002,NTS,A,5
1,4,prac,3,C,circle.png,1,z,Fri Oct 11 2024 10:36:26 GMT-0400 (Eastern Daylight Time),568533.5,1700,I,z,1033,1,1,3520.6999999284744,565012.8000000715,9002,NTS,A,6
1,5,prac,3,C,circle.png,1,z,Fri Oct 11 2024 10:36:26 GMT-0400 (Eastern Daylight Time),571766.8000000715,1700,I,z,747,1,1,3223.7000000476837,568543.1000000238,9002,NTS,A,7
4,6,prac,3,C,circle.png,1,z,Fri Oct 11 2024 10:36:26 GMT-0400 (Eastern Daylight Time),574500.0,1000,I,z,934,4,1,2718.2999999523163,571781.7000000477,9002,NTS,A,8
6,7,prac,3,C,circle.png,1,m,Fri Oct 11 2024 10:36:26 GMT-0400 (Eastern Daylight Time),578066.5,2000,I,m,769,5,1,3554.399999976158,574512.1000000238,9002,NTS,A,9
3,8,prac,3,C,triangle.png,1,z,Fri Oct 11 2024 10:36:26 GMT-0400 (Eastern Daylight Time),581583.3000000715,1500,I,z,1222,3,1,3507.3000000715256,578076.0,9002,NTS,A,10
8,9,prac,3,C,triangle.png,1,m,Fri Oct 11 2024 10:36:26 GMT-0400 (Eastern Daylight Time),584950.0,1400,I,m,1182,7,1,3355.5,581594.5,9002,NTS,A,11
9,10,prac,3,C,circle.png,1,m,Fri Oct 11 2024 10:36:26 GMT-0400 (Eastern Daylight Time),588716.7000000477,1900,I,m,1075,8,1,3757.100000023842,584959.6000000238,9002,NTS,A,12
2,1,test,1,C,triangle.png,1,m,Fri Oct 11 2024 10:36:26 GMT-0400 (Eastern Daylight Time),615466.7000000477,2000,I,m,1262,2,1,3275.5,612191.2000000477,9002,NTS,A,1
9,2,test,1,C,circle.png,1,m,Fri Oct 11 2024 10:36:26 GMT-0400 (Eastern Daylight Time),618283.4000000954,1500,I,m,1296,8,1,2808.0,615475.4000000954,9002,NTS,A,2
2,3,test,1,C,circle.png,1,z,Fri Oct 11 2024 10:36:26 GMT-0400 (Eastern Daylight Time),620866.7000000477,1700,I,z,853,18,1,2574.0,618292.7000000477,9002,NTS,A,3
4,4,test,1,C,circle.png,1,z,Fri Oct 11 2024 10:36:26 GMT-0400 (Eastern Daylight Time),623683.3000000715,1400,I,z,1386,4,1,2807.2000000476837,620876.1000000238,9002,NTS,A,4
6,5,test,1,C,circle.png,1,m,Fri Oct 11 2024 10:36:26 GMT-0400 (Eastern Daylight Time),626566.9000000954,1900,I,m,966,21,1,2873.600000023842,623693.3000000715,9002,NTS,A,5
7,6,test,1,C,triangle.png,1,z,Fri Oct 11 2024 10:36:26 GMT-0400 (Eastern Daylight Time),629233.2000000477,1700,I,z,938,6,1,2658.2999999523163,626574.9000000954,9002,NTS,A,6
6,7,test,1,C,circle.png,1,m,Fri Oct 11 2024 10:36:26 GMT-0400 (Eastern Daylight Time),632316.8000000715,1900,I,m,1160,5,1,3075.399999976158,629241.4000000954,9002,NTS,A,7
1,8,test,1,C,triangle.png,1,z,Fri Oct 11 2024 10:36:26 GMT-0400 (Eastern Daylight Time),635216.7000000477,1900,I,z,973,17,1,2891.2999999523163,632325.4000000954,9002,NTS,A,8
7,9,test,1,C,circle.png,1,m,Fri Oct 11 2024 10:36:26 GMT-0400 (Eastern Daylight Time),638216.3000000715,2000,I,m,980,14,1,2989.600000023842,635226.7000000477,9002,NTS,A,9
3,10,test,1,C,circle.png,1,z,Fri Oct 11 2024 10:36:26 GMT-0400 (Eastern Daylight Time),640783.3000000715,1600,I,z,941,19,1,2561.7000000476837,638221.6000000238,9002,NTS,A,10
8,11,test,1,C,triangle.png,1,m,Fri Oct 11 2024 10:36:26 GMT-0400 (Eastern Daylight Time),643583.3000000715,1600,I,m,1174,23,1,2792.100000023842,640791.2000000477,9002,NTS,A,11
9,12,test,1,C,circle.png,1,m,Fri Oct 11 2024 10:36:26 GMT-0400 (Eastern Daylight Time),646000.2000000477,1500,I,m,891,24,1,2408.899999976158,643591.3000000715,9002,NTS,A,12
2,13,test,1,C,circle.png,1,z,Fri Oct 11 2024 10:36:26 GMT-0400 (Eastern Daylight Time),648550.0,1700,I,z,800,10,1,2533.399999976158,646016.6000000238,9002,NTS,A,13
4,13,test,1,C,triangle.png,0,m,Fri Oct 11 2024 10:36:26 GMT-0400 (Eastern Daylight Time),651116.8000000715,1500,I,z,1044,20,1,2556.3000000715256,648560.5,9002,NTS,A,14
8,14,test,1,C,triangle.png,1,m,Fri Oct 11 2024 10:36:26 GMT-0400 (Eastern Daylight Time),654166.7000000477,1600,I,m,1417,7,1,3042.0,651124.7000000477,9002,NTS,A,15
1,15,test,1,C,triangle.png,1,z,Fri Oct 11 2024 10:36:26 GMT-0400 (Eastern Daylight Time),656999.8000000715,1900,I,z,915,9,1,2825.0,654174.8000000715,9002,NTS,A,16
3,16,test,1,C,circle.png,1,z,Fri Oct 11 2024 10:36:26 GMT-0400 (Eastern Daylight Time),659516.8000000715,1600,I,z,894,11,1,2508.600000023842,657008.2000000477,9002,NTS,A,17
9,16,test,1,C,triangle.png,0,z,Fri Oct 11 2024 10:36:26 GMT-0400 (Eastern Daylight Time),662016.8000000715,1400,I,m,1072,16,1,2490.7000000476837,659526.1000000238,9002,NTS,A,18
7,17,test,1,C,triangle.png,1,z,Fri Oct 11 2024 10:36:26 GMT-0400 (Eastern Daylight Time),665116.8000000715,1700,I,z,1377,22,1,3092.2000000476837,662024.6000000238,9002,NTS,A,19
8,18,test,1,C,circle.png,1,m,Fri Oct 11 2024 10:36:26 GMT-0400 (Eastern Daylight Time),667550.1000000238,1200,I,m,1209,15,1,2423.399999976158,665126.7000000477,9002,NTS,A,20
4,19,test,1,C,triangle.png,1,m,Fri Oct 11 2024 10:36:26 GMT-0400 (Eastern Daylight Time),670149.9000000954,1500,I,m,1067,12,1,2591.0,667558.9000000954,9002,NTS,A,21
1,19,test,1,C,circle.png,0,z,Fri Oct 11 2024 10:36:26 GMT-0400 (Eastern Daylight Time),672683.5,1000,I,None,1516,1,1,2524.7999999523163,670158.7000000477,9002,NTS,A,22
6,19,test,1,C,triangle.png,0,m,Fri Oct 11 2024 10:36:26 GMT-0400 (Eastern Daylight Time),674966.6000000238,1000,I,z,1250,13,1,2273.899999976158,672692.7000000477,9002,NTS,A,23
3,20,test,1,C,triangle.png,1,z,Fri Oct 11 2024 10:36:26 GMT-0400 (Eastern Daylight Time),677233.3000000715,1200,I,z,1039,3,1,2257.3000000715256,674976.0,9002,NTS,A,24
6,0,test,2,C,triangle.png,0,m,Fri Oct 11 2024 10:36:26 GMT-0400 (Eastern Daylight Time),694900.4000000954,1000,I,None,1516,21,1,2525.7000000476837,692374.7000000477,9002,NTS,A,1
3,0,test,2,C,circle.png,0,z,Fri Oct 11 2024 10:36:26 GMT-0400 (Eastern Daylight Time),698033.6000000238,1600,I,None,1516,19,1,3124.1999999284744,694909.4000000954,9002,NTS,A,2
2,0,test,2,C,circle.png,0,z,Fri Oct 11 2024 10:36:26 GMT-0400 (Eastern Daylight Time),701266.7000000477,1700,I,None,1516,10,1,3222.100000023842,698044.6000000238,9002,NTS,A,3
2,1,test,2,C,circle.png,1,z,Fri Oct 11 2024 10:36:26 GMT-0400 (Eastern Daylight Time),703950.2000000477,1700,I,z,959,18,1,2675.2000000476837,701275.0,9002,NTS,A,4
1,1,test,2,C,circle.png,0,z,Fri Oct 11 2024 10:36:26 GMT-0400 (Eastern Daylight Time),706483.6000000238,1000,I,None,1516,1,1,2523.399999976158,703960.2000000477,9002,NTS,A,5
6,2,test,2,C,circle.png,1,m,Fri Oct 11 2024 10:36:26 GMT-0400 (Eastern Daylight Time),709433.1000000238,1900,I,m,1030,5,1,2939.2999999523163,706493.8000000715,9002,NTS,A,6
1,3,test,2,C,triangle.png,1,z,Fri Oct 11 2024 10:36:26 GMT-0400 (Eastern Daylight Time),712466.9000000954,1900,I,z,1104,9,1,3027.600000023842,709439.3000000715,9002,NTS,A,7
6,3,test,2,C,triangle.png,0,m,Fri Oct 11 2024 10:36:26 GMT-0400 (Eastern Daylight Time),714733.4000000954,1000,I,z,1243,13,1,2256.100000023842,712477.3000000715,9002,NTS,A,8
9,4,test,2,C,triangle.png,1,z,Fri Oct 11 2024 10:36:26 GMT-0400 (Eastern Daylight Time),717000.0,1400,I,z,848,16,1,2258.2999999523163,714741.7000000477,9002,NTS,A,9
3,4,test,2,C,circle.png,0,z,Fri Oct 11 2024 10:36:26 GMT-0400 (Eastern Daylight Time),720133.3000000715,1600,I,None,1516,11,1,3123.100000023842,717010.2000000477,9002,NTS,A,10
8,5,test,2,C,circle.png,1,m,Fri Oct 11 2024 10:36:26 GMT-0400 (Eastern Daylight Time),722116.6000000238,1200,I,m,752,15,1,1975.2999999523163,720141.3000000715,9002,NTS,A,11
9,6,test,2,C,triangle.png,1,z,Fri Oct 11 2024 10:36:26 GMT-0400 (Eastern Daylight Time),724516.9000000954,1400,I,z,969,24,1,2392.2000000476837,722124.7000000477,9002,NTS,A,12
7,7,test,2,C,triangle.png,1,z,Fri Oct 11 2024 10:36:26 GMT-0400 (Eastern Daylight Time),727102.4000000954,1700,I,z,868,6,1,2576.2000000476837,724526.2000000477,9002,NTS,A,13
4,7,test,2,C,circle.png,0,z,Fri Oct 11 2024 10:36:26 GMT-0400 (Eastern Daylight Time),729716.9000000954,1400,I,m,1185,4,1,2609.0,727107.9000000954,9002,NTS,A,14
7,8,test,2,C,circle.png,1,m,Fri Oct 11 2024 10:36:26 GMT-0400 (Eastern Daylight Time),732983.2000000477,2000,I,m,1249,14,1,3257.5,729725.7000000477,9002,NTS,A,15
9,9,test,2,C,circle.png,1,m,Fri Oct 11 2024 10:36:26 GMT-0400 (Eastern Daylight Time),735933.4000000954,1500,I,m,1426,8,1,2940.100000023842,732993.3000000715,9002,NTS,A,16
1,10,test,2,C,triangle.png,1,z,Fri Oct 11 2024 10:36:26 GMT-0400 (Eastern Daylight Time),739150.1000000238,1900,I,z,1292,17,1,3208.399999976158,735941.7000000477,9002,NTS,A,17
8,10,test,2,C,triangle.png,0,m,Fri Oct 11 2024 10:36:26 GMT-0400 (Eastern Daylight Time),742283.6000000238,1600,I,None,1516,7,1,3124.7999999523163,739158.8000000715,9002,NTS,A,18
7,10,test,2,C,circle.png,0,m,Fri Oct 11 2024 10:36:26 GMT-0400 (Eastern Daylight Time),745799.9000000954,2000,I,z,1498,22,1,3507.5,742292.4000000954,9002,NTS,A,19
2,10,test,2,C,triangle.png,0,m,Fri Oct 11 2024 10:36:26 GMT-0400 (Eastern Daylight Time),749333.5,2000,I,None,1516,2,1,3525.0,745808.5,9002,NTS,A,20
3,11,test,2,C,triangle.png,1,z,Fri Oct 11 2024 10:36:26 GMT-0400 (Eastern Daylight Time),752000.2000000477,1200,I,z,1440,3,1,2658.2000000476837,749342.0,9002,NTS,A,21
4,11,test,2,C,triangle.png,0,m,Fri Oct 11 2024 10:36:26 GMT-0400 (Eastern Daylight Time),754916.8000000715,1500,I,z,1386,20,1,2907.899999976158,752008.9000000954,9002,NTS,A,22
4,12,test,2,C,triangle.png,1,m,Fri Oct 11 2024 10:36:26 GMT-0400 (Eastern Daylight Time),757416.8000000715,1500,I,m,981,12,1,2492.0,754924.8000000715,9002,NTS,A,23
8,13,test,2,C,circle.png,1,m,Fri Oct 11 2024 10:36:26 GMT-0400 (Eastern Daylight Time),759733.4000000954,1200,I,m,1085,23,1,2308.4000000953674,757425.0,9002,NTS,A,24
6,1,test,3,C,circle.png,1,m,Fri Oct 11 2024 10:36:26 GMT-0400 (Eastern Daylight Time),777450.3000000715,1900,I,m,1179,5,1,3092.399999976158,774357.9000000954,9002,NTS,A,1
6,2,test,3,C,circle.png,1,m,Fri Oct 11 2024 10:36:26 GMT-0400 (Eastern Daylight Time),780217.0,1900,I,m,848,21,1,2758.399999976158,777458.6000000238,9002,NTS,A,2
9,3,test,3,C,triangle.png,1,z,Fri Oct 11 2024 10:36:26 GMT-0400 (Eastern Daylight Time),782883.5,1400,I,z,1237,16,1,2657.399999976158,780226.1000000238,9002,NTS,A,3
1,4,test,3,C,circle.png,1,z,Fri Oct 11 2024 10:36:26 GMT-0400 (Eastern Daylight Time),785016.8000000715,1000,I,z,1114,17,1,2123.3000000715256,782893.5,9002,NTS,A,4
8,5,test,3,C,triangle.png,1,m,Fri Oct 11 2024 10:36:26 GMT-0400 (Eastern Daylight Time),787850.3000000715,1600,I,m,1213,7,1,2822.5,785027.8000000715,9002,NTS,A,5
1,6,test,3,C,circle.png,1,z,Fri Oct 11 2024 10:36:26 GMT-0400 (Eastern Daylight Time),790033.4000000954,1000,I,z,1156,1,1,2174.600000023842,787858.8000000715,9002,NTS,A,6
7,7,test,3,C,triangle.png,1,z,Fri Oct 11 2024 10:36:26 GMT-0400 (Eastern Daylight Time),792766.7000000477,1700,I,z,1008,22,1,2725.399999976158,790041.3000000715,9002,NTS,A,7
2,7,test,3,C,triangle.png,0,m,Fri Oct 11 2024 10:36:26 GMT-0400 (Eastern Daylight Time),796300.4000000954,2000,I,None,1516,18,1,3526.3000000715256,792774.1000000238,9002,NTS,A,8
4,7,test,3,C,circle.png,0,z,Fri Oct 11 2024 10:36:26 GMT-0400 (Eastern Daylight Time),799083.4000000954,1400,I,m,1361,4,1,2774.2000000476837,796309.2000000477,9002,NTS,A,9
4,8,test,3,C,circle.png,1,z,Fri Oct 11 2024 10:36:26 GMT-0400 (Eastern Daylight Time),801367.0,1400,I,z,866,20,1,2273.899999976158,799093.1000000238,9002,NTS,A,10
6,8,test,3,C,triangle.png,0,m,Fri Oct 11 2024 10:36:26 GMT-0400 (Eastern Daylight Time),803900.4000000954,1000,I,None,1516,13,1,2525.5,801374.9000000954,9002,NTS,A,11
3,9,test,3,C,triangle.png,1,z,Fri Oct 11 2024 10:36:26 GMT-0400 (Eastern Daylight Time),806033.5,1200,I,z,906,19,1,2124.5,803909.0,9002,NTS,A,12
4,9,test,3,C,triangle.png,0,m,Fri Oct 11 2024 10:36:26 GMT-0400 (Eastern Daylight Time),808866.8000000715,1500,I,z,1304,12,1,2824.600000023842,806042.2000000477,9002,NTS,A,13
2,10,test,3,C,circle.png,1,z,Fri Oct 11 2024 10:36:26 GMT-0400 (Eastern Daylight Time),811800.1000000238,1700,I,z,1215,10,1,2922.399999976158,808877.7000000477,9002,NTS,A,14
1,11,test,3,C,triangle.png,1,z,Fri Oct 11 2024 10:36:26 GMT-0400 (Eastern Daylight Time),814800.3000000715,1900,I,z,1073,9,1,2991.899999976158,811808.4000000954,9002,NTS,A,15
3,12,test,3,C,triangle.png,1,z,Fri Oct 11 2024 10:36:26 GMT-0400 (Eastern Daylight Time),817416.9000000954,1200,I,z,1398,3,1,2605.7000000476837,814811.2000000477,9002,NTS,A,16
7,13,test,3,C,circle.png,1,m,Fri Oct 11 2024 10:36:26 GMT-0400 (Eastern Daylight Time),820900.4000000954,2000,I,m,1453,14,1,3475.7000000476837,817424.7000000477,9002,NTS,A,17
8,14,test,3,C,circle.png,1,m,Fri Oct 11 2024 10:36:26 GMT-0400 (Eastern Daylight Time),822866.9000000954,1200,I,m,738,15,1,1957.4000000953674,820909.5,9002,NTS,A,18
7,15,test,3,C,triangle.png,1,z,Fri Oct 11 2024 10:36:26 GMT-0400 (Eastern Daylight Time),825716.8000000715,1700,I,z,1119,6,1,2839.2000000476837,822877.6000000238,9002,NTS,A,19
3,16,test,3,C,circle.png,1,z,Fri Oct 11 2024 10:36:26 GMT-0400 (Eastern Daylight Time),828683.7000000477,1600,I,z,1345,11,1,2958.600000023842,825725.1000000238,9002,NTS,A,20
8,17,test,3,C,triangle.png,1,m,Fri Oct 11 2024 10:36:26 GMT-0400 (Eastern Daylight Time),831416.9000000954,1600,I,m,1114,23,1,2724.3000000715256,828692.6000000238,9002,NTS,A,21
2,18,test,3,C,triangle.png,1,m,Fri Oct 11 2024 10:36:26 GMT-0400 (Eastern Daylight Time),834533.7000000477,2000,I,m,1084,2,1,3108.399999976158,831425.3000000715,9002,NTS,A,22
9,19,test,3,C,circle.png,1,m,Fri Oct 11 2024 10:36:26 GMT-0400 (Eastern Daylight Time),837383.3000000715,1500,I,m,1332,24,1,2840.600000023842,834542.7000000477,9002,NTS,A,23
9,20,test,3,C,circle.png,1,m,Fri Oct 11 2024 10:36:26 GMT-0400 (Eastern Daylight Time),839967.0,1500,I,m,1058,8,1,2575.5,837391.5,9002,NTS,A,24
6,1,test,4,C,circle.png,1,m,Fri Oct 11 2024 10:36:26 GMT-0400 (Eastern Daylight Time),851067.2000000477,1900,I,m,879,21,1,2792.2999999523163,848274.9000000954,9002,NTS,A,1
9,2,test,4,C,circle.png,1,m,Fri Oct 11 2024 10:36:26 GMT-0400 (Eastern Daylight Time),853250.3000000715,1500,I,m,655,8,1,2174.100000023842,851076.2000000477,9002,NTS,A,2
2,3,test,4,C,triangle.png,1,m,Fri Oct 11 2024 10:36:26 GMT-0400 (Eastern Daylight Time),856466.9000000954,2000,I,m,1188,18,1,3207.9000000953674,853259.0,9002,NTS,A,3
2,3,test,4,C,circle.png,0,z,Fri Oct 11 2024 10:36:26 GMT-0400 (Eastern Daylight Time),859516.9000000954,1700,I,m,1327,10,1,3040.9000000953674,856476.0,9002,NTS,A,4
4,4,test,4,C,circle.png,1,z,Fri Oct 11 2024 10:36:26 GMT-0400 (Eastern Daylight Time),861967.5,1400,I,z,1025,4,1,2442.5999999046326,859524.9000000954,9002,NTS,A,5
9,5,test,4,C,triangle.png,1,z,Fri Oct 11 2024 10:36:26 GMT-0400 (Eastern Daylight Time),864566.9000000954,1400,I,z,1167,16,1,2593.8000000715256,861973.1000000238,9002,NTS,A,6
3,6,test,4,C,circle.png,1,z,Fri Oct 11 2024 10:36:26 GMT-0400 (Eastern Daylight Time),867000.1000000238,1600,I,z,815,11,1,2424.600000023842,864575.5,9002,NTS,A,7
4,7,test,4,C,circle.png,1,z,Fri Oct 11 2024 10:36:26 GMT-0400 (Eastern Daylight Time),869500.3000000715,1400,I,z,1077,20,1,2491.8000000715256,867008.5,9002,NTS,A,8
3,8,test,4,C,triangle.png,1,z,Fri Oct 11 2024 10:36:26 GMT-0400 (Eastern Daylight Time),871883.6000000238,1200,I,z,1161,3,1,2374.1999999284744,869509.4000000954,9002,NTS,A,9
8,9,test,4,C,circle.png,1,m,Fri Oct 11 2024 10:36:26 GMT-0400 (Eastern Daylight Time),874283.5,1200,I,m,1178,15,1,2391.1999999284744,871892.3000000715,9002,NTS,A,10
1,10,test,4,C,triangle.png,1,z,Fri Oct 11 2024 10:36:26 GMT-0400 (Eastern Daylight Time),877300.4000000954,1900,I,z,1086,9,1,3006.0,874294.4000000954,9002,NTS,A,11
2,10,test,4,C,triangle.png,0,m,Fri Oct 11 2024 10:36:26 GMT-0400 (Eastern Daylight Time),880600.2000000477,2000,I,z,1282,2,1,3291.5,877308.7000000477,9002,NTS,A,12
9,11,test,4,C,circle.png,1,m,Fri Oct 11 2024 10:36:26 GMT-0400 (Eastern Daylight Time),883300.4000000954,1500,I,m,1169,24,1,2692.2000000476837,880608.2000000477,9002,NTS,A,13
7,12,test,4,C,triangle.png,1,z,Fri Oct 11 2024 10:36:26 GMT-0400 (Eastern Daylight Time),886367.1000000238,1700,I,z,1341,22,1,3057.399999976158,883309.7000000477,9002,NTS,A,14
8,12,test,4,C,triangle.png,0,m,Fri Oct 11 2024 10:36:26 GMT-0400 (Eastern Daylight Time),889500.6000000238,1600,I,None,1516,23,1,3124.5,886376.1000000238,9002,NTS,A,15
7,13,test,4,C,triangle.png,1,z,Fri Oct 11 2024 10:36:26 GMT-0400 (Eastern Daylight Time),891950.3000000715,1700,I,z,725,6,1,2442.0,889508.3000000715,9002,NTS,A,16
7,14,test,4,C,circle.png,1,m,Fri Oct 11 2024 10:36:26 GMT-0400 (Eastern Daylight Time),894983.5,2000,I,m,1015,14,1,3024.399999976158,891959.1000000238,9002,NTS,A,17
1,15,test,4,C,circle.png,1,z,Fri Oct 11 2024 10:36:26 GMT-0400 (Eastern Daylight Time),897150.3000000715,1000,I,z,1142,17,1,2159.899999976158,894990.4000000954,9002,NTS,A,18
6,16,test,4,C,circle.png,1,m,Fri Oct 11 2024 10:36:26 GMT-0400 (Eastern Daylight Time),899917.1000000238,1900,I,m,844,5,1,2756.100000023842,897161.0,9002,NTS,A,19
6,17,test,4,C,triangle.png,1,m,Fri Oct 11 2024 10:36:26 GMT-0400 (Eastern Daylight Time),902017.1000000238,1000,I,m,1072,13,1,2089.7999999523163,899927.3000000715,9002,NTS,A,20
4,17,test,4,C,triangle.png,0,m,Fri Oct 11 2024 10:36:26 GMT-0400 (Eastern Daylight Time),904850.4000000954,1500,I,z,1305,12,1,2825.0,902025.4000000954,9002,NTS,A,21
1,18,test,4,C,circle.png,1,z,Fri Oct 11 2024 10:36:26 GMT-0400 (Eastern Daylight Time),907100.4000000954,1000,I,z,1227,1,1,2241.8000000715256,904858.6000000238,9002,NTS,A,22
8,18,test,4,C,triangle.png,0,m,Fri Oct 11 2024 10:36:26 GMT-0400 (Eastern Daylight Time),910233.7000000477,1600,I,None,1516,7,1,3124.7999999523163,907108.9000000954,9002,NTS,A,23
3,19,test,4,C,triangle.png,1,z,Fri Oct 11 2024 10:36:26 GMT-0400 (Eastern Daylight Time),912167.1000000238,1200,I,z,716,19,1,1922.7999999523163,910244.3000000715,9002,NTS,A,24
