block_c,block_dur,condition,countdown,datetime,endtime,list,multichar_response,project,response,response_time,session_number,start_end,starttime,subject_id,task,task_vers,trial
,,,,Mon Feb 03 2025 14:24:59 GMT-0600 (Central Standard Time),,,,I,space,398,1,,,8026,WL,B,
prac,,0,,Mon Feb 03 2025 14:24:59 GMT-0600 (Central Standard Time),,NA,b,I,b,8082,1,,,8026,WL,B,1.0
prac,,0,,Mon Feb 03 2025 14:24:59 GMT-0600 (Central Standard Time),,NA,bo,I,o,203,1,,,8026,WL,B,1.0
prac,,0,,Mon Feb 03 2025 14:24:59 GMT-0600 (Central Standard Time),,NA,boo,I,o,211,1,,,8026,WL,B,1.0
prac,,0,,Mon Feb 03 2025 14:24:59 GMT-0600 (Central Standard Time),,NA,boos,I,s,297,1,,,8026,WL,B,1.0
prac,,0,,Mon Feb 03 2025 14:24:59 GMT-0600 (Central Standard Time),,NA,boost,I,t,173,1,,,8026,WL,B,1.0
prac,,0,,Mon Feb 03 2025 14:24:59 GMT-0600 (Central Standard Time),,NA,boostenter,I,enter,653,1,,,8026,WL,B,1.0
1,1.2829999923706055,learn,58717.000007629395,Mon Feb 03 2025 14:24:59 GMT-0600 (Central Standard Time),146674.7999999998,A,s,I,s,1272,1,1282.7999999998137,145392.0,8026,WL,B,1.0
1,1.5329999923706055,learn,58467.000007629395,Mon Feb 03 2025 14:24:59 GMT-0600 (Central Standard Time),146924.59999999963,A,st,I,t,229,1,1532.5999999996275,145392.0,8026,WL,B,1.0
1,1.7660000324249268,learn,58233.99996757507,Mon Feb 03 2025 14:24:59 GMT-0600 (Central Standard Time),147157.7000000002,A,str,I,r,219,1,1765.7000000001863,145392.0,8026,WL,B,1.0
1,2.0329999923706055,learn,57967.000007629395,Mon Feb 03 2025 14:24:59 GMT-0600 (Central Standard Time),147424.39999999944,A,stre,I,e,243,1,2032.3999999994412,145392.0,8026,WL,B,1.0
1,2.2160000801086426,learn,57783.99991989136,Mon Feb 03 2025 14:24:59 GMT-0600 (Central Standard Time),147607.89999999944,A,stree,I,e,168,1,2215.899999999441,145392.0,8026,WL,B,1.0
1,2.3989999294281006,learn,57601.0000705719,Mon Feb 03 2025 14:24:59 GMT-0600 (Central Standard Time),147790.89999999944,A,street,I,t,160,1,2398.899999999441,145392.0,8026,WL,B,1.0
1,2.6989998817443848,learn,57301.000118255615,Mon Feb 03 2025 14:24:59 GMT-0600 (Central Standard Time),148090.89999999944,A,streetenter,I,enter,281,1,2698.899999999441,145392.0,8026,WL,B,1.0
1,4.165999889373779,learn,55834.00011062622,Mon Feb 03 2025 14:24:59 GMT-0600 (Central Standard Time),149557.0,A,f,I,f,1445,1,1465.2999999998137,148091.7000000002,8026,WL,B,2.0
1,4.565000057220459,learn,55434.99994277954,Mon Feb 03 2025 14:24:59 GMT-0600 (Central Standard Time),149957.0,A,fi,I,i,387,1,1865.2999999998137,148091.7000000002,8026,WL,B,2.0
1,4.765000104904175,learn,55234.999895095825,Mon Feb 03 2025 14:24:59 GMT-0600 (Central Standard Time),150156.7999999998,A,fir,I,r,179,1,2065.0999999996275,148091.7000000002,8026,WL,B,2.0
1,5.148999929428101,learn,54851.0000705719,Mon Feb 03 2025 14:24:59 GMT-0600 (Central Standard Time),150540.09999999963,A,fire,I,e,370,1,2448.399999999441,148091.7000000002,8026,WL,B,2.0
1,5.664999961853027,learn,54335.00003814697,Mon Feb 03 2025 14:24:59 GMT-0600 (Central Standard Time),151056.5,A,fireenter,I,enter,493,1,2964.7999999998137,148091.7000000002,8026,WL,B,2.0
1,9.397000074386597,learn,50602.9999256134,Mon Feb 03 2025 14:24:59 GMT-0600 (Central Standard Time),154788.7000000002,A,a,I,a,3719,1,3731.7000000001863,151057.0,8026,WL,B,3.0
1,9.579999923706055,learn,50420.000076293945,Mon Feb 03 2025 14:24:59 GMT-0600 (Central Standard Time),154972.0,A,ar,I,r,171,1,3915.0,151057.0,8026,WL,B,3.0
1,9.813999891281128,learn,50186.00010871887,Mon Feb 03 2025 14:24:59 GMT-0600 (Central Standard Time),155205.5,A,arm,I,m,212,1,4148.5,151057.0,8026,WL,B,3.0
1,10.096999883651733,learn,49903.00011634827,Mon Feb 03 2025 14:24:59 GMT-0600 (Central Standard Time),155488.5,A,armenter,I,enter,268,1,4431.5,151057.0,8026,WL,B,3.0
1,12.513000011444092,learn,47486.99998855591,Mon Feb 03 2025 14:24:59 GMT-0600 (Central Standard Time),157904.5,A,c,I,c,2399,1,2415.5,155489.0,8026,WL,B,4.0
1,12.713000059127808,learn,47286.99994087219,Mon Feb 03 2025 14:24:59 GMT-0600 (Central Standard Time),158104.2000000002,A,cl,I,l,191,1,2615.2000000001863,155489.0,8026,WL,B,4.0
1,13.078999996185303,learn,46921.0000038147,Mon Feb 03 2025 14:24:59 GMT-0600 (Central Standard Time),158470.89999999944,A,clo,I,o,344,1,2981.899999999441,155489.0,8026,WL,B,4.0
1,13.312999963760376,learn,46687.000036239624,Mon Feb 03 2025 14:24:59 GMT-0600 (Central Standard Time),158704.39999999944,A,cloc,I,c,217,1,3215.399999999441,155489.0,8026,WL,B,4.0
1,13.562000036239624,learn,46437.999963760376,Mon Feb 03 2025 14:24:59 GMT-0600 (Central Standard Time),158953.7999999998,A,clock,I,k,233,1,3464.7999999998137,155489.0,8026,WL,B,4.0
1,13.828999996185303,learn,46171.0000038147,Mon Feb 03 2025 14:24:59 GMT-0600 (Central Standard Time),159220.59999999963,A,clockenter,I,enter,246,1,3731.5999999996275,155489.0,8026,WL,B,4.0
1,14.578999996185303,learn,45421.0000038147,Mon Feb 03 2025 14:24:59 GMT-0600 (Central Standard Time),159970.39999999944,A,s,I,s,731,1,749.2999999998137,159221.09999999963,8026,WL,B,5.0
1,14.895999908447266,learn,45104.000091552734,Mon Feb 03 2025 14:24:59 GMT-0600 (Central Standard Time),160287.59999999963,A,st,I,t,294,1,1066.5,159221.09999999963,8026,WL,B,5.0
1,15.128999948501587,learn,44871.00005149841,Mon Feb 03 2025 14:24:59 GMT-0600 (Central Standard Time),160520.0,A,str,I,r,227,1,1298.9000000003725,159221.09999999963,8026,WL,B,5.0
1,16.062000036239624,learn,43937.999963760376,Mon Feb 03 2025 14:24:59 GMT-0600 (Central Standard Time),161453.39999999944,A,st,I,backspace,920,1,2232.2999999998137,159221.09999999963,8026,WL,B,5.0
1,16.34500002861023,learn,43654.99997138977,Mon Feb 03 2025 14:24:59 GMT-0600 (Central Standard Time),161736.59999999963,A,s,I,backspace,274,1,2515.5,159221.09999999963,8026,WL,B,5.0
1,16.694999933242798,learn,43305.0000667572,Mon Feb 03 2025 14:24:59 GMT-0600 (Central Standard Time),162086.09999999963,A,,I,backspace,335,1,2865.0,159221.09999999963,8026,WL,B,5.0
1,20.24399995803833,learn,39756.00004196167,Mon Feb 03 2025 14:24:59 GMT-0600 (Central Standard Time),165635.0,A,c,I,c,3539,1,6413.9000000003725,159221.09999999963,8026,WL,B,5.0
1,21.493000030517578,learn,38506.99996948242,Mon Feb 03 2025 14:24:59 GMT-0600 (Central Standard Time),166884.59999999963,A,,I,backspace,1237,1,7663.5,159221.09999999963,8026,WL,B,5.0
1,24.108999967575073,learn,35891.00003242493,Mon Feb 03 2025 14:24:59 GMT-0600 (Central Standard Time),169500.5,A,p,I,p,2596,1,10279.400000000373,159221.09999999963,8026,WL,B,5.0
1,24.492000102996826,learn,35507.999897003174,Mon Feb 03 2025 14:24:59 GMT-0600 (Central Standard Time),169883.89999999944,A,pi,I,i,363,1,10662.799999999814,159221.09999999963,8026,WL,B,5.0
1,24.79200005531311,learn,35207.99994468689,Mon Feb 03 2025 14:24:59 GMT-0600 (Central Standard Time),170183.7000000002,A,pip,I,p,276,1,10962.600000000559,159221.09999999963,8026,WL,B,5.0
1,25.408999919891357,learn,34591.00008010864,Mon Feb 03 2025 14:24:59 GMT-0600 (Central Standard Time),170800.09999999963,A,pipe,I,e,601,1,11579.0,159221.09999999963,8026,WL,B,5.0
1,25.592000007629395,learn,34407.999992370605,Mon Feb 03 2025 14:24:59 GMT-0600 (Central Standard Time),170983.5,A,pipeenter,I,enter,166,1,11762.400000000373,159221.09999999963,8026,WL,B,5.0
1,38.687000036239624,learn,21312.999963760376,Mon Feb 03 2025 14:24:59 GMT-0600 (Central Standard Time),184079.2999999998,A,w,I,w,13072,1,13095.599999999627,170983.7000000002,8026,WL,B,6.0
1,38.90400004386902,learn,21095.99995613098,Mon Feb 03 2025 14:24:59 GMT-0600 (Central Standard Time),184295.89999999944,A,wa,I,a,200,1,13312.199999999255,170983.7000000002,8026,WL,B,6.0
1,39.11999988555908,learn,20880.000114440918,Mon Feb 03 2025 14:24:59 GMT-0600 (Central Standard Time),184512.39999999944,A,wat,I,t,208,1,13528.699999999255,170983.7000000002,8026,WL,B,6.0
1,39.3529999256134,learn,20647.000074386597,Mon Feb 03 2025 14:24:59 GMT-0600 (Central Standard Time),184745.7000000002,A,wate,I,e,224,1,13762.0,170983.7000000002,8026,WL,B,6.0
1,39.47000002861023,learn,20529.99997138977,Mon Feb 03 2025 14:24:59 GMT-0600 (Central Standard Time),184862.2999999998,A,water,I,r,95,1,13878.599999999627,170983.7000000002,8026,WL,B,6.0
1,39.70300006866455,learn,20296.99993133545,Mon Feb 03 2025 14:24:59 GMT-0600 (Central Standard Time),185095.5,A,waterenter,I,enter,210,1,14111.799999999814,170983.7000000002,8026,WL,B,6.0
1,45.76799988746643,learn,14232.00011253357,Mon Feb 03 2025 14:24:59 GMT-0600 (Central Standard Time),191160.39999999944,A,d,I,d,6041,1,6064.699999999255,185095.7000000002,8026,WL,B,7.0
1,47.78399991989136,learn,12216.000080108643,Mon Feb 03 2025 14:24:59 GMT-0600 (Central Standard Time),193176.7000000002,A,do,I,o,1997,1,8081.0,185095.7000000002,8026,WL,B,7.0
1,48.50099992752075,learn,11499.000072479248,Mon Feb 03 2025 14:24:59 GMT-0600 (Central Standard Time),193892.7999999998,A,d,I,backspace,696,1,8797.099999999627,185095.7000000002,8026,WL,B,7.0
1,48.76699995994568,learn,11233.000040054321,Mon Feb 03 2025 14:24:59 GMT-0600 (Central Standard Time),194159.59999999963,A,di,I,i,244,1,9063.899999999441,185095.7000000002,8026,WL,B,7.0
1,49.41700005531311,learn,10582.99994468689,Mon Feb 03 2025 14:24:59 GMT-0600 (Central Standard Time),194809.2999999998,A,dir,I,r,641,1,9713.599999999627,185095.7000000002,8026,WL,B,7.0
1,49.66700005531311,learn,10332.99994468689,Mon Feb 03 2025 14:24:59 GMT-0600 (Central Standard Time),195059.2000000002,A,dirt,I,t,240,1,9963.5,185095.7000000002,8026,WL,B,7.0
1,49.84999990463257,learn,10150.000095367432,Mon Feb 03 2025 14:24:59 GMT-0600 (Central Standard Time),195242.39999999944,A,dirtenter,I,enter,173,1,10146.699999999255,185095.7000000002,8026,WL,B,7.0
1,59.71399998664856,learn,286.00001335144043,Mon Feb 03 2025 14:24:59 GMT-0600 (Central Standard Time),205105.89999999944,A,enter,I,enter,9853,1,9863.0,195242.89999999944,8026,WL,B,8.0
1,60.013999938964844,learn,-13.99993896484375,Mon Feb 03 2025 14:24:59 GMT-0600 (Central Standard Time),205406.09999999963,A,None,I,None,292,1,299.79999999981374,205106.2999999998,8026,WL,B,9.0
2,1.3829998970031738,learn,58617.000102996826,Mon Feb 03 2025 14:24:59 GMT-0600 (Central Standard Time),282282.2999999998,A,s,I,s,1366,1,1382.7999999998137,280899.5,8026,WL,B,1.0
2,1.6489999294281006,learn,58351.0000705719,Mon Feb 03 2025 14:24:59 GMT-0600 (Central Standard Time),282548.7000000002,A,st,I,t,246,1,1649.2000000001863,280899.5,8026,WL,B,1.0
2,1.931999921798706,learn,58068.000078201294,Mon Feb 03 2025 14:24:59 GMT-0600 (Central Standard Time),282831.7999999998,A,str,I,r,260,1,1932.2999999998137,280899.5,8026,WL,B,1.0
2,2.1659998893737793,learn,57834.00011062622,Mon Feb 03 2025 14:24:59 GMT-0600 (Central Standard Time),283065.2000000002,A,stre,I,e,225,1,2165.7000000001863,280899.5,8026,WL,B,1.0
2,2.3489999771118164,learn,57651.00002288818,Mon Feb 03 2025 14:24:59 GMT-0600 (Central Standard Time),283248.7000000002,A,stree,I,e,167,1,2349.2000000001863,280899.5,8026,WL,B,1.0
2,2.615999937057495,learn,57384.000062942505,Mon Feb 03 2025 14:24:59 GMT-0600 (Central Standard Time),283515.2000000002,A,street,I,t,248,1,2615.7000000001863,280899.5,8026,WL,B,1.0
2,3.4489998817443848,learn,56551.000118255615,Mon Feb 03 2025 14:24:59 GMT-0600 (Central Standard Time),284348.2000000002,A,streetenter,I,enter,821,1,3448.7000000001863,280899.5,8026,WL,B,1.0
2,4.73199987411499,learn,55268.00012588501,Mon Feb 03 2025 14:24:59 GMT-0600 (Central Standard Time),285631.0999999996,A,g,I,g,1269,1,1282.5999999996275,284348.5,8026,WL,B,2.0
2,4.9649999141693115,learn,55035.00008583069,Mon Feb 03 2025 14:24:59 GMT-0600 (Central Standard Time),285864.2999999998,A,gr,I,r,209,1,1515.7999999998137,284348.5,8026,WL,B,2.0
2,5.164999961853027,learn,54835.00003814697,Mon Feb 03 2025 14:24:59 GMT-0600 (Central Standard Time),286064.0999999996,A,gra,I,a,184,1,1715.5999999996275,284348.5,8026,WL,B,2.0
2,5.430999994277954,learn,54569.000005722046,Mon Feb 03 2025 14:24:59 GMT-0600 (Central Standard Time),286330.89999999944,A,gras,I,s,247,1,1982.3999999994412,284348.5,8026,WL,B,2.0
2,5.5980000495910645,learn,54401.999950408936,Mon Feb 03 2025 14:24:59 GMT-0600 (Central Standard Time),286497.39999999944,A,grass,I,s,159,1,2148.899999999441,284348.5,8026,WL,B,2.0
2,6.3480000495910645,learn,53651.999950408936,Mon Feb 03 2025 14:24:59 GMT-0600 (Central Standard Time),287247.39999999944,A,grassenter,I,enter,735,1,2898.899999999441,284348.5,8026,WL,B,2.0
2,7.596999883651733,learn,52403.00011634827,Mon Feb 03 2025 14:24:59 GMT-0600 (Central Standard Time),288496.5,A,w,I,w,1233,1,1248.7999999998137,287247.7000000002,8026,WL,B,3.0
2,7.813999891281128,learn,52186.00010871887,Mon Feb 03 2025 14:24:59 GMT-0600 (Central Standard Time),288713.0999999996,A,wi,I,i,209,1,1465.3999999994412,287247.7000000002,8026,WL,B,3.0
2,8.02999997138977,learn,51970.00002861023,Mon Feb 03 2025 14:24:59 GMT-0600 (Central Standard Time),288929.7000000002,A,win,I,n,209,1,1682.0,287247.7000000002,8026,WL,B,3.0
2,8.230999946594238,learn,51769.00005340576,Mon Feb 03 2025 14:24:59 GMT-0600 (Central Standard Time),289130.0999999996,A,wind,I,d,191,1,1882.3999999994412,287247.7000000002,8026,WL,B,3.0
2,8.580999851226807,learn,51419.00014877319,Mon Feb 03 2025 14:24:59 GMT-0600 (Central Standard Time),289479.89999999944,A,windo,I,o,335,1,2232.199999999255,287247.7000000002,8026,WL,B,3.0
2,8.71399998664856,learn,51286.00001335144,Mon Feb 03 2025 14:24:59 GMT-0600 (Central Standard Time),289613.2000000002,A,window,I,w,112,1,2365.5,287247.7000000002,8026,WL,B,3.0
2,9.164000034332275,learn,50835.999965667725,Mon Feb 03 2025 14:24:59 GMT-0600 (Central Standard Time),290063.0999999996,A,windowenter,I,enter,435,1,2815.399999999441,287247.7000000002,8026,WL,B,3.0
2,9.646999835968018,learn,50353.00016403198,Mon Feb 03 2025 14:24:59 GMT-0600 (Central Standard Time),290546.39999999944,A,a,I,a,466,1,483.0,290063.39999999944,8026,WL,B,4.0
2,9.863999843597412,learn,50136.00015640259,Mon Feb 03 2025 14:24:59 GMT-0600 (Central Standard Time),290763.0,A,ar,I,r,198,1,699.6000000005588,290063.39999999944,8026,WL,B,4.0
2,10.214999914169312,learn,49785.00008583069,Mon Feb 03 2025 14:24:59 GMT-0600 (Central Standard Time),291113.89999999944,A,arm,I,m,334,1,1050.5,290063.39999999944,8026,WL,B,4.0
2,10.879999876022339,learn,49120.00012397766,Mon Feb 03 2025 14:24:59 GMT-0600 (Central Standard Time),291779.2999999998,A,armenter,I,enter,646,1,1715.9000000003725,290063.39999999944,8026,WL,B,4.0
2,11.713000059127808,learn,48286.99994087219,Mon Feb 03 2025 14:24:59 GMT-0600 (Central Standard Time),292612.0,A,d,I,d,821,1,832.2999999998137,291779.7000000002,8026,WL,B,5.0
2,11.963000059127808,learn,48036.99994087219,Mon Feb 03 2025 14:24:59 GMT-0600 (Central Standard Time),292862.2000000002,A,do,I,o,236,1,1082.5,291779.7000000002,8026,WL,B,5.0
2,12.095999956130981,learn,47904.00004386902,Mon Feb 03 2025 14:24:59 GMT-0600 (Central Standard Time),292995.5,A,doo,I,o,116,1,1215.7999999998137,291779.7000000002,8026,WL,B,5.0
2,12.296000003814697,learn,47703.9999961853,Mon Feb 03 2025 14:24:59 GMT-0600 (Central Standard Time),293195.2000000002,A,door,I,r,181,1,1415.5,291779.7000000002,8026,WL,B,5.0
2,12.763000011444092,learn,47236.99998855591,Mon Feb 03 2025 14:24:59 GMT-0600 (Central Standard Time),293662.0,A,doorenter,I,enter,446,1,1882.2999999998137,291779.7000000002,8026,WL,B,5.0
2,13.19599986076355,learn,46804.00013923645,Mon Feb 03 2025 14:24:59 GMT-0600 (Central Standard Time),294095.2999999998,A,s,I,s,411,1,433.0,293662.2999999998,8026,WL,B,6.0
2,13.478999853134155,learn,46521.000146865845,Mon Feb 03 2025 14:24:59 GMT-0600 (Central Standard Time),294378.2999999998,A,st,I,t,265,1,716.0,293662.2999999998,8026,WL,B,6.0
2,13.779000043869019,learn,46220.99995613098,Mon Feb 03 2025 14:24:59 GMT-0600 (Central Standard Time),294678.5,A,sta,I,a,278,1,1016.2000000001863,293662.2999999998,8026,WL,B,6.0
2,13.961999893188477,learn,46038.00010681152,Mon Feb 03 2025 14:24:59 GMT-0600 (Central Standard Time),294861.39999999944,A,star,I,r,171,1,1199.0999999996275,293662.2999999998,8026,WL,B,6.0
2,14.444999933242798,learn,45555.0000667572,Mon Feb 03 2025 14:24:59 GMT-0600 (Central Standard Time),295344.89999999944,A,starenter,I,enter,468,1,1682.5999999996275,293662.2999999998,8026,WL,B,6.0
2,15.611999988555908,learn,44388.00001144409,Mon Feb 03 2025 14:24:59 GMT-0600 (Central Standard Time),296511.0999999996,A,w,I,w,1152,1,1165.8999999994412,295345.2000000002,8026,WL,B,7.0
2,16.35599994659424,learn,43644.00005340576,Mon Feb 03 2025 14:24:59 GMT-0600 (Central Standard Time),297255.2000000002,A,wi,I,i,736,1,1910.0,295345.2000000002,8026,WL,B,7.0
2,16.66100001335144,learn,43338.99998664856,Mon Feb 03 2025 14:24:59 GMT-0600 (Central Standard Time),297560.7999999998,A,wif,I,f,294,1,2215.5999999996275,295345.2000000002,8026,WL,B,7.0
2,16.977999925613403,learn,43022.0000743866,Mon Feb 03 2025 14:24:59 GMT-0600 (Central Standard Time),297877.39999999944,A,wife,I,e,304,1,2532.199999999255,295345.2000000002,8026,WL,B,7.0
2,17.644999980926514,learn,42355.000019073486,Mon Feb 03 2025 14:24:59 GMT-0600 (Central Standard Time),298544.0,A,wifeenter,I,enter,651,1,3198.7999999998137,295345.2000000002,8026,WL,B,7.0
2,18.24399995803833,learn,41756.00004196167,Mon Feb 03 2025 14:24:59 GMT-0600 (Central Standard Time),299143.5,A,s,I,s,584,1,599.1000000005588,298544.39999999944,8026,WL,B,8.0
2,18.47699999809265,learn,41523.00000190735,Mon Feb 03 2025 14:24:59 GMT-0600 (Central Standard Time),299376.89999999944,A,sk,I,k,219,1,832.5,298544.39999999944,8026,WL,B,8.0
2,18.76099991798401,learn,41239.00008201599,Mon Feb 03 2025 14:24:59 GMT-0600 (Central Standard Time),299660.0999999996,A,ski,I,i,272,1,1115.7000000001863,298544.39999999944,8026,WL,B,8.0
2,19.111000061035156,learn,40888.999938964844,Mon Feb 03 2025 14:24:59 GMT-0600 (Central Standard Time),300010.0,A,skin,I,n,340,1,1465.6000000005588,298544.39999999944,8026,WL,B,8.0
2,19.89199995994568,learn,40108.00004005432,Mon Feb 03 2025 14:24:59 GMT-0600 (Central Standard Time),300793.0,A,skinenter,I,enter,775,1,2248.600000000559,298544.39999999944,8026,WL,B,8.0
2,23.325000047683716,learn,36674.999952316284,Mon Feb 03 2025 14:24:59 GMT-0600 (Central Standard Time),304225.2000000002,A,c,I,c,3424,1,3431.800000000745,300793.39999999944,8026,WL,B,9.0
2,23.507999897003174,learn,36492.000102996826,Mon Feb 03 2025 14:24:59 GMT-0600 (Central Standard Time),304408.5999999996,A,ca,I,a,167,1,3615.2000000001863,300793.39999999944,8026,WL,B,9.0
2,23.807999849319458,learn,36192.00015068054,Mon Feb 03 2025 14:24:59 GMT-0600 (Central Standard Time),304708.5,A,cab,I,b,280,1,3915.100000000559,300793.39999999944,8026,WL,B,9.0
2,24.12399983406067,learn,35876.00016593933,Mon Feb 03 2025 14:24:59 GMT-0600 (Central Standard Time),305025.0999999996,A,cabi,I,i,301,1,4231.700000000186,300793.39999999944,8026,WL,B,9.0
2,24.323999881744385,learn,35676.000118255615,Mon Feb 03 2025 14:24:59 GMT-0600 (Central Standard Time),305225.0,A,cabin,I,n,177,1,4431.600000000559,300793.39999999944,8026,WL,B,9.0
2,24.70799994468689,learn,35292.00005531311,Mon Feb 03 2025 14:24:59 GMT-0600 (Central Standard Time),305608.39999999944,A,cabinenter,I,enter,360,1,4815.0,300793.39999999944,8026,WL,B,9.0
2,25.256999969482422,learn,34743.00003051758,Mon Feb 03 2025 14:24:59 GMT-0600 (Central Standard Time),306158.0,A,p,I,p,537,1,549.2999999998137,305608.7000000002,8026,WL,B,10.0
2,25.539999961853027,learn,34460.00003814697,Mon Feb 03 2025 14:24:59 GMT-0600 (Central Standard Time),306441.0999999996,A,pu,I,u,275,1,832.3999999994412,305608.7000000002,8026,WL,B,10.0
2,26.35699987411499,learn,33643.00012588501,Mon Feb 03 2025 14:24:59 GMT-0600 (Central Standard Time),307257.89999999944,A,pup,I,p,800,1,1649.199999999255,305608.7000000002,8026,WL,B,10.0
2,26.60699987411499,learn,33393.00012588501,Mon Feb 03 2025 14:24:59 GMT-0600 (Central Standard Time),307507.7999999998,A,pupi,I,i,231,1,1899.0999999996275,305608.7000000002,8026,WL,B,10.0
2,27.006999969482422,learn,32993.00003051758,Mon Feb 03 2025 14:24:59 GMT-0600 (Central Standard Time),307907.5,A,pupil,I,l,382,1,2298.7999999998137,305608.7000000002,8026,WL,B,10.0
2,27.639999866485596,learn,32360.000133514404,Mon Feb 03 2025 14:24:59 GMT-0600 (Central Standard Time),308540.7000000002,A,pupilenter,I,enter,622,1,2932.0,305608.7000000002,8026,WL,B,10.0
2,29.039999961853027,learn,30960.000038146973,Mon Feb 03 2025 14:24:59 GMT-0600 (Central Standard Time),309940.2999999998,A,f,I,f,1381,1,1399.2000000001863,308541.0999999996,8026,WL,B,11.0
2,29.238999843597412,learn,30761.000156402588,Mon Feb 03 2025 14:24:59 GMT-0600 (Central Standard Time),310140.0999999996,A,fi,I,i,189,1,1599.0,308541.0999999996,8026,WL,B,11.0
2,29.405999898910522,learn,30594.000101089478,Mon Feb 03 2025 14:24:59 GMT-0600 (Central Standard Time),310306.7000000002,A,fir,I,r,149,1,1765.6000000005588,308541.0999999996,8026,WL,B,11.0
2,29.6729998588562,learn,30327.0001411438,Mon Feb 03 2025 14:24:59 GMT-0600 (Central Standard Time),310573.39999999944,A,fire,I,e,255,1,2032.2999999998137,308541.0999999996,8026,WL,B,11.0
2,30.17199993133545,learn,29828.00006866455,Mon Feb 03 2025 14:24:59 GMT-0600 (Central Standard Time),311073.0999999996,A,fireenter,I,enter,492,1,2532.0,308541.0999999996,8026,WL,B,11.0
2,32.039000034332275,learn,27960.999965667725,Mon Feb 03 2025 14:24:59 GMT-0600 (Central Standard Time),312939.2999999998,A,c,I,c,1856,1,1866.0,311073.2999999998,8026,WL,B,12.0
2,32.22199988365173,learn,27778.000116348267,Mon Feb 03 2025 14:24:59 GMT-0600 (Central Standard Time),313122.39999999944,A,ci,I,i,173,1,2049.0999999996275,311073.2999999998,8026,WL,B,12.0
2,32.47199988365173,learn,27528.000116348267,Mon Feb 03 2025 14:24:59 GMT-0600 (Central Standard Time),313372.39999999944,A,cit,I,t,238,1,2299.0999999996275,311073.2999999998,8026,WL,B,12.0
2,32.98799991607666,learn,27012.00008392334,Mon Feb 03 2025 14:24:59 GMT-0600 (Central Standard Time),313888.7999999998,A,city,I,y,509,1,2815.5,311073.2999999998,8026,WL,B,12.0
2,33.48799991607666,learn,26512.00008392334,Mon Feb 03 2025 14:24:59 GMT-0600 (Central Standard Time),314388.89999999944,A,cityenter,I,enter,480,1,3315.5999999996275,311073.2999999998,8026,WL,B,12.0
2,40.503000020980835,learn,19496.999979019165,Mon Feb 03 2025 14:24:59 GMT-0600 (Central Standard Time),321403.39999999944,A,a,I,a,7005,1,7014.199999999255,314389.2000000002,8026,WL,B,13.0
2,40.68599987030029,learn,19314.000129699707,Mon Feb 03 2025 14:24:59 GMT-0600 (Central Standard Time),321586.5,A,ar,I,r,172,1,7197.299999999814,314389.2000000002,8026,WL,B,13.0
2,41.501999855041504,learn,18498.000144958496,Mon Feb 03 2025 14:24:59 GMT-0600 (Central Standard Time),322403.0,A,a,I,backspace,798,1,8013.799999999814,314389.2000000002,8026,WL,B,13.0
2,41.7189998626709,learn,18281.0001373291,Mon Feb 03 2025 14:24:59 GMT-0600 (Central Standard Time),322619.5,A,,I,backspace,199,1,8230.299999999814,314389.2000000002,8026,WL,B,13.0
2,44.28499984741211,learn,15715.00015258789,Mon Feb 03 2025 14:24:59 GMT-0600 (Central Standard Time),325185.2000000002,A,c,I,c,2558,1,10796.0,314389.2000000002,8026,WL,B,13.0
2,44.51799988746643,learn,15482.00011253357,Mon Feb 03 2025 14:24:59 GMT-0600 (Central Standard Time),325418.89999999944,A,cl,I,l,225,1,11029.699999999255,314389.2000000002,8026,WL,B,13.0
2,44.75099992752075,learn,15249.000072479248,Mon Feb 03 2025 14:24:59 GMT-0600 (Central Standard Time),325651.89999999944,A,clo,I,o,214,1,11262.699999999255,314389.2000000002,8026,WL,B,13.0
2,44.884000062942505,learn,15115.999937057495,Mon Feb 03 2025 14:24:59 GMT-0600 (Central Standard Time),325785.0999999996,A,cloc,I,c,125,1,11395.899999999441,314389.2000000002,8026,WL,B,13.0
2,45.21799993515015,learn,14782.000064849854,Mon Feb 03 2025 14:24:59 GMT-0600 (Central Standard Time),326118.89999999944,A,clock,I,k,312,1,11729.699999999255,314389.2000000002,8026,WL,B,13.0
2,45.51799988746643,learn,14482.00011253357,Mon Feb 03 2025 14:24:59 GMT-0600 (Central Standard Time),326418.7999999998,A,clockenter,I,enter,282,1,12029.599999999627,314389.2000000002,8026,WL,B,13.0
2,59.562999963760376,learn,437.000036239624,Mon Feb 03 2025 14:24:59 GMT-0600 (Central Standard Time),340464.0999999996,A,p,I,p,14022,1,14045.099999999627,326419.0,8026,WL,B,14.0
2,60.01300001144409,learn,-13.000011444091797,Mon Feb 03 2025 14:24:59 GMT-0600 (Central Standard Time),340914.0,A,pNone,I,None,442,1,14495.0,326419.0,8026,WL,B,14.0
3,0.8169999122619629,learn,59183.00008773804,Mon Feb 03 2025 14:24:59 GMT-0600 (Central Standard Time),410708.5999999996,A,s,I,s,805,1,816.2999999998137,409892.2999999998,8026,WL,B,1.0
3,1.0179998874664307,learn,58982.00011253357,Mon Feb 03 2025 14:24:59 GMT-0600 (Central Standard Time),410909.7000000002,A,st,I,t,179,1,1017.4000000003725,409892.2999999998,8026,WL,B,1.0
3,1.2829999923706055,learn,58717.000007629395,Mon Feb 03 2025 14:24:59 GMT-0600 (Central Standard Time),411175.0,A,str,I,r,251,1,1282.7000000001863,409892.2999999998,8026,WL,B,1.0
3,1.5829999446868896,learn,58417.00005531311,Mon Feb 03 2025 14:24:59 GMT-0600 (Central Standard Time),411475.2000000002,A,stre,I,e,282,1,1582.9000000003725,409892.2999999998,8026,WL,B,1.0
3,1.7330000400543213,learn,58266.99995994568,Mon Feb 03 2025 14:24:59 GMT-0600 (Central Standard Time),411625.2000000002,A,stree,I,e,133,1,1732.9000000003725,409892.2999999998,8026,WL,B,1.0
3,2.0,learn,58000.0,Mon Feb 03 2025 14:24:59 GMT-0600 (Central Standard Time),411891.7000000002,A,street,I,t,256,1,1999.4000000003725,409892.2999999998,8026,WL,B,1.0
3,2.7159998416900635,learn,57284.00015830994,Mon Feb 03 2025 14:24:59 GMT-0600 (Central Standard Time),412608.0,A,streetenter,I,enter,701,1,2715.7000000001863,409892.2999999998,8026,WL,B,1.0
3,3.748999834060669,learn,56251.00016593933,Mon Feb 03 2025 14:24:59 GMT-0600 (Central Standard Time),413641.0999999996,A,g,I,g,1017,1,1032.7000000001863,412608.39999999944,8026,WL,B,2.0
3,3.9670000076293945,learn,56032.999992370605,Mon Feb 03 2025 14:24:59 GMT-0600 (Central Standard Time),413858.7999999998,A,gr,I,r,207,1,1250.4000000003725,412608.39999999944,8026,WL,B,2.0
3,4.148999929428101,learn,55851.0000705719,Mon Feb 03 2025 14:24:59 GMT-0600 (Central Standard Time),414041.0,A,gra,I,a,174,1,1432.6000000005588,412608.39999999944,8026,WL,B,2.0
3,4.448999881744385,learn,55551.000118255615,Mon Feb 03 2025 14:24:59 GMT-0600 (Central Standard Time),414340.7999999998,A,gras,I,s,289,1,1732.4000000003725,412608.39999999944,8026,WL,B,2.0
3,4.631999969482422,learn,55368.00003051758,Mon Feb 03 2025 14:24:59 GMT-0600 (Central Standard Time),414524.0999999996,A,grass,I,s,164,1,1915.7000000001863,412608.39999999944,8026,WL,B,2.0
3,5.059000015258789,learn,54940.99998474121,Mon Feb 03 2025 14:24:59 GMT-0600 (Central Standard Time),414951.0999999996,A,grassenter,I,enter,420,1,2342.7000000001863,412608.39999999944,8026,WL,B,2.0
3,5.398999929428101,learn,54601.0000705719,Mon Feb 03 2025 14:24:59 GMT-0600 (Central Standard Time),415290.39999999944,A,d,I,d,328,1,339.0,414951.39999999944,8026,WL,B,3.0
3,5.648999929428101,learn,54351.0000705719,Mon Feb 03 2025 14:24:59 GMT-0600 (Central Standard Time),415540.5999999996,A,do,I,o,230,1,589.2000000001863,414951.39999999944,8026,WL,B,3.0
3,5.797999858856201,learn,54202.0001411438,Mon Feb 03 2025 14:24:59 GMT-0600 (Central Standard Time),415690.2999999998,A,doo,I,o,133,1,738.9000000003725,414951.39999999944,8026,WL,B,3.0
3,6.014999866485596,learn,53985.000133514404,Mon Feb 03 2025 14:24:59 GMT-0600 (Central Standard Time),415907.0,A,door,I,r,198,1,955.6000000005588,414951.39999999944,8026,WL,B,3.0
3,6.582000017166138,learn,53417.99998283386,Mon Feb 03 2025 14:24:59 GMT-0600 (Central Standard Time),416473.5999999996,A,doorenter,I,enter,550,1,1522.2000000001863,414951.39999999944,8026,WL,B,3.0
3,6.997999906539917,learn,53002.00009346008,Mon Feb 03 2025 14:24:59 GMT-0600 (Central Standard Time),416890.0,A,a,I,a,401,1,416.0,416474.0,8026,WL,B,4.0
3,7.2809998989105225,learn,52719.00010108948,Mon Feb 03 2025 14:24:59 GMT-0600 (Central Standard Time),417172.89999999944,A,ar,I,r,271,1,698.8999999994412,416474.0,8026,WL,B,4.0
3,7.7149999141693115,learn,52285.00008583069,Mon Feb 03 2025 14:24:59 GMT-0600 (Central Standard Time),417606.5999999996,A,arm,I,m,421,1,1132.5999999996275,416474.0,8026,WL,B,4.0
3,8.263999938964844,learn,51736.000061035156,Mon Feb 03 2025 14:24:59 GMT-0600 (Central Standard Time),418156.2000000002,A,armenter,I,enter,538,1,1682.2000000001863,416474.0,8026,WL,B,4.0
3,8.780999898910522,learn,51219.00010108948,Mon Feb 03 2025 14:24:59 GMT-0600 (Central Standard Time),418672.7999999998,A,w,I,w,509,1,516.2000000001863,418156.5999999996,8026,WL,B,5.0
3,8.94700002670288,learn,51052.99997329712,Mon Feb 03 2025 14:24:59 GMT-0600 (Central Standard Time),418839.39999999944,A,wi,I,i,144,1,682.7999999998137,418156.5999999996,8026,WL,B,5.0
3,9.13100004196167,learn,50868.99995803833,Mon Feb 03 2025 14:24:59 GMT-0600 (Central Standard Time),419022.5999999996,A,win,I,n,169,1,866.0,418156.5999999996,8026,WL,B,5.0
3,9.348000049591064,learn,50651.999950408936,Mon Feb 03 2025 14:24:59 GMT-0600 (Central Standard Time),419239.5,A,wind,I,d,195,1,1082.9000000003725,418156.5999999996,8026,WL,B,5.0
3,9.613999843597412,learn,50386.00015640259,Mon Feb 03 2025 14:24:59 GMT-0600 (Central Standard Time),419505.89999999944,A,windo,I,o,251,1,1349.2999999998137,418156.5999999996,8026,WL,B,5.0
3,9.813999891281128,learn,50186.00010871887,Mon Feb 03 2025 14:24:59 GMT-0600 (Central Standard Time),419705.5999999996,A,window,I,w,190,1,1549.0,418156.5999999996,8026,WL,B,5.0
3,10.713000059127808,learn,49286.99994087219,Mon Feb 03 2025 14:24:59 GMT-0600 (Central Standard Time),420605.7000000002,A,windowenter,I,enter,888,1,2449.100000000559,418156.5999999996,8026,WL,B,5.0
3,11.279000043869019,learn,48720.99995613098,Mon Feb 03 2025 14:24:59 GMT-0600 (Central Standard Time),421172.0999999996,A,w,I,w,556,1,566.0,420606.0999999996,8026,WL,B,6.0
3,11.461999893188477,learn,48538.00010681152,Mon Feb 03 2025 14:24:59 GMT-0600 (Central Standard Time),421355.39999999944,A,wi,I,i,174,1,749.2999999998137,420606.0999999996,8026,WL,B,6.0
3,12.211999893188477,learn,47788.00010681152,Mon Feb 03 2025 14:24:59 GMT-0600 (Central Standard Time),422105.0,A,wif,I,f,741,1,1498.9000000003725,420606.0999999996,8026,WL,B,6.0
3,12.611999988555908,learn,47388.00001144409,Mon Feb 03 2025 14:24:59 GMT-0600 (Central Standard Time),422504.89999999944,A,wife,I,e,392,1,1898.7999999998137,420606.0999999996,8026,WL,B,6.0
3,13.84500002861023,learn,46154.99997138977,Mon Feb 03 2025 14:24:59 GMT-0600 (Central Standard Time),423737.7999999998,A,wifeenter,I,enter,1216,1,3131.7000000001863,420606.0999999996,8026,WL,B,6.0
3,15.043999910354614,learn,44956.000089645386,Mon Feb 03 2025 14:24:59 GMT-0600 (Central Standard Time),424937.39999999944,A,s,I,s,1192,1,1199.3999999994412,423738.0,8026,WL,B,7.0
3,15.260999917984009,learn,44739.00008201599,Mon Feb 03 2025 14:24:59 GMT-0600 (Central Standard Time),425154.2999999998,A,st,I,t,207,1,1416.2999999998137,423738.0,8026,WL,B,7.0
3,15.57699990272522,learn,44423.00009727478,Mon Feb 03 2025 14:24:59 GMT-0600 (Central Standard Time),425470.5999999996,A,sta,I,a,294,1,1732.5999999996275,423738.0,8026,WL,B,7.0
3,15.793999910354614,learn,44206.000089645386,Mon Feb 03 2025 14:24:59 GMT-0600 (Central Standard Time),425687.5,A,star,I,r,202,1,1949.5,423738.0,8026,WL,B,7.0
3,16.810999870300293,learn,43189.00012969971,Mon Feb 03 2025 14:24:59 GMT-0600 (Central Standard Time),426703.5999999996,A,starenter,I,enter,993,1,2965.5999999996275,423738.0,8026,WL,B,7.0
3,17.859999895095825,learn,42140.000104904175,Mon Feb 03 2025 14:24:59 GMT-0600 (Central Standard Time),427753.2000000002,A,c,I,c,1041,1,1049.2000000001863,426704.0,8026,WL,B,8.0
3,18.009999990463257,learn,41990.00000953674,Mon Feb 03 2025 14:24:59 GMT-0600 (Central Standard Time),427903.39999999944,A,ci,I,i,136,1,1199.3999999994412,426704.0,8026,WL,B,8.0
3,18.210000038146973,learn,41789.99996185303,Mon Feb 03 2025 14:24:59 GMT-0600 (Central Standard Time),428103.39999999944,A,cit,I,t,186,1,1399.3999999994412,426704.0,8026,WL,B,8.0
3,18.49399995803833,learn,41506.00004196167,Mon Feb 03 2025 14:24:59 GMT-0600 (Central Standard Time),428386.7000000002,A,city,I,y,265,1,1682.7000000001863,426704.0,8026,WL,B,8.0
3,19.39299988746643,learn,40607.00011253357,Mon Feb 03 2025 14:24:59 GMT-0600 (Central Standard Time),429286.0999999996,A,cityenter,I,enter,878,1,2582.0999999996275,426704.0,8026,WL,B,8.0
3,22.70899987220764,learn,37291.00012779236,Mon Feb 03 2025 14:24:59 GMT-0600 (Central Standard Time),432601.7000000002,A,p,I,p,3307,1,3315.2000000001863,429286.5,8026,WL,B,9.0
3,22.95899987220764,learn,37041.00012779236,Mon Feb 03 2025 14:24:59 GMT-0600 (Central Standard Time),432851.5999999996,A,pu,I,u,231,1,3565.0999999996275,429286.5,8026,WL,B,9.0
3,23.54200005531311,learn,36457.99994468689,Mon Feb 03 2025 14:24:59 GMT-0600 (Central Standard Time),433434.89999999944,A,pup,I,p,565,1,4148.399999999441,429286.5,8026,WL,B,9.0
3,23.80900001525879,learn,36190.99998474121,Mon Feb 03 2025 14:24:59 GMT-0600 (Central Standard Time),433701.5999999996,A,pupi,I,i,254,1,4415.0999999996275,429286.5,8026,WL,B,9.0
3,24.807999849319458,learn,35192.00015068054,Mon Feb 03 2025 14:24:59 GMT-0600 (Central Standard Time),434701.2000000002,A,pupik,I,k,987,1,5414.700000000186,429286.5,8026,WL,B,9.0
3,25.407999992370605,learn,34592.000007629395,Mon Feb 03 2025 14:24:59 GMT-0600 (Central Standard Time),435300.89999999944,A,pupi,I,backspace,579,1,6014.399999999441,429286.5,8026,WL,B,9.0
3,25.69099998474121,learn,34309.00001525879,Mon Feb 03 2025 14:24:59 GMT-0600 (Central Standard Time),435584.2999999998,A,pupil,I,l,267,1,6297.799999999814,429286.5,8026,WL,B,9.0
3,26.007999897003174,learn,33992.000102996826,Mon Feb 03 2025 14:24:59 GMT-0600 (Central Standard Time),435900.5999999996,A,pupilenter,I,enter,306,1,6614.0999999996275,429286.5,8026,WL,B,9.0
3,28.692999839782715,learn,31307.000160217285,Mon Feb 03 2025 14:24:59 GMT-0600 (Central Standard Time),438586.0,A,c,I,c,2660,1,2685.0,435901.0,8026,WL,B,10.0
3,28.924000024795532,learn,31075.999975204468,Mon Feb 03 2025 14:24:59 GMT-0600 (Central Standard Time),438816.7999999998,A,ca,I,a,206,1,2915.7999999998137,435901.0,8026,WL,B,10.0
3,29.240000009536743,learn,30759.999990463257,Mon Feb 03 2025 14:24:59 GMT-0600 (Central Standard Time),439132.89999999944,A,cab,I,b,296,1,3231.899999999441,435901.0,8026,WL,B,10.0
3,29.54099988937378,learn,30459.00011062622,Mon Feb 03 2025 14:24:59 GMT-0600 (Central Standard Time),439434.2999999998,A,cabi,I,i,284,1,3533.2999999998137,435901.0,8026,WL,B,10.0
3,29.740000009536743,learn,30259.999990463257,Mon Feb 03 2025 14:24:59 GMT-0600 (Central Standard Time),439632.89999999944,A,cabin,I,n,190,1,3731.899999999441,435901.0,8026,WL,B,10.0
3,30.240000009536743,learn,29759.999990463257,Mon Feb 03 2025 14:24:59 GMT-0600 (Central Standard Time),440132.7000000002,A,cabinenter,I,enter,481,1,4231.700000000186,435901.0,8026,WL,B,10.0
3,30.75600004196167,learn,29243.99995803833,Mon Feb 03 2025 14:24:59 GMT-0600 (Central Standard Time),440649.0999999996,A,p,I,p,509,1,516.0999999996275,440133.0,8026,WL,B,11.0
3,31.00600004196167,learn,28993.99995803833,Mon Feb 03 2025 14:24:59 GMT-0600 (Central Standard Time),440899.2000000002,A,pi,I,i,233,1,766.2000000001863,440133.0,8026,WL,B,11.0
3,31.322999954223633,learn,28677.000045776367,Mon Feb 03 2025 14:24:59 GMT-0600 (Central Standard Time),441215.7999999998,A,pip,I,p,301,1,1082.7999999998137,440133.0,8026,WL,B,11.0
3,31.572999954223633,learn,28427.000045776367,Mon Feb 03 2025 14:24:59 GMT-0600 (Central Standard Time),441465.7000000002,A,pipe,I,e,234,1,1332.7000000001863,440133.0,8026,WL,B,11.0
3,32.40599989891052,learn,27594.000101089478,Mon Feb 03 2025 14:24:59 GMT-0600 (Central Standard Time),442298.7000000002,A,pipeenter,I,enter,823,1,2165.7000000001863,440133.0,8026,WL,B,11.0
3,32.92199993133545,learn,27078.00006866455,Mon Feb 03 2025 14:24:59 GMT-0600 (Central Standard Time),442815.39999999944,A,l,I,l,502,1,516.2999999998137,442299.0999999996,8026,WL,B,12.0
3,33.05499982833862,learn,26945.000171661377,Mon Feb 03 2025 14:24:59 GMT-0600 (Central Standard Time),442948.5999999996,A,la,I,a,114,1,649.5,442299.0999999996,8026,WL,B,12.0
3,33.638999938964844,learn,26361.000061035156,Mon Feb 03 2025 14:24:59 GMT-0600 (Central Standard Time),443531.7999999998,A,lak,I,k,572,1,1232.7000000001863,442299.0999999996,8026,WL,B,12.0
3,33.77199983596802,learn,26228.000164031982,Mon Feb 03 2025 14:24:59 GMT-0600 (Central Standard Time),443664.89999999944,A,lake,I,e,125,1,1365.7999999998137,442299.0999999996,8026,WL,B,12.0
3,34.17199993133545,learn,25828.00006866455,Mon Feb 03 2025 14:24:59 GMT-0600 (Central Standard Time),444064.7999999998,A,lakeenter,I,enter,376,1,1765.7000000001863,442299.0999999996,8026,WL,B,12.0
3,35.15499997138977,learn,24845.00002861023,Mon Feb 03 2025 14:24:59 GMT-0600 (Central Standard Time),445048.0999999996,A,a,I,a,961,1,983.0,444065.0999999996,8026,WL,B,13.0
3,35.355000019073486,learn,24644.999980926514,Mon Feb 03 2025 14:24:59 GMT-0600 (Central Standard Time),445248.0,A,ar,I,r,177,1,1182.9000000003725,444065.0999999996,8026,WL,B,13.0
3,35.605000019073486,learn,24394.999980926514,Mon Feb 03 2025 14:24:59 GMT-0600 (Central Standard Time),445497.7999999998,A,arm,I,m,241,1,1432.7000000001863,444065.0999999996,8026,WL,B,13.0
3,37.23799991607666,learn,22762.00008392334,Mon Feb 03 2025 14:24:59 GMT-0600 (Central Standard Time),447130.5999999996,A,armenter,I,enter,1623,1,3065.5,444065.0999999996,8026,WL,B,13.0
3,37.80399990081787,learn,22196.00009918213,Mon Feb 03 2025 14:24:59 GMT-0600 (Central Standard Time),447696.7999999998,A,a,I,a,550,1,565.7999999998137,447131.0,8026,WL,B,14.0
3,39.72000002861023,learn,20279.99997138977,Mon Feb 03 2025 14:24:59 GMT-0600 (Central Standard Time),449613.0999999996,A,,I,backspace,1896,1,2482.0999999996275,447131.0,8026,WL,B,14.0
3,40.8199999332428,learn,19180.000066757202,Mon Feb 03 2025 14:24:59 GMT-0600 (Central Standard Time),450712.7999999998,A,f,I,f,1077,1,3581.7999999998137,447131.0,8026,WL,B,14.0
3,41.019999980926514,learn,18980.000019073486,Mon Feb 03 2025 14:24:59 GMT-0600 (Central Standard Time),450912.7999999998,A,fi,I,i,192,1,3781.7999999998137,447131.0,8026,WL,B,14.0
3,41.13599991798401,learn,18864.00008201599,Mon Feb 03 2025 14:24:59 GMT-0600 (Central Standard Time),451029.5,A,fir,I,r,105,1,3898.5,447131.0,8026,WL,B,14.0
3,41.335999965667725,learn,18664.000034332275,Mon Feb 03 2025 14:24:59 GMT-0600 (Central Standard Time),451229.2999999998,A,fire,I,e,179,1,4098.299999999814,447131.0,8026,WL,B,14.0
3,41.6029999256134,learn,18397.000074386597,Mon Feb 03 2025 14:24:59 GMT-0600 (Central Standard Time),451496.0999999996,A,fireenter,I,enter,243,1,4365.0999999996275,447131.0,8026,WL,B,14.0
3,42.30200004577637,learn,17697.999954223633,Mon Feb 03 2025 14:24:59 GMT-0600 (Central Standard Time),452195.5999999996,A,s,I,s,689,1,699.2000000001863,451496.39999999944,8026,WL,B,15.0
3,42.68599987030029,learn,17314.000129699707,Mon Feb 03 2025 14:24:59 GMT-0600 (Central Standard Time),452578.89999999944,A,sk,I,k,365,1,1082.5,451496.39999999944,8026,WL,B,15.0
3,42.93599987030029,learn,17064.000129699707,Mon Feb 03 2025 14:24:59 GMT-0600 (Central Standard Time),452828.89999999944,A,ski,I,i,231,1,1332.5,451496.39999999944,8026,WL,B,15.0
3,43.13599991798401,learn,16864.00008201599,Mon Feb 03 2025 14:24:59 GMT-0600 (Central Standard Time),453029.0,A,skin,I,n,181,1,1532.6000000005588,451496.39999999944,8026,WL,B,15.0
3,43.668999910354614,learn,16331.000089645386,Mon Feb 03 2025 14:24:59 GMT-0600 (Central Standard Time),453562.0,A,skinenter,I,enter,515,1,2065.600000000559,451496.39999999944,8026,WL,B,15.0
4,1.1180000305175781,learn,58881.99996948242,Mon Feb 03 2025 14:24:59 GMT-0600 (Central Standard Time),522674.7999999998,A,s,I,s,1108,1,1117.0999999996275,521557.7000000002,8026,WL,B,1.0
4,1.5169999599456787,learn,58483.00004005432,Mon Feb 03 2025 14:24:59 GMT-0600 (Central Standard Time),523073.7999999998,A,st,I,t,381,1,1516.0999999996275,521557.7000000002,8026,WL,B,1.0
4,1.8660001754760742,learn,58133.999824523926,Mon Feb 03 2025 14:24:59 GMT-0600 (Central Standard Time),523423.0999999996,A,ste,I,e,334,1,1865.3999999994412,521557.7000000002,8026,WL,B,1.0
4,2.0500001907348633,learn,57949.99980926514,Mon Feb 03 2025 14:24:59 GMT-0600 (Central Standard Time),523606.7000000002,A,stee,I,e,169,1,2049.0,521557.7000000002,8026,WL,B,1.0
4,2.249000072479248,learn,57750.99992752075,Mon Feb 03 2025 14:24:59 GMT-0600 (Central Standard Time),523806.5,A,steet,I,t,186,1,2248.7999999998137,521557.7000000002,8026,WL,B,1.0
4,3.1660001277923584,learn,56833.99987220764,Mon Feb 03 2025 14:24:59 GMT-0600 (Central Standard Time),524723.0,A,stee,I,backspace,906,1,3165.2999999998137,521557.7000000002,8026,WL,B,1.0
4,3.3489999771118164,learn,56651.00002288818,Mon Feb 03 2025 14:24:59 GMT-0600 (Central Standard Time),524906.3999999994,A,ste,I,backspace,165,1,3348.699999999255,521557.7000000002,8026,WL,B,1.0
4,3.565999984741211,learn,56434.00001525879,Mon Feb 03 2025 14:24:59 GMT-0600 (Central Standard Time),525122.8999999994,A,st,I,backspace,206,1,3565.199999999255,521557.7000000002,8026,WL,B,1.0
4,4.39900016784668,learn,55600.99983215332,Mon Feb 03 2025 14:24:59 GMT-0600 (Central Standard Time),525955.8999999994,A,str,I,r,815,1,4398.199999999255,521557.7000000002,8026,WL,B,1.0
4,4.631999969482422,learn,55368.00003051758,Mon Feb 03 2025 14:24:59 GMT-0600 (Central Standard Time),526189.2000000002,A,stre,I,e,214,1,4631.5,521557.7000000002,8026,WL,B,1.0
4,4.749000072479248,learn,55250.99992752075,Mon Feb 03 2025 14:24:59 GMT-0600 (Central Standard Time),526305.8999999994,A,stree,I,e,108,1,4748.199999999255,521557.7000000002,8026,WL,B,1.0
4,4.999000072479248,learn,55000.99992752075,Mon Feb 03 2025 14:24:59 GMT-0600 (Central Standard Time),526555.8999999994,A,street,I,t,238,1,4998.199999999255,521557.7000000002,8026,WL,B,1.0
4,6.0320000648498535,learn,53967.99993515015,Mon Feb 03 2025 14:24:59 GMT-0600 (Central Standard Time),527588.7999999998,A,streetenter,I,enter,1022,1,6031.0999999996275,521557.7000000002,8026,WL,B,1.0
4,6.765000104904175,learn,53234.999895095825,Mon Feb 03 2025 14:24:59 GMT-0600 (Central Standard Time),528321.8999999994,A,g,I,g,724,1,732.8999999994412,527589.0,8026,WL,B,2.0
4,6.998000144958496,learn,53001.999855041504,Mon Feb 03 2025 14:24:59 GMT-0600 (Central Standard Time),528555.2999999998,A,gr,I,r,215,1,966.2999999998137,527589.0,8026,WL,B,2.0
4,7.198000192642212,learn,52801.99980735779,Mon Feb 03 2025 14:24:59 GMT-0600 (Central Standard Time),528755.0,A,gra,I,a,182,1,1166.0,527589.0,8026,WL,B,2.0
4,7.448000192642212,learn,52551.99980735779,Mon Feb 03 2025 14:24:59 GMT-0600 (Central Standard Time),529005.0,A,gras,I,s,239,1,1416.0,527589.0,8026,WL,B,2.0
4,7.564000129699707,learn,52435.99987030029,Mon Feb 03 2025 14:24:59 GMT-0600 (Central Standard Time),529121.3999999994,A,grass,I,s,108,1,1532.3999999994412,527589.0,8026,WL,B,2.0
4,8.314000129699707,learn,51685.99987030029,Mon Feb 03 2025 14:24:59 GMT-0600 (Central Standard Time),529871.3999999994,A,grassenter,I,enter,728,1,2282.399999999441,527589.0,8026,WL,B,2.0
4,9.531000137329102,learn,50468.9998626709,Mon Feb 03 2025 14:24:59 GMT-0600 (Central Standard Time),531087.5,A,d,I,d,1194,1,1215.7000000001863,529871.7999999998,8026,WL,B,3.0
4,9.814000129699707,learn,50185.99987030029,Mon Feb 03 2025 14:24:59 GMT-0600 (Central Standard Time),531370.8999999994,A,do,I,o,265,1,1499.0999999996275,529871.7999999998,8026,WL,B,3.0
4,9.96399998664856,learn,50036.00001335144,Mon Feb 03 2025 14:24:59 GMT-0600 (Central Standard Time),531520.7000000002,A,doo,I,o,142,1,1648.9000000003725,529871.7999999998,8026,WL,B,3.0
4,10.764000177383423,learn,49235.99982261658,Mon Feb 03 2025 14:24:59 GMT-0600 (Central Standard Time),532320.7000000002,A,door,I,r,785,1,2448.9000000003725,529871.7999999998,8026,WL,B,3.0
4,11.880000114440918,learn,48119.99988555908,Mon Feb 03 2025 14:24:59 GMT-0600 (Central Standard Time),533436.7999999998,A,doorenter,I,enter,1097,1,3565.0,529871.7999999998,8026,WL,B,3.0
4,12.330000162124634,learn,47669.999837875366,Mon Feb 03 2025 14:24:59 GMT-0600 (Central Standard Time),533886.7999999998,A,a,I,a,437,1,449.79999999981374,533437.0,8026,WL,B,4.0
4,12.812999963760376,learn,47187.000036239624,Mon Feb 03 2025 14:24:59 GMT-0600 (Central Standard Time),534369.8999999994,A,ar,I,r,467,1,932.8999999994412,533437.0,8026,WL,B,4.0
4,13.146000146865845,learn,46853.999853134155,Mon Feb 03 2025 14:24:59 GMT-0600 (Central Standard Time),534703.2999999998,A,arm,I,m,319,1,1266.2999999998137,533437.0,8026,WL,B,4.0
4,14.296000003814697,learn,45703.9999961853,Mon Feb 03 2025 14:24:59 GMT-0600 (Central Standard Time),535852.8999999994,A,armenter,I,enter,1129,1,2415.899999999441,533437.0,8026,WL,B,4.0
4,15.27999997138977,learn,44720.00002861023,Mon Feb 03 2025 14:24:59 GMT-0600 (Central Standard Time),536837.0999999996,A,s,I,s,973,1,983.8999999994412,535853.2000000002,8026,WL,B,5.0
4,15.495000123977661,learn,44504.99987602234,Mon Feb 03 2025 14:24:59 GMT-0600 (Central Standard Time),537052.5,A,st,I,t,196,1,1199.2999999998137,535853.2000000002,8026,WL,B,5.0
4,15.67900013923645,learn,44320.99986076355,Mon Feb 03 2025 14:24:59 GMT-0600 (Central Standard Time),537235.7999999998,A,sta,I,a,166,1,1382.5999999996275,535853.2000000002,8026,WL,B,5.0
4,15.76200008392334,learn,44237.99991607666,Mon Feb 03 2025 14:24:59 GMT-0600 (Central Standard Time),537319.2999999998,A,star,I,r,69,1,1466.0999999996275,535853.2000000002,8026,WL,B,5.0
4,16.195000171661377,learn,43804.99982833862,Mon Feb 03 2025 14:24:59 GMT-0600 (Central Standard Time),537752.3999999994,A,starenter,I,enter,409,1,1899.199999999255,535853.2000000002,8026,WL,B,5.0
4,17.045000076293945,learn,42954.999923706055,Mon Feb 03 2025 14:24:59 GMT-0600 (Central Standard Time),538602.0999999996,A,w,I,w,840,1,849.3999999994412,537752.7000000002,8026,WL,B,6.0
4,17.278000116348267,learn,42721.99988365173,Mon Feb 03 2025 14:24:59 GMT-0600 (Central Standard Time),538835.2999999998,A,wi,I,i,214,1,1082.5999999996275,537752.7000000002,8026,WL,B,6.0
4,17.67799997329712,learn,42322.00002670288,Mon Feb 03 2025 14:24:59 GMT-0600 (Central Standard Time),539235.2999999998,A,wif,I,f,389,1,1482.5999999996275,537752.7000000002,8026,WL,B,6.0
4,18.128000020980835,learn,41871.999979019165,Mon Feb 03 2025 14:24:59 GMT-0600 (Central Standard Time),539685.0,A,wife,I,e,430,1,1932.2999999998137,537752.7000000002,8026,WL,B,6.0
4,19.41000008583069,learn,40589.99991416931,Mon Feb 03 2025 14:24:59 GMT-0600 (Central Standard Time),540967.8999999994,A,wifew,I,w,1269,1,3215.199999999255,537752.7000000002,8026,WL,B,6.0
4,20.377000093460083,learn,39622.99990653992,Mon Feb 03 2025 14:24:59 GMT-0600 (Central Standard Time),541934.3999999994,A,wife,I,backspace,945,1,4181.699999999255,537752.7000000002,8026,WL,B,6.0
4,21.210000038146973,learn,38789.99996185303,Mon Feb 03 2025 14:24:59 GMT-0600 (Central Standard Time),542767.3999999994,A,wifeenter,I,enter,818,1,5014.699999999255,537752.7000000002,8026,WL,B,6.0
4,21.64300012588501,learn,38356.99987411499,Mon Feb 03 2025 14:24:59 GMT-0600 (Central Standard Time),543200.7999999998,A,w,I,w,425,1,433.09999999962747,542767.7000000002,8026,WL,B,7.0
4,21.81000018119812,learn,38189.99981880188,Mon Feb 03 2025 14:24:59 GMT-0600 (Central Standard Time),543367.3999999994,A,wi,I,i,152,1,599.6999999992549,542767.7000000002,8026,WL,B,7.0
4,21.9760000705719,learn,38023.9999294281,Mon Feb 03 2025 14:24:59 GMT-0600 (Central Standard Time),543533.5999999996,A,win,I,n,155,1,765.8999999994412,542767.7000000002,8026,WL,B,7.0
4,22.243000030517578,learn,37756.99996948242,Mon Feb 03 2025 14:24:59 GMT-0600 (Central Standard Time),543800.0999999996,A,wind,I,d,244,1,1032.3999999994412,542767.7000000002,8026,WL,B,7.0
4,22.493000030517578,learn,37506.99996948242,Mon Feb 03 2025 14:24:59 GMT-0600 (Central Standard Time),544050.3999999994,A,windo,I,o,232,1,1282.699999999255,542767.7000000002,8026,WL,B,7.0
4,22.659000158309937,learn,37340.99984169006,Mon Feb 03 2025 14:24:59 GMT-0600 (Central Standard Time),544216.8999999994,A,window,I,w,150,1,1449.199999999255,542767.7000000002,8026,WL,B,7.0
4,23.592000007629395,learn,36407.999992370605,Mon Feb 03 2025 14:24:59 GMT-0600 (Central Standard Time),545149.8999999994,A,windowenter,I,enter,912,1,2382.199999999255,542767.7000000002,8026,WL,B,7.0
4,23.9760000705719,learn,36023.9999294281,Mon Feb 03 2025 14:24:59 GMT-0600 (Central Standard Time),545533.2999999998,A,c,I,c,363,1,383.09999999962747,545150.2000000002,8026,WL,B,8.0
4,24.192000150680542,learn,35807.99984931946,Mon Feb 03 2025 14:24:59 GMT-0600 (Central Standard Time),545749.5999999996,A,ci,I,i,196,1,599.3999999994412,545150.2000000002,8026,WL,B,8.0
4,24.358999967575073,learn,35641.00003242493,Mon Feb 03 2025 14:24:59 GMT-0600 (Central Standard Time),545916.5,A,cit,I,t,155,1,766.2999999998137,545150.2000000002,8026,WL,B,8.0
4,25.29200005531311,learn,34707.99994468689,Mon Feb 03 2025 14:24:59 GMT-0600 (Central Standard Time),546849.2000000002,A,city,I,y,924,1,1699.0,545150.2000000002,8026,WL,B,8.0
4,26.341000080108643,learn,33658.99991989136,Mon Feb 03 2025 14:24:59 GMT-0600 (Central Standard Time),547899.0,A,cityenter,I,enter,1040,1,2748.7999999998137,545150.2000000002,8026,WL,B,8.0
4,27.157999992370605,learn,32842.000007629395,Mon Feb 03 2025 14:24:59 GMT-0600 (Central Standard Time),548715.3999999994,A,p,I,p,798,1,816.0,547899.3999999994,8026,WL,B,9.0
4,27.491000175476074,learn,32508.999824523926,Mon Feb 03 2025 14:24:59 GMT-0600 (Central Standard Time),549048.8999999994,A,pu,I,u,318,1,1149.5,547899.3999999994,8026,WL,B,9.0
4,27.77500009536743,learn,32224.99990463257,Mon Feb 03 2025 14:24:59 GMT-0600 (Central Standard Time),549332.2000000002,A,pup,I,p,272,1,1432.800000000745,547899.3999999994,8026,WL,B,9.0
4,28.258000135421753,learn,31741.999864578247,Mon Feb 03 2025 14:24:59 GMT-0600 (Central Standard Time),549815.7000000002,A,pupi,I,i,469,1,1916.300000000745,547899.3999999994,8026,WL,B,9.0
4,28.69099998474121,learn,31309.00001525879,Mon Feb 03 2025 14:24:59 GMT-0600 (Central Standard Time),550248.5,A,pupil,I,l,409,1,2349.100000000559,547899.3999999994,8026,WL,B,9.0
4,29.506999969482422,learn,30493.000030517578,Mon Feb 03 2025 14:24:59 GMT-0600 (Central Standard Time),551064.7999999998,A,pupilenter,I,enter,801,1,3165.4000000003725,547899.3999999994,8026,WL,B,9.0
4,30.006999969482422,learn,29993.000030517578,Mon Feb 03 2025 14:24:59 GMT-0600 (Central Standard Time),551564.7999999998,A,c,I,c,480,1,499.59999999962747,551065.2000000002,8026,WL,B,10.0
4,30.20800018310547,learn,29791.99981689453,Mon Feb 03 2025 14:24:59 GMT-0600 (Central Standard Time),551765.7000000002,A,ca,I,a,189,1,700.5,551065.2000000002,8026,WL,B,10.0
4,30.624000072479248,learn,29375.999927520752,Mon Feb 03 2025 14:24:59 GMT-0600 (Central Standard Time),552181.2999999998,A,cab,I,b,395,1,1116.0999999996275,551065.2000000002,8026,WL,B,10.0
4,30.973000049591064,learn,29026.999950408936,Mon Feb 03 2025 14:24:59 GMT-0600 (Central Standard Time),552530.7999999998,A,cabi,I,i,339,1,1465.5999999996275,551065.2000000002,8026,WL,B,10.0
4,31.17300009727478,learn,28826.99990272522,Mon Feb 03 2025 14:24:59 GMT-0600 (Central Standard Time),552730.7000000002,A,cabin,I,n,189,1,1665.5,551065.2000000002,8026,WL,B,10.0
4,32.140000104904175,learn,27859.999895095825,Mon Feb 03 2025 14:24:59 GMT-0600 (Central Standard Time),553697.3999999994,A,cabinenter,I,enter,949,1,2632.199999999255,551065.2000000002,8026,WL,B,10.0
4,32.53999996185303,learn,27460.000038146973,Mon Feb 03 2025 14:24:59 GMT-0600 (Central Standard Time),554097.0999999996,A,l,I,l,392,1,399.3999999994412,553697.7000000002,8026,WL,B,11.0
4,32.723000049591064,learn,27276.999950408936,Mon Feb 03 2025 14:24:59 GMT-0600 (Central Standard Time),554280.5,A,la,I,a,160,1,582.7999999998137,553697.7000000002,8026,WL,B,11.0
4,33.1560001373291,learn,26843.9998626709,Mon Feb 03 2025 14:24:59 GMT-0600 (Central Standard Time),554713.5999999996,A,lak,I,k,417,1,1015.8999999994412,553697.7000000002,8026,WL,B,11.0
4,33.32300019264221,learn,26676.999807357788,Mon Feb 03 2025 14:24:59 GMT-0600 (Central Standard Time),554880.2999999998,A,lake,I,e,144,1,1182.5999999996275,553697.7000000002,8026,WL,B,11.0
4,34.88900017738342,learn,25110.999822616577,Mon Feb 03 2025 14:24:59 GMT-0600 (Central Standard Time),556446.3999999994,A,lakeenter,I,enter,1545,1,2748.699999999255,553697.7000000002,8026,WL,B,11.0
4,35.58899998664856,learn,24411.00001335144,Mon Feb 03 2025 14:24:59 GMT-0600 (Central Standard Time),557146.2000000002,A,p,I,p,684,1,699.5,556446.7000000002,8026,WL,B,12.0
4,35.83899998664856,learn,24161.00001335144,Mon Feb 03 2025 14:24:59 GMT-0600 (Central Standard Time),557396.2000000002,A,pi,I,i,231,1,949.5,556446.7000000002,8026,WL,B,12.0
4,36.28800010681152,learn,23711.999893188477,Mon Feb 03 2025 14:24:59 GMT-0600 (Central Standard Time),557845.8999999994,A,pip,I,p,429,1,1399.199999999255,556446.7000000002,8026,WL,B,12.0
4,36.65499997138977,learn,23345.00002861023,Mon Feb 03 2025 14:24:59 GMT-0600 (Central Standard Time),558212.7000000002,A,pipe,I,e,347,1,1766.0,556446.7000000002,8026,WL,B,12.0
4,37.13800001144409,learn,22861.99998855591,Mon Feb 03 2025 14:24:59 GMT-0600 (Central Standard Time),558695.7999999998,A,pipeenter,I,enter,469,1,2249.0999999996275,556446.7000000002,8026,WL,B,12.0
4,40.12100005149841,learn,19878.999948501587,Mon Feb 03 2025 14:24:59 GMT-0600 (Central Standard Time),561678.0999999996,A,s,I,s,2969,1,2981.899999999441,558696.2000000002,8026,WL,B,13.0
4,40.687000036239624,learn,19312.999963760376,Mon Feb 03 2025 14:24:59 GMT-0600 (Central Standard Time),562244.5,A,sk,I,k,555,1,3548.2999999998137,558696.2000000002,8026,WL,B,13.0
4,40.937000036239624,learn,19062.999963760376,Mon Feb 03 2025 14:24:59 GMT-0600 (Central Standard Time),562494.5,A,ski,I,i,237,1,3798.2999999998137,558696.2000000002,8026,WL,B,13.0
4,41.187000036239624,learn,18812.999963760376,Mon Feb 03 2025 14:24:59 GMT-0600 (Central Standard Time),562744.7999999998,A,skin,I,n,235,1,4048.5999999996275,558696.2000000002,8026,WL,B,13.0
4,42.12000012397766,learn,17879.99987602234,Mon Feb 03 2025 14:24:59 GMT-0600 (Central Standard Time),563677.5,A,skinf,I,f,912,1,4981.299999999814,558696.2000000002,8026,WL,B,13.0
4,43.087000131607056,learn,16912.999868392944,Mon Feb 03 2025 14:24:59 GMT-0600 (Central Standard Time),564644.0,A,skin,I,backspace,956,1,5947.799999999814,558696.2000000002,8026,WL,B,13.0
4,43.76900005340576,learn,16230.999946594238,Mon Feb 03 2025 14:24:59 GMT-0600 (Central Standard Time),565327.0,A,skinenter,I,enter,669,1,6630.799999999814,558696.2000000002,8026,WL,B,13.0
4,44.25200009346008,learn,15747.999906539917,Mon Feb 03 2025 14:24:59 GMT-0600 (Central Standard Time),565809.8999999994,A,f,I,f,475,1,482.59999999962747,565327.2999999998,8026,WL,B,14.0
4,44.486000061035156,learn,15513.999938964844,Mon Feb 03 2025 14:24:59 GMT-0600 (Central Standard Time),566043.2000000002,A,fi,I,i,223,1,715.9000000003725,565327.2999999998,8026,WL,B,14.0
4,44.652000188827515,learn,15347.999811172485,Mon Feb 03 2025 14:24:59 GMT-0600 (Central Standard Time),566210.0,A,fim,I,m,151,1,882.7000000001863,565327.2999999998,8026,WL,B,14.0
4,45.13600015640259,learn,14863.999843597412,Mon Feb 03 2025 14:24:59 GMT-0600 (Central Standard Time),566693.3999999994,A,fi,I,backspace,464,1,1366.0999999996275,565327.2999999998,8026,WL,B,14.0
4,45.28500008583069,learn,14714.999914169312,Mon Feb 03 2025 14:24:59 GMT-0600 (Central Standard Time),566843.0,A,fir,I,r,133,1,1515.7000000001863,565327.2999999998,8026,WL,B,14.0
4,45.51900005340576,learn,14480.999946594238,Mon Feb 03 2025 14:24:59 GMT-0600 (Central Standard Time),567076.5,A,fire,I,e,214,1,1749.2000000001863,565327.2999999998,8026,WL,B,14.0
4,46.61800003051758,learn,13381.999969482422,Mon Feb 03 2025 14:24:59 GMT-0600 (Central Standard Time),568175.8999999994,A,fireenter,I,enter,1077,1,2848.5999999996275,565327.2999999998,8026,WL,B,14.0
4,47.75100016593933,learn,12248.999834060669,Mon Feb 03 2025 14:24:59 GMT-0600 (Central Standard Time),569309.0999999996,A,c,I,c,1121,1,1132.7999999998137,568176.2999999998,8026,WL,B,15.0
4,47.88499999046326,learn,12115.000009536743,Mon Feb 03 2025 14:24:59 GMT-0600 (Central Standard Time),569442.3999999994,A,cl,I,l,116,1,1266.0999999996275,568176.2999999998,8026,WL,B,15.0
4,48.13499999046326,learn,11865.000009536743,Mon Feb 03 2025 14:24:59 GMT-0600 (Central Standard Time),569692.3999999994,A,clo,I,o,238,1,1516.0999999996275,568176.2999999998,8026,WL,B,15.0
4,48.36800003051758,learn,11631.999969482422,Mon Feb 03 2025 14:24:59 GMT-0600 (Central Standard Time),569925.5999999996,A,cloc,I,c,213,1,1749.2999999998137,568176.2999999998,8026,WL,B,15.0
4,48.53500008583069,learn,11464.999914169312,Mon Feb 03 2025 14:24:59 GMT-0600 (Central Standard Time),570092.2000000002,A,clock,I,k,147,1,1915.9000000003725,568176.2999999998,8026,WL,B,15.0
4,49.01800012588501,learn,10981.99987411499,Mon Feb 03 2025 14:24:59 GMT-0600 (Central Standard Time),570575.2999999998,A,clockenter,I,enter,468,1,2399.0,568176.2999999998,8026,WL,B,15.0
5,1.0840001106262207,learn,60000.0,Mon Feb 03 2025 14:24:59 GMT-0600 (Central Standard Time),642819.7000000002,A,s,I,s,1074,1,1083.1000000005588,641736.5999999996,8026,WL,B,1.0
5,1.4670000076293945,learn,60000.0,Mon Feb 03 2025 14:24:59 GMT-0600 (Central Standard Time),643202.8999999994,A,st,I,t,373,1,1466.2999999998137,641736.5999999996,8026,WL,B,1.0
5,1.7160000801086426,learn,60000.0,Mon Feb 03 2025 14:24:59 GMT-0600 (Central Standard Time),643452.5,A,str,I,r,239,1,1715.9000000003725,641736.5999999996,8026,WL,B,1.0
5,1.9660000801086426,learn,60000.0,Mon Feb 03 2025 14:24:59 GMT-0600 (Central Standard Time),643702.5,A,stre,I,e,236,1,1965.9000000003725,641736.5999999996,8026,WL,B,1.0
5,2.1660001277923584,learn,60000.0,Mon Feb 03 2025 14:24:59 GMT-0600 (Central Standard Time),643902.3999999994,A,stree,I,e,178,1,2165.7999999998137,641736.5999999996,8026,WL,B,1.0
5,2.4000000953674316,learn,60000.0,Mon Feb 03 2025 14:24:59 GMT-0600 (Central Standard Time),644135.7999999998,A,street,I,t,220,1,2399.2000000001863,641736.5999999996,8026,WL,B,1.0
5,3.2330000400543213,learn,60000.0,Mon Feb 03 2025 14:24:59 GMT-0600 (Central Standard Time),644968.7000000002,A,streetenter,I,enter,825,1,3232.100000000559,641736.5999999996,8026,WL,B,1.0
5,4.332000017166138,learn,60000.0,Mon Feb 03 2025 14:24:59 GMT-0600 (Central Standard Time),646068.5,A,g,I,g,1090,1,1099.5,644969.0,8026,WL,B,2.0
5,4.565999984741211,learn,60000.0,Mon Feb 03 2025 14:24:59 GMT-0600 (Central Standard Time),646301.7000000002,A,gr,I,r,221,1,1332.7000000001863,644969.0,8026,WL,B,2.0
5,4.832000017166138,learn,60000.0,Mon Feb 03 2025 14:24:59 GMT-0600 (Central Standard Time),646568.0999999996,A,gra,I,a,243,1,1599.0999999996275,644969.0,8026,WL,B,2.0
5,5.065000057220459,learn,60000.0,Mon Feb 03 2025 14:24:59 GMT-0600 (Central Standard Time),646801.2999999998,A,gras,I,s,224,1,1832.2999999998137,644969.0,8026,WL,B,2.0
5,5.232000112533569,learn,60000.0,Mon Feb 03 2025 14:24:59 GMT-0600 (Central Standard Time),646968.2000000002,A,grass,I,s,143,1,1999.2000000001863,644969.0,8026,WL,B,2.0
5,5.765000104904175,learn,60000.0,Mon Feb 03 2025 14:24:59 GMT-0600 (Central Standard Time),647501.2999999998,A,grassenter,I,enter,513,1,2532.2999999998137,644969.0,8026,WL,B,2.0
5,6.265000104904175,learn,60000.0,Mon Feb 03 2025 14:24:59 GMT-0600 (Central Standard Time),648001.2000000002,A,d,I,d,484,1,499.6000000005588,647501.5999999996,8026,WL,B,3.0
5,6.515000104904175,learn,60000.0,Mon Feb 03 2025 14:24:59 GMT-0600 (Central Standard Time),648251.0,A,do,I,o,240,1,749.4000000003725,647501.5999999996,8026,WL,B,3.0
5,6.6650002002716064,learn,60000.0,Mon Feb 03 2025 14:24:59 GMT-0600 (Central Standard Time),648400.7999999998,A,doo,I,o,142,1,899.2000000001863,647501.5999999996,8026,WL,B,3.0
5,6.865000009536743,learn,60000.0,Mon Feb 03 2025 14:24:59 GMT-0600 (Central Standard Time),648600.8999999994,A,door,I,r,185,1,1099.2999999998137,647501.5999999996,8026,WL,B,3.0
5,7.683000087738037,learn,60000.0,Mon Feb 03 2025 14:24:59 GMT-0600 (Central Standard Time),649418.5999999996,A,doorenter,I,enter,808,1,1917.0,647501.5999999996,8026,WL,B,3.0
5,8.180999994277954,learn,60000.0,Mon Feb 03 2025 14:24:59 GMT-0600 (Central Standard Time),649917.2000000002,A,a,I,a,478,1,498.20000000018626,649419.0,8026,WL,B,4.0
5,8.495000123977661,learn,60000.0,Mon Feb 03 2025 14:24:59 GMT-0600 (Central Standard Time),650231.3999999994,A,ar,I,r,307,1,812.3999999994412,649419.0,8026,WL,B,4.0
5,8.814000129699707,learn,60000.0,Mon Feb 03 2025 14:24:59 GMT-0600 (Central Standard Time),650550.2999999998,A,arm,I,m,297,1,1131.2999999998137,649419.0,8026,WL,B,4.0
5,9.097000122070312,learn,60000.0,Mon Feb 03 2025 14:24:59 GMT-0600 (Central Standard Time),650833.5,A,armenter,I,enter,274,1,1414.5,649419.0,8026,WL,B,4.0
5,10.53000020980835,learn,60000.0,Mon Feb 03 2025 14:24:59 GMT-0600 (Central Standard Time),652266.2000000002,A,s,I,s,1416,1,1432.4000000003725,650833.7999999998,8026,WL,B,5.0
5,10.69700002670288,learn,60000.0,Mon Feb 03 2025 14:24:59 GMT-0600 (Central Standard Time),652432.7999999998,A,st,I,t,159,1,1599.0,650833.7999999998,8026,WL,B,5.0
5,11.013000011444092,learn,60000.0,Mon Feb 03 2025 14:24:59 GMT-0600 (Central Standard Time),652749.2999999998,A,str,I,r,297,1,1915.5,650833.7999999998,8026,WL,B,5.0
5,11.630000114440918,learn,60000.0,Mon Feb 03 2025 14:24:59 GMT-0600 (Central Standard Time),653366.2000000002,A,st,I,backspace,604,1,2532.4000000003725,650833.7999999998,8026,WL,B,5.0
5,11.747000217437744,learn,60000.0,Mon Feb 03 2025 14:24:59 GMT-0600 (Central Standard Time),653482.5999999996,A,sta,I,a,106,1,2648.7999999998137,650833.7999999998,8026,WL,B,5.0
5,11.897000074386597,learn,60000.0,Mon Feb 03 2025 14:24:59 GMT-0600 (Central Standard Time),653633.0,A,star,I,r,143,1,2799.2000000001863,650833.7999999998,8026,WL,B,5.0
5,12.263000011444092,learn,60000.0,Mon Feb 03 2025 14:24:59 GMT-0600 (Central Standard Time),653999.2999999998,A,starenter,I,enter,345,1,3165.5,650833.7999999998,8026,WL,B,5.0
5,13.146000146865845,learn,60000.0,Mon Feb 03 2025 14:24:59 GMT-0600 (Central Standard Time),654882.3999999994,A,w,I,w,874,1,882.7999999998137,653999.5999999996,8026,WL,B,6.0
5,13.496000051498413,learn,60000.0,Mon Feb 03 2025 14:24:59 GMT-0600 (Central Standard Time),655232.2999999998,A,wi,I,i,335,1,1232.7000000001863,653999.5999999996,8026,WL,B,6.0
5,13.680000066757202,learn,60000.0,Mon Feb 03 2025 14:24:59 GMT-0600 (Central Standard Time),655415.7000000002,A,wit,I,t,161,1,1416.1000000005588,653999.5999999996,8026,WL,B,6.0
5,14.163000106811523,learn,60000.0,Mon Feb 03 2025 14:24:59 GMT-0600 (Central Standard Time),655898.7000000002,A,wi,I,backspace,466,1,1899.1000000005588,653999.5999999996,8026,WL,B,6.0
5,14.246000051498413,learn,60000.0,Mon Feb 03 2025 14:24:59 GMT-0600 (Central Standard Time),655981.8999999994,A,wif,I,f,62,1,1982.2999999998137,653999.5999999996,8026,WL,B,6.0
5,14.380000114440918,learn,60000.0,Mon Feb 03 2025 14:24:59 GMT-0600 (Central Standard Time),656115.7999999998,A,wife,I,e,123,1,2116.2000000001863,653999.5999999996,8026,WL,B,6.0
5,14.696000099182129,learn,60000.0,Mon Feb 03 2025 14:24:59 GMT-0600 (Central Standard Time),656431.7999999998,A,wifeenter,I,enter,301,1,2432.2000000001863,653999.5999999996,8026,WL,B,6.0
5,15.747000217437744,learn,60000.0,Mon Feb 03 2025 14:24:59 GMT-0600 (Central Standard Time),657482.7000000002,A,a,I,a,1034,1,1050.6000000005588,656432.0999999996,8026,WL,B,7.0
5,17.32800006866455,learn,60000.0,Mon Feb 03 2025 14:24:59 GMT-0600 (Central Standard Time),659064.5,A,,I,backspace,1558,1,2632.4000000003725,656432.0999999996,8026,WL,B,7.0
5,19.14400005340576,learn,60000.0,Mon Feb 03 2025 14:24:59 GMT-0600 (Central Standard Time),660880.2999999998,A,w,I,w,1801,1,4448.200000000186,656432.0999999996,8026,WL,B,7.0
5,19.344000101089478,learn,60000.0,Mon Feb 03 2025 14:24:59 GMT-0600 (Central Standard Time),661080.5999999996,A,wi,I,i,176,1,4648.5,656432.0999999996,8026,WL,B,7.0
5,19.49400019645691,learn,60000.0,Mon Feb 03 2025 14:24:59 GMT-0600 (Central Standard Time),661230.5,A,win,I,n,129,1,4798.4000000003725,656432.0999999996,8026,WL,B,7.0
5,19.64400005340576,learn,60000.0,Mon Feb 03 2025 14:24:59 GMT-0600 (Central Standard Time),661380.3999999994,A,wind,I,d,139,1,4948.299999999814,656432.0999999996,8026,WL,B,7.0
5,19.91000008583069,learn,60000.0,Mon Feb 03 2025 14:24:59 GMT-0600 (Central Standard Time),661647.0999999996,A,windo,I,o,254,1,5215.0,656432.0999999996,8026,WL,B,7.0
5,20.06000018119812,learn,60000.0,Mon Feb 03 2025 14:24:59 GMT-0600 (Central Standard Time),661796.7000000002,A,window,I,w,130,1,5364.600000000559,656432.0999999996,8026,WL,B,7.0
5,21.39400005340576,learn,60000.0,Mon Feb 03 2025 14:24:59 GMT-0600 (Central Standard Time),663130.7999999998,A,windowenter,I,enter,1326,1,6698.700000000186,656432.0999999996,8026,WL,B,7.0
5,22.193000078201294,learn,60000.0,Mon Feb 03 2025 14:24:59 GMT-0600 (Central Standard Time),663929.5999999996,A,c,I,c,783,1,798.5999999996275,663131.0,8026,WL,B,8.0
5,22.37600016593933,learn,60000.0,Mon Feb 03 2025 14:24:59 GMT-0600 (Central Standard Time),664113.0,A,ci,I,i,160,1,982.0,663131.0,8026,WL,B,8.0
5,22.509999990463257,learn,60000.0,Mon Feb 03 2025 14:24:59 GMT-0600 (Central Standard Time),664246.2000000002,A,cit,I,t,121,1,1115.2000000001863,663131.0,8026,WL,B,8.0
5,22.826000213623047,learn,60000.0,Mon Feb 03 2025 14:24:59 GMT-0600 (Central Standard Time),664562.5999999996,A,city,I,y,298,1,1431.5999999996275,663131.0,8026,WL,B,8.0
5,23.54200005531311,learn,60000.0,Mon Feb 03 2025 14:24:59 GMT-0600 (Central Standard Time),665278.8999999994,A,cityenter,I,enter,703,1,2147.899999999441,663131.0,8026,WL,B,8.0
5,24.425000190734863,learn,60000.0,Mon Feb 03 2025 14:24:59 GMT-0600 (Central Standard Time),666162.0999999996,A,p,I,p,866,1,882.8999999994412,665279.2000000002,8026,WL,B,9.0
5,24.609000205993652,learn,60000.0,Mon Feb 03 2025 14:24:59 GMT-0600 (Central Standard Time),666345.2999999998,A,pu,I,u,175,1,1066.0999999996275,665279.2000000002,8026,WL,B,9.0
5,25.308000087738037,learn,60000.0,Mon Feb 03 2025 14:24:59 GMT-0600 (Central Standard Time),667045.0999999996,A,pup,I,p,681,1,1765.8999999994412,665279.2000000002,8026,WL,B,9.0
5,25.625,learn,60000.0,Mon Feb 03 2025 14:24:59 GMT-0600 (Central Standard Time),667361.7999999998,A,pupi,I,i,300,1,2082.5999999996275,665279.2000000002,8026,WL,B,9.0
5,27.10800004005432,learn,60000.0,Mon Feb 03 2025 14:24:59 GMT-0600 (Central Standard Time),668844.7999999998,A,pupil,I,l,1473,1,3565.5999999996275,665279.2000000002,8026,WL,B,9.0
5,27.841000080108643,learn,60000.0,Mon Feb 03 2025 14:24:59 GMT-0600 (Central Standard Time),669577.3999999994,A,pupilenter,I,enter,724,1,4298.199999999255,665279.2000000002,8026,WL,B,9.0
5,28.374000072479248,learn,60000.0,Mon Feb 03 2025 14:24:59 GMT-0600 (Central Standard Time),670110.7999999998,A,c,I,c,513,1,533.2000000001863,669577.5999999996,8026,WL,B,10.0
5,28.508000135421753,learn,60000.0,Mon Feb 03 2025 14:24:59 GMT-0600 (Central Standard Time),670244.2000000002,A,ca,I,a,122,1,666.6000000005588,669577.5999999996,8026,WL,B,10.0
5,28.808000087738037,learn,60000.0,Mon Feb 03 2025 14:24:59 GMT-0600 (Central Standard Time),670544.2999999998,A,cab,I,b,277,1,966.7000000001863,669577.5999999996,8026,WL,B,10.0
5,29.224000215530396,learn,60000.0,Mon Feb 03 2025 14:24:59 GMT-0600 (Central Standard Time),670960.5,A,cabi,I,i,393,1,1382.9000000003725,669577.5999999996,8026,WL,B,10.0
5,29.391000032424927,learn,60000.0,Mon Feb 03 2025 14:24:59 GMT-0600 (Central Standard Time),671127.2999999998,A,cabin,I,n,154,1,1549.7000000001863,669577.5999999996,8026,WL,B,10.0
5,29.724000215530396,learn,60000.0,Mon Feb 03 2025 14:24:59 GMT-0600 (Central Standard Time),671460.5,A,cabinenter,I,enter,322,1,1882.9000000003725,669577.5999999996,8026,WL,B,10.0
5,31.123000144958496,learn,60000.0,Mon Feb 03 2025 14:24:59 GMT-0600 (Central Standard Time),672860.0,A,l,I,l,1382,1,1399.2000000001863,671460.7999999998,8026,WL,B,11.0
5,31.640000104904175,learn,60000.0,Mon Feb 03 2025 14:24:59 GMT-0600 (Central Standard Time),673376.5,A,la,I,a,494,1,1915.7000000001863,671460.7999999998,8026,WL,B,11.0
5,31.84000015258789,learn,60000.0,Mon Feb 03 2025 14:24:59 GMT-0600 (Central Standard Time),673576.7000000002,A,lak,I,k,176,1,2115.9000000003725,671460.7999999998,8026,WL,B,11.0
5,32.0789999961853,learn,60000.0,Mon Feb 03 2025 14:24:59 GMT-0600 (Central Standard Time),673815.7999999998,A,lake,I,e,232,1,2355.0,671460.7999999998,8026,WL,B,11.0
5,32.42300009727478,learn,60000.0,Mon Feb 03 2025 14:24:59 GMT-0600 (Central Standard Time),674159.5,A,lakeenter,I,enter,328,1,2698.7000000001863,671460.7999999998,8026,WL,B,11.0
5,32.956000089645386,learn,60000.0,Mon Feb 03 2025 14:24:59 GMT-0600 (Central Standard Time),674692.7999999998,A,p,I,p,515,1,532.9000000003725,674159.8999999994,8026,WL,B,12.0
5,33.23900008201599,learn,60000.0,Mon Feb 03 2025 14:24:59 GMT-0600 (Central Standard Time),674975.8999999994,A,pi,I,i,260,1,816.0,674159.8999999994,8026,WL,B,12.0
5,33.456000089645386,learn,60000.0,Mon Feb 03 2025 14:24:59 GMT-0600 (Central Standard Time),675192.5,A,pip,I,p,209,1,1032.6000000005588,674159.8999999994,8026,WL,B,12.0
5,33.68900012969971,learn,60000.0,Mon Feb 03 2025 14:24:59 GMT-0600 (Central Standard Time),675425.8999999994,A,pipe,I,e,218,1,1266.0,674159.8999999994,8026,WL,B,12.0
5,34.13900017738342,learn,60000.0,Mon Feb 03 2025 14:24:59 GMT-0600 (Central Standard Time),675875.7000000002,A,pipeenter,I,enter,439,1,1715.800000000745,674159.8999999994,8026,WL,B,12.0
5,35.25500011444092,learn,60000.0,Mon Feb 03 2025 14:24:59 GMT-0600 (Central Standard Time),676992.0,A,f,I,f,1103,1,1115.9000000003725,675876.0999999996,8026,WL,B,13.0
5,35.5220000743866,learn,60000.0,Mon Feb 03 2025 14:24:59 GMT-0600 (Central Standard Time),677258.7999999998,A,fi,I,i,250,1,1382.7000000001863,675876.0999999996,8026,WL,B,13.0
5,35.68900012969971,learn,60000.0,Mon Feb 03 2025 14:24:59 GMT-0600 (Central Standard Time),677425.2000000002,A,fir,I,r,151,1,1549.1000000005588,675876.0999999996,8026,WL,B,13.0
5,35.88800001144409,learn,60000.0,Mon Feb 03 2025 14:24:59 GMT-0600 (Central Standard Time),677625.0999999996,A,fire,I,e,192,1,1749.0,675876.0999999996,8026,WL,B,13.0
5,40.104000091552734,learn,60000.0,Mon Feb 03 2025 14:24:59 GMT-0600 (Central Standard Time),681840.7999999998,A,fireenter,I,enter,4207,1,5964.700000000186,675876.0999999996,8026,WL,B,13.0
5,40.437000036239624,learn,60000.0,Mon Feb 03 2025 14:24:59 GMT-0600 (Central Standard Time),682173.5999999996,A,s,I,s,321,1,332.59999999962747,681841.0,8026,WL,B,14.0
5,40.65400004386902,learn,60000.0,Mon Feb 03 2025 14:24:59 GMT-0600 (Central Standard Time),682390.5,A,sk,I,k,195,1,549.5,681841.0,8026,WL,B,14.0
5,40.88700008392334,learn,60000.0,Mon Feb 03 2025 14:24:59 GMT-0600 (Central Standard Time),682623.7000000002,A,ski,I,i,211,1,782.7000000001863,681841.0,8026,WL,B,14.0
5,41.05400013923645,learn,60000.0,Mon Feb 03 2025 14:24:59 GMT-0600 (Central Standard Time),682790.2999999998,A,skin,I,n,146,1,949.2999999998137,681841.0,8026,WL,B,14.0
5,41.503000020980835,learn,60000.0,Mon Feb 03 2025 14:24:59 GMT-0600 (Central Standard Time),683240.0,A,skinenter,I,enter,427,1,1399.0,681841.0,8026,WL,B,14.0
5,44.319000005722046,learn,60000.0,Mon Feb 03 2025 14:24:59 GMT-0600 (Central Standard Time),686055.7999999998,A,c,I,c,2801,1,2815.5,683240.2999999998,8026,WL,B,15.0
5,44.51900005340576,learn,60000.0,Mon Feb 03 2025 14:24:59 GMT-0600 (Central Standard Time),686255.7000000002,A,cl,I,l,177,1,3015.4000000003725,683240.2999999998,8026,WL,B,15.0
5,44.75200009346008,learn,60000.0,Mon Feb 03 2025 14:24:59 GMT-0600 (Central Standard Time),686489.0,A,clo,I,o,218,1,3248.7000000001863,683240.2999999998,8026,WL,B,15.0
5,45.253000020980835,learn,60000.0,Mon Feb 03 2025 14:24:59 GMT-0600 (Central Standard Time),686989.0999999996,A,cloc,I,c,480,1,3748.7999999998137,683240.2999999998,8026,WL,B,15.0
5,45.51900005340576,learn,60000.0,Mon Feb 03 2025 14:24:59 GMT-0600 (Central Standard Time),687255.5999999996,A,clock,I,k,253,1,4015.2999999998137,683240.2999999998,8026,WL,B,15.0
5,46.902000188827515,learn,60000.0,Mon Feb 03 2025 14:24:59 GMT-0600 (Central Standard Time),688638.5,A,clockenter,I,enter,1362,1,5398.200000000186,683240.2999999998,8026,WL,B,15.0
6,0.46700000762939453,distr,59532.999992370605,Mon Feb 03 2025 14:24:59 GMT-0600 (Central Standard Time),761682.2000000002,B,b,I,b,451,1,466.40000000037253,761215.7999999998,8026,WL,B,1.0
6,0.7000000476837158,distr,59299.999952316284,Mon Feb 03 2025 14:24:59 GMT-0600 (Central Standard Time),761915.5999999996,B,ba,I,a,222,1,699.7999999998137,761215.7999999998,8026,WL,B,1.0
6,1.0169999599456787,distr,58983.00004005432,Mon Feb 03 2025 14:24:59 GMT-0600 (Central Standard Time),762231.8999999994,B,bab,I,b,302,1,1016.0999999996275,761215.7999999998,8026,WL,B,1.0
6,1.616999864578247,distr,58383.00013542175,Mon Feb 03 2025 14:24:59 GMT-0600 (Central Standard Time),762831.7999999998,B,baby,I,y,578,1,1616.0,761215.7999999998,8026,WL,B,1.0
6,2.882999897003174,distr,57117.000102996826,Mon Feb 03 2025 14:24:59 GMT-0600 (Central Standard Time),764098.3999999994,B,babyenter,I,enter,1258,1,2882.5999999996275,761215.7999999998,8026,WL,B,1.0
6,3.2829999923706055,distr,56717.000007629395,Mon Feb 03 2025 14:24:59 GMT-0600 (Central Standard Time),764498.2000000002,B,o,I,o,384,1,399.5,764098.7000000002,8026,WL,B,2.0
6,3.5160000324249268,distr,56483.99996757507,Mon Feb 03 2025 14:24:59 GMT-0600 (Central Standard Time),764731.3999999994,B,oc,I,c,216,1,632.6999999992549,764098.7000000002,8026,WL,B,2.0
6,3.7829999923706055,distr,56217.000007629395,Mon Feb 03 2025 14:24:59 GMT-0600 (Central Standard Time),764997.7999999998,B,oce,I,e,255,1,899.0999999996275,764098.7000000002,8026,WL,B,2.0
6,4.065999984741211,distr,55934.00001525879,Mon Feb 03 2025 14:24:59 GMT-0600 (Central Standard Time),765281.0999999996,B,ocea,I,a,261,1,1182.3999999994412,764098.7000000002,8026,WL,B,2.0
6,4.381999969482422,distr,55618.00003051758,Mon Feb 03 2025 14:24:59 GMT-0600 (Central Standard Time),765597.5999999996,B,ocean,I,n,296,1,1498.8999999994412,764098.7000000002,8026,WL,B,2.0
6,5.264999866485596,distr,54735.000133514404,Mon Feb 03 2025 14:24:59 GMT-0600 (Central Standard Time),766480.5999999996,B,oceanenter,I,enter,859,1,2381.899999999441,764098.7000000002,8026,WL,B,2.0
6,5.948999881744385,distr,54051.000118255615,Mon Feb 03 2025 14:24:59 GMT-0600 (Central Standard Time),767163.7999999998,B,p,I,p,674,1,683.0,766480.7999999998,8026,WL,B,3.0
6,6.115000009536743,distr,53884.99999046326,Mon Feb 03 2025 14:24:59 GMT-0600 (Central Standard Time),767330.2999999998,B,pa,I,a,157,1,849.5,766480.7999999998,8026,WL,B,3.0
6,6.332000017166138,distr,53667.99998283386,Mon Feb 03 2025 14:24:59 GMT-0600 (Central Standard Time),767547.0999999996,B,pal,I,l,199,1,1066.2999999998137,766480.7999999998,8026,WL,B,3.0
6,6.924999952316284,distr,53075.000047683716,Mon Feb 03 2025 14:24:59 GMT-0600 (Central Standard Time),768140.0,B,pala,I,a,439,1,1659.2000000001863,766480.7999999998,8026,WL,B,3.0
6,7.047999858856201,distr,52952.0001411438,Mon Feb 03 2025 14:24:59 GMT-0600 (Central Standard Time),768263.2999999998,B,palab,I,b,106,1,1782.5,766480.7999999998,8026,WL,B,3.0
6,7.63100004196167,distr,52368.99995803833,Mon Feb 03 2025 14:24:59 GMT-0600 (Central Standard Time),768846.2999999998,B,pala,I,backspace,571,1,2365.5,766480.7999999998,8026,WL,B,3.0
6,7.797999858856201,distr,52202.0001411438,Mon Feb 03 2025 14:24:59 GMT-0600 (Central Standard Time),769013.0,B,palac,I,c,146,1,2532.2000000001863,766480.7999999998,8026,WL,B,3.0
6,8.063999891281128,distr,51936.00010871887,Mon Feb 03 2025 14:24:59 GMT-0600 (Central Standard Time),769279.5999999996,B,palace,I,e,250,1,2798.7999999998137,766480.7999999998,8026,WL,B,3.0
6,9.04699993133545,distr,50953.00006866455,Mon Feb 03 2025 14:24:59 GMT-0600 (Central Standard Time),770262.5999999996,B,palaceenter,I,enter,961,1,3781.7999999998137,766480.7999999998,8026,WL,B,3.0
6,11.646999835968018,distr,48353.00016403198,Mon Feb 03 2025 14:24:59 GMT-0600 (Central Standard Time),772862.0999999996,B,d,I,d,2580,1,2599.2999999998137,770262.7999999998,8026,WL,B,4.0
6,11.863999843597412,distr,48136.00015640259,Mon Feb 03 2025 14:24:59 GMT-0600 (Central Standard Time),773079.0,B,dr,I,r,195,1,2816.2000000001863,770262.7999999998,8026,WL,B,4.0
6,12.04699993133545,distr,47953.00006866455,Mon Feb 03 2025 14:24:59 GMT-0600 (Central Standard Time),773262.0999999996,B,dre,I,e,162,1,2999.2999999998137,770262.7999999998,8026,WL,B,4.0
6,12.313999891281128,distr,47686.00010871887,Mon Feb 03 2025 14:24:59 GMT-0600 (Central Standard Time),773528.7999999998,B,dres,I,s,252,1,3266.0,770262.7999999998,8026,WL,B,4.0
6,12.480000019073486,distr,47519.999980926514,Mon Feb 03 2025 14:24:59 GMT-0600 (Central Standard Time),773695.0999999996,B,dress,I,s,145,1,3432.2999999998137,770262.7999999998,8026,WL,B,4.0
6,12.812999963760376,distr,47187.000036239624,Mon Feb 03 2025 14:24:59 GMT-0600 (Central Standard Time),774028.3999999994,B,dressenter,I,enter,315,1,3765.5999999996275,770262.7999999998,8026,WL,B,4.0
6,13.129999876022339,distr,46870.00012397766,Mon Feb 03 2025 14:24:59 GMT-0600 (Central Standard Time),774344.7999999998,B,s,I,s,302,1,316.0,774028.7999999998,8026,WL,B,5.0
6,13.496000051498413,distr,46503.99994850159,Mon Feb 03 2025 14:24:59 GMT-0600 (Central Standard Time),774711.7000000002,B,st,I,t,344,1,682.9000000003725,774028.7999999998,8026,WL,B,5.0
6,13.728999853134155,distr,46271.000146865845,Mon Feb 03 2025 14:24:59 GMT-0600 (Central Standard Time),774944.5,B,ste,I,e,217,1,915.7000000001863,774028.7999999998,8026,WL,B,5.0
6,14.145999908447266,distr,45854.000091552734,Mon Feb 03 2025 14:24:59 GMT-0600 (Central Standard Time),775361.3999999994,B,stea,I,a,402,1,1332.5999999996275,774028.7999999998,8026,WL,B,5.0
6,14.546000003814697,distr,45453.9999961853,Mon Feb 03 2025 14:24:59 GMT-0600 (Central Standard Time),775761.0999999996,B,steam,I,m,383,1,1732.2999999998137,774028.7999999998,8026,WL,B,5.0
6,15.461999893188477,distr,44538.00010681152,Mon Feb 03 2025 14:24:59 GMT-0600 (Central Standard Time),776677.5,B,steamenter,I,enter,897,1,2648.7000000001863,774028.7999999998,8026,WL,B,5.0
6,15.796000003814697,distr,44203.9999961853,Mon Feb 03 2025 14:24:59 GMT-0600 (Central Standard Time),777010.8999999994,B,l,I,l,324,1,333.09999999962747,776677.7999999998,8026,WL,B,6.0
6,16.111999988555908,distr,43888.00001144409,Mon Feb 03 2025 14:24:59 GMT-0600 (Central Standard Time),777327.5,B,li,I,i,294,1,649.7000000001863,776677.7999999998,8026,WL,B,6.0
6,17.294999837875366,distr,42705.000162124634,Mon Feb 03 2025 14:24:59 GMT-0600 (Central Standard Time),778510.3999999994,B,lip,I,p,1163,1,1832.5999999996275,776677.7999999998,8026,WL,B,6.0
6,17.84500002861023,distr,42154.99997138977,Mon Feb 03 2025 14:24:59 GMT-0600 (Central Standard Time),779060.0999999996,B,lipenter,I,enter,530,1,2382.2999999998137,776677.7999999998,8026,WL,B,6.0
6,19.3439998626709,distr,40656.0001373291,Mon Feb 03 2025 14:24:59 GMT-0600 (Central Standard Time),780559.7999999998,B,c,I,c,1478,1,1499.4000000003725,779060.3999999994,8026,WL,B,7.0
6,19.51099991798401,distr,40489.00008201599,Mon Feb 03 2025 14:24:59 GMT-0600 (Central Standard Time),780726.3999999994,B,co,I,o,145,1,1666.0,779060.3999999994,8026,WL,B,7.0
6,19.677000045776367,distr,40322.99995422363,Mon Feb 03 2025 14:24:59 GMT-0600 (Central Standard Time),780892.8999999994,B,coi,I,i,155,1,1832.5,779060.3999999994,8026,WL,B,7.0
6,19.8439998626709,distr,40156.0001373291,Mon Feb 03 2025 14:24:59 GMT-0600 (Central Standard Time),781059.5999999996,B,coin,I,n,150,1,1999.2000000001863,779060.3999999994,8026,WL,B,7.0
6,20.40999984741211,distr,39590.00015258789,Mon Feb 03 2025 14:24:59 GMT-0600 (Central Standard Time),781626.0,B,coinenter,I,enter,551,1,2565.600000000559,779060.3999999994,8026,WL,B,7.0
6,21.942999839782715,distr,38057.000160217285,Mon Feb 03 2025 14:24:59 GMT-0600 (Central Standard Time),783158.8999999994,B,r,I,r,1513,1,1532.5999999996275,781626.2999999998,8026,WL,B,8.0
6,22.177000045776367,distr,37822.99995422363,Mon Feb 03 2025 14:24:59 GMT-0600 (Central Standard Time),783392.2999999998,B,ro,I,o,209,1,1766.0,781626.2999999998,8026,WL,B,8.0
6,22.425999879837036,distr,37574.000120162964,Mon Feb 03 2025 14:24:59 GMT-0600 (Central Standard Time),783641.8999999994,B,roc,I,c,234,1,2015.5999999996275,781626.2999999998,8026,WL,B,8.0
6,22.610999822616577,distr,37389.00017738342,Mon Feb 03 2025 14:24:59 GMT-0600 (Central Standard Time),783826.2999999998,B,rock,I,k,176,1,2200.0,781626.2999999998,8026,WL,B,8.0
6,23.075999975204468,distr,36924.00002479553,Mon Feb 03 2025 14:24:59 GMT-0600 (Central Standard Time),784291.8999999994,B,rockenter,I,enter,455,1,2665.5999999996275,781626.2999999998,8026,WL,B,8.0
6,24.026000022888184,distr,35973.99997711182,Mon Feb 03 2025 14:24:59 GMT-0600 (Central Standard Time),785241.5999999996,B,a,I,a,931,1,949.2999999998137,784292.2999999998,8026,WL,B,9.0
6,24.258999824523926,distr,35741.000175476074,Mon Feb 03 2025 14:24:59 GMT-0600 (Central Standard Time),785474.7999999998,B,ar,I,r,224,1,1182.5,784292.2999999998,8026,WL,B,9.0
6,25.22499990463257,distr,34775.00009536743,Mon Feb 03 2025 14:24:59 GMT-0600 (Central Standard Time),786441.0,B,arm,I,m,958,1,2148.7000000001863,784292.2999999998,8026,WL,B,9.0
6,25.592000007629395,distr,34407.999992370605,Mon Feb 03 2025 14:24:59 GMT-0600 (Central Standard Time),786807.5999999996,B,army,I,y,352,1,2515.2999999998137,784292.2999999998,8026,WL,B,9.0
6,26.274999856948853,distr,33725.00014305115,Mon Feb 03 2025 14:24:59 GMT-0600 (Central Standard Time),787490.8999999994,B,armyenter,I,enter,666,1,3198.5999999996275,784292.2999999998,8026,WL,B,9.0
6,27.04200005531311,distr,32957.99994468689,Mon Feb 03 2025 14:24:59 GMT-0600 (Central Standard Time),788257.2999999998,B,s,I,s,750,1,766.2000000001863,787491.0999999996,8026,WL,B,10.0
6,27.241999864578247,distr,32758.000135421753,Mon Feb 03 2025 14:24:59 GMT-0600 (Central Standard Time),788457.0999999996,B,st,I,t,192,1,966.0,787491.0999999996,8026,WL,B,10.0
6,27.592000007629395,distr,32407.999992370605,Mon Feb 03 2025 14:24:59 GMT-0600 (Central Standard Time),788807.0999999996,B,sto,I,o,329,1,1316.0,787491.0999999996,8026,WL,B,10.0
6,27.807999849319458,distr,32192.000150680542,Mon Feb 03 2025 14:24:59 GMT-0600 (Central Standard Time),789023.7000000002,B,stor,I,r,193,1,1532.6000000005588,787491.0999999996,8026,WL,B,10.0
6,28.391000032424927,distr,31608.999967575073,Mon Feb 03 2025 14:24:59 GMT-0600 (Central Standard Time),789606.7999999998,B,storm,I,m,570,1,2115.7000000001863,787491.0999999996,8026,WL,B,10.0
6,28.657999992370605,distr,31342.000007629395,Mon Feb 03 2025 14:24:59 GMT-0600 (Central Standard Time),789873.5,B,stormenter,I,enter,251,1,2382.4000000003725,787491.0999999996,8026,WL,B,10.0
6,35.789000034332275,distr,24210.999965667725,Mon Feb 03 2025 14:24:59 GMT-0600 (Central Standard Time),797004.5,B,b,I,b,7113,1,7130.700000000186,789873.7999999998,8026,WL,B,11.0
6,36.05499982833862,distr,23945.000171661377,Mon Feb 03 2025 14:24:59 GMT-0600 (Central Standard Time),797271.0999999996,B,bu,I,u,245,1,7397.299999999814,789873.7999999998,8026,WL,B,11.0
6,36.289000034332275,distr,23710.999965667725,Mon Feb 03 2025 14:24:59 GMT-0600 (Central Standard Time),797504.3999999994,B,bui,I,i,211,1,7630.5999999996275,789873.7999999998,8026,WL,B,11.0
6,36.50600004196167,distr,23493.99995803833,Mon Feb 03 2025 14:24:59 GMT-0600 (Central Standard Time),797721.2000000002,B,buil,I,l,202,1,7847.4000000003725,789873.7999999998,8026,WL,B,11.0
6,36.83899998664856,distr,23161.00001335144,Mon Feb 03 2025 14:24:59 GMT-0600 (Central Standard Time),798054.0999999996,B,build,I,d,321,1,8180.299999999814,789873.7999999998,8026,WL,B,11.0
6,37.02199983596802,distr,22978.000164031982,Mon Feb 03 2025 14:24:59 GMT-0600 (Central Standard Time),798237.5,B,buildi,I,i,163,1,8363.700000000186,789873.7999999998,8026,WL,B,11.0
6,37.15499997138977,distr,22845.00002861023,Mon Feb 03 2025 14:24:59 GMT-0600 (Central Standard Time),798370.5999999996,B,buildin,I,n,124,1,8496.799999999814,789873.7999999998,8026,WL,B,11.0
6,37.287999868392944,distr,22712.000131607056,Mon Feb 03 2025 14:24:59 GMT-0600 (Central Standard Time),798504.0,B,building,I,g,110,1,8630.200000000186,789873.7999999998,8026,WL,B,11.0
6,37.40499997138977,distr,22595.00002861023,Mon Feb 03 2025 14:24:59 GMT-0600 (Central Standard Time),798620.5999999996,B,buildingenter,I,enter,106,1,8746.799999999814,789873.7999999998,8026,WL,B,11.0
6,39.40400004386902,distr,20595.99995613098,Mon Feb 03 2025 14:24:59 GMT-0600 (Central Standard Time),800620.0999999996,B,v,I,v,1982,1,1999.0999999996275,798621.0,8026,WL,B,12.0
6,39.57099986076355,distr,20429.00013923645,Mon Feb 03 2025 14:24:59 GMT-0600 (Central Standard Time),800786.8999999994,B,vi,I,i,149,1,2165.899999999441,798621.0,8026,WL,B,12.0
6,39.75399994850159,distr,20246.000051498413,Mon Feb 03 2025 14:24:59 GMT-0600 (Central Standard Time),800969.7999999998,B,vil,I,l,175,1,2348.7999999998137,798621.0,8026,WL,B,12.0
6,40.08799982070923,distr,19912.00017929077,Mon Feb 03 2025 14:24:59 GMT-0600 (Central Standard Time),801303.2000000002,B,vill,I,l,313,1,2682.2000000001863,798621.0,8026,WL,B,12.0
6,40.30399990081787,distr,19696.00009918213,Mon Feb 03 2025 14:24:59 GMT-0600 (Central Standard Time),801519.7999999998,B,villa,I,a,203,1,2898.7999999998137,798621.0,8026,WL,B,12.0
6,40.50399994850159,distr,19496.000051498413,Mon Feb 03 2025 14:24:59 GMT-0600 (Central Standard Time),801719.7000000002,B,villag,I,g,185,1,3098.7000000001863,798621.0,8026,WL,B,12.0
6,40.78699994087219,distr,19213.000059127808,Mon Feb 03 2025 14:24:59 GMT-0600 (Central Standard Time),802002.7999999998,B,village,I,e,274,1,3381.7999999998137,798621.0,8026,WL,B,12.0
6,41.38699984550476,distr,18613.00015449524,Mon Feb 03 2025 14:24:59 GMT-0600 (Central Standard Time),802602.7000000002,B,villageenter,I,enter,582,1,3981.7000000001863,798621.0,8026,WL,B,12.0
6,43.20299983024597,distr,16797.00016975403,Mon Feb 03 2025 14:24:59 GMT-0600 (Central Standard Time),804418.8999999994,B,k,I,k,1807,1,1816.0,802602.8999999994,8026,WL,B,13.0
6,43.53699994087219,distr,16463.000059127808,Mon Feb 03 2025 14:24:59 GMT-0600 (Central Standard Time),804752.2000000002,B,ki,I,i,310,1,2149.300000000745,802602.8999999994,8026,WL,B,13.0
6,44.11999988555908,distr,15880.000114440918,Mon Feb 03 2025 14:24:59 GMT-0600 (Central Standard Time),805335.2999999998,B,k,I,backspace,560,1,2732.4000000003725,802602.8999999994,8026,WL,B,13.0
6,44.28699994087219,distr,15713.000059127808,Mon Feb 03 2025 14:24:59 GMT-0600 (Central Standard Time),805502.0,B,,I,backspace,153,1,2899.100000000559,802602.8999999994,8026,WL,B,13.0
6,44.8529999256134,distr,15147.000074386597,Mon Feb 03 2025 14:24:59 GMT-0600 (Central Standard Time),806068.3999999994,B,l,I,l,548,1,3465.5,802602.8999999994,8026,WL,B,13.0
6,45.15299987792969,distr,14847.000122070312,Mon Feb 03 2025 14:24:59 GMT-0600 (Central Standard Time),806368.3999999994,B,li,I,i,284,1,3765.5,802602.8999999994,8026,WL,B,13.0
6,45.38699984550476,distr,14613.00015449524,Mon Feb 03 2025 14:24:59 GMT-0600 (Central Standard Time),806602.5999999996,B,lip,I,p,226,1,3999.7000000001863,802602.8999999994,8026,WL,B,13.0
6,46.11899995803833,distr,13881.00004196167,Mon Feb 03 2025 14:24:59 GMT-0600 (Central Standard Time),807334.5999999996,B,lipenter,I,enter,718,1,4731.700000000186,802602.8999999994,8026,WL,B,13.0
6,59.69799995422363,distr,302.0000457763672,Mon Feb 03 2025 14:24:59 GMT-0600 (Central Standard Time),820913.5999999996,B,f,I,f,13571,1,13578.700000000186,807334.8999999994,8026,WL,B,14.0
6,59.931999921798706,distr,68.00007820129395,Mon Feb 03 2025 14:24:59 GMT-0600 (Central Standard Time),821147.2999999998,B,fr,I,r,215,1,13812.400000000373,807334.8999999994,8026,WL,B,14.0
6,60.014999866485596,distr,-14.999866485595703,Mon Feb 03 2025 14:24:59 GMT-0600 (Central Standard Time),821230.2999999998,B,frNone,I,None,76,1,13895.400000000373,807334.8999999994,8026,WL,B,14.0
7,11.61300015449524,immed,48386.99984550476,Mon Feb 03 2025 14:24:59 GMT-0600 (Central Standard Time),841624.0,A,s,I,s,11599,1,11613.0,830011.0,8026,WL,B,1.0
7,11.930000066757202,immed,48069.9999332428,Mon Feb 03 2025 14:24:59 GMT-0600 (Central Standard Time),841940.5999999996,A,st,I,t,305,1,11929.599999999627,830011.0,8026,WL,B,1.0
7,12.17900013923645,immed,47820.99986076355,Mon Feb 03 2025 14:24:59 GMT-0600 (Central Standard Time),842190.2000000002,A,str,I,r,229,1,12179.200000000186,830011.0,8026,WL,B,1.0
7,12.380000114440918,immed,47619.99988555908,Mon Feb 03 2025 14:24:59 GMT-0600 (Central Standard Time),842390.3999999994,A,stre,I,e,180,1,12379.399999999441,830011.0,8026,WL,B,1.0
7,12.480000019073486,immed,47519.999980926514,Mon Feb 03 2025 14:24:59 GMT-0600 (Central Standard Time),842490.2999999998,A,stree,I,e,91,1,12479.299999999814,830011.0,8026,WL,B,1.0
7,12.946000099182129,immed,47053.99990081787,Mon Feb 03 2025 14:24:59 GMT-0600 (Central Standard Time),842956.7000000002,A,street,I,t,455,1,12945.700000000186,830011.0,8026,WL,B,1.0
7,14.779000043869019,immed,45220.99995613098,Mon Feb 03 2025 14:24:59 GMT-0600 (Central Standard Time),844789.8999999994,A,streetenter,I,enter,1821,1,14778.899999999441,830011.0,8026,WL,B,1.0
7,15.728000164031982,immed,44271.99983596802,Mon Feb 03 2025 14:24:59 GMT-0600 (Central Standard Time),845739.2000000002,A,g,I,g,932,1,949.0,844790.2000000002,8026,WL,B,2.0
7,15.945000171661377,immed,44054.99982833862,Mon Feb 03 2025 14:24:59 GMT-0600 (Central Standard Time),845955.7999999998,A,gr,I,r,199,1,1165.5999999996275,844790.2000000002,8026,WL,B,2.0
7,16.195000171661377,immed,43804.99982833862,Mon Feb 03 2025 14:24:59 GMT-0600 (Central Standard Time),846205.8999999994,A,gra,I,a,230,1,1415.699999999255,844790.2000000002,8026,WL,B,2.0
7,16.478000164031982,immed,43521.99983596802,Mon Feb 03 2025 14:24:59 GMT-0600 (Central Standard Time),846488.7000000002,A,gras,I,s,275,1,1698.5,844790.2000000002,8026,WL,B,2.0
7,16.628000020980835,immed,43371.999979019165,Mon Feb 03 2025 14:24:59 GMT-0600 (Central Standard Time),846638.8999999994,A,grass,I,s,137,1,1848.699999999255,844790.2000000002,8026,WL,B,2.0
7,17.778000116348267,immed,42221.99988365173,Mon Feb 03 2025 14:24:59 GMT-0600 (Central Standard Time),847788.7000000002,A,grassenter,I,enter,1138,1,2998.5,844790.2000000002,8026,WL,B,2.0
7,18.07800006866455,immed,41921.99993133545,Mon Feb 03 2025 14:24:59 GMT-0600 (Central Standard Time),848088.5999999996,A,d,I,d,286,1,299.70000000018626,847788.8999999994,8026,WL,B,3.0
7,18.344000101089478,immed,41655.99989891052,Mon Feb 03 2025 14:24:59 GMT-0600 (Central Standard Time),848355.0999999996,A,do,I,o,250,1,566.2000000001863,847788.8999999994,8026,WL,B,3.0
7,18.461000204086304,immed,41538.999795913696,Mon Feb 03 2025 14:24:59 GMT-0600 (Central Standard Time),848471.7000000002,A,doo,I,o,94,1,682.8000000007451,847788.8999999994,8026,WL,B,3.0
7,18.628000020980835,immed,41371.999979019165,Mon Feb 03 2025 14:24:59 GMT-0600 (Central Standard Time),848638.3999999994,A,door,I,r,153,1,849.5,847788.8999999994,8026,WL,B,3.0
7,19.24400019645691,immed,40755.99980354309,Mon Feb 03 2025 14:24:59 GMT-0600 (Central Standard Time),849254.7999999998,A,doorenter,I,enter,595,1,1465.9000000003725,847788.8999999994,8026,WL,B,3.0
7,19.694000005722046,immed,40305.999994277954,Mon Feb 03 2025 14:24:59 GMT-0600 (Central Standard Time),849704.7000000002,A,a,I,a,436,1,449.6000000005588,849255.0999999996,8026,WL,B,4.0
7,19.877000093460083,immed,40122.99990653992,Mon Feb 03 2025 14:24:59 GMT-0600 (Central Standard Time),849887.8999999994,A,ar,I,r,169,1,632.7999999998137,849255.0999999996,8026,WL,B,4.0
7,20.194000005722046,immed,39805.999994277954,Mon Feb 03 2025 14:24:59 GMT-0600 (Central Standard Time),850204.5999999996,A,arm,I,m,298,1,949.5,849255.0999999996,8026,WL,B,4.0
7,20.47699999809265,immed,39523.00000190735,Mon Feb 03 2025 14:24:59 GMT-0600 (Central Standard Time),850487.7000000002,A,armenter,I,enter,261,1,1232.6000000005588,849255.0999999996,8026,WL,B,4.0
7,24.442000150680542,immed,35557.99984931946,Mon Feb 03 2025 14:24:59 GMT-0600 (Central Standard Time),854453.2000000002,A,s,I,s,3955,1,3965.2000000001863,850488.0,8026,WL,B,5.0
7,24.609000205993652,immed,35390.99979400635,Mon Feb 03 2025 14:24:59 GMT-0600 (Central Standard Time),854619.7999999998,A,st,I,t,148,1,4131.799999999814,850488.0,8026,WL,B,5.0
7,24.759000062942505,immed,35240.999937057495,Mon Feb 03 2025 14:24:59 GMT-0600 (Central Standard Time),854769.5,A,sta,I,a,141,1,4281.5,850488.0,8026,WL,B,5.0
7,24.960000038146973,immed,35039.99996185303,Mon Feb 03 2025 14:24:59 GMT-0600 (Central Standard Time),854970.5999999996,A,star,I,r,191,1,4482.5999999996275,850488.0,8026,WL,B,5.0
7,25.259000062942505,immed,34740.999937057495,Mon Feb 03 2025 14:24:59 GMT-0600 (Central Standard Time),855269.5999999996,A,starenter,I,enter,286,1,4781.5999999996275,850488.0,8026,WL,B,5.0
7,25.625,immed,34375.0,Mon Feb 03 2025 14:24:59 GMT-0600 (Central Standard Time),855636.2999999998,A,w,I,w,347,1,366.29999999981374,855270.0,8026,WL,B,6.0
7,25.79200005531311,immed,34207.99994468689,Mon Feb 03 2025 14:24:59 GMT-0600 (Central Standard Time),855802.7000000002,A,wi,I,i,149,1,532.7000000001863,855270.0,8026,WL,B,6.0
7,26.009000062942505,immed,33990.999937057495,Mon Feb 03 2025 14:24:59 GMT-0600 (Central Standard Time),856019.5,A,wif,I,f,198,1,749.5,855270.0,8026,WL,B,6.0
7,26.175000190734863,immed,33824.99980926514,Mon Feb 03 2025 14:24:59 GMT-0600 (Central Standard Time),856186.0999999996,A,wife,I,e,149,1,916.0999999996275,855270.0,8026,WL,B,6.0
7,26.642000198364258,immed,33357.99980163574,Mon Feb 03 2025 14:24:59 GMT-0600 (Central Standard Time),856652.5999999996,A,wifeenter,I,enter,455,1,1382.5999999996275,855270.0,8026,WL,B,6.0
7,29.707000017166138,immed,30292.999982833862,Mon Feb 03 2025 14:24:59 GMT-0600 (Central Standard Time),859718.2999999998,A,w,I,w,3046,1,3065.4000000003725,856652.8999999994,8026,WL,B,7.0
7,29.824000120162964,immed,30175.999879837036,Mon Feb 03 2025 14:24:59 GMT-0600 (Central Standard Time),859834.7999999998,A,wi,I,i,108,1,3181.9000000003725,856652.8999999994,8026,WL,B,7.0
7,29.974000215530396,immed,30025.999784469604,Mon Feb 03 2025 14:24:59 GMT-0600 (Central Standard Time),859985.0,A,win,I,n,144,1,3332.100000000559,856652.8999999994,8026,WL,B,7.0
7,30.091000080108643,immed,29908.999919891357,Mon Feb 03 2025 14:24:59 GMT-0600 (Central Standard Time),860101.7000000002,A,wind,I,d,104,1,3448.800000000745,856652.8999999994,8026,WL,B,7.0
7,30.44099998474121,immed,29559.00001525879,Mon Feb 03 2025 14:24:59 GMT-0600 (Central Standard Time),860451.2999999998,A,windo,I,o,340,1,3798.4000000003725,856652.8999999994,8026,WL,B,7.0
7,30.740000009536743,immed,29259.999990463257,Mon Feb 03 2025 14:24:59 GMT-0600 (Central Standard Time),860751.2000000002,A,window,I,w,285,1,4098.300000000745,856652.8999999994,8026,WL,B,7.0
7,31.240000009536743,immed,28759.999990463257,Mon Feb 03 2025 14:24:59 GMT-0600 (Central Standard Time),861251.0,A,windowenter,I,enter,483,1,4598.100000000559,856652.8999999994,8026,WL,B,7.0
7,32.28200006484985,immed,27717.999935150146,Mon Feb 03 2025 14:24:59 GMT-0600 (Central Standard Time),862292.5999999996,A,i,I,i,1034,1,1041.2999999998137,861251.2999999998,8026,WL,B,8.0
7,32.85600018501282,immed,27143.999814987183,Mon Feb 03 2025 14:24:59 GMT-0600 (Central Standard Time),862867.2000000002,A,,I,backspace,562,1,1615.9000000003725,861251.2999999998,8026,WL,B,8.0
7,32.99000000953674,immed,27009.999990463257,Mon Feb 03 2025 14:24:59 GMT-0600 (Central Standard Time),863001.0,A,c,I,c,127,1,1749.7000000001863,861251.2999999998,8026,WL,B,8.0
7,33.223000049591064,immed,26776.999950408936,Mon Feb 03 2025 14:24:59 GMT-0600 (Central Standard Time),863233.8999999994,A,ct,I,t,216,1,1982.5999999996275,861251.2999999998,8026,WL,B,8.0
7,33.35600018501282,immed,26643.999814987183,Mon Feb 03 2025 14:24:59 GMT-0600 (Central Standard Time),863367.0,A,cti,I,i,119,1,2115.7000000001863,861251.2999999998,8026,WL,B,8.0
7,33.956000089645386,immed,26043.999910354614,Mon Feb 03 2025 14:24:59 GMT-0600 (Central Standard Time),863966.7000000002,A,ct,I,backspace,587,1,2715.4000000003725,861251.2999999998,8026,WL,B,8.0
7,34.08899998664856,immed,25911.00001335144,Mon Feb 03 2025 14:24:59 GMT-0600 (Central Standard Time),864100.2999999998,A,c,I,backspace,114,1,2849.0,861251.2999999998,8026,WL,B,8.0
7,34.373000144958496,immed,25626.999855041504,Mon Feb 03 2025 14:24:59 GMT-0600 (Central Standard Time),864383.5,A,ci,I,i,260,1,3132.2000000001863,861251.2999999998,8026,WL,B,8.0
7,34.60600018501282,immed,25393.999814987183,Mon Feb 03 2025 14:24:59 GMT-0600 (Central Standard Time),864616.7000000002,A,ciy,I,y,210,1,3365.4000000003725,861251.2999999998,8026,WL,B,8.0
7,35.22200012207031,immed,24777.999877929688,Mon Feb 03 2025 14:24:59 GMT-0600 (Central Standard Time),865233.2000000002,A,ci,I,backspace,600,1,3981.9000000003725,861251.2999999998,8026,WL,B,8.0
7,35.35600018501282,immed,24643.999814987183,Mon Feb 03 2025 14:24:59 GMT-0600 (Central Standard Time),865366.5999999996,A,cit,I,t,112,1,4115.299999999814,861251.2999999998,8026,WL,B,8.0
7,35.539000034332275,immed,24460.999965667725,Mon Feb 03 2025 14:24:59 GMT-0600 (Central Standard Time),865549.7000000002,A,city,I,y,162,1,4298.4000000003725,861251.2999999998,8026,WL,B,8.0
7,36.33899998664856,immed,23661.00001335144,Mon Feb 03 2025 14:24:59 GMT-0600 (Central Standard Time),866349.5999999996,A,cityenter,I,enter,780,1,5098.299999999814,861251.2999999998,8026,WL,B,8.0
7,37.58800005912781,immed,22411.999940872192,Mon Feb 03 2025 14:24:59 GMT-0600 (Central Standard Time),867599.0999999996,A,p,I,p,1236,1,1249.2000000001863,866349.8999999994,8026,WL,B,9.0
7,37.7720000743866,immed,22227.999925613403,Mon Feb 03 2025 14:24:59 GMT-0600 (Central Standard Time),867782.5999999996,A,pu,I,u,163,1,1432.7000000001863,866349.8999999994,8026,WL,B,9.0
7,38.205000162124634,immed,21794.999837875366,Mon Feb 03 2025 14:24:59 GMT-0600 (Central Standard Time),868215.7000000002,A,pup,I,p,420,1,1865.800000000745,866349.8999999994,8026,WL,B,9.0
7,38.521000146865845,immed,21478.999853134155,Mon Feb 03 2025 14:24:59 GMT-0600 (Central Standard Time),868532.0,A,pupi,I,i,299,1,2182.100000000559,866349.8999999994,8026,WL,B,9.0
7,38.771000146865845,immed,21228.999853134155,Mon Feb 03 2025 14:24:59 GMT-0600 (Central Standard Time),868782.0,A,pupil,I,l,230,1,2432.100000000559,866349.8999999994,8026,WL,B,9.0
7,39.32100009918213,immed,20678.99990081787,Mon Feb 03 2025 14:24:59 GMT-0600 (Central Standard Time),869331.7999999998,A,pupilenter,I,enter,540,1,2981.9000000003725,866349.8999999994,8026,WL,B,9.0
7,40.15400004386902,immed,19845.99995613098,Mon Feb 03 2025 14:24:59 GMT-0600 (Central Standard Time),870165.0,A,c,I,c,814,1,832.7999999998137,869332.2000000002,8026,WL,B,10.0
7,40.30400013923645,immed,19695.99986076355,Mon Feb 03 2025 14:24:59 GMT-0600 (Central Standard Time),870314.8999999994,A,ca,I,a,133,1,982.6999999992549,869332.2000000002,8026,WL,B,10.0
7,40.521000146865845,immed,19478.999853134155,Mon Feb 03 2025 14:24:59 GMT-0600 (Central Standard Time),870531.5999999996,A,cab,I,b,207,1,1199.3999999994412,869332.2000000002,8026,WL,B,10.0
7,40.80400013923645,immed,19195.99986076355,Mon Feb 03 2025 14:24:59 GMT-0600 (Central Standard Time),870814.5,A,cabi,I,i,269,1,1482.2999999998137,869332.2000000002,8026,WL,B,10.0
7,40.97100019454956,immed,19028.99980545044,Mon Feb 03 2025 14:24:59 GMT-0600 (Central Standard Time),870981.5,A,cabin,I,n,147,1,1649.2999999998137,869332.2000000002,8026,WL,B,10.0
7,41.437000036239624,immed,18562.999963760376,Mon Feb 03 2025 14:24:59 GMT-0600 (Central Standard Time),871448.0,A,cabinenter,I,enter,443,1,2115.7999999998137,869332.2000000002,8026,WL,B,10.0
7,41.78700017929077,immed,18212.99982070923,Mon Feb 03 2025 14:24:59 GMT-0600 (Central Standard Time),871798.0,A,l,I,l,338,1,349.70000000018626,871448.2999999998,8026,WL,B,11.0
