acc_sum,block,block_c,change,condition,correct,correct_response,datetime,endtime,face,project,response,response_time,row_sel,session_number,start_end,starttime,subject_id,task,task_vers,trial
0,prac,1,,1-Back,,,Wed Jan 15 2025 14:00:31 GMT-0600 (Central Standard Time),,005_o_f_d_a.png,I,space,4531,1,2,,,8005,VNB,B,0
0,prac,1,0.0,1-Back,0,m,Wed Jan 15 2025 14:00:31 GMT-0600 (Central Standard Time),114779.89999999851,020_y_f_n_a.png,I,None,2013,2,2,2875.39999999851,111904.5,8005,VNB,B,1
1,prac,1,0.0,1-Back,1,m,Wed Jan 15 2025 14:00:31 GMT-0600 (Central Standard Time),116612.69999999553,007_m_m_h_a.png,I,m,938,3,2,1829.0,114783.69999999553,8005,VNB,B,2
2,prac,1,0.0,1-Back,1,m,Wed Jan 15 2025 14:00:31 GMT-0600 (Central Standard Time),118162.0,016_y_m_d_a.png,I,m,659,4,2,1544.1000000014901,116617.89999999851,8005,VNB,B,3
3,prac,1,0.0,1-Back,1,m,Wed Jan 15 2025 14:00:31 GMT-0600 (Central Standard Time),120078.0,005_o_f_n_a.png,I,m,1023,5,2,1911.6000000014901,118166.39999999851,8005,VNB,B,4
3,prac,1,1.0,1-Back,0,z,Wed Jan 15 2025 14:00:31 GMT-0600 (Central Standard Time),121644.29999999702,016_y_m_n_a.png,I,m,672,6,2,1563.0,120081.29999999702,8005,VNB,B,5
4,prac,1,0.0,1-Back,1,m,Wed Jan 15 2025 14:00:31 GMT-0600 (Central Standard Time),123194.0,004_o_m_h_a.png,I,m,671,7,2,1545.8000000044703,121648.19999999553,8005,VNB,B,6
5,prac,1,0.0,1-Back,1,m,Wed Jan 15 2025 14:00:31 GMT-0600 (Central Standard Time),124676.79999999702,011_m_f_d_a.png,I,m,601,8,2,1479.0,123197.79999999702,8005,VNB,B,7
6,prac,1,1.0,1-Back,1,z,Wed Jan 15 2025 14:00:31 GMT-0600 (Central Standard Time),126093.0,020_y_f_d_a.png,I,z,535,9,2,1410.7000000029802,124682.29999999702,8005,VNB,B,8
7,prac,1,0.0,1-Back,1,m,Wed Jan 15 2025 14:00:31 GMT-0600 (Central Standard Time),127676.0,007_m_m_n_a.png,I,m,689,10,2,1579.1000000014901,126096.89999999851,8005,VNB,B,9
8,prac,1,0.0,1-Back,1,m,Wed Jan 15 2025 14:00:31 GMT-0600 (Central Standard Time),129392.10000000149,005_o_f_h_a.png,I,m,831,11,2,1712.7000000029802,127679.39999999851,8005,VNB,B,10
9,prac,1,0.0,1-Back,1,m,Wed Jan 15 2025 14:00:31 GMT-0600 (Central Standard Time),130825.0,016_y_m_d_a.png,I,m,547,12,2,1429.2000000029802,129395.79999999702,8005,VNB,B,11
0,test,1,0.0,1-Back,,,Wed Jan 15 2025 14:00:31 GMT-0600 (Central Standard Time),130825.0,020_y_f_d_a.png,I,space,7298,1,2,1429.2000000029802,129395.79999999702,8005,VNB,B,0
1,test,1,0.0,1-Back,1,m,Wed Jan 15 2025 14:00:31 GMT-0600 (Central Standard Time),145603.5,011_m_f_n_a.png,I,m,887,2,2,1913.6000000014901,143689.8999999985,8005,VNB,B,1
2,test,1,0.0,1-Back,1,m,Wed Jan 15 2025 14:00:31 GMT-0600 (Central Standard Time),147219.8999999985,004_o_m_h_a.png,I,m,588,3,2,1613.7000000029802,145606.19999999553,8005,VNB,B,2
3,test,1,1.0,1-Back,1,z,Wed Jan 15 2025 14:00:31 GMT-0600 (Central Standard Time),148652.69999999553,007_m_m_h_a.png,I,z,412,4,2,1430.2999999970198,147222.3999999985,8005,VNB,B,3
4,test,1,0.0,1-Back,1,m,Wed Jan 15 2025 14:00:31 GMT-0600 (Central Standard Time),150252.1000000015,005_o_f_n_a.png,I,m,571,5,2,1596.8000000044703,148655.29999999702,8005,VNB,B,4
4,test,1,0.0,1-Back,0,m,Wed Jan 15 2025 14:00:31 GMT-0600 (Central Standard Time),151934.8999999985,016_y_m_d_a.png,I,z,652,6,2,1680.3999999985099,150254.5,8005,VNB,B,5
4,test,1,1.0,1-Back,0,z,Wed Jan 15 2025 14:00:31 GMT-0600 (Central Standard Time),154017.5,011_m_f_d_a.png,I,m,1057,7,2,2080.10000000149,151937.3999999985,8005,VNB,B,6
5,test,1,0.0,1-Back,1,m,Wed Jan 15 2025 14:00:31 GMT-0600 (Central Standard Time),156000.19999999553,020_y_f_h_a.png,I,m,958,8,2,1979.5999999940395,154020.6000000015,8005,VNB,B,7
6,test,1,0.0,1-Back,1,m,Wed Jan 15 2025 14:00:31 GMT-0600 (Central Standard Time),157949.5,004_o_m_n_a.png,I,m,920,9,2,1946.5,156003.0,8005,VNB,B,8
7,test,1,0.0,1-Back,1,m,Wed Jan 15 2025 14:00:31 GMT-0600 (Central Standard Time),159566.6000000015,016_y_m_h_a.png,I,m,594,10,2,1614.8000000044703,157951.79999999702,8005,VNB,B,9
8,test,1,0.0,1-Back,1,m,Wed Jan 15 2025 14:00:31 GMT-0600 (Central Standard Time),161248.5,004_o_m_d_a.png,I,m,655,11,2,1679.3000000044703,159569.19999999553,8005,VNB,B,10
9,test,1,1.0,1-Back,1,z,Wed Jan 15 2025 14:00:31 GMT-0600 (Central Standard Time),162731.5,005_o_f_d_a.png,I,z,455,12,2,1480.5,161251.0,8005,VNB,B,11
10,test,1,0.0,1-Back,1,m,Wed Jan 15 2025 14:00:31 GMT-0600 (Central Standard Time),164530.8999999985,007_m_m_n_a.png,I,m,772,13,2,1797.0,162733.8999999985,8005,VNB,B,12
11,test,1,1.0,1-Back,1,z,Wed Jan 15 2025 14:00:31 GMT-0600 (Central Standard Time),166630.29999999702,020_y_f_n_a.png,I,z,1077,14,2,2097.1999999955297,164533.1000000015,8005,VNB,B,13
12,test,1,0.0,1-Back,1,m,Wed Jan 15 2025 14:00:31 GMT-0600 (Central Standard Time),168596.3999999985,011_m_f_h_a.png,I,m,946,15,2,1963.6000000014901,166632.79999999702,8005,VNB,B,14
13,test,1,0.0,1-Back,1,m,Wed Jan 15 2025 14:00:31 GMT-0600 (Central Standard Time),170195.79999999702,007_m_m_d_a.png,I,m,580,16,2,1596.7999999970198,168599.0,8005,VNB,B,15
14,test,1,0.0,1-Back,1,m,Wed Jan 15 2025 14:00:31 GMT-0600 (Central Standard Time),171961.8999999985,016_y_m_n_a.png,I,m,740,17,2,1763.5,170198.3999999985,8005,VNB,B,16
15,test,1,0.0,1-Back,1,m,Wed Jan 15 2025 14:00:31 GMT-0600 (Central Standard Time),173694.69999999553,005_o_f_h_a.png,I,m,710,18,2,1730.3999999985099,171964.29999999702,8005,VNB,B,17
0,test,2,0.0,1-Back,,,Wed Jan 15 2025 14:00:31 GMT-0600 (Central Standard Time),173694.69999999553,016_y_m_n_a.png,I,space,1378,1,2,1730.3999999985099,171964.29999999702,8005,VNB,B,0
1,test,2,0.0,1-Back,1,m,Wed Jan 15 2025 14:00:31 GMT-0600 (Central Standard Time),178759.8999999985,020_y_f_h_a.png,I,m,634,2,2,1663.6000000014901,177096.29999999702,8005,VNB,B,1
2,test,2,1.0,1-Back,1,m,Wed Jan 15 2025 14:00:31 GMT-0600 (Central Standard Time),180392.6000000015,004_o_m_n_a.png,I,m,608,3,2,1630.0,178762.6000000015,8005,VNB,B,2
3,test,2,0.0,1-Back,1,m,Wed Jan 15 2025 14:00:31 GMT-0600 (Central Standard Time),182258.8999999985,011_m_f_d_a.png,I,m,847,4,2,1863.7999999970198,180395.1000000015,8005,VNB,B,3
4,test,2,0.0,1-Back,1,z,Wed Jan 15 2025 14:00:31 GMT-0600 (Central Standard Time),184274.5,007_m_m_d_a.png,I,z,981,5,2,2013.0,182261.5,8005,VNB,B,4
5,test,2,0.0,1-Back,1,m,Wed Jan 15 2025 14:00:31 GMT-0600 (Central Standard Time),185924.1000000015,016_y_m_h_a.png,I,m,629,6,2,1647.2000000029802,184276.8999999985,8005,VNB,B,5
6,test,2,1.0,1-Back,1,z,Wed Jan 15 2025 14:00:31 GMT-0600 (Central Standard Time),187440.3999999985,005_o_f_h_a.png,I,z,492,7,2,1513.7999999970198,185926.6000000015,8005,VNB,B,6
7,test,2,0.0,1-Back,1,m,Wed Jan 15 2025 14:00:31 GMT-0600 (Central Standard Time),189090.0,011_m_f_n_a.png,I,m,622,8,2,1646.8000000044703,187443.19999999553,8005,VNB,B,7
8,test,2,0.0,1-Back,1,m,Wed Jan 15 2025 14:00:31 GMT-0600 (Central Standard Time),191339.29999999702,020_y_f_d_a.png,I,m,1222,9,2,2246.89999999851,189092.3999999985,8005,VNB,B,8
9,test,2,0.0,1-Back,1,m,Wed Jan 15 2025 14:00:31 GMT-0600 (Central Standard Time),193255.19999999553,007_m_m_n_a.png,I,m,885,10,2,1913.2999999970198,191341.8999999985,8005,VNB,B,9
10,test,2,1.0,1-Back,1,m,Wed Jan 15 2025 14:00:31 GMT-0600 (Central Standard Time),194838.1000000015,011_m_f_h_a.png,I,m,562,11,2,1580.5,193257.6000000015,8005,VNB,B,10
11,test,2,0.0,1-Back,1,z,Wed Jan 15 2025 14:00:31 GMT-0600 (Central Standard Time),196422.1000000015,004_o_m_h_a.png,I,z,554,12,2,1581.4000000059605,194840.69999999553,8005,VNB,B,11
12,test,2,0.0,1-Back,1,m,Wed Jan 15 2025 14:00:31 GMT-0600 (Central Standard Time),198170.69999999553,016_y_m_d_a.png,I,m,731,13,2,1745.8999999985099,196424.79999999702,8005,VNB,B,12
13,test,2,0.0,1-Back,1,m,Wed Jan 15 2025 14:00:31 GMT-0600 (Central Standard Time),200686.5,005_o_f_n_a.png,I,m,1486,14,2,2513.7000000029802,198172.79999999702,8005,VNB,B,13
14,test,2,0.0,1-Back,1,z,Wed Jan 15 2025 14:00:31 GMT-0600 (Central Standard Time),202135.79999999702,020_y_f_n_a.png,I,z,426,15,2,1446.6999999955297,200689.1000000015,8005,VNB,B,14
15,test,2,1.0,1-Back,1,m,Wed Jan 15 2025 14:00:31 GMT-0600 (Central Standard Time),203852.19999999553,007_m_m_h_a.png,I,m,696,16,2,1713.5,202138.69999999553,8005,VNB,B,15
16,test,2,0.0,1-Back,1,m,Wed Jan 15 2025 14:00:31 GMT-0600 (Central Standard Time),205384.8999999985,005_o_f_d_a.png,I,m,500,17,2,1530.3999999985099,203854.5,8005,VNB,B,16
17,test,2,1.0,1-Back,1,z,Wed Jan 15 2025 14:00:31 GMT-0600 (Central Standard Time),207067.6000000015,004_o_m_d_a.png,I,z,655,18,2,1680.3000000044703,205387.29999999702,8005,VNB,B,17
0,test,3,1.0,1-Back,,,Wed Jan 15 2025 14:00:31 GMT-0600 (Central Standard Time),207067.6000000015,005_o_f_h_a.png,I,space,949,1,2,1680.3000000044703,205387.29999999702,8005,VNB,B,0
1,test,3,0.0,1-Back,1,m,Wed Jan 15 2025 14:00:31 GMT-0600 (Central Standard Time),211899.5,011_m_f_d_a.png,I,m,730,2,2,1746.8000000044703,210152.69999999553,8005,VNB,B,1
2,test,3,1.0,1-Back,1,m,Wed Jan 15 2025 14:00:31 GMT-0600 (Central Standard Time),213649.0,007_m_m_n_a.png,I,m,716,3,2,1747.0,211902.0,8005,VNB,B,2
3,test,3,0.0,1-Back,1,z,Wed Jan 15 2025 14:00:31 GMT-0600 (Central Standard Time),215515.19999999553,005_o_f_n_a.png,I,z,839,4,2,1863.7999999970198,213651.3999999985,8005,VNB,B,3
4,test,3,1.0,1-Back,1,m,Wed Jan 15 2025 14:00:31 GMT-0600 (Central Standard Time),217164.29999999702,004_o_m_d_a.png,I,m,629,5,2,1646.6999999955297,215517.6000000015,8005,VNB,B,4
5,test,3,0.0,1-Back,1,m,Wed Jan 15 2025 14:00:31 GMT-0600 (Central Standard Time),218914.0,020_y_f_h_a.png,I,m,715,6,2,1747.1000000014901,217166.8999999985,8005,VNB,B,5
6,test,3,0.0,1-Back,1,z,Wed Jan 15 2025 14:00:31 GMT-0600 (Central Standard Time),220380.19999999553,016_y_m_h_a.png,I,z,446,7,2,1463.5999999940395,218916.6000000015,8005,VNB,B,6
7,test,3,0.0,1-Back,1,m,Wed Jan 15 2025 14:00:31 GMT-0600 (Central Standard Time),221896.5,011_m_f_n_a.png,I,m,492,8,2,1513.8000000044703,220382.69999999553,8005,VNB,B,7
8,test,3,0.0,1-Back,1,m,Wed Jan 15 2025 14:00:31 GMT-0600 (Central Standard Time),223729.29999999702,020_y_f_d_a.png,I,m,808,9,2,1830.1000000014901,221899.19999999553,8005,VNB,B,8
9,test,3,1.0,1-Back,1,m,Wed Jan 15 2025 14:00:31 GMT-0600 (Central Standard Time),225278.6000000015,004_o_m_n_a.png,I,m,527,10,2,1547.1000000014901,223731.5,8005,VNB,B,9
10,test,3,0.0,1-Back,1,m,Wed Jan 15 2025 14:00:31 GMT-0600 (Central Standard Time),226978.1000000015,007_m_m_h_a.png,I,m,673,11,2,1696.5,225281.6000000015,8005,VNB,B,10
11,test,3,0.0,1-Back,1,z,Wed Jan 15 2025 14:00:31 GMT-0600 (Central Standard Time),228427.3999999985,011_m_f_h_a.png,I,z,430,12,2,1446.7999999970198,226980.6000000015,8005,VNB,B,11
12,test,3,1.0,1-Back,1,m,Wed Jan 15 2025 14:00:31 GMT-0600 (Central Standard Time),230193.6000000015,005_o_f_d_a.png,I,m,732,13,2,1764.1000000014901,228429.5,8005,VNB,B,12
13,test,3,0.0,1-Back,1,z,Wed Jan 15 2025 14:00:31 GMT-0600 (Central Standard Time),231693.29999999702,007_m_m_d_a.png,I,z,471,14,2,1497.3999999985099,230195.8999999985,8005,VNB,B,13
14,test,3,0.0,1-Back,1,m,Wed Jan 15 2025 14:00:31 GMT-0600 (Central Standard Time),233192.79999999702,016_y_m_n_a.png,I,m,467,15,2,1496.6000000014901,231696.19999999553,8005,VNB,B,14
15,test,3,1.0,1-Back,1,m,Wed Jan 15 2025 14:00:31 GMT-0600 (Central Standard Time),234892.1000000015,004_o_m_h_a.png,I,m,672,16,2,1696.8000000044703,233195.29999999702,8005,VNB,B,15
16,test,3,0.0,1-Back,1,m,Wed Jan 15 2025 14:00:31 GMT-0600 (Central Standard Time),236591.8999999985,016_y_m_d_a.png,I,m,667,17,2,1697.1000000014901,234894.79999999702,8005,VNB,B,16
17,test,3,1.0,1-Back,1,m,Wed Jan 15 2025 14:00:31 GMT-0600 (Central Standard Time),238324.5,020_y_f_n_a.png,I,m,713,18,2,1730.1000000014901,236594.3999999985,8005,VNB,B,17
0,test,4,1.0,1-Back,,,Wed Jan 15 2025 14:00:31 GMT-0600 (Central Standard Time),238324.5,007_m_m_d_a.png,I,space,932,1,2,1730.1000000014901,236594.3999999985,8005,VNB,B,0
1,test,4,0.0,1-Back,1,z,Wed Jan 15 2025 14:00:31 GMT-0600 (Central Standard Time),243156.6000000015,004_o_m_d_a.png,I,z,837,2,2,1863.9000000059605,241292.69999999553,8005,VNB,B,1
2,test,4,0.0,1-Back,1,m,Wed Jan 15 2025 14:00:31 GMT-0600 (Central Standard Time),244922.69999999553,016_y_m_h_a.png,I,m,747,3,2,1763.5999999940395,243159.1000000015,8005,VNB,B,2
3,test,4,0.0,1-Back,1,m,Wed Jan 15 2025 14:00:31 GMT-0600 (Central Standard Time),246455.19999999553,011_m_f_n_a.png,I,m,509,4,2,1530.1999999955297,244925.0,8005,VNB,B,3
4,test,4,1.0,1-Back,1,m,Wed Jan 15 2025 14:00:31 GMT-0600 (Central Standard Time),248154.79999999702,005_o_f_h_a.png,I,m,665,5,2,1697.2999999970198,246457.5,8005,VNB,B,4
5,test,4,0.0,1-Back,1,m,Wed Jan 15 2025 14:00:31 GMT-0600 (Central Standard Time),249771.0,007_m_m_n_a.png,I,m,590,6,2,1613.7000000029802,248157.29999999702,8005,VNB,B,5
6,test,4,0.0,1-Back,1,m,Wed Jan 15 2025 14:00:31 GMT-0600 (Central Standard Time),251420.5,016_y_m_d_a.png,I,m,629,7,2,1647.1000000014901,249773.3999999985,8005,VNB,B,6
7,test,4,1.0,1-Back,1,z,Wed Jan 15 2025 14:00:31 GMT-0600 (Central Standard Time),252986.79999999702,020_y_f_d_a.png,I,z,548,8,2,1564.0,251422.79999999702,8005,VNB,B,7
8,test,4,0.0,1-Back,1,m,Wed Jan 15 2025 14:00:31 GMT-0600 (Central Standard Time),254700.29999999702,011_m_f_h_a.png,I,m,645,9,2,1711.0,252989.29999999702,8005,VNB,B,8
9,test,4,0.0,1-Back,1,z,Wed Jan 15 2025 14:00:31 GMT-0600 (Central Standard Time),256385.79999999702,004_o_m_h_a.png,I,z,649,10,2,1682.2999999970198,254703.5,8005,VNB,B,9
10,test,4,1.0,1-Back,1,m,Wed Jan 15 2025 14:00:31 GMT-0600 (Central Standard Time),258101.69999999553,005_o_f_n_a.png,I,m,687,11,2,1712.3999999985099,256389.29999999702,8005,VNB,B,10
11,test,4,0.0,1-Back,1,m,Wed Jan 15 2025 14:00:31 GMT-0600 (Central Standard Time),260100.8999999985,011_m_f_d_a.png,I,m,970,12,2,1996.6000000014901,258104.29999999702,8005,VNB,B,11
12,test,4,0.0,1-Back,1,m,Wed Jan 15 2025 14:00:31 GMT-0600 (Central Standard Time),262150.5,020_y_f_n_a.png,I,m,1019,13,2,2047.0,260103.5,8005,VNB,B,12
13,test,4,0.0,1-Back,1,m,Wed Jan 15 2025 14:00:31 GMT-0600 (Central Standard Time),263766.69999999553,005_o_f_d_a.png,I,m,594,14,2,1614.0,262152.69999999553,8005,VNB,B,13
14,test,4,0.0,1-Back,1,m,Wed Jan 15 2025 14:00:31 GMT-0600 (Central Standard Time),265632.69999999553,020_y_f_h_a.png,I,m,841,15,2,1863.7999999970198,263768.8999999985,8005,VNB,B,14
15,test,4,1.0,1-Back,1,z,Wed Jan 15 2025 14:00:31 GMT-0600 (Central Standard Time),267082.3999999985,007_m_m_h_a.png,I,z,423,16,2,1447.1000000014901,265635.299999997,8005,VNB,B,15
16,test,4,0.0,1-Back,1,m,Wed Jan 15 2025 14:00:31 GMT-0600 (Central Standard Time),268698.69999999553,004_o_m_n_a.png,I,m,598,17,2,1614.0999999940395,267084.6000000015,8005,VNB,B,16
17,test,4,1.0,1-Back,1,z,Wed Jan 15 2025 14:00:31 GMT-0600 (Central Standard Time),270164.69999999553,016_y_m_n_a.png,I,z,439,18,2,1463.8999999985099,268700.799999997,8005,VNB,B,17
0,test,5,1.0,1-Back,,,Wed Jan 15 2025 14:00:31 GMT-0600 (Central Standard Time),270164.69999999553,004_o_m_n_a.png,I,space,1628,1,2,1463.8999999985099,268700.799999997,8005,VNB,B,0
1,test,5,1.0,1-Back,1,m,Wed Jan 15 2025 14:00:31 GMT-0600 (Central Standard Time),275646.3999999985,005_o_f_h_a.png,I,m,719,2,2,1747.2999999970198,273899.1000000015,8005,VNB,B,1
2,test,5,0.0,1-Back,1,m,Wed Jan 15 2025 14:00:31 GMT-0600 (Central Standard Time),277295.69999999553,016_y_m_d_a.png,I,m,618,3,2,1646.5,275649.19999999553,8005,VNB,B,2
3,test,5,0.0,1-Back,1,z,Wed Jan 15 2025 14:00:31 GMT-0600 (Central Standard Time),278861.799999997,004_o_m_d_a.png,I,z,543,4,2,1563.8999999985099,277297.8999999985,8005,VNB,B,3
4,test,5,0.0,1-Back,1,m,Wed Jan 15 2025 14:00:31 GMT-0600 (Central Standard Time),280361.299999997,011_m_f_h_a.png,I,m,475,5,2,1496.7999999970198,278864.5,8005,VNB,B,4
5,test,5,0.0,1-Back,1,m,Wed Jan 15 2025 14:00:31 GMT-0600 (Central Standard Time),282127.69999999553,020_y_f_n_a.png,I,m,742,6,2,1763.6999999955297,280364.0,8005,VNB,B,5
6,test,5,1.0,1-Back,1,z,Wed Jan 15 2025 14:00:31 GMT-0600 (Central Standard Time),283643.69999999553,005_o_f_n_a.png,I,z,488,7,2,1513.7999999970198,282129.8999999985,8005,VNB,B,6
7,test,5,0.0,1-Back,1,m,Wed Jan 15 2025 14:00:31 GMT-0600 (Central Standard Time),285376.69999999553,011_m_f_d_a.png,I,m,709,8,2,1730.3999999985099,283646.299999997,8005,VNB,B,7
8,test,5,0.0,1-Back,1,m,Wed Jan 15 2025 14:00:31 GMT-0600 (Central Standard Time),286959.3999999985,016_y_m_h_a.png,I,m,551,9,2,1580.3999999985099,285379.0,8005,VNB,B,8
9,test,5,0.0,1-Back,1,m,Wed Jan 15 2025 14:00:31 GMT-0600 (Central Standard Time),288625.5,020_y_f_d_a.png,I,m,632,10,2,1663.3999999985099,286962.1000000015,8005,VNB,B,9
10,test,5,0.0,1-Back,1,m,Wed Jan 15 2025 14:00:31 GMT-0600 (Central Standard Time),290275.19999999553,007_m_m_n_a.png,I,m,624,11,2,1647.3999999985099,288627.799999997,8005,VNB,B,10
11,test,5,1.0,1-Back,1,z,Wed Jan 15 2025 14:00:31 GMT-0600 (Central Standard Time),291941.299999997,011_m_f_n_a.png,I,z,638,12,2,1663.3999999985099,290277.8999999985,8005,VNB,B,11
12,test,5,0.0,1-Back,1,m,Wed Jan 15 2025 14:00:31 GMT-0600 (Central Standard Time),293640.5,004_o_m_h_a.png,I,m,675,13,2,1696.8000000044703,291943.69999999553,8005,VNB,B,12
13,test,5,0.0,1-Back,1,z,Wed Jan 15 2025 14:00:31 GMT-0600 (Central Standard Time),295073.5,007_m_m_h_a.png,I,z,408,14,2,1430.8000000044703,293642.69999999553,8005,VNB,B,13
14,test,5,1.0,1-Back,1,m,Wed Jan 15 2025 14:00:31 GMT-0600 (Central Standard Time),296589.8999999985,005_o_f_d_a.png,I,m,495,15,2,1514.2000000029802,295075.69999999553,8005,VNB,B,14
15,test,5,0.0,1-Back,1,m,Wed Jan 15 2025 14:00:31 GMT-0600 (Central Standard Time),298538.8999999985,016_y_m_n_a.png,I,m,930,16,2,1946.8999999985099,296592.0,8005,VNB,B,15
16,test,5,0.0,1-Back,1,m,Wed Jan 15 2025 14:00:31 GMT-0600 (Central Standard Time),300155.3999999985,020_y_f_h_a.png,I,m,589,17,2,1614.0,298541.3999999985,8005,VNB,B,16
17,test,5,0.0,1-Back,1,m,Wed Jan 15 2025 14:00:31 GMT-0600 (Central Standard Time),301804.5,007_m_m_d_a.png,I,m,629,18,2,1646.8999999985099,300157.6000000015,8005,VNB,B,17
0,prac,1,0.0,2-Back,,,Wed Jan 15 2025 14:00:31 GMT-0600 (Central Standard Time),301804.5,011_m_f_n_a.png,I,space,6957,1,2,1646.8999999985099,300157.6000000015,8005,VNB,B,0
0,prac,1,0.0,2-Back,,,Wed Jan 15 2025 14:00:31 GMT-0600 (Central Standard Time),301804.5,005_o_f_h_a.png,I,space,6957,2,2,1646.8999999985099,300157.6000000015,8005,VNB,B,0
1,prac,1,0.0,2-Back,1,m,Wed Jan 15 2025 14:00:31 GMT-0600 (Central Standard Time),385462.19999999553,004_o_m_d_a.png,I,m,1130,3,2,1996.1999999955297,383466.0,8005,VNB,B,1
2,prac,1,1.0,2-Back,1,z,Wed Jan 15 2025 14:00:31 GMT-0600 (Central Standard Time),386845.19999999553,007_m_m_h_a.png,I,z,497,4,2,1379.6999999955297,385465.5,8005,VNB,B,2
3,prac,1,0.0,2-Back,1,m,Wed Jan 15 2025 14:00:31 GMT-0600 (Central Standard Time),388494.69999999553,020_y_f_n_a.png,I,m,774,5,2,1646.0999999940395,386848.6000000015,8005,VNB,B,3
4,prac,1,1.0,2-Back,1,z,Wed Jan 15 2025 14:00:31 GMT-0600 (Central Standard Time),390043.8999999985,004_o_m_h_a.png,I,z,689,6,2,1545.8999999985099,388498.0,8005,VNB,B,4
5,prac,1,1.0,2-Back,1,z,Wed Jan 15 2025 14:00:31 GMT-0600 (Central Standard Time),392143.299999997,016_y_m_n_a.png,I,z,1209,7,2,2096.0,390047.299999997,8005,VNB,B,5
6,prac,1,0.0,2-Back,1,m,Wed Jan 15 2025 14:00:31 GMT-0600 (Central Standard Time),393626.1000000015,011_m_f_d_a.png,I,m,606,8,2,1479.3000000044703,392146.799999997,8005,VNB,B,6
7,prac,1,0.0,2-Back,1,m,Wed Jan 15 2025 14:00:31 GMT-0600 (Central Standard Time),395158.799999997,005_o_f_d_a.png,I,m,649,9,2,1529.3999999985099,393629.3999999985,8005,VNB,B,7
8,prac,1,0.0,2-Back,1,m,Wed Jan 15 2025 14:00:31 GMT-0600 (Central Standard Time),396625.299999997,007_m_m_h_a.png,I,m,704,10,2,1462.8999999985099,395162.3999999985,8005,VNB,B,8
9,prac,1,1.0,2-Back,1,z,Wed Jan 15 2025 14:00:31 GMT-0600 (Central Standard Time),398458.299999997,020_y_f_d_a.png,I,z,968,11,2,1829.7999999970198,396628.5,8005,VNB,B,9
10,prac,1,0.0,2-Back,1,m,Wed Jan 15 2025 14:00:31 GMT-0600 (Central Standard Time),399890.8999999985,004_o_m_n_a.png,I,m,571,12,2,1429.2999999970198,398461.6000000015,8005,VNB,B,10
0,test,1,0.0,2-Back,,,Wed Jan 15 2025 14:00:31 GMT-0600 (Central Standard Time),399890.8999999985,016_y_m_h_a.png,I,space,7834,1,2,1429.2999999970198,398461.6000000015,8005,VNB,B,0
0,test,1,0.0,2-Back,,,Wed Jan 15 2025 14:00:31 GMT-0600 (Central Standard Time),399890.8999999985,005_o_f_n_a.png,I,space,7834,2,2,1429.2999999970198,398461.6000000015,8005,VNB,B,0
1,test,1,0.0,2-Back,1,z,Wed Jan 15 2025 14:00:31 GMT-0600 (Central Standard Time),417868.69999999553,004_o_m_h_a.png,I,z,580,3,2,1597.1999999955297,416271.5,8005,VNB,B,1
2,test,1,0.0,2-Back,1,m,Wed Jan 15 2025 14:00:31 GMT-0600 (Central Standard Time),420084.6000000015,011_m_f_d_a.png,I,m,1186,4,2,2213.60000000149,417871.0,8005,VNB,B,2
3,test,1,1.0,2-Back,1,m,Wed Jan 15 2025 14:00:31 GMT-0600 (Central Standard Time),421883.799999997,016_y_m_n_a.png,I,m,780,5,2,1796.7999999970198,420087.0,8005,VNB,B,3
4,test,1,0.0,2-Back,1,z,Wed Jan 15 2025 14:00:31 GMT-0600 (Central Standard Time),423516.69999999553,020_y_f_d_a.png,I,z,612,6,2,1630.7999999970198,421885.8999999985,8005,VNB,B,4
5,test,1,0.0,2-Back,1,m,Wed Jan 15 2025 14:00:31 GMT-0600 (Central Standard Time),425132.8999999985,007_m_m_h_a.png,I,m,595,7,2,1614.0,423518.8999999985,8005,VNB,B,5
5,test,1,1.0,2-Back,0,m,Wed Jan 15 2025 14:00:31 GMT-0600 (Central Standard Time),426915.6000000015,020_y_f_n_a.png,I,z,755,8,2,1779.7000000029802,425135.8999999985,8005,VNB,B,6
6,test,1,0.0,2-Back,1,z,Wed Jan 15 2025 14:00:31 GMT-0600 (Central Standard Time),428348.5,005_o_f_h_a.png,I,z,405,9,2,1430.6000000014901,426917.8999999985,8005,VNB,B,7
7,test,1,0.0,2-Back,1,m,Wed Jan 15 2025 14:00:31 GMT-0600 (Central Standard Time),430264.5,004_o_m_d_a.png,I,m,891,10,2,1913.8000000044703,428350.69999999553,8005,VNB,B,8
8,test,1,1.0,2-Back,1,m,Wed Jan 15 2025 14:00:31 GMT-0600 (Central Standard Time),432847.19999999553,007_m_m_d_a.png,I,m,1552,11,2,2580.39999999851,430266.799999997,8005,VNB,B,9
9,test,1,0.0,2-Back,1,m,Wed Jan 15 2025 14:00:31 GMT-0600 (Central Standard Time),434779.8999999985,011_m_f_n_a.png,I,m,906,12,2,1930.2999999970198,432849.6000000015,8005,VNB,B,10
10,test,1,0.0,2-Back,1,m,Wed Jan 15 2025 14:00:31 GMT-0600 (Central Standard Time),436296.19999999553,020_y_f_h_a.png,I,m,493,13,2,1513.7999999970198,434782.3999999985,8005,VNB,B,11
11,test,1,0.0,2-Back,1,z,Wed Jan 15 2025 14:00:31 GMT-0600 (Central Standard Time),438062.299999997,007_m_m_n_a.png,I,z,744,14,2,1763.6000000014901,436298.69999999553,8005,VNB,B,12
12,test,1,0.0,2-Back,1,m,Wed Jan 15 2025 14:00:31 GMT-0600 (Central Standard Time),439711.69999999553,016_y_m_d_a.png,I,m,619,15,2,1646.8999999985099,438064.799999997,8005,VNB,B,13
13,test,1,1.0,2-Back,1,m,Wed Jan 15 2025 14:00:31 GMT-0600 (Central Standard Time),441644.69999999553,011_m_f_h_a.png,I,m,905,16,2,1930.5999999940395,439714.1000000015,8005,VNB,B,14
14,test,1,0.0,2-Back,1,z,Wed Jan 15 2025 14:00:31 GMT-0600 (Central Standard Time),443110.69999999553,005_o_f_d_a.png,I,z,445,17,2,1463.7999999970198,441646.8999999985,8005,VNB,B,15
15,test,1,0.0,2-Back,1,m,Wed Jan 15 2025 14:00:31 GMT-0600 (Central Standard Time),444910.19999999553,004_o_m_n_a.png,I,m,770,18,2,1797.1999999955297,443113.0,8005,VNB,B,16
0,test,2,0.0,2-Back,,,Wed Jan 15 2025 14:00:31 GMT-0600 (Central Standard Time),444910.19999999553,007_m_m_h_a.png,I,space,1220,1,2,1797.1999999955297,443113.0,8005,VNB,B,0
0,test,2,0.0,2-Back,,,Wed Jan 15 2025 14:00:31 GMT-0600 (Central Standard Time),444910.19999999553,020_y_f_n_a.png,I,space,1220,2,2,1797.1999999955297,443113.0,8005,VNB,B,0
1,test,2,1.0,2-Back,1,z,Wed Jan 15 2025 14:00:31 GMT-0600 (Central Standard Time),452807.6000000015,005_o_f_h_a.png,I,z,410,3,2,1430.2000000029802,451377.3999999985,8005,VNB,B,1
2,test,2,0.0,2-Back,1,m,Wed Jan 15 2025 14:00:31 GMT-0600 (Central Standard Time),454607.1000000015,004_o_m_d_a.png,I,m,768,4,2,1797.2000000029802,452809.8999999985,8005,VNB,B,2
3,test,2,0.0,2-Back,1,m,Wed Jan 15 2025 14:00:31 GMT-0600 (Central Standard Time),456323.19999999553,011_m_f_d_a.png,I,m,690,5,2,1713.5999999940395,454609.6000000015,8005,VNB,B,3
4,test,2,0.0,2-Back,1,m,Wed Jan 15 2025 14:00:31 GMT-0600 (Central Standard Time),458006.0,016_y_m_h_a.png,I,m,654,6,2,1680.3999999985099,456325.6000000015,8005,VNB,B,4
5,test,2,0.0,2-Back,1,m,Wed Jan 15 2025 14:00:31 GMT-0600 (Central Standard Time),459672.19999999553,005_o_f_n_a.png,I,m,642,7,2,1664.0,458008.19999999553,8005,VNB,B,5
6,test,2,1.0,2-Back,1,z,Wed Jan 15 2025 14:00:31 GMT-0600 (Central Standard Time),461288.3999999985,004_o_m_h_a.png,I,z,584,8,2,1613.6000000014901,459674.799999997,8005,VNB,B,6
7,test,2,0.0,2-Back,1,m,Wed Jan 15 2025 14:00:31 GMT-0600 (Central Standard Time),463271.0,020_y_f_d_a.png,I,m,961,9,2,1980.5,461290.5,8005,VNB,B,7
8,test,2,0.0,2-Back,1,m,Wed Jan 15 2025 14:00:31 GMT-0600 (Central Standard Time),465370.5,016_y_m_d_a.png,I,m,1074,10,2,2097.3000000044703,463273.19999999553,8005,VNB,B,8
9,test,2,0.0,2-Back,1,m,Wed Jan 15 2025 14:00:31 GMT-0600 (Central Standard Time),467236.69999999553,007_m_m_n_a.png,I,m,745,11,2,1863.7999999970198,465372.8999999985,8005,VNB,B,9
10,test,2,0.0,2-Back,1,m,Wed Jan 15 2025 14:00:31 GMT-0600 (Central Standard Time),468885.799999997,011_m_f_h_a.png,I,m,620,12,2,1646.6999999955297,467239.1000000015,8005,VNB,B,10
11,test,2,1.0,2-Back,1,z,Wed Jan 15 2025 14:00:31 GMT-0600 (Central Standard Time),470685.3999999985,004_o_m_n_a.png,I,z,778,13,2,1796.6000000014901,468888.799999997,8005,VNB,B,11
12,test,2,0.0,2-Back,1,m,Wed Jan 15 2025 14:00:31 GMT-0600 (Central Standard Time),472634.799999997,005_o_f_d_a.png,I,m,916,14,2,1946.8999999985099,470687.8999999985,8005,VNB,B,12
13,test,2,0.0,2-Back,1,m,Wed Jan 15 2025 14:00:31 GMT-0600 (Central Standard Time),475467.19999999553,020_y_f_h_a.png,I,m,1806,15,2,2830.0999999940395,472637.1000000015,8005,VNB,B,13
14,test,2,0.0,2-Back,1,z,Wed Jan 15 2025 14:00:31 GMT-0600 (Central Standard Time),477050.1000000015,007_m_m_d_a.png,I,z,549,16,2,1580.4000000059605,475469.69999999553,8005,VNB,B,14
15,test,2,0.0,2-Back,1,m,Wed Jan 15 2025 14:00:31 GMT-0600 (Central Standard Time),478649.6000000015,016_y_m_n_a.png,I,m,575,17,2,1597.3000000044703,477052.299999997,8005,VNB,B,15
16,test,2,1.0,2-Back,1,m,Wed Jan 15 2025 14:00:31 GMT-0600 (Central Standard Time),480882.299999997,011_m_f_n_a.png,I,m,1207,18,2,2230.39999999851,478651.8999999985,8005,VNB,B,16
0,test,3,1.0,2-Back,,,Wed Jan 15 2025 14:00:31 GMT-0600 (Central Standard Time),480882.299999997,004_o_m_n_a.png,I,space,840,1,2,2230.39999999851,478651.8999999985,8005,VNB,B,0
0,test,3,1.0,2-Back,,,Wed Jan 15 2025 14:00:31 GMT-0600 (Central Standard Time),480882.299999997,005_o_f_d_a.png,I,space,840,2,2,2230.39999999851,478651.8999999985,8005,VNB,B,0
1,test,3,0.0,2-Back,1,m,Wed Jan 15 2025 14:00:31 GMT-0600 (Central Standard Time),488496.5,020_y_f_h_a.png,I,m,685,3,2,1713.7000000029802,486782.799999997,8005,VNB,B,1
2,test,3,0.0,2-Back,1,z,Wed Jan 15 2025 14:00:31 GMT-0600 (Central Standard Time),491162.5,011_m_f_d_a.png,I,z,1640,4,2,2663.5,488499.0,8005,VNB,B,2
3,test,3,1.0,2-Back,1,m,Wed Jan 15 2025 14:00:31 GMT-0600 (Central Standard Time),492895.1000000015,016_y_m_n_a.png,I,m,702,5,2,1730.2000000029802,491164.8999999985,8005,VNB,B,3
4,test,3,0.0,2-Back,1,m,Wed Jan 15 2025 14:00:31 GMT-0600 (Central Standard Time),494927.8999999985,004_o_m_h_a.png,I,m,1009,6,2,2030.5,492897.3999999985,8005,VNB,B,4
5,test,3,0.0,2-Back,1,z,Wed Jan 15 2025 14:00:31 GMT-0600 (Central Standard Time),496710.5,020_y_f_n_a.png,I,z,761,7,2,1780.3999999985099,494930.1000000015,8005,VNB,B,5
6,test,3,1.0,2-Back,1,m,Wed Jan 15 2025 14:00:31 GMT-0600 (Central Standard Time),498593.6000000015,007_m_m_d_a.png,I,m,850,8,2,1880.5,496713.1000000015,8005,VNB,B,6
7,test,3,0.0,2-Back,1,m,Wed Jan 15 2025 14:00:31 GMT-0600 (Central Standard Time),500809.299999997,016_y_m_d_a.png,I,m,1191,9,2,2212.89999999851,498596.3999999985,8005,VNB,B,7
8,test,3,0.0,2-Back,1,m,Wed Jan 15 2025 14:00:31 GMT-0600 (Central Standard Time),502642.299999997,005_o_f_h_a.png,I,m,808,10,2,1830.6000000014901,500811.69999999553,8005,VNB,B,8
9,test,3,1.0,2-Back,1,m,Wed Jan 15 2025 14:00:31 GMT-0600 (Central Standard Time),504874.8999999985,011_m_f_n_a.png,I,m,1206,11,2,2230.2999999970198,502644.6000000015,8005,VNB,B,9
10,test,3,1.0,2-Back,1,z,Wed Jan 15 2025 14:00:31 GMT-0600 (Central Standard Time),506290.8999999985,007_m_m_h_a.png,I,z,389,12,2,1413.6000000014901,504877.299999997,8005,VNB,B,10
11,test,3,0.0,2-Back,1,m,Wed Jan 15 2025 14:00:31 GMT-0600 (Central Standard Time),508806.799999997,020_y_f_d_a.png,I,m,1486,13,2,2513.39999999851,506293.3999999985,8005,VNB,B,11
12,test,3,0.0,2-Back,1,m,Wed Jan 15 2025 14:00:31 GMT-0600 (Central Standard Time),511089.3999999985,005_o_f_n_a.png,I,m,1258,14,2,2280.2000000029802,508809.19999999553,8005,VNB,B,12
13,test,3,0.0,2-Back,1,z,Wed Jan 15 2025 14:00:31 GMT-0600 (Central Standard Time),512705.799999997,004_o_m_d_a.png,I,z,591,15,2,1613.8999999985099,511091.8999999985,8005,VNB,B,13
14,test,3,1.0,2-Back,1,m,Wed Jan 15 2025 14:00:31 GMT-0600 (Central Standard Time),514788.299999997,011_m_f_h_a.png,I,m,1056,16,2,2079.7999999970198,512708.5,8005,VNB,B,14
15,test,3,0.0,2-Back,1,m,Wed Jan 15 2025 14:00:31 GMT-0600 (Central Standard Time),517637.5,007_m_m_n_a.png,I,m,1821,17,2,2846.89999999851,514790.6000000015,8005,VNB,B,15
16,test,3,0.0,2-Back,1,z,Wed Jan 15 2025 14:00:31 GMT-0600 (Central Standard Time),519186.799999997,016_y_m_h_a.png,I,z,516,18,2,1546.7999999970198,517640.0,8005,VNB,B,16
0,test,4,0.0,2-Back,,,Wed Jan 15 2025 14:00:31 GMT-0600 (Central Standard Time),519186.799999997,011_m_f_n_a.png,I,space,862,1,2,1546.7999999970198,517640.0,8005,VNB,B,0
0,test,4,0.0,2-Back,,,Wed Jan 15 2025 14:00:31 GMT-0600 (Central Standard Time),519186.799999997,004_o_m_n_a.png,I,space,862,2,2,1546.7999999970198,517640.0,8005,VNB,B,0
1,test,4,1.0,2-Back,1,m,Wed Jan 15 2025 14:00:31 GMT-0600 (Central Standard Time),527801.1999999955,016_y_m_h_a.png,I,m,1483,3,2,2513.7999999970198,525287.3999999985,8005,VNB,B,1
2,test,4,1.0,2-Back,1,m,Wed Jan 15 2025 14:00:31 GMT-0600 (Central Standard Time),529683.299999997,005_o_f_d_a.png,I,m,864,4,2,1879.6000000014901,527803.6999999955,8005,VNB,B,2
3,test,4,0.0,2-Back,1,z,Wed Jan 15 2025 14:00:31 GMT-0600 (Central Standard Time),531449.6000000015,004_o_m_h_a.png,I,z,732,5,2,1764.1000000014901,529685.5,8005,VNB,B,3
4,test,4,0.0,2-Back,1,m,Wed Jan 15 2025 14:00:31 GMT-0600 (Central Standard Time),533182.6000000015,007_m_m_n_a.png,I,m,711,6,2,1730.6000000014901,531452.0,8005,VNB,B,4
5,test,4,0.0,2-Back,1,m,Wed Jan 15 2025 14:00:31 GMT-0600 (Central Standard Time),534967.1999999955,011_m_f_d_a.png,I,m,753,7,2,1782.1999999955297,533185.0,8005,VNB,B,5
6,test,4,0.0,2-Back,1,z,Wed Jan 15 2025 14:00:31 GMT-0600 (Central Standard Time),536894.0,020_y_f_n_a.png,I,z,910,8,2,1923.8999999985099,534970.1000000015,8005,VNB,B,6
7,test,4,1.0,2-Back,1,m,Wed Jan 15 2025 14:00:31 GMT-0600 (Central Standard Time),538664.1999999955,005_o_f_h_a.png,I,m,760,9,2,1767.2999999970198,536896.8999999985,8005,VNB,B,7
8,test,4,0.0,2-Back,1,m,Wed Jan 15 2025 14:00:31 GMT-0600 (Central Standard Time),540446.799999997,007_m_m_h_a.png,I,m,761,10,2,1780.2999999970198,538666.5,8005,VNB,B,8
9,test,4,0.0,2-Back,1,m,Wed Jan 15 2025 14:00:31 GMT-0600 (Central Standard Time),542646.1000000015,020_y_f_d_a.png,I,m,1170,11,2,2197.10000000149,540449.0,8005,VNB,B,9
9,test,4,0.0,2-Back,0,m,Wed Jan 15 2025 14:00:31 GMT-0600 (Central Standard Time),545579.0,016_y_m_n_a.png,I,z,1915,12,2,2930.3000000044703,542648.6999999955,8005,VNB,B,10
10,test,4,0.0,2-Back,1,z,Wed Jan 15 2025 14:00:31 GMT-0600 (Central Standard Time),547078.8999999985,004_o_m_d_a.png,I,z,470,13,2,1497.3999999985099,545581.5,8005,VNB,B,11
11,test,4,1.0,2-Back,1,m,Wed Jan 15 2025 14:00:31 GMT-0600 (Central Standard Time),548777.6000000015,011_m_f_h_a.png,I,m,666,14,2,1696.4000000059605,547081.1999999955,8005,VNB,B,12
12,test,4,1.0,2-Back,1,m,Wed Jan 15 2025 14:00:31 GMT-0600 (Central Standard Time),551010.299999997,020_y_f_h_a.png,I,m,1207,15,2,2230.5,548779.799999997,8005,VNB,B,13
13,test,4,0.0,2-Back,1,m,Wed Jan 15 2025 14:00:31 GMT-0600 (Central Standard Time),553793.0,005_o_f_n_a.png,I,m,1759,16,2,2780.3000000044703,551012.6999999955,8005,VNB,B,14
14,test,4,0.0,2-Back,1,m,Wed Jan 15 2025 14:00:31 GMT-0600 (Central Standard Time),555875.3999999985,016_y_m_d_a.png,I,m,1064,17,2,2080.0,553795.3999999985,8005,VNB,B,15
15,test,4,1.0,2-Back,1,m,Wed Jan 15 2025 14:00:31 GMT-0600 (Central Standard Time),558058.0,007_m_m_d_a.png,I,m,1149,18,2,2180.39999999851,555877.6000000015,8005,VNB,B,16
0,test,5,1.0,2-Back,,,Wed Jan 15 2025 14:00:31 GMT-0600 (Central Standard Time),558058.0,020_y_f_d_a.png,I,space,895,1,2,2180.39999999851,555877.6000000015,8005,VNB,B,0
0,test,5,1.0,2-Back,,,Wed Jan 15 2025 14:00:31 GMT-0600 (Central Standard Time),558058.0,005_o_f_h_a.png,I,space,895,2,2,2180.39999999851,555877.6000000015,8005,VNB,B,0
1,test,5,1.0,2-Back,1,z,Wed Jan 15 2025 14:00:31 GMT-0600 (Central Standard Time),565722.6000000015,004_o_m_d_a.png,I,z,483,3,2,1513.9000000059605,564208.6999999955,8005,VNB,B,1
2,test,5,1.0,2-Back,1,m,Wed Jan 15 2025 14:00:31 GMT-0600 (Central Standard Time),567438.799999997,011_m_f_n_a.png,I,m,687,4,2,1713.6000000014901,565725.1999999955,8005,VNB,B,2
2,test,5,0.0,2-Back,0,m,Wed Jan 15 2025 14:00:31 GMT-0600 (Central Standard Time),569187.6000000015,007_m_m_h_a.png,I,z,730,5,2,1746.6000000014901,567441.0,8005,VNB,B,3
3,test,5,0.0,2-Back,1,z,Wed Jan 15 2025 14:00:31 GMT-0600 (Central Standard Time),570687.6000000015,020_y_f_n_a.png,I,z,477,6,2,1497.8000000044703,569189.799999997,8005,VNB,B,4
4,test,5,0.0,2-Back,1,m,Wed Jan 15 2025 14:00:31 GMT-0600 (Central Standard Time),572736.6999999955,005_o_f_d_a.png,I,m,1025,7,2,2046.5999999940395,570690.1000000015,8005,VNB,B,5
4,test,5,0.0,2-Back,0,m,Wed Jan 15 2025 14:00:31 GMT-0600 (Central Standard Time),574819.299999997,004_o_m_h_a.png,I,z,1064,8,2,2080.39999999851,572738.8999999985,8005,VNB,B,6
4,test,5,1.0,2-Back,0,z,Wed Jan 15 2025 14:00:31 GMT-0600 (Central Standard Time),576869.5,011_m_f_d_a.png,I,m,1030,9,2,2048.10000000149,574821.3999999985,8005,VNB,B,7
5,test,5,0.0,2-Back,1,m,Wed Jan 15 2025 14:00:31 GMT-0600 (Central Standard Time),579601.6000000015,016_y_m_n_a.png,I,m,1700,10,2,2729.2000000029802,576872.3999999985,8005,VNB,B,8
6,test,5,0.0,2-Back,1,m,Wed Jan 15 2025 14:00:31 GMT-0600 (Central Standard Time),581717.5,007_m_m_n_a.png,I,m,1095,11,2,2113.7000000029802,579603.799999997,8005,VNB,B,9
7,test,5,0.0,2-Back,1,m,Wed Jan 15 2025 14:00:31 GMT-0600 (Central Standard Time),583666.8999999985,020_y_f_h_a.png,I,m,916,12,2,1947.2000000029802,581719.6999999955,8005,VNB,B,10
8,test,5,0.0,2-Back,1,m,Wed Jan 15 2025 14:00:31 GMT-0600 (Central Standard Time),585482.8999999985,016_y_m_d_a.png,I,m,798,13,2,1813.7000000029802,583669.1999999955,8005,VNB,B,11
9,test,5,1.0,2-Back,1,z,Wed Jan 15 2025 14:00:31 GMT-0600 (Central Standard Time),586932.3999999985,011_m_f_h_a.png,I,z,422,14,2,1447.3999999985099,585485.0,8005,VNB,B,12
10,test,5,0.0,2-Back,1,m,Wed Jan 15 2025 14:00:31 GMT-0600 (Central Standard Time),589016.1000000015,004_o_m_n_a.png,I,m,1052,15,2,2081.3000000044703,586934.799999997,8005,VNB,B,13
10,test,5,0.0,2-Back,0,m,Wed Jan 15 2025 14:00:31 GMT-0600 (Central Standard Time),591247.799999997,007_m_m_d_a.png,I,z,1202,16,2,2229.5,589018.299999997,8005,VNB,B,14
11,test,5,0.0,2-Back,1,z,Wed Jan 15 2025 14:00:31 GMT-0600 (Central Standard Time),593746.799999997,005_o_f_n_a.png,I,z,1481,17,2,2496.39999999851,591250.3999999985,8005,VNB,B,15
12,test,5,1.0,2-Back,1,m,Wed Jan 15 2025 14:00:31 GMT-0600 (Central Standard Time),595496.3999999985,016_y_m_h_a.png,I,m,718,18,2,1747.0,593749.3999999985,8005,VNB,B,16
