acc_sum,block,block_c,change,condition,correct,correct_response,datetime,endtime,face,project,response,response_time,row_sel,session_number,start_end,starttime,subject_id,task,task_vers,trial
0,prac,1,,1-Back,,,Wed Oct 30 2024 13:55:07 GMT-0500 (Central Daylight Time),,124_o_f_d_a.png,I,space,10373,1,1,,,8005,VNB,A,0
1,prac,1,0.0,1-Back,1,m,Wed Oct 30 2024 13:55:07 GMT-0500 (Central Daylight Time),156709.70000000298,071_y_f_n_a.png,I,m,1733,2,1,2539.7000000029802,154170.0,8005,VNB,A,1
2,prac,1,0.0,1-Back,1,m,Wed Oct 30 2024 13:55:07 GMT-0500 (Central Daylight Time),158759.0,165_m_m_h_a.png,I,m,1242,3,1,2040.7000000029802,156718.29999999702,8005,VNB,A,2
3,prac,1,0.0,1-Back,1,m,Wed Oct 30 2024 13:55:07 GMT-0500 (Central Daylight Time),161012.1000000015,109_y_m_d_a.png,I,m,1454,4,1,2245.2000000029802,158766.8999999985,8005,VNB,A,3
4,prac,1,0.0,1-Back,1,m,Wed Oct 30 2024 13:55:07 GMT-0500 (Central Daylight Time),163207.70000000298,124_o_f_n_a.png,I,m,1335,5,1,2184.3000000044703,161023.3999999985,8005,VNB,A,4
5,prac,1,1.0,1-Back,1,z,Wed Oct 30 2024 13:55:07 GMT-0500 (Central Daylight Time),164507.29999999702,109_y_m_n_a.png,I,z,483,6,1,1291.1999999955297,163216.1000000015,8005,VNB,A,5
6,prac,1,0.0,1-Back,1,m,Wed Oct 30 2024 13:55:07 GMT-0500 (Central Daylight Time),166057.70000000298,039_o_m_h_a.png,I,m,767,7,1,1542.4000000059605,164515.29999999702,8005,VNB,A,6
7,prac,1,0.0,1-Back,1,m,Wed Oct 30 2024 13:55:07 GMT-0500 (Central Daylight Time),168622.3999999985,139_m_f_d_a.png,I,m,1758,8,1,2557.6999999955297,166064.70000000298,8005,VNB,A,7
8,prac,1,1.0,1-Back,1,z,Wed Oct 30 2024 13:55:07 GMT-0500 (Central Daylight Time),169872.29999999702,071_y_f_d_a.png,I,z,432,9,1,1240.5,168631.79999999702,8005,VNB,A,8
9,prac,1,0.0,1-Back,1,m,Wed Oct 30 2024 13:55:07 GMT-0500 (Central Daylight Time),171304.70000000298,165_m_m_n_a.png,I,m,624,10,1,1424.6000000014901,169880.1000000015,8005,VNB,A,9
10,prac,1,0.0,1-Back,1,m,Wed Oct 30 2024 13:55:07 GMT-0500 (Central Daylight Time),172970.79999999702,124_o_f_h_a.png,I,m,838,11,1,1658.0,171312.79999999702,8005,VNB,A,10
11,prac,1,0.0,1-Back,1,m,Wed Oct 30 2024 13:55:07 GMT-0500 (Central Daylight Time),174770.20000000298,109_y_m_d_a.png,I,m,1023,12,1,1791.3000000044703,172978.8999999985,8005,VNB,A,11
0,test,1,0.0,1-Back,,,Wed Oct 30 2024 13:55:07 GMT-0500 (Central Daylight Time),174770.20000000298,071_y_f_d_a.png,I,space,9970,1,1,1791.3000000044703,172978.8999999985,8005,VNB,A,0
1,test,1,0.0,1-Back,1,m,Wed Oct 30 2024 13:55:07 GMT-0500 (Central Daylight Time),193331.29999999702,139_m_f_n_a.png,I,m,782,2,1,1789.8999999985099,191541.3999999985,8005,VNB,A,1
2,test,1,0.0,1-Back,1,m,Wed Oct 30 2024 13:55:07 GMT-0500 (Central Daylight Time),195097.79999999702,039_o_m_h_a.png,I,m,742,3,1,1759.2999999970198,193338.5,8005,VNB,A,2
3,test,1,1.0,1-Back,1,z,Wed Oct 30 2024 13:55:07 GMT-0500 (Central Daylight Time),196697.1000000015,165_m_m_h_a.png,I,z,576,4,1,1592.6000000014901,195104.5,8005,VNB,A,3
4,test,1,0.0,1-Back,1,m,Wed Oct 30 2024 13:55:07 GMT-0500 (Central Daylight Time),198513.1000000015,124_o_f_n_a.png,I,m,793,5,1,1809.1000000014901,196704.0,8005,VNB,A,4
5,test,1,0.0,1-Back,1,m,Wed Oct 30 2024 13:55:07 GMT-0500 (Central Daylight Time),200729.20000000298,109_y_m_d_a.png,I,m,1184,6,1,2209.10000000149,198520.1000000015,8005,VNB,A,5
6,test,1,1.0,1-Back,1,z,Wed Oct 30 2024 13:55:07 GMT-0500 (Central Daylight Time),202178.5,139_m_f_d_a.png,I,z,417,7,1,1442.6000000014901,200735.8999999985,8005,VNB,A,6
7,test,1,0.0,1-Back,1,m,Wed Oct 30 2024 13:55:07 GMT-0500 (Central Daylight Time),203794.70000000298,071_y_f_h_a.png,I,m,591,8,1,1609.3000000044703,202185.3999999985,8005,VNB,A,7
8,test,1,0.0,1-Back,1,m,Wed Oct 30 2024 13:55:07 GMT-0500 (Central Daylight Time),205594.5,039_o_m_n_a.png,I,m,766,9,1,1792.8999999985099,203801.6000000015,8005,VNB,A,8
9,test,1,0.0,1-Back,1,m,Wed Oct 30 2024 13:55:07 GMT-0500 (Central Daylight Time),207510.3999999985,109_y_m_h_a.png,I,m,887,10,1,1909.0,205601.3999999985,8005,VNB,A,9
10,test,1,0.0,1-Back,1,m,Wed Oct 30 2024 13:55:07 GMT-0500 (Central Daylight Time),209294.0,039_o_m_d_a.png,I,m,764,11,1,1777.2000000029802,207516.79999999702,8005,VNB,A,10
11,test,1,1.0,1-Back,1,z,Wed Oct 30 2024 13:55:07 GMT-0500 (Central Daylight Time),211159.0,124_o_f_d_a.png,I,z,836,12,1,1858.3999999985099,209300.6000000015,8005,VNB,A,11
12,test,1,0.0,1-Back,1,m,Wed Oct 30 2024 13:55:07 GMT-0500 (Central Daylight Time),213141.79999999702,165_m_m_n_a.png,I,m,954,13,1,1976.0999999940395,211165.70000000298,8005,VNB,A,12
13,test,1,1.0,1-Back,1,z,Wed Oct 30 2024 13:55:07 GMT-0500 (Central Daylight Time),214642.6000000015,071_y_f_n_a.png,I,z,475,14,1,1493.2000000029802,213149.3999999985,8005,VNB,A,13
14,test,1,0.0,1-Back,1,m,Wed Oct 30 2024 13:55:07 GMT-0500 (Central Daylight Time),216590.8999999985,139_m_f_h_a.png,I,m,928,15,1,1941.5,214649.3999999985,8005,VNB,A,14
15,test,1,0.0,1-Back,1,m,Wed Oct 30 2024 13:55:07 GMT-0500 (Central Daylight Time),218324.70000000298,165_m_m_d_a.png,I,m,714,16,1,1727.1000000014901,216597.6000000015,8005,VNB,A,15
16,test,1,0.0,1-Back,1,m,Wed Oct 30 2024 13:55:07 GMT-0500 (Central Daylight Time),220073.0,109_y_m_n_a.png,I,m,718,17,1,1741.7000000029802,218331.29999999702,8005,VNB,A,16
17,test,1,0.0,1-Back,1,m,Wed Oct 30 2024 13:55:07 GMT-0500 (Central Daylight Time),221905.6000000015,124_o_f_h_a.png,I,m,809,18,1,1825.8999999985099,220079.70000000298,8005,VNB,A,17
0,test,2,0.0,1-Back,,,Wed Oct 30 2024 13:55:07 GMT-0500 (Central Daylight Time),221905.6000000015,109_y_m_n_a.png,I,space,1120,1,1,1825.8999999985099,220079.70000000298,8005,VNB,A,0
1,test,2,0.0,1-Back,1,m,Wed Oct 30 2024 13:55:07 GMT-0500 (Central Daylight Time),227037.5,071_y_f_h_a.png,I,m,954,2,1,1975.7999999970198,225061.70000000298,8005,VNB,A,1
2,test,2,1.0,1-Back,1,m,Wed Oct 30 2024 13:55:07 GMT-0500 (Central Daylight Time),228786.79999999702,039_o_m_n_a.png,I,m,732,3,1,1741.5999999940395,227045.20000000298,8005,VNB,A,2
3,test,2,0.0,1-Back,1,m,Wed Oct 30 2024 13:55:07 GMT-0500 (Central Daylight Time),230586.6000000015,139_m_f_d_a.png,I,m,767,4,1,1792.3999999985099,228794.20000000298,8005,VNB,A,3
4,test,2,0.0,1-Back,1,z,Wed Oct 30 2024 13:55:07 GMT-0500 (Central Daylight Time),232120.6000000015,165_m_m_d_a.png,I,z,510,5,1,1527.3000000044703,230593.29999999702,8005,VNB,A,4
5,test,2,0.0,1-Back,1,m,Wed Oct 30 2024 13:55:07 GMT-0500 (Central Daylight Time),233852.0,109_y_m_h_a.png,I,m,706,6,1,1725.1000000014901,232126.8999999985,8005,VNB,A,5
6,test,2,1.0,1-Back,1,z,Wed Oct 30 2024 13:55:07 GMT-0500 (Central Daylight Time),235268.6000000015,124_o_f_h_a.png,I,z,397,7,1,1409.6000000014901,233859.0,8005,VNB,A,6
7,test,2,0.0,1-Back,1,m,Wed Oct 30 2024 13:55:07 GMT-0500 (Central Daylight Time),236934.3999999985,139_m_f_n_a.png,I,m,645,8,1,1659.1999999955297,235275.20000000298,8005,VNB,A,7
8,test,2,0.0,1-Back,1,m,Wed Oct 30 2024 13:55:07 GMT-0500 (Central Daylight Time),238883.79999999702,071_y_f_d_a.png,I,m,923,9,1,1941.7999999970198,236942.0,8005,VNB,A,8
9,test,2,0.0,1-Back,1,m,Wed Oct 30 2024 13:55:07 GMT-0500 (Central Daylight Time),240500.0,165_m_m_n_a.png,I,m,590,10,1,1609.7000000029802,238890.29999999702,8005,VNB,A,9
10,test,2,1.0,1-Back,1,m,Wed Oct 30 2024 13:55:07 GMT-0500 (Central Daylight Time),242199.29999999702,139_m_f_h_a.png,I,m,678,11,1,1692.5999999940395,240506.70000000298,8005,VNB,A,10
11,test,2,0.0,1-Back,1,z,Wed Oct 30 2024 13:55:07 GMT-0500 (Central Daylight Time),243865.5,039_o_m_h_a.png,I,z,635,12,1,1658.8999999985099,242206.6000000015,8005,VNB,A,11
12,test,2,0.0,1-Back,1,m,Wed Oct 30 2024 13:55:07 GMT-0500 (Central Daylight Time),245714.8999999985,109_y_m_d_a.png,I,m,833,13,1,1842.6000000014901,243872.29999999702,8005,VNB,A,12
13,test,2,0.0,1-Back,1,m,Wed Oct 30 2024 13:55:07 GMT-0500 (Central Daylight Time),247881.1000000015,124_o_f_n_a.png,I,m,1142,14,1,2158.89999999851,245722.20000000298,8005,VNB,A,13
14,test,2,0.0,1-Back,1,z,Wed Oct 30 2024 13:55:07 GMT-0500 (Central Daylight Time),249563.70000000298,071_y_f_n_a.png,I,z,663,15,1,1675.6000000014901,247888.1000000015,8005,VNB,A,14
15,test,2,1.0,1-Back,1,m,Wed Oct 30 2024 13:55:07 GMT-0500 (Central Daylight Time),251163.29999999702,165_m_m_h_a.png,I,m,573,16,1,1593.0,249570.29999999702,8005,VNB,A,15
16,test,2,0.0,1-Back,1,m,Wed Oct 30 2024 13:55:07 GMT-0500 (Central Daylight Time),252912.6000000015,124_o_f_d_a.png,I,m,719,17,1,1742.5,251170.1000000015,8005,VNB,A,16
17,test,2,1.0,1-Back,1,z,Wed Oct 30 2024 13:55:07 GMT-0500 (Central Daylight Time),254413.5,039_o_m_d_a.png,I,z,472,18,1,1494.2999999970198,252919.20000000298,8005,VNB,A,17
0,test,3,1.0,1-Back,,,Wed Oct 30 2024 13:55:07 GMT-0500 (Central Daylight Time),254413.5,124_o_f_h_a.png,I,space,3268,1,1,1494.2999999970198,252919.20000000298,8005,VNB,A,0
1,test,3,0.0,1-Back,1,m,Wed Oct 30 2024 13:55:07 GMT-0500 (Central Daylight Time),261276.79999999702,139_m_f_d_a.png,I,m,513,2,1,1526.0,259750.79999999702,8005,VNB,A,1
2,test,3,1.0,1-Back,1,m,Wed Oct 30 2024 13:55:07 GMT-0500 (Central Daylight Time),263410.299999997,165_m_m_n_a.png,I,m,1116,3,1,2126.1999999955297,261284.1000000015,8005,VNB,A,2
3,test,3,0.0,1-Back,1,z,Wed Oct 30 2024 13:55:07 GMT-0500 (Central Daylight Time),264925.6000000015,124_o_f_n_a.png,I,z,488,4,1,1508.8999999985099,263416.700000003,8005,VNB,A,3
4,test,3,1.0,1-Back,1,m,Wed Oct 30 2024 13:55:07 GMT-0500 (Central Daylight Time),266908.3999999985,039_o_m_d_a.png,I,m,964,5,1,1976.0,264932.3999999985,8005,VNB,A,4
5,test,3,0.0,1-Back,1,m,Wed Oct 30 2024 13:55:07 GMT-0500 (Central Daylight Time),268691.200000003,071_y_f_h_a.png,I,m,756,6,1,1776.1000000014901,266915.1000000015,8005,VNB,A,5
6,test,3,0.0,1-Back,1,z,Wed Oct 30 2024 13:55:07 GMT-0500 (Central Daylight Time),270190.700000003,109_y_m_h_a.png,I,z,478,7,1,1492.7000000029802,268698.0,8005,VNB,A,6
7,test,3,0.0,1-Back,1,m,Wed Oct 30 2024 13:55:07 GMT-0500 (Central Daylight Time),271840.200000003,139_m_f_n_a.png,I,m,619,8,1,1643.2000000029802,270197.0,8005,VNB,A,7
8,test,3,0.0,1-Back,1,m,Wed Oct 30 2024 13:55:07 GMT-0500 (Central Daylight Time),273789.3999999985,071_y_f_d_a.png,I,m,929,9,1,1942.2999999970198,271847.1000000015,8005,VNB,A,8
9,test,3,1.0,1-Back,1,m,Wed Oct 30 2024 13:55:07 GMT-0500 (Central Daylight Time),275638.8999999985,039_o_m_n_a.png,I,m,828,10,1,1842.8999999985099,273796.0,8005,VNB,A,9
10,test,3,0.0,1-Back,1,m,Wed Oct 30 2024 13:55:07 GMT-0500 (Central Daylight Time),277538.6000000015,165_m_m_h_a.png,I,m,866,11,1,1892.1000000014901,275646.5,8005,VNB,A,10
11,test,3,0.0,1-Back,1,z,Wed Oct 30 2024 13:55:07 GMT-0500 (Central Daylight Time),279754.6000000015,139_m_f_h_a.png,I,z,1092,12,1,2209.39999999851,277545.200000003,8005,VNB,A,11
12,test,3,1.0,1-Back,1,m,Wed Oct 30 2024 13:55:07 GMT-0500 (Central Daylight Time),281420.3999999985,124_o_f_d_a.png,I,m,647,13,1,1659.2999999970198,279761.1000000015,8005,VNB,A,12
13,test,3,0.0,1-Back,1,z,Wed Oct 30 2024 13:55:07 GMT-0500 (Central Daylight Time),283186.5,165_m_m_d_a.png,I,z,742,14,1,1759.3999999985099,281427.1000000015,8005,VNB,A,13
14,test,3,0.0,1-Back,1,m,Wed Oct 30 2024 13:55:07 GMT-0500 (Central Daylight Time),284853.700000003,109_y_m_n_a.png,I,m,647,15,1,1660.2000000029802,283193.5,8005,VNB,A,14
15,test,3,1.0,1-Back,1,m,Wed Oct 30 2024 13:55:07 GMT-0500 (Central Daylight Time),286818.799999997,039_o_m_h_a.png,I,m,941,16,1,1958.1999999955297,284860.6000000015,8005,VNB,A,15
16,test,3,0.0,1-Back,1,m,Wed Oct 30 2024 13:55:07 GMT-0500 (Central Daylight Time),288751.5,109_y_m_d_a.png,I,m,902,17,1,1926.2999999970198,286825.200000003,8005,VNB,A,16
17,test,3,1.0,1-Back,1,m,Wed Oct 30 2024 13:55:07 GMT-0500 (Central Daylight Time),290867.5,071_y_f_n_a.png,I,m,1090,18,1,2109.7000000029802,288757.799999997,8005,VNB,A,17
0,test,4,1.0,1-Back,,,Wed Oct 30 2024 13:55:07 GMT-0500 (Central Daylight Time),290867.5,165_m_m_d_a.png,I,space,1038,1,1,2109.7000000029802,288757.799999997,8005,VNB,A,0
1,test,4,0.0,1-Back,1,z,Wed Oct 30 2024 13:55:07 GMT-0500 (Central Daylight Time),296399.1000000015,039_o_m_d_a.png,I,z,1437,2,1,2459.10000000149,293940.0,8005,VNB,A,1
2,test,4,0.0,1-Back,1,m,Wed Oct 30 2024 13:55:07 GMT-0500 (Central Daylight Time),298082.0,109_y_m_h_a.png,I,m,658,3,1,1676.3999999985099,296405.6000000015,8005,VNB,A,2
3,test,4,0.0,1-Back,1,m,Wed Oct 30 2024 13:55:07 GMT-0500 (Central Daylight Time),299581.200000003,139_m_f_n_a.png,I,m,471,4,1,1492.5,298088.700000003,8005,VNB,A,3
4,test,4,1.0,1-Back,1,m,Wed Oct 30 2024 13:55:07 GMT-0500 (Central Daylight Time),301332.1000000015,124_o_f_h_a.png,I,m,732,5,1,1743.6000000014901,299588.5,8005,VNB,A,4
5,test,4,0.0,1-Back,1,m,Wed Oct 30 2024 13:55:07 GMT-0500 (Central Daylight Time),303080.3999999985,165_m_m_n_a.png,I,m,727,6,1,1741.1999999955297,301339.200000003,8005,VNB,A,5
6,test,4,0.0,1-Back,1,m,Wed Oct 30 2024 13:55:07 GMT-0500 (Central Daylight Time),304863.299999997,109_y_m_d_a.png,I,m,753,7,1,1776.1999999955297,303087.1000000015,8005,VNB,A,6
7,test,4,1.0,1-Back,1,z,Wed Oct 30 2024 13:55:07 GMT-0500 (Central Daylight Time),306462.700000003,071_y_f_d_a.png,I,z,571,8,1,1592.1000000014901,304870.6000000015,8005,VNB,A,7
8,test,4,0.0,1-Back,1,m,Wed Oct 30 2024 13:55:07 GMT-0500 (Central Daylight Time),308128.700000003,139_m_f_h_a.png,I,m,642,9,1,1659.6000000014901,306469.1000000015,8005,VNB,A,8
9,test,4,0.0,1-Back,1,z,Wed Oct 30 2024 13:55:07 GMT-0500 (Central Daylight Time),309578.299999997,039_o_m_h_a.png,I,z,418,10,1,1442.7999999970198,308135.5,8005,VNB,A,9
10,test,4,1.0,1-Back,1,m,Wed Oct 30 2024 13:55:07 GMT-0500 (Central Daylight Time),311277.8999999985,124_o_f_n_a.png,I,m,671,11,1,1691.6999999955297,309586.200000003,8005,VNB,A,10
11,test,4,0.0,1-Back,1,m,Wed Oct 30 2024 13:55:07 GMT-0500 (Central Daylight Time),312877.299999997,139_m_f_d_a.png,I,m,579,12,1,1592.8999999985099,311284.3999999985,8005,VNB,A,11
12,test,4,0.0,1-Back,1,m,Wed Oct 30 2024 13:55:07 GMT-0500 (Central Daylight Time),314593.5,071_y_f_n_a.png,I,m,692,13,1,1708.7000000029802,312884.799999997,8005,VNB,A,12
13,test,4,0.0,1-Back,1,m,Wed Oct 30 2024 13:55:07 GMT-0500 (Central Daylight Time),316409.5,124_o_f_d_a.png,I,m,792,14,1,1809.2000000029802,314600.299999997,8005,VNB,A,13
14,test,4,0.0,1-Back,1,m,Wed Oct 30 2024 13:55:07 GMT-0500 (Central Daylight Time),318176.799999997,071_y_f_h_a.png,I,m,744,15,1,1760.3999999985099,316416.3999999985,8005,VNB,A,14
15,test,4,1.0,1-Back,1,z,Wed Oct 30 2024 13:55:07 GMT-0500 (Central Daylight Time),319691.700000003,165_m_m_h_a.png,I,z,498,16,1,1508.2000000029802,318183.5,8005,VNB,A,15
16,test,4,0.0,1-Back,1,m,Wed Oct 30 2024 13:55:07 GMT-0500 (Central Daylight Time),321391.3999999985,039_o_m_n_a.png,I,m,670,17,1,1692.2999999970198,319699.1000000015,8005,VNB,A,16
17,test,4,1.0,1-Back,1,z,Wed Oct 30 2024 13:55:07 GMT-0500 (Central Daylight Time),322974.1000000015,109_y_m_n_a.png,I,z,562,18,1,1575.7000000029802,321398.3999999985,8005,VNB,A,17
0,test,5,1.0,1-Back,,,Wed Oct 30 2024 13:55:07 GMT-0500 (Central Daylight Time),322974.1000000015,039_o_m_n_a.png,I,space,3211,1,1,1575.7000000029802,321398.3999999985,8005,VNB,A,0
1,test,5,1.0,1-Back,1,m,Wed Oct 30 2024 13:55:07 GMT-0500 (Central Daylight Time),329755.5,124_o_f_h_a.png,I,m,524,2,1,1542.6000000014901,328212.8999999985,8005,VNB,A,1
2,test,5,0.0,1-Back,1,m,Wed Oct 30 2024 13:55:07 GMT-0500 (Central Daylight Time),331354.799999997,109_y_m_d_a.png,I,m,574,3,1,1591.5999999940395,329763.200000003,8005,VNB,A,2
3,test,5,0.0,1-Back,1,z,Wed Oct 30 2024 13:55:07 GMT-0500 (Central Daylight Time),332887.700000003,039_o_m_d_a.png,I,z,503,4,1,1526.3000000044703,331361.3999999985,8005,VNB,A,3
4,test,5,0.0,1-Back,1,m,Wed Oct 30 2024 13:55:07 GMT-0500 (Central Daylight Time),334454.0,139_m_f_h_a.png,I,m,538,5,1,1559.2999999970198,332894.700000003,8005,VNB,A,4
5,test,5,0.0,1-Back,1,m,Wed Oct 30 2024 13:55:07 GMT-0500 (Central Daylight Time),336104.700000003,071_y_f_n_a.png,I,m,619,6,1,1643.3000000044703,334461.3999999985,8005,VNB,A,5
6,test,5,1.0,1-Back,1,z,Wed Oct 30 2024 13:55:07 GMT-0500 (Central Daylight Time),337702.799999997,124_o_f_n_a.png,I,z,570,7,1,1591.2999999970198,336111.5,8005,VNB,A,6
7,test,5,0.0,1-Back,1,m,Wed Oct 30 2024 13:55:07 GMT-0500 (Central Daylight Time),339369.0,139_m_f_d_a.png,I,m,634,8,1,1659.2999999970198,337709.700000003,8005,VNB,A,7
8,test,5,0.0,1-Back,1,m,Wed Oct 30 2024 13:55:07 GMT-0500 (Central Daylight Time),341168.6000000015,109_y_m_h_a.png,I,m,768,9,1,1792.8999999985099,339375.700000003,8005,VNB,A,8
9,test,5,0.0,1-Back,1,m,Wed Oct 30 2024 13:55:07 GMT-0500 (Central Daylight Time),343050.8999999985,071_y_f_d_a.png,I,m,865,10,1,1875.5,341175.3999999985,8005,VNB,A,9
10,test,5,0.0,1-Back,1,m,Wed Oct 30 2024 13:55:07 GMT-0500 (Central Daylight Time),344833.799999997,165_m_m_n_a.png,I,m,758,11,1,1776.2999999970198,343057.5,8005,VNB,A,10
11,test,5,1.0,1-Back,1,z,Wed Oct 30 2024 13:55:07 GMT-0500 (Central Daylight Time),346350.299999997,139_m_f_n_a.png,I,z,496,12,1,1509.2999999970198,344841.0,8005,VNB,A,11
12,test,5,0.0,1-Back,1,m,Wed Oct 30 2024 13:55:07 GMT-0500 (Central Daylight Time),348899.0,039_o_m_h_a.png,I,m,1523,13,1,2542.0,346357.0,8005,VNB,A,12
13,test,5,0.0,1-Back,1,z,Wed Oct 30 2024 13:55:07 GMT-0500 (Central Daylight Time),350465.299999997,165_m_m_h_a.png,I,z,542,14,1,1559.3999999985099,348905.8999999985,8005,VNB,A,13
14,test,5,1.0,1-Back,1,m,Wed Oct 30 2024 13:55:07 GMT-0500 (Central Daylight Time),352331.5,124_o_f_d_a.png,I,m,848,15,1,1859.3999999985099,350472.1000000015,8005,VNB,A,14
15,test,5,0.0,1-Back,1,m,Wed Oct 30 2024 13:55:07 GMT-0500 (Central Daylight Time),354031.1000000015,109_y_m_n_a.png,I,m,678,16,1,1692.8999999985099,352338.200000003,8005,VNB,A,15
16,test,5,0.0,1-Back,1,m,Wed Oct 30 2024 13:55:07 GMT-0500 (Central Daylight Time),355647.3999999985,071_y_f_h_a.png,I,m,586,17,1,1609.1000000014901,354038.299999997,8005,VNB,A,16
17,test,5,0.0,1-Back,1,m,Wed Oct 30 2024 13:55:07 GMT-0500 (Central Daylight Time),357396.6000000015,165_m_m_d_a.png,I,m,722,18,1,1742.3000000044703,355654.299999997,8005,VNB,A,17
0,prac,1,0.0,2-Back,,,Wed Oct 30 2024 13:55:07 GMT-0500 (Central Daylight Time),357396.6000000015,139_m_f_n_a.png,I,space,9147,1,1,1742.3000000044703,355654.299999997,8005,VNB,A,0
0,prac,1,0.0,2-Back,,,Wed Oct 30 2024 13:55:07 GMT-0500 (Central Daylight Time),357396.6000000015,124_o_f_h_a.png,I,space,9147,2,1,1742.3000000044703,355654.299999997,8005,VNB,A,0
1,prac,1,0.0,2-Back,1,m,Wed Oct 30 2024 13:55:07 GMT-0500 (Central Daylight Time),453366.6000000015,039_o_m_d_a.png,I,m,1662,3,1,2457.60000000149,450909.0,8005,VNB,A,1
2,prac,1,1.0,2-Back,1,z,Wed Oct 30 2024 13:55:07 GMT-0500 (Central Daylight Time),454832.8999999985,165_m_m_h_a.png,I,z,657,4,1,1457.5,453375.3999999985,8005,VNB,A,2
3,prac,1,0.0,2-Back,1,m,Wed Oct 30 2024 13:55:07 GMT-0500 (Central Daylight Time),456315.700000003,071_y_f_n_a.png,I,m,678,5,1,1474.8000000044703,454840.8999999985,8005,VNB,A,3
4,prac,1,1.0,2-Back,1,z,Wed Oct 30 2024 13:55:07 GMT-0500 (Central Daylight Time),458198.5,039_o_m_h_a.png,I,z,1080,6,1,1874.7000000029802,456323.799999997,8005,VNB,A,4
4,prac,1,1.0,2-Back,0,z,Wed Oct 30 2024 13:55:07 GMT-0500 (Central Daylight Time),460747.6000000015,109_y_m_n_a.png,I,m,1740,7,1,2540.8000000044703,458206.799999997,8005,VNB,A,5
5,prac,1,0.0,2-Back,1,m,Wed Oct 30 2024 13:55:07 GMT-0500 (Central Daylight Time),463197.0,139_m_f_d_a.png,I,m,1637,8,1,2441.5,460755.5,8005,VNB,A,6
6,prac,1,0.0,2-Back,1,m,Wed Oct 30 2024 13:55:07 GMT-0500 (Central Daylight Time),465079.700000003,124_o_f_d_a.png,I,m,1038,9,1,1874.7000000029802,463205.0,8005,VNB,A,7
7,prac,1,0.0,2-Back,1,m,Wed Oct 30 2024 13:55:07 GMT-0500 (Central Daylight Time),466848.3999999985,165_m_m_h_a.png,I,m,978,10,1,1760.6000000014901,465087.799999997,8005,VNB,A,8
8,prac,1,1.0,2-Back,1,z,Wed Oct 30 2024 13:55:07 GMT-0500 (Central Daylight Time),468362.0,071_y_f_d_a.png,I,z,695,11,1,1504.7999999970198,466857.200000003,8005,VNB,A,9
9,prac,1,0.0,2-Back,1,m,Wed Oct 30 2024 13:55:07 GMT-0500 (Central Daylight Time),471078.0,039_o_m_n_a.png,I,m,1904,12,1,2707.89999999851,468370.1000000015,8005,VNB,A,10
0,test,1,0.0,2-Back,,,Wed Oct 30 2024 13:55:07 GMT-0500 (Central Daylight Time),471078.0,109_y_m_h_a.png,I,space,8632,1,1,2707.89999999851,468370.1000000015,8005,VNB,A,0
0,test,1,0.0,2-Back,,,Wed Oct 30 2024 13:55:07 GMT-0500 (Central Daylight Time),471078.0,124_o_f_n_a.png,I,space,8632,2,1,2707.89999999851,468370.1000000015,8005,VNB,A,0
1,test,1,0.0,2-Back,1,z,Wed Oct 30 2024 13:55:07 GMT-0500 (Central Daylight Time),494220.3999999985,039_o_m_h_a.png,I,z,931,3,1,1942.1000000014901,492278.299999997,8005,VNB,A,1
2,test,1,0.0,2-Back,1,m,Wed Oct 30 2024 13:55:07 GMT-0500 (Central Daylight Time),496170.5,139_m_f_d_a.png,I,m,933,4,1,1942.8999999985099,494227.6000000015,8005,VNB,A,2
3,test,1,1.0,2-Back,1,m,Wed Oct 30 2024 13:55:07 GMT-0500 (Central Daylight Time),498835.3999999985,109_y_m_n_a.png,I,m,1640,5,1,2658.0,496177.3999999985,8005,VNB,A,3
4,test,1,0.0,2-Back,1,z,Wed Oct 30 2024 13:55:07 GMT-0500 (Central Daylight Time),500451.799999997,071_y_f_d_a.png,I,z,598,6,1,1609.5,498842.299999997,8005,VNB,A,4
5,test,1,0.0,2-Back,1,m,Wed Oct 30 2024 13:55:07 GMT-0500 (Central Daylight Time),502584.5,165_m_m_h_a.png,I,m,1111,7,1,2125.7999999970198,500458.700000003,8005,VNB,A,5
5,test,1,1.0,2-Back,0,m,Wed Oct 30 2024 13:55:07 GMT-0500 (Central Daylight Time),504400.5,071_y_f_n_a.png,I,z,794,8,1,1809.2000000029802,502591.299999997,8005,VNB,A,6
5,test,1,0.0,2-Back,0,z,Wed Oct 30 2024 13:55:07 GMT-0500 (Central Daylight Time),505950.0,124_o_f_h_a.png,I,m,521,9,1,1542.5,504407.5,8005,VNB,A,7
6,test,1,0.0,2-Back,1,m,Wed Oct 30 2024 13:55:07 GMT-0500 (Central Daylight Time),508782.6000000015,039_o_m_d_a.png,I,m,1803,10,1,2825.60000000149,505957.0,8005,VNB,A,8
6,test,1,1.0,2-Back,0,m,Wed Oct 30 2024 13:55:07 GMT-0500 (Central Daylight Time),511814.8999999985,165_m_m_d_a.png,I,None,2016,11,1,3025.6999999955297,508789.200000003,8005,VNB,A,9
6,test,1,0.0,2-Back,0,m,Wed Oct 30 2024 13:55:07 GMT-0500 (Central Daylight Time),514847.3999999985,139_m_f_n_a.png,I,None,2015,12,1,3025.1999999955297,511822.200000003,8005,VNB,A,10
7,test,1,0.0,2-Back,1,m,Wed Oct 30 2024 13:55:07 GMT-0500 (Central Daylight Time),516980.0,071_y_f_h_a.png,I,m,1107,13,1,2125.10000000149,514854.8999999985,8005,VNB,A,11
8,test,1,0.0,2-Back,1,z,Wed Oct 30 2024 13:55:07 GMT-0500 (Central Daylight Time),518696.1000000015,165_m_m_n_a.png,I,z,686,14,1,1709.3999999985099,516986.700000003,8005,VNB,A,12
9,test,1,0.0,2-Back,1,m,Wed Oct 30 2024 13:55:07 GMT-0500 (Central Daylight Time),520812.200000003,109_y_m_d_a.png,I,m,1098,15,1,2109.2000000029802,518703.0,8005,VNB,A,13
10,test,1,1.0,2-Back,1,m,Wed Oct 30 2024 13:55:07 GMT-0500 (Central Daylight Time),523261.299999997,139_m_f_h_a.png,I,m,1422,16,1,2441.5999999940395,520819.700000003,8005,VNB,A,14
11,test,1,0.0,2-Back,1,z,Wed Oct 30 2024 13:55:07 GMT-0500 (Central Daylight Time),525093.8999999985,124_o_f_d_a.png,I,z,805,17,1,1825.8999999985099,523268.0,8005,VNB,A,15
12,test,1,0.0,2-Back,1,m,Wed Oct 30 2024 13:55:07 GMT-0500 (Central Daylight Time),526826.8999999985,039_o_m_n_a.png,I,m,707,18,1,1726.1000000014901,525100.799999997,8005,VNB,A,16
0,test,2,0.0,2-Back,,,Wed Oct 30 2024 13:55:07 GMT-0500 (Central Daylight Time),526826.8999999985,165_m_m_h_a.png,I,space,1080,1,1,1726.1000000014901,525100.799999997,8005,VNB,A,0
0,test,2,0.0,2-Back,,,Wed Oct 30 2024 13:55:07 GMT-0500 (Central Daylight Time),526826.8999999985,071_y_f_n_a.png,I,space,1080,2,1,1726.1000000014901,525100.799999997,8005,VNB,A,0
1,test,2,1.0,2-Back,1,z,Wed Oct 30 2024 13:55:07 GMT-0500 (Central Daylight Time),534691.1000000015,124_o_f_h_a.png,I,z,675,3,1,1691.8999999985099,532999.200000003,8005,VNB,A,1
2,test,2,0.0,2-Back,1,m,Wed Oct 30 2024 13:55:07 GMT-0500 (Central Daylight Time),536757.1000000015,039_o_m_d_a.png,I,m,1038,4,1,2058.39999999851,534698.700000003,8005,VNB,A,2
3,test,2,0.0,2-Back,1,m,Wed Oct 30 2024 13:55:07 GMT-0500 (Central Daylight Time),538989.700000003,139_m_f_d_a.png,I,m,1213,5,1,2224.7000000029802,536765.0,8005,VNB,A,3
4,test,2,0.0,2-Back,1,m,Wed Oct 30 2024 13:55:07 GMT-0500 (Central Daylight Time),541373.3999999985,109_y_m_h_a.png,I,m,1365,6,1,2376.39999999851,538997.0,8005,VNB,A,4
5,test,2,0.0,2-Back,1,m,Wed Oct 30 2024 13:55:07 GMT-0500 (Central Daylight Time),544171.200000003,124_o_f_n_a.png,I,m,1782,7,1,2791.0,541380.200000003,8005,VNB,A,5
6,test,2,1.0,2-Back,1,z,Wed Oct 30 2024 13:55:07 GMT-0500 (Central Daylight Time),545621.0,039_o_m_h_a.png,I,z,423,8,1,1442.8999999985099,544178.1000000015,8005,VNB,A,6
6,test,2,0.0,2-Back,0,m,Wed Oct 30 2024 13:55:07 GMT-0500 (Central Daylight Time),548653.3999999985,071_y_f_d_a.png,I,None,2016,9,1,3025.2999999970198,545628.1000000015,8005,VNB,A,7
7,test,2,0.0,2-Back,1,m,Wed Oct 30 2024 13:55:07 GMT-0500 (Central Daylight Time),550620.6000000015,109_y_m_d_a.png,I,m,948,10,1,1960.2000000029802,548660.3999999985,8005,VNB,A,8
8,test,2,0.0,2-Back,1,m,Wed Oct 30 2024 13:55:07 GMT-0500 (Central Daylight Time),553103.299999997,165_m_m_n_a.png,I,m,1462,11,1,2475.0,550628.299999997,8005,VNB,A,9
9,test,2,0.0,2-Back,1,m,Wed Oct 30 2024 13:55:07 GMT-0500 (Central Daylight Time),555351.299999997,139_m_f_h_a.png,I,m,1219,12,1,2240.5999999940395,553110.700000003,8005,VNB,A,10
10,test,2,1.0,2-Back,1,z,Wed Oct 30 2024 13:55:07 GMT-0500 (Central Daylight Time),556867.299999997,039_o_m_n_a.png,I,z,498,13,1,1508.6999999955297,555358.6000000015,8005,VNB,A,11
11,test,2,0.0,2-Back,1,m,Wed Oct 30 2024 13:55:07 GMT-0500 (Central Daylight Time),558616.8999999985,124_o_f_d_a.png,I,m,726,14,1,1742.1999999955297,556874.700000003,8005,VNB,A,12
12,test,2,0.0,2-Back,1,m,Wed Oct 30 2024 13:55:07 GMT-0500 (Central Daylight Time),560966.0,071_y_f_h_a.png,I,m,1328,15,1,2342.10000000149,558623.8999999985,8005,VNB,A,13
12,test,2,0.0,2-Back,0,z,Wed Oct 30 2024 13:55:07 GMT-0500 (Central Daylight Time),563998.799999997,165_m_m_d_a.png,I,None,2016,16,1,3023.0999999940395,560975.700000003,8005,VNB,A,14
13,test,2,0.0,2-Back,1,m,Wed Oct 30 2024 13:55:07 GMT-0500 (Central Daylight Time),566947.5,109_y_m_n_a.png,I,m,1931,17,1,2941.7000000029802,564005.799999997,8005,VNB,A,15
14,test,2,1.0,2-Back,1,m,Wed Oct 30 2024 13:55:07 GMT-0500 (Central Daylight Time),568913.6000000015,139_m_f_n_a.png,I,m,942,18,1,1958.1000000014901,566955.5,8005,VNB,A,16
0,test,3,1.0,2-Back,,,Wed Oct 30 2024 13:55:07 GMT-0500 (Central Daylight Time),568913.6000000015,039_o_m_n_a.png,I,space,952,1,1,1958.1000000014901,566955.5,8005,VNB,A,0
0,test,3,1.0,2-Back,,,Wed Oct 30 2024 13:55:07 GMT-0500 (Central Daylight Time),568913.6000000015,124_o_f_d_a.png,I,space,952,2,1,1958.1000000014901,566955.5,8005,VNB,A,0
1,test,3,0.0,2-Back,1,m,Wed Oct 30 2024 13:55:07 GMT-0500 (Central Daylight Time),576894.700000003,071_y_f_h_a.png,I,m,871,3,1,1892.6000000014901,575002.1000000015,8005,VNB,A,1
2,test,3,0.0,2-Back,1,z,Wed Oct 30 2024 13:55:07 GMT-0500 (Central Daylight Time),578710.6000000015,139_m_f_d_a.png,I,z,787,4,1,1808.8999999985099,576901.700000003,8005,VNB,A,2
3,test,3,1.0,2-Back,1,m,Wed Oct 30 2024 13:55:07 GMT-0500 (Central Daylight Time),581293.200000003,109_y_m_n_a.png,I,m,1563,5,1,2575.5,578717.700000003,8005,VNB,A,3
4,test,3,0.0,2-Back,1,m,Wed Oct 30 2024 13:55:07 GMT-0500 (Central Daylight Time),584058.6000000015,039_o_m_h_a.png,I,m,1740,6,1,2758.7000000029802,581299.8999999985,8005,VNB,A,4
5,test,3,0.0,2-Back,1,z,Wed Oct 30 2024 13:55:07 GMT-0500 (Central Daylight Time),587024.6000000015,071_y_f_n_a.png,I,z,1943,7,1,2959.10000000149,584065.5,8005,VNB,A,5
6,test,3,1.0,2-Back,1,m,Wed Oct 30 2024 13:55:07 GMT-0500 (Central Daylight Time),589108.299999997,165_m_m_d_a.png,I,m,1065,8,1,2076.2999999970198,587032.0,8005,VNB,A,6
7,test,3,0.0,2-Back,1,m,Wed Oct 30 2024 13:55:07 GMT-0500 (Central Daylight Time),590773.700000003,109_y_m_d_a.png,I,m,647,9,1,1657.7000000029802,589116.0,8005,VNB,A,7
8,test,3,0.0,2-Back,1,m,Wed Oct 30 2024 13:55:07 GMT-0500 (Central Daylight Time),592889.6000000015,124_o_f_h_a.png,I,m,1092,10,1,2108.8000000044703,590780.799999997,8005,VNB,A,8
9,test,3,1.0,2-Back,1,m,Wed Oct 30 2024 13:55:07 GMT-0500 (Central Daylight Time),595022.200000003,139_m_f_n_a.png,I,m,1112,11,1,2125.0,592897.200000003,8005,VNB,A,9
10,test,3,1.0,2-Back,1,z,Wed Oct 30 2024 13:55:07 GMT-0500 (Central Daylight Time),596638.6000000015,165_m_m_h_a.png,I,z,596,12,1,1609.2000000029802,595029.3999999985,8005,VNB,A,10
10,test,3,0.0,2-Back,0,m,Wed Oct 30 2024 13:55:07 GMT-0500 (Central Daylight Time),599670.799999997,071_y_f_d_a.png,I,None,2016,13,1,3024.5,596646.299999997,8005,VNB,A,11
11,test,3,0.0,2-Back,1,m,Wed Oct 30 2024 13:55:07 GMT-0500 (Central Daylight Time),601836.799999997,124_o_f_n_a.png,I,m,1147,14,1,2158.89999999851,599677.8999999985,8005,VNB,A,12
12,test,3,0.0,2-Back,1,z,Wed Oct 30 2024 13:55:07 GMT-0500 (Central Daylight Time),603319.700000003,039_o_m_d_a.png,I,z,453,15,1,1475.7000000029802,601844.0,8005,VNB,A,13
13,test,3,1.0,2-Back,1,m,Wed Oct 30 2024 13:55:07 GMT-0500 (Central Daylight Time),605085.6000000015,139_m_f_h_a.png,I,m,747,16,1,1758.5,603327.1000000015,8005,VNB,A,14
14,test,3,0.0,2-Back,1,m,Wed Oct 30 2024 13:55:07 GMT-0500 (Central Daylight Time),608080.299999997,165_m_m_n_a.png,I,m,1960,17,1,2987.6999999955297,605092.6000000015,8005,VNB,A,15
15,test,3,0.0,2-Back,1,z,Wed Oct 30 2024 13:55:07 GMT-0500 (Central Daylight Time),609584.299999997,109_y_m_h_a.png,I,z,477,18,1,1495.2999999970198,608089.0,8005,VNB,A,16
0,test,4,0.0,2-Back,,,Wed Oct 30 2024 13:55:07 GMT-0500 (Central Daylight Time),609584.299999997,139_m_f_n_a.png,I,space,1041,1,1,1495.2999999970198,608089.0,8005,VNB,A,0
0,test,4,0.0,2-Back,,,Wed Oct 30 2024 13:55:07 GMT-0500 (Central Daylight Time),609584.299999997,039_o_m_n_a.png,I,space,1041,2,1,1495.2999999970198,608089.0,8005,VNB,A,0
1,test,4,1.0,2-Back,1,m,Wed Oct 30 2024 13:55:07 GMT-0500 (Central Daylight Time),617498.700000003,109_y_m_h_a.png,I,m,766,3,1,1775.4000000059605,615723.299999997,8005,VNB,A,1
2,test,4,1.0,2-Back,1,m,Wed Oct 30 2024 13:55:07 GMT-0500 (Central Daylight Time),619847.700000003,124_o_f_d_a.png,I,m,1318,4,1,2341.4000000059605,617506.299999997,8005,VNB,A,2
3,test,4,0.0,2-Back,1,z,Wed Oct 30 2024 13:55:07 GMT-0500 (Central Daylight Time),621330.5,039_o_m_h_a.png,I,z,451,5,1,1475.6000000014901,619854.8999999985,8005,VNB,A,3
4,test,4,0.0,2-Back,1,m,Wed Oct 30 2024 13:55:07 GMT-0500 (Central Daylight Time),623280.0,165_m_m_n_a.png,I,m,919,6,1,1942.0,621338.0,8005,VNB,A,4
4,test,4,0.0,2-Back,0,m,Wed Oct 30 2024 13:55:07 GMT-0500 (Central Daylight Time),626312.3999999985,139_m_f_d_a.png,I,None,2015,7,1,3024.89999999851,623287.5,8005,VNB,A,5
5,test,4,0.0,2-Back,1,z,Wed Oct 30 2024 13:55:07 GMT-0500 (Central Daylight Time),627945.299999997,071_y_f_n_a.png,I,z,602,8,1,1625.2999999970198,626320.0,8005,VNB,A,6
6,test,4,1.0,2-Back,1,m,Wed Oct 30 2024 13:55:07 GMT-0500 (Central Daylight Time),630461.1000000015,124_o_f_h_a.png,I,m,1497,9,1,2508.8000000044703,627952.299999997,8005,VNB,A,7
7,test,4,0.0,2-Back,1,m,Wed Oct 30 2024 13:55:07 GMT-0500 (Central Daylight Time),632361.799999997,165_m_m_h_a.png,I,m,865,10,1,1893.6999999955297,630468.1000000015,8005,VNB,A,8
8,test,4,0.0,2-Back,1,m,Wed Oct 30 2024 13:55:07 GMT-0500 (Central Daylight Time),633976.700000003,071_y_f_d_a.png,I,m,585,11,1,1607.6000000014901,632369.1000000015,8005,VNB,A,9
9,test,4,0.0,2-Back,1,m,Wed Oct 30 2024 13:55:07 GMT-0500 (Central Daylight Time),635976.0,109_y_m_n_a.png,I,m,978,12,1,1992.0,633984.0,8005,VNB,A,10
10,test,4,0.0,2-Back,1,z,Wed Oct 30 2024 13:55:07 GMT-0500 (Central Daylight Time),637458.6000000015,039_o_m_d_a.png,I,z,458,13,1,1475.8999999985099,635982.700000003,8005,VNB,A,11
11,test,4,1.0,2-Back,1,m,Wed Oct 30 2024 13:55:07 GMT-0500 (Central Daylight Time),640291.3999999985,139_m_f_h_a.png,I,m,1806,14,1,2824.7999999970198,637466.6000000015,8005,VNB,A,12
12,test,4,1.0,2-Back,1,m,Wed Oct 30 2024 13:55:07 GMT-0500 (Central Daylight Time),642540.6000000015,071_y_f_h_a.png,I,m,1223,15,1,2241.89999999851,640298.700000003,8005,VNB,A,13
13,test,4,0.0,2-Back,1,m,Wed Oct 30 2024 13:55:07 GMT-0500 (Central Daylight Time),644789.8999999985,124_o_f_n_a.png,I,m,1230,16,1,2241.5,642548.3999999985,8005,VNB,A,14
14,test,4,0.0,2-Back,1,m,Wed Oct 30 2024 13:55:07 GMT-0500 (Central Daylight Time),646723.0,109_y_m_d_a.png,I,m,901,17,1,1926.0,644797.0,8005,VNB,A,15
15,test,4,1.0,2-Back,1,m,Wed Oct 30 2024 13:55:07 GMT-0500 (Central Daylight Time),648738.6000000015,165_m_m_d_a.png,I,m,999,18,1,2008.5,646730.1000000015,8005,VNB,A,16
0,test,5,1.0,2-Back,,,Wed Oct 30 2024 13:55:07 GMT-0500 (Central Daylight Time),648738.6000000015,071_y_f_d_a.png,I,space,887,1,1,2008.5,646730.1000000015,8005,VNB,A,0
0,test,5,1.0,2-Back,,,Wed Oct 30 2024 13:55:07 GMT-0500 (Central Daylight Time),648738.6000000015,124_o_f_h_a.png,I,space,887,2,1,2008.5,646730.1000000015,8005,VNB,A,0
1,test,5,1.0,2-Back,1,z,Wed Oct 30 2024 13:55:07 GMT-0500 (Central Daylight Time),656603.0,039_o_m_d_a.png,I,z,866,3,1,1876.1000000014901,654726.8999999985,8005,VNB,A,1
2,test,5,1.0,2-Back,1,m,Wed Oct 30 2024 13:55:07 GMT-0500 (Central Daylight Time),658285.700000003,139_m_f_n_a.png,I,m,662,4,1,1675.5,656610.200000003,8005,VNB,A,2
2,test,5,0.0,2-Back,0,m,Wed Oct 30 2024 13:55:07 GMT-0500 (Central Daylight Time),660035.200000003,165_m_m_h_a.png,I,z,725,5,1,1742.4000000059605,658292.799999997,8005,VNB,A,3
3,test,5,0.0,2-Back,1,z,Wed Oct 30 2024 13:55:07 GMT-0500 (Central Daylight Time),662784.200000003,071_y_f_n_a.png,I,z,1728,6,1,2741.9000000059605,660042.299999997,8005,VNB,A,4
4,test,5,0.0,2-Back,1,m,Wed Oct 30 2024 13:55:07 GMT-0500 (Central Daylight Time),664534.8999999985,124_o_f_d_a.png,I,m,722,7,1,1743.8999999985099,662791.0,8005,VNB,A,5
4,test,5,0.0,2-Back,0,m,Wed Oct 30 2024 13:55:07 GMT-0500 (Central Daylight Time),667566.200000003,039_o_m_h_a.png,I,None,2016,8,1,3024.0,664542.200000003,8005,VNB,A,6
5,test,5,1.0,2-Back,1,z,Wed Oct 30 2024 13:55:07 GMT-0500 (Central Daylight Time),669298.8999999985,139_m_f_d_a.png,I,z,700,9,1,1725.5,667573.3999999985,8005,VNB,A,7
6,test,5,0.0,2-Back,1,m,Wed Oct 30 2024 13:55:07 GMT-0500 (Central Daylight Time),671264.799999997,109_y_m_n_a.png,I,m,944,10,1,1959.1999999955297,669305.6000000015,8005,VNB,A,8
7,test,5,0.0,2-Back,1,m,Wed Oct 30 2024 13:55:07 GMT-0500 (Central Daylight Time),673430.8999999985,165_m_m_n_a.png,I,m,1145,11,1,2158.2999999970198,671272.6000000015,8005,VNB,A,9
8,test,5,0.0,2-Back,1,m,Wed Oct 30 2024 13:55:07 GMT-0500 (Central Daylight Time),675413.6000000015,071_y_f_h_a.png,I,m,953,12,1,1975.6000000014901,673438.0,8005,VNB,A,10
9,test,5,0.0,2-Back,1,m,Wed Oct 30 2024 13:55:07 GMT-0500 (Central Daylight Time),678329.3999999985,109_y_m_d_a.png,I,m,1892,13,1,2908.60000000149,675420.799999997,8005,VNB,A,11
10,test,5,1.0,2-Back,1,z,Wed Oct 30 2024 13:55:07 GMT-0500 (Central Daylight Time),679812.3999999985,139_m_f_h_a.png,I,z,465,14,1,1475.6999999955297,678336.700000003,8005,VNB,A,12
11,test,5,0.0,2-Back,1,m,Wed Oct 30 2024 13:55:07 GMT-0500 (Central Daylight Time),681478.5,039_o_m_n_a.png,I,m,646,15,1,1658.1000000014901,679820.3999999985,8005,VNB,A,13
12,test,5,0.0,2-Back,1,m,Wed Oct 30 2024 13:55:07 GMT-0500 (Central Daylight Time),683345.6000000015,165_m_m_d_a.png,I,m,834,16,1,1859.3999999985099,681486.200000003,8005,VNB,A,14
12,test,5,0.0,2-Back,0,z,Wed Oct 30 2024 13:55:07 GMT-0500 (Central Daylight Time),685560.5,124_o_f_n_a.png,I,m,1185,17,1,2207.89999999851,683352.6000000015,8005,VNB,A,15
12,test,5,1.0,2-Back,0,m,Wed Oct 30 2024 13:55:07 GMT-0500 (Central Daylight Time),688593.1000000015,109_y_m_h_a.png,I,None,2016,18,1,3025.7000000029802,685567.3999999985,8005,VNB,A,16
