acc_sum,block,block_c,block_cond,con_img,correct,correct_response,datetime,endtime,face,jitter,line,project,response,response_time,row_sel,session_number,start_end,starttime,subject_id,task,task_vers,trial
0,prac,1,A,haborder.png,0,z,Thu Feb 20 2025 17:10:58 GMT-0600 (Central Standard Time),68334.80000000075,CFD-BM-005-010-A.jpg,1600,solid,O,None,1515,2,1,3898.39999999851,64436.400000002235,7050,ATS,A,1
1,prac,1,A,haborder.png,1,m,Thu Feb 20 2025 17:10:58 GMT-0600 (Central Standard Time),71883.5,CFD-WM-006-013-HC.jpg,1700,solid,O,m,1058,9,1,7447.099999997765,64436.400000002235,7050,ATS,A,2
1,prac,1,A,haborder.png,0,m,Thu Feb 20 2025 17:10:58 GMT-0600 (Central Standard Time),75399.40000000224,CFD-BM-029-026-HC.jpg,1500,solid,O,z,1223,3,1,10963.0,64436.400000002235,7050,ATS,A,3
2,prac,1,A,haborder.png,1,z,Thu Feb 20 2025 17:10:58 GMT-0600 (Central Standard Time),78648.19999999925,CFD-WF-003-014-A.jpg,1600,solid,O,z,854,10,1,14211.79999999702,64436.400000002235,7050,ATS,A,4
3,prac,1,A,haborder.png,1,m,Thu Feb 20 2025 17:10:58 GMT-0600 (Central Standard Time),81614.0,CFD-WM-004-005-HC.jpg,1400,solid,O,m,780,7,1,17177.599999997765,64436.400000002235,7050,ATS,A,5
4,prac,1,A,haborder.png,1,z,Thu Feb 20 2025 17:10:58 GMT-0600 (Central Standard Time),85096.0,CFD-WM-013-015-A.jpg,1900,solid,O,z,787,8,1,20659.599999997765,64436.400000002235,7050,ATS,A,6
5,prac,1,A,haborder.png,1,m,Thu Feb 20 2025 17:10:58 GMT-0600 (Central Standard Time),88628.40000000224,CFD-BF-028-020-HC.jpg,2000,solid,O,m,741,5,1,24192.0,64436.400000002235,7050,ATS,A,7
6,prac,1,A,haborder.png,1,m,Thu Feb 20 2025 17:10:58 GMT-0600 (Central Standard Time),91460.80000000075,CFD-WF-017-016-HC.jpg,1500,solid,O,m,549,11,1,27024.39999999851,64436.400000002235,7050,ATS,A,8
7,prac,1,A,haborder.png,1,z,Thu Feb 20 2025 17:10:58 GMT-0600 (Central Standard Time),93793.69999999925,CFD-BF-023-013-A.jpg,1000,solid,O,z,544,4,1,29357.29999999702,64436.400000002235,7050,ATS,A,9
8,prac,1,A,haborder.png,1,z,Thu Feb 20 2025 17:10:58 GMT-0600 (Central Standard Time),96143.80000000075,CFD-WF-019-015-A.jpg,1000,solid,O,z,556,12,1,31707.39999999851,64436.400000002235,7050,ATS,A,10
9,prac,1,A,haborder.png,1,z,Thu Feb 20 2025 17:10:58 GMT-0600 (Central Standard Time),98741.90000000224,CFD-BF-039-039-A.jpg,1200,solid,O,z,607,6,1,34305.5,64436.400000002235,7050,ATS,A,11
10,prac,1,A,haborder.png,1,m,Thu Feb 20 2025 17:10:58 GMT-0600 (Central Standard Time),101724.40000000224,CFD-BM-017-052-HC.jpg,1700,solid,O,m,490,1,1,37288.0,64436.400000002235,7050,ATS,A,12
1,prac,1,B,mfborder.png,1,z,Thu Feb 20 2025 17:10:58 GMT-0600 (Central Standard Time),137796.5,CFD-BF-010-005-HC.jpg,1500,dash,O,z,941,3,1,3232.39999999851,134564.1000000015,7050,ATS,A,1
2,prac,1,B,mfborder.png,1,z,Thu Feb 20 2025 17:10:58 GMT-0600 (Central Standard Time),141512.1000000015,CFD-WF-003-014-A.jpg,1500,dash,O,z,1421,11,1,6948.0,134564.1000000015,7050,ATS,A,2
3,prac,1,B,mfborder.png,1,z,Thu Feb 20 2025 17:10:58 GMT-0600 (Central Standard Time),143894.19999999925,CFD-BF-023-013-A.jpg,1000,dash,O,z,597,4,1,9330.099999997765,134564.1000000015,7050,ATS,A,3
4,prac,1,B,mfborder.png,1,z,Thu Feb 20 2025 17:10:58 GMT-0600 (Central Standard Time),146228.40000000224,CFD-WF-017-016-HC.jpg,1000,dash,O,z,534,12,1,11664.300000000745,134564.1000000015,7050,ATS,A,4
5,prac,1,B,mfborder.png,1,m,Thu Feb 20 2025 17:10:58 GMT-0600 (Central Standard Time),149159.90000000224,CFD-BM-010-019-A.jpg,1600,dash,O,m,538,2,1,14595.800000000745,134564.1000000015,7050,ATS,A,5
6,prac,1,B,mfborder.png,1,m,Thu Feb 20 2025 17:10:58 GMT-0600 (Central Standard Time),152258.5,CFD-WM-019-013-A.jpg,1200,dash,O,m,1110,6,1,17694.39999999851,134564.1000000015,7050,ATS,A,6
7,prac,1,B,mfborder.png,1,z,Thu Feb 20 2025 17:10:58 GMT-0600 (Central Standard Time),155241.30000000075,CFD-BF-028-020-HC.jpg,1400,dash,O,z,787,7,1,20677.199999999255,134564.1000000015,7050,ATS,A,7
8,prac,1,B,mfborder.png,1,m,Thu Feb 20 2025 17:10:58 GMT-0600 (Central Standard Time),158356.80000000075,CFD-WM-006-013-HC.jpg,1600,dash,O,m,716,10,1,23792.699999999255,134564.1000000015,7050,ATS,A,8
9,prac,1,B,mfborder.png,1,m,Thu Feb 20 2025 17:10:58 GMT-0600 (Central Standard Time),161372.40000000224,CFD-WM-013-015-A.jpg,1700,dash,O,m,517,9,1,26808.300000000745,134564.1000000015,7050,ATS,A,9
10,prac,1,B,mfborder.png,1,z,Thu Feb 20 2025 17:10:58 GMT-0600 (Central Standard Time),164704.69999999925,CFD-WF-002-008-HC.jpg,1900,dash,O,z,637,8,1,30140.599999997765,134564.1000000015,7050,ATS,A,10
11,prac,1,B,mfborder.png,1,m,Thu Feb 20 2025 17:10:58 GMT-0600 (Central Standard Time),168053.69999999925,CFD-BM-005-010-A.jpg,2000,dash,O,m,557,5,1,33489.599999997765,134564.1000000015,7050,ATS,A,11
12,prac,1,B,mfborder.png,1,m,Thu Feb 20 2025 17:10:58 GMT-0600 (Central Standard Time),171185.80000000075,CFD-BM-029-026-HC.jpg,1700,dash,O,m,635,1,1,36621.699999999255,134564.1000000015,7050,ATS,A,12
1,test,1,A,haborder.png,1,z,Thu Feb 20 2025 17:10:58 GMT-0600 (Central Standard Time),193845.6000000015,CFD-BM-005-010-A.jpg,1600,solid,O,z,649,2,1,2282.699999999255,191562.90000000224,7050,ATS,A,1
2,test,1,A,haborder.png,1,m,Thu Feb 20 2025 17:10:58 GMT-0600 (Central Standard Time),196695.1000000015,CFD-BF-028-020-HC.jpg,2000,solid,O,m,832,5,1,5132.199999999255,191562.90000000224,7050,ATS,A,2
3,test,1,A,haborder.png,1,z,Thu Feb 20 2025 17:10:58 GMT-0600 (Central Standard Time),198661.0,CFD-BF-023-013-A.jpg,1000,solid,O,z,943,4,1,7098.099999997765,191562.90000000224,7050,ATS,A,3
4,test,1,A,haborder.png,1,z,Thu Feb 20 2025 17:10:58 GMT-0600 (Central Standard Time),200660.19999999925,CFD-BF-039-039-A.jpg,1200,solid,O,z,776,6,1,9097.29999999702,191562.90000000224,7050,ATS,A,4
5,test,1,A,haborder.png,1,m,Thu Feb 20 2025 17:10:58 GMT-0600 (Central Standard Time),203259.30000000075,CFD-BF-028-020-HC.jpg,2000,solid,O,m,577,5,1,11696.39999999851,191562.90000000224,7050,ATS,A,5
6,test,1,A,haborder.png,1,m,Thu Feb 20 2025 17:10:58 GMT-0600 (Central Standard Time),205625.30000000075,CFD-WM-006-013-HC.jpg,1700,solid,O,m,646,9,1,14062.39999999851,191562.90000000224,7050,ATS,A,6
6,test,1,A,haborder.png,0,m,Thu Feb 20 2025 17:10:58 GMT-0600 (Central Standard Time),208557.6000000015,CFD-WM-004-005-HC.jpg,1400,solid,O,None,1515,7,1,16994.699999999255,191562.90000000224,7050,ATS,A,7
7,test,1,A,haborder.png,1,z,Thu Feb 20 2025 17:10:58 GMT-0600 (Central Standard Time),211073.30000000075,CFD-WM-013-015-A.jpg,1900,solid,O,z,596,8,1,19510.39999999851,191562.90000000224,7050,ATS,A,8
8,test,1,A,haborder.png,1,z,Thu Feb 20 2025 17:10:58 GMT-0600 (Central Standard Time),213406.0,CFD-WF-003-014-A.jpg,1600,solid,O,z,700,10,1,21843.099999997765,191562.90000000224,7050,ATS,A,9
9,test,1,A,haborder.png,1,m,Thu Feb 20 2025 17:10:58 GMT-0600 (Central Standard Time),215871.90000000224,CFD-WM-006-013-HC.jpg,1700,solid,O,m,739,9,1,24309.0,191562.90000000224,7050,ATS,A,10
10,test,1,A,haborder.png,1,m,Thu Feb 20 2025 17:10:58 GMT-0600 (Central Standard Time),218204.6000000015,CFD-BM-017-052-HC.jpg,1700,solid,O,m,610,1,1,26641.699999999255,191562.90000000224,7050,ATS,A,11
11,test,1,A,haborder.png,1,z,Thu Feb 20 2025 17:10:58 GMT-0600 (Central Standard Time),220037.40000000224,CFD-BF-039-039-A.jpg,1200,solid,O,z,610,6,1,28474.5,191562.90000000224,7050,ATS,A,12
12,test,1,A,haborder.png,1,m,Thu Feb 20 2025 17:10:58 GMT-0600 (Central Standard Time),222170.0,CFD-WM-004-005-HC.jpg,1400,solid,O,m,712,7,1,30607.099999997765,191562.90000000224,7050,ATS,A,13
13,test,1,A,haborder.png,1,m,Thu Feb 20 2025 17:10:58 GMT-0600 (Central Standard Time),224386.0,CFD-WF-017-016-HC.jpg,1500,solid,O,m,683,11,1,32823.099999997765,191562.90000000224,7050,ATS,A,14
14,test,1,A,haborder.png,1,m,Thu Feb 20 2025 17:10:58 GMT-0600 (Central Standard Time),226668.40000000224,CFD-BM-029-026-HC.jpg,1500,solid,O,m,759,3,1,35105.5,191562.90000000224,7050,ATS,A,15
15,test,1,A,haborder.png,1,z,Thu Feb 20 2025 17:10:58 GMT-0600 (Central Standard Time),228917.90000000224,CFD-WF-003-014-A.jpg,1600,solid,O,z,621,10,1,37355.0,191562.90000000224,7050,ATS,A,16
16,test,1,A,haborder.png,1,m,Thu Feb 20 2025 17:10:58 GMT-0600 (Central Standard Time),230967.1000000015,CFD-WF-017-016-HC.jpg,1500,solid,O,m,531,11,1,39404.199999999255,191562.90000000224,7050,ATS,A,17
17,test,1,A,haborder.png,1,z,Thu Feb 20 2025 17:10:58 GMT-0600 (Central Standard Time),233433.30000000075,CFD-WM-013-015-A.jpg,1900,solid,O,z,546,8,1,41870.39999999851,191562.90000000224,7050,ATS,A,18
18,test,1,A,haborder.png,1,m,Thu Feb 20 2025 17:10:58 GMT-0600 (Central Standard Time),236132.40000000224,CFD-BM-017-052-HC.jpg,1700,solid,O,m,968,1,1,44569.5,191562.90000000224,7050,ATS,A,19
19,test,1,A,haborder.png,1,z,Thu Feb 20 2025 17:10:58 GMT-0600 (Central Standard Time),237715.1000000015,CFD-WF-019-015-A.jpg,1000,solid,O,z,561,12,1,46152.199999999255,191562.90000000224,7050,ATS,A,20
20,test,1,A,haborder.png,1,m,Thu Feb 20 2025 17:10:58 GMT-0600 (Central Standard Time),240047.5,CFD-BM-029-026-HC.jpg,1500,solid,O,m,814,3,1,48484.599999997765,191562.90000000224,7050,ATS,A,21
21,test,1,A,haborder.png,1,z,Thu Feb 20 2025 17:10:58 GMT-0600 (Central Standard Time),242347.0,CFD-BM-005-010-A.jpg,1600,solid,O,z,669,2,1,50784.099999997765,191562.90000000224,7050,ATS,A,22
22,test,1,A,haborder.png,1,z,Thu Feb 20 2025 17:10:58 GMT-0600 (Central Standard Time),244129.69999999925,CFD-WF-019-015-A.jpg,1000,solid,O,z,754,12,1,52566.79999999702,191562.90000000224,7050,ATS,A,23
23,test,1,A,haborder.png,1,z,Thu Feb 20 2025 17:10:58 GMT-0600 (Central Standard Time),245779.30000000075,CFD-BF-023-013-A.jpg,1000,solid,O,z,626,4,1,54216.39999999851,191562.90000000224,7050,ATS,A,24
1,test,1,B,mfborder.png,1,z,Thu Feb 20 2025 17:10:58 GMT-0600 (Central Standard Time),265806.6000000015,CFD-WF-002-008-HC.jpg,1900,dash,O,z,799,8,1,2714.900000002235,263091.69999999925,7050,ATS,A,1
2,test,1,B,mfborder.png,1,m,Thu Feb 20 2025 17:10:58 GMT-0600 (Central Standard Time),267605.69999999925,CFD-WM-019-013-A.jpg,1200,dash,O,m,572,6,1,4514.0,263091.69999999925,7050,ATS,A,2
3,test,1,B,mfborder.png,1,m,Thu Feb 20 2025 17:10:58 GMT-0600 (Central Standard Time),269922.0,CFD-BM-029-026-HC.jpg,1700,dash,O,m,588,1,1,6830.300000000745,263091.69999999925,7050,ATS,A,3
4,test,1,B,mfborder.png,1,m,Thu Feb 20 2025 17:10:58 GMT-0600 (Central Standard Time),272354.30000000075,CFD-WM-013-015-A.jpg,1700,dash,O,m,713,9,1,9262.60000000149,263091.69999999925,7050,ATS,A,4
5,test,1,B,mfborder.png,1,z,Thu Feb 20 2025 17:10:58 GMT-0600 (Central Standard Time),274820.30000000075,CFD-WF-002-008-HC.jpg,1900,dash,O,z,535,8,1,11728.60000000149,263091.69999999925,7050,ATS,A,5
6,test,1,B,mfborder.png,1,z,Thu Feb 20 2025 17:10:58 GMT-0600 (Central Standard Time),276886.0,CFD-BF-010-005-HC.jpg,1500,dash,O,z,532,3,1,13794.300000000745,263091.69999999925,7050,ATS,A,6
7,test,1,B,mfborder.png,1,m,Thu Feb 20 2025 17:10:58 GMT-0600 (Central Standard Time),279535.19999999925,CFD-BM-005-010-A.jpg,2000,dash,O,m,631,5,1,16443.5,263091.69999999925,7050,ATS,A,7
8,test,1,B,mfborder.png,1,m,Thu Feb 20 2025 17:10:58 GMT-0600 (Central Standard Time),281718.0,CFD-BM-010-019-A.jpg,1600,dash,O,m,559,2,1,18626.300000000745,263091.69999999925,7050,ATS,A,8
9,test,1,B,mfborder.png,1,z,Thu Feb 20 2025 17:10:58 GMT-0600 (Central Standard Time),284367.0,CFD-WF-003-014-A.jpg,1500,dash,O,z,1131,11,1,21275.300000000745,263091.69999999925,7050,ATS,A,9
10,test,1,B,mfborder.png,1,z,Thu Feb 20 2025 17:10:58 GMT-0600 (Central Standard Time),286366.80000000075,CFD-BF-028-020-HC.jpg,1400,dash,O,z,574,7,1,23275.10000000149,263091.69999999925,7050,ATS,A,10
11,test,1,B,mfborder.png,1,m,Thu Feb 20 2025 17:10:58 GMT-0600 (Central Standard Time),288599.40000000224,CFD-WM-013-015-A.jpg,1700,dash,O,m,507,9,1,25507.70000000298,263091.69999999925,7050,ATS,A,11
12,test,1,B,mfborder.png,1,z,Thu Feb 20 2025 17:10:58 GMT-0600 (Central Standard Time),290232.19999999925,CFD-WF-017-016-HC.jpg,1000,dash,O,z,613,12,1,27140.5,263091.69999999925,7050,ATS,A,12
13,test,1,B,mfborder.png,1,m,Thu Feb 20 2025 17:10:58 GMT-0600 (Central Standard Time),292514.90000000224,CFD-WM-006-013-HC.jpg,1600,dash,O,m,654,10,1,29423.20000000298,263091.69999999925,7050,ATS,A,13
14,test,1,B,mfborder.png,1,m,Thu Feb 20 2025 17:10:58 GMT-0600 (Central Standard Time),295197.19999999925,CFD-BM-005-010-A.jpg,2000,dash,O,m,660,5,1,32105.5,263091.69999999925,7050,ATS,A,14
15,test,1,B,mfborder.png,1,z,Thu Feb 20 2025 17:10:58 GMT-0600 (Central Standard Time),297213.40000000224,CFD-BF-028-020-HC.jpg,1400,dash,O,z,584,7,1,34121.70000000298,263091.69999999925,7050,ATS,A,15
16,test,1,B,mfborder.png,1,m,Thu Feb 20 2025 17:10:58 GMT-0600 (Central Standard Time),299512.30000000075,CFD-BM-029-026-HC.jpg,1700,dash,O,m,580,1,1,36420.60000000149,263091.69999999925,7050,ATS,A,16
17,test,1,B,mfborder.png,1,m,Thu Feb 20 2025 17:10:58 GMT-0600 (Central Standard Time),301711.80000000075,CFD-BM-010-019-A.jpg,1600,dash,O,m,573,2,1,38620.10000000149,263091.69999999925,7050,ATS,A,17
18,test,1,B,mfborder.png,1,z,Thu Feb 20 2025 17:10:58 GMT-0600 (Central Standard Time),303394.6000000015,CFD-WF-017-016-HC.jpg,1000,dash,O,z,653,12,1,40302.900000002235,263091.69999999925,7050,ATS,A,18
19,test,1,B,mfborder.png,1,z,Thu Feb 20 2025 17:10:58 GMT-0600 (Central Standard Time),305477.5,CFD-WF-003-014-A.jpg,1500,dash,O,z,559,11,1,42385.800000000745,263091.69999999925,7050,ATS,A,19
20,test,1,B,mfborder.png,1,z,Thu Feb 20 2025 17:10:58 GMT-0600 (Central Standard Time),307126.80000000075,CFD-BF-023-013-A.jpg,1000,dash,O,z,617,4,1,44035.10000000149,263091.69999999925,7050,ATS,A,20
21,test,1,B,mfborder.png,1,m,Thu Feb 20 2025 17:10:58 GMT-0600 (Central Standard Time),309176.30000000075,CFD-WM-006-013-HC.jpg,1600,dash,O,m,435,10,1,46084.60000000149,263091.69999999925,7050,ATS,A,21
22,test,1,B,mfborder.png,1,m,Thu Feb 20 2025 17:10:58 GMT-0600 (Central Standard Time),310959.0,CFD-WM-019-013-A.jpg,1200,dash,O,m,557,6,1,47867.300000000745,263091.69999999925,7050,ATS,A,22
23,test,1,B,mfborder.png,1,z,Thu Feb 20 2025 17:10:58 GMT-0600 (Central Standard Time),313408.1000000015,CFD-BF-010-005-HC.jpg,1500,dash,O,z,931,3,1,50316.400000002235,263091.69999999925,7050,ATS,A,23
24,test,1,B,mfborder.png,1,z,Thu Feb 20 2025 17:10:58 GMT-0600 (Central Standard Time),315090.90000000224,CFD-BF-023-013-A.jpg,1000,dash,O,z,662,4,1,51999.20000000298,263091.69999999925,7050,ATS,A,24
0,prac,1,C,haborder.png,0,z,Thu Feb 20 2025 17:10:58 GMT-0600 (Central Standard Time),423923.80000000075,CFD-BF-023-013-A.jpg,1900,dash,O,None,1512,7,1,4198.800000000745,419725.0,7050,ATS,A,1
1,prac,1,C,haborder.png,1,m,Thu Feb 20 2025 17:10:58 GMT-0600 (Central Standard Time),427222.6000000015,CFD-WM-004-005-HC.jpg,1400,solid,O,m,1121,12,1,7497.60000000149,419725.0,7050,ATS,A,2
2,prac,1,C,haborder.png,1,z,Thu Feb 20 2025 17:10:58 GMT-0600 (Central Standard Time),430205.0,CFD-WF-003-014-A.jpg,1600,dash,O,z,591,9,1,10480.0,419725.0,7050,ATS,A,3
3,prac,1,C,haborder.png,1,m,Thu Feb 20 2025 17:10:58 GMT-0600 (Central Standard Time),432704.30000000075,CFD-WM-004-005-HC.jpg,1000,dash,O,m,705,11,1,12979.300000000745,419725.0,7050,ATS,A,4
3,prac,1,C,mfborder.png,0,z,Thu Feb 20 2025 17:10:58 GMT-0600 (Central Standard Time),436602.80000000075,CFD-WF-017-016-HC.jpg,1600,dash,O,None,1516,1,1,16877.800000000745,419725.0,7050,ATS,A,5
4,prac,1,C,mfborder.png,1,m,Thu Feb 20 2025 17:10:58 GMT-0600 (Central Standard Time),439952.0,CFD-BM-005-010-A.jpg,1200,dash,O,m,1363,5,1,20227.0,419725.0,7050,ATS,A,6
4,prac,1,C,mfborder.png,0,z,Thu Feb 20 2025 17:10:58 GMT-0600 (Central Standard Time),443750.80000000075,CFD-WF-019-015-A.jpg,1500,solid,O,None,1515,2,1,24025.800000000745,419725.0,7050,ATS,A,7
5,prac,1,C,haborder.png,1,m,Thu Feb 20 2025 17:10:58 GMT-0600 (Central Standard Time),447116.6000000015,CFD-BM-029-026-HC.jpg,1500,solid,O,m,1076,10,1,27391.60000000149,419725.0,7050,ATS,A,8
5,prac,1,C,mfborder.png,0,m,Thu Feb 20 2025 17:10:58 GMT-0600 (Central Standard Time),450548.6000000015,CFD-WM-013-015-A.jpg,1700,solid,O,z,933,6,1,30823.60000000149,419725.0,7050,ATS,A,9
5,prac,1,C,mfborder.png,0,z,Thu Feb 20 2025 17:10:58 GMT-0600 (Central Standard Time),453781.1000000015,CFD-BF-028-020-HC.jpg,1000,dash,O,m,1440,3,1,34056.10000000149,419725.0,7050,ATS,A,10
6,prac,1,C,haborder.png,1,z,Thu Feb 20 2025 17:10:58 GMT-0600 (Central Standard Time),457313.30000000075,CFD-BF-039-039-A.jpg,1700,solid,O,z,1044,8,1,37588.300000000745,419725.0,7050,ATS,A,11
7,prac,1,C,mfborder.png,1,m,Thu Feb 20 2025 17:10:58 GMT-0600 (Central Standard Time),460995.5,CFD-BM-017-052-HC.jpg,2000,solid,O,m,892,4,1,41270.5,419725.0,7050,ATS,A,12
1,prac,2,C,haborder.png,1,m,Thu Feb 20 2025 17:10:58 GMT-0600 (Central Standard Time),471076.80000000075,CFD-WM-004-005-HC.jpg,1400,solid,O,m,1451,12,1,51351.800000000745,419725.0,7050,ATS,A,1
1,prac,2,C,haborder.png,0,z,Thu Feb 20 2025 17:10:58 GMT-0600 (Central Standard Time),475274.30000000075,CFD-BF-023-013-A.jpg,1900,dash,O,None,1516,7,1,55549.300000000745,419725.0,7050,ATS,A,2
1,prac,2,C,mfborder.png,0,z,Thu Feb 20 2025 17:10:58 GMT-0600 (Central Standard Time),479173.1000000015,CFD-WF-017-016-HC.jpg,1600,dash,O,None,1516,1,1,59448.10000000149,419725.0,7050,ATS,A,3
1,prac,2,C,haborder.png,0,z,Thu Feb 20 2025 17:10:58 GMT-0600 (Central Standard Time),483171.80000000075,CFD-BF-039-039-A.jpg,1700,solid,O,None,1515,8,1,63446.800000000745,419725.0,7050,ATS,A,4
1,prac,2,C,mfborder.png,0,z,Thu Feb 20 2025 17:10:58 GMT-0600 (Central Standard Time),486471.0,CFD-BF-028-020-HC.jpg,1000,dash,O,None,1515,3,1,66746.0,419725.0,7050,ATS,A,5
2,prac,2,C,haborder.png,1,m,Thu Feb 20 2025 17:10:58 GMT-0600 (Central Standard Time),489403.30000000075,CFD-WM-004-005-HC.jpg,1000,dash,O,m,1134,11,1,69678.30000000075,419725.0,7050,ATS,A,6
3,prac,2,C,haborder.png,1,m,Thu Feb 20 2025 17:10:58 GMT-0600 (Central Standard Time),492485.6000000015,CFD-BM-029-026-HC.jpg,1500,solid,O,m,798,10,1,72760.60000000149,419725.0,7050,ATS,A,7
4,prac,2,C,mfborder.png,1,z,Thu Feb 20 2025 17:10:58 GMT-0600 (Central Standard Time),495401.19999999925,CFD-WF-019-015-A.jpg,1500,solid,O,z,620,2,1,75676.19999999925,419725.0,7050,ATS,A,8
5,prac,2,C,haborder.png,1,z,Thu Feb 20 2025 17:10:58 GMT-0600 (Central Standard Time),499050.40000000224,CFD-WF-003-014-A.jpg,1600,dash,O,z,1221,9,1,79325.40000000224,419725.0,7050,ATS,A,9
5,prac,2,C,mfborder.png,0,m,Thu Feb 20 2025 17:10:58 GMT-0600 (Central Standard Time),502399.40000000224,CFD-BM-005-010-A.jpg,1200,dash,O,z,1355,5,1,82674.40000000224,419725.0,7050,ATS,A,10
6,prac,2,C,mfborder.png,1,m,Thu Feb 20 2025 17:10:58 GMT-0600 (Central Standard Time),505931.40000000224,CFD-WM-013-015-A.jpg,1700,solid,O,m,1034,6,1,86206.40000000224,419725.0,7050,ATS,A,11
7,prac,2,C,mfborder.png,1,m,Thu Feb 20 2025 17:10:58 GMT-0600 (Central Standard Time),510013.5,CFD-BM-017-052-HC.jpg,2000,solid,O,m,1283,4,1,90288.5,419725.0,7050,ATS,A,12
1,test,1,C,haborder.png,1,m,Thu Feb 20 2025 17:10:58 GMT-0600 (Central Standard Time),539754.3000000007,CFD-BF-028-020-HC.jpg,1600,solid,O,m,1220,10,1,2849.300000000745,536905.0,7050,ATS,A,1
1,test,1,C,haborder.png,0,m,Thu Feb 20 2025 17:10:58 GMT-0600 (Central Standard Time),542886.6000000015,CFD-BF-028-020-HC.jpg,1600,solid,O,None,1515,10,1,5981.60000000149,536905.0,7050,ATS,A,2
1,test,1,C,haborder.png,0,z,Thu Feb 20 2025 17:10:58 GMT-0600 (Central Standard Time),546119.1000000015,CFD-BM-010-019-A.jpg,1700,solid,O,None,1516,9,1,9214.10000000149,536905.0,7050,ATS,A,3
1,test,1,C,mfborder.png,0,m,Thu Feb 20 2025 17:10:58 GMT-0600 (Central Standard Time),549651.0,CFD-WM-019-013-A.jpg,2000,dash,O,None,1515,5,1,12746.0,536905.0,7050,ATS,A,4
2,test,1,C,mfborder.png,1,z,Thu Feb 20 2025 17:10:58 GMT-0600 (Central Standard Time),552367.0,CFD-WF-003-014-A.jpg,1500,dash,O,z,1183,3,1,15462.0,536905.0,7050,ATS,A,5
3,test,1,C,mfborder.png,1,z,Thu Feb 20 2025 17:10:58 GMT-0600 (Central Standard Time),555282.6000000015,CFD-BF-023-013-A.jpg,1600,dash,O,z,1288,2,1,18377.60000000149,536905.0,7050,ATS,A,6
3,test,1,C,haborder.png,0,m,Thu Feb 20 2025 17:10:58 GMT-0600 (Central Standard Time),558315.1000000015,CFD-WF-002-008-HC.jpg,1500,solid,O,None,1516,11,1,21410.10000000149,536905.0,7050,ATS,A,7
3,test,1,C,haborder.png,0,m,Thu Feb 20 2025 17:10:58 GMT-0600 (Central Standard Time),560847.5,CFD-WF-017-016-HC.jpg,1000,solid,O,None,1515,12,1,23942.5,536905.0,7050,ATS,A,8
4,test,1,C,mfborder.png,1,z,Thu Feb 20 2025 17:10:58 GMT-0600 (Central Standard Time),563863.1999999993,CFD-BF-010-005-HC.jpg,1700,dash,O,z,1291,1,1,26958.199999999255,536905.0,7050,ATS,A,9
5,test,1,C,mfborder.png,1,m,Thu Feb 20 2025 17:10:58 GMT-0600 (Central Standard Time),565979.3000000007,CFD-WM-006-013-HC.jpg,1000,dash,O,m,1087,4,1,29074.300000000745,536905.0,7050,ATS,A,10
5,test,1,C,haborder.png,0,z,Thu Feb 20 2025 17:10:58 GMT-0600 (Central Standard Time),568745.0,CFD-BM-010-019-A.jpg,1700,solid,O,m,981,9,1,31840.0,536905.0,7050,ATS,A,11
6,test,1,C,mfborder.png,1,z,Thu Feb 20 2025 17:10:58 GMT-0600 (Central Standard Time),571227.6999999993,CFD-WF-003-014-A.jpg,1500,dash,O,z,953,3,1,34322.699999999255,536905.0,7050,ATS,A,12
7,test,1,C,mfborder.png,1,m,Thu Feb 20 2025 17:10:58 GMT-0600 (Central Standard Time),573410.1999999993,CFD-BM-029-026-HC.jpg,1200,dash,O,m,959,6,1,36505.199999999255,536905.0,7050,ATS,A,13
8,test,1,C,haborder.png,1,z,Thu Feb 20 2025 17:10:58 GMT-0600 (Central Standard Time),575776.1000000015,CFD-WM-013-015-A.jpg,1400,solid,O,z,939,7,1,38871.10000000149,536905.0,7050,ATS,A,14
9,test,1,C,haborder.png,1,z,Thu Feb 20 2025 17:10:58 GMT-0600 (Central Standard Time),578225.5,CFD-WM-013-015-A.jpg,1400,solid,O,z,1022,7,1,41320.5,536905.0,7050,ATS,A,15
9,test,1,C,haborder.png,0,m,Thu Feb 20 2025 17:10:58 GMT-0600 (Central Standard Time),580758.1000000015,CFD-WF-017-016-HC.jpg,1000,solid,O,None,1516,12,1,43853.10000000149,536905.0,7050,ATS,A,16
10,test,1,C,haborder.png,1,m,Thu Feb 20 2025 17:10:58 GMT-0600 (Central Standard Time),583175.0,CFD-WF-002-008-HC.jpg,1500,solid,O,m,901,11,1,46270.0,536905.0,7050,ATS,A,17
10,test,1,C,mfborder.png,0,m,Thu Feb 20 2025 17:10:58 GMT-0600 (Central Standard Time),586256.3000000007,CFD-WM-019-013-A.jpg,2000,dash,O,z,1057,5,1,49351.300000000745,536905.0,7050,ATS,A,18
10,test,1,C,mfborder.png,0,m,Thu Feb 20 2025 17:10:58 GMT-0600 (Central Standard Time),588788.8000000007,CFD-WM-006-013-HC.jpg,1000,dash,O,None,1516,4,1,51883.800000000745,536905.0,7050,ATS,A,19
10,test,1,C,haborder.png,0,z,Thu Feb 20 2025 17:10:58 GMT-0600 (Central Standard Time),591654.6999999993,CFD-BM-005-010-A.jpg,1900,solid,O,m,949,8,1,54749.699999999255,536905.0,7050,ATS,A,20
11,test,1,C,mfborder.png,1,z,Thu Feb 20 2025 17:10:58 GMT-0600 (Central Standard Time),594453.8000000007,CFD-BF-010-005-HC.jpg,1700,dash,O,z,1076,1,1,57548.800000000745,536905.0,7050,ATS,A,21
11,test,1,C,haborder.png,0,z,Thu Feb 20 2025 17:10:58 GMT-0600 (Central Standard Time),597402.9000000022,CFD-BM-005-010-A.jpg,1900,solid,O,m,1021,8,1,60497.900000002235,536905.0,7050,ATS,A,22
12,test,1,C,mfborder.png,1,z,Thu Feb 20 2025 17:10:58 GMT-0600 (Central Standard Time),599768.8000000007,CFD-BF-023-013-A.jpg,1600,dash,O,z,748,2,1,62863.800000000745,536905.0,7050,ATS,A,23
12,test,1,C,mfborder.png,0,m,Thu Feb 20 2025 17:10:58 GMT-0600 (Central Standard Time),602501.1999999993,CFD-BM-029-026-HC.jpg,1200,dash,O,None,1515,6,1,65596.19999999925,536905.0,7050,ATS,A,24
1,test,2,C,mfborder.png,1,z,Thu Feb 20 2025 17:10:58 GMT-0600 (Central Standard Time),615099.1000000015,CFD-WF-017-016-HC.jpg,1700,dash,O,z,1301,1,1,3034.5,612064.6000000015,7050,ATS,A,1
1,test,2,C,mfborder.png,0,m,Thu Feb 20 2025 17:10:58 GMT-0600 (Central Standard Time),618529.8000000007,CFD-BM-005-010-A.jpg,2000,dash,O,z,1405,5,1,6465.199999999255,612064.6000000015,7050,ATS,A,2
1,test,2,C,haborder.png,0,z,Thu Feb 20 2025 17:10:58 GMT-0600 (Central Standard Time),621761.9000000022,CFD-WF-003-014-A.jpg,1700,solid,O,None,1516,9,1,9697.300000000745,612064.6000000015,7050,ATS,A,3
2,test,2,C,mfborder.png,1,m,Thu Feb 20 2025 17:10:58 GMT-0600 (Central Standard Time),624377.5,CFD-WM-013-015-A.jpg,1200,dash,O,m,1395,6,1,12312.89999999851,612064.6000000015,7050,ATS,A,4
3,test,2,C,haborder.png,1,m,Thu Feb 20 2025 17:10:58 GMT-0600 (Central Standard Time),626377.0,CFD-WM-004-005-HC.jpg,1000,solid,O,m,972,12,1,14312.39999999851,612064.6000000015,7050,ATS,A,5
3,test,2,C,mfborder.png,0,m,Thu Feb 20 2025 17:10:58 GMT-0600 (Central Standard Time),628859.8000000007,CFD-WM-013-015-A.jpg,1200,dash,O,z,1261,6,1,16795.199999999255,612064.6000000015,7050,ATS,A,6
4,test,2,C,haborder.png,1,m,Thu Feb 20 2025 17:10:58 GMT-0600 (Central Standard Time),631358.8000000007,CFD-WM-004-005-HC.jpg,1500,solid,O,m,967,11,1,19294.199999999255,612064.6000000015,7050,ATS,A,7
4,test,2,C,mfborder.png,0,m,Thu Feb 20 2025 17:10:58 GMT-0600 (Central Standard Time),634891.1000000015,CFD-BM-005-010-A.jpg,2000,dash,O,None,1516,5,1,22826.5,612064.6000000015,7050,ATS,A,8
5,test,2,C,mfborder.png,1,m,Thu Feb 20 2025 17:10:58 GMT-0600 (Central Standard Time),637240.5,CFD-BM-017-052-HC.jpg,1000,dash,O,m,1323,4,1,25175.89999999851,612064.6000000015,7050,ATS,A,9
6,test,2,C,haborder.png,1,z,Thu Feb 20 2025 17:10:58 GMT-0600 (Central Standard Time),640222.6999999993,CFD-BF-039-039-A.jpg,1900,solid,O,z,1058,8,1,28158.099999997765,612064.6000000015,7050,ATS,A,10
7,test,2,C,mfborder.png,1,z,Thu Feb 20 2025 17:10:58 GMT-0600 (Central Standard Time),643221.9000000022,CFD-WF-017-016-HC.jpg,1700,dash,O,z,1266,1,1,31157.300000000745,612064.6000000015,7050,ATS,A,11
8,test,2,C,haborder.png,1,m,Thu Feb 20 2025 17:10:58 GMT-0600 (Central Standard Time),645854.4000000022,CFD-BM-029-026-HC.jpg,1600,solid,O,m,1004,10,1,33789.800000000745,612064.6000000015,7050,ATS,A,12
9,test,2,C,haborder.png,1,m,Thu Feb 20 2025 17:10:58 GMT-0600 (Central Standard Time),648053.6999999993,CFD-WM-004-005-HC.jpg,1000,solid,O,m,1176,12,1,35989.099999997765,612064.6000000015,7050,ATS,A,13
10,test,2,C,mfborder.png,1,z,Thu Feb 20 2025 17:10:58 GMT-0600 (Central Standard Time),650486.1999999993,CFD-BF-028-020-HC.jpg,1500,dash,O,z,899,3,1,38421.599999997765,612064.6000000015,7050,ATS,A,14
11,test,2,C,haborder.png,1,m,Thu Feb 20 2025 17:10:58 GMT-0600 (Central Standard Time),652752.1999999993,CFD-WM-004-005-HC.jpg,1500,solid,O,m,748,11,1,40687.599999997765,612064.6000000015,7050,ATS,A,15
12,test,2,C,haborder.png,1,z,Thu Feb 20 2025 17:10:58 GMT-0600 (Central Standard Time),655351.4000000022,CFD-BF-023-013-A.jpg,1400,solid,O,z,1174,7,1,43286.800000000745,612064.6000000015,7050,ATS,A,16
13,test,2,C,haborder.png,1,m,Thu Feb 20 2025 17:10:58 GMT-0600 (Central Standard Time),657767.4000000022,CFD-BM-029-026-HC.jpg,1600,solid,O,m,783,10,1,45702.800000000745,612064.6000000015,7050,ATS,A,17
14,test,2,C,mfborder.png,1,m,Thu Feb 20 2025 17:10:58 GMT-0600 (Central Standard Time),660049.6999999993,CFD-BM-017-052-HC.jpg,1000,dash,O,m,1255,4,1,47985.099999997765,612064.6000000015,7050,ATS,A,18
14,test,2,C,mfborder.png,0,z,Thu Feb 20 2025 17:10:58 GMT-0600 (Central Standard Time),663185.4000000022,CFD-WF-019-015-A.jpg,1600,dash,O,None,1515,2,1,51120.800000000745,612064.6000000015,7050,ATS,A,19
15,test,2,C,haborder.png,1,z,Thu Feb 20 2025 17:10:58 GMT-0600 (Central Standard Time),665764.8000000007,CFD-BF-023-013-A.jpg,1400,solid,O,z,1160,7,1,53700.199999999255,612064.6000000015,7050,ATS,A,20
16,test,2,C,haborder.png,1,z,Thu Feb 20 2025 17:10:58 GMT-0600 (Central Standard Time),668980.4000000022,CFD-WF-003-014-A.jpg,1700,solid,O,z,1486,9,1,56915.800000000745,612064.6000000015,7050,ATS,A,21
16,test,2,C,mfborder.png,0,z,Thu Feb 20 2025 17:10:58 GMT-0600 (Central Standard Time),672013.0,CFD-BF-028-020-HC.jpg,1500,dash,O,None,1515,3,1,59948.39999999851,612064.6000000015,7050,ATS,A,22
17,test,2,C,haborder.png,1,z,Thu Feb 20 2025 17:10:58 GMT-0600 (Central Standard Time),674862.1000000015,CFD-BF-039-039-A.jpg,1900,solid,O,z,926,8,1,62797.5,612064.6000000015,7050,ATS,A,23
18,test,2,C,mfborder.png,1,z,Thu Feb 20 2025 17:10:58 GMT-0600 (Central Standard Time),677628.0,CFD-WF-019-015-A.jpg,1600,dash,O,z,1144,2,1,65563.39999999851,612064.6000000015,7050,ATS,A,24
0,test,3,C,mfborder.png,0,m,Thu Feb 20 2025 17:10:58 GMT-0600 (Central Standard Time),682476.1999999993,CFD-WM-006-013-HC.jpg,1000,dash,O,None,1511,4,1,2531.599999997765,679944.6000000015,7050,ATS,A,1
0,test,3,C,haborder.png,0,z,Thu Feb 20 2025 17:10:58 GMT-0600 (Central Standard Time),685708.4000000022,CFD-BM-010-019-A.jpg,1700,solid,O,None,1511,9,1,5763.800000000745,679944.6000000015,7050,ATS,A,2
0,test,3,C,haborder.png,0,z,Thu Feb 20 2025 17:10:58 GMT-0600 (Central Standard Time),689024.0,CFD-BM-005-010-A.jpg,1900,solid,O,m,1390,8,1,9079.39999999851,679944.6000000015,7050,ATS,A,3
1,test,3,C,mfborder.png,1,z,Thu Feb 20 2025 17:10:58 GMT-0600 (Central Standard Time),692006.4000000022,CFD-BF-010-005-HC.jpg,1700,dash,O,z,1258,1,1,12061.800000000745,679944.6000000015,7050,ATS,A,4
2,test,3,C,mfborder.png,1,z,Thu Feb 20 2025 17:10:58 GMT-0600 (Central Standard Time),694955.6999999993,CFD-BF-010-005-HC.jpg,1700,dash,O,z,1228,1,1,15011.099999997765,679944.6000000015,7050,ATS,A,5
3,test,3,C,mfborder.png,1,z,Thu Feb 20 2025 17:10:58 GMT-0600 (Central Standard Time),697904.6999999993,CFD-WF-003-014-A.jpg,1500,dash,O,z,1423,3,1,17960.099999997765,679944.6000000015,7050,ATS,A,6
4,test,3,C,haborder.png,1,m,Thu Feb 20 2025 17:10:58 GMT-0600 (Central Standard Time),700337.3000000007,CFD-WF-017-016-HC.jpg,1000,solid,O,m,1413,12,1,20392.699999999255,679944.6000000015,7050,ATS,A,7
4,test,3,C,haborder.png,0,z,Thu Feb 20 2025 17:10:58 GMT-0600 (Central Standard Time),703403.0,CFD-BM-010-019-A.jpg,1700,solid,O,m,1337,9,1,23458.39999999851,679944.6000000015,7050,ATS,A,8
4,test,3,C,mfborder.png,0,m,Thu Feb 20 2025 17:10:58 GMT-0600 (Central Standard Time),706135.6999999993,CFD-BM-029-026-HC.jpg,1200,dash,O,None,1516,6,1,26191.099999997765,679944.6000000015,7050,ATS,A,9
5,test,3,C,mfborder.png,1,z,Thu Feb 20 2025 17:10:58 GMT-0600 (Central Standard Time),708817.9000000022,CFD-BF-023-013-A.jpg,1600,dash,O,z,1055,2,1,28873.300000000745,679944.6000000015,7050,ATS,A,10
6,test,3,C,haborder.png,1,m,Thu Feb 20 2025 17:10:58 GMT-0600 (Central Standard Time),711767.0,CFD-BF-028-020-HC.jpg,1600,solid,O,m,1331,10,1,31822.39999999851,679944.6000000015,7050,ATS,A,11
7,test,3,C,mfborder.png,1,z,Thu Feb 20 2025 17:10:58 GMT-0600 (Central Standard Time),714299.6000000015,CFD-BF-023-013-A.jpg,1600,dash,O,z,911,2,1,34355.0,679944.6000000015,7050,ATS,A,12
8,test,3,C,mfborder.png,1,m,Thu Feb 20 2025 17:10:58 GMT-0600 (Central Standard Time),717748.6000000015,CFD-WM-019-013-A.jpg,2000,dash,O,m,1419,5,1,37804.0,679944.6000000015,7050,ATS,A,13
9,test,3,C,haborder.png,1,m,Thu Feb 20 2025 17:10:58 GMT-0600 (Central Standard Time),720481.1999999993,CFD-WF-002-008-HC.jpg,1500,solid,O,m,1214,11,1,40536.599999997765,679944.6000000015,7050,ATS,A,14
10,test,3,C,haborder.png,1,m,Thu Feb 20 2025 17:10:58 GMT-0600 (Central Standard Time),722563.9000000022,CFD-WF-017-016-HC.jpg,1000,solid,O,m,1053,12,1,42619.300000000745,679944.6000000015,7050,ATS,A,15
11,test,3,C,haborder.png,1,m,Thu Feb 20 2025 17:10:58 GMT-0600 (Central Standard Time),725347.1000000015,CFD-BF-028-020-HC.jpg,1600,solid,O,m,1155,10,1,45402.5,679944.6000000015,7050,ATS,A,16
11,test,3,C,mfborder.png,0,m,Thu Feb 20 2025 17:10:58 GMT-0600 (Central Standard Time),727645.1000000015,CFD-BM-029-026-HC.jpg,1200,dash,O,z,1067,6,1,47700.5,679944.6000000015,7050,ATS,A,17
12,test,3,C,mfborder.png,1,z,Thu Feb 20 2025 17:10:58 GMT-0600 (Central Standard Time),730127.6999999993,CFD-WF-003-014-A.jpg,1500,dash,O,z,965,3,1,50183.099999997765,679944.6000000015,7050,ATS,A,18
12,test,3,C,haborder.png,0,z,Thu Feb 20 2025 17:10:58 GMT-0600 (Central Standard Time),732893.3000000007,CFD-WM-013-015-A.jpg,1400,solid,O,m,1341,7,1,52948.699999999255,679944.6000000015,7050,ATS,A,19
12,test,3,C,haborder.png,0,z,Thu Feb 20 2025 17:10:58 GMT-0600 (Central Standard Time),735876.1000000015,CFD-BM-005-010-A.jpg,1900,solid,O,m,1053,8,1,55931.5,679944.6000000015,7050,ATS,A,20
13,test,3,C,haborder.png,1,z,Thu Feb 20 2025 17:10:58 GMT-0600 (Central Standard Time),738542.9000000022,CFD-WM-013-015-A.jpg,1400,solid,O,z,1242,7,1,58598.300000000745,679944.6000000015,7050,ATS,A,21
14,test,3,C,haborder.png,1,m,Thu Feb 20 2025 17:10:58 GMT-0600 (Central Standard Time),741557.5,CFD-WF-002-008-HC.jpg,1500,solid,O,m,1484,11,1,61612.89999999851,679944.6000000015,7050,ATS,A,22
14,test,3,C,mfborder.png,0,m,Thu Feb 20 2025 17:10:58 GMT-0600 (Central Standard Time),744756.6999999993,CFD-WM-019-013-A.jpg,2000,dash,O,z,1177,5,1,64812.099999997765,679944.6000000015,7050,ATS,A,23
14,test,3,C,mfborder.png,0,m,Thu Feb 20 2025 17:10:58 GMT-0600 (Central Standard Time),747289.5,CFD-WM-006-013-HC.jpg,1000,dash,O,None,1515,4,1,67344.89999999851,679944.6000000015,7050,ATS,A,24
1,test,4,C,mfborder.png,1,z,Thu Feb 20 2025 17:10:58 GMT-0600 (Central Standard Time),751821.1999999993,CFD-WF-019-015-A.jpg,1600,dash,O,z,1002,2,1,2632.5,749188.6999999993,7050,ATS,A,1
2,test,4,C,mfborder.png,1,z,Thu Feb 20 2025 17:10:58 GMT-0600 (Central Standard Time),754537.1999999993,CFD-WF-017-016-HC.jpg,1700,dash,O,z,994,1,1,5348.5,749188.6999999993,7050,ATS,A,2
3,test,4,C,mfborder.png,1,m,Thu Feb 20 2025 17:10:58 GMT-0600 (Central Standard Time),756602.6999999993,CFD-WM-013-015-A.jpg,1200,dash,O,m,844,6,1,7414.0,749188.6999999993,7050,ATS,A,3
4,test,4,C,mfborder.png,1,z,Thu Feb 20 2025 17:10:58 GMT-0600 (Central Standard Time),759019.1000000015,CFD-WF-019-015-A.jpg,1600,dash,O,z,795,2,1,9830.400000002235,749188.6999999993,7050,ATS,A,4
5,test,4,C,mfborder.png,1,m,Thu Feb 20 2025 17:10:58 GMT-0600 (Central Standard Time),762167.8000000007,CFD-BM-005-010-A.jpg,2000,dash,O,m,1131,5,1,12979.10000000149,749188.6999999993,7050,ATS,A,5
6,test,4,C,mfborder.png,1,z,Thu Feb 20 2025 17:10:58 GMT-0600 (Central Standard Time),764583.9000000022,CFD-WF-017-016-HC.jpg,1700,dash,O,z,697,1,1,15395.20000000298,749188.6999999993,7050,ATS,A,6
7,test,4,C,haborder.png,1,m,Thu Feb 20 2025 17:10:58 GMT-0600 (Central Standard Time),767583.0,CFD-WM-004-005-HC.jpg,1500,solid,O,m,1482,11,1,18394.300000000745,749188.6999999993,7050,ATS,A,7
8,test,4,C,haborder.png,1,m,Thu Feb 20 2025 17:10:58 GMT-0600 (Central Standard Time),769432.3000000007,CFD-WM-004-005-HC.jpg,1000,solid,O,m,823,12,1,20243.60000000149,749188.6999999993,7050,ATS,A,8
8,test,4,C,mfborder.png,0,z,Thu Feb 20 2025 17:10:58 GMT-0600 (Central Standard Time),772464.9000000022,CFD-BF-028-020-HC.jpg,1500,dash,O,None,1516,3,1,23276.20000000298,749188.6999999993,7050,ATS,A,9
8,test,4,C,haborder.png,0,z,Thu Feb 20 2025 17:10:58 GMT-0600 (Central Standard Time),775898.1999999993,CFD-BF-039-039-A.jpg,1900,solid,O,None,1517,8,1,26709.5,749188.6999999993,7050,ATS,A,10
9,test,4,C,haborder.png,1,z,Thu Feb 20 2025 17:10:58 GMT-0600 (Central Standard Time),778512.9000000022,CFD-WF-003-014-A.jpg,1700,solid,O,z,897,9,1,29324.20000000298,749188.6999999993,7050,ATS,A,11
10,test,4,C,haborder.png,1,z,Thu Feb 20 2025 17:10:58 GMT-0600 (Central Standard Time),780912.0,CFD-WF-003-014-A.jpg,1700,solid,O,z,682,9,1,31723.300000000745,749188.6999999993,7050,ATS,A,12
11,test,4,C,haborder.png,1,m,Thu Feb 20 2025 17:10:58 GMT-0600 (Central Standard Time),782861.5,CFD-WM-004-005-HC.jpg,1000,solid,O,m,926,12,1,33672.800000000745,749188.6999999993,7050,ATS,A,13
12,test,4,C,haborder.png,1,m,Thu Feb 20 2025 17:10:58 GMT-0600 (Central Standard Time),785044.1000000015,CFD-WM-004-005-HC.jpg,1500,solid,O,m,661,11,1,35855.400000002235,749188.6999999993,7050,ATS,A,14
12,test,4,C,mfborder.png,0,z,Thu Feb 20 2025 17:10:58 GMT-0600 (Central Standard Time),788076.6999999993,CFD-BF-028-020-HC.jpg,1500,dash,O,None,1516,3,1,38888.0,749188.6999999993,7050,ATS,A,15
13,test,4,C,haborder.png,1,m,Thu Feb 20 2025 17:10:58 GMT-0600 (Central Standard Time),790392.6000000015,CFD-BM-029-026-HC.jpg,1600,solid,O,m,690,10,1,41203.900000002235,749188.6999999993,7050,ATS,A,16
13,test,4,C,mfborder.png,0,m,Thu Feb 20 2025 17:10:58 GMT-0600 (Central Standard Time),792925.3000000007,CFD-BM-017-052-HC.jpg,1000,dash,O,None,1516,4,1,43736.60000000149,749188.6999999993,7050,ATS,A,17
13,test,4,C,haborder.png,0,z,Thu Feb 20 2025 17:10:58 GMT-0600 (Central Standard Time),796357.1999999993,CFD-BF-039-039-A.jpg,1900,solid,O,None,1515,8,1,47168.5,749188.6999999993,7050,ATS,A,18
14,test,4,C,mfborder.png,1,m,Thu Feb 20 2025 17:10:58 GMT-0600 (Central Standard Time),799856.1999999993,CFD-BM-005-010-A.jpg,2000,dash,O,m,1481,5,1,50667.5,749188.6999999993,7050,ATS,A,19
15,test,4,C,haborder.png,1,m,Thu Feb 20 2025 17:10:58 GMT-0600 (Central Standard Time),802438.9000000022,CFD-BM-029-026-HC.jpg,1600,solid,O,m,966,10,1,53250.20000000298,749188.6999999993,7050,ATS,A,20
16,test,4,C,haborder.png,1,z,Thu Feb 20 2025 17:10:58 GMT-0600 (Central Standard Time),805087.6999999993,CFD-BF-023-013-A.jpg,1400,solid,O,z,1224,7,1,55899.0,749188.6999999993,7050,ATS,A,21
17,test,4,C,haborder.png,1,z,Thu Feb 20 2025 17:10:58 GMT-0600 (Central Standard Time),807503.5,CFD-BF-023-013-A.jpg,1400,solid,O,z,998,7,1,58314.800000000745,749188.6999999993,7050,ATS,A,22
17,test,4,C,mfborder.png,0,m,Thu Feb 20 2025 17:10:58 GMT-0600 (Central Standard Time),810236.5,CFD-WM-013-015-A.jpg,1200,dash,O,None,1515,6,1,61047.800000000745,749188.6999999993,7050,ATS,A,23
18,test,4,C,mfborder.png,1,m,Thu Feb 20 2025 17:10:58 GMT-0600 (Central Standard Time),812652.3000000007,CFD-BM-017-052-HC.jpg,1000,dash,O,m,1386,4,1,63463.60000000149,749188.6999999993,7050,ATS,A,24
