block_c,block_dur,condition,countdown,datetime,endtime,list,multichar_response,project,response,response_time,session_number,start_end,starttime,subject_id,task,task_vers,trial
,,,,Fri Feb 14 2025 15:14:58 GMT-0600 (Central Standard Time),,,,O,space,289,1,,,7061,WL,B,
prac,,0,,Fri Feb 14 2025 15:14:58 GMT-0600 (Central Standard Time),,NA,b,O,b,5458,1,,,7061,WL,B,1.0
prac,,0,,Fri Feb 14 2025 15:14:58 GMT-0600 (Central Standard Time),,NA,bo,O,o,267,1,,,7061,WL,B,1.0
prac,,0,,Fri Feb 14 2025 15:14:58 GMT-0600 (Central Standard Time),,NA,boo,O,o,186,1,,,7061,WL,B,1.0
prac,,0,,Fri Feb 14 2025 15:14:58 GMT-0600 (Central Standard Time),,NA,boos,O,s,369,1,,,7061,WL,B,1.0
prac,,0,,Fri Feb 14 2025 15:14:58 GMT-0600 (Central Standard Time),,NA,boost,O,t,331,1,,,7061,WL,B,1.0
prac,,0,,Fri Feb 14 2025 15:14:58 GMT-0600 (Central Standard Time),,NA,boostenter,O,enter,1916,1,,,7061,WL,B,1.0
1,1.633000135421753,learn,58366.99986457825,Fri Feb 14 2025 15:14:58 GMT-0600 (Central Standard Time),207482.29999999702,A,s,O,s,1624,1,1632.7999999970198,205849.5,7061,WL,B,1.0
1,2.1500000953674316,learn,57849.99990463257,Fri Feb 14 2025 15:14:58 GMT-0600 (Central Standard Time),207998.5,A,st,O,t,503,1,2149.0,205849.5,7061,WL,B,1.0
1,2.4830000400543213,learn,57516.99995994568,Fri Feb 14 2025 15:14:58 GMT-0600 (Central Standard Time),208331.59999999404,A,str,O,r,315,1,2482.0999999940395,205849.5,7061,WL,B,1.0
1,2.7660000324249268,learn,57233.99996757507,Fri Feb 14 2025 15:14:58 GMT-0600 (Central Standard Time),208614.8999999985,A,stre,O,e,270,1,2765.39999999851,205849.5,7061,WL,B,1.0
1,2.933000087738037,learn,57066.99991226196,Fri Feb 14 2025 15:14:58 GMT-0600 (Central Standard Time),208781.5,A,stree,O,e,155,1,2932.0,205849.5,7061,WL,B,1.0
1,15.42799997329712,learn,44572.00002670288,Fri Feb 14 2025 15:14:58 GMT-0600 (Central Standard Time),221277.19999999553,A,street,O,t,12484,1,15427.69999999553,205849.5,7061,WL,B,1.0
1,15.795000076293945,learn,44204.999923706055,Fri Feb 14 2025 15:14:58 GMT-0600 (Central Standard Time),221643.79999999702,A,streetenter,O,enter,355,1,15794.29999999702,205849.5,7061,WL,B,1.0
1,17.01099991798401,learn,42989.00008201599,Fri Feb 14 2025 15:14:58 GMT-0600 (Central Standard Time),222860.0,A,g,O,g,1198,1,1215.5,221644.5,7061,WL,B,2.0
1,17.24500012397766,learn,42754.99987602234,Fri Feb 14 2025 15:14:58 GMT-0600 (Central Standard Time),223093.79999999702,A,gr,O,r,222,1,1449.2999999970198,221644.5,7061,WL,B,2.0
1,17.42799997329712,learn,42572.00002670288,Fri Feb 14 2025 15:14:58 GMT-0600 (Central Standard Time),223276.79999999702,A,gra,O,a,163,1,1632.2999999970198,221644.5,7061,WL,B,2.0
1,17.67799997329712,learn,42322.00002670288,Fri Feb 14 2025 15:14:58 GMT-0600 (Central Standard Time),223526.79999999702,A,gras,O,s,230,1,1882.2999999970198,221644.5,7061,WL,B,2.0
1,17.861000061035156,learn,42138.999938964844,Fri Feb 14 2025 15:14:58 GMT-0600 (Central Standard Time),223710.09999999404,A,grass,O,s,163,1,2065.5999999940395,221644.5,7061,WL,B,2.0
1,19.14400005340576,learn,40855.99994659424,Fri Feb 14 2025 15:14:58 GMT-0600 (Central Standard Time),224993.0,A,grassenter,O,enter,1260,1,3348.5,221644.5,7061,WL,B,2.0
1,20.844000101089478,learn,39155.99989891052,Fri Feb 14 2025 15:14:58 GMT-0600 (Central Standard Time),226692.69999999553,A,d,O,d,1680,1,1699.1000000014901,224993.59999999404,7061,WL,B,3.0
1,22.377000093460083,learn,37622.99990653992,Fri Feb 14 2025 15:14:58 GMT-0600 (Central Standard Time),228225.5,A,do,O,o,1509,1,3231.9000000059605,224993.59999999404,7061,WL,B,3.0
1,22.575999975204468,learn,37424.00002479553,Fri Feb 14 2025 15:14:58 GMT-0600 (Central Standard Time),228425.29999999702,A,doo,O,o,185,1,3431.7000000029802,224993.59999999404,7061,WL,B,3.0
1,22.926000118255615,learn,37073.999881744385,Fri Feb 14 2025 15:14:58 GMT-0600 (Central Standard Time),228775.29999999702,A,door,O,r,336,1,3781.7000000029802,224993.59999999404,7061,WL,B,3.0
1,24.70900011062622,learn,35290.99988937378,Fri Feb 14 2025 15:14:58 GMT-0600 (Central Standard Time),230557.5,A,doorenter,O,enter,1761,1,5563.9000000059605,224993.59999999404,7061,WL,B,3.0
1,25.325000047683716,learn,34674.999952316284,Fri Feb 14 2025 15:14:58 GMT-0600 (Central Standard Time),231174.19999999553,A,s,O,s,596,1,616.2999999970198,230557.8999999985,7061,WL,B,4.0
1,25.55900001525879,learn,34440.99998474121,Fri Feb 14 2025 15:14:58 GMT-0600 (Central Standard Time),231407.5,A,st,O,t,211,1,849.6000000014901,230557.8999999985,7061,WL,B,4.0
1,25.742000102996826,learn,34257.999897003174,Fri Feb 14 2025 15:14:58 GMT-0600 (Central Standard Time),231590.5,A,sta,O,a,161,1,1032.6000000014901,230557.8999999985,7061,WL,B,4.0
1,25.89199995994568,learn,34108.00004005432,Fri Feb 14 2025 15:14:58 GMT-0600 (Central Standard Time),231740.5,A,star,O,r,139,1,1182.6000000014901,230557.8999999985,7061,WL,B,4.0
1,26.742000102996826,learn,33257.999897003174,Fri Feb 14 2025 15:14:58 GMT-0600 (Central Standard Time),232590.69999999553,A,starenter,O,enter,838,1,2032.7999999970198,230557.8999999985,7061,WL,B,4.0
1,27.240999937057495,learn,32759.000062942505,Fri Feb 14 2025 15:14:58 GMT-0600 (Central Standard Time),233090.29999999702,A,s,O,s,491,1,499.20000000298023,232591.09999999404,7061,WL,B,5.0
1,27.641000032424927,learn,32358.999967575073,Fri Feb 14 2025 15:14:58 GMT-0600 (Central Standard Time),233490.3999999985,A,,O,backspace,384,1,899.3000000044703,232591.09999999404,7061,WL,B,5.0
1,27.907999992370605,learn,32092.000007629395,Fri Feb 14 2025 15:14:58 GMT-0600 (Central Standard Time),233756.8999999985,A,w,O,w,248,1,1165.8000000044703,232591.09999999404,7061,WL,B,5.0
1,28.12000012397766,learn,31879.99987602234,Fri Feb 14 2025 15:14:58 GMT-0600 (Central Standard Time),233968.3999999985,A,wi,O,i,203,1,1377.3000000044703,232591.09999999404,7061,WL,B,5.0
1,28.44099998474121,learn,31559.00001525879,Fri Feb 14 2025 15:14:58 GMT-0600 (Central Standard Time),234289.69999999553,A,wif,O,f,297,1,1698.6000000014901,232591.09999999404,7061,WL,B,5.0
1,28.79200005531311,learn,31207.99994468689,Fri Feb 14 2025 15:14:58 GMT-0600 (Central Standard Time),234641.09999999404,A,wife,O,e,336,1,2050.0,232591.09999999404,7061,WL,B,5.0
1,30.006999969482422,learn,29993.000030517578,Fri Feb 14 2025 15:14:58 GMT-0600 (Central Standard Time),235856.3999999985,A,wifeenter,O,enter,1201,1,3265.3000000044703,232591.09999999404,7061,WL,B,5.0
1,30.306999921798706,learn,29693.000078201294,Fri Feb 14 2025 15:14:58 GMT-0600 (Central Standard Time),236155.8999999985,A,w,O,w,288,1,299.20000000298023,235856.69999999553,7061,WL,B,6.0
1,30.457000017166138,learn,29542.999982833862,Fri Feb 14 2025 15:14:58 GMT-0600 (Central Standard Time),236306.09999999404,A,wi,O,i,134,1,449.3999999985099,235856.69999999553,7061,WL,B,6.0
1,30.657000064849854,learn,29342.999935150146,Fri Feb 14 2025 15:14:58 GMT-0600 (Central Standard Time),236506.09999999404,A,win,O,n,176,1,649.3999999985099,235856.69999999553,7061,WL,B,6.0
1,30.924000024795532,learn,29075.999975204468,Fri Feb 14 2025 15:14:58 GMT-0600 (Central Standard Time),236772.69999999553,A,wind,O,d,247,1,916.0,235856.69999999553,7061,WL,B,6.0
1,31.289999961853027,learn,28710.000038146973,Fri Feb 14 2025 15:14:58 GMT-0600 (Central Standard Time),237139.3999999985,A,windo,O,o,349,1,1282.7000000029802,235856.69999999553,7061,WL,B,6.0
1,31.60700011253357,learn,28392.99988746643,Fri Feb 14 2025 15:14:58 GMT-0600 (Central Standard Time),237456.0,A,window,O,w,294,1,1599.3000000044703,235856.69999999553,7061,WL,B,6.0
1,32.03999996185303,learn,27960.000038146973,Fri Feb 14 2025 15:14:58 GMT-0600 (Central Standard Time),237888.79999999702,A,windowenter,O,enter,418,1,2032.1000000014901,235856.69999999553,7061,WL,B,6.0
1,32.473000049591064,learn,27526.999950408936,Fri Feb 14 2025 15:14:58 GMT-0600 (Central Standard Time),238322.09999999404,A,c,O,c,410,1,432.8999999985099,237889.19999999553,7061,WL,B,7.0
1,32.640000104904175,learn,27359.999895095825,Fri Feb 14 2025 15:14:58 GMT-0600 (Central Standard Time),238489.0,A,ci,O,i,153,1,599.8000000044703,237889.19999999553,7061,WL,B,7.0
1,32.85700011253357,learn,27142.99988746643,Fri Feb 14 2025 15:14:58 GMT-0600 (Central Standard Time),238705.69999999553,A,cit,O,t,194,1,816.5,237889.19999999553,7061,WL,B,7.0
1,33.07299995422363,learn,26927.000045776367,Fri Feb 14 2025 15:14:58 GMT-0600 (Central Standard Time),238922.09999999404,A,city,O,y,193,1,1032.8999999985099,237889.19999999553,7061,WL,B,7.0
1,33.638999938964844,learn,26361.000061035156,Fri Feb 14 2025 15:14:58 GMT-0600 (Central Standard Time),239488.5,A,cityenter,O,enter,552,1,1599.3000000044703,237889.19999999553,7061,WL,B,7.0
1,34.305999994277954,learn,25694.000005722046,Fri Feb 14 2025 15:14:58 GMT-0600 (Central Standard Time),240154.69999999553,A,c,O,c,658,1,665.7999999970198,239488.8999999985,7061,WL,B,8.0
1,34.68900012969971,learn,25310.999870300293,Fri Feb 14 2025 15:14:58 GMT-0600 (Central Standard Time),240538.0,A,ca,O,a,376,1,1049.1000000014901,239488.8999999985,7061,WL,B,8.0
1,35.0220000743866,learn,24977.999925613403,Fri Feb 14 2025 15:14:58 GMT-0600 (Central Standard Time),240871.29999999702,A,cab,O,b,321,1,1382.3999999985099,239488.8999999985,7061,WL,B,8.0
1,35.5550000667572,learn,24444.999933242798,Fri Feb 14 2025 15:14:58 GMT-0600 (Central Standard Time),241404.5,A,cabi,O,i,523,1,1915.6000000014901,239488.8999999985,7061,WL,B,8.0
1,35.789000034332275,learn,24210.999965667725,Fri Feb 14 2025 15:14:58 GMT-0600 (Central Standard Time),241637.69999999553,A,cabin,O,n,222,1,2148.7999999970198,239488.8999999985,7061,WL,B,8.0
1,37.97099995613098,learn,22029.00004386902,Fri Feb 14 2025 15:14:58 GMT-0600 (Central Standard Time),243820.5,A,cabinenter,O,enter,2172,1,4331.60000000149,239488.8999999985,7061,WL,B,8.0
1,38.75500011444092,learn,21244.999885559082,Fri Feb 14 2025 15:14:58 GMT-0600 (Central Standard Time),244603.69999999553,A,p,O,p,775,1,782.8999999985099,243820.79999999702,7061,WL,B,9.0
1,39.104000091552734,learn,20895.999908447266,Fri Feb 14 2025 15:14:58 GMT-0600 (Central Standard Time),244953.3999999985,A,pu,O,u,334,1,1132.6000000014901,243820.79999999702,7061,WL,B,9.0
1,39.50399994850159,learn,20496.000051498413,Fri Feb 14 2025 15:14:58 GMT-0600 (Central Standard Time),245353.29999999702,A,pup,O,p,376,1,1532.5,243820.79999999702,7061,WL,B,9.0
1,39.687000036239624,learn,20312.999963760376,Fri Feb 14 2025 15:14:58 GMT-0600 (Central Standard Time),245536.59999999404,A,pupi,O,i,169,1,1715.7999999970198,243820.79999999702,7061,WL,B,9.0
1,39.90400004386902,learn,20095.99995613098,Fri Feb 14 2025 15:14:58 GMT-0600 (Central Standard Time),245753.0,A,pupil,O,l,193,1,1932.2000000029802,243820.79999999702,7061,WL,B,9.0
1,40.2039999961853,learn,19796.000003814697,Fri Feb 14 2025 15:14:58 GMT-0600 (Central Standard Time),246053.09999999404,A,pupilenter,O,enter,281,1,2232.2999999970198,243820.79999999702,7061,WL,B,9.0
1,44.18600010871887,learn,15813.999891281128,Fri Feb 14 2025 15:14:58 GMT-0600 (Central Standard Time),250035.0,A,l,O,l,3965,1,3981.5,246053.5,7061,WL,B,10.0
1,44.6029999256134,learn,15397.000074386597,Fri Feb 14 2025 15:14:58 GMT-0600 (Central Standard Time),250451.8999999985,A,lk,O,k,400,1,4398.39999999851,246053.5,7061,WL,B,10.0
1,45.085999965667725,learn,14914.000034332275,Fri Feb 14 2025 15:14:58 GMT-0600 (Central Standard Time),250934.8999999985,A,l,O,backspace,462,1,4881.39999999851,246053.5,7061,WL,B,10.0
1,45.35199999809265,learn,14648.000001907349,Fri Feb 14 2025 15:14:58 GMT-0600 (Central Standard Time),251201.3999999985,A,la,O,a,252,1,5147.89999999851,246053.5,7061,WL,B,10.0
1,45.68600010871887,learn,14313.999891281128,Fri Feb 14 2025 15:14:58 GMT-0600 (Central Standard Time),251534.79999999702,A,lak,O,k,313,1,5481.29999999702,246053.5,7061,WL,B,10.0
1,45.95300006866455,learn,14046.99993133545,Fri Feb 14 2025 15:14:58 GMT-0600 (Central Standard Time),251801.79999999702,A,lake,O,e,260,1,5748.29999999702,246053.5,7061,WL,B,10.0
1,46.18499994277954,learn,13815.000057220459,Fri Feb 14 2025 15:14:58 GMT-0600 (Central Standard Time),252034.29999999702,A,lakeenter,O,enter,225,1,5980.79999999702,246053.5,7061,WL,B,10.0
1,46.46799993515015,learn,13532.000064849854,Fri Feb 14 2025 15:14:58 GMT-0600 (Central Standard Time),252317.3999999985,A,p,O,p,273,1,282.80000000447035,252034.59999999404,7061,WL,B,11.0
1,46.75200009346008,learn,13247.999906539917,Fri Feb 14 2025 15:14:58 GMT-0600 (Central Standard Time),252601.19999999553,A,pi,O,i,261,1,566.6000000014901,252034.59999999404,7061,WL,B,11.0
1,47.01900005340576,learn,12980.999946594238,Fri Feb 14 2025 15:14:58 GMT-0600 (Central Standard Time),252867.69999999553,A,pip,O,p,249,1,833.1000000014901,252034.59999999404,7061,WL,B,11.0
1,47.26900005340576,learn,12730.999946594238,Fri Feb 14 2025 15:14:58 GMT-0600 (Central Standard Time),253117.59999999404,A,pipe,O,e,231,1,1083.0,252034.59999999404,7061,WL,B,11.0
1,48.901000022888184,learn,11098.999977111816,Fri Feb 14 2025 15:14:58 GMT-0600 (Central Standard Time),254750.29999999702,A,pipeenter,O,enter,1621,1,2715.7000000029802,252034.59999999404,7061,WL,B,11.0
1,49.96799993515015,learn,10032.000064849854,Fri Feb 14 2025 15:14:58 GMT-0600 (Central Standard Time),255816.69999999553,A,s,O,s,1052,1,1066.0,254750.69999999553,7061,WL,B,12.0
1,50.068000078201294,learn,9931.999921798706,Fri Feb 14 2025 15:14:58 GMT-0600 (Central Standard Time),255916.69999999553,A,sh,O,h,89,1,1166.0,254750.69999999553,7061,WL,B,12.0
1,50.15000009536743,learn,9849.999904632568,Fri Feb 14 2025 15:14:58 GMT-0600 (Central Standard Time),255999.59999999404,A,shi,O,i,69,1,1248.8999999985099,254750.69999999553,7061,WL,B,12.0
1,50.51699995994568,learn,9483.000040054321,Fri Feb 14 2025 15:14:58 GMT-0600 (Central Standard Time),256366.5,A,sh,O,backspace,355,1,1615.8000000044703,254750.69999999553,7061,WL,B,12.0
1,50.66700005531311,learn,9332.99994468689,Fri Feb 14 2025 15:14:58 GMT-0600 (Central Standard Time),256516.5,A,s,O,backspace,132,1,1765.8000000044703,254750.69999999553,7061,WL,B,12.0
1,50.93400001525879,learn,9065.999984741211,Fri Feb 14 2025 15:14:58 GMT-0600 (Central Standard Time),256783.0,A,sk,O,k,247,1,2032.3000000044703,254750.69999999553,7061,WL,B,12.0
1,51.10000014305115,learn,8899.999856948853,Fri Feb 14 2025 15:14:58 GMT-0600 (Central Standard Time),256949.5,A,ski,O,i,155,1,2198.8000000044703,254750.69999999553,7061,WL,B,12.0
1,51.25099992752075,learn,8749.000072479248,Fri Feb 14 2025 15:14:58 GMT-0600 (Central Standard Time),257099.69999999553,A,skin,O,n,133,1,2349.0,254750.69999999553,7061,WL,B,12.0
1,51.91700005531311,learn,8082.99994468689,Fri Feb 14 2025 15:14:58 GMT-0600 (Central Standard Time),257765.79999999702,A,skinenter,O,enter,645,1,3015.10000000149,254750.69999999553,7061,WL,B,12.0
1,54.06599998474121,learn,5934.000015258789,Fri Feb 14 2025 15:14:58 GMT-0600 (Central Standard Time),259915.3999999985,A,f,O,f,2133,1,2149.39999999851,257766.0,7061,WL,B,13.0
1,54.23300004005432,learn,5766.999959945679,Fri Feb 14 2025 15:14:58 GMT-0600 (Central Standard Time),260082.09999999404,A,fi,O,i,159,1,2316.0999999940395,257766.0,7061,WL,B,13.0
1,54.43300008773804,learn,5566.999912261963,Fri Feb 14 2025 15:14:58 GMT-0600 (Central Standard Time),260282.19999999553,A,fir,O,r,177,1,2516.1999999955297,257766.0,7061,WL,B,13.0
1,54.68300008773804,learn,5316.999912261963,Fri Feb 14 2025 15:14:58 GMT-0600 (Central Standard Time),260531.79999999702,A,fire,O,e,232,1,2765.7999999970198,257766.0,7061,WL,B,13.0
1,55.01600003242493,learn,4983.999967575073,Fri Feb 14 2025 15:14:58 GMT-0600 (Central Standard Time),260865.29999999702,A,fireenter,O,enter,318,1,3099.2999999970198,257766.0,7061,WL,B,13.0
1,60.013999938964844,learn,-13.99993896484375,Fri Feb 14 2025 15:14:58 GMT-0600 (Central Standard Time),265863.59999999404,A,None,O,None,4991,1,4997.89999999851,260865.69999999553,7061,WL,B,14.0
2,1.9160001277923584,learn,58083.99987220764,Fri Feb 14 2025 15:14:58 GMT-0600 (Central Standard Time),344255.59999999404,A,s,O,s,1896,1,1915.8999999985099,342339.69999999553,7061,WL,B,1.0
2,2.183000087738037,learn,57816.99991226196,Fri Feb 14 2025 15:14:58 GMT-0600 (Central Standard Time),344522.3999999985,A,st,O,t,251,1,2182.7000000029802,342339.69999999553,7061,WL,B,1.0
2,2.4160001277923584,learn,57583.99987220764,Fri Feb 14 2025 15:14:58 GMT-0600 (Central Standard Time),344755.69999999553,A,str,O,r,216,1,2416.0,342339.69999999553,7061,WL,B,1.0
2,2.7160000801086426,learn,57283.99991989136,Fri Feb 14 2025 15:14:58 GMT-0600 (Central Standard Time),345055.5,A,stre,O,e,279,1,2715.8000000044703,342339.69999999553,7061,WL,B,1.0
2,2.865999937057495,learn,57134.000062942505,Fri Feb 14 2025 15:14:58 GMT-0600 (Central Standard Time),345205.5,A,stree,O,e,139,1,2865.8000000044703,342339.69999999553,7061,WL,B,1.0
2,3.131999969482422,learn,56868.00003051758,Fri Feb 14 2025 15:14:58 GMT-0600 (Central Standard Time),345471.8999999985,A,street,O,t,246,1,3132.2000000029802,342339.69999999553,7061,WL,B,1.0
2,4.148999929428101,learn,55851.0000705719,Fri Feb 14 2025 15:14:58 GMT-0600 (Central Standard Time),346488.19999999553,A,streetenter,O,enter,1003,1,4148.5,342339.69999999553,7061,WL,B,1.0
2,4.414999961853027,learn,55585.00003814697,Fri Feb 14 2025 15:14:58 GMT-0600 (Central Standard Time),346754.799999997,A,g,O,g,258,1,266.29999999701977,346488.5,7061,WL,B,2.0
2,4.681999921798706,learn,55318.000078201294,Fri Feb 14 2025 15:14:58 GMT-0600 (Central Standard Time),347021.3999999985,A,gr,O,r,248,1,532.8999999985099,346488.5,7061,WL,B,2.0
2,4.898999929428101,learn,55101.0000705719,Fri Feb 14 2025 15:14:58 GMT-0600 (Central Standard Time),347238.09999999404,A,gra,O,a,197,1,749.5999999940395,346488.5,7061,WL,B,2.0
2,5.2149999141693115,learn,54785.00008583069,Fri Feb 14 2025 15:14:58 GMT-0600 (Central Standard Time),347554.799999997,A,gras,O,s,300,1,1066.2999999970198,346488.5,7061,WL,B,2.0
2,5.398999929428101,learn,54601.0000705719,Fri Feb 14 2025 15:14:58 GMT-0600 (Central Standard Time),347737.8999999985,A,grass,O,s,166,1,1249.3999999985099,346488.5,7061,WL,B,2.0
2,6.065000057220459,learn,53934.99994277954,Fri Feb 14 2025 15:14:58 GMT-0600 (Central Standard Time),348404.5,A,grassenter,O,enter,657,1,1916.0,346488.5,7061,WL,B,2.0
2,6.414999961853027,learn,53585.00003814697,Fri Feb 14 2025 15:14:58 GMT-0600 (Central Standard Time),348754.299999997,A,d,O,d,334,1,349.3999999985099,348404.8999999985,7061,WL,B,3.0
2,6.631999969482422,learn,53368.00003051758,Fri Feb 14 2025 15:14:58 GMT-0600 (Central Standard Time),348971.8999999985,A,do,O,o,208,1,567.0,348404.8999999985,7061,WL,B,3.0
2,6.831000089645386,learn,53168.999910354614,Fri Feb 14 2025 15:14:58 GMT-0600 (Central Standard Time),349170.59999999404,A,doo,O,o,190,1,765.6999999955297,348404.8999999985,7061,WL,B,3.0
2,6.997999906539917,learn,53002.00009346008,Fri Feb 14 2025 15:14:58 GMT-0600 (Central Standard Time),349337.3999999985,A,door,O,r,152,1,932.5,348404.8999999985,7061,WL,B,3.0
2,7.247999906539917,learn,52752.00009346008,Fri Feb 14 2025 15:14:58 GMT-0600 (Central Standard Time),349587.299999997,A,doorenter,O,enter,233,1,1182.3999999985099,348404.8999999985,7061,WL,B,3.0
2,7.914000034332275,learn,52085.999965667725,Fri Feb 14 2025 15:14:58 GMT-0600 (Central Standard Time),350253.799999997,A,a,O,a,648,1,666.2000000029802,349587.59999999404,7061,WL,B,4.0
2,8.098000049591064,learn,51901.999950408936,Fri Feb 14 2025 15:14:58 GMT-0600 (Central Standard Time),350437.09999999404,A,ar,O,r,173,1,849.5,349587.59999999404,7061,WL,B,4.0
2,8.848999977111816,learn,51151.00002288818,Fri Feb 14 2025 15:14:58 GMT-0600 (Central Standard Time),351187.8999999985,A,arm,O,m,741,1,1600.3000000044703,349587.59999999404,7061,WL,B,4.0
2,9.519999980926514,learn,50480.000019073486,Fri Feb 14 2025 15:14:58 GMT-0600 (Central Standard Time),351859.69999999553,A,armenter,O,enter,663,1,2272.10000000149,349587.59999999404,7061,WL,B,4.0
2,9.914000034332275,learn,50085.999965667725,Fri Feb 14 2025 15:14:58 GMT-0600 (Central Standard Time),352253.09999999404,A,s,O,s,372,1,393.09999999403954,351860.0,7061,WL,B,5.0
2,10.21399998664856,learn,49786.00001335144,Fri Feb 14 2025 15:14:58 GMT-0600 (Central Standard Time),352553.299999997,A,st,O,t,276,1,693.2999999970198,351860.0,7061,WL,B,5.0
2,10.380000114440918,learn,49619.99988555908,Fri Feb 14 2025 15:14:58 GMT-0600 (Central Standard Time),352719.799999997,A,sta,O,a,153,1,859.7999999970198,351860.0,7061,WL,B,5.0
2,11.54699993133545,learn,48453.00006866455,Fri Feb 14 2025 15:14:58 GMT-0600 (Central Standard Time),353885.8999999985,A,star,O,r,1155,1,2025.8999999985099,351860.0,7061,WL,B,5.0
2,12.147000074386597,learn,47852.9999256134,Fri Feb 14 2025 15:14:58 GMT-0600 (Central Standard Time),354486.0,A,starenter,O,enter,588,1,2626.0,351860.0,7061,WL,B,5.0
2,12.61299991607666,learn,47387.00008392334,Fri Feb 14 2025 15:14:58 GMT-0600 (Central Standard Time),354952.299999997,A,w,O,w,452,1,465.8999999985099,354486.3999999985,7061,WL,B,6.0
2,13.196000099182129,learn,46803.99990081787,Fri Feb 14 2025 15:14:58 GMT-0600 (Central Standard Time),355535.59999999404,A,wi,O,i,562,1,1049.1999999955297,354486.3999999985,7061,WL,B,6.0
2,13.463000059127808,learn,46536.99994087219,Fri Feb 14 2025 15:14:58 GMT-0600 (Central Standard Time),355802.0,A,wif,O,f,251,1,1315.6000000014901,354486.3999999985,7061,WL,B,6.0
2,13.76200008392334,learn,46237.99991607666,Fri Feb 14 2025 15:14:58 GMT-0600 (Central Standard Time),356102.0,A,wife,O,e,279,1,1615.6000000014901,354486.3999999985,7061,WL,B,6.0
2,13.962000131607056,learn,46037.999868392944,Fri Feb 14 2025 15:14:58 GMT-0600 (Central Standard Time),356301.69999999553,A,wifeenter,O,enter,180,1,1815.2999999970198,354486.3999999985,7061,WL,B,6.0
2,14.196000099182129,learn,45803.99990081787,Fri Feb 14 2025 15:14:58 GMT-0600 (Central Standard Time),356535.09999999404,A,w,O,w,223,1,233.19999999552965,356301.8999999985,7061,WL,B,7.0
2,14.562000036239624,learn,45437.999963760376,Fri Feb 14 2025 15:14:58 GMT-0600 (Central Standard Time),356901.59999999404,A,wi,O,i,346,1,599.6999999955297,356301.8999999985,7061,WL,B,7.0
2,14.745000123977661,learn,45254.99987602234,Fri Feb 14 2025 15:14:58 GMT-0600 (Central Standard Time),357084.8999999985,A,win,O,n,164,1,783.0,356301.8999999985,7061,WL,B,7.0
2,14.944999933242798,learn,45055.0000667572,Fri Feb 14 2025 15:14:58 GMT-0600 (Central Standard Time),357284.799999997,A,wind,O,d,181,1,982.8999999985099,356301.8999999985,7061,WL,B,7.0
2,15.062000036239624,learn,44937.999963760376,Fri Feb 14 2025 15:14:58 GMT-0600 (Central Standard Time),357401.299999997,A,windo,O,o,101,1,1099.3999999985099,356301.8999999985,7061,WL,B,7.0
2,15.462000131607056,learn,44537.999868392944,Fri Feb 14 2025 15:14:58 GMT-0600 (Central Standard Time),357801.09999999404,A,window,O,w,377,1,1499.1999999955297,356301.8999999985,7061,WL,B,7.0
2,15.861999988555908,learn,44138.00001144409,Fri Feb 14 2025 15:14:58 GMT-0600 (Central Standard Time),358201.09999999404,A,windowenter,O,enter,384,1,1899.1999999955297,356301.8999999985,7061,WL,B,7.0
2,17.59500002861023,learn,42404.99997138977,Fri Feb 14 2025 15:14:58 GMT-0600 (Central Standard Time),359934.19999999553,A,c,O,c,1722,1,1732.8999999985099,358201.299999997,7061,WL,B,8.0
2,17.82800006866455,learn,42171.99993133545,Fri Feb 14 2025 15:14:58 GMT-0600 (Central Standard Time),360167.3999999985,A,ci,O,i,221,1,1966.1000000014901,358201.299999997,7061,WL,B,8.0
2,18.09500002861023,learn,41904.99997138977,Fri Feb 14 2025 15:14:58 GMT-0600 (Central Standard Time),360434.19999999553,A,cit,O,t,243,1,2232.89999999851,358201.299999997,7061,WL,B,8.0
2,18.293999910354614,learn,41706.000089645386,Fri Feb 14 2025 15:14:58 GMT-0600 (Central Standard Time),360633.8999999985,A,city,O,y,184,1,2432.60000000149,358201.299999997,7061,WL,B,8.0
2,18.543999910354614,learn,41456.000089645386,Fri Feb 14 2025 15:14:58 GMT-0600 (Central Standard Time),360883.8999999985,A,cityenter,O,enter,241,1,2682.60000000149,358201.299999997,7061,WL,B,8.0
2,19.276999950408936,learn,40723.000049591064,Fri Feb 14 2025 15:14:58 GMT-0600 (Central Standard Time),361616.8999999985,A,p,O,p,719,1,732.7000000029802,360884.19999999553,7061,WL,B,9.0
2,19.49399995803833,learn,40506.00004196167,Fri Feb 14 2025 15:14:58 GMT-0600 (Central Standard Time),361833.59999999404,A,pu,O,u,202,1,949.3999999985099,360884.19999999553,7061,WL,B,9.0
2,19.661999940872192,learn,40338.00005912781,Fri Feb 14 2025 15:14:58 GMT-0600 (Central Standard Time),362001.19999999553,A,pup,O,p,153,1,1117.0,360884.19999999553,7061,WL,B,9.0
2,19.811000108718872,learn,40188.99989128113,Fri Feb 14 2025 15:14:58 GMT-0600 (Central Standard Time),362150.19999999553,A,pupi,O,i,137,1,1266.0,360884.19999999553,7061,WL,B,9.0
2,20.026999950408936,learn,39973.000049591064,Fri Feb 14 2025 15:14:58 GMT-0600 (Central Standard Time),362366.799999997,A,pupil,O,l,197,1,1482.6000000014901,360884.19999999553,7061,WL,B,9.0
2,20.259999990463257,learn,39740.00000953674,Fri Feb 14 2025 15:14:58 GMT-0600 (Central Standard Time),362600.0,A,pupilenter,O,enter,212,1,1715.8000000044703,360884.19999999553,7061,WL,B,9.0
2,20.927000045776367,learn,39072.99995422363,Fri Feb 14 2025 15:14:58 GMT-0600 (Central Standard Time),363266.5,A,c,O,c,649,1,665.9000000059605,362600.59999999404,7061,WL,B,10.0
2,21.24399995803833,learn,38756.00004196167,Fri Feb 14 2025 15:14:58 GMT-0600 (Central Standard Time),363583.19999999553,A,ca,O,a,304,1,982.6000000014901,362600.59999999404,7061,WL,B,10.0
2,21.427000045776367,learn,38572.99995422363,Fri Feb 14 2025 15:14:58 GMT-0600 (Central Standard Time),363766.299999997,A,cab,O,b,163,1,1165.7000000029802,362600.59999999404,7061,WL,B,10.0
2,21.526999950408936,learn,38473.000049591064,Fri Feb 14 2025 15:14:58 GMT-0600 (Central Standard Time),363866.09999999404,A,cabi,O,i,84,1,1265.5,362600.59999999404,7061,WL,B,10.0
2,21.72699999809265,learn,38273.00000190735,Fri Feb 14 2025 15:14:58 GMT-0600 (Central Standard Time),364066.19999999553,A,cabin,O,n,176,1,1465.6000000014901,362600.59999999404,7061,WL,B,10.0
2,22.009999990463257,learn,37990.00000953674,Fri Feb 14 2025 15:14:58 GMT-0600 (Central Standard Time),364349.5,A,cabinenter,O,enter,264,1,1748.9000000059605,362600.59999999404,7061,WL,B,10.0
2,24.759000062942505,learn,35240.999937057495,Fri Feb 14 2025 15:14:58 GMT-0600 (Central Standard Time),367098.3999999985,A,l,O,l,2741,1,2748.60000000149,364349.799999997,7061,WL,B,11.0
2,25.14300012588501,learn,34856.99987411499,Fri Feb 14 2025 15:14:58 GMT-0600 (Central Standard Time),367482.0,A,la,O,a,376,1,3132.2000000029802,364349.799999997,7061,WL,B,11.0
2,25.39199995994568,learn,34608.00004005432,Fri Feb 14 2025 15:14:58 GMT-0600 (Central Standard Time),367731.69999999553,A,lak,O,k,233,1,3381.89999999851,364349.799999997,7061,WL,B,11.0
2,25.72499990463257,learn,34275.00009536743,Fri Feb 14 2025 15:14:58 GMT-0600 (Central Standard Time),368064.8999999985,A,lake,O,e,311,1,3715.10000000149,364349.799999997,7061,WL,B,11.0
2,26.158999919891357,learn,33841.00008010864,Fri Feb 14 2025 15:14:58 GMT-0600 (Central Standard Time),368498.0,A,lakeenter,O,enter,409,1,4148.20000000298,364349.799999997,7061,WL,B,11.0
2,27.325000047683716,learn,32674.999952316284,Fri Feb 14 2025 15:14:58 GMT-0600 (Central Standard Time),369664.3999999985,A,p,O,p,1145,1,1166.0,368498.3999999985,7061,WL,B,12.0
2,27.575000047683716,learn,32424.999952316284,Fri Feb 14 2025 15:14:58 GMT-0600 (Central Standard Time),369914.299999997,A,pi,O,i,234,1,1415.8999999985099,368498.3999999985,7061,WL,B,12.0
2,28.007999897003174,learn,31992.000102996826,Fri Feb 14 2025 15:14:58 GMT-0600 (Central Standard Time),370347.59999999404,A,pip,O,p,424,1,1849.1999999955297,368498.3999999985,7061,WL,B,12.0
2,28.757999897003174,learn,31242.000102996826,Fri Feb 14 2025 15:14:58 GMT-0600 (Central Standard Time),371097.299999997,A,pipe,O,e,735,1,2598.89999999851,368498.3999999985,7061,WL,B,12.0
2,29.874000072479248,learn,30125.999927520752,Fri Feb 14 2025 15:14:58 GMT-0600 (Central Standard Time),372213.799999997,A,pipeenter,O,enter,1106,1,3715.39999999851,368498.3999999985,7061,WL,B,12.0
2,30.85700011253357,learn,29142.99988746643,Fri Feb 14 2025 15:14:58 GMT-0600 (Central Standard Time),373196.5,A,s,O,s,965,1,982.4000000059605,372214.09999999404,7061,WL,B,13.0
2,31.0239999294281,learn,28976.0000705719,Fri Feb 14 2025 15:14:58 GMT-0600 (Central Standard Time),373363.299999997,A,sk,O,k,151,1,1149.2000000029802,372214.09999999404,7061,WL,B,13.0
2,31.240000009536743,learn,28759.999990463257,Fri Feb 14 2025 15:14:58 GMT-0600 (Central Standard Time),373579.59999999404,A,ski,O,i,208,1,1365.5,372214.09999999404,7061,WL,B,13.0
2,31.44000005722046,learn,28559.99994277954,Fri Feb 14 2025 15:14:58 GMT-0600 (Central Standard Time),373779.69999999553,A,skin,O,n,182,1,1565.6000000014901,372214.09999999404,7061,WL,B,13.0
2,31.740000009536743,learn,28259.999990463257,Fri Feb 14 2025 15:14:58 GMT-0600 (Central Standard Time),374079.59999999404,A,skinenter,O,enter,279,1,1865.5,372214.09999999404,7061,WL,B,13.0
2,32.52300000190735,learn,27476.99999809265,Fri Feb 14 2025 15:14:58 GMT-0600 (Central Standard Time),374862.799999997,A,f,O,f,771,1,782.7000000029802,374080.09999999404,7061,WL,B,14.0
2,32.69000005722046,learn,27309.99994277954,Fri Feb 14 2025 15:14:58 GMT-0600 (Central Standard Time),375029.5,A,fi,O,i,155,1,949.4000000059605,374080.09999999404,7061,WL,B,14.0
2,33.07800006866455,learn,26921.99993133545,Fri Feb 14 2025 15:14:58 GMT-0600 (Central Standard Time),375417.19999999553,A,fir,O,r,233,1,1337.1000000014901,374080.09999999404,7061,WL,B,14.0
2,33.10800004005432,learn,26891.99995994568,Fri Feb 14 2025 15:14:58 GMT-0600 (Central Standard Time),375447.69999999553,A,fire,O,e,14,1,1367.6000000014901,374080.09999999404,7061,WL,B,14.0
2,33.305999994277954,learn,26694.000005722046,Fri Feb 14 2025 15:14:58 GMT-0600 (Central Standard Time),375646.0,A,fireenter,O,enter,178,1,1565.9000000059605,374080.09999999404,7061,WL,B,14.0
2,33.89100003242493,learn,26108.999967575073,Fri Feb 14 2025 15:14:58 GMT-0600 (Central Standard Time),376230.19999999553,A,c,O,c,573,1,583.7999999970198,375646.3999999985,7061,WL,B,15.0
2,34.055999994277954,learn,25944.000005722046,Fri Feb 14 2025 15:14:58 GMT-0600 (Central Standard Time),376395.799999997,A,cl,O,l,156,1,749.3999999985099,375646.3999999985,7061,WL,B,15.0
2,34.289000034332275,learn,25710.999965667725,Fri Feb 14 2025 15:14:58 GMT-0600 (Central Standard Time),376628.799999997,A,clo,O,o,223,1,982.3999999985099,375646.3999999985,7061,WL,B,15.0
2,35.08899998664856,learn,24911.00001335144,Fri Feb 14 2025 15:14:58 GMT-0600 (Central Standard Time),377428.5,A,cloc,O,c,783,1,1782.1000000014901,375646.3999999985,7061,WL,B,15.0
2,35.22200012207031,learn,24777.999877929688,Fri Feb 14 2025 15:14:58 GMT-0600 (Central Standard Time),377561.8999999985,A,clock,O,k,126,1,1915.5,375646.3999999985,7061,WL,B,15.0
2,35.57200002670288,learn,24427.99997329712,Fri Feb 14 2025 15:14:58 GMT-0600 (Central Standard Time),377911.799999997,A,clockenter,O,enter,329,1,2265.39999999851,375646.3999999985,7061,WL,B,15.0
3,2.4489998817443848,learn,57551.000118255615,Fri Feb 14 2025 15:14:58 GMT-0600 (Central Standard Time),453838.0,A,s,O,s,2430,1,2449.3000000044703,451388.69999999553,7061,WL,B,1.0
3,2.6989998817443848,learn,57301.000118255615,Fri Feb 14 2025 15:14:58 GMT-0600 (Central Standard Time),454088.0,A,st,O,t,237,1,2699.3000000044703,451388.69999999553,7061,WL,B,1.0
3,2.933000087738037,learn,57066.99991226196,Fri Feb 14 2025 15:14:58 GMT-0600 (Central Standard Time),454321.59999999404,A,str,O,r,211,1,2932.89999999851,451388.69999999553,7061,WL,B,1.0
3,3.1659998893737793,learn,56834.00011062622,Fri Feb 14 2025 15:14:58 GMT-0600 (Central Standard Time),454554.3999999985,A,stre,O,e,225,1,3165.7000000029802,451388.69999999553,7061,WL,B,1.0
3,3.3320000171661377,learn,56667.99998283386,Fri Feb 14 2025 15:14:58 GMT-0600 (Central Standard Time),454721.0,A,stree,O,e,143,1,3332.3000000044703,451388.69999999553,7061,WL,B,1.0
3,3.4819998741149902,learn,56518.00012588501,Fri Feb 14 2025 15:14:58 GMT-0600 (Central Standard Time),454871.0,A,street,O,t,137,1,3482.3000000044703,451388.69999999553,7061,WL,B,1.0
3,7.2809998989105225,learn,52719.00010108948,Fri Feb 14 2025 15:14:58 GMT-0600 (Central Standard Time),458670.09999999404,A,streetenter,O,enter,3780,1,7281.39999999851,451388.69999999553,7061,WL,B,1.0
3,9.629999876022339,learn,50370.00012397766,Fri Feb 14 2025 15:14:58 GMT-0600 (Central Standard Time),461018.799999997,A,g,O,g,2340,1,2348.39999999851,458670.3999999985,7061,WL,B,2.0
3,9.864000082015991,learn,50135.99991798401,Fri Feb 14 2025 15:14:58 GMT-0600 (Central Standard Time),461252.299999997,A,gr,O,r,225,1,2581.89999999851,458670.3999999985,7061,WL,B,2.0
3,10.04699993133545,learn,49953.00006866455,Fri Feb 14 2025 15:14:58 GMT-0600 (Central Standard Time),461435.69999999553,A,gra,O,a,167,1,2765.2999999970198,458670.3999999985,7061,WL,B,2.0
3,10.29699993133545,learn,49703.00006866455,Fri Feb 14 2025 15:14:58 GMT-0600 (Central Standard Time),461685.799999997,A,gras,O,s,231,1,3015.39999999851,458670.3999999985,7061,WL,B,2.0
3,10.496999979019165,learn,49503.000020980835,Fri Feb 14 2025 15:14:58 GMT-0600 (Central Standard Time),461885.59999999404,A,grass,O,s,180,1,3215.1999999955297,458670.3999999985,7061,WL,B,2.0
3,10.663000106811523,learn,49336.99989318848,Fri Feb 14 2025 15:14:58 GMT-0600 (Central Standard Time),462052.09999999404,A,grassenter,O,enter,156,1,3381.6999999955297,458670.3999999985,7061,WL,B,2.0
3,11.29699993133545,learn,48703.00006866455,Fri Feb 14 2025 15:14:58 GMT-0600 (Central Standard Time),462685.299999997,A,d,O,d,614,1,632.7999999970198,462052.5,7061,WL,B,3.0
3,11.54699993133545,learn,48453.00006866455,Fri Feb 14 2025 15:14:58 GMT-0600 (Central Standard Time),462935.299999997,A,do,O,o,237,1,882.7999999970198,462052.5,7061,WL,B,3.0
3,11.713000059127808,learn,48286.99994087219,Fri Feb 14 2025 15:14:58 GMT-0600 (Central Standard Time),463101.8999999985,A,doo,O,o,147,1,1049.3999999985099,462052.5,7061,WL,B,3.0
3,11.829999923706055,learn,48170.000076293945,Fri Feb 14 2025 15:14:58 GMT-0600 (Central Standard Time),463218.299999997,A,door,O,r,109,1,1165.7999999970198,462052.5,7061,WL,B,3.0
3,12.213000059127808,learn,47786.99994087219,Fri Feb 14 2025 15:14:58 GMT-0600 (Central Standard Time),463601.59999999404,A,doorenter,O,enter,369,1,1549.0999999940395,462052.5,7061,WL,B,3.0
3,14.078999996185303,learn,45921.0000038147,Fri Feb 14 2025 15:14:58 GMT-0600 (Central Standard Time),465467.69999999553,A,a,O,a,1857,1,1865.6999999955297,463602.0,7061,WL,B,4.0
3,14.328999996185303,learn,45671.0000038147,Fri Feb 14 2025 15:14:58 GMT-0600 (Central Standard Time),465717.799999997,A,ar,O,r,238,1,2115.7999999970198,463602.0,7061,WL,B,4.0
3,14.529000043869019,learn,45470.99995613098,Fri Feb 14 2025 15:14:58 GMT-0600 (Central Standard Time),465917.59999999404,A,arn,O,n,182,1,2315.5999999940395,463602.0,7061,WL,B,4.0
3,15.144999980926514,learn,44855.000019073486,Fri Feb 14 2025 15:14:58 GMT-0600 (Central Standard Time),466533.8999999985,A,ar,O,backspace,597,1,2931.89999999851,463602.0,7061,WL,B,4.0
3,15.694999933242798,learn,44305.0000667572,Fri Feb 14 2025 15:14:58 GMT-0600 (Central Standard Time),467084.0,A,arm,O,m,541,1,3482.0,463602.0,7061,WL,B,4.0
3,16.211999893188477,learn,43788.00010681152,Fri Feb 14 2025 15:14:58 GMT-0600 (Central Standard Time),467600.3999999985,A,armenter,O,enter,503,1,3998.39999999851,463602.0,7061,WL,B,4.0
3,17.26099991798401,learn,42739.00008201599,Fri Feb 14 2025 15:14:58 GMT-0600 (Central Standard Time),468650.09999999404,A,s,O,s,1034,1,1049.2999999970198,467600.799999997,7061,WL,B,5.0
3,17.527999877929688,learn,42472.00012207031,Fri Feb 14 2025 15:14:58 GMT-0600 (Central Standard Time),468916.69999999553,A,st,O,t,257,1,1315.8999999985099,467600.799999997,7061,WL,B,5.0
3,17.76099991798401,learn,42239.00008201599,Fri Feb 14 2025 15:14:58 GMT-0600 (Central Standard Time),469149.8999999985,A,sta,O,a,214,1,1549.1000000014901,467600.799999997,7061,WL,B,5.0
3,17.878000020980835,learn,42121.999979019165,Fri Feb 14 2025 15:14:58 GMT-0600 (Central Standard Time),469266.59999999404,A,star,O,r,101,1,1665.7999999970198,467600.799999997,7061,WL,B,5.0
3,18.477999925613403,learn,41522.0000743866,Fri Feb 14 2025 15:14:58 GMT-0600 (Central Standard Time),469866.19999999553,A,starenter,O,enter,592,1,2265.39999999851,467600.799999997,7061,WL,B,5.0
3,18.944000005722046,learn,41055.999994277954,Fri Feb 14 2025 15:14:58 GMT-0600 (Central Standard Time),470332.69999999553,A,s,O,s,449,1,466.29999999701977,469866.3999999985,7061,WL,B,6.0
3,19.710999965667725,learn,40289.000034332275,Fri Feb 14 2025 15:14:58 GMT-0600 (Central Standard Time),471099.299999997,A,,O,backspace,758,1,1232.8999999985099,469866.3999999985,7061,WL,B,6.0
3,19.91100001335144,learn,40088.99998664856,Fri Feb 14 2025 15:14:58 GMT-0600 (Central Standard Time),471299.299999997,A,w,O,w,192,1,1432.8999999985099,469866.3999999985,7061,WL,B,6.0
3,20.07699990272522,learn,39923.00009727478,Fri Feb 14 2025 15:14:58 GMT-0600 (Central Standard Time),471466.09999999404,A,wi,O,i,152,1,1599.6999999955297,469866.3999999985,7061,WL,B,6.0
3,20.927000045776367,learn,39072.99995422363,Fri Feb 14 2025 15:14:58 GMT-0600 (Central Standard Time),472315.3999999985,A,w,O,backspace,840,1,2449.0,469866.3999999985,7061,WL,B,6.0
3,21.609999895095825,learn,38390.000104904175,Fri Feb 14 2025 15:14:58 GMT-0600 (Central Standard Time),472998.799999997,A,wi,O,i,671,1,3132.39999999851,469866.3999999985,7061,WL,B,6.0
3,21.710000038146973,learn,38289.99996185303,Fri Feb 14 2025 15:14:58 GMT-0600 (Central Standard Time),473098.5,A,wif,O,f,91,1,3232.10000000149,469866.3999999985,7061,WL,B,6.0
3,21.993000030517578,learn,38006.99996948242,Fri Feb 14 2025 15:14:58 GMT-0600 (Central Standard Time),473381.799999997,A,wife,O,e,273,1,3515.39999999851,469866.3999999985,7061,WL,B,6.0
3,22.177000045776367,learn,37822.99995422363,Fri Feb 14 2025 15:14:58 GMT-0600 (Central Standard Time),473565.19999999553,A,wifeenter,O,enter,165,1,3698.7999999970198,469866.3999999985,7061,WL,B,6.0
3,22.377000093460083,learn,37622.99990653992,Fri Feb 14 2025 15:14:58 GMT-0600 (Central Standard Time),473765.19999999553,A,s,O,s,190,1,199.60000000149012,473565.59999999404,7061,WL,B,7.0
3,22.509999990463257,learn,37490.00000953674,Fri Feb 14 2025 15:14:58 GMT-0600 (Central Standard Time),473898.3999999985,A,si,O,i,125,1,332.80000000447035,473565.59999999404,7061,WL,B,7.0
3,22.66000008583069,learn,37339.99991416931,Fri Feb 14 2025 15:14:58 GMT-0600 (Central Standard Time),474048.3999999985,A,sin,O,n,129,1,482.80000000447035,473565.59999999404,7061,WL,B,7.0
3,22.792999982833862,learn,37207.00001716614,Fri Feb 14 2025 15:14:58 GMT-0600 (Central Standard Time),474181.8999999985,A,sind,O,d,114,1,616.3000000044703,473565.59999999404,7061,WL,B,7.0
3,22.925999879837036,learn,37074.000120162964,Fri Feb 14 2025 15:14:58 GMT-0600 (Central Standard Time),474314.799999997,A,sindo,O,o,124,1,749.2000000029802,473565.59999999404,7061,WL,B,7.0
3,23.14299988746643,learn,36857.00011253357,Fri Feb 14 2025 15:14:58 GMT-0600 (Central Standard Time),474531.59999999404,A,sindow,O,w,200,1,966.0,473565.59999999404,7061,WL,B,7.0
3,24.05999994277954,learn,35940.00005722046,Fri Feb 14 2025 15:14:58 GMT-0600 (Central Standard Time),475449.09999999404,A,sindo,O,backspace,895,1,1883.5,473565.59999999404,7061,WL,B,7.0
3,24.20899987220764,learn,35791.00012779236,Fri Feb 14 2025 15:14:58 GMT-0600 (Central Standard Time),475598.0,A,sind,O,backspace,138,1,2032.4000000059605,473565.59999999404,7061,WL,B,7.0
3,24.375,learn,35625.0,Fri Feb 14 2025 15:14:58 GMT-0600 (Central Standard Time),475764.5,A,sin,O,backspace,157,1,2198.9000000059605,473565.59999999404,7061,WL,B,7.0
3,24.54200005531311,learn,35457.99994468689,Fri Feb 14 2025 15:14:58 GMT-0600 (Central Standard Time),475930.8999999985,A,si,O,backspace,159,1,2365.3000000044703,473565.59999999404,7061,WL,B,7.0
3,24.740999937057495,learn,35259.000062942505,Fri Feb 14 2025 15:14:58 GMT-0600 (Central Standard Time),476130.799999997,A,s,O,backspace,192,1,2565.2000000029802,473565.59999999404,7061,WL,B,7.0
3,25.10800004005432,learn,34891.99995994568,Fri Feb 14 2025 15:14:58 GMT-0600 (Central Standard Time),476497.799999997,A,,O,backspace,352,1,2932.2000000029802,473565.59999999404,7061,WL,B,7.0
3,25.72499990463257,learn,34275.00009536743,Fri Feb 14 2025 15:14:58 GMT-0600 (Central Standard Time),477114.09999999404,A,w,O,w,609,1,3548.5,473565.59999999404,7061,WL,B,7.0
3,25.891000032424927,learn,34108.99996757507,Fri Feb 14 2025 15:14:58 GMT-0600 (Central Standard Time),477280.799999997,A,wi,O,i,153,1,3715.2000000029802,473565.59999999404,7061,WL,B,7.0
3,26.04099988937378,learn,33959.00011062622,Fri Feb 14 2025 15:14:58 GMT-0600 (Central Standard Time),477430.799999997,A,win,O,n,130,1,3865.2000000029802,473565.59999999404,7061,WL,B,7.0
3,26.20799994468689,learn,33792.00005531311,Fri Feb 14 2025 15:14:58 GMT-0600 (Central Standard Time),477597.5,A,wind,O,d,148,1,4031.9000000059605,473565.59999999404,7061,WL,B,7.0
3,26.341000080108643,learn,33658.99991989136,Fri Feb 14 2025 15:14:58 GMT-0600 (Central Standard Time),477730.5,A,windo,O,o,125,1,4164.9000000059605,473565.59999999404,7061,WL,B,7.0
3,26.54099988937378,learn,33459.00011062622,Fri Feb 14 2025 15:14:58 GMT-0600 (Central Standard Time),477930.5,A,window,O,w,192,1,4364.9000000059605,473565.59999999404,7061,WL,B,7.0
3,27.806999921798706,learn,32193.000078201294,Fri Feb 14 2025 15:14:58 GMT-0600 (Central Standard Time),479196.799999997,A,windowenter,O,enter,1256,1,5631.20000000298,473565.59999999404,7061,WL,B,7.0
3,28.674000024795532,learn,31325.999975204468,Fri Feb 14 2025 15:14:58 GMT-0600 (Central Standard Time),480063.09999999404,A,c,O,c,846,1,865.8999999985099,479197.19999999553,7061,WL,B,8.0
3,28.890000104904175,learn,31109.999895095825,Fri Feb 14 2025 15:14:58 GMT-0600 (Central Standard Time),480279.799999997,A,ci,O,i,203,1,1082.6000000014901,479197.19999999553,7061,WL,B,8.0
3,29.056999921798706,learn,30943.000078201294,Fri Feb 14 2025 15:14:58 GMT-0600 (Central Standard Time),480446.5,A,cit,O,t,155,1,1249.3000000044703,479197.19999999553,7061,WL,B,8.0
3,29.27300000190735,learn,30726.99999809265,Fri Feb 14 2025 15:14:58 GMT-0600 (Central Standard Time),480662.8999999985,A,city,O,y,196,1,1465.7000000029802,479197.19999999553,7061,WL,B,8.0
3,29.506999969482422,learn,30493.000030517578,Fri Feb 14 2025 15:14:58 GMT-0600 (Central Standard Time),480896.299999997,A,cityenter,O,enter,220,1,1699.1000000014901,479197.19999999553,7061,WL,B,8.0
3,31.44000005722046,learn,28559.99994277954,Fri Feb 14 2025 15:14:58 GMT-0600 (Central Standard Time),482829.0,A,p,O,p,1923,1,1932.4000000059605,480896.59999999404,7061,WL,B,9.0
3,31.688999891281128,learn,28311.000108718872,Fri Feb 14 2025 15:14:58 GMT-0600 (Central Standard Time),483078.69999999553,A,pu,O,u,228,1,2182.10000000149,480896.59999999404,7061,WL,B,9.0
3,31.872999906539917,learn,28127.000093460083,Fri Feb 14 2025 15:14:58 GMT-0600 (Central Standard Time),483262.19999999553,A,pup,O,p,172,1,2365.60000000149,480896.59999999404,7061,WL,B,9.0
3,32.12299990653992,learn,27877.000093460083,Fri Feb 14 2025 15:14:58 GMT-0600 (Central Standard Time),483512.19999999553,A,pupi,O,i,236,1,2615.60000000149,480896.59999999404,7061,WL,B,9.0
3,32.37299990653992,learn,27627.000093460083,Fri Feb 14 2025 15:14:58 GMT-0600 (Central Standard Time),483762.0,A,pupil,O,l,235,1,2865.4000000059605,480896.59999999404,7061,WL,B,9.0
3,33.15599989891052,learn,26844.000101089478,Fri Feb 14 2025 15:14:58 GMT-0600 (Central Standard Time),484545.0,A,pupilenter,O,enter,769,1,3648.4000000059605,480896.59999999404,7061,WL,B,9.0
3,33.539000034332275,learn,26460.999965667725,Fri Feb 14 2025 15:14:58 GMT-0600 (Central Standard Time),484928.299999997,A,c,O,c,362,1,382.8999999985099,484545.3999999985,7061,WL,B,10.0
3,33.82200002670288,learn,26177.99997329712,Fri Feb 14 2025 15:14:58 GMT-0600 (Central Standard Time),485211.59999999404,A,ca,O,a,266,1,666.1999999955297,484545.3999999985,7061,WL,B,10.0
3,33.97199988365173,learn,26028.000116348267,Fri Feb 14 2025 15:14:58 GMT-0600 (Central Standard Time),485361.59999999404,A,cab,O,b,135,1,816.1999999955297,484545.3999999985,7061,WL,B,10.0
3,34.121999979019165,learn,25878.000020980835,Fri Feb 14 2025 15:14:58 GMT-0600 (Central Standard Time),485511.59999999404,A,cabi,O,i,129,1,966.1999999955297,484545.3999999985,7061,WL,B,10.0
3,34.3050000667572,learn,25694.999933242798,Fri Feb 14 2025 15:14:58 GMT-0600 (Central Standard Time),485694.799999997,A,cabin,O,n,163,1,1149.3999999985099,484545.3999999985,7061,WL,B,10.0
3,34.621999979019165,learn,25378.000020980835,Fri Feb 14 2025 15:14:58 GMT-0600 (Central Standard Time),486011.299999997,A,cabinenter,O,enter,308,1,1465.8999999985099,484545.3999999985,7061,WL,B,10.0
3,34.88800001144409,learn,25111.99998855591,Fri Feb 14 2025 15:14:58 GMT-0600 (Central Standard Time),486277.8999999985,A,l,O,l,255,1,266.3999999985099,486011.5,7061,WL,B,11.0
3,35.105000019073486,learn,24894.999980926514,Fri Feb 14 2025 15:14:58 GMT-0600 (Central Standard Time),486494.59999999404,A,la,O,a,205,1,483.09999999403954,486011.5,7061,WL,B,11.0
3,35.25499987602234,learn,24745.00012397766,Fri Feb 14 2025 15:14:58 GMT-0600 (Central Standard Time),486644.59999999404,A,lak,O,k,132,1,633.0999999940395,486011.5,7061,WL,B,11.0
3,35.47199988365173,learn,24528.000116348267,Fri Feb 14 2025 15:14:58 GMT-0600 (Central Standard Time),486861.0,A,lake,O,e,198,1,849.5,486011.5,7061,WL,B,11.0
3,36.40499997138977,learn,23595.00002861023,Fri Feb 14 2025 15:14:58 GMT-0600 (Central Standard Time),487793.8999999985,A,lakeenter,O,enter,910,1,1782.3999999985099,486011.5,7061,WL,B,11.0
3,37.80399990081787,learn,22196.00009918213,Fri Feb 14 2025 15:14:58 GMT-0600 (Central Standard Time),489193.8999999985,A,p,O,p,1393,1,1399.6000000014901,487794.299999997,7061,WL,B,12.0
3,38.020999908447266,learn,21979.000091552734,Fri Feb 14 2025 15:14:58 GMT-0600 (Central Standard Time),489410.09999999404,A,pi,O,i,209,1,1615.7999999970198,487794.299999997,7061,WL,B,12.0
3,38.22099995613098,learn,21779.00004386902,Fri Feb 14 2025 15:14:58 GMT-0600 (Central Standard Time),489610.09999999404,A,pip,O,p,184,1,1815.7999999970198,487794.299999997,7061,WL,B,12.0
3,38.48699998855591,learn,21513.00001144409,Fri Feb 14 2025 15:14:58 GMT-0600 (Central Standard Time),489876.799999997,A,pipe,O,e,249,1,2082.5,487794.299999997,7061,WL,B,12.0
3,38.75399994850159,learn,21246.000051498413,Fri Feb 14 2025 15:14:58 GMT-0600 (Central Standard Time),490143.299999997,A,pipeenter,O,enter,254,1,2349.0,487794.299999997,7061,WL,B,12.0
3,39.6710000038147,learn,20328.999996185303,Fri Feb 14 2025 15:14:58 GMT-0600 (Central Standard Time),491059.8999999985,A,s,O,s,899,1,916.3000000044703,490143.59999999404,7061,WL,B,13.0
3,39.937000036239624,learn,20062.999963760376,Fri Feb 14 2025 15:14:58 GMT-0600 (Central Standard Time),491326.299999997,A,sk,O,k,247,1,1182.7000000029802,490143.59999999404,7061,WL,B,13.0
3,40.11999988555908,learn,19880.000114440918,Fri Feb 14 2025 15:14:58 GMT-0600 (Central Standard Time),491509.59999999404,A,ski,O,i,172,1,1366.0,490143.59999999404,7061,WL,B,13.0
3,40.269999980926514,learn,19730.000019073486,Fri Feb 14 2025 15:14:58 GMT-0600 (Central Standard Time),491659.19999999553,A,skin,O,n,141,1,1515.6000000014901,490143.59999999404,7061,WL,B,13.0
3,41.30299997329712,learn,18697.00002670288,Fri Feb 14 2025 15:14:58 GMT-0600 (Central Standard Time),492692.59999999404,A,skinenter,O,enter,1023,1,2549.0,490143.59999999404,7061,WL,B,13.0
3,41.98699998855591,learn,18013.00001144409,Fri Feb 14 2025 15:14:58 GMT-0600 (Central Standard Time),493376.299999997,A,f,O,f,670,1,683.3999999985099,492692.8999999985,7061,WL,B,14.0
3,42.18600010871887,learn,17813.999891281128,Fri Feb 14 2025 15:14:58 GMT-0600 (Central Standard Time),493575.799999997,A,fi,O,i,179,1,882.8999999985099,492692.8999999985,7061,WL,B,14.0
3,42.335999965667725,learn,17664.000034332275,Fri Feb 14 2025 15:14:58 GMT-0600 (Central Standard Time),493725.5,A,fir,O,r,139,1,1032.6000000014901,492692.8999999985,7061,WL,B,14.0
3,42.65299987792969,learn,17347.000122070312,Fri Feb 14 2025 15:14:58 GMT-0600 (Central Standard Time),494041.8999999985,A,fire,O,e,310,1,1349.0,492692.8999999985,7061,WL,B,14.0
3,42.8529999256134,learn,17147.000074386597,Fri Feb 14 2025 15:14:58 GMT-0600 (Central Standard Time),494242.0,A,fireenter,O,enter,193,1,1549.1000000014901,492692.8999999985,7061,WL,B,14.0
3,43.085999965667725,learn,16914.000034332275,Fri Feb 14 2025 15:14:58 GMT-0600 (Central Standard Time),494475.5,A,c,O,c,217,1,233.30000000447035,494242.19999999553,7061,WL,B,15.0
3,43.25200009346008,learn,16747.999906539917,Fri Feb 14 2025 15:14:58 GMT-0600 (Central Standard Time),494641.59999999404,A,cl,O,l,142,1,399.3999999985099,494242.19999999553,7061,WL,B,15.0
3,43.43499994277954,learn,16565.00005722046,Fri Feb 14 2025 15:14:58 GMT-0600 (Central Standard Time),494824.8999999985,A,clo,O,o,170,1,582.7000000029802,494242.19999999553,7061,WL,B,15.0
3,43.569000005722046,learn,16430.999994277954,Fri Feb 14 2025 15:14:58 GMT-0600 (Central Standard Time),494958.19999999553,A,cloc,O,c,113,1,716.0,494242.19999999553,7061,WL,B,15.0
3,43.668999910354614,learn,16331.000089645386,Fri Feb 14 2025 15:14:58 GMT-0600 (Central Standard Time),495058.19999999553,A,clock,O,k,92,1,816.0,494242.19999999553,7061,WL,B,15.0
3,43.96900010108948,learn,16030.999898910522,Fri Feb 14 2025 15:14:58 GMT-0600 (Central Standard Time),495358.0,A,clockenter,O,enter,287,1,1115.8000000044703,494242.19999999553,7061,WL,B,15.0
4,1.7179999351501465,learn,58282.00006484985,Fri Feb 14 2025 15:14:58 GMT-0600 (Central Standard Time),574119.0,A,s,O,s,1706,1,1718.2000000029802,572400.799999997,7061,WL,B,1.0
4,2.0999999046325684,learn,57900.00009536743,Fri Feb 14 2025 15:14:58 GMT-0600 (Central Standard Time),574500.299999997,A,st,O,t,372,1,2099.5,572400.799999997,7061,WL,B,1.0
4,3.0160000324249268,learn,56983.99996757507,Fri Feb 14 2025 15:14:58 GMT-0600 (Central Standard Time),575416.799999997,A,str,O,r,895,1,3016.0,572400.799999997,7061,WL,B,1.0
4,3.2330000400543213,learn,56766.99995994568,Fri Feb 14 2025 15:14:58 GMT-0600 (Central Standard Time),575633.5,A,stre,O,e,194,1,3232.7000000029802,572400.799999997,7061,WL,B,1.0
4,3.381999969482422,learn,56618.00003051758,Fri Feb 14 2025 15:14:58 GMT-0600 (Central Standard Time),575783.099999994,A,stree,O,e,137,1,3382.2999999970198,572400.799999997,7061,WL,B,1.0
4,3.9489998817443848,learn,56051.000118255615,Fri Feb 14 2025 15:14:58 GMT-0600 (Central Standard Time),576349.6999999955,A,street,O,t,548,1,3948.89999999851,572400.799999997,7061,WL,B,1.0
4,4.415999889373779,learn,55584.00011062622,Fri Feb 14 2025 15:14:58 GMT-0600 (Central Standard Time),576816.1999999955,A,streetenter,O,enter,444,1,4415.39999999851,572400.799999997,7061,WL,B,1.0
4,5.2149999141693115,learn,54785.00008583069,Fri Feb 14 2025 15:14:58 GMT-0600 (Central Standard Time),577616.0,A,g,O,g,787,1,799.3000000044703,576816.6999999955,7061,WL,B,2.0
4,5.499000072479248,learn,54500.99992752075,Fri Feb 14 2025 15:14:58 GMT-0600 (Central Standard Time),577899.1999999955,A,gr,O,r,266,1,1082.5,576816.6999999955,7061,WL,B,2.0
4,5.681999921798706,learn,54318.000078201294,Fri Feb 14 2025 15:14:58 GMT-0600 (Central Standard Time),578082.5,A,gra,O,a,160,1,1265.8000000044703,576816.6999999955,7061,WL,B,2.0
4,5.931999921798706,learn,54068.000078201294,Fri Feb 14 2025 15:14:58 GMT-0600 (Central Standard Time),578332.5,A,gras,O,s,240,1,1515.8000000044703,576816.6999999955,7061,WL,B,2.0
4,6.0980000495910645,learn,53901.999950408936,Fri Feb 14 2025 15:14:58 GMT-0600 (Central Standard Time),578498.799999997,A,grass,O,s,158,1,1682.1000000014901,576816.6999999955,7061,WL,B,2.0
4,6.315000057220459,learn,53684.99994277954,Fri Feb 14 2025 15:14:58 GMT-0600 (Central Standard Time),578715.6999999955,A,grassenter,O,enter,208,1,1899.0,576816.6999999955,7061,WL,B,2.0
4,7.2820000648498535,learn,52717.99993515015,Fri Feb 14 2025 15:14:58 GMT-0600 (Central Standard Time),579682.1999999955,A,d,O,d,943,1,966.1999999955297,578716.0,7061,WL,B,3.0
4,7.5320000648498535,learn,52467.99993515015,Fri Feb 14 2025 15:14:58 GMT-0600 (Central Standard Time),579932.6999999955,A,do,O,o,240,1,1216.6999999955297,578716.0,7061,WL,B,3.0
4,7.680999994277954,learn,52319.000005722046,Fri Feb 14 2025 15:14:58 GMT-0600 (Central Standard Time),580081.799999997,A,doo,O,o,127,1,1365.7999999970198,578716.0,7061,WL,B,3.0
4,7.88100004196167,learn,52118.99995803833,Fri Feb 14 2025 15:14:58 GMT-0600 (Central Standard Time),580281.8999999985,A,door,O,r,185,1,1565.8999999985099,578716.0,7061,WL,B,3.0
4,8.63100004196167,learn,51368.99995803833,Fri Feb 14 2025 15:14:58 GMT-0600 (Central Standard Time),581031.599999994,A,doorenter,O,enter,729,1,2315.5999999940395,578716.0,7061,WL,B,3.0
4,8.848000049591064,learn,51151.999950408936,Fri Feb 14 2025 15:14:58 GMT-0600 (Central Standard Time),581248.1999999955,A,a,O,a,203,1,216.29999999701977,581031.8999999985,7061,WL,B,4.0
4,9.063999891281128,learn,50936.00010871887,Fri Feb 14 2025 15:14:58 GMT-0600 (Central Standard Time),581464.799999997,A,ar,O,r,202,1,432.8999999985099,581031.8999999985,7061,WL,B,4.0
4,9.280999898910522,learn,50719.00010108948,Fri Feb 14 2025 15:14:58 GMT-0600 (Central Standard Time),581681.299999997,A,arm,O,m,202,1,649.3999999985099,581031.8999999985,7061,WL,B,4.0
4,9.596999883651733,learn,50403.00011634827,Fri Feb 14 2025 15:14:58 GMT-0600 (Central Standard Time),581998.0,A,armenter,O,enter,305,1,966.1000000014901,581031.8999999985,7061,WL,B,4.0
4,10.77999997138977,learn,49220.00002861023,Fri Feb 14 2025 15:14:58 GMT-0600 (Central Standard Time),583180.8999999985,A,w,O,w,1165,1,1182.6000000014901,581998.299999997,7061,WL,B,5.0
4,10.980000019073486,learn,49019.999980926514,Fri Feb 14 2025 15:14:58 GMT-0600 (Central Standard Time),583380.8999999985,A,wi,O,i,190,1,1382.6000000014901,581998.299999997,7061,WL,B,5.0
4,11.829999923706055,learn,48170.000076293945,Fri Feb 14 2025 15:14:58 GMT-0600 (Central Standard Time),584230.6999999955,A,w,O,backspace,838,1,2232.39999999851,581998.299999997,7061,WL,B,5.0
4,12.013000011444092,learn,47986.99998855591,Fri Feb 14 2025 15:14:58 GMT-0600 (Central Standard Time),584414.0,A,,O,backspace,172,1,2415.7000000029802,581998.299999997,7061,WL,B,5.0
4,12.829999923706055,learn,47170.000076293945,Fri Feb 14 2025 15:14:58 GMT-0600 (Central Standard Time),585230.299999997,A,s,O,s,805,1,3232.0,581998.299999997,7061,WL,B,5.0
4,13.296000003814697,learn,46703.9999961853,Fri Feb 14 2025 15:14:58 GMT-0600 (Central Standard Time),585696.799999997,A,st,O,t,445,1,3698.5,581998.299999997,7061,WL,B,5.0
4,13.513000011444092,learn,46486.99998855591,Fri Feb 14 2025 15:14:58 GMT-0600 (Central Standard Time),585913.3999999985,A,str,O,r,194,1,3915.10000000149,581998.299999997,7061,WL,B,5.0
4,13.86299991607666,learn,46137.00008392334,Fri Feb 14 2025 15:14:58 GMT-0600 (Central Standard Time),586263.5,A,st,O,backspace,338,1,4265.20000000298,581998.299999997,7061,WL,B,5.0
4,14.11299991607666,learn,45887.00008392334,Fri Feb 14 2025 15:14:58 GMT-0600 (Central Standard Time),586513.099999994,A,sta,O,a,227,1,4514.79999999702,581998.299999997,7061,WL,B,5.0
4,14.296000003814697,learn,45703.9999961853,Fri Feb 14 2025 15:14:58 GMT-0600 (Central Standard Time),586696.6999999955,A,stat,O,t,161,1,4698.39999999851,581998.299999997,7061,WL,B,5.0
4,14.792999982833862,learn,45207.00001716614,Fri Feb 14 2025 15:14:58 GMT-0600 (Central Standard Time),587193.8999999985,A,sta,O,backspace,490,1,5195.60000000149,581998.299999997,7061,WL,B,5.0
4,14.940999984741211,learn,45059.00001525879,Fri Feb 14 2025 15:14:58 GMT-0600 (Central Standard Time),587341.099999994,A,star,O,r,140,1,5342.79999999702,581998.299999997,7061,WL,B,5.0
4,16.02900004386902,learn,43970.99995613098,Fri Feb 14 2025 15:14:58 GMT-0600 (Central Standard Time),588429.299999997,A,starenter,O,enter,1078,1,6431.0,581998.299999997,7061,WL,B,5.0
4,16.211999893188477,learn,43788.00010681152,Fri Feb 14 2025 15:14:58 GMT-0600 (Central Standard Time),588612.6999999955,A,w,O,w,166,1,183.10000000149012,588429.599999994,7061,WL,B,6.0
4,16.411999940872192,learn,43588.00005912781,Fri Feb 14 2025 15:14:58 GMT-0600 (Central Standard Time),588812.5,A,wi,O,i,182,1,382.90000000596046,588429.599999994,7061,WL,B,6.0
4,16.59500002861023,learn,43404.99997138977,Fri Feb 14 2025 15:14:58 GMT-0600 (Central Standard Time),588995.599999994,A,wik,O,k,175,1,566.0,588429.599999994,7061,WL,B,6.0
4,16.961999893188477,learn,43038.00010681152,Fri Feb 14 2025 15:14:58 GMT-0600 (Central Standard Time),589362.299999997,A,wi,O,backspace,359,1,932.7000000029802,588429.599999994,7061,WL,B,6.0
4,17.111999988555908,learn,42888.00001144409,Fri Feb 14 2025 15:14:58 GMT-0600 (Central Standard Time),589512.1999999955,A,w,O,backspace,137,1,1082.6000000014901,588429.599999994,7061,WL,B,6.0
4,17.17899990081787,learn,42821.00009918213,Fri Feb 14 2025 15:14:58 GMT-0600 (Central Standard Time),589579.1999999955,A,wf,O,f,50,1,1149.6000000014901,588429.599999994,7061,WL,B,6.0
4,17.394999980926514,learn,42605.000019073486,Fri Feb 14 2025 15:14:58 GMT-0600 (Central Standard Time),589795.3999999985,A,wfe,O,e,207,1,1365.8000000044703,588429.599999994,7061,WL,B,6.0
4,17.878000020980835,learn,42121.999979019165,Fri Feb 14 2025 15:14:58 GMT-0600 (Central Standard Time),590278.799999997,A,wf,O,backspace,464,1,1849.2000000029802,588429.599999994,7061,WL,B,6.0
4,18.028000116348267,learn,41971.99988365173,Fri Feb 14 2025 15:14:58 GMT-0600 (Central Standard Time),590428.5,A,w,O,backspace,140,1,1998.9000000059605,588429.599999994,7061,WL,B,6.0
4,18.67799997329712,learn,41322.00002670288,Fri Feb 14 2025 15:14:58 GMT-0600 (Central Standard Time),591078.299999997,A,wi,O,i,638,1,2648.7000000029802,588429.599999994,7061,WL,B,6.0
4,18.977999925613403,learn,41022.0000743866,Fri Feb 14 2025 15:14:58 GMT-0600 (Central Standard Time),591378.299999997,A,wif,O,f,277,1,2948.7000000029802,588429.599999994,7061,WL,B,6.0
4,19.278000116348267,learn,40721.99988365173,Fri Feb 14 2025 15:14:58 GMT-0600 (Central Standard Time),591678.299999997,A,wife,O,e,280,1,3248.7000000029802,588429.599999994,7061,WL,B,6.0
4,19.66100001335144,learn,40338.99998664856,Fri Feb 14 2025 15:14:58 GMT-0600 (Central Standard Time),592061.5,A,wifeenter,O,enter,372,1,3631.9000000059605,588429.599999994,7061,WL,B,6.0
4,20.276999950408936,learn,39723.000049591064,Fri Feb 14 2025 15:14:58 GMT-0600 (Central Standard Time),592678.0,A,w,O,w,598,1,616.2000000029802,592061.799999997,7061,WL,B,7.0
4,20.460999965667725,learn,39539.000034332275,Fri Feb 14 2025 15:14:58 GMT-0600 (Central Standard Time),592861.299999997,A,wi,O,i,165,1,799.5,592061.799999997,7061,WL,B,7.0
4,20.64400005340576,learn,39355.99994659424,Fri Feb 14 2025 15:14:58 GMT-0600 (Central Standard Time),593044.6999999955,A,win,O,n,165,1,982.8999999985099,592061.799999997,7061,WL,B,7.0
4,21.32699990272522,learn,38673.00009727478,Fri Feb 14 2025 15:14:58 GMT-0600 (Central Standard Time),593727.6999999955,A,wind,O,d,662,1,1665.8999999985099,592061.799999997,7061,WL,B,7.0
4,21.72699999809265,learn,38273.00000190735,Fri Feb 14 2025 15:14:58 GMT-0600 (Central Standard Time),594127.5,A,windo,O,o,379,1,2065.7000000029802,592061.799999997,7061,WL,B,7.0
4,22.009999990463257,learn,37990.00000953674,Fri Feb 14 2025 15:14:58 GMT-0600 (Central Standard Time),594410.599999994,A,window,O,w,275,1,2348.7999999970198,592061.799999997,7061,WL,B,7.0
4,23.27500009536743,learn,36724.99990463257,Fri Feb 14 2025 15:14:58 GMT-0600 (Central Standard Time),595677.1999999955,A,windowenter,O,enter,1255,1,3615.39999999851,592061.799999997,7061,WL,B,7.0
4,25.44099998474121,learn,34559.00001525879,Fri Feb 14 2025 15:14:58 GMT-0600 (Central Standard Time),597843.0,A,c,O,c,2150,1,2165.5,595677.5,7061,WL,B,8.0
4,25.674000024795532,learn,34325.99997520447,Fri Feb 14 2025 15:14:58 GMT-0600 (Central Standard Time),598076.299999997,A,ci,O,i,224,1,2398.7999999970198,595677.5,7061,WL,B,8.0
4,25.891000032424927,learn,34108.99996757507,Fri Feb 14 2025 15:14:58 GMT-0600 (Central Standard Time),598293.099999994,A,cit,O,t,199,1,2615.5999999940395,595677.5,7061,WL,B,8.0
4,26.10800004005432,learn,33891.99995994568,Fri Feb 14 2025 15:14:58 GMT-0600 (Central Standard Time),598509.5,A,city,O,y,198,1,2832.0,595677.5,7061,WL,B,8.0
4,26.641000032424927,learn,33358.99996757507,Fri Feb 14 2025 15:14:58 GMT-0600 (Central Standard Time),599042.6999999955,A,cityenter,O,enter,517,1,3365.1999999955297,595677.5,7061,WL,B,8.0
4,27.306999921798706,learn,32693.000078201294,Fri Feb 14 2025 15:14:58 GMT-0600 (Central Standard Time),599709.099999994,A,p,O,p,656,1,666.1999999955297,599042.8999999985,7061,WL,B,9.0
4,27.490999937057495,learn,32509.000062942505,Fri Feb 14 2025 15:14:58 GMT-0600 (Central Standard Time),599892.299999997,A,pu,O,u,174,1,849.3999999985099,599042.8999999985,7061,WL,B,9.0
4,27.674000024795532,learn,32325.999975204468,Fri Feb 14 2025 15:14:58 GMT-0600 (Central Standard Time),600075.799999997,A,pup,O,p,175,1,1032.8999999985099,599042.8999999985,7061,WL,B,9.0
4,27.823999881744385,learn,32176.000118255615,Fri Feb 14 2025 15:14:58 GMT-0600 (Central Standard Time),600225.599999994,A,pupi,O,i,127,1,1182.6999999955297,599042.8999999985,7061,WL,B,9.0
4,28.0239999294281,learn,31976.0000705719,Fri Feb 14 2025 15:14:58 GMT-0600 (Central Standard Time),600425.6999999955,A,pupil,O,l,177,1,1382.7999999970198,599042.8999999985,7061,WL,B,9.0
4,28.2739999294281,learn,31726.0000705719,Fri Feb 14 2025 15:14:58 GMT-0600 (Central Standard Time),600675.599999994,A,pupilenter,O,enter,241,1,1632.6999999955297,599042.8999999985,7061,WL,B,9.0
4,29.08999991416931,learn,30910.00008583069,Fri Feb 14 2025 15:14:58 GMT-0600 (Central Standard Time),601491.5,A,c,O,c,806,1,815.5,600676.0,7061,WL,B,10.0
4,29.42300009727478,learn,30576.99990272522,Fri Feb 14 2025 15:14:58 GMT-0600 (Central Standard Time),601825.099999994,A,ca,O,a,311,1,1149.0999999940395,600676.0,7061,WL,B,10.0
4,29.60700011253357,learn,30392.99988746643,Fri Feb 14 2025 15:14:58 GMT-0600 (Central Standard Time),602008.3999999985,A,cab,O,b,162,1,1332.3999999985099,600676.0,7061,WL,B,10.0
4,29.707000017166138,learn,30292.999982833862,Fri Feb 14 2025 15:14:58 GMT-0600 (Central Standard Time),602108.3999999985,A,cabi,O,i,82,1,1432.3999999985099,600676.0,7061,WL,B,10.0
4,29.872999906539917,learn,30127.000093460083,Fri Feb 14 2025 15:14:58 GMT-0600 (Central Standard Time),602274.799999997,A,cabin,O,n,159,1,1598.7999999970198,600676.0,7061,WL,B,10.0
4,30.206000089645386,learn,29793.999910354614,Fri Feb 14 2025 15:14:58 GMT-0600 (Central Standard Time),602608.099999994,A,cabinenter,O,enter,320,1,1932.0999999940395,600676.0,7061,WL,B,10.0
4,32.5220000743866,learn,27477.999925613403,Fri Feb 14 2025 15:14:58 GMT-0600 (Central Standard Time),604924.1999999955,A,p,O,p,2298,1,2315.6999999955297,602608.5,7061,WL,B,11.0
4,32.68899989128113,learn,27311.000108718872,Fri Feb 14 2025 15:14:58 GMT-0600 (Central Standard Time),605090.799999997,A,pi,O,i,151,1,2482.2999999970198,602608.5,7061,WL,B,11.0
4,32.871999979019165,learn,27128.000020980835,Fri Feb 14 2025 15:14:58 GMT-0600 (Central Standard Time),605274.0,A,pip,O,p,160,1,2665.5,602608.5,7061,WL,B,11.0
4,33.42199993133545,learn,26578.00006866455,Fri Feb 14 2025 15:14:58 GMT-0600 (Central Standard Time),605823.8999999985,A,pipe,O,e,537,1,3215.39999999851,602608.5,7061,WL,B,11.0
4,33.67199993133545,learn,26328.00006866455,Fri Feb 14 2025 15:14:58 GMT-0600 (Central Standard Time),606073.6999999955,A,pipeenter,O,enter,235,1,3465.1999999955297,602608.5,7061,WL,B,11.0
4,35.954999923706055,learn,24045.000076293945,Fri Feb 14 2025 15:14:58 GMT-0600 (Central Standard Time),608356.5,A,s,O,s,2273,1,2282.4000000059605,606074.099999994,7061,WL,B,12.0
4,36.07100009918213,learn,23928.99990081787,Fri Feb 14 2025 15:14:58 GMT-0600 (Central Standard Time),608473.099999994,A,sk,O,k,102,1,2399.0,606074.099999994,7061,WL,B,12.0
4,36.25399994850159,learn,23746.000051498413,Fri Feb 14 2025 15:14:58 GMT-0600 (Central Standard Time),608656.1999999955,A,ski,O,i,170,1,2582.10000000149,606074.099999994,7061,WL,B,12.0
4,36.40400004386902,learn,23595.99995613098,Fri Feb 14 2025 15:14:58 GMT-0600 (Central Standard Time),608806.1999999955,A,skin,O,n,138,1,2732.10000000149,606074.099999994,7061,WL,B,12.0
4,38.019999980926514,learn,21980.000019073486,Fri Feb 14 2025 15:14:58 GMT-0600 (Central Standard Time),610422.1999999955,A,skinenter,O,enter,1605,1,4348.10000000149,606074.099999994,7061,WL,B,12.0
4,41.88599991798401,learn,18114.00008201599,Fri Feb 14 2025 15:14:58 GMT-0600 (Central Standard Time),614287.8999999985,A,f,O,f,3844,1,3865.3000000044703,610422.599999994,7061,WL,B,13.0
4,42.1029999256134,learn,17897.000074386597,Fri Feb 14 2025 15:14:58 GMT-0600 (Central Standard Time),614504.3999999985,A,fi,O,i,202,1,4081.8000000044703,610422.599999994,7061,WL,B,13.0
4,42.30299997329712,learn,17697.00002670288,Fri Feb 14 2025 15:14:58 GMT-0600 (Central Standard Time),614704.299999997,A,fir,O,r,178,1,4281.70000000298,610422.599999994,7061,WL,B,13.0
4,42.503000020980835,learn,17496.999979019165,Fri Feb 14 2025 15:14:58 GMT-0600 (Central Standard Time),614904.3999999985,A,fire,O,e,178,1,4481.80000000447,610422.599999994,7061,WL,B,13.0
4,42.736000061035156,learn,17263.999938964844,Fri Feb 14 2025 15:14:58 GMT-0600 (Central Standard Time),615137.6999999955,A,fireenter,O,enter,211,1,4715.10000000149,610422.599999994,7061,WL,B,13.0
4,43.734999895095825,learn,16265.000104904175,Fri Feb 14 2025 15:14:58 GMT-0600 (Central Standard Time),616137.299999997,A,c,O,c,985,1,999.2999999970198,615138.0,7061,WL,B,14.0
4,43.88499999046326,learn,16115.000009536743,Fri Feb 14 2025 15:14:58 GMT-0600 (Central Standard Time),616287.0,A,cl,O,l,137,1,1149.0,615138.0,7061,WL,B,14.0
4,44.08500003814697,learn,15914.999961853027,Fri Feb 14 2025 15:14:58 GMT-0600 (Central Standard Time),616487.099999994,A,clo,O,o,180,1,1349.0999999940395,615138.0,7061,WL,B,14.0
4,44.20199990272522,learn,15798.00009727478,Fri Feb 14 2025 15:14:58 GMT-0600 (Central Standard Time),616603.8999999985,A,cloc,O,c,100,1,1465.8999999985099,615138.0,7061,WL,B,14.0
4,44.30200004577637,learn,15697.999954223633,Fri Feb 14 2025 15:14:58 GMT-0600 (Central Standard Time),616703.799999997,A,clock,O,k,87,1,1565.7999999970198,615138.0,7061,WL,B,14.0
4,45.151999950408936,learn,14848.000049591064,Fri Feb 14 2025 15:14:58 GMT-0600 (Central Standard Time),617553.599999994,A,clockenter,O,enter,835,1,2415.5999999940395,615138.0,7061,WL,B,14.0
4,54.09999990463257,learn,5900.000095367432,Fri Feb 14 2025 15:14:58 GMT-0600 (Central Standard Time),626501.8999999985,A,l,O,l,8938,1,8948.10000000149,617553.799999997,7061,WL,B,15.0
4,54.6489999294281,learn,5351.000070571899,Fri Feb 14 2025 15:14:58 GMT-0600 (Central Standard Time),627050.6999999955,A,la,O,a,525,1,9496.89999999851,617553.799999997,7061,WL,B,15.0
4,54.83200001716614,learn,5167.999982833862,Fri Feb 14 2025 15:14:58 GMT-0600 (Central Standard Time),627233.8999999985,A,lak,O,k,160,1,9680.10000000149,617553.799999997,7061,WL,B,15.0
4,55.015000104904175,learn,4984.999895095825,Fri Feb 14 2025 15:14:58 GMT-0600 (Central Standard Time),627417.099999994,A,lake,O,e,169,1,9863.29999999702,617553.799999997,7061,WL,B,15.0
4,55.21499991416931,learn,4785.0000858306885,Fri Feb 14 2025 15:14:58 GMT-0600 (Central Standard Time),627616.8999999985,A,lakeenter,O,enter,178,1,10063.10000000149,617553.799999997,7061,WL,B,15.0
5,1.3829998970031738,learn,60000.0,Fri Feb 14 2025 15:14:58 GMT-0600 (Central Standard Time),706009.299999997,A,s,O,s,1369,1,1382.7999999970198,704626.5,7061,WL,B,1.0
5,1.6329998970031738,learn,60000.0,Fri Feb 14 2025 15:14:58 GMT-0600 (Central Standard Time),706259.1999999955,A,st,O,t,233,1,1632.6999999955297,704626.5,7061,WL,B,1.0
5,1.8829998970031738,learn,60000.0,Fri Feb 14 2025 15:14:58 GMT-0600 (Central Standard Time),706509.0,A,str,O,r,232,1,1882.5,704626.5,7061,WL,B,1.0
5,2.315999984741211,learn,60000.0,Fri Feb 14 2025 15:14:58 GMT-0600 (Central Standard Time),706942.1999999955,A,stre,O,e,422,1,2315.6999999955297,704626.5,7061,WL,B,1.0
5,2.615999937057495,learn,60000.0,Fri Feb 14 2025 15:14:58 GMT-0600 (Central Standard Time),707242.1999999955,A,stret,O,t,284,1,2615.6999999955297,704626.5,7061,WL,B,1.0
5,3.315999984741211,learn,60000.0,Fri Feb 14 2025 15:14:58 GMT-0600 (Central Standard Time),707941.799999997,A,stre,O,backspace,689,1,3315.2999999970198,704626.5,7061,WL,B,1.0
5,3.9159998893737793,learn,60000.0,Fri Feb 14 2025 15:14:58 GMT-0600 (Central Standard Time),708541.799999997,A,stree,O,e,581,1,3915.2999999970198,704626.5,7061,WL,B,1.0
5,4.115999937057495,learn,60000.0,Fri Feb 14 2025 15:14:58 GMT-0600 (Central Standard Time),708741.799999997,A,street,O,t,181,1,4115.29999999702,704626.5,7061,WL,B,1.0
5,5.514999866485596,learn,60000.0,Fri Feb 14 2025 15:14:58 GMT-0600 (Central Standard Time),710140.8999999985,A,streetenter,O,enter,1388,1,5514.39999999851,704626.5,7061,WL,B,1.0
5,5.830999851226807,learn,60000.0,Fri Feb 14 2025 15:14:58 GMT-0600 (Central Standard Time),710457.299999997,A,g,O,g,301,1,316.20000000298023,710141.099999994,7061,WL,B,2.0
5,6.080999851226807,learn,60000.0,Fri Feb 14 2025 15:14:58 GMT-0600 (Central Standard Time),710707.1999999955,A,gr,O,r,240,1,566.1000000014901,710141.099999994,7061,WL,B,2.0
5,6.247999906539917,learn,60000.0,Fri Feb 14 2025 15:14:58 GMT-0600 (Central Standard Time),710874.099999994,A,gra,O,a,160,1,733.0,710141.099999994,7061,WL,B,2.0
5,6.514999866485596,learn,60000.0,Fri Feb 14 2025 15:14:58 GMT-0600 (Central Standard Time),711140.5,A,gras,O,s,257,1,999.4000000059605,710141.099999994,7061,WL,B,2.0
5,6.7149999141693115,learn,60000.0,Fri Feb 14 2025 15:14:58 GMT-0600 (Central Standard Time),711340.5,A,grass,O,s,181,1,1199.4000000059605,710141.099999994,7061,WL,B,2.0
5,7.414000034332275,learn,60000.0,Fri Feb 14 2025 15:14:58 GMT-0600 (Central Standard Time),712040.1999999955,A,grassenter,O,enter,677,1,1899.1000000014901,710141.099999994,7061,WL,B,2.0
5,9.646999835968018,learn,60000.0,Fri Feb 14 2025 15:14:58 GMT-0600 (Central Standard Time),714272.8999999985,A,d,O,d,2218,1,2232.5,712040.3999999985,7061,WL,B,3.0
5,9.863999843597412,learn,60000.0,Fri Feb 14 2025 15:14:58 GMT-0600 (Central Standard Time),714489.6999999955,A,do,O,o,209,1,2449.2999999970198,712040.3999999985,7061,WL,B,3.0
5,10.02999997138977,learn,60000.0,Fri Feb 14 2025 15:14:58 GMT-0600 (Central Standard Time),714656.0,A,doo,O,o,152,1,2615.60000000149,712040.3999999985,7061,WL,B,3.0
5,10.29699993133545,learn,60000.0,Fri Feb 14 2025 15:14:58 GMT-0600 (Central Standard Time),714922.599999994,A,door,O,r,258,1,2882.1999999955297,712040.3999999985,7061,WL,B,3.0
5,10.828999996185303,learn,60000.0,Fri Feb 14 2025 15:14:58 GMT-0600 (Central Standard Time),715456.1999999955,A,doorenter,O,enter,520,1,3415.7999999970198,712040.3999999985,7061,WL,B,3.0
5,11.078999996185303,learn,60000.0,Fri Feb 14 2025 15:14:58 GMT-0600 (Central Standard Time),715706.3999999985,A,a,O,a,243,1,249.89999999850988,715456.5,7061,WL,B,4.0
5,11.361999988555908,learn,60000.0,Fri Feb 14 2025 15:14:58 GMT-0600 (Central Standard Time),715989.299999997,A,ar,O,r,265,1,532.7999999970198,715456.5,7061,WL,B,4.0
5,11.562000036239624,learn,60000.0,Fri Feb 14 2025 15:14:58 GMT-0600 (Central Standard Time),716189.299999997,A,arm,O,m,181,1,732.7999999970198,715456.5,7061,WL,B,4.0
5,11.878999948501587,learn,60000.0,Fri Feb 14 2025 15:14:58 GMT-0600 (Central Standard Time),716506.099999994,A,armenter,O,enter,310,1,1049.5999999940395,715456.5,7061,WL,B,4.0
5,12.529000043869019,learn,60000.0,Fri Feb 14 2025 15:14:58 GMT-0600 (Central Standard Time),717155.799999997,A,s,O,s,633,1,649.5,716506.299999997,7061,WL,B,5.0
5,12.777999877929688,learn,60000.0,Fri Feb 14 2025 15:14:58 GMT-0600 (Central Standard Time),717405.5,A,st,O,t,239,1,899.2000000029802,716506.299999997,7061,WL,B,5.0
5,13.09500002861023,learn,60000.0,Fri Feb 14 2025 15:14:58 GMT-0600 (Central Standard Time),717722.0,A,sta,O,a,302,1,1215.7000000029802,716506.299999997,7061,WL,B,5.0
5,13.42799997329712,learn,60000.0,Fri Feb 14 2025 15:14:58 GMT-0600 (Central Standard Time),718055.299999997,A,star,O,r,313,1,1549.0,716506.299999997,7061,WL,B,5.0
5,14.67799997329712,learn,60000.0,Fri Feb 14 2025 15:14:58 GMT-0600 (Central Standard Time),719305.0,A,starenter,O,enter,1235,1,2798.7000000029802,716506.299999997,7061,WL,B,5.0
5,16.16100001335144,learn,60000.0,Fri Feb 14 2025 15:14:58 GMT-0600 (Central Standard Time),720788.0,A,w,O,w,1475,1,1482.7000000029802,719305.299999997,7061,WL,B,6.0
5,16.293999910354614,learn,60000.0,Fri Feb 14 2025 15:14:58 GMT-0600 (Central Standard Time),720921.0,A,wi,O,i,112,1,1615.7000000029802,719305.299999997,7061,WL,B,6.0
5,16.49399995803833,learn,60000.0,Fri Feb 14 2025 15:14:58 GMT-0600 (Central Standard Time),721121.3999999985,A,win,O,n,186,1,1816.1000000014901,719305.299999997,7061,WL,B,6.0
5,16.710000038146973,learn,60000.0,Fri Feb 14 2025 15:14:58 GMT-0600 (Central Standard Time),721337.599999994,A,wind,O,d,193,1,2032.2999999970198,719305.299999997,7061,WL,B,6.0
5,16.927000045776367,learn,60000.0,Fri Feb 14 2025 15:14:58 GMT-0600 (Central Standard Time),721554.299999997,A,windo,O,o,201,1,2249.0,719305.299999997,7061,WL,B,6.0
5,17.259999990463257,learn,60000.0,Fri Feb 14 2025 15:14:58 GMT-0600 (Central Standard Time),721887.099999994,A,window,O,w,312,1,2581.7999999970198,719305.299999997,7061,WL,B,6.0
5,20.092999935150146,learn,60000.0,Fri Feb 14 2025 15:14:58 GMT-0600 (Central Standard Time),724720.0,A,windowenter,O,enter,2811,1,5414.70000000298,719305.299999997,7061,WL,B,6.0
5,21.425999879837036,learn,60000.0,Fri Feb 14 2025 15:14:58 GMT-0600 (Central Standard Time),726052.8999999985,A,c,O,c,1315,1,1332.6000000014901,724720.299999997,7061,WL,B,7.0
5,21.658999919891357,learn,60000.0,Fri Feb 14 2025 15:14:58 GMT-0600 (Central Standard Time),726286.0,A,ci,O,i,221,1,1565.7000000029802,724720.299999997,7061,WL,B,7.0
5,21.908999919891357,learn,60000.0,Fri Feb 14 2025 15:14:58 GMT-0600 (Central Standard Time),726535.8999999985,A,cit,O,t,236,1,1815.6000000014901,724720.299999997,7061,WL,B,7.0
5,22.158999919891357,learn,60000.0,Fri Feb 14 2025 15:14:58 GMT-0600 (Central Standard Time),726786.299999997,A,city,O,y,227,1,2066.0,724720.299999997,7061,WL,B,7.0
5,23.54200005531311,learn,60000.0,Fri Feb 14 2025 15:14:58 GMT-0600 (Central Standard Time),728169.0,A,cityenter,O,enter,1369,1,3448.7000000029802,724720.299999997,7061,WL,B,7.0
5,25.157999992370605,learn,60000.0,Fri Feb 14 2025 15:14:58 GMT-0600 (Central Standard Time),729785.299999997,A,p,O,p,1602,1,1615.8999999985099,728169.3999999985,7061,WL,B,8.0
5,25.375,learn,60000.0,Fri Feb 14 2025 15:14:58 GMT-0600 (Central Standard Time),730001.6999999955,A,pu,O,u,201,1,1832.2999999970198,728169.3999999985,7061,WL,B,8.0
5,25.573999881744385,learn,60000.0,Fri Feb 14 2025 15:14:58 GMT-0600 (Central Standard Time),730201.6999999955,A,pup,O,p,177,1,2032.2999999970198,728169.3999999985,7061,WL,B,8.0
5,25.723999977111816,learn,60000.0,Fri Feb 14 2025 15:14:58 GMT-0600 (Central Standard Time),730351.599999994,A,pupi,O,i,129,1,2182.1999999955297,728169.3999999985,7061,WL,B,8.0
5,25.924000024795532,learn,60000.0,Fri Feb 14 2025 15:14:58 GMT-0600 (Central Standard Time),730551.3999999985,A,pupil,O,l,180,1,2382.0,728169.3999999985,7061,WL,B,8.0
5,26.223999977111816,learn,60000.0,Fri Feb 14 2025 15:14:58 GMT-0600 (Central Standard Time),730851.3999999985,A,pupilenter,O,enter,284,1,2682.0,728169.3999999985,7061,WL,B,8.0
5,27.5239999294281,learn,60000.0,Fri Feb 14 2025 15:14:58 GMT-0600 (Central Standard Time),732150.8999999985,A,c,O,c,1287,1,1299.2000000029802,730851.6999999955,7061,WL,B,9.0
5,27.823999881744385,learn,60000.0,Fri Feb 14 2025 15:14:58 GMT-0600 (Central Standard Time),732451.0,A,ca,O,a,284,1,1599.3000000044703,730851.6999999955,7061,WL,B,9.0
5,27.957000017166138,learn,60000.0,Fri Feb 14 2025 15:14:58 GMT-0600 (Central Standard Time),732584.1999999955,A,cab,O,b,120,1,1732.5,730851.6999999955,7061,WL,B,9.0
5,28.039999961853027,learn,60000.0,Fri Feb 14 2025 15:14:58 GMT-0600 (Central Standard Time),732667.3999999985,A,cabi,O,i,74,1,1815.7000000029802,730851.6999999955,7061,WL,B,9.0
5,28.240000009536743,learn,60000.0,Fri Feb 14 2025 15:14:58 GMT-0600 (Central Standard Time),732867.3999999985,A,cabin,O,n,183,1,2015.7000000029802,730851.6999999955,7061,WL,B,9.0
5,28.60699987411499,learn,60000.0,Fri Feb 14 2025 15:14:58 GMT-0600 (Central Standard Time),733234.099999994,A,cabinenter,O,enter,351,1,2382.39999999851,730851.6999999955,7061,WL,B,9.0
5,30.405999898910522,learn,60000.0,Fri Feb 14 2025 15:14:58 GMT-0600 (Central Standard Time),735033.3999999985,A,l,O,l,1785,1,1799.1000000014901,733234.299999997,7061,WL,B,10.0
5,30.58999991416931,learn,60000.0,Fri Feb 14 2025 15:14:58 GMT-0600 (Central Standard Time),735216.799999997,A,la,O,a,161,1,1982.5,733234.299999997,7061,WL,B,10.0
5,30.740000009536743,learn,60000.0,Fri Feb 14 2025 15:14:58 GMT-0600 (Central Standard Time),735366.799999997,A,lak,O,k,138,1,2132.5,733234.299999997,7061,WL,B,10.0
5,30.973000049591064,learn,60000.0,Fri Feb 14 2025 15:14:58 GMT-0600 (Central Standard Time),735599.8999999985,A,lake,O,e,212,1,2365.60000000149,733234.299999997,7061,WL,B,10.0
5,31.473000049591064,learn,60000.0,Fri Feb 14 2025 15:14:58 GMT-0600 (Central Standard Time),736099.799999997,A,lakeenter,O,enter,491,1,2865.5,733234.299999997,7061,WL,B,10.0
5,31.83899998664856,learn,60000.0,Fri Feb 14 2025 15:14:58 GMT-0600 (Central Standard Time),736466.299999997,A,p,O,p,344,1,366.1000000014901,736100.1999999955,7061,WL,B,11.0
5,32.00600004196167,learn,60000.0,Fri Feb 14 2025 15:14:58 GMT-0600 (Central Standard Time),736632.8999999985,A,pi,O,i,152,1,532.7000000029802,736100.1999999955,7061,WL,B,11.0
5,32.17199993133545,learn,60000.0,Fri Feb 14 2025 15:14:58 GMT-0600 (Central Standard Time),736799.599999994,A,pip,O,p,146,1,699.3999999985099,736100.1999999955,7061,WL,B,11.0
5,32.40599989891052,learn,60000.0,Fri Feb 14 2025 15:14:58 GMT-0600 (Central Standard Time),737033.099999994,A,pipe,O,e,211,1,932.8999999985099,736100.1999999955,7061,WL,B,11.0
5,32.704999923706055,learn,60000.0,Fri Feb 14 2025 15:14:58 GMT-0600 (Central Standard Time),737332.6999999955,A,pipeenter,O,enter,282,1,1232.5,736100.1999999955,7061,WL,B,11.0
5,35.037999868392944,learn,60000.0,Fri Feb 14 2025 15:14:58 GMT-0600 (Central Standard Time),739665.3999999985,A,s,O,s,2310,1,2332.39999999851,737333.0,7061,WL,B,12.0
5,35.187999963760376,learn,60000.0,Fri Feb 14 2025 15:14:58 GMT-0600 (Central Standard Time),739815.1999999955,A,sk,O,k,130,1,2482.1999999955297,737333.0,7061,WL,B,12.0
5,35.371999979019165,learn,60000.0,Fri Feb 14 2025 15:14:58 GMT-0600 (Central Standard Time),739998.6999999955,A,ski,O,i,163,1,2665.6999999955297,737333.0,7061,WL,B,12.0
5,35.520999908447266,learn,60000.0,Fri Feb 14 2025 15:14:58 GMT-0600 (Central Standard Time),740148.5,A,skin,O,n,132,1,2815.5,737333.0,7061,WL,B,12.0
5,35.90400004386902,learn,60000.0,Fri Feb 14 2025 15:14:58 GMT-0600 (Central Standard Time),740531.6999999955,A,skinenter,O,enter,374,1,3198.6999999955297,737333.0,7061,WL,B,12.0
5,37.37100005149841,learn,60000.0,Fri Feb 14 2025 15:14:58 GMT-0600 (Central Standard Time),741997.8999999985,A,f,O,f,1455,1,1465.8999999985099,740532.0,7061,WL,B,13.0
5,37.50399994850159,learn,60000.0,Fri Feb 14 2025 15:14:58 GMT-0600 (Central Standard Time),742131.099999994,A,fi,O,i,117,1,1599.0999999940395,740532.0,7061,WL,B,13.0
5,37.6710000038147,learn,60000.0,Fri Feb 14 2025 15:14:58 GMT-0600 (Central Standard Time),742297.799999997,A,fir,O,r,151,1,1765.7999999970198,740532.0,7061,WL,B,13.0
5,38.103999853134155,learn,60000.0,Fri Feb 14 2025 15:14:58 GMT-0600 (Central Standard Time),742730.8999999985,A,fire,O,e,425,1,2198.89999999851,740532.0,7061,WL,B,13.0
5,38.669999837875366,learn,60000.0,Fri Feb 14 2025 15:14:58 GMT-0600 (Central Standard Time),743297.3999999985,A,fireenter,O,enter,552,1,2765.39999999851,740532.0,7061,WL,B,13.0
5,39.72000002861023,learn,60000.0,Fri Feb 14 2025 15:14:58 GMT-0600 (Central Standard Time),744347.3999999985,A,c,O,c,1034,1,1049.6000000014901,743297.799999997,7061,WL,B,14.0
5,39.88699984550476,learn,60000.0,Fri Feb 14 2025 15:14:58 GMT-0600 (Central Standard Time),744513.6999999955,A,cl,O,l,144,1,1215.8999999985099,743297.799999997,7061,WL,B,14.0
5,40.103999853134155,learn,60000.0,Fri Feb 14 2025 15:14:58 GMT-0600 (Central Standard Time),744730.6999999955,A,clo,O,o,201,1,1432.8999999985099,743297.799999997,7061,WL,B,14.0
5,40.28699994087219,learn,60000.0,Fri Feb 14 2025 15:14:58 GMT-0600 (Central Standard Time),744913.799999997,A,cloc,O,c,160,1,1616.0,743297.799999997,7061,WL,B,14.0
5,40.419999837875366,learn,60000.0,Fri Feb 14 2025 15:14:58 GMT-0600 (Central Standard Time),745047.099999994,A,clock,O,k,121,1,1749.2999999970198,743297.799999997,7061,WL,B,14.0
5,40.736000061035156,learn,60000.0,Fri Feb 14 2025 15:14:58 GMT-0600 (Central Standard Time),745363.1999999955,A,clockenter,O,enter,308,1,2065.39999999851,743297.799999997,7061,WL,B,14.0
5,41.76900005340576,learn,60000.0,Fri Feb 14 2025 15:14:58 GMT-0600 (Central Standard Time),746396.599999994,A,w,O,w,1016,1,1033.0999999940395,745363.5,7061,WL,B,15.0
5,41.93599987030029,learn,60000.0,Fri Feb 14 2025 15:14:58 GMT-0600 (Central Standard Time),746562.8999999985,A,wi,O,i,158,1,1199.3999999985099,745363.5,7061,WL,B,15.0
5,42.4689998626709,learn,60000.0,Fri Feb 14 2025 15:14:58 GMT-0600 (Central Standard Time),747096.1999999955,A,wif,O,f,519,1,1732.6999999955297,745363.5,7061,WL,B,15.0
5,42.7189998626709,learn,60000.0,Fri Feb 14 2025 15:14:58 GMT-0600 (Central Standard Time),747346.3999999985,A,wife,O,e,235,1,1982.8999999985099,745363.5,7061,WL,B,15.0
5,43.918999910354614,learn,60000.0,Fri Feb 14 2025 15:14:58 GMT-0600 (Central Standard Time),748546.0,A,wifeenter,O,enter,1176,1,3182.5,745363.5,7061,WL,B,15.0
6,1.8819999694824219,distr,58118.00003051758,Fri Feb 14 2025 15:14:58 GMT-0600 (Central Standard Time),838534.5,B,b,O,b,1863,1,1881.9000000059605,836652.599999994,7061,WL,B,1.0
6,2.0490000247955322,distr,57950.99997520447,Fri Feb 14 2025 15:14:58 GMT-0600 (Central Standard Time),838701.1999999955,B,ba,O,a,148,1,2048.60000000149,836652.599999994,7061,WL,B,1.0
6,2.181999921798706,distr,57818.000078201294,Fri Feb 14 2025 15:14:58 GMT-0600 (Central Standard Time),838834.099999994,B,bab,O,b,110,1,2181.5,836652.599999994,7061,WL,B,1.0
6,3.5810000896453857,distr,56418.999910354614,Fri Feb 14 2025 15:14:58 GMT-0600 (Central Standard Time),840233.599999994,B,baby,O,y,1376,1,3581.0,836652.599999994,7061,WL,B,1.0
6,5.281000137329102,distr,54718.9998626709,Fri Feb 14 2025 15:14:58 GMT-0600 (Central Standard Time),841933.1999999955,B,babyenter,O,enter,1682,1,5280.60000000149,836652.599999994,7061,WL,B,1.0
6,7.296999931335449,distr,52703.00006866455,Fri Feb 14 2025 15:14:58 GMT-0600 (Central Standard Time),843949.1999999955,B,o,O,o,2006,1,2015.6999999955297,841933.5,7061,WL,B,2.0
6,7.496999979019165,distr,52503.000020980835,Fri Feb 14 2025 15:14:58 GMT-0600 (Central Standard Time),844149.099999994,B,oc,O,c,182,1,2215.5999999940395,841933.5,7061,WL,B,2.0
6,7.8470001220703125,distr,52152.99987792969,Fri Feb 14 2025 15:14:58 GMT-0600 (Central Standard Time),844498.799999997,B,oce,O,e,342,1,2565.2999999970198,841933.5,7061,WL,B,2.0
6,8.130000114440918,distr,51869.99988555908,Fri Feb 14 2025 15:14:58 GMT-0600 (Central Standard Time),844782.3999999985,B,ocea,O,a,264,1,2848.89999999851,841933.5,7061,WL,B,2.0
6,8.364000082015991,distr,51635.99991798401,Fri Feb 14 2025 15:14:58 GMT-0600 (Central Standard Time),845015.6999999955,B,ocean,O,n,212,1,3082.1999999955297,841933.5,7061,WL,B,2.0
6,9.733000040054321,distr,50266.99995994568,Fri Feb 14 2025 15:14:58 GMT-0600 (Central Standard Time),846385.0,B,oceanenter,O,enter,1355,1,4451.5,841933.5,7061,WL,B,2.0
6,10.345999956130981,distr,49654.00004386902,Fri Feb 14 2025 15:14:58 GMT-0600 (Central Standard Time),846998.299999997,B,p,O,p,594,1,613.1000000014901,846385.1999999955,7061,WL,B,3.0
6,10.562999963760376,distr,49437.000036239624,Fri Feb 14 2025 15:14:58 GMT-0600 (Central Standard Time),847214.799999997,B,pa,O,a,196,1,829.6000000014901,846385.1999999955,7061,WL,B,3.0
6,10.86299991607666,distr,49137.00008392334,Fri Feb 14 2025 15:14:58 GMT-0600 (Central Standard Time),847515.0,B,pal,O,l,284,1,1129.8000000044703,846385.1999999955,7061,WL,B,3.0
6,11.062999963760376,distr,48937.000036239624,Fri Feb 14 2025 15:14:58 GMT-0600 (Central Standard Time),847714.8999999985,B,pala,O,a,184,1,1329.7000000029802,846385.1999999955,7061,WL,B,3.0
6,11.812000036239624,distr,48187.999963760376,Fri Feb 14 2025 15:14:58 GMT-0600 (Central Standard Time),848464.599999994,B,palac,O,c,728,1,2079.39999999851,846385.1999999955,7061,WL,B,3.0
6,12.628999948501587,distr,47371.00005149841,Fri Feb 14 2025 15:14:58 GMT-0600 (Central Standard Time),849281.0,B,palace,O,e,794,1,2895.8000000044703,846385.1999999955,7061,WL,B,3.0
6,13.278000116348267,distr,46721.99988365173,Fri Feb 14 2025 15:14:58 GMT-0600 (Central Standard Time),849930.5,B,palaceenter,O,enter,641,1,3545.3000000044703,846385.1999999955,7061,WL,B,3.0
6,13.611999988555908,distr,46388.00001144409,Fri Feb 14 2025 15:14:58 GMT-0600 (Central Standard Time),850264.099999994,B,l,O,l,320,1,333.29999999701977,849930.799999997,7061,WL,B,4.0
6,13.894999980926514,distr,46105.000019073486,Fri Feb 14 2025 15:14:58 GMT-0600 (Central Standard Time),850547.299999997,B,li,O,i,267,1,616.5,849930.799999997,7061,WL,B,4.0
6,14.128999948501587,distr,45871.00005149841,Fri Feb 14 2025 15:14:58 GMT-0600 (Central Standard Time),850780.6999999955,B,lip,O,p,223,1,849.8999999985099,849930.799999997,7061,WL,B,4.0
6,16.528000116348267,distr,43471.99988365173,Fri Feb 14 2025 15:14:58 GMT-0600 (Central Standard Time),853179.799999997,B,lipenter,O,enter,2382,1,3249.0,849930.799999997,7061,WL,B,4.0
6,17.710999965667725,distr,42289.000034332275,Fri Feb 14 2025 15:14:58 GMT-0600 (Central Standard Time),854362.799999997,B,b,O,b,1168,1,1182.7000000029802,853180.099999994,7061,WL,B,5.0
6,17.89400005340576,distr,42105.99994659424,Fri Feb 14 2025 15:14:58 GMT-0600 (Central Standard Time),854545.8999999985,B,ba,O,a,168,1,1365.8000000044703,853180.099999994,7061,WL,B,5.0
6,18.144999980926514,distr,41855.000019073486,Fri Feb 14 2025 15:14:58 GMT-0600 (Central Standard Time),854797.099999994,B,bar,O,r,241,1,1617.0,853180.099999994,7061,WL,B,5.0
6,18.41000008583069,distr,41589.99991416931,Fri Feb 14 2025 15:14:58 GMT-0600 (Central Standard Time),855062.5,B,barenter,O,enter,245,1,1882.4000000059605,853180.099999994,7061,WL,B,5.0
6,19.043999910354614,distr,40956.000089645386,Fri Feb 14 2025 15:14:58 GMT-0600 (Central Standard Time),855695.799999997,B,d,O,d,621,1,633.0,855062.799999997,7061,WL,B,6.0
6,19.276999950408936,distr,40723.000049591064,Fri Feb 14 2025 15:14:58 GMT-0600 (Central Standard Time),855928.8999999985,B,dr,O,r,219,1,866.1000000014901,855062.799999997,7061,WL,B,6.0
6,20.009999990463257,distr,39990.00000953674,Fri Feb 14 2025 15:14:58 GMT-0600 (Central Standard Time),856662.299999997,B,dre,O,e,714,1,1599.5,855062.799999997,7061,WL,B,6.0
6,20.276000022888184,distr,39723.99997711182,Fri Feb 14 2025 15:14:58 GMT-0600 (Central Standard Time),856928.5,B,dres,O,s,244,1,1865.7000000029802,855062.799999997,7061,WL,B,6.0
6,20.493000030517578,distr,39506.99996948242,Fri Feb 14 2025 15:14:58 GMT-0600 (Central Standard Time),857145.0,B,dress,O,s,194,1,2082.2000000029802,855062.799999997,7061,WL,B,6.0
6,21.677000045776367,distr,38322.99995422363,Fri Feb 14 2025 15:14:58 GMT-0600 (Central Standard Time),858329.3999999985,B,dressenter,O,enter,1169,1,3266.60000000149,855062.799999997,7061,WL,B,6.0
6,23.276000022888184,distr,36723.99997711182,Fri Feb 14 2025 15:14:58 GMT-0600 (Central Standard Time),859927.799999997,B,c,O,c,1585,1,1598.0,858329.799999997,7061,WL,B,7.0
6,23.492000102996826,distr,36507.999897003174,Fri Feb 14 2025 15:14:58 GMT-0600 (Central Standard Time),860144.1999999955,B,co,O,o,195,1,1814.3999999985099,858329.799999997,7061,WL,B,7.0
6,23.54200005531311,distr,36457.99994468689,Fri Feb 14 2025 15:14:58 GMT-0600 (Central Standard Time),860194.1999999955,B,coi,O,i,34,1,1864.3999999985099,858329.799999997,7061,WL,B,7.0
6,23.877000093460083,distr,36122.99990653992,Fri Feb 14 2025 15:14:58 GMT-0600 (Central Standard Time),860528.6999999955,B,coin,O,n,313,1,2198.89999999851,858329.799999997,7061,WL,B,7.0
6,24.992000102996826,distr,35007.999897003174,Fri Feb 14 2025 15:14:58 GMT-0600 (Central Standard Time),861643.799999997,B,coinenter,O,enter,1098,1,3314.0,858329.799999997,7061,WL,B,7.0
6,25.29200005531311,distr,34707.99994468689,Fri Feb 14 2025 15:14:58 GMT-0600 (Central Standard Time),861943.799999997,B,s,O,s,287,1,299.6000000014901,861644.1999999955,7061,WL,B,8.0
6,25.52500009536743,distr,34474.99990463257,Fri Feb 14 2025 15:14:58 GMT-0600 (Central Standard Time),862177.0,B,st,O,t,211,1,532.8000000044703,861644.1999999955,7061,WL,B,8.0
6,25.758000135421753,distr,34241.99986457825,Fri Feb 14 2025 15:14:58 GMT-0600 (Central Standard Time),862410.1999999955,B,ste,O,e,209,1,766.0,861644.1999999955,7061,WL,B,8.0
6,25.924999952316284,distr,34075.000047683716,Fri Feb 14 2025 15:14:58 GMT-0600 (Central Standard Time),862576.799999997,B,stea,O,a,144,1,932.6000000014901,861644.1999999955,7061,WL,B,8.0
6,26.240999937057495,distr,33759.000062942505,Fri Feb 14 2025 15:14:58 GMT-0600 (Central Standard Time),862893.3999999985,B,steam,O,m,306,1,1249.2000000029802,861644.1999999955,7061,WL,B,8.0
6,26.60800004005432,distr,33391.99995994568,Fri Feb 14 2025 15:14:58 GMT-0600 (Central Standard Time),863259.8999999985,B,steamenter,O,enter,349,1,1615.7000000029802,861644.1999999955,7061,WL,B,8.0
6,27.556999921798706,distr,32443.000078201294,Fri Feb 14 2025 15:14:58 GMT-0600 (Central Standard Time),864209.599999994,B,a,O,a,927,1,949.5,863260.099999994,7061,WL,B,9.0
6,27.924000024795532,distr,32075.999975204468,Fri Feb 14 2025 15:14:58 GMT-0600 (Central Standard Time),864576.3999999985,B,ar,O,r,353,1,1316.3000000044703,863260.099999994,7061,WL,B,9.0
6,28.04100012779236,distr,31958.99987220764,Fri Feb 14 2025 15:14:58 GMT-0600 (Central Standard Time),864692.799999997,B,arm,O,m,98,1,1432.7000000029802,863260.099999994,7061,WL,B,9.0
6,29.174000024795532,distr,30825.999975204468,Fri Feb 14 2025 15:14:58 GMT-0600 (Central Standard Time),865826.099999994,B,army,O,y,1126,1,2566.0,863260.099999994,7061,WL,B,9.0
6,30.805999994277954,distr,29194.000005722046,Fri Feb 14 2025 15:14:58 GMT-0600 (Central Standard Time),867458.5,B,armyenter,O,enter,1625,1,4198.4000000059605,863260.099999994,7061,WL,B,9.0
6,31.60599994659424,distr,28394.00005340576,Fri Feb 14 2025 15:14:58 GMT-0600 (Central Standard Time),868258.3999999985,B,b,O,b,777,1,799.7000000029802,867458.6999999955,7061,WL,B,10.0
6,31.822999954223633,distr,28177.000045776367,Fri Feb 14 2025 15:14:58 GMT-0600 (Central Standard Time),868474.799999997,B,bu,O,u,208,1,1016.1000000014901,867458.6999999955,7061,WL,B,10.0
6,32.02300000190735,distr,27976.99999809265,Fri Feb 14 2025 15:14:58 GMT-0600 (Central Standard Time),868675.099999994,B,buu,O,u,186,1,1216.3999999985099,867458.6999999955,7061,WL,B,10.0
6,32.555999994277954,distr,27444.000005722046,Fri Feb 14 2025 15:14:58 GMT-0600 (Central Standard Time),869208.099999994,B,bu,O,backspace,512,1,1749.3999999985099,867458.6999999955,7061,WL,B,10.0
6,33.18300008773804,distr,26816.999912261963,Fri Feb 14 2025 15:14:58 GMT-0600 (Central Standard Time),869835.099999994,B,bui,O,i,603,1,2376.39999999851,867458.6999999955,7061,WL,B,10.0
6,33.33899998664856,distr,26661.00001335144,Fri Feb 14 2025 15:14:58 GMT-0600 (Central Standard Time),869991.1999999955,B,buil,O,l,144,1,2532.5,867458.6999999955,7061,WL,B,10.0
6,33.47200012207031,distr,26527.999877929688,Fri Feb 14 2025 15:14:58 GMT-0600 (Central Standard Time),870124.3999999985,B,build,O,d,123,1,2665.7000000029802,867458.6999999955,7061,WL,B,10.0
6,33.60599994659424,distr,26394.00005340576,Fri Feb 14 2025 15:14:58 GMT-0600 (Central Standard Time),870257.799999997,B,buildi,O,i,118,1,2799.10000000149,867458.6999999955,7061,WL,B,10.0
6,33.72200012207031,distr,26277.999877929688,Fri Feb 14 2025 15:14:58 GMT-0600 (Central Standard Time),870374.0,B,buildin,O,n,105,1,2915.3000000044703,867458.6999999955,7061,WL,B,10.0
6,33.855000019073486,distr,26144.999980926514,Fri Feb 14 2025 15:14:58 GMT-0600 (Central Standard Time),870507.599999994,B,building,O,g,126,1,3048.89999999851,867458.6999999955,7061,WL,B,10.0
6,34.83800005912781,distr,25161.999940872192,Fri Feb 14 2025 15:14:58 GMT-0600 (Central Standard Time),871490.599999994,B,buildingenter,O,enter,976,1,4031.89999999851,867458.6999999955,7061,WL,B,10.0
6,38.354000091552734,distr,21645.999908447266,Fri Feb 14 2025 15:14:58 GMT-0600 (Central Standard Time),875006.1999999955,B,f,O,f,3496,1,3515.2999999970198,871490.8999999985,7061,WL,B,11.0
6,38.587000131607056,distr,21412.999868392944,Fri Feb 14 2025 15:14:58 GMT-0600 (Central Standard Time),875239.5,B,fr,O,r,213,1,3748.60000000149,871490.8999999985,7061,WL,B,11.0
6,38.78699994087219,distr,21213.000059127808,Fri Feb 14 2025 15:14:58 GMT-0600 (Central Standard Time),875439.5,B,fri,O,i,179,1,3948.60000000149,871490.8999999985,7061,WL,B,11.0
6,38.88700008392334,distr,21112.99991607666,Fri Feb 14 2025 15:14:58 GMT-0600 (Central Standard Time),875539.299999997,B,frie,O,e,83,1,4048.39999999851,871490.8999999985,7061,WL,B,11.0
6,39.00399994850159,distr,20996.000051498413,Fri Feb 14 2025 15:14:58 GMT-0600 (Central Standard Time),875656.099999994,B,frien,O,n,103,1,4165.19999999553,871490.8999999985,7061,WL,B,11.0
6,39.53699994087219,distr,20463.000059127808,Fri Feb 14 2025 15:14:58 GMT-0600 (Central Standard Time),876189.3999999985,B,friend,O,d,515,1,4698.5,871490.8999999985,7061,WL,B,11.0
6,39.87000012397766,distr,20129.99987602234,Fri Feb 14 2025 15:14:58 GMT-0600 (Central Standard Time),876522.5,B,friendenter,O,enter,309,1,5031.60000000149,871490.8999999985,7061,WL,B,11.0
6,47.08500003814697,distr,12914.999961853027,Fri Feb 14 2025 15:14:58 GMT-0600 (Central Standard Time),883737.0,B,v,O,v,7192,1,7214.10000000149,876522.8999999985,7061,WL,B,12.0
6,47.25099992752075,distr,12749.000072479248,Fri Feb 14 2025 15:14:58 GMT-0600 (Central Standard Time),883903.5,B,vi,O,i,153,1,7380.60000000149,876522.8999999985,7061,WL,B,12.0
6,47.46799993515015,distr,12532.000064849854,Fri Feb 14 2025 15:14:58 GMT-0600 (Central Standard Time),884120.299999997,B,vil,O,l,203,1,7597.39999999851,876522.8999999985,7061,WL,B,12.0
6,47.6010000705719,distr,12398.9999294281,Fri Feb 14 2025 15:14:58 GMT-0600 (Central Standard Time),884253.3999999985,B,vill,O,l,115,1,7730.5,876522.8999999985,7061,WL,B,12.0
6,47.75099992752075,distr,12249.000072479248,Fri Feb 14 2025 15:14:58 GMT-0600 (Central Standard Time),884402.8999999985,B,villa,O,a,134,1,7880.0,876522.8999999985,7061,WL,B,12.0
6,47.93400001525879,distr,12065.999984741211,Fri Feb 14 2025 15:14:58 GMT-0600 (Central Standard Time),884586.5,B,villag,O,g,169,1,8063.60000000149,876522.8999999985,7061,WL,B,12.0
6,48.20099997520447,distr,11799.000024795532,Fri Feb 14 2025 15:14:58 GMT-0600 (Central Standard Time),884853.099999994,B,village,O,e,248,1,8330.19999999553,876522.8999999985,7061,WL,B,12.0
6,48.634000062942505,distr,11365.999937057495,Fri Feb 14 2025 15:14:58 GMT-0600 (Central Standard Time),885286.299999997,B,villageenter,O,enter,414,1,8763.39999999851,876522.8999999985,7061,WL,B,12.0
6,51.282999992370605,distr,8717.000007629395,Fri Feb 14 2025 15:14:58 GMT-0600 (Central Standard Time),887935.599999994,B,c,O,c,2629,1,2648.89999999851,885286.6999999955,7061,WL,B,13.0
6,51.58299994468689,distr,8417.00005531311,Fri Feb 14 2025 15:14:58 GMT-0600 (Central Standard Time),888235.5,B,ce,O,e,284,1,2948.8000000044703,885286.6999999955,7061,WL,B,13.0
6,51.76600003242493,distr,8233.999967575073,Fri Feb 14 2025 15:14:58 GMT-0600 (Central Standard Time),888418.3999999985,B,cel,O,l,167,1,3131.7000000029802,885286.6999999955,7061,WL,B,13.0
6,51.91700005531311,distr,8082.99994468689,Fri Feb 14 2025 15:14:58 GMT-0600 (Central Standard Time),888568.799999997,B,cell,O,l,137,1,3282.10000000149,885286.6999999955,7061,WL,B,13.0
6,52.93300008773804,distr,7066.999912261963,Fri Feb 14 2025 15:14:58 GMT-0600 (Central Standard Time),889584.8999999985,B,cellenter,O,enter,994,1,4298.20000000298,885286.6999999955,7061,WL,B,13.0
6,58.36500000953674,distr,1634.9999904632568,Fri Feb 14 2025 15:14:58 GMT-0600 (Central Standard Time),895016.799999997,B,s,O,s,5418,1,5431.5,889585.299999997,7061,WL,B,14.0
6,59.331000089645386,distr,668.9999103546143,Fri Feb 14 2025 15:14:58 GMT-0600 (Central Standard Time),895983.0,B,st,O,t,945,1,6397.70000000298,889585.299999997,7061,WL,B,14.0
6,59.496999979019165,distr,503.00002098083496,Fri Feb 14 2025 15:14:58 GMT-0600 (Central Standard Time),896149.6999999955,B,sto,O,o,156,1,6564.39999999851,889585.299999997,7061,WL,B,14.0
6,59.63100004196167,distr,368.9999580383301,Fri Feb 14 2025 15:14:58 GMT-0600 (Central Standard Time),896282.8999999985,B,stor,O,r,117,1,6697.60000000149,889585.299999997,7061,WL,B,14.0
6,59.79699993133545,distr,203.00006866455078,Fri Feb 14 2025 15:14:58 GMT-0600 (Central Standard Time),896449.1999999955,B,storm,O,m,151,1,6863.89999999851,889585.299999997,7061,WL,B,14.0
6,60.013999938964844,distr,-13.99993896484375,Fri Feb 14 2025 15:14:58 GMT-0600 (Central Standard Time),896666.299999997,B,stormNone,O,None,210,1,7081.0,889585.299999997,7061,WL,B,14.0
7,3.498999834060669,immed,56501.00016593933,Fri Feb 14 2025 15:14:58 GMT-0600 (Central Standard Time),920775.1999999955,A,s,O,s,3479,1,3498.6999999955297,917276.5,7061,WL,B,1.0
7,3.6989998817443848,immed,56301.000118255615,Fri Feb 14 2025 15:14:58 GMT-0600 (Central Standard Time),920975.1999999955,A,st,O,t,187,1,3698.6999999955297,917276.5,7061,WL,B,1.0
7,3.931999921798706,immed,56068.000078201294,Fri Feb 14 2025 15:14:58 GMT-0600 (Central Standard Time),921208.299999997,A,str,O,r,220,1,3931.7999999970198,917276.5,7061,WL,B,1.0
7,4.164999961853027,immed,55835.00003814697,Fri Feb 14 2025 15:14:58 GMT-0600 (Central Standard Time),921441.8999999985,A,stre,O,e,218,1,4165.39999999851,917276.5,7061,WL,B,1.0
7,4.2829999923706055,immed,55717.000007629395,Fri Feb 14 2025 15:14:58 GMT-0600 (Central Standard Time),921559.1999999955,A,stree,O,e,105,1,4282.69999999553,917276.5,7061,WL,B,1.0
7,4.431999921798706,immed,55568.000078201294,Fri Feb 14 2025 15:14:58 GMT-0600 (Central Standard Time),921708.299999997,A,street,O,t,132,1,4431.79999999702,917276.5,7061,WL,B,1.0
7,5.315000057220459,immed,54684.99994277954,Fri Feb 14 2025 15:14:58 GMT-0600 (Central Standard Time),922590.8999999985,A,streetenter,O,enter,861,1,5314.39999999851,917276.5,7061,WL,B,1.0
7,5.48199987411499,immed,54518.00012588501,Fri Feb 14 2025 15:14:58 GMT-0600 (Central Standard Time),922758.099999994,A,g,O,g,148,1,167.0,922591.099999994,7061,WL,B,2.0
7,5.697999954223633,immed,54302.00004577637,Fri Feb 14 2025 15:14:58 GMT-0600 (Central Standard Time),922974.6999999955,A,gr,O,r,205,1,383.6000000014901,922591.099999994,7061,WL,B,2.0
7,5.881999969482422,immed,54118.00003051758,Fri Feb 14 2025 15:14:58 GMT-0600 (Central Standard Time),923158.0,A,gra,O,a,164,1,566.9000000059605,922591.099999994,7061,WL,B,2.0
7,6.115000009536743,immed,53884.99999046326,Fri Feb 14 2025 15:14:58 GMT-0600 (Central Standard Time),923391.099999994,A,gras,O,s,213,1,800.0,922591.099999994,7061,WL,B,2.0
7,6.315000057220459,immed,53684.99994277954,Fri Feb 14 2025 15:14:58 GMT-0600 (Central Standard Time),923591.0,A,grass,O,s,180,1,999.9000000059605,922591.099999994,7061,WL,B,2.0
7,6.547999858856201,immed,53452.0001411438,Fri Feb 14 2025 15:14:58 GMT-0600 (Central Standard Time),923824.3999999985,A,grassenter,O,enter,212,1,1233.3000000044703,922591.099999994,7061,WL,B,2.0
7,8.88100004196167,immed,51118.99995803833,Fri Feb 14 2025 15:14:58 GMT-0600 (Central Standard Time),926156.8999999985,A,d,O,d,2315,1,2332.2000000029802,923824.6999999955,7061,WL,B,3.0
