Q,Q1,Q2,Q3,Q4,acc_sum,block,block_c,correct,correct_response,datetime,endtime,project,response,response_time,row_sel,session_number,squiggle1,squiggle1x,squiggle1y,squiggle2,squiggle2x,squiggle2y,squiggle3,squiggle3x,squiggle3y,squiggle4,squiggle4x,squiggle4y,start_end,starttime,subject_id,target_congruent,task,task_vers,testsquiggle,testsquigglex,testsquiggley,time_practice_delay,time_practice_fixation,time_practice_stimuli,time_practice_study,time_test_delay,time_test_fixation,time_test_stimuli,time_test_study,trial
1,1,0,0,0,1,prac,1,1,z,Wed Apr 02 2025 19:05:21 GMT-0500 (Central Daylight Time),174299.79999998212,O,z,1750,1,1,116.bmp,-120,-120,117.bmp,120,-120,118.bmp,-120,120,119.bmp,120,120,10581.699999988079,163718.09999999404,7116,yes,SM,A,116.bmp,-120,-120,160163,154131,162179,156149,,,,,1
3,0,0,1,0,1,prac,1,0,m,Wed Apr 02 2025 19:05:21 GMT-0500 (Central Daylight Time),184596.09999999404,O,z,1464,2,1,120.bmp,-120,-120,121.bmp,120,-120,122.bmp,-120,120,123.bmp,120,120,10278.700000017881,174317.39999997616,7116,no,SM,A,123.bmp,-120,120,170760,164730,172777,166745,,,,,2
4,0,0,0,1,1,prac,1,0,m,Wed Apr 02 2025 19:05:21 GMT-0500 (Central Daylight Time),195442.09999999404,O,None,2014,3,1,124.bmp,-120,-120,125.bmp,120,-120,126.bmp,-120,120,127.bmp,120,120,10830.200000017881,184611.89999997616,7116,no,SM,A,124.bmp,120,120,181055,175025,183074,177042,,,,,3
2,0,1,0,0,2,prac,1,1,z,Wed Apr 02 2025 19:05:21 GMT-0500 (Central Daylight Time),206072.29999998212,O,z,1793,4,1,128.bmp,-120,-120,129.bmp,120,-120,130.bmp,-120,120,131.bmp,120,120,10609.90000000596,195462.39999997616,7116,yes,SM,A,129.bmp,120,-120,191903,185875,193920,187889,,,,,4
3,0,0,1,0,3,prac,1,1,z,Wed Apr 02 2025 19:05:21 GMT-0500 (Central Daylight Time),216635.5,O,z,1730,5,1,132.bmp,-120,-120,133.bmp,120,-120,134.bmp,-120,120,135.bmp,120,120,10547.90000000596,206087.59999999404,7116,yes,SM,A,134.bmp,-120,120,202532,196501,204550,198518,,,,,5
1,1,0,0,0,3,prac,1,0,m,Wed Apr 02 2025 19:05:21 GMT-0500 (Central Daylight Time),227481.69999998808,O,None,2014,6,1,136.bmp,-120,-120,137.bmp,120,-120,138.bmp,-120,120,139.bmp,120,120,10832.0,216649.69999998808,7116,no,SM,A,139.bmp,-120,-120,213096,207063,215113,209081,,,,,6
2,0,1,0,0,4,prac,1,1,m,Wed Apr 02 2025 19:05:21 GMT-0500 (Central Daylight Time),237678.59999999404,O,m,1362,7,1,140.bmp,-120,-120,141.bmp,120,-120,142.bmp,-120,120,143.bmp,120,120,10182.0,227496.59999999404,7116,no,SM,A,140.bmp,120,-120,223942,217910,225959,219928,,,,,7
4,0,0,0,1,5,prac,1,1,z,Wed Apr 02 2025 19:05:21 GMT-0500 (Central Daylight Time),247958.59999999404,O,z,1462,8,1,144.bmp,-120,-120,145.bmp,120,-120,146.bmp,-120,120,147.bmp,120,120,10275.300000011921,237683.29999998212,7116,yes,SM,A,147.bmp,120,120,234121,228096,236139,230108,,,,,8
4,0,0,0,1,1,test,1,1,m,Wed Apr 02 2025 19:05:21 GMT-0500 (Central Daylight Time),279048.59999999404,O,m,1377,1,1,148.bmp,-120,-120,149.bmp,120,-120,150.bmp,-120,120,143.bmp,120,120,9418.300000011921,269630.2999999821,7116,no,SM,A,150.bmp,120,120,234121,228096,236139,230108,266061.0,260043.0,268079.0,262047.0,1
2,0,1,0,0,2,test,1,1,m,Wed Apr 02 2025 19:05:21 GMT-0500 (Central Daylight Time),288262.0,O,m,1164,2,1,101.bmp,-120,-120,102.bmp,120,-120,103.bmp,-120,120,104.bmp,120,120,9199.700000017881,279062.2999999821,7116,no,SM,A,103.bmp,120,-120,234121,228096,236139,230108,275492.0,269475.0,277509.0,271478.0,2
1,1,0,0,0,2,test,1,0,z,Wed Apr 02 2025 19:05:21 GMT-0500 (Central Daylight Time),298325.0,O,None,2014,3,1,105.bmp,-120,-120,106.bmp,120,-120,107.bmp,-120,120,108.bmp,120,120,10048.700000017881,288276.2999999821,7116,yes,SM,A,105.bmp,-120,-120,234121,228096,236139,230108,284705.0,278689.0,286723.0,280691.0,3
3,0,0,1,0,2,test,1,0,m,Wed Apr 02 2025 19:05:21 GMT-0500 (Central Daylight Time),307955.39999997616,O,z,1565,4,1,109.bmp,-120,-120,110.bmp,120,-120,111.bmp,-120,120,112.bmp,120,120,9616.299999982119,298339.09999999404,7116,no,SM,A,109.bmp,-120,120,234121,228096,236139,230108,294769.0,288752.0,296787.0,290755.0,4
2,0,1,0,0,2,test,1,0,z,Wed Apr 02 2025 19:05:21 GMT-0500 (Central Daylight Time),318018.7999999821,O,None,2015,5,1,113.bmp,-120,-120,114.bmp,120,-120,115.bmp,-120,120,116.bmp,120,120,10050.199999988079,307968.59999999404,7116,yes,SM,A,114.bmp,120,-120,234121,228096,236139,230108,304399.0,298381.0,306416.0,300385.0,5
3,0,0,1,0,3,test,1,1,z,Wed Apr 02 2025 19:05:21 GMT-0500 (Central Daylight Time),328032.09999999404,O,z,1944,6,1,117.bmp,-120,-120,118.bmp,120,-120,119.bmp,-120,120,120.bmp,120,120,9997.800000011921,318034.2999999821,7116,yes,SM,A,119.bmp,-120,120,234121,228096,236139,230108,314478.0,308448.0,316496.0,310465.0,6
4,0,0,0,1,3,test,1,0,z,Wed Apr 02 2025 19:05:21 GMT-0500 (Central Daylight Time),338095.59999999404,O,None,2014,7,1,121.bmp,-120,-120,122.bmp,120,-120,123.bmp,-120,120,124.bmp,120,120,10050.59999999404,328045.0,7116,yes,SM,A,124.bmp,120,120,234121,228096,236139,230108,324476.0,318458.0,326493.0,320461.0,7
2,0,1,0,0,4,test,1,1,m,Wed Apr 02 2025 19:05:21 GMT-0500 (Central Daylight Time),347942.39999997616,O,m,1788,8,1,125.bmp,-120,-120,126.bmp,120,-120,127.bmp,-120,120,128.bmp,120,120,9833.699999988079,338108.6999999881,7116,no,SM,A,125.bmp,120,-120,234121,228096,236139,230108,334539.0,328522.0,336556.0,330525.0,8
3,0,0,1,0,5,test,1,1,m,Wed Apr 02 2025 19:05:21 GMT-0500 (Central Daylight Time),357922.5,O,m,1926,9,1,129.bmp,-120,-120,130.bmp,120,-120,131.bmp,-120,120,132.bmp,120,120,9966.300000011921,347956.1999999881,7116,no,SM,A,130.bmp,-120,120,234121,228096,236139,230108,344386.0,338369.0,346403.0,340372.0,9
4,0,0,0,1,5,test,1,0,z,Wed Apr 02 2025 19:05:21 GMT-0500 (Central Daylight Time),368002.5,O,None,2014,10,1,137.bmp,-120,-120,138.bmp,120,-120,139.bmp,-120,120,140.bmp,120,120,10065.700000017881,357936.7999999821,7116,yes,SM,A,140.bmp,120,120,234121,228096,236139,230108,354384.0,348350.0,356400.0,350368.0,10
3,0,0,1,0,6,test,1,1,z,Wed Apr 02 2025 19:05:21 GMT-0500 (Central Daylight Time),377082.7999999821,O,z,1025,11,1,133.bmp,-120,-120,134.bmp,120,-120,135.bmp,-120,120,136.bmp,120,120,9066.299999982119,368016.5,7116,yes,SM,A,135.bmp,-120,120,234121,228096,236139,230108,364446.0,358429.0,366463.0,360432.0,11
2,0,1,0,0,7,test,1,1,m,Wed Apr 02 2025 19:05:21 GMT-0500 (Central Daylight Time),386513.09999999404,O,m,1377,12,1,141.bmp,-120,-120,142.bmp,120,-120,143.bmp,-120,120,144.bmp,120,120,9416.700000017881,377096.39999997616,7116,no,SM,A,141.bmp,120,-120,234121,228096,236139,230108,373526.0,367509.0,375544.0,369512.0,12
3,0,0,1,0,7,test,1,0,m,Wed Apr 02 2025 19:05:21 GMT-0500 (Central Daylight Time),396576.1999999881,O,None,2014,13,1,145.bmp,-120,-120,146.bmp,120,-120,147.bmp,-120,120,148.bmp,120,120,10049.300000011921,386526.89999997616,7116,no,SM,A,146.bmp,-120,120,234121,228096,236139,230108,382957.0,376940.0,384974.0,378943.0,13
1,1,0,0,0,8,test,1,1,z,Wed Apr 02 2025 19:05:21 GMT-0500 (Central Daylight Time),406106.39999997616,O,z,1476,14,1,149.bmp,-120,-120,150.bmp,120,-120,104.bmp,-120,120,101.bmp,120,120,9515.799999982119,396590.59999999404,7116,yes,SM,A,149.bmp,-120,-120,234121,228096,236139,230108,393020.0,387003.0,395037.0,389006.0,14
4,0,0,0,1,8,test,1,0,m,Wed Apr 02 2025 19:05:21 GMT-0500 (Central Daylight Time),416169.6999999881,O,None,2014,15,1,110.bmp,-120,-120,111.bmp,120,-120,112.bmp,-120,120,113.bmp,120,120,10049.09999999404,406120.59999999404,7116,no,SM,A,111.bmp,120,120,234121,228096,236139,230108,402550.0,396533.0,404568.0,398536.0,15
1,1,0,0,0,9,test,1,1,m,Wed Apr 02 2025 19:05:21 GMT-0500 (Central Daylight Time),425333.59999999404,O,m,1105,16,1,102.bmp,-120,-120,103.bmp,120,-120,104.bmp,-120,120,105.bmp,120,120,9150.40000000596,416183.1999999881,7116,no,SM,A,105.bmp,-120,-120,234121,228096,236139,230108,412614.0,406596.0,414631.0,408599.0,16
3,0,0,1,0,9,test,1,0,m,Wed Apr 02 2025 19:05:21 GMT-0500 (Central Daylight Time),434564.0,O,z,1174,17,1,122.bmp,-120,-120,123.bmp,120,-120,124.bmp,-120,120,125.bmp,120,120,9216.800000011921,425347.1999999881,7116,no,SM,A,122.bmp,-120,120,234121,228096,236139,230108,421777.0,415760.0,423795.0,417763.0,17
1,1,0,0,0,10,test,1,1,z,Wed Apr 02 2025 19:05:21 GMT-0500 (Central Daylight Time),444443.09999999404,O,z,1830,18,1,106.bmp,-120,-120,107.bmp,120,-120,108.bmp,-120,120,109.bmp,120,120,9865.700000017881,434577.39999997616,7116,yes,SM,A,106.bmp,-120,-120,234121,228096,236139,230108,431006.0,424990.0,433025.0,426993.0,18
2,0,1,0,0,10,test,1,0,z,Wed Apr 02 2025 19:05:21 GMT-0500 (Central Daylight Time),454190.5,O,m,1696,19,1,126.bmp,-120,-120,127.bmp,120,-120,128.bmp,-120,120,129.bmp,120,120,9743.0,444447.5,7116,yes,SM,A,127.bmp,120,-120,234121,228096,236139,230108,440888.0,434860.0,442905.0,436873.0,19
3,0,0,1,0,11,test,1,1,z,Wed Apr 02 2025 19:05:21 GMT-0500 (Central Daylight Time),463987.6999999881,O,z,1741,20,1,130.bmp,-120,-120,131.bmp,120,-120,132.bmp,-120,120,133.bmp,120,120,9784.40000000596,454203.2999999821,7116,yes,SM,A,132.bmp,-120,120,234121,228096,236139,230108,450634.0,444616.0,452652.0,446620.0,20
1,1,0,0,0,12,test,1,1,m,Wed Apr 02 2025 19:05:21 GMT-0500 (Central Daylight Time),473133.7999999821,O,m,1095,21,1,114.bmp,-120,-120,115.bmp,120,-120,116.bmp,-120,120,117.bmp,120,120,9133.59999999404,464000.1999999881,7116,no,SM,A,116.bmp,-120,-120,234121,228096,236139,230108,460431.0,454413.0,462448.0,456417.0,21
4,0,0,0,1,12,test,1,0,z,Wed Apr 02 2025 19:05:21 GMT-0500 (Central Daylight Time),483197.6999999881,O,None,2013,22,1,118.bmp,-120,-120,119.bmp,120,-120,120.bmp,-120,120,121.bmp,120,120,10058.90000000596,473138.7999999821,7116,yes,SM,A,121.bmp,120,120,234121,228096,236139,230108,469578.0,463551.0,471596.0,465562.0,22
1,1,0,0,0,13,test,1,1,m,Wed Apr 02 2025 19:05:21 GMT-0500 (Central Daylight Time),493011.39999997616,O,m,1758,23,1,134.bmp,-120,-120,135.bmp,120,-120,136.bmp,-120,120,137.bmp,120,120,9800.399999976158,483211.0,7116,no,SM,A,137.bmp,-120,-120,234121,228096,236139,230108,479642.0,473624.0,481659.0,475628.0,23
2,0,1,0,0,14,test,1,1,z,Wed Apr 02 2025 19:05:21 GMT-0500 (Central Daylight Time),502824.89999997616,O,z,1753,24,1,142.bmp,-120,-120,143.bmp,120,-120,144.bmp,-120,120,145.bmp,120,120,9800.899999976158,493024.0,7116,yes,SM,A,143.bmp,120,-120,234121,228096,236139,230108,489455.0,483437.0,491472.0,485441.0,24
4,0,0,0,1,15,test,1,1,m,Wed Apr 02 2025 19:05:21 GMT-0500 (Central Daylight Time),512788.09999999404,O,m,1898,25,1,146.bmp,-120,-120,147.bmp,120,-120,148.bmp,-120,120,149.bmp,120,120,9949.09999999404,502839.0,7116,no,SM,A,148.bmp,120,120,234121,228096,236139,230108,499268.0,493252.0,501286.0,495254.0,25
1,1,0,0,0,15,test,1,0,z,Wed Apr 02 2025 19:05:21 GMT-0500 (Central Daylight Time),522851.39999997616,O,None,2014,26,1,138.bmp,-120,-120,139.bmp,120,-120,140.bmp,-120,120,141.bmp,120,120,10049.399999976158,512802.0,7116,yes,SM,A,138.bmp,-120,-120,234121,228096,236139,230108,509232.0,503215.0,511249.0,505218.0,26
4,0,0,0,1,16,test,1,1,z,Wed Apr 02 2025 19:05:21 GMT-0500 (Central Daylight Time),532464.8999999762,O,z,1561,27,1,150.bmp,-120,-120,111.bmp,120,-120,101.bmp,-120,120,102.bmp,120,120,9599.899999976158,522865.0,7116,yes,SM,A,102.bmp,120,120,234121,228096,236139,230108,519295.0,513278.0,521312.0,515281.0,27
3,0,0,1,0,17,test,1,1,m,Wed Apr 02 2025 19:05:21 GMT-0500 (Central Daylight Time),541528.8999999762,O,m,1011,28,1,103.bmp,-120,-120,104.bmp,120,-120,105.bmp,-120,120,106.bmp,120,120,9050.699999988079,532478.1999999881,7116,no,SM,A,103.bmp,-120,120,234121,228096,236139,230108,528909.0,522891.0,530925.0,524893.0,28
2,0,1,0,0,17,test,1,0,z,Wed Apr 02 2025 19:05:21 GMT-0500 (Central Daylight Time),551259.0,O,m,1675,29,1,107.bmp,-120,-120,108.bmp,120,-120,109.bmp,-120,120,110.bmp,120,120,9717.100000023842,541541.8999999762,7116,yes,SM,A,108.bmp,120,-120,234121,228096,236139,230108,537973.0,531955.0,539989.0,533959.0,29
3,0,0,1,0,18,test,1,1,z,Wed Apr 02 2025 19:05:21 GMT-0500 (Central Daylight Time),560589.2999999821,O,z,1265,30,1,111.bmp,-120,-120,112.bmp,120,-120,113.bmp,-120,120,114.bmp,120,120,9316.699999988079,551272.599999994,7116,yes,SM,A,113.bmp,-120,120,234121,228096,236139,230108,547702.0,541685.0,549720.0,543690.0,30
1,1,0,0,0,18,test,1,0,z,Wed Apr 02 2025 19:05:21 GMT-0500 (Central Daylight Time),570319.3999999762,O,m,1671,31,1,115.bmp,-120,-120,116.bmp,120,-120,117.bmp,-120,120,118.bmp,120,120,9716.899999976158,560602.5,7116,yes,SM,A,115.bmp,-120,-120,234121,228096,236139,230108,557033.0,551015.0,559050.0,553018.0,31
2,0,1,0,0,19,test,1,1,m,Wed Apr 02 2025 19:05:21 GMT-0500 (Central Daylight Time),579733.6999999881,O,m,1365,32,1,119.bmp,-120,-120,120.bmp,120,-120,121.bmp,-120,120,122.bmp,120,120,9400.5,570333.1999999881,7116,no,SM,A,119.bmp,120,-120,234121,228096,236139,230108,566763.0,560746.0,568780.0,562748.0,32
4,0,0,0,1,20,test,1,1,z,Wed Apr 02 2025 19:05:21 GMT-0500 (Central Daylight Time),589646.099999994,O,z,1863,33,1,131.bmp,-120,-120,132.bmp,120,-120,133.bmp,-120,120,134.bmp,120,120,9899.700000017881,579746.3999999762,7116,yes,SM,A,134.bmp,120,120,234121,228096,236139,230108,576177.0,570159.0,578194.0,572162.0,33
2,0,1,0,0,20,test,1,0,z,Wed Apr 02 2025 19:05:21 GMT-0500 (Central Daylight Time),599059.5,O,m,1350,34,1,123.bmp,-120,-120,124.bmp,120,-120,125.bmp,-120,120,126.bmp,120,120,9400.700000017881,589658.7999999821,7116,yes,SM,A,124.bmp,120,-120,234121,228096,236139,230108,586090.0,580072.0,588107.0,582076.0,34
4,0,0,0,1,20,test,1,0,m,Wed Apr 02 2025 19:05:21 GMT-0500 (Central Daylight Time),609123.3999999762,O,None,2015,35,1,127.bmp,-120,-120,128.bmp,120,-120,129.bmp,-120,120,130.bmp,120,120,10052.59999999404,599070.7999999821,7116,no,SM,A,129.bmp,120,120,234121,228096,236139,230108,595504.0,589483.0,597520.0,591489.0,35
3,0,0,1,0,20,test,1,0,m,Wed Apr 02 2025 19:05:21 GMT-0500 (Central Daylight Time),618903.2999999821,O,z,1721,36,1,135.bmp,-120,-120,136.bmp,120,-120,137.bmp,-120,120,138.bmp,120,120,9766.699999988079,609136.599999994,7116,no,SM,A,135.bmp,-120,120,234121,228096,236139,230108,605567.0,599549.0,607584.0,601553.0,36
1,1,0,0,0,21,test,1,1,m,Wed Apr 02 2025 19:05:21 GMT-0500 (Central Daylight Time),628800.2999999821,O,m,1837,37,1,139.bmp,-120,-120,140.bmp,120,-120,141.bmp,-120,120,142.bmp,120,120,9884.09999999404,618916.1999999881,7116,no,SM,A,140.bmp,-120,-120,234121,228096,236139,230108,615347.0,609329.0,617364.0,611333.0,37
2,0,1,0,0,21,test,1,0,m,Wed Apr 02 2025 19:05:21 GMT-0500 (Central Daylight Time),638297.099999994,O,z,1444,38,1,143.bmp,-120,-120,144.bmp,120,-120,145.bmp,-120,120,146.bmp,120,120,9483.300000011921,628813.7999999821,7116,no,SM,A,145.bmp,120,-120,234121,228096,236139,230108,625244.0,619226.0,627261.0,621228.0,38
4,0,0,0,1,22,test,1,1,z,Wed Apr 02 2025 19:05:21 GMT-0500 (Central Daylight Time),648260.7999999821,O,z,1899,39,1,147.bmp,-120,-120,148.bmp,120,-120,149.bmp,-120,120,150.bmp,120,120,9949.299999982119,638311.5,7116,yes,SM,A,150.bmp,120,120,234121,228096,236139,230108,634740.0,628724.0,636758.0,630727.0,39
3,0,0,1,0,22,test,1,0,m,Wed Apr 02 2025 19:05:21 GMT-0500 (Central Daylight Time),657723.8999999762,O,z,1407,40,1,104.bmp,-120,-120,105.bmp,120,-120,106.bmp,-120,120,107.bmp,120,120,9449.5,648274.3999999762,7116,no,SM,A,105.bmp,-120,120,234121,228096,236139,230108,644704.0,638687.0,646721.0,640690.0,40
1,1,0,0,0,23,test,1,1,z,Wed Apr 02 2025 19:05:21 GMT-0500 (Central Daylight Time),667254.2999999821,O,z,1472,41,1,108.bmp,-120,-120,109.bmp,120,-120,110.bmp,-120,120,111.bmp,120,120,9516.90000000596,657737.3999999762,7116,yes,SM,A,108.bmp,-120,-120,234121,228096,236139,230108,654167.0,648150.0,656185.0,650153.0,41
4,0,0,0,1,24,test,1,1,z,Wed Apr 02 2025 19:05:21 GMT-0500 (Central Daylight Time),676851.2999999821,O,z,1542,42,1,112.bmp,-120,-120,113.bmp,120,-120,114.bmp,-120,120,115.bmp,120,120,9583.59999999404,667267.6999999881,7116,yes,SM,A,115.bmp,120,120,234121,228096,236139,230108,663697.0,657680.0,665715.0,659683.0,42
1,1,0,0,0,25,test,1,1,z,Wed Apr 02 2025 19:05:21 GMT-0500 (Central Daylight Time),686081.0,O,z,1177,43,1,116.bmp,-120,-120,117.bmp,120,-120,118.bmp,-120,120,119.bmp,120,120,9216.5,676864.5,7116,yes,SM,A,116.bmp,-120,-120,234121,228096,236139,230108,673294.0,667277.0,675312.0,669280.0,43
4,0,0,0,1,26,test,1,1,m,Wed Apr 02 2025 19:05:21 GMT-0500 (Central Daylight Time),695827.599999994,O,m,1690,44,1,104.bmp,-120,-120,101.bmp,120,-120,102.bmp,-120,120,103.bmp,120,120,9732.5,686095.099999994,7116,no,SM,A,104.bmp,120,120,234121,228096,236139,230108,682525.0,676508.0,684542.0,678511.0,44
1,1,0,0,0,27,test,1,1,m,Wed Apr 02 2025 19:05:21 GMT-0500 (Central Daylight Time),705508.3999999762,O,m,1616,45,1,128.bmp,-120,-120,129.bmp,120,-120,130.bmp,-120,120,131.bmp,120,120,9674.199999988079,695834.1999999881,7116,no,SM,A,131.bmp,-120,-120,234121,228096,236139,230108,692272.0,686247.0,694289.0,688257.0,45
1,1,0,0,0,27,test,1,0,m,Wed Apr 02 2025 19:05:21 GMT-0500 (Central Daylight Time),715571.6999999881,O,None,2014,46,1,120.bmp,-120,-120,121.bmp,120,-120,122.bmp,-120,120,123.bmp,120,120,10051.40000000596,705520.2999999821,7116,no,SM,A,121.bmp,-120,-120,234121,228096,236139,230108,701952.0,695933.0,703969.0,697937.0,46
3,0,0,1,0,27,test,1,0,z,Wed Apr 02 2025 19:05:21 GMT-0500 (Central Daylight Time),725286.0,O,m,1665,47,1,124.bmp,-120,-120,125.bmp,120,-120,126.bmp,-120,120,127.bmp,120,120,9702.200000017881,715583.7999999821,7116,yes,SM,A,126.bmp,-120,120,234121,228096,236139,230108,712014.0,705996.0,714032.0,708002.0,47
3,0,0,1,0,28,test,1,1,z,Wed Apr 02 2025 19:05:21 GMT-0500 (Central Daylight Time),734865.5,O,z,1519,48,1,140.bmp,-120,-120,141.bmp,120,-120,142.bmp,-120,120,143.bmp,120,120,9567.300000011921,725298.1999999881,7116,yes,SM,A,142.bmp,-120,120,234121,228096,236139,230108,721729.0,715711.0,723746.0,717715.0,48
2,0,1,0,0,28,test,1,0,z,Wed Apr 02 2025 19:05:21 GMT-0500 (Central Daylight Time),744928.5,O,None,2012,49,1,136.bmp,-120,-120,137.bmp,120,-120,138.bmp,-120,120,139.bmp,120,120,10049.800000011921,734878.6999999881,7116,yes,SM,A,137.bmp,120,-120,234121,228096,236139,230108,731308.0,725291.0,733328.0,727296.0,49
3,0,0,1,0,29,test,1,1,m,Wed Apr 02 2025 19:05:21 GMT-0500 (Central Daylight Time),754442.0,O,m,1460,50,1,132.bmp,-120,-120,133.bmp,120,-120,134.bmp,-120,120,135.bmp,120,120,9500.800000011921,744941.1999999881,7116,no,SM,A,132.bmp,-120,120,234121,228096,236139,230108,741372.0,735354.0,743389.0,737358.0,50
2,0,1,0,0,29,test,1,0,z,Wed Apr 02 2025 19:05:21 GMT-0500 (Central Daylight Time),764505.6999999881,O,None,2015,51,1,144.bmp,-120,-120,145.bmp,120,-120,146.bmp,-120,120,147.bmp,120,120,10050.59999999404,754455.099999994,7116,yes,SM,A,145.bmp,120,-120,234121,228096,236139,230108,750885.0,744868.0,752903.0,746871.0,51
4,0,0,0,1,30,test,1,1,m,Wed Apr 02 2025 19:05:21 GMT-0500 (Central Daylight Time),774052.1999999881,O,m,1481,52,1,148.bmp,-120,-120,149.bmp,120,-120,150.bmp,-120,120,131.bmp,120,120,9533.300000011921,764518.8999999762,7116,no,SM,A,148.bmp,120,120,234121,228096,236139,230108,760949.0,754932.0,762967.0,756935.0,52
3,0,0,1,0,30,test,1,0,z,Wed Apr 02 2025 19:05:21 GMT-0500 (Central Daylight Time),784116.0,O,None,2015,53,1,101.bmp,-120,-120,102.bmp,120,-120,103.bmp,-120,120,104.bmp,120,120,10055.5,774060.5,7116,yes,SM,A,103.bmp,-120,120,234121,228096,236139,230108,770496.0,764473.0,772513.0,766482.0,53
1,1,0,0,0,30,test,1,0,m,Wed Apr 02 2025 19:05:21 GMT-0500 (Central Daylight Time),794195.099999994,O,None,2014,54,1,105.bmp,-120,-120,106.bmp,120,-120,107.bmp,-120,120,108.bmp,120,120,10064.200000017881,784130.8999999762,7116,no,SM,A,107.bmp,-120,-120,234121,228096,236139,230108,780576.0,774544.0,782593.0,776562.0,54
4,0,0,0,1,31,test,1,1,z,Wed Apr 02 2025 19:05:21 GMT-0500 (Central Daylight Time),804059.3999999762,O,z,1808,55,1,109.bmp,-120,-120,110.bmp,120,-120,111.bmp,-120,120,112.bmp,120,120,9859.59999999404,794199.7999999821,7116,yes,SM,A,112.bmp,120,120,234121,228096,236139,230108,790640.0,784612.0,792657.0,786624.0,55
2,0,1,0,0,31,test,1,0,m,Wed Apr 02 2025 19:05:21 GMT-0500 (Central Daylight Time),813622.3999999762,O,z,1513,56,1,113.bmp,-120,-120,114.bmp,120,-120,115.bmp,-120,120,116.bmp,120,120,9549.5,804072.8999999762,7116,no,SM,A,113.bmp,120,-120,234121,228096,236139,230108,800503.0,794486.0,802520.0,796490.0,56
4,0,0,0,1,32,test,1,1,m,Wed Apr 02 2025 19:05:21 GMT-0500 (Central Daylight Time),823236.3999999762,O,m,1548,57,1,117.bmp,-120,-120,118.bmp,120,-120,119.bmp,-120,120,120.bmp,120,120,9601.09999999404,813635.2999999821,7116,no,SM,A,118.bmp,120,120,234121,228096,236139,230108,810066.0,804048.0,812084.0,806052.0,57
3,0,0,1,0,32,test,1,0,z,Wed Apr 02 2025 19:05:21 GMT-0500 (Central Daylight Time),833299.7999999821,O,None,2015,58,1,121.bmp,-120,-120,122.bmp,120,-120,123.bmp,-120,120,124.bmp,120,120,10051.199999988079,823248.599999994,7116,yes,SM,A,123.bmp,-120,120,234121,228096,236139,230108,819680.0,813661.0,821697.0,815666.0,58
2,0,1,0,0,32,test,1,0,m,Wed Apr 02 2025 19:05:21 GMT-0500 (Central Daylight Time),843146.099999994,O,z,1792,59,1,125.bmp,-120,-120,126.bmp,120,-120,127.bmp,-120,120,128.bmp,120,120,9834.300000011921,833311.7999999821,7116,no,SM,A,128.bmp,120,-120,234121,228096,236139,230108,829743.0,823725.0,831761.0,825729.0,59
1,1,0,0,0,33,test,1,1,z,Wed Apr 02 2025 19:05:21 GMT-0500 (Central Daylight Time),852510.1999999881,O,z,1315,60,1,129.bmp,-120,-120,130.bmp,120,-120,131.bmp,-120,120,132.bmp,120,120,9350.59999999404,843159.599999994,7116,yes,SM,A,129.bmp,-120,-120,234121,228096,236139,230108,839590.0,833572.0,841607.0,835576.0,60
2,0,1,0,0,34,test,1,1,z,Wed Apr 02 2025 19:05:21 GMT-0500 (Central Daylight Time),861740.1999999881,O,z,1174,61,1,133.bmp,-120,-120,134.bmp,120,-120,135.bmp,-120,120,136.bmp,120,120,9218.09999999404,852522.099999994,7116,yes,SM,A,134.bmp,120,-120,234121,228096,236139,230108,848954.0,842935.0,850971.0,844939.0,61
4,0,0,0,1,35,test,1,1,z,Wed Apr 02 2025 19:05:21 GMT-0500 (Central Daylight Time),871237.1999999881,O,z,1432,62,1,141.bmp,-120,-120,142.bmp,120,-120,143.bmp,-120,120,144.bmp,120,120,9484.699999988079,861752.5,7116,yes,SM,A,144.bmp,120,120,234121,228096,236139,230108,858184.0,852165.0,860201.0,854170.0,62
1,1,0,0,0,35,test,1,0,m,Wed Apr 02 2025 19:05:21 GMT-0500 (Central Daylight Time),881300.8999999762,O,None,2015,63,1,145.bmp,-120,-120,146.bmp,120,-120,147.bmp,-120,120,148.bmp,120,120,10051.5,871249.3999999762,7116,no,SM,A,145.bmp,-120,120,234121,228096,236139,230108,867680.0,861662.0,869698.0,863667.0,63
2,0,1,0,0,36,test,1,1,z,Wed Apr 02 2025 19:05:21 GMT-0500 (Central Daylight Time),890364.599999994,O,z,983,64,1,149.bmp,-120,-120,150.bmp,120,-120,112.bmp,-120,120,101.bmp,120,120,9049.800000011921,881314.7999999821,7116,yes,SM,A,150.bmp,120,-120,234121,228096,236139,230108,877761.0,871728.0,879778.0,873746.0,64
4,0,0,0,1,37,test,1,1,m,Wed Apr 02 2025 19:05:21 GMT-0500 (Central Daylight Time),899744.5,O,m,1320,65,1,102.bmp,-120,-120,103.bmp,120,-120,104.bmp,-120,120,105.bmp,120,120,9367.800000011921,890376.6999999881,7116,no,SM,A,104.bmp,120,120,234121,228096,236139,230108,886808.0,880789.0,888825.0,882794.0,65
3,0,0,1,0,38,test,1,1,m,Wed Apr 02 2025 19:05:21 GMT-0500 (Central Daylight Time),908875.0,O,m,1075,66,1,106.bmp,-120,-120,107.bmp,120,-120,108.bmp,-120,120,109.bmp,120,120,9118.700000017881,899756.2999999821,7116,no,SM,A,109.bmp,-120,120,234121,228096,236139,230108,896188.0,890169.0,898206.0,892174.0,66
2,0,1,0,0,39,test,1,1,m,Wed Apr 02 2025 19:05:21 GMT-0500 (Central Daylight Time),918188.6999999881,O,m,1249,67,1,137.bmp,-120,-120,138.bmp,120,-120,139.bmp,-120,120,140.bmp,120,120,9301.300000011921,908887.3999999762,7116,no,SM,A,139.bmp,120,-120,234121,228096,236139,230108,905319.0,899300.0,907336.0,901304.0,67
3,0,0,1,0,39,test,1,0,z,Wed Apr 02 2025 19:05:21 GMT-0500 (Central Daylight Time),928252.0,O,None,2014,68,1,110.bmp,-120,-120,111.bmp,120,-120,112.bmp,-120,120,113.bmp,120,120,10050.600000023842,918201.3999999762,7116,yes,SM,A,112.bmp,-120,120,234121,228096,236139,230108,914632.0,908614.0,916650.0,910618.0,68
1,1,0,0,0,40,test,1,1,m,Wed Apr 02 2025 19:05:21 GMT-0500 (Central Daylight Time),937782.099999994,O,m,1472,69,1,114.bmp,-120,-120,115.bmp,120,-120,116.bmp,-120,120,117.bmp,120,120,9515.700000017881,928266.3999999762,7116,no,SM,A,115.bmp,-120,-120,234121,228096,236139,230108,924695.0,918679.0,926713.0,920681.0,69
2,0,1,0,0,40,test,1,0,m,Wed Apr 02 2025 19:05:21 GMT-0500 (Central Daylight Time),947845.5,O,None,2014,70,1,118.bmp,-120,-120,119.bmp,120,-120,120.bmp,-120,120,121.bmp,120,120,10049.800000011921,937795.6999999881,7116,no,SM,A,120.bmp,120,-120,234121,228096,236139,230108,934225.0,928208.0,936243.0,930210.0,70
4,0,0,0,1,40,test,1,0,z,Wed Apr 02 2025 19:05:21 GMT-0500 (Central Daylight Time),957175.7999999821,O,m,1271,71,1,122.bmp,-120,-120,123.bmp,120,-120,124.bmp,-120,120,125.bmp,120,120,9318.199999988079,947857.599999994,7116,yes,SM,A,125.bmp,120,120,234121,228096,236139,230108,944289.0,938270.0,946306.0,940275.0,71
1,1,0,0,0,41,test,1,1,z,Wed Apr 02 2025 19:05:21 GMT-0500 (Central Daylight Time),967072.2999999821,O,z,1837,72,1,126.bmp,-120,-120,127.bmp,120,-120,128.bmp,-120,120,129.bmp,120,120,9884.299999982119,957188.0,7116,yes,SM,A,126.bmp,-120,-120,234121,228096,236139,230108,953619.0,947601.0,955636.0,949605.0,72
2,0,1,0,0,41,test,1,0,z,Wed Apr 02 2025 19:05:21 GMT-0500 (Central Daylight Time),977136.099999994,O,None,2017,73,1,130.bmp,-120,-120,131.bmp,120,-120,132.bmp,-120,120,133.bmp,120,120,10050.0,967086.099999994,7116,yes,SM,A,131.bmp,120,-120,234121,228096,236139,230108,963516.0,957499.0,965531.0,959502.0,73
4,0,0,0,1,42,test,1,1,m,Wed Apr 02 2025 19:05:21 GMT-0500 (Central Daylight Time),986199.599999994,O,m,1012,74,1,134.bmp,-120,-120,135.bmp,120,-120,136.bmp,-120,120,137.bmp,120,120,9050.90000000596,977148.6999999881,7116,no,SM,A,136.bmp,120,120,234121,228096,236139,230108,973580.0,967561.0,975597.0,969565.0,74
2,0,1,0,0,42,test,1,0,m,Wed Apr 02 2025 19:05:21 GMT-0500 (Central Daylight Time),995779.599999994,O,z,1523,75,1,138.bmp,-120,-120,139.bmp,120,-120,140.bmp,-120,120,141.bmp,120,120,9568.0,986211.599999994,7116,no,SM,A,141.bmp,120,-120,234121,228096,236139,230108,982643.0,976624.0,984662.0,978629.0,75
1,1,0,0,0,43,test,1,1,z,Wed Apr 02 2025 19:05:21 GMT-0500 (Central Daylight Time),1005126.7999999821,O,z,1288,76,1,142.bmp,-120,-120,143.bmp,120,-120,144.bmp,-120,120,145.bmp,120,120,9333.799999982119,995793.0,7116,yes,SM,A,142.bmp,-120,-120,234121,228096,236139,230108,992223.0,986206.0,994240.0,988209.0,76
3,0,0,1,0,44,test,1,1,z,Wed Apr 02 2025 19:05:21 GMT-0500 (Central Daylight Time),1014390.3999999762,O,z,1189,77,1,150.bmp,-120,-120,111.bmp,120,-120,101.bmp,-120,120,102.bmp,120,120,9248.699999988079,1005141.6999999881,7116,yes,SM,A,101.bmp,-120,120,234121,228096,236139,230108,1001587.0,995555.0,1003604.0,997572.0,77
1,1,0,0,0,45,test,1,1,m,Wed Apr 02 2025 19:05:21 GMT-0500 (Central Daylight Time),1024153.3999999762,O,m,1702,78,1,146.bmp,-120,-120,147.bmp,120,-120,148.bmp,-120,120,149.bmp,120,120,9750.09999999404,1014403.2999999821,7116,no,SM,A,147.bmp,-120,-120,234121,228096,236139,230108,1010834.0,1004816.0,1012851.0,1006820.0,78
4,0,0,0,1,46,test,1,1,m,Wed Apr 02 2025 19:05:21 GMT-0500 (Central Daylight Time),1033100.599999994,O,m,874,79,1,107.bmp,-120,-120,108.bmp,120,-120,109.bmp,-120,120,110.bmp,120,120,8918.800000011921,1024181.7999999821,7116,no,SM,A,107.bmp,120,120,234121,228096,236139,230108,1020614.0,1014595.0,1022631.0,1016599.0,79
3,0,0,1,0,46,test,1,0,m,Wed Apr 02 2025 19:05:21 GMT-0500 (Central Daylight Time),1043097.6999999881,O,z,1945,80,1,103.bmp,-120,-120,104.bmp,120,-120,105.bmp,-120,120,106.bmp,120,120,9983.199999988079,1033114.5,7116,no,SM,A,106.bmp,-120,120,234121,228096,236139,230108,1029544.0,1023527.0,1031560.0,1025530.0,80
