block_c,block_dur,condition,countdown,datetime,endtime,list,multichar_response,project,response,response_time,session_number,start_end,starttime,subject_id,task,task_vers,trial
,,,,Mon Mar 03 2025 14:05:31 GMT-0600 (Central Standard Time),,,,O,space,707,1,,,7075,WL,A,
prac,,0,,Mon Mar 03 2025 14:05:31 GMT-0600 (Central Standard Time),,NA,b,O,b,3677,1,,,7075,WL,A,1.0
prac,,0,,Mon Mar 03 2025 14:05:31 GMT-0600 (Central Standard Time),,NA,bo,O,o,636,1,,,7075,WL,A,1.0
prac,,0,,Mon Mar 03 2025 14:05:31 GMT-0600 (Central Standard Time),,NA,boo,O,o,169,1,,,7075,WL,A,1.0
prac,,0,,Mon Mar 03 2025 14:05:31 GMT-0600 (Central Standard Time),,NA,boos,O,s,261,1,,,7075,WL,A,1.0
prac,,0,,Mon Mar 03 2025 14:05:31 GMT-0600 (Central Standard Time),,NA,boost,O,t,230,1,,,7075,WL,A,1.0
prac,,0,,Mon Mar 03 2025 14:05:31 GMT-0600 (Central Standard Time),,NA,boostenter,O,enter,1995,1,,,7075,WL,A,1.0
1,1.4670000076293945,learn,58532.999992370605,Mon Mar 03 2025 14:05:31 GMT-0600 (Central Standard Time),133626.09999990463,A,b,O,b,1448,1,1466.2999999523163,132159.79999995232,7075,WL,A,1.0
1,2.0850000381469727,learn,57914.99996185303,Mon Mar 03 2025 14:05:31 GMT-0600 (Central Standard Time),134243.89999997616,A,bo,O,o,612,1,2084.100000023842,132159.79999995232,7075,WL,A,1.0
1,2.2680001258850098,learn,57731.99987411499,Mon Mar 03 2025 14:05:31 GMT-0600 (Central Standard Time),134427.29999995232,A,boo,O,o,165,1,2267.5,132159.79999995232,7075,WL,A,1.0
1,2.434000015258789,learn,57565.99998474121,Mon Mar 03 2025 14:05:31 GMT-0600 (Central Standard Time),134592.79999995232,A,book,O,k,142,1,2433.0,132159.79999995232,7075,WL,A,1.0
1,5.932000160217285,learn,54067.999839782715,Mon Mar 03 2025 14:05:31 GMT-0600 (Central Standard Time),138091.0,A,bookenter,O,enter,3491,1,5931.200000047684,132159.79999995232,7075,WL,A,1.0
1,7.301000118255615,learn,52698.999881744385,Mon Mar 03 2025 14:05:31 GMT-0600 (Central Standard Time),139460.29999995232,A,f,O,f,1346,1,1368.8999999761581,138091.39999997616,7075,WL,A,2.0
1,7.414000034332275,learn,52585.999965667725,Mon Mar 03 2025 14:05:31 GMT-0600 (Central Standard Time),139573.59999990463,A,fl,O,l,97,1,1482.1999999284744,138091.39999997616,7075,WL,A,2.0
1,7.697999954223633,learn,52302.00004577637,Mon Mar 03 2025 14:05:31 GMT-0600 (Central Standard Time),139857.0,A,flo,O,o,269,1,1765.6000000238419,138091.39999997616,7075,WL,A,2.0
1,7.815000057220459,learn,52184.99994277954,Mon Mar 03 2025 14:05:31 GMT-0600 (Central Standard Time),139974.19999992847,A,flow,O,w,105,1,1882.7999999523163,138091.39999997616,7075,WL,A,2.0
1,8.21500015258789,learn,51784.99984741211,Mon Mar 03 2025 14:05:31 GMT-0600 (Central Standard Time),140373.5,A,flowe,O,e,380,1,2282.100000023842,138091.39999997616,7075,WL,A,2.0
1,8.364000082015991,learn,51635.99991798401,Mon Mar 03 2025 14:05:31 GMT-0600 (Central Standard Time),140523.19999992847,A,flower,O,r,145,1,2431.7999999523163,138091.39999997616,7075,WL,A,2.0
1,8.648000001907349,learn,51351.99999809265,Mon Mar 03 2025 14:05:31 GMT-0600 (Central Standard Time),140807.19999992847,A,flowerenter,O,enter,270,1,2715.7999999523163,138091.39999997616,7075,WL,A,2.0
1,9.281000137329102,learn,50718.9998626709,Mon Mar 03 2025 14:05:31 GMT-0600 (Central Standard Time),141439.69999992847,A,t,O,t,620,1,632.1999999284744,140807.5,7075,WL,A,3.0
1,9.480999946594238,learn,50519.00005340576,Mon Mar 03 2025 14:05:31 GMT-0600 (Central Standard Time),141639.59999990463,A,tr,O,r,187,1,832.0999999046326,140807.5,7075,WL,A,3.0
1,9.663000106811523,learn,50336.99989318848,Mon Mar 03 2025 14:05:31 GMT-0600 (Central Standard Time),141822.19999992847,A,tra,O,a,170,1,1014.6999999284744,140807.5,7075,WL,A,3.0
1,9.799999952316284,learn,50200.000047683716,Mon Mar 03 2025 14:05:31 GMT-0600 (Central Standard Time),141958.79999995232,A,trai,O,i,129,1,1151.2999999523163,140807.5,7075,WL,A,3.0
1,9.933000087738037,learn,50066.99991226196,Mon Mar 03 2025 14:05:31 GMT-0600 (Central Standard Time),142092.29999995232,A,train,O,n,110,1,1284.7999999523163,140807.5,7075,WL,A,3.0
1,10.180000066757202,learn,49819.9999332428,Mon Mar 03 2025 14:05:31 GMT-0600 (Central Standard Time),142338.69999992847,A,trainenter,O,enter,239,1,1531.1999999284744,140807.5,7075,WL,A,3.0
1,10.580000162124634,learn,49419.999837875366,Mon Mar 03 2025 14:05:31 GMT-0600 (Central Standard Time),142739.09999990463,A,r,O,r,385,1,400.09999990463257,142339.0,7075,WL,A,4.0
1,10.766000032424927,learn,49233.99996757507,Mon Mar 03 2025 14:05:31 GMT-0600 (Central Standard Time),142925.0,A,ru,O,u,177,1,586.0,142339.0,7075,WL,A,4.0
1,11.114000082015991,learn,48885.99991798401,Mon Mar 03 2025 14:05:31 GMT-0600 (Central Standard Time),143272.5,A,rug,O,g,334,1,933.5,142339.0,7075,WL,A,4.0
1,11.52999997138977,learn,48470.00002861023,Mon Mar 03 2025 14:05:31 GMT-0600 (Central Standard Time),143689.09999990463,A,rugenter,O,enter,409,1,1350.0999999046326,142339.0,7075,WL,A,4.0
1,14.046000003814697,learn,45953.9999961853,Mon Mar 03 2025 14:05:31 GMT-0600 (Central Standard Time),146205.0,A,m,O,m,2512,1,2515.600000023842,143689.39999997616,7075,WL,A,5.0
1,14.146000146865845,learn,45853.999853134155,Mon Mar 03 2025 14:05:31 GMT-0600 (Central Standard Time),146304.79999995232,A,me,O,e,86,1,2615.399999976158,143689.39999997616,7075,WL,A,5.0
1,14.27999997138977,learn,45720.00002861023,Mon Mar 03 2025 14:05:31 GMT-0600 (Central Standard Time),146438.89999997616,A,mea,O,a,115,1,2749.5,143689.39999997616,7075,WL,A,5.0
1,14.462000131607056,learn,45537.999868392944,Mon Mar 03 2025 14:05:31 GMT-0600 (Central Standard Time),146621.5,A,mead,O,d,173,1,2932.100000023842,143689.39999997616,7075,WL,A,5.0
1,14.67900013923645,learn,45320.99986076355,Mon Mar 03 2025 14:05:31 GMT-0600 (Central Standard Time),146838.09999990463,A,meado,O,o,197,1,3148.6999999284744,143689.39999997616,7075,WL,A,5.0
1,14.847000122070312,learn,45152.99987792969,Mon Mar 03 2025 14:05:31 GMT-0600 (Central Standard Time),147005.79999995232,A,meadow,O,w,159,1,3316.399999976158,143689.39999997616,7075,WL,A,5.0
1,15.144000053405762,learn,44855.99994659424,Mon Mar 03 2025 14:05:31 GMT-0600 (Central Standard Time),147303.39999997616,A,meadowenter,O,enter,285,1,3614.0,143689.39999997616,7075,WL,A,5.0
1,17.05900001525879,learn,42940.99998474121,Mon Mar 03 2025 14:05:31 GMT-0600 (Central Standard Time),149218.0,A,c,O,c,1899,1,1914.3000000715256,147303.69999992847,7075,WL,A,6.0
1,17.24500012397766,learn,42754.99987602234,Mon Mar 03 2025 14:05:31 GMT-0600 (Central Standard Time),149403.79999995232,A,ch,O,h,172,1,2100.100000023842,147303.69999992847,7075,WL,A,6.0
1,17.496000051498413,learn,42503.99994850159,Mon Mar 03 2025 14:05:31 GMT-0600 (Central Standard Time),149654.79999995232,A,chi,O,i,230,1,2351.100000023842,147303.69999992847,7075,WL,A,6.0
1,17.978000164031982,learn,42021.99983596802,Mon Mar 03 2025 14:05:31 GMT-0600 (Central Standard Time),150137.0,A,chim,O,m,468,1,2833.3000000715256,147303.69999992847,7075,WL,A,6.0
1,18.294000148773193,learn,41705.99985122681,Mon Mar 03 2025 14:05:31 GMT-0600 (Central Standard Time),150453.09999990463,A,chimn,O,n,304,1,3149.399999976158,147303.69999992847,7075,WL,A,6.0
1,18.52900004386902,learn,41470.99995613098,Mon Mar 03 2025 14:05:31 GMT-0600 (Central Standard Time),150687.69999992847,A,chimne,O,e,222,1,3384.0,147303.69999992847,7075,WL,A,6.0
1,18.743000030517578,learn,41256.99996948242,Mon Mar 03 2025 14:05:31 GMT-0600 (Central Standard Time),150902.19999992847,A,chimney,O,y,202,1,3598.5,147303.69999992847,7075,WL,A,6.0
1,18.794000148773193,learn,41205.99985122681,Mon Mar 03 2025 14:05:31 GMT-0600 (Central Standard Time),150952.89999997616,A,chimneyu,O,u,30,1,3649.2000000476837,147303.69999992847,7075,WL,A,6.0
1,19.479000091552734,learn,40520.999908447266,Mon Mar 03 2025 14:05:31 GMT-0600 (Central Standard Time),151637.89999997616,A,chimney,O,backspace,679,1,4334.200000047684,147303.69999992847,7075,WL,A,6.0
1,19.82800006866455,learn,40171.99993133545,Mon Mar 03 2025 14:05:31 GMT-0600 (Central Standard Time),151987.0,A,chimneyenter,O,enter,333,1,4683.300000071526,147303.69999992847,7075,WL,A,6.0
1,21.12600016593933,learn,38873.99983406067,Mon Mar 03 2025 14:05:31 GMT-0600 (Central Standard Time),153284.89999997616,A,s,O,s,1279,1,1297.6000000238419,151987.29999995232,7075,WL,A,7.0
1,21.24500012397766,learn,38754.99987602234,Mon Mar 03 2025 14:05:31 GMT-0600 (Central Standard Time),153403.89999997616,A,sa,O,a,112,1,1416.6000000238419,151987.29999995232,7075,WL,A,7.0
1,21.39300012588501,learn,38606.99987411499,Mon Mar 03 2025 14:05:31 GMT-0600 (Central Standard Time),153552.29999995232,A,sal,O,l,128,1,1565.0,151987.29999995232,7075,WL,A,7.0
1,21.628000020980835,learn,38371.999979019165,Mon Mar 03 2025 14:05:31 GMT-0600 (Central Standard Time),153786.5,A,salt,O,t,224,1,1799.2000000476837,151987.29999995232,7075,WL,A,7.0
1,21.877000093460083,learn,38122.99990653992,Mon Mar 03 2025 14:05:31 GMT-0600 (Central Standard Time),154036.09999990463,A,saltenter,O,enter,232,1,2048.7999999523163,151987.29999995232,7075,WL,A,7.0
1,22.061000108718872,learn,37938.99989128113,Mon Mar 03 2025 14:05:31 GMT-0600 (Central Standard Time),154220.19999992847,A,a,O,a,178,1,183.69999992847443,154036.5,7075,WL,A,8.0
1,22.24399995803833,learn,37756.00004196167,Mon Mar 03 2025 14:05:31 GMT-0600 (Central Standard Time),154402.5,A,ap,O,p,173,1,366.0,154036.5,7075,WL,A,8.0
1,22.426000118255615,learn,37573.999881744385,Mon Mar 03 2025 14:05:31 GMT-0600 (Central Standard Time),154585.39999997616,A,app,O,p,166,1,548.8999999761581,154036.5,7075,WL,A,8.0
1,22.694000005722046,learn,37305.999994277954,Mon Mar 03 2025 14:05:31 GMT-0600 (Central Standard Time),154852.5,A,appl,O,l,244,1,816.0,154036.5,7075,WL,A,8.0
1,22.844000101089478,learn,37155.99989891052,Mon Mar 03 2025 14:05:31 GMT-0600 (Central Standard Time),155002.69999992847,A,apple,O,e,126,1,966.1999999284744,154036.5,7075,WL,A,8.0
1,23.0770001411438,learn,36922.9998588562,Mon Mar 03 2025 14:05:31 GMT-0600 (Central Standard Time),155235.5,A,appleenter,O,enter,226,1,1199.0,154036.5,7075,WL,A,8.0
1,27.325000047683716,learn,32674.999952316284,Mon Mar 03 2025 14:05:31 GMT-0600 (Central Standard Time),159484.19999992847,A,r,O,r,4243,1,4248.399999976158,155235.79999995232,7075,WL,A,9.0
1,27.457000017166138,learn,32542.999982833862,Mon Mar 03 2025 14:05:31 GMT-0600 (Central Standard Time),159616.29999995232,A,ru,O,u,119,1,4380.5,155235.79999995232,7075,WL,A,9.0
1,27.69099998474121,learn,32309.00001525879,Mon Mar 03 2025 14:05:31 GMT-0600 (Central Standard Time),159850.39999997616,A,rug,O,g,218,1,4614.600000023842,155235.79999995232,7075,WL,A,9.0
1,27.907999992370605,learn,32092.000007629395,Mon Mar 03 2025 14:05:31 GMT-0600 (Central Standard Time),160067.09999990463,A,rugenter,O,enter,208,1,4831.299999952316,155235.79999995232,7075,WL,A,9.0
1,29.69000005722046,learn,30309.99994277954,Mon Mar 03 2025 14:05:31 GMT-0600 (Central Standard Time),161849.39999997616,A,t,O,t,1761,1,1782.1000000238419,160067.29999995232,7075,WL,A,10.0
1,29.94099998474121,learn,30059.00001525879,Mon Mar 03 2025 14:05:31 GMT-0600 (Central Standard Time),162099.79999995232,A,tr,O,r,240,1,2032.5,160067.29999995232,7075,WL,A,10.0
1,30.176000118255615,learn,29823.999881744385,Mon Mar 03 2025 14:05:31 GMT-0600 (Central Standard Time),162335.0,A,tra,O,a,215,1,2267.7000000476837,160067.29999995232,7075,WL,A,10.0
1,30.307000160217285,learn,29692.999839782715,Mon Mar 03 2025 14:05:31 GMT-0600 (Central Standard Time),162465.79999995232,A,trai,O,i,114,1,2398.5,160067.29999995232,7075,WL,A,10.0
1,30.424000024795532,learn,29575.999975204468,Mon Mar 03 2025 14:05:31 GMT-0600 (Central Standard Time),162583.39999997616,A,train,O,n,105,1,2516.100000023842,160067.29999995232,7075,WL,A,10.0
1,30.759999990463257,learn,29240.000009536743,Mon Mar 03 2025 14:05:31 GMT-0600 (Central Standard Time),162918.5,A,trainenter,O,enter,314,1,2851.2000000476837,160067.29999995232,7075,WL,A,10.0
1,40.55400013923645,learn,19445.99986076355,Mon Mar 03 2025 14:05:31 GMT-0600 (Central Standard Time),172713.39999997616,A,a,O,a,9776,1,9794.700000047684,162918.69999992847,7075,WL,A,11.0
1,40.75399994850159,learn,19246.000051498413,Mon Mar 03 2025 14:05:31 GMT-0600 (Central Standard Time),172912.89999997616,A,ap,O,p,180,1,9994.200000047684,162918.69999992847,7075,WL,A,11.0
1,40.88700008392334,learn,19112.99991607666,Mon Mar 03 2025 14:05:31 GMT-0600 (Central Standard Time),173045.89999997616,A,app,O,p,124,1,10127.200000047684,162918.69999992847,7075,WL,A,11.0
1,41.354000091552734,learn,18645.999908447266,Mon Mar 03 2025 14:05:31 GMT-0600 (Central Standard Time),173513.39999997616,A,appl,O,l,445,1,10594.700000047684,162918.69999992847,7075,WL,A,11.0
1,41.486000061035156,learn,18513.999938964844,Mon Mar 03 2025 14:05:31 GMT-0600 (Central Standard Time),173645.0,A,apple,O,e,113,1,10726.300000071526,162918.69999992847,7075,WL,A,11.0
1,41.88700008392334,learn,18112.99991607666,Mon Mar 03 2025 14:05:31 GMT-0600 (Central Standard Time),174046.39999997616,A,appleenter,O,enter,382,1,11127.700000047684,162918.69999992847,7075,WL,A,11.0
1,49.00200009346008,learn,10997.999906539917,Mon Mar 03 2025 14:05:31 GMT-0600 (Central Standard Time),181161.19999992847,A,r,O,r,7093,1,7114.600000023842,174046.59999990463,7075,WL,A,12.0
1,49.151000022888184,learn,10848.999977111816,Mon Mar 03 2025 14:05:31 GMT-0600 (Central Standard Time),181310.09999990463,A,ru,O,u,128,1,7263.5,174046.59999990463,7075,WL,A,12.0
1,49.38300013542175,learn,10616.999864578247,Mon Mar 03 2025 14:05:31 GMT-0600 (Central Standard Time),181542.29999995232,A,rug,O,g,212,1,7495.700000047684,174046.59999990463,7075,WL,A,12.0
1,49.616000175476074,learn,10383.999824523926,Mon Mar 03 2025 14:05:31 GMT-0600 (Central Standard Time),181775.69999992847,A,rugenter,O,enter,209,1,7729.100000023842,174046.59999990463,7075,WL,A,12.0
1,60.015000104904175,learn,-15.000104904174805,Mon Mar 03 2025 14:05:31 GMT-0600 (Central Standard Time),192174.39999997616,A,None,O,None,10393,1,10398.399999976158,181776.0,7075,WL,A,13.0
2,0.748999834060669,learn,59251.00016593933,Mon Mar 03 2025 14:05:31 GMT-0600 (Central Standard Time),262950.2999999523,A,b,O,b,739,1,749.0,262201.2999999523,7075,WL,A,1.0
2,1.0339999198913574,learn,58966.00008010864,Mon Mar 03 2025 14:05:31 GMT-0600 (Central Standard Time),263234.7999999523,A,br,O,r,278,1,1033.5,262201.2999999523,7075,WL,A,1.0
2,1.6499998569488525,learn,58350.00014305115,Mon Mar 03 2025 14:05:31 GMT-0600 (Central Standard Time),263850.5,A,b,O,backspace,598,1,1649.2000000476837,262201.2999999523,7075,WL,A,1.0
2,1.9670000076293945,learn,58032.999992370605,Mon Mar 03 2025 14:05:31 GMT-0600 (Central Standard Time),264167.59999990463,A,bo,O,o,297,1,1966.2999999523163,262201.2999999523,7075,WL,A,1.0
2,2.132999897003174,learn,57867.000102996826,Mon Mar 03 2025 14:05:31 GMT-0600 (Central Standard Time),264333.5,A,boo,O,o,147,1,2132.2000000476837,262201.2999999523,7075,WL,A,1.0
2,2.2839999198913574,learn,57716.00008010864,Mon Mar 03 2025 14:05:31 GMT-0600 (Central Standard Time),264484.2999999523,A,book,O,k,135,1,2283.0,262201.2999999523,7075,WL,A,1.0
2,3.132999897003174,learn,56867.000102996826,Mon Mar 03 2025 14:05:31 GMT-0600 (Central Standard Time),265333.2999999523,A,bookenter,O,enter,830,1,3132.0,262201.2999999523,7075,WL,A,1.0
2,4.049999952316284,learn,55950.000047683716,Mon Mar 03 2025 14:05:31 GMT-0600 (Central Standard Time),266250.7999999523,A,f,O,f,903,1,917.2999999523163,265333.5,7075,WL,A,2.0
2,4.164999961853027,learn,55835.00003814697,Mon Mar 03 2025 14:05:31 GMT-0600 (Central Standard Time),266366.2999999523,A,fl,O,l,95,1,1032.7999999523163,265333.5,7075,WL,A,2.0
2,4.382999897003174,learn,55617.000102996826,Mon Mar 03 2025 14:05:31 GMT-0600 (Central Standard Time),266583.7999999523,A,flo,O,o,195,1,1250.2999999523163,265333.5,7075,WL,A,2.0
2,4.48199987411499,learn,55518.00012588501,Mon Mar 03 2025 14:05:31 GMT-0600 (Central Standard Time),266682.89999997616,A,flow,O,w,83,1,1349.3999999761581,265333.5,7075,WL,A,2.0
2,4.599999904632568,learn,55400.00009536743,Mon Mar 03 2025 14:05:31 GMT-0600 (Central Standard Time),266801.1999999285,A,flowe,O,e,112,1,1467.6999999284744,265333.5,7075,WL,A,2.0
2,5.033999919891357,learn,54966.00008010864,Mon Mar 03 2025 14:05:31 GMT-0600 (Central Standard Time),267234.39999997616,A,flower,O,r,427,1,1900.8999999761581,265333.5,7075,WL,A,2.0
2,5.297999858856201,learn,54702.0001411438,Mon Mar 03 2025 14:05:31 GMT-0600 (Central Standard Time),267498.89999997616,A,flowerenter,O,enter,248,1,2165.399999976158,265333.5,7075,WL,A,2.0
2,5.832000017166138,learn,54167.99998283386,Mon Mar 03 2025 14:05:31 GMT-0600 (Central Standard Time),268032.59999990463,A,t,O,t,521,1,533.3999999761581,267499.1999999285,7075,WL,A,3.0
2,6.06499981880188,learn,53935.00018119812,Mon Mar 03 2025 14:05:31 GMT-0600 (Central Standard Time),268266.09999990463,A,tr,O,r,219,1,766.8999999761581,267499.1999999285,7075,WL,A,3.0
2,6.264999866485596,learn,53735.000133514404,Mon Mar 03 2025 14:05:31 GMT-0600 (Central Standard Time),268465.89999997616,A,tra,O,a,185,1,966.7000000476837,267499.1999999285,7075,WL,A,3.0
2,6.38100004196167,learn,53618.99995803833,Mon Mar 03 2025 14:05:31 GMT-0600 (Central Standard Time),268581.5,A,trai,O,i,108,1,1082.3000000715256,267499.1999999285,7075,WL,A,3.0
2,6.5309998989105225,learn,53469.00010108948,Mon Mar 03 2025 14:05:31 GMT-0600 (Central Standard Time),268732.1999999285,A,train,O,n,145,1,1233.0,267499.1999999285,7075,WL,A,3.0
2,6.829999923706055,learn,53170.000076293945,Mon Mar 03 2025 14:05:31 GMT-0600 (Central Standard Time),269030.59999990463,A,trainenter,O,enter,276,1,1531.3999999761581,267499.1999999285,7075,WL,A,3.0
2,7.247999906539917,learn,52752.00009346008,Mon Mar 03 2025 14:05:31 GMT-0600 (Central Standard Time),269448.89999997616,A,r,O,r,405,1,418.0,269030.89999997616,7075,WL,A,4.0
2,7.313999891281128,learn,52686.00010871887,Mon Mar 03 2025 14:05:31 GMT-0600 (Central Standard Time),269514.2999999523,A,ru,O,u,56,1,483.39999997615814,269030.89999997616,7075,WL,A,4.0
2,7.615999937057495,learn,52384.000062942505,Mon Mar 03 2025 14:05:31 GMT-0600 (Central Standard Time),269817.0,A,rug,O,g,296,1,786.1000000238419,269030.89999997616,7075,WL,A,4.0
2,7.929999828338623,learn,52070.00017166138,Mon Mar 03 2025 14:05:31 GMT-0600 (Central Standard Time),270131.09999990463,A,rugenter,O,enter,308,1,1100.1999999284744,269030.89999997616,7075,WL,A,4.0
2,8.281999826431274,learn,51718.000173568726,Mon Mar 03 2025 14:05:31 GMT-0600 (Central Standard Time),270483.0,A,m,O,m,335,1,351.60000002384186,270131.39999997616,7075,WL,A,5.0
2,8.3989999294281,learn,51601.0000705719,Mon Mar 03 2025 14:05:31 GMT-0600 (Central Standard Time),270599.6999999285,A,me,O,e,98,1,468.2999999523163,270131.39999997616,7075,WL,A,5.0
2,8.562999963760376,learn,51437.000036239624,Mon Mar 03 2025 14:05:31 GMT-0600 (Central Standard Time),270763.89999997616,A,mea,O,a,147,1,632.5,270131.39999997616,7075,WL,A,5.0
2,8.747999906539917,learn,51252.00009346008,Mon Mar 03 2025 14:05:31 GMT-0600 (Central Standard Time),270948.2999999523,A,mead,O,d,181,1,816.8999999761581,270131.39999997616,7075,WL,A,5.0
2,8.94700002670288,learn,51052.99997329712,Mon Mar 03 2025 14:05:31 GMT-0600 (Central Standard Time),271147.6999999285,A,meado,O,o,180,1,1016.2999999523163,270131.39999997616,7075,WL,A,5.0
2,9.096999883651733,learn,50903.00011634827,Mon Mar 03 2025 14:05:31 GMT-0600 (Central Standard Time),271298.09999990463,A,meadow,O,w,137,1,1166.6999999284744,270131.39999997616,7075,WL,A,5.0
2,9.379999876022339,learn,50620.00012397766,Mon Mar 03 2025 14:05:31 GMT-0600 (Central Standard Time),271580.7999999523,A,meadowenter,O,enter,264,1,1449.3999999761581,270131.39999997616,7075,WL,A,5.0
2,10.44700002670288,learn,49552.99997329712,Mon Mar 03 2025 14:05:31 GMT-0600 (Central Standard Time),272647.6999999285,A,h,O,h,1048,1,1066.6000000238419,271581.09999990463,7075,WL,A,6.0
2,10.529000043869019,learn,49470.99995613098,Mon Mar 03 2025 14:05:31 GMT-0600 (Central Standard Time),272730.09999990463,A,ha,O,a,75,1,1149.0,271581.09999990463,7075,WL,A,6.0
2,10.69700002670288,learn,49302.99997329712,Mon Mar 03 2025 14:05:31 GMT-0600 (Central Standard Time),272898.09999990463,A,har,O,r,150,1,1317.0,271581.09999990463,7075,WL,A,6.0
2,10.996999979019165,learn,49003.000020980835,Mon Mar 03 2025 14:05:31 GMT-0600 (Central Standard Time),273197.5,A,harp,O,p,280,1,1616.4000000953674,271581.09999990463,7075,WL,A,6.0
2,11.312000036239624,learn,48687.999963760376,Mon Mar 03 2025 14:05:31 GMT-0600 (Central Standard Time),273513.0,A,harpenter,O,enter,299,1,1931.9000000953674,271581.09999990463,7075,WL,A,6.0
2,11.664000034332275,learn,48335.999965667725,Mon Mar 03 2025 14:05:31 GMT-0600 (Central Standard Time),273864.89999997616,A,f,O,f,340,1,351.60000002384186,273513.2999999523,7075,WL,A,7.0
2,11.77999997138977,learn,48220.00002861023,Mon Mar 03 2025 14:05:31 GMT-0600 (Central Standard Time),273980.59999990463,A,fi,O,i,98,1,467.2999999523163,273513.2999999523,7075,WL,A,7.0
2,11.914999961853027,learn,48085.00003814697,Mon Mar 03 2025 14:05:31 GMT-0600 (Central Standard Time),274115.6999999285,A,fin,O,n,119,1,602.3999999761581,273513.2999999523,7075,WL,A,7.0
2,12.113999843597412,learn,47886.00015640259,Mon Mar 03 2025 14:05:31 GMT-0600 (Central Standard Time),274314.89999997616,A,fing,O,g,178,1,801.6000000238419,273513.2999999523,7075,WL,A,7.0
2,12.346999883651733,learn,47653.00011634827,Mon Mar 03 2025 14:05:31 GMT-0600 (Central Standard Time),274547.7999999523,A,finge,O,e,217,1,1034.5,273513.2999999523,7075,WL,A,7.0
2,12.46399998664856,learn,47536.00001335144,Mon Mar 03 2025 14:05:31 GMT-0600 (Central Standard Time),274664.39999997616,A,finger,O,r,94,1,1151.1000000238419,273513.2999999523,7075,WL,A,7.0
2,12.763000011444092,learn,47236.99998855591,Mon Mar 03 2025 14:05:31 GMT-0600 (Central Standard Time),274964.09999990463,A,fingerenter,O,enter,289,1,1450.7999999523163,273513.2999999523,7075,WL,A,7.0
2,13.94599986076355,learn,46054.00013923645,Mon Mar 03 2025 14:05:31 GMT-0600 (Central Standard Time),276146.89999997616,A,a,O,a,1167,1,1182.6000000238419,274964.2999999523,7075,WL,A,8.0
2,14.19599986076355,learn,45804.00013923645,Mon Mar 03 2025 14:05:31 GMT-0600 (Central Standard Time),276396.7999999523,A,ap,O,p,240,1,1432.5,274964.2999999523,7075,WL,A,8.0
2,14.363999843597412,learn,45636.00015640259,Mon Mar 03 2025 14:05:31 GMT-0600 (Central Standard Time),276565.1999999285,A,app,O,p,158,1,1600.8999999761581,274964.2999999523,7075,WL,A,8.0
2,14.644999980926514,learn,45355.000019073486,Mon Mar 03 2025 14:05:31 GMT-0600 (Central Standard Time),276846.1999999285,A,appl,O,l,260,1,1881.8999999761581,274964.2999999523,7075,WL,A,8.0
2,14.794999837875366,learn,45205.000162124634,Mon Mar 03 2025 14:05:31 GMT-0600 (Central Standard Time),276996.0,A,apple,O,e,129,1,2031.7000000476837,274964.2999999523,7075,WL,A,8.0
2,15.02999997138977,learn,44970.00002861023,Mon Mar 03 2025 14:05:31 GMT-0600 (Central Standard Time),277230.5,A,appleenter,O,enter,223,1,2266.2000000476837,274964.2999999523,7075,WL,A,8.0
2,15.36299991607666,learn,44637.00008392334,Mon Mar 03 2025 14:05:31 GMT-0600 (Central Standard Time),277563.2999999523,A,c,O,c,327,1,332.5,277230.7999999523,7075,WL,A,9.0
2,15.478999853134155,learn,44521.000146865845,Mon Mar 03 2025 14:05:31 GMT-0600 (Central Standard Time),277680.09999990463,A,ch,O,h,97,1,449.2999999523163,277230.7999999523,7075,WL,A,9.0
2,15.579999923706055,learn,44420.000076293945,Mon Mar 03 2025 14:05:31 GMT-0600 (Central Standard Time),277780.59999990463,A,chi,O,i,93,1,549.7999999523163,277230.7999999523,7075,WL,A,9.0
2,15.828999996185303,learn,44171.0000038147,Mon Mar 03 2025 14:05:31 GMT-0600 (Central Standard Time),278029.89999997616,A,chim,O,m,238,1,799.1000000238419,277230.7999999523,7075,WL,A,9.0
2,16.17899990081787,learn,43821.00009918213,Mon Mar 03 2025 14:05:31 GMT-0600 (Central Standard Time),278379.2999999523,A,chimn,O,n,334,1,1148.5,277230.7999999523,7075,WL,A,9.0
2,16.744999885559082,learn,43255.00011444092,Mon Mar 03 2025 14:05:31 GMT-0600 (Central Standard Time),278946.09999990463,A,chimne,O,e,559,1,1715.2999999523163,277230.7999999523,7075,WL,A,9.0
2,16.878999948501587,learn,43121.00005149841,Mon Mar 03 2025 14:05:31 GMT-0600 (Central Standard Time),279079.59999990463,A,chimney,O,y,111,1,1848.7999999523163,277230.7999999523,7075,WL,A,9.0
2,17.359999895095825,learn,42640.000104904175,Mon Mar 03 2025 14:05:31 GMT-0600 (Central Standard Time),279561.1999999285,A,chimneyenter,O,enter,460,1,2330.399999976158,277230.7999999523,7075,WL,A,9.0
2,20.777999877929688,learn,39222.00012207031,Mon Mar 03 2025 14:05:31 GMT-0600 (Central Standard Time),282978.89999997616,A,k,O,k,3412,1,3417.5,279561.39999997616,7075,WL,A,10.0
2,20.875999927520752,learn,39124.00007247925,Mon Mar 03 2025 14:05:31 GMT-0600 (Central Standard Time),283077.1999999285,A,ke,O,e,79,1,3515.7999999523163,279561.39999997616,7075,WL,A,10.0
2,21.07699990272522,learn,38923.00009727478,Mon Mar 03 2025 14:05:31 GMT-0600 (Central Standard Time),283277.7999999523,A,key,O,y,189,1,3716.399999976158,279561.39999997616,7075,WL,A,10.0
2,21.575000047683716,learn,38424.999952316284,Mon Mar 03 2025 14:05:31 GMT-0600 (Central Standard Time),283775.89999997616,A,keyenter,O,enter,484,1,4214.5,279561.39999997616,7075,WL,A,10.0
2,22.276999950408936,learn,37723.000049591064,Mon Mar 03 2025 14:05:31 GMT-0600 (Central Standard Time),284478.0,A,l,O,l,685,1,701.9000000953674,283776.09999990463,7075,WL,A,11.0
2,22.509999990463257,learn,37490.00000953674,Mon Mar 03 2025 14:05:31 GMT-0600 (Central Standard Time),284710.6999999285,A,lo,O,o,213,1,934.6000000238419,283776.09999990463,7075,WL,A,11.0
2,22.643999814987183,learn,37356.00018501282,Mon Mar 03 2025 14:05:31 GMT-0600 (Central Standard Time),284844.39999997616,A,log,O,g,110,1,1068.3000000715256,283776.09999990463,7075,WL,A,11.0
2,22.925999879837036,learn,37074.000120162964,Mon Mar 03 2025 14:05:31 GMT-0600 (Central Standard Time),285127.0,A,logenter,O,enter,260,1,1350.9000000953674,283776.09999990463,7075,WL,A,11.0
2,25.425999879837036,learn,34574.000120162964,Mon Mar 03 2025 14:05:31 GMT-0600 (Central Standard Time),287626.2999999523,A,r,O,r,2485,1,2499.0,285127.2999999523,7075,WL,A,12.0
2,25.65999984741211,learn,34340.00015258789,Mon Mar 03 2025 14:05:31 GMT-0600 (Central Standard Time),287860.7999999523,A,ra,O,a,227,1,2733.5,285127.2999999523,7075,WL,A,12.0
2,25.85800004005432,learn,34141.99995994568,Mon Mar 03 2025 14:05:31 GMT-0600 (Central Standard Time),288058.39999997616,A,rat,O,t,180,1,2931.100000023842,285127.2999999523,7075,WL,A,12.0
2,26.04199981689453,learn,33958.00018310547,Mon Mar 03 2025 14:05:31 GMT-0600 (Central Standard Time),288243.0,A,ratt,O,t,176,1,3115.7000000476837,285127.2999999523,7075,WL,A,12.0
2,26.274999856948853,learn,33725.00014305115,Mon Mar 03 2025 14:05:31 GMT-0600 (Central Standard Time),288475.5,A,rattl,O,l,215,1,3348.2000000476837,285127.2999999523,7075,WL,A,12.0
2,26.39299988746643,learn,33607.00011253357,Mon Mar 03 2025 14:05:31 GMT-0600 (Central Standard Time),288593.39999997616,A,rattle,O,e,95,1,3466.100000023842,285127.2999999523,7075,WL,A,12.0
2,26.674999952316284,learn,33325.000047683716,Mon Mar 03 2025 14:05:31 GMT-0600 (Central Standard Time),288875.6999999285,A,rattleenter,O,enter,274,1,3748.399999976158,285127.2999999523,7075,WL,A,12.0
2,27.908999919891357,learn,32091.000080108643,Mon Mar 03 2025 14:05:31 GMT-0600 (Central Standard Time),290109.6999999285,A,k,O,k,1216,1,1233.7999999523163,288875.89999997616,7075,WL,A,13.0
2,28.04199981689453,learn,31958.00018310547,Mon Mar 03 2025 14:05:31 GMT-0600 (Central Standard Time),290242.2999999523,A,ke,O,e,125,1,1366.3999999761581,288875.89999997616,7075,WL,A,13.0
2,28.240999937057495,learn,31759.000062942505,Mon Mar 03 2025 14:05:31 GMT-0600 (Central Standard Time),290441.89999997616,A,key,O,y,184,1,1566.0,288875.89999997616,7075,WL,A,13.0
2,28.590999841690063,learn,31409.000158309937,Mon Mar 03 2025 14:05:31 GMT-0600 (Central Standard Time),290791.5,A,keyenter,O,enter,328,1,1915.6000000238419,288875.89999997616,7075,WL,A,13.0
2,36.02199983596802,learn,23978.000164031982,Mon Mar 03 2025 14:05:31 GMT-0600 (Central Standard Time),298223.0,A,f,O,f,7421,1,7431.300000071526,290791.6999999285,7075,WL,A,14.0
2,36.121999979019165,learn,23878.000020980835,Mon Mar 03 2025 14:05:31 GMT-0600 (Central Standard Time),298322.6999999285,A,fi,O,i,84,1,7531.0,290791.6999999285,7075,WL,A,14.0
2,36.289000034332275,learn,23710.999965667725,Mon Mar 03 2025 14:05:31 GMT-0600 (Central Standard Time),298489.6999999285,A,fin,O,n,153,1,7698.0,290791.6999999285,7075,WL,A,14.0
2,36.388999938964844,learn,23611.000061035156,Mon Mar 03 2025 14:05:31 GMT-0600 (Central Standard Time),298590.1999999285,A,fing,O,g,82,1,7798.5,290791.6999999285,7075,WL,A,14.0
2,36.723000049591064,learn,23276.999950408936,Mon Mar 03 2025 14:05:31 GMT-0600 (Central Standard Time),298924.1999999285,A,finge,O,e,326,1,8132.5,290791.6999999285,7075,WL,A,14.0
2,36.888999938964844,learn,23111.000061035156,Mon Mar 03 2025 14:05:31 GMT-0600 (Central Standard Time),299090.1999999285,A,finger,O,r,144,1,8298.5,290791.6999999285,7075,WL,A,14.0
2,37.32099986076355,learn,22679.00013923645,Mon Mar 03 2025 14:05:31 GMT-0600 (Central Standard Time),299522.09999990463,A,fingerenter,O,enter,426,1,8730.399999976158,290791.6999999285,7075,WL,A,14.0
2,49.050999879837036,learn,10949.000120162964,Mon Mar 03 2025 14:05:31 GMT-0600 (Central Standard Time),311252.2999999523,A,g,O,g,11714,1,11729.899999976158,299522.39999997616,7075,WL,A,15.0
2,49.18400001525879,learn,10815.999984741211,Mon Mar 03 2025 14:05:31 GMT-0600 (Central Standard Time),311384.89999997616,A,go,O,o,119,1,11862.5,299522.39999997616,7075,WL,A,15.0
2,49.36899995803833,learn,10631.00004196167,Mon Mar 03 2025 14:05:31 GMT-0600 (Central Standard Time),311570.39999997616,A,god,O,d,178,1,12048.0,299522.39999997616,7075,WL,A,15.0
2,50.067999839782715,learn,9932.000160217285,Mon Mar 03 2025 14:05:31 GMT-0600 (Central Standard Time),312268.89999997616,A,go,O,backspace,680,1,12746.5,299522.39999997616,7075,WL,A,15.0
2,50.8989999294281,learn,9101.0000705719,Mon Mar 03 2025 14:05:31 GMT-0600 (Central Standard Time),313100.5,A,gol,O,l,822,1,13578.100000023842,299522.39999997616,7075,WL,A,15.0
2,51.10099983215332,learn,8899.00016784668,Mon Mar 03 2025 14:05:31 GMT-0600 (Central Standard Time),313302.09999990463,A,gold,O,d,190,1,13779.699999928474,299522.39999997616,7075,WL,A,15.0
2,51.43400001525879,learn,8565.999984741211,Mon Mar 03 2025 14:05:31 GMT-0600 (Central Standard Time),313635.1999999285,A,goldenter,O,enter,311,1,14112.799999952316,299522.39999997616,7075,WL,A,15.0
3,0.999000072479248,learn,59000.99992752075,Mon Mar 03 2025 14:05:31 GMT-0600 (Central Standard Time),388327.6999999285,A,b,O,b,986,1,998.6000000238419,387329.09999990463,7075,WL,A,1.0
3,1.433000087738037,learn,58566.99991226196,Mon Mar 03 2025 14:05:31 GMT-0600 (Central Standard Time),388761.89999997616,A,bo,O,o,421,1,1432.8000000715256,387329.09999990463,7075,WL,A,1.0
3,1.6000001430511475,learn,58399.99985694885,Mon Mar 03 2025 14:05:31 GMT-0600 (Central Standard Time),388928.6999999285,A,boo,O,o,154,1,1599.6000000238419,387329.09999990463,7075,WL,A,1.0
3,1.815999984741211,learn,58184.00001525879,Mon Mar 03 2025 14:05:31 GMT-0600 (Central Standard Time),389144.39999997616,A,book,O,k,204,1,1815.3000000715256,387329.09999990463,7075,WL,A,1.0
3,2.1480000019073486,learn,57851.99999809265,Mon Mar 03 2025 14:05:31 GMT-0600 (Central Standard Time),389476.59999990463,A,bookenter,O,enter,316,1,2147.5,387329.09999990463,7075,WL,A,1.0
3,2.633000135421753,learn,57366.99986457825,Mon Mar 03 2025 14:05:31 GMT-0600 (Central Standard Time),389962.0,A,t,O,t,480,1,485.10000002384186,389476.89999997616,7075,WL,A,2.0
3,2.8990001678466797,learn,57100.99983215332,Mon Mar 03 2025 14:05:31 GMT-0600 (Central Standard Time),390227.7999999523,A,tr,O,r,251,1,750.8999999761581,389476.89999997616,7075,WL,A,2.0
3,3.0820000171661377,learn,56917.99998283386,Mon Mar 03 2025 14:05:31 GMT-0600 (Central Standard Time),390411.09999990463,A,tra,O,a,168,1,934.1999999284744,389476.89999997616,7075,WL,A,2.0
3,3.2310001850128174,learn,56768.99981498718,Mon Mar 03 2025 14:05:31 GMT-0600 (Central Standard Time),390559.59999990463,A,trai,O,i,134,1,1082.6999999284744,389476.89999997616,7075,WL,A,2.0
3,3.381999969482422,learn,56618.00003051758,Mon Mar 03 2025 14:05:31 GMT-0600 (Central Standard Time),390710.09999990463,A,train,O,n,133,1,1233.1999999284744,389476.89999997616,7075,WL,A,2.0
3,3.633000135421753,learn,56366.99986457825,Mon Mar 03 2025 14:05:31 GMT-0600 (Central Standard Time),390961.59999990463,A,trainenter,O,enter,245,1,1484.6999999284744,389476.89999997616,7075,WL,A,2.0
3,5.031000137329102,learn,54968.9998626709,Mon Mar 03 2025 14:05:31 GMT-0600 (Central Standard Time),392359.1999999285,A,r,O,r,1385,1,1397.1999999284744,390962.0,7075,WL,A,3.0
3,5.180999994277954,learn,54819.000005722046,Mon Mar 03 2025 14:05:31 GMT-0600 (Central Standard Time),392509.59999990463,A,ru,O,u,134,1,1547.5999999046326,390962.0,7075,WL,A,3.0
3,5.465000152587891,learn,54534.99984741211,Mon Mar 03 2025 14:05:31 GMT-0600 (Central Standard Time),392793.2999999523,A,rug,O,g,270,1,1831.2999999523163,390962.0,7075,WL,A,3.0
3,5.864000082015991,learn,54135.99991798401,Mon Mar 03 2025 14:05:31 GMT-0600 (Central Standard Time),393193.0,A,rugenter,O,enter,387,1,2231.0,390962.0,7075,WL,A,3.0
3,7.499000072479248,learn,52500.99992752075,Mon Mar 03 2025 14:05:31 GMT-0600 (Central Standard Time),394827.2999999523,A,m,O,m,1629,1,1634.1000000238419,393193.1999999285,7075,WL,A,4.0
3,7.63100004196167,learn,52368.99995803833,Mon Mar 03 2025 14:05:31 GMT-0600 (Central Standard Time),394959.1999999285,A,me,O,e,112,1,1766.0,393193.1999999285,7075,WL,A,4.0
3,7.814000129699707,learn,52185.99987030029,Mon Mar 03 2025 14:05:31 GMT-0600 (Central Standard Time),395142.1999999285,A,mea,O,a,165,1,1949.0,393193.1999999285,7075,WL,A,4.0
3,8.014000177383423,learn,51985.99982261658,Mon Mar 03 2025 14:05:31 GMT-0600 (Central Standard Time),395342.59999990463,A,mead,O,d,191,1,2149.399999976158,393193.1999999285,7075,WL,A,4.0
3,8.163000106811523,learn,51836.99989318848,Mon Mar 03 2025 14:05:31 GMT-0600 (Central Standard Time),395491.6999999285,A,meado,O,o,134,1,2298.5,393193.1999999285,7075,WL,A,4.0
3,8.26200008392334,learn,51737.99991607666,Mon Mar 03 2025 14:05:31 GMT-0600 (Central Standard Time),395591.09999990463,A,meadow,O,w,89,1,2397.899999976158,393193.1999999285,7075,WL,A,4.0
3,8.629000186920166,learn,51370.999813079834,Mon Mar 03 2025 14:05:31 GMT-0600 (Central Standard Time),395958.0,A,meadowenter,O,enter,355,1,2764.8000000715256,393193.1999999285,7075,WL,A,4.0
3,10.462000131607056,learn,49537.999868392944,Mon Mar 03 2025 14:05:31 GMT-0600 (Central Standard Time),397790.39999997616,A,h,O,h,1822,1,1832.2000000476837,395958.1999999285,7075,WL,A,5.0
3,10.578999996185303,learn,49421.0000038147,Mon Mar 03 2025 14:05:31 GMT-0600 (Central Standard Time),397907.7999999523,A,ha,O,a,102,1,1949.6000000238419,395958.1999999285,7075,WL,A,5.0
3,10.962000131607056,learn,49037.999868392944,Mon Mar 03 2025 14:05:31 GMT-0600 (Central Standard Time),398290.7999999523,A,har,O,r,369,1,2332.600000023842,395958.1999999285,7075,WL,A,5.0
3,11.213000059127808,learn,48786.99994087219,Mon Mar 03 2025 14:05:31 GMT-0600 (Central Standard Time),398542.0,A,harp,O,p,245,1,2583.8000000715256,395958.1999999285,7075,WL,A,5.0
3,11.812999963760376,learn,48187.000036239624,Mon Mar 03 2025 14:05:31 GMT-0600 (Central Standard Time),399141.6999999285,A,harpenter,O,enter,581,1,3183.5,395958.1999999285,7075,WL,A,5.0
3,12.896000146865845,learn,47103.999853134155,Mon Mar 03 2025 14:05:31 GMT-0600 (Central Standard Time),400224.39999997616,A,g,O,g,1062,1,1082.3999999761581,399142.0,7075,WL,A,6.0
3,13.062999963760376,learn,46937.000036239624,Mon Mar 03 2025 14:05:31 GMT-0600 (Central Standard Time),400391.1999999285,A,go,O,o,148,1,1249.1999999284744,399142.0,7075,WL,A,6.0
3,13.296000003814697,learn,46703.9999961853,Mon Mar 03 2025 14:05:31 GMT-0600 (Central Standard Time),400624.59999990463,A,gol,O,l,221,1,1482.5999999046326,399142.0,7075,WL,A,6.0
3,13.479000091552734,learn,46520.999908447266,Mon Mar 03 2025 14:05:31 GMT-0600 (Central Standard Time),400807.6999999285,A,gold,O,d,163,1,1665.6999999284744,399142.0,7075,WL,A,6.0
3,13.811000108718872,learn,46188.99989128113,Mon Mar 03 2025 14:05:31 GMT-0600 (Central Standard Time),401139.2999999523,A,goldenter,O,enter,325,1,1997.2999999523163,399142.0,7075,WL,A,6.0
3,15.879000186920166,learn,44120.999813079834,Mon Mar 03 2025 14:05:31 GMT-0600 (Central Standard Time),403207.7999999523,A,a,O,a,2048,1,2068.2999999523163,401139.5,7075,WL,A,7.0
3,16.16200017929077,learn,43837.99982070923,Mon Mar 03 2025 14:05:31 GMT-0600 (Central Standard Time),403490.7999999523,A,ap,O,p,277,1,2351.2999999523163,401139.5,7075,WL,A,7.0
3,16.34500002861023,learn,43654.99997138977,Mon Mar 03 2025 14:05:31 GMT-0600 (Central Standard Time),403673.6999999285,A,app,O,p,176,1,2534.1999999284744,401139.5,7075,WL,A,7.0
3,16.611999988555908,learn,43388.00001144409,Mon Mar 03 2025 14:05:31 GMT-0600 (Central Standard Time),403940.39999997616,A,appl,O,l,261,1,2800.899999976158,401139.5,7075,WL,A,7.0
3,16.746000051498413,learn,43253.99994850159,Mon Mar 03 2025 14:05:31 GMT-0600 (Central Standard Time),404074.09999990463,A,apple,O,e,126,1,2934.5999999046326,401139.5,7075,WL,A,7.0
3,17.027000188827515,learn,42972.999811172485,Mon Mar 03 2025 14:05:31 GMT-0600 (Central Standard Time),404355.5,A,appleenter,O,enter,275,1,3216.0,401139.5,7075,WL,A,7.0
3,17.979000091552734,learn,42020.999908447266,Mon Mar 03 2025 14:05:31 GMT-0600 (Central Standard Time),405307.39999997616,A,f,O,f,946,1,951.5,404355.89999997616,7075,WL,A,8.0
3,18.110000133514404,learn,41889.999866485596,Mon Mar 03 2025 14:05:31 GMT-0600 (Central Standard Time),405438.39999997616,A,fi,O,i,120,1,1082.5,404355.89999997616,7075,WL,A,8.0
3,18.24399995803833,learn,41756.00004196167,Mon Mar 03 2025 14:05:31 GMT-0600 (Central Standard Time),405572.1999999285,A,fin,O,n,119,1,1216.2999999523163,404355.89999997616,7075,WL,A,8.0
3,18.343000173568726,learn,41656.999826431274,Mon Mar 03 2025 14:05:31 GMT-0600 (Central Standard Time),405671.09999990463,A,fing,O,g,87,1,1315.1999999284744,404355.89999997616,7075,WL,A,8.0
3,18.59500002861023,learn,41404.99997138977,Mon Mar 03 2025 14:05:31 GMT-0600 (Central Standard Time),405923.2999999523,A,finge,O,e,245,1,1567.3999999761581,404355.89999997616,7075,WL,A,8.0
3,18.743000030517578,learn,41256.99996948242,Mon Mar 03 2025 14:05:31 GMT-0600 (Central Standard Time),406071.1999999285,A,finger,O,r,136,1,1715.2999999523163,404355.89999997616,7075,WL,A,8.0
3,19.093000173568726,learn,40906.999826431274,Mon Mar 03 2025 14:05:31 GMT-0600 (Central Standard Time),406421.59999990463,A,fingerenter,O,enter,331,1,2065.6999999284744,404355.89999997616,7075,WL,A,8.0
3,25.259000062942505,learn,34740.999937057495,Mon Mar 03 2025 14:05:31 GMT-0600 (Central Standard Time),412587.5,A,r,O,r,6143,1,6165.600000023842,406421.89999997616,7075,WL,A,9.0
3,25.426000118255615,learn,34573.999881744385,Mon Mar 03 2025 14:05:31 GMT-0600 (Central Standard Time),412754.7999999523,A,ra,O,a,160,1,6332.899999976158,406421.89999997616,7075,WL,A,9.0
3,25.624000072479248,learn,34375.99992752075,Mon Mar 03 2025 14:05:31 GMT-0600 (Central Standard Time),412952.7999999523,A,rat,O,t,184,1,6530.899999976158,406421.89999997616,7075,WL,A,9.0
3,25.8270001411438,learn,34172.9998588562,Mon Mar 03 2025 14:05:31 GMT-0600 (Central Standard Time),413155.39999997616,A,ratt,O,t,180,1,6733.5,406421.89999997616,7075,WL,A,9.0
3,26.225000143051147,learn,33774.99985694885,Mon Mar 03 2025 14:05:31 GMT-0600 (Central Standard Time),413553.2999999523,A,rattl,O,l,386,1,7131.399999976158,406421.89999997616,7075,WL,A,9.0
3,26.39199995994568,learn,33608.00004005432,Mon Mar 03 2025 14:05:31 GMT-0600 (Central Standard Time),413720.1999999285,A,rattle,O,e,146,1,7298.299999952316,406421.89999997616,7075,WL,A,9.0
3,26.69099998474121,learn,33309.00001525879,Mon Mar 03 2025 14:05:31 GMT-0600 (Central Standard Time),414019.89999997616,A,rattleenter,O,enter,282,1,7598.0,406421.89999997616,7075,WL,A,9.0
3,27.659000158309937,learn,32340.999841690063,Mon Mar 03 2025 14:05:31 GMT-0600 (Central Standard Time),414987.5,A,l,O,l,962,1,967.4000000953674,414020.09999990463,7075,WL,A,10.0
3,27.891000032424927,learn,32108.999967575073,Mon Mar 03 2025 14:05:31 GMT-0600 (Central Standard Time),415219.2999999523,A,lo,O,o,215,1,1199.2000000476837,414020.09999990463,7075,WL,A,10.0
3,28.075000047683716,learn,31924.999952316284,Mon Mar 03 2025 14:05:31 GMT-0600 (Central Standard Time),415403.2999999523,A,log,O,g,168,1,1383.2000000476837,414020.09999990463,7075,WL,A,10.0
3,28.323000192642212,learn,31676.999807357788,Mon Mar 03 2025 14:05:31 GMT-0600 (Central Standard Time),415651.6999999285,A,logenter,O,enter,232,1,1631.6000000238419,414020.09999990463,7075,WL,A,10.0
3,40.087000131607056,learn,19912.999868392944,Mon Mar 03 2025 14:05:31 GMT-0600 (Central Standard Time),427415.6999999285,A,g,O,g,11752,1,11763.699999928474,415652.0,7075,WL,A,11.0
3,40.26900005340576,learn,19730.99994659424,Mon Mar 03 2025 14:05:31 GMT-0600 (Central Standard Time),427597.89999997616,A,go,O,o,172,1,11945.899999976158,415652.0,7075,WL,A,11.0
3,40.769999980926514,learn,19230.000019073486,Mon Mar 03 2025 14:05:31 GMT-0600 (Central Standard Time),428098.7999999523,A,goenter,O,enter,496,1,12446.799999952316,415652.0,7075,WL,A,11.0
3,41.902000188827515,learn,18097.999811172485,Mon Mar 03 2025 14:05:31 GMT-0600 (Central Standard Time),429231.5,A,g,O,g,1122,1,1132.4000000953674,428099.09999990463,7075,WL,A,12.0
3,41.968000173568726,learn,18031.999826431274,Mon Mar 03 2025 14:05:31 GMT-0600 (Central Standard Time),429297.0,A,go,O,o,60,1,1197.9000000953674,428099.09999990463,7075,WL,A,12.0
3,42.25100016593933,learn,17748.99983406067,Mon Mar 03 2025 14:05:31 GMT-0600 (Central Standard Time),429580.1999999285,A,gol,O,l,265,1,1481.1000000238419,428099.09999990463,7075,WL,A,12.0
3,42.402000188827515,learn,17597.999811172485,Mon Mar 03 2025 14:05:31 GMT-0600 (Central Standard Time),429731.39999997616,A,gold,O,d,142,1,1632.3000000715256,428099.09999990463,7075,WL,A,12.0
3,42.63600015640259,learn,17363.999843597412,Mon Mar 03 2025 14:05:31 GMT-0600 (Central Standard Time),429964.6999999285,A,goldenter,O,enter,215,1,1865.6000000238419,428099.09999990463,7075,WL,A,12.0
3,42.98900008201599,learn,17010.99991798401,Mon Mar 03 2025 14:05:31 GMT-0600 (Central Standard Time),430317.89999997616,A,h,O,h,334,1,352.89999997615814,429965.0,7075,WL,A,13.0
3,43.069000005722046,learn,16930.999994277954,Mon Mar 03 2025 14:05:31 GMT-0600 (Central Standard Time),430398.5,A,ha,O,a,71,1,433.5,429965.0,7075,WL,A,13.0
3,43.53600001335144,learn,16463.99998664856,Mon Mar 03 2025 14:05:31 GMT-0600 (Central Standard Time),430864.7999999523,A,har,O,r,444,1,899.7999999523163,429965.0,7075,WL,A,13.0
3,43.76900005340576,learn,16230.999946594238,Mon Mar 03 2025 14:05:31 GMT-0600 (Central Standard Time),431098.0,A,harp,O,p,219,1,1133.0,429965.0,7075,WL,A,13.0
3,44.134000062942505,learn,15865.999937057495,Mon Mar 03 2025 14:05:31 GMT-0600 (Central Standard Time),431463.39999997616,A,harpenter,O,enter,345,1,1498.3999999761581,429965.0,7075,WL,A,13.0
3,45.78400015830994,learn,14215.999841690063,Mon Mar 03 2025 14:05:31 GMT-0600 (Central Standard Time),433113.59999990463,A,f,O,f,1638,1,1649.8999999761581,431463.6999999285,7075,WL,A,14.0
3,45.866000175476074,learn,14133.999824523926,Mon Mar 03 2025 14:05:31 GMT-0600 (Central Standard Time),433195.59999990463,A,fi,O,i,66,1,1731.8999999761581,431463.6999999285,7075,WL,A,14.0
3,46.00100016593933,learn,13998.999834060669,Mon Mar 03 2025 14:05:31 GMT-0600 (Central Standard Time),433330.1999999285,A,fin,O,n,118,1,1866.5,431463.6999999285,7075,WL,A,14.0
3,46.08400011062622,learn,13915.99988937378,Mon Mar 03 2025 14:05:31 GMT-0600 (Central Standard Time),433412.7999999523,A,fing,O,g,72,1,1949.1000000238419,431463.6999999285,7075,WL,A,14.0
3,46.28400015830994,learn,13715.999841690063,Mon Mar 03 2025 14:05:31 GMT-0600 (Central Standard Time),433613.0,A,finge,O,e,191,1,2149.3000000715256,431463.6999999285,7075,WL,A,14.0
3,46.401000022888184,learn,13598.999977111816,Mon Mar 03 2025 14:05:31 GMT-0600 (Central Standard Time),433729.6999999285,A,finger,O,r,103,1,2266.0,431463.6999999285,7075,WL,A,14.0
3,46.616000175476074,learn,13383.999824523926,Mon Mar 03 2025 14:05:31 GMT-0600 (Central Standard Time),433945.2999999523,A,fingerenter,O,enter,201,1,2481.600000023842,431463.6999999285,7075,WL,A,14.0
3,52.617000102996826,learn,7382.999897003174,Mon Mar 03 2025 14:05:31 GMT-0600 (Central Standard Time),439946.5,A,b,O,b,5996,1,6000.900000095367,433945.59999990463,7075,WL,A,15.0
3,52.831000089645386,learn,7168.999910354614,Mon Mar 03 2025 14:05:31 GMT-0600 (Central Standard Time),440160.59999990463,A,bu,O,u,191,1,6215.0,433945.59999990463,7075,WL,A,15.0
3,52.99900007247925,learn,7000.999927520752,Mon Mar 03 2025 14:05:31 GMT-0600 (Central Standard Time),440328.1999999285,A,but,O,t,143,1,6382.600000023842,433945.59999990463,7075,WL,A,15.0
3,53.13199996948242,learn,6868.000030517578,Mon Mar 03 2025 14:05:31 GMT-0600 (Central Standard Time),440461.1999999285,A,butt,O,t,113,1,6515.600000023842,433945.59999990463,7075,WL,A,15.0
3,53.29800009727478,learn,6701.99990272522,Mon Mar 03 2025 14:05:31 GMT-0600 (Central Standard Time),440627.2999999523,A,butto,O,o,150,1,6681.700000047684,433945.59999990463,7075,WL,A,15.0
3,53.414000034332275,learn,6585.999965667725,Mon Mar 03 2025 14:05:31 GMT-0600 (Central Standard Time),440743.59999990463,A,button,O,n,97,1,6798.0,433945.59999990463,7075,WL,A,15.0
3,53.73100018501282,learn,6268.999814987183,Mon Mar 03 2025 14:05:31 GMT-0600 (Central Standard Time),441060.09999990463,A,buttonenter,O,enter,298,1,7114.5,433945.59999990463,7075,WL,A,15.0
4,0.9819998741149902,learn,59018.00012588501,Mon Mar 03 2025 14:05:31 GMT-0600 (Central Standard Time),509539.1999999285,A,b,O,b,966,1,981.8999999761581,508557.2999999523,7075,WL,A,1.0
4,1.1649999618530273,learn,58835.00003814697,Mon Mar 03 2025 14:05:31 GMT-0600 (Central Standard Time),509722.0,A,bo,O,o,167,1,1164.7000000476837,508557.2999999523,7075,WL,A,1.0
4,1.313999891281128,learn,58686.00010871887,Mon Mar 03 2025 14:05:31 GMT-0600 (Central Standard Time),509871.59999990463,A,boo,O,o,137,1,1314.2999999523163,508557.2999999523,7075,WL,A,1.0
4,1.5139999389648438,learn,58486.000061035156,Mon Mar 03 2025 14:05:31 GMT-0600 (Central Standard Time),510071.5,A,book,O,k,187,1,1514.2000000476837,508557.2999999523,7075,WL,A,1.0
4,2.1480000019073486,learn,57851.99999809265,Mon Mar 03 2025 14:05:31 GMT-0600 (Central Standard Time),510705.09999990463,A,bookenter,O,enter,620,1,2147.7999999523163,508557.2999999523,7075,WL,A,1.0
4,3.2149999141693115,learn,56785.00008583069,Mon Mar 03 2025 14:05:31 GMT-0600 (Central Standard Time),511772.0,A,f,O,f,1052,1,1066.6000000238419,510705.39999997616,7075,WL,A,2.0
4,3.313999891281128,learn,56686.00010871887,Mon Mar 03 2025 14:05:31 GMT-0600 (Central Standard Time),511871.5,A,fl,O,l,87,1,1166.1000000238419,510705.39999997616,7075,WL,A,2.0
4,3.563999891281128,learn,56436.00010871887,Mon Mar 03 2025 14:05:31 GMT-0600 (Central Standard Time),512121.1999999285,A,flo,O,o,235,1,1415.7999999523163,510705.39999997616,7075,WL,A,2.0
4,3.680999994277954,learn,56319.000005722046,Mon Mar 03 2025 14:05:31 GMT-0600 (Central Standard Time),512238.6999999285,A,flow,O,w,98,1,1533.2999999523163,510705.39999997616,7075,WL,A,2.0
4,3.797999858856201,learn,56202.0001411438,Mon Mar 03 2025 14:05:31 GMT-0600 (Central Standard Time),512355.7999999523,A,flowe,O,e,109,1,1650.3999999761581,510705.39999997616,7075,WL,A,2.0
4,3.996999979019165,learn,56003.000020980835,Mon Mar 03 2025 14:05:31 GMT-0600 (Central Standard Time),512554.5,A,flower,O,r,183,1,1849.1000000238419,510705.39999997616,7075,WL,A,2.0
4,4.546000003814697,learn,55453.9999961853,Mon Mar 03 2025 14:05:31 GMT-0600 (Central Standard Time),513103.6999999285,A,flowerenter,O,enter,535,1,2398.2999999523163,510705.39999997616,7075,WL,A,2.0
4,5.0299999713897705,learn,54970.00002861023,Mon Mar 03 2025 14:05:31 GMT-0600 (Central Standard Time),513587.7999999523,A,m,O,m,468,1,483.7999999523163,513104.0,7075,WL,A,3.0
4,5.11299991607666,learn,54887.00008392334,Mon Mar 03 2025 14:05:31 GMT-0600 (Central Standard Time),513670.39999997616,A,me,O,e,62,1,566.3999999761581,513104.0,7075,WL,A,3.0
4,5.313999891281128,learn,54686.00010871887,Mon Mar 03 2025 14:05:31 GMT-0600 (Central Standard Time),513871.0,A,mea,O,a,187,1,767.0,513104.0,7075,WL,A,3.0
4,5.46399998664856,learn,54536.00001335144,Mon Mar 03 2025 14:05:31 GMT-0600 (Central Standard Time),514021.09999990463,A,mead,O,d,132,1,917.0999999046326,513104.0,7075,WL,A,3.0
4,5.646999835968018,learn,54353.00016403198,Mon Mar 03 2025 14:05:31 GMT-0600 (Central Standard Time),514204.6999999285,A,meado,O,o,165,1,1100.6999999284744,513104.0,7075,WL,A,3.0
4,5.763999938964844,learn,54236.000061035156,Mon Mar 03 2025 14:05:31 GMT-0600 (Central Standard Time),514321.1999999285,A,meadow,O,w,111,1,1217.1999999284744,513104.0,7075,WL,A,3.0
4,6.0959999561309814,learn,53904.00004386902,Mon Mar 03 2025 14:05:31 GMT-0600 (Central Standard Time),514653.1999999285,A,meadowenter,O,enter,321,1,1549.1999999284744,513104.0,7075,WL,A,3.0
4,6.428999900817871,learn,53571.00009918213,Mon Mar 03 2025 14:05:31 GMT-0600 (Central Standard Time),514987.0,A,r,O,r,320,1,333.5,514653.5,7075,WL,A,4.0
4,6.580999851226807,learn,53419.00014877319,Mon Mar 03 2025 14:05:31 GMT-0600 (Central Standard Time),515137.89999997616,A,ru,O,u,144,1,484.39999997615814,514653.5,7075,WL,A,4.0
4,6.796999931335449,learn,53203.00006866455,Mon Mar 03 2025 14:05:31 GMT-0600 (Central Standard Time),515354.0,A,rug,O,g,201,1,700.5,514653.5,7075,WL,A,4.0
4,7.163999795913696,learn,52836.000204086304,Mon Mar 03 2025 14:05:31 GMT-0600 (Central Standard Time),515721.39999997616,A,rugenter,O,enter,361,1,1067.8999999761581,514653.5,7075,WL,A,4.0
4,8.646999835968018,learn,51353.00016403198,Mon Mar 03 2025 14:05:31 GMT-0600 (Central Standard Time),517204.5,A,a,O,a,1466,1,1482.8000000715256,515721.6999999285,7075,WL,A,5.0
4,8.796000003814697,learn,51203.9999961853,Mon Mar 03 2025 14:05:31 GMT-0600 (Central Standard Time),517353.1999999285,A,ap,O,p,134,1,1631.5,515721.6999999285,7075,WL,A,5.0
4,8.962999820709229,learn,51037.00017929077,Mon Mar 03 2025 14:05:31 GMT-0600 (Central Standard Time),517520.39999997616,A,app,O,p,153,1,1798.7000000476837,515721.6999999285,7075,WL,A,5.0
4,9.19599986076355,learn,50804.00013923645,Mon Mar 03 2025 14:05:31 GMT-0600 (Central Standard Time),517753.39999997616,A,appl,O,l,218,1,2031.7000000476837,515721.6999999285,7075,WL,A,5.0
4,9.345999956130981,learn,50654.00004386902,Mon Mar 03 2025 14:05:31 GMT-0600 (Central Standard Time),517903.09999990463,A,apple,O,e,129,1,2181.399999976158,515721.6999999285,7075,WL,A,5.0
4,9.544999837875366,learn,50455.000162124634,Mon Mar 03 2025 14:05:31 GMT-0600 (Central Standard Time),518102.2999999523,A,appleenter,O,enter,187,1,2380.600000023842,515721.6999999285,7075,WL,A,5.0
4,9.829999923706055,learn,50170.000076293945,Mon Mar 03 2025 14:05:31 GMT-0600 (Central Standard Time),518387.2999999523,A,f,O,f,269,1,284.7000000476837,518102.59999990463,7075,WL,A,6.0
4,9.961999893188477,learn,50038.00010681152,Mon Mar 03 2025 14:05:31 GMT-0600 (Central Standard Time),518519.89999997616,A,fi,O,i,111,1,417.3000000715256,518102.59999990463,7075,WL,A,6.0
4,10.095999956130981,learn,49904.00004386902,Mon Mar 03 2025 14:05:31 GMT-0600 (Central Standard Time),518653.2999999523,A,fin,O,n,123,1,550.7000000476837,518102.59999990463,7075,WL,A,6.0
4,10.26199984550476,learn,49738.00015449524,Mon Mar 03 2025 14:05:31 GMT-0600 (Central Standard Time),518819.1999999285,A,fing,O,g,158,1,716.6000000238419,518102.59999990463,7075,WL,A,6.0
4,10.51199984550476,learn,49488.00015449524,Mon Mar 03 2025 14:05:31 GMT-0600 (Central Standard Time),519069.89999997616,A,finge,O,e,239,1,967.3000000715256,518102.59999990463,7075,WL,A,6.0
4,10.613999843597412,learn,49386.00015640259,Mon Mar 03 2025 14:05:31 GMT-0600 (Central Standard Time),519171.1999999285,A,finger,O,r,95,1,1068.6000000238419,518102.59999990463,7075,WL,A,6.0
4,10.978999853134155,learn,49021.000146865845,Mon Mar 03 2025 14:05:31 GMT-0600 (Central Standard Time),519536.0,A,fingerenter,O,enter,351,1,1433.4000000953674,518102.59999990463,7075,WL,A,6.0
4,12.061999797821045,learn,47938.000202178955,Mon Mar 03 2025 14:05:31 GMT-0600 (Central Standard Time),520619.09999990463,A,h,O,h,1067,1,1082.7999999523163,519536.2999999523,7075,WL,A,7.0
4,12.17799997329712,learn,47822.00002670288,Mon Mar 03 2025 14:05:31 GMT-0600 (Central Standard Time),520735.39999997616,A,ha,O,a,105,1,1199.1000000238419,519536.2999999523,7075,WL,A,7.0
4,12.628999948501587,learn,47371.00005149841,Mon Mar 03 2025 14:05:31 GMT-0600 (Central Standard Time),521186.7999999523,A,har,O,r,445,1,1650.5,519536.2999999523,7075,WL,A,7.0
4,12.893999814987183,learn,47106.00018501282,Mon Mar 03 2025 14:05:31 GMT-0600 (Central Standard Time),521452.0,A,harp,O,p,250,1,1915.7000000476837,519536.2999999523,7075,WL,A,7.0
4,13.376999855041504,learn,46623.000144958496,Mon Mar 03 2025 14:05:31 GMT-0600 (Central Standard Time),521934.2999999523,A,harpenter,O,enter,463,1,2398.0,519536.2999999523,7075,WL,A,7.0
4,15.542999982833862,learn,44457.00001716614,Mon Mar 03 2025 14:05:31 GMT-0600 (Central Standard Time),524100.2999999523,A,g,O,g,2158,1,2165.7000000476837,521934.59999990463,7075,WL,A,8.0
4,15.643999814987183,learn,44356.00018501282,Mon Mar 03 2025 14:05:31 GMT-0600 (Central Standard Time),524201.2999999523,A,go,O,o,87,1,2266.7000000476837,521934.59999990463,7075,WL,A,8.0
4,15.857999801635742,learn,44142.00019836426,Mon Mar 03 2025 14:05:31 GMT-0600 (Central Standard Time),524415.5999999046,A,gol,O,l,204,1,2481.0,521934.59999990463,7075,WL,A,8.0
4,16.026999950408936,learn,43973.000049591064,Mon Mar 03 2025 14:05:31 GMT-0600 (Central Standard Time),524584.5,A,gold,O,d,157,1,2649.9000000953674,521934.59999990463,7075,WL,A,8.0
4,16.292999982833862,learn,43707.00001716614,Mon Mar 03 2025 14:05:31 GMT-0600 (Central Standard Time),524850.7999999523,A,goldenter,O,enter,263,1,2916.2000000476837,521934.59999990463,7075,WL,A,8.0
4,17.776000022888184,learn,42223.99997711182,Mon Mar 03 2025 14:05:31 GMT-0600 (Central Standard Time),526333.7999999523,A,k,O,k,1466,1,1482.6000000238419,524851.1999999285,7075,WL,A,9.0
4,17.894999980926514,learn,42105.000019073486,Mon Mar 03 2025 14:05:31 GMT-0600 (Central Standard Time),526452.3999999762,A,ke,O,e,111,1,1601.2000000476837,524851.1999999285,7075,WL,A,9.0
4,18.444999933242798,learn,41555.0000667572,Mon Mar 03 2025 14:05:31 GMT-0600 (Central Standard Time),527002.0999999046,A,key,O,y,543,1,2150.899999976158,524851.1999999285,7075,WL,A,9.0
4,18.774999856948853,learn,41225.00014305115,Mon Mar 03 2025 14:05:31 GMT-0600 (Central Standard Time),527332.7999999523,A,keyenter,O,enter,314,1,2481.600000023842,524851.1999999285,7075,WL,A,9.0
4,19.060999870300293,learn,40939.00012969971,Mon Mar 03 2025 14:05:31 GMT-0600 (Central Standard Time),527618.5999999046,A,b,O,b,280,1,285.5,527333.0999999046,7075,WL,A,10.0
4,19.175999879837036,learn,40824.000120162964,Mon Mar 03 2025 14:05:31 GMT-0600 (Central Standard Time),527733.5999999046,A,bu,O,u,96,1,400.5,527333.0999999046,7075,WL,A,10.0
4,19.39299988746643,learn,40607.00011253357,Mon Mar 03 2025 14:05:31 GMT-0600 (Central Standard Time),527950.5,A,but,O,t,198,1,617.4000000953674,527333.0999999046,7075,WL,A,10.0
4,19.524999856948853,learn,40475.00014305115,Mon Mar 03 2025 14:05:31 GMT-0600 (Central Standard Time),528082.7999999523,A,butt,O,t,125,1,749.7000000476837,527333.0999999046,7075,WL,A,10.0
4,19.72599983215332,learn,40274.00016784668,Mon Mar 03 2025 14:05:31 GMT-0600 (Central Standard Time),528283.1999999285,A,butto,O,o,192,1,950.1000000238419,527333.0999999046,7075,WL,A,10.0
4,19.89199995994568,learn,40108.00004005432,Mon Mar 03 2025 14:05:31 GMT-0600 (Central Standard Time),528449.6999999285,A,button,O,n,146,1,1116.6000000238419,527333.0999999046,7075,WL,A,10.0
4,20.157999992370605,learn,39842.000007629395,Mon Mar 03 2025 14:05:31 GMT-0600 (Central Standard Time),528715.5,A,buttonenter,O,enter,258,1,1382.4000000953674,527333.0999999046,7075,WL,A,10.0
4,20.45899987220764,learn,39541.00012779236,Mon Mar 03 2025 14:05:31 GMT-0600 (Central Standard Time),529016.8999999762,A,a,O,a,280,1,301.2000000476837,528715.6999999285,7075,WL,A,11.0
4,20.574999809265137,learn,39425.00019073486,Mon Mar 03 2025 14:05:31 GMT-0600 (Central Standard Time),529132.6999999285,A,ap,O,p,97,1,417.0,528715.6999999285,7075,WL,A,11.0
4,20.743000030517578,learn,39256.99996948242,Mon Mar 03 2025 14:05:31 GMT-0600 (Central Standard Time),529300.0999999046,A,app,O,p,161,1,584.3999999761581,528715.6999999285,7075,WL,A,11.0
4,21.024999856948853,learn,38975.00014305115,Mon Mar 03 2025 14:05:31 GMT-0600 (Central Standard Time),529582.2999999523,A,appl,O,l,263,1,866.6000000238419,528715.6999999285,7075,WL,A,11.0
4,21.157999992370605,learn,38842.000007629395,Mon Mar 03 2025 14:05:31 GMT-0600 (Central Standard Time),529715.5,A,apple,O,e,111,1,999.8000000715256,528715.6999999285,7075,WL,A,11.0
4,21.375999927520752,learn,38624.00007247925,Mon Mar 03 2025 14:05:31 GMT-0600 (Central Standard Time),529933.0,A,appleenter,O,enter,199,1,1217.3000000715256,528715.6999999285,7075,WL,A,11.0
4,24.50599980354309,learn,35494.00019645691,Mon Mar 03 2025 14:05:31 GMT-0600 (Central Standard Time),533063.0999999046,A,c,O,c,3110,1,3129.899999976158,529933.1999999285,7075,WL,A,12.0
4,24.655999898910522,learn,35344.00010108948,Mon Mar 03 2025 14:05:31 GMT-0600 (Central Standard Time),533213.3999999762,A,ci,O,i,133,1,3280.2000000476837,529933.1999999285,7075,WL,A,12.0
4,25.073999881744385,learn,34926.000118255615,Mon Mar 03 2025 14:05:31 GMT-0600 (Central Standard Time),533631.5999999046,A,c,O,backspace,399,1,3698.399999976158,529933.1999999285,7075,WL,A,12.0
4,25.289999961853027,learn,34710.00003814697,Mon Mar 03 2025 14:05:31 GMT-0600 (Central Standard Time),533847.5,A,ch,O,h,203,1,3914.3000000715256,529933.1999999285,7075,WL,A,12.0
4,25.44099998474121,learn,34559.00001525879,Mon Mar 03 2025 14:05:31 GMT-0600 (Central Standard Time),533998.0999999046,A,chi,O,i,131,1,4064.899999976158,529933.1999999285,7075,WL,A,12.0
4,25.58999991416931,learn,34410.00008583069,Mon Mar 03 2025 14:05:31 GMT-0600 (Central Standard Time),534147.3999999762,A,chim,O,m,132,1,4214.200000047684,529933.1999999285,7075,WL,A,12.0
4,26.00599980354309,learn,33994.00019645691,Mon Mar 03 2025 14:05:31 GMT-0600 (Central Standard Time),534563.3999999762,A,chimn,O,n,410,1,4630.200000047684,529933.1999999285,7075,WL,A,12.0
4,26.207000017166138,learn,33792.99998283386,Mon Mar 03 2025 14:05:31 GMT-0600 (Central Standard Time),534764.0,A,chimne,O,e,181,1,4830.800000071526,529933.1999999285,7075,WL,A,12.0
4,26.405999898910522,learn,33594.00010108948,Mon Mar 03 2025 14:05:31 GMT-0600 (Central Standard Time),534963.3999999762,A,chimney,O,y,177,1,5030.200000047684,529933.1999999285,7075,WL,A,12.0
4,26.721999883651733,learn,33278.00011634827,Mon Mar 03 2025 14:05:31 GMT-0600 (Central Standard Time),535279.1999999285,A,chimneyenter,O,enter,296,1,5346.0,529933.1999999285,7075,WL,A,12.0
4,26.990000009536743,learn,33009.99999046326,Mon Mar 03 2025 14:05:31 GMT-0600 (Central Standard Time),535547.5999999046,A,l,O,l,252,1,268.1999999284744,535279.3999999762,7075,WL,A,13.0
4,27.256999969482422,learn,32743.000030517578,Mon Mar 03 2025 14:05:31 GMT-0600 (Central Standard Time),535814.3999999762,A,lo,O,o,255,1,535.0,535279.3999999762,7075,WL,A,13.0
4,27.389999866485596,learn,32610.000133514404,Mon Mar 03 2025 14:05:31 GMT-0600 (Central Standard Time),535947.6999999285,A,log,O,g,115,1,668.2999999523163,535279.3999999762,7075,WL,A,13.0
4,27.707000017166138,learn,32292.999982833862,Mon Mar 03 2025 14:05:31 GMT-0600 (Central Standard Time),536264.5,A,logenter,O,enter,305,1,985.1000000238419,535279.3999999762,7075,WL,A,13.0
4,35.73699998855591,learn,24263.00001144409,Mon Mar 03 2025 14:05:31 GMT-0600 (Central Standard Time),544294.5999999046,A,d,O,d,8012,1,8029.799999952316,536264.7999999523,7075,WL,A,14.0
4,35.90299987792969,learn,24097.000122070312,Mon Mar 03 2025 14:05:31 GMT-0600 (Central Standard Time),544460.8999999762,A,da,O,a,149,1,8196.100000023842,536264.7999999523,7075,WL,A,14.0
4,36.069000005722046,learn,23930.999994277954,Mon Mar 03 2025 14:05:31 GMT-0600 (Central Standard Time),544627.0,A,dal,O,l,158,1,8362.200000047684,536264.7999999523,7075,WL,A,14.0
4,36.436999797821045,learn,23563.000202178955,Mon Mar 03 2025 14:05:31 GMT-0600 (Central Standard Time),544995.0999999046,A,da,O,backspace,361,1,8730.299999952316,536264.7999999523,7075,WL,A,14.0
4,36.61999988555908,learn,23380.000114440918,Mon Mar 03 2025 14:05:31 GMT-0600 (Central Standard Time),545177.5,A,d,O,backspace,177,1,8912.700000047684,536264.7999999523,7075,WL,A,14.0
4,36.78699994087219,learn,23213.000059127808,Mon Mar 03 2025 14:05:31 GMT-0600 (Central Standard Time),545344.5999999046,A,,O,backspace,147,1,9079.799999952316,536264.7999999523,7075,WL,A,14.0
4,36.90299987792969,learn,23097.000122070312,Mon Mar 03 2025 14:05:31 GMT-0600 (Central Standard Time),545460.5999999046,A,s,O,s,107,1,9195.799999952316,536264.7999999523,7075,WL,A,14.0
4,37.1029999256134,learn,22897.000074386597,Mon Mar 03 2025 14:05:31 GMT-0600 (Central Standard Time),545660.5,A,sa,O,a,181,1,9395.700000047684,536264.7999999523,7075,WL,A,14.0
4,37.269999980926514,learn,22730.000019073486,Mon Mar 03 2025 14:05:31 GMT-0600 (Central Standard Time),545827.6999999285,A,sal,O,l,152,1,9562.899999976158,536264.7999999523,7075,WL,A,14.0
4,37.47000002861023,learn,22529.99997138977,Mon Mar 03 2025 14:05:31 GMT-0600 (Central Standard Time),546028.2999999523,A,salt,O,t,192,1,9763.5,536264.7999999523,7075,WL,A,14.0
4,37.88499999046326,learn,22115.000009536743,Mon Mar 03 2025 14:05:31 GMT-0600 (Central Standard Time),546442.3999999762,A,saltenter,O,enter,398,1,10177.600000023842,536264.7999999523,7075,WL,A,14.0
4,45.48399996757507,learn,14516.000032424927,Mon Mar 03 2025 14:05:31 GMT-0600 (Central Standard Time),554041.5999999046,A,r,O,r,7585,1,7598.899999976158,546442.6999999285,7075,WL,A,15.0
4,45.73399996757507,learn,14266.000032424927,Mon Mar 03 2025 14:05:31 GMT-0600 (Central Standard Time),554292.0,A,ra,O,a,234,1,7849.300000071526,546442.6999999285,7075,WL,A,15.0
4,45.88499999046326,learn,14115.000009536743,Mon Mar 03 2025 14:05:31 GMT-0600 (Central Standard Time),554442.3999999762,A,rat,O,t,144,1,7999.700000047684,546442.6999999285,7075,WL,A,15.0
4,46.06699991226196,learn,13933.000087738037,Mon Mar 03 2025 14:05:31 GMT-0600 (Central Standard Time),554624.7999999523,A,ratt,O,t,170,1,8182.100000023842,546442.6999999285,7075,WL,A,15.0
4,46.45099997520447,learn,13549.000024795532,Mon Mar 03 2025 14:05:31 GMT-0600 (Central Standard Time),555009.0999999046,A,rattl,O,l,379,1,8566.399999976158,546442.6999999285,7075,WL,A,15.0
4,46.615999937057495,learn,13384.000062942505,Mon Mar 03 2025 14:05:31 GMT-0600 (Central Standard Time),555174.1999999285,A,rattle,O,e,146,1,8731.5,546442.6999999285,7075,WL,A,15.0
4,46.799999952316284,learn,13200.000047683716,Mon Mar 03 2025 14:05:31 GMT-0600 (Central Standard Time),555357.6999999285,A,rattleenter,O,enter,173,1,8915.0,546442.6999999285,7075,WL,A,15.0
5,0.30099987983703613,learn,60000.0,Mon Mar 03 2025 14:05:31 GMT-0600 (Central Standard Time),622737.5,A,b,O,b,287,1,301.3000000715256,622436.1999999285,7075,WL,A,1.0
5,0.48399996757507324,learn,60000.0,Mon Mar 03 2025 14:05:31 GMT-0600 (Central Standard Time),622920.7999999523,A,bo,O,o,161,1,484.60000002384186,622436.1999999285,7075,WL,A,1.0
5,0.6659998893737793,learn,60000.0,Mon Mar 03 2025 14:05:31 GMT-0600 (Central Standard Time),623102.7999999523,A,boo,O,o,171,1,666.6000000238419,622436.1999999285,7075,WL,A,1.0
5,0.8329999446868896,learn,60000.0,Mon Mar 03 2025 14:05:31 GMT-0600 (Central Standard Time),623269.3999999762,A,book,O,k,157,1,833.2000000476837,622436.1999999285,7075,WL,A,1.0
5,1.9169998168945312,learn,60000.0,Mon Mar 03 2025 14:05:31 GMT-0600 (Central Standard Time),624353.0999999046,A,bookenter,O,enter,1069,1,1916.8999999761581,622436.1999999285,7075,WL,A,1.0
5,5.031999826431274,learn,60000.0,Mon Mar 03 2025 14:05:31 GMT-0600 (Central Standard Time),627468.0999999046,A,m,O,m,3109,1,3114.6999999284744,624353.3999999762,7075,WL,A,2.0
5,5.131999969482422,learn,60000.0,Mon Mar 03 2025 14:05:31 GMT-0600 (Central Standard Time),627568.2999999523,A,me,O,e,87,1,3214.899999976158,624353.3999999762,7075,WL,A,2.0
5,5.315999984741211,learn,60000.0,Mon Mar 03 2025 14:05:31 GMT-0600 (Central Standard Time),627752.0,A,mea,O,a,171,1,3398.600000023842,624353.3999999762,7075,WL,A,2.0
5,5.4649999141693115,learn,60000.0,Mon Mar 03 2025 14:05:31 GMT-0600 (Central Standard Time),627901.5999999046,A,mead,O,d,138,1,3548.1999999284744,624353.3999999762,7075,WL,A,2.0
5,5.648000001907349,learn,60000.0,Mon Mar 03 2025 14:05:31 GMT-0600 (Central Standard Time),628083.8999999762,A,meado,O,o,166,1,3730.5,624353.3999999762,7075,WL,A,2.0
5,5.765999794006348,learn,60000.0,Mon Mar 03 2025 14:05:31 GMT-0600 (Central Standard Time),628201.8999999762,A,meadow,O,w,103,1,3848.5,624353.3999999762,7075,WL,A,2.0
5,6.063999891281128,learn,60000.0,Mon Mar 03 2025 14:05:31 GMT-0600 (Central Standard Time),628500.7999999523,A,meadowenter,O,enter,282,1,4147.399999976158,624353.3999999762,7075,WL,A,2.0
5,6.414999961853027,learn,60000.0,Mon Mar 03 2025 14:05:31 GMT-0600 (Central Standard Time),628851.5,A,h,O,h,343,1,350.5,628501.0,7075,WL,A,3.0
5,6.581999778747559,learn,60000.0,Mon Mar 03 2025 14:05:31 GMT-0600 (Central Standard Time),629018.1999999285,A,ha,O,a,150,1,517.1999999284744,628501.0,7075,WL,A,3.0
5,6.764999866485596,learn,60000.0,Mon Mar 03 2025 14:05:31 GMT-0600 (Central Standard Time),629201.0999999046,A,hap,O,p,169,1,700.0999999046326,628501.0,7075,WL,A,3.0
5,6.914999961853027,learn,60000.0,Mon Mar 03 2025 14:05:31 GMT-0600 (Central Standard Time),629351.6999999285,A,hapr,O,r,140,1,850.6999999284744,628501.0,7075,WL,A,3.0
5,7.380999803543091,learn,60000.0,Mon Mar 03 2025 14:05:31 GMT-0600 (Central Standard Time),629817.7999999523,A,hap,O,backspace,453,1,1316.7999999523163,628501.0,7075,WL,A,3.0
5,7.5309998989105225,learn,60000.0,Mon Mar 03 2025 14:05:31 GMT-0600 (Central Standard Time),629967.2999999523,A,ha,O,backspace,136,1,1466.2999999523163,628501.0,7075,WL,A,3.0
5,8.047999858856201,learn,60000.0,Mon Mar 03 2025 14:05:31 GMT-0600 (Central Standard Time),630484.6999999285,A,har,O,r,513,1,1983.6999999284744,628501.0,7075,WL,A,3.0
5,8.413999795913696,learn,60000.0,Mon Mar 03 2025 14:05:31 GMT-0600 (Central Standard Time),630850.1999999285,A,harp,O,p,349,1,2349.1999999284744,628501.0,7075,WL,A,3.0
5,8.846999883651733,learn,60000.0,Mon Mar 03 2025 14:05:31 GMT-0600 (Central Standard Time),631283.1999999285,A,harpenter,O,enter,427,1,2782.1999999284744,628501.0,7075,WL,A,3.0
5,14.562999963760376,learn,60000.0,Mon Mar 03 2025 14:05:31 GMT-0600 (Central Standard Time),636999.5999999046,A,a,O,a,5697,1,5716.099999904633,631283.5,7075,WL,A,4.0
5,14.711999893188477,learn,60000.0,Mon Mar 03 2025 14:05:31 GMT-0600 (Central Standard Time),637148.1999999285,A,ap,O,p,132,1,5864.699999928474,631283.5,7075,WL,A,4.0
5,14.911999940872192,learn,60000.0,Mon Mar 03 2025 14:05:31 GMT-0600 (Central Standard Time),637348.2999999523,A,app,O,p,191,1,6064.799999952316,631283.5,7075,WL,A,4.0
5,15.160999774932861,learn,60000.0,Mon Mar 03 2025 14:05:31 GMT-0600 (Central Standard Time),637597.5999999046,A,appl,O,l,231,1,6314.099999904633,631283.5,7075,WL,A,4.0
5,15.36299991607666,learn,60000.0,Mon Mar 03 2025 14:05:31 GMT-0600 (Central Standard Time),637798.7999999523,A,apple,O,e,182,1,6515.299999952316,631283.5,7075,WL,A,4.0
5,15.627999782562256,learn,60000.0,Mon Mar 03 2025 14:05:31 GMT-0600 (Central Standard Time),638064.5,A,appleenter,O,enter,243,1,6781.0,631283.5,7075,WL,A,4.0
5,17.211999893188477,learn,60000.0,Mon Mar 03 2025 14:05:31 GMT-0600 (Central Standard Time),639648.1999999285,A,g,O,g,1572,1,1583.5,638064.6999999285,7075,WL,A,5.0
5,17.34499979019165,learn,60000.0,Mon Mar 03 2025 14:05:31 GMT-0600 (Central Standard Time),639781.0999999046,A,go,O,o,114,1,1716.3999999761581,638064.6999999285,7075,WL,A,5.0
5,17.611999988555908,learn,60000.0,Mon Mar 03 2025 14:05:31 GMT-0600 (Central Standard Time),640048.6999999285,A,gol,O,l,247,1,1984.0,638064.6999999285,7075,WL,A,5.0
5,17.82799983024597,learn,60000.0,Mon Mar 03 2025 14:05:31 GMT-0600 (Central Standard Time),640264.3999999762,A,gold,O,d,193,1,2199.7000000476837,638064.6999999285,7075,WL,A,5.0
5,18.110999822616577,learn,60000.0,Mon Mar 03 2025 14:05:31 GMT-0600 (Central Standard Time),640547.2999999523,A,goldenter,O,enter,266,1,2482.600000023842,638064.6999999285,7075,WL,A,5.0
5,18.794999837875366,learn,60000.0,Mon Mar 03 2025 14:05:31 GMT-0600 (Central Standard Time),641231.0999999046,A,r,O,r,673,1,683.5,640547.5999999046,7075,WL,A,6.0
5,18.92799997329712,learn,60000.0,Mon Mar 03 2025 14:05:31 GMT-0600 (Central Standard Time),641364.0,A,ru,O,u,117,1,816.4000000953674,640547.5999999046,7075,WL,A,6.0
5,19.24399995803833,learn,60000.0,Mon Mar 03 2025 14:05:31 GMT-0600 (Central Standard Time),641680.0,A,rug,O,g,296,1,1132.4000000953674,640547.5999999046,7075,WL,A,6.0
5,19.512999773025513,learn,60000.0,Mon Mar 03 2025 14:05:31 GMT-0600 (Central Standard Time),641949.2999999523,A,rugenter,O,enter,258,1,1401.7000000476837,640547.5999999046,7075,WL,A,6.0
5,24.025999784469604,learn,60000.0,Mon Mar 03 2025 14:05:31 GMT-0600 (Central Standard Time),646462.3999999762,A,h,O,h,4497,1,4512.899999976158,641949.5,7075,WL,A,7.0
5,24.143999814987183,learn,60000.0,Mon Mar 03 2025 14:05:31 GMT-0600 (Central Standard Time),646580.5,A,ha,O,a,112,1,4631.0,641949.5,7075,WL,A,7.0
5,24.477999925613403,learn,60000.0,Mon Mar 03 2025 14:05:31 GMT-0600 (Central Standard Time),646914.0999999046,A,har,O,r,326,1,4964.599999904633,641949.5,7075,WL,A,7.0
5,24.709999799728394,learn,60000.0,Mon Mar 03 2025 14:05:31 GMT-0600 (Central Standard Time),647145.8999999762,A,harp,O,p,225,1,5196.399999976158,641949.5,7075,WL,A,7.0
5,25.274999856948853,learn,60000.0,Mon Mar 03 2025 14:05:31 GMT-0600 (Central Standard Time),647711.1999999285,A,harpenter,O,enter,552,1,5761.699999928474,641949.5,7075,WL,A,7.0
5,30.656999826431274,learn,60000.0,Mon Mar 03 2025 14:05:31 GMT-0600 (Central Standard Time),653093.6999999285,A,k,O,k,5364,1,5382.199999928474,647711.5,7075,WL,A,8.0
5,30.840999841690063,learn,60000.0,Mon Mar 03 2025 14:05:31 GMT-0600 (Central Standard Time),653277.5999999046,A,ke,O,e,161,1,5566.099999904633,647711.5,7075,WL,A,8.0
5,31.10699987411499,learn,60000.0,Mon Mar 03 2025 14:05:31 GMT-0600 (Central Standard Time),653543.0,A,key,O,y,244,1,5831.5,647711.5,7075,WL,A,8.0
5,31.52300000190735,learn,60000.0,Mon Mar 03 2025 14:05:31 GMT-0600 (Central Standard Time),653959.6999999285,A,keyenter,O,enter,405,1,6248.199999928474,647711.5,7075,WL,A,8.0
5,36.17199993133545,learn,60000.0,Mon Mar 03 2025 14:05:31 GMT-0600 (Central Standard Time),658608.5,A,b,O,b,4636,1,4648.5,653960.0,7075,WL,A,9.0
5,36.38799977302551,learn,60000.0,Mon Mar 03 2025 14:05:31 GMT-0600 (Central Standard Time),658824.6999999285,A,bh,O,h,204,1,4864.699999928474,653960.0,7075,WL,A,9.0
5,36.60499978065491,learn,60000.0,Mon Mar 03 2025 14:05:31 GMT-0600 (Central Standard Time),659041.2999999523,A,bhi,O,i,203,1,5081.299999952316,653960.0,7075,WL,A,9.0
5,36.85599994659424,learn,60000.0,Mon Mar 03 2025 14:05:31 GMT-0600 (Central Standard Time),659292.2999999523,A,bhim,O,m,244,1,5332.299999952316,653960.0,7075,WL,A,9.0
5,37.121999979019165,learn,60000.0,Mon Mar 03 2025 14:05:31 GMT-0600 (Central Standard Time),659558.6999999285,A,bhimn,O,n,255,1,5598.699999928474,653960.0,7075,WL,A,9.0
5,37.537999868392944,learn,60000.0,Mon Mar 03 2025 14:05:31 GMT-0600 (Central Standard Time),659974.5999999046,A,bhim,O,backspace,406,1,6014.599999904633,653960.0,7075,WL,A,9.0
5,38.270999908447266,learn,60000.0,Mon Mar 03 2025 14:05:31 GMT-0600 (Central Standard Time),660707.3999999762,A,bhi,O,backspace,717,1,6747.399999976158,653960.0,7075,WL,A,9.0
5,38.45299983024597,learn,60000.0,Mon Mar 03 2025 14:05:31 GMT-0600 (Central Standard Time),660890.0999999046,A,bh,O,backspace,168,1,6930.099999904633,653960.0,7075,WL,A,9.0
5,38.621999979019165,learn,60000.0,Mon Mar 03 2025 14:05:31 GMT-0600 (Central Standard Time),661058.6999999285,A,b,O,backspace,162,1,7098.699999928474,653960.0,7075,WL,A,9.0
5,38.80499982833862,learn,60000.0,Mon Mar 03 2025 14:05:31 GMT-0600 (Central Standard Time),661241.7999999523,A,,O,backspace,176,1,7281.799999952316,653960.0,7075,WL,A,9.0
5,38.95699977874756,learn,60000.0,Mon Mar 03 2025 14:05:31 GMT-0600 (Central Standard Time),661393.3999999762,A,,O,backspace,147,1,7433.399999976158,653960.0,7075,WL,A,9.0
5,39.08699989318848,learn,60000.0,Mon Mar 03 2025 14:05:31 GMT-0600 (Central Standard Time),661523.5999999046,A,c,O,c,115,1,7563.599999904633,653960.0,7075,WL,A,9.0
5,39.22099995613098,learn,60000.0,Mon Mar 03 2025 14:05:31 GMT-0600 (Central Standard Time),661657.6999999285,A,ch,O,h,121,1,7697.699999928474,653960.0,7075,WL,A,9.0
5,39.40499997138977,learn,60000.0,Mon Mar 03 2025 14:05:31 GMT-0600 (Central Standard Time),661841.2999999523,A,chi,O,i,177,1,7881.299999952316,653960.0,7075,WL,A,9.0
5,39.63799977302551,learn,60000.0,Mon Mar 03 2025 14:05:31 GMT-0600 (Central Standard Time),662074.7999999523,A,chim,O,m,210,1,8114.799999952316,653960.0,7075,WL,A,9.0
5,40.002999782562256,learn,60000.0,Mon Mar 03 2025 14:05:31 GMT-0600 (Central Standard Time),662440.0,A,chimn,O,n,351,1,8480.0,653960.0,7075,WL,A,9.0
5,40.20299983024597,learn,60000.0,Mon Mar 03 2025 14:05:31 GMT-0600 (Central Standard Time),662639.7999999523,A,chimne,O,e,187,1,8679.799999952316,653960.0,7075,WL,A,9.0
5,40.40399980545044,learn,60000.0,Mon Mar 03 2025 14:05:31 GMT-0600 (Central Standard Time),662840.6999999285,A,chimney,O,y,187,1,8880.699999928474,653960.0,7075,WL,A,9.0
5,40.80299997329712,learn,60000.0,Mon Mar 03 2025 14:05:31 GMT-0600 (Central Standard Time),663239.5999999046,A,chimneyenter,O,enter,387,1,9279.599999904633,653960.0,7075,WL,A,9.0
5,42.13599991798401,learn,60000.0,Mon Mar 03 2025 14:05:31 GMT-0600 (Central Standard Time),664572.8999999762,A,l,O,l,1324,1,1333.1000000238419,663239.7999999523,7075,WL,A,10.0
5,42.40399980545044,learn,60000.0,Mon Mar 03 2025 14:05:31 GMT-0600 (Central Standard Time),664840.5999999046,A,lo,O,o,246,1,1600.7999999523163,663239.7999999523,7075,WL,A,10.0
5,42.519999980926514,learn,60000.0,Mon Mar 03 2025 14:05:31 GMT-0600 (Central Standard Time),664956.2999999523,A,log,O,g,106,1,1716.5,663239.7999999523,7075,WL,A,10.0
5,42.85099983215332,learn,60000.0,Mon Mar 03 2025 14:05:31 GMT-0600 (Central Standard Time),665287.5,A,logenter,O,enter,319,1,2047.7000000476837,663239.7999999523,7075,WL,A,10.0
5,77.27499985694885,learn,60000.0,Mon Mar 03 2025 14:05:31 GMT-0600 (Central Standard Time),699711.8999999762,A,f,O,f,34406,1,34424.200000047684,665287.6999999285,7075,WL,A,11.0
6,3.3980000019073486,distr,56601.99999809265,Mon Mar 03 2025 14:05:31 GMT-0600 (Central Standard Time),778953.2999999523,B,s,O,s,3382,1,3398.100000023842,775555.1999999285,7075,WL,A,1.0
6,3.565000057220459,distr,56434.99994277954,Mon Mar 03 2025 14:05:31 GMT-0600 (Central Standard Time),779120.5,B,sh,O,h,146,1,3565.3000000715256,775555.1999999285,7075,WL,A,1.0
6,3.7810001373291016,distr,56218.9998626709,Mon Mar 03 2025 14:05:31 GMT-0600 (Central Standard Time),779336.1999999285,B,she,O,e,194,1,3781.0,775555.1999999285,7075,WL,A,1.0
6,3.9150002002716064,distr,56084.99979972839,Mon Mar 03 2025 14:05:31 GMT-0600 (Central Standard Time),779469.6999999285,B,shee,O,e,124,1,3914.5,775555.1999999285,7075,WL,A,1.0
6,4.331000089645386,distr,55668.999910354614,Mon Mar 03 2025 14:05:31 GMT-0600 (Central Standard Time),779885.7999999523,B,sheep,O,p,406,1,4330.600000023842,775555.1999999285,7075,WL,A,1.0
6,4.965000152587891,distr,55034.99984741211,Mon Mar 03 2025 14:05:31 GMT-0600 (Central Standard Time),780520.2999999523,B,sheepenter,O,enter,622,1,4965.100000023842,775555.1999999285,7075,WL,A,1.0
6,13.912000179290771,distr,46087.99982070923,Mon Mar 03 2025 14:05:31 GMT-0600 (Central Standard Time),789467.5,B,s,O,s,8941,1,8946.900000095367,780520.5999999046,7075,WL,A,2.0
6,14.528000116348267,distr,45471.99988365173,Mon Mar 03 2025 14:05:31 GMT-0600 (Central Standard Time),790083.6999999285,B,,O,backspace,607,1,9563.100000023842,780520.5999999046,7075,WL,A,2.0
6,14.961000204086304,distr,45038.999795913696,Mon Mar 03 2025 14:05:31 GMT-0600 (Central Standard Time),790516.2999999523,B,s,O,s,426,1,9995.700000047684,780520.5999999046,7075,WL,A,2.0
6,15.07800006866455,distr,44921.99993133545,Mon Mar 03 2025 14:05:31 GMT-0600 (Central Standard Time),790633.3999999762,B,sh,O,h,103,1,10112.800000071526,780520.5999999046,7075,WL,A,2.0
6,15.394000053405762,distr,44605.99994659424,Mon Mar 03 2025 14:05:31 GMT-0600 (Central Standard Time),790949.1999999285,B,she,O,e,307,1,10428.600000023842,780520.5999999046,7075,WL,A,2.0
6,15.57800006866455,distr,44421.99993133545,Mon Mar 03 2025 14:05:31 GMT-0600 (Central Standard Time),791133.2999999523,B,shee,O,e,179,1,10612.700000047684,780520.5999999046,7075,WL,A,2.0
6,15.711000204086304,distr,44288.999795913696,Mon Mar 03 2025 14:05:31 GMT-0600 (Central Standard Time),791266.5,B,sheep,O,p,118,1,10745.900000095367,780520.5999999046,7075,WL,A,2.0
6,16.344000101089478,distr,43655.99989891052,Mon Mar 03 2025 14:05:31 GMT-0600 (Central Standard Time),791899.5999999046,B,sheepenter,O,enter,617,1,11379.0,780520.5999999046,7075,WL,A,2.0
6,24.008000135421753,distr,35991.99986457825,Mon Mar 03 2025 14:05:31 GMT-0600 (Central Standard Time),799563.1999999285,B,d,O,d,7649,1,7663.399999976158,791899.7999999523,7075,WL,A,3.0
6,25.375,distr,34625.0,Mon Mar 03 2025 14:05:31 GMT-0600 (Central Standard Time),800930.2999999523,B,da,O,a,1361,1,9030.5,791899.7999999523,7075,WL,A,3.0
6,25.724000215530396,distr,34275.999784469604,Mon Mar 03 2025 14:05:31 GMT-0600 (Central Standard Time),801280.0,B,daw,O,w,337,1,9380.200000047684,791899.7999999523,7075,WL,A,3.0
6,25.872000217437744,distr,34127.999782562256,Mon Mar 03 2025 14:05:31 GMT-0600 (Central Standard Time),801427.2999999523,B,dawn,O,n,131,1,9527.5,791899.7999999523,7075,WL,A,3.0
6,26.189000129699707,distr,33810.99987030029,Mon Mar 03 2025 14:05:31 GMT-0600 (Central Standard Time),801744.7999999523,B,dawnenter,O,enter,296,1,9845.0,791899.7999999523,7075,WL,A,3.0
6,60.01300001144409,distr,-13.000011444091797,Mon Mar 03 2025 14:05:31 GMT-0600 (Central Standard Time),835568.8999999762,B,None,O,None,33821,1,33823.89999997616,801745.0,7075,WL,A,4.0
7,2.9499998092651367,immed,57050.00019073486,Mon Mar 03 2025 14:05:31 GMT-0600 (Central Standard Time),845750.1999999285,A,m,O,m,2932,1,2949.7999999523163,842800.3999999762,7075,WL,A,1.0
7,2.996999979019165,immed,57003.000020980835,Mon Mar 03 2025 14:05:31 GMT-0600 (Central Standard Time),845796.8999999762,A,me,O,e,31,1,2996.5,842800.3999999762,7075,WL,A,1.0
7,3.3489999771118164,immed,56651.00002288818,Mon Mar 03 2025 14:05:31 GMT-0600 (Central Standard Time),846149.0999999046,A,mea,O,a,337,1,3348.6999999284744,842800.3999999762,7075,WL,A,1.0
7,3.6480000019073486,immed,56351.99999809265,Mon Mar 03 2025 14:05:31 GMT-0600 (Central Standard Time),846447.8999999762,A,mead,O,d,278,1,3647.5,842800.3999999762,7075,WL,A,1.0
7,3.8320000171661377,immed,56167.99998283386,Mon Mar 03 2025 14:05:31 GMT-0600 (Central Standard Time),846631.6999999285,A,meado,O,o,165,1,3831.2999999523163,842800.3999999762,7075,WL,A,1.0
7,3.86299991607666,immed,56137.00008392334,Mon Mar 03 2025 14:05:31 GMT-0600 (Central Standard Time),846663.2999999523,A,meadow,O,w,11,1,3862.899999976158,842800.3999999762,7075,WL,A,1.0
7,9.746999979019165,immed,50253.000020980835,Mon Mar 03 2025 14:05:31 GMT-0600 (Central Standard Time),852547.0999999046,A,meadowenter,O,enter,5870,1,9746.699999928474,842800.3999999762,7075,WL,A,1.0
7,12.746999979019165,immed,47253.000020980835,Mon Mar 03 2025 14:05:31 GMT-0600 (Central Standard Time),855547.1999999285,A,d,O,d,2995,1,2999.899999976158,852547.2999999523,7075,WL,A,2.0
7,13.77999997138977,immed,46220.00002861023,Mon Mar 03 2025 14:05:31 GMT-0600 (Central Standard Time),856579.6999999285,A,dw,O,w,1025,1,4032.399999976158,852547.2999999523,7075,WL,A,2.0
7,14.296000003814697,immed,45703.9999961853,Mon Mar 03 2025 14:05:31 GMT-0600 (Central Standard Time),857095.6999999285,A,d,O,backspace,496,1,4548.399999976158,852547.2999999523,7075,WL,A,2.0
7,14.395999908447266,immed,45604.000091552734,Mon Mar 03 2025 14:05:31 GMT-0600 (Central Standard Time),857195.7999999523,A,da,O,a,92,1,4648.5,852547.2999999523,7075,WL,A,2.0
7,14.744999885559082,immed,45255.00011444092,Mon Mar 03 2025 14:05:31 GMT-0600 (Central Standard Time),857545.2999999523,A,daw,O,w,334,1,4998.0,852547.2999999523,7075,WL,A,2.0
7,14.944999933242798,immed,45055.0000667572,Mon Mar 03 2025 14:05:31 GMT-0600 (Central Standard Time),857744.6999999285,A,dawn,O,n,179,1,5197.399999976158,852547.2999999523,7075,WL,A,2.0
7,15.345999956130981,immed,44654.00004386902,Mon Mar 03 2025 14:05:31 GMT-0600 (Central Standard Time),858145.6999999285,A,dawnenter,O,enter,384,1,5598.399999976158,852547.2999999523,7075,WL,A,2.0
7,15.810999870300293,immed,44189.00012969971,Mon Mar 03 2025 14:05:31 GMT-0600 (Central Standard Time),858610.7999999523,A,s,O,s,450,1,464.7999999523163,858146.0,7075,WL,A,3.0
7,16.211999893188477,immed,43788.00010681152,Mon Mar 03 2025 14:05:31 GMT-0600 (Central Standard Time),859012.0,A,sh,O,h,395,1,866.0,858146.0,7075,WL,A,3.0
7,16.67799997329712,immed,43322.00002670288,Mon Mar 03 2025 14:05:31 GMT-0600 (Central Standard Time),859477.6999999285,A,she,O,e,454,1,1331.6999999284744,858146.0,7075,WL,A,3.0
7,17.17799997329712,immed,42822.00002670288,Mon Mar 03 2025 14:05:31 GMT-0600 (Central Standard Time),859978.0999999046,A,shee,O,e,494,1,1832.0999999046326,858146.0,7075,WL,A,3.0
7,17.76099991798401,immed,42239.00008201599,Mon Mar 03 2025 14:05:31 GMT-0600 (Central Standard Time),860561.0999999046,A,she,O,backspace,566,1,2415.0999999046326,858146.0,7075,WL,A,3.0
7,17.960999965667725,immed,42039.000034332275,Mon Mar 03 2025 14:05:31 GMT-0600 (Central Standard Time),860760.7999999523,A,sh,O,backspace,176,1,2614.7999999523163,858146.0,7075,WL,A,3.0
7,18.145999908447266,immed,41854.000091552734,Mon Mar 03 2025 14:05:31 GMT-0600 (Central Standard Time),860945.6999999285,A,s,O,backspace,178,1,2799.6999999284744,858146.0,7075,WL,A,3.0
7,18.32799983024597,immed,41672.00016975403,Mon Mar 03 2025 14:05:31 GMT-0600 (Central Standard Time),861127.6999999285,A,,O,backspace,168,1,2981.6999999284744,858146.0,7075,WL,A,3.0
7,18.509999990463257,immed,41490.00000953674,Mon Mar 03 2025 14:05:31 GMT-0600 (Central Standard Time),861310.0,A,,O,backspace,169,1,3164.0,858146.0,7075,WL,A,3.0
7,31.256999969482422,immed,28743.000030517578,Mon Mar 03 2025 14:05:31 GMT-0600 (Central Standard Time),874056.5,A,c,O,c,12735,1,15910.5,858146.0,7075,WL,A,3.0
7,31.372999906539917,immed,28627.000093460083,Mon Mar 03 2025 14:05:31 GMT-0600 (Central Standard Time),874173.0,A,ch,O,h,98,1,16027.0,858146.0,7075,WL,A,3.0
7,31.455999851226807,immed,28544.000148773193,Mon Mar 03 2025 14:05:31 GMT-0600 (Central Standard Time),874256.2999999523,A,chi,O,i,69,1,16110.299999952316,858146.0,7075,WL,A,3.0
7,31.70799994468689,immed,28292.00005531311,Mon Mar 03 2025 14:05:31 GMT-0600 (Central Standard Time),874507.5999999046,A,chin,O,n,244,1,16361.599999904633,858146.0,7075,WL,A,3.0
7,32.12299990653992,immed,27877.000093460083,Mon Mar 03 2025 14:05:31 GMT-0600 (Central Standard Time),874923.0999999046,A,chinm,O,m,407,1,16777.099999904633,858146.0,7075,WL,A,3.0
7,32.50699996948242,immed,27493.000030517578,Mon Mar 03 2025 14:05:31 GMT-0600 (Central Standard Time),875306.5999999046,A,chin,O,backspace,369,1,17160.599999904633,858146.0,7075,WL,A,3.0
7,32.67399978637695,immed,27326.000213623047,Mon Mar 03 2025 14:05:31 GMT-0600 (Central Standard Time),875473.7999999523,A,chi,O,backspace,145,1,17327.799999952316,858146.0,7075,WL,A,3.0
7,32.90599989891052,immed,27094.000101089478,Mon Mar 03 2025 14:05:31 GMT-0600 (Central Standard Time),875706.3999999762,A,chim,O,m,216,1,17560.399999976158,858146.0,7075,WL,A,3.0
7,33.07299995422363,immed,26927.000045776367,Mon Mar 03 2025 14:05:31 GMT-0600 (Central Standard Time),875872.5,A,chime,O,e,152,1,17726.5,858146.0,7075,WL,A,3.0
7,33.723999977111816,immed,26276.000022888184,Mon Mar 03 2025 14:05:31 GMT-0600 (Central Standard Time),876523.7999999523,A,chim,O,backspace,644,1,18377.799999952316,858146.0,7075,WL,A,3.0
7,34.12299990653992,immed,25877.000093460083,Mon Mar 03 2025 14:05:31 GMT-0600 (Central Standard Time),876923.0999999046,A,chimn,O,n,381,1,18777.099999904633,858146.0,7075,WL,A,3.0
7,34.43899989128113,immed,25561.000108718872,Mon Mar 03 2025 14:05:31 GMT-0600 (Central Standard Time),877238.7999999523,A,chimne,O,e,302,1,19092.799999952316,858146.0,7075,WL,A,3.0
7,34.555999994277954,immed,25444.000005722046,Mon Mar 03 2025 14:05:31 GMT-0600 (Central Standard Time),877356.1999999285,A,chimney,O,y,111,1,19210.199999928474,858146.0,7075,WL,A,3.0
7,34.871999979019165,immed,25128.000020980835,Mon Mar 03 2025 14:05:31 GMT-0600 (Central Standard Time),877671.8999999762,A,chimneyenter,O,enter,293,1,19525.899999976158,858146.0,7075,WL,A,3.0
7,35.88800001144409,immed,24111.99998855591,Mon Mar 03 2025 14:05:31 GMT-0600 (Central Standard Time),878688.0,A,k,O,k,995,1,1015.9000000953674,877672.0999999046,7075,WL,A,4.0
7,36.05499982833862,immed,23945.000171661377,Mon Mar 03 2025 14:05:31 GMT-0600 (Central Standard Time),878855.0,A,ke,O,e,146,1,1182.9000000953674,877672.0999999046,7075,WL,A,4.0
7,36.25599980354309,immed,23744.00019645691,Mon Mar 03 2025 14:05:31 GMT-0600 (Central Standard Time),879055.3999999762,A,key,O,y,178,1,1383.3000000715256,877672.0999999046,7075,WL,A,4.0
7,36.52199983596802,immed,23478.000164031982,Mon Mar 03 2025 14:05:31 GMT-0600 (Central Standard Time),879321.8999999762,A,keyenter,O,enter,260,1,1649.8000000715256,877672.0999999046,7075,WL,A,4.0
7,36.888999938964844,immed,23111.000061035156,Mon Mar 03 2025 14:05:31 GMT-0600 (Central Standard Time),879689.0999999046,A,a,O,a,346,1,367.0,879322.0999999046,7075,WL,A,5.0
7,37.15399980545044,immed,22846.00019454956,Mon Mar 03 2025 14:05:31 GMT-0600 (Central Standard Time),879953.6999999285,A,ap,O,p,247,1,631.6000000238419,879322.0999999046,7075,WL,A,5.0
7,37.33799982070923,immed,22662.00017929077,Mon Mar 03 2025 14:05:31 GMT-0600 (Central Standard Time),880138.0999999046,A,app,O,p,169,1,816.0,879322.0999999046,7075,WL,A,5.0
7,37.5719997882843,immed,22428.0002117157,Mon Mar 03 2025 14:05:31 GMT-0600 (Central Standard Time),880371.5,A,appl,O,l,228,1,1049.4000000953674,879322.0999999046,7075,WL,A,5.0
7,37.72199988365173,immed,22278.000116348267,Mon Mar 03 2025 14:05:31 GMT-0600 (Central Standard Time),880521.5999999046,A,apple,O,e,135,1,1199.5,879322.0999999046,7075,WL,A,5.0
7,37.90299987792969,immed,22097.000122070312,Mon Mar 03 2025 14:05:31 GMT-0600 (Central Standard Time),880703.1999999285,A,appleenter,O,enter,168,1,1381.1000000238419,879322.0999999046,7075,WL,A,5.0
7,47.98599982261658,immed,12014.000177383423,Mon Mar 03 2025 14:05:31 GMT-0600 (Central Standard Time),890786.0999999046,A,l,O,l,10079,1,10082.599999904633,880703.5,7075,WL,A,6.0
7,48.30199980735779,immed,11698.000192642212,Mon Mar 03 2025 14:05:31 GMT-0600 (Central Standard Time),891102.1999999285,A,lo,O,o,299,1,10398.699999928474,880703.5,7075,WL,A,6.0
7,48.43400001525879,immed,11565.999984741211,Mon Mar 03 2025 14:05:31 GMT-0600 (Central Standard Time),891233.5,A,log,O,g,116,1,10530.0,880703.5,7075,WL,A,6.0
7,48.68400001525879,immed,11315.999984741211,Mon Mar 03 2025 14:05:31 GMT-0600 (Central Standard Time),891484.1999999285,A,logenter,O,enter,242,1,10780.699999928474,880703.5,7075,WL,A,6.0
7,57.56499981880188,immed,2435.00018119812,Mon Mar 03 2025 14:05:31 GMT-0600 (Central Standard Time),900365.3999999762,A,g,O,g,8864,1,8881.100000023842,891484.2999999523,7075,WL,A,7.0
7,57.66799998283386,immed,2332.0000171661377,Mon Mar 03 2025 14:05:31 GMT-0600 (Central Standard Time),900468.8999999762,A,go,O,o,95,1,8984.600000023842,891484.2999999523,7075,WL,A,7.0
7,57.9469997882843,immed,2053.0002117156982,Mon Mar 03 2025 14:05:31 GMT-0600 (Central Standard Time),900746.8999999762,A,gol,O,l,264,1,9262.600000023842,891484.2999999523,7075,WL,A,7.0
7,58.09699988365173,immed,1903.0001163482666,Mon Mar 03 2025 14:05:31 GMT-0600 (Central Standard Time),900897.6999999285,A,gold,O,d,138,1,9413.399999976158,891484.2999999523,7075,WL,A,7.0
7,58.263999938964844,immed,1736.0000610351562,Mon Mar 03 2025 14:05:31 GMT-0600 (Central Standard Time),901064.2999999523,A,goldenter,O,enter,145,1,9580.0,891484.2999999523,7075,WL,A,7.0
7,60.013999938964844,immed,-13.99993896484375,Mon Mar 03 2025 14:05:31 GMT-0600 (Central Standard Time),902814.2999999523,A,None,O,None,1745,1,1749.7000000476837,901064.5999999046,7075,WL,A,8.0
