acc_sum,block,block_c,change,condition,correct,correct_response,datetime,endtime,face,project,response,response_time,row_sel,session_number,start_end,starttime,subject_id,task,task_vers,trial
0,prac,1,,1-Back,,,Mon Feb 03 2025 14:06:13 GMT-0600 (Central Standard Time),,005_o_f_d_a.png,I,space,5395,1,1,,,8026,VNB,B,0
1,prac,1,0.0,1-Back,1,m,Mon Feb 03 2025 14:06:13 GMT-0600 (Central Standard Time),173060.80000000075,020_y_f_n_a.png,I,m,1757,2,1,2625.600000000559,170435.2000000002,8026,VNB,B,1
1,prac,1,0.0,1-Back,0,m,Mon Feb 03 2025 14:06:13 GMT-0600 (Central Standard Time),175960.10000000056,007_m_m_h_a.png,I,None,2015,3,1,2893.5,173066.60000000056,8026,VNB,B,2
2,prac,1,0.0,1-Back,1,m,Mon Feb 03 2025 14:06:13 GMT-0600 (Central Standard Time),177892.30000000075,016_y_m_d_a.png,I,m,1043,4,1,1926.4000000003725,175965.90000000037,8026,VNB,B,3
3,prac,1,0.0,1-Back,1,m,Mon Feb 03 2025 14:06:13 GMT-0600 (Central Standard Time),180025.2000000002,005_o_f_n_a.png,I,m,1225,5,1,2126.399999999441,177898.80000000075,8026,VNB,B,4
3,prac,1,1.0,1-Back,0,z,Mon Feb 03 2025 14:06:13 GMT-0600 (Central Standard Time),181741.40000000037,016_y_m_n_a.png,I,m,827,6,1,1710.2000000001863,180031.2000000002,8026,VNB,B,5
4,prac,1,0.0,1-Back,1,m,Mon Feb 03 2025 14:06:13 GMT-0600 (Central Standard Time),183773.90000000037,004_o_m_h_a.png,I,m,1148,7,1,2026.7999999998137,181747.10000000056,8026,VNB,B,6
5,prac,1,0.0,1-Back,1,m,Mon Feb 03 2025 14:06:13 GMT-0600 (Central Standard Time),185658.0,011_m_f_d_a.png,I,m,981,8,1,1874.7999999998137,183783.2000000002,8026,VNB,B,7
5,prac,1,1.0,1-Back,0,z,Mon Feb 03 2025 14:06:13 GMT-0600 (Central Standard Time),187839.60000000056,020_y_f_d_a.png,I,m,1300,9,1,2176.0,185663.60000000056,8026,VNB,B,8
6,prac,1,0.0,1-Back,1,m,Mon Feb 03 2025 14:06:13 GMT-0600 (Central Standard Time),190039.0,007_m_m_n_a.png,I,m,1296,10,1,2193.399999999441,187845.60000000056,8026,VNB,B,9
6,prac,1,0.0,1-Back,0,m,Mon Feb 03 2025 14:06:13 GMT-0600 (Central Standard Time),191905.0,005_o_f_h_a.png,I,z,970,11,1,1860.8999999994412,190044.10000000056,8026,VNB,B,10
7,prac,1,0.0,1-Back,1,m,Mon Feb 03 2025 14:06:13 GMT-0600 (Central Standard Time),194237.60000000056,016_y_m_d_a.png,I,m,1443,12,1,2326.7000000001863,191910.90000000037,8026,VNB,B,11
0,prac,2,0.0,1-Back,,,Mon Feb 03 2025 14:06:13 GMT-0600 (Central Standard Time),194237.60000000056,005_o_f_d_a.png,I,a,7089,1,1,2326.7000000001863,191910.90000000037,8026,VNB,B,0
1,prac,2,0.0,1-Back,1,m,Mon Feb 03 2025 14:06:13 GMT-0600 (Central Standard Time),206516.90000000037,020_y_f_n_a.png,I,m,1274,2,1,2143.2000000001863,204373.7000000002,8026,VNB,B,1
2,prac,2,0.0,1-Back,1,m,Mon Feb 03 2025 14:06:13 GMT-0600 (Central Standard Time),208882.90000000037,007_m_m_h_a.png,I,m,1464,3,1,2360.0999999996275,206522.80000000075,8026,VNB,B,2
3,prac,2,0.0,1-Back,1,m,Mon Feb 03 2025 14:06:13 GMT-0600 (Central Standard Time),210699.10000000056,016_y_m_d_a.png,I,m,1033,4,1,1809.7000000001863,208889.40000000037,8026,VNB,B,3
4,prac,2,0.0,1-Back,1,m,Mon Feb 03 2025 14:06:13 GMT-0600 (Central Standard Time),213515.0,005_o_f_n_a.png,I,m,1920,5,1,2810.0,210705.0,8026,VNB,B,4
5,prac,2,1.0,1-Back,1,z,Mon Feb 03 2025 14:06:13 GMT-0600 (Central Standard Time),215547.60000000056,016_y_m_n_a.png,I,z,1143,6,1,2026.6000000005588,213521.0,8026,VNB,B,5
6,prac,2,0.0,1-Back,1,m,Mon Feb 03 2025 14:06:13 GMT-0600 (Central Standard Time),217830.2000000002,004_o_m_h_a.png,I,m,1419,7,1,2277.5,215552.7000000002,8026,VNB,B,6
7,prac,2,0.0,1-Back,1,m,Mon Feb 03 2025 14:06:13 GMT-0600 (Central Standard Time),220379.5,011_m_f_d_a.png,I,m,1668,8,1,2542.699999999255,217836.80000000075,8026,VNB,B,7
7,prac,2,1.0,1-Back,0,z,Mon Feb 03 2025 14:06:13 GMT-0600 (Central Standard Time),222112.0,020_y_f_d_a.png,I,m,851,9,1,1726.7999999998137,220385.2000000002,8026,VNB,B,8
8,prac,2,0.0,1-Back,1,m,Mon Feb 03 2025 14:06:13 GMT-0600 (Central Standard Time),224461.5,007_m_m_n_a.png,I,m,1454,10,1,2343.699999999255,222117.80000000075,8026,VNB,B,9
9,prac,2,0.0,1-Back,1,m,Mon Feb 03 2025 14:06:13 GMT-0600 (Central Standard Time),226444.2000000002,005_o_f_h_a.png,I,m,1102,11,1,1976.8999999994412,224467.30000000075,8026,VNB,B,10
9,prac,2,0.0,1-Back,0,m,Mon Feb 03 2025 14:06:13 GMT-0600 (Central Standard Time),229343.10000000056,016_y_m_d_a.png,I,None,2010,12,1,2892.4000000003725,226450.7000000002,8026,VNB,B,11
0,test,1,0.0,1-Back,,,Mon Feb 03 2025 14:06:13 GMT-0600 (Central Standard Time),229343.10000000056,020_y_f_d_a.png,I,space,11309,1,1,2892.4000000003725,226450.7000000002,8026,VNB,B,0
1,test,1,0.0,1-Back,1,m,Mon Feb 03 2025 14:06:13 GMT-0600 (Central Standard Time),250319.90000000037,011_m_f_n_a.png,I,m,1169,2,1,2195.2999999998137,248124.60000000056,8026,VNB,B,1
2,test,1,0.0,1-Back,1,m,Mon Feb 03 2025 14:06:13 GMT-0600 (Central Standard Time),252769.2000000002,004_o_m_h_a.png,I,m,1419,3,1,2445.0,250324.2000000002,8026,VNB,B,2
3,test,1,1.0,1-Back,1,z,Mon Feb 03 2025 14:06:13 GMT-0600 (Central Standard Time),254685.10000000056,007_m_m_h_a.png,I,z,896,4,1,1912.4000000003725,252772.7000000002,8026,VNB,B,3
4,test,1,0.0,1-Back,1,m,Mon Feb 03 2025 14:06:13 GMT-0600 (Central Standard Time),256718.0,005_o_f_n_a.png,I,m,1005,5,1,2029.0999999996275,254688.90000000037,8026,VNB,B,4
5,test,1,0.0,1-Back,1,m,Mon Feb 03 2025 14:06:13 GMT-0600 (Central Standard Time),259067.2000000002,016_y_m_d_a.png,I,m,1258,6,1,2345.2000000001863,256722.0,8026,VNB,B,5
6,test,1,1.0,1-Back,1,z,Mon Feb 03 2025 14:06:13 GMT-0600 (Central Standard Time),261433.30000000075,011_m_f_d_a.png,I,z,1301,7,1,2362.300000000745,259071.0,8026,VNB,B,6
7,test,1,0.0,1-Back,1,m,Mon Feb 03 2025 14:06:13 GMT-0600 (Central Standard Time),263782.2000000002,020_y_f_h_a.png,I,m,1288,8,1,2345.0,261437.2000000002,8026,VNB,B,7
8,test,1,0.0,1-Back,1,m,Mon Feb 03 2025 14:06:13 GMT-0600 (Central Standard Time),266148.5,004_o_m_n_a.png,I,m,1314,9,1,2362.399999999441,263786.10000000056,8026,VNB,B,8
9,test,1,0.0,1-Back,1,m,Mon Feb 03 2025 14:06:13 GMT-0600 (Central Standard Time),268514.4000000004,016_y_m_h_a.png,I,m,1309,10,1,2362.0999999996275,266152.30000000075,8026,VNB,B,9
10,test,1,0.0,1-Back,1,m,Mon Feb 03 2025 14:06:13 GMT-0600 (Central Standard Time),271063.4000000004,004_o_m_d_a.png,I,m,1486,11,1,2545.2999999998137,268518.10000000056,8026,VNB,B,10
11,test,1,1.0,1-Back,1,z,Mon Feb 03 2025 14:06:13 GMT-0600 (Central Standard Time),273113.9000000004,005_o_f_d_a.png,I,z,993,12,1,2046.2999999998137,271067.60000000056,8026,VNB,B,11
12,test,1,0.0,1-Back,1,m,Mon Feb 03 2025 14:06:13 GMT-0600 (Central Standard Time),275445.4000000004,007_m_m_n_a.png,I,m,1272,13,1,2327.2999999998137,273118.10000000056,8026,VNB,B,12
13,test,1,1.0,1-Back,1,z,Mon Feb 03 2025 14:06:13 GMT-0600 (Central Standard Time),277611.30000000075,020_y_f_n_a.png,I,z,1107,14,1,2162.0,275449.30000000075,8026,VNB,B,13
14,test,1,0.0,1-Back,1,m,Mon Feb 03 2025 14:06:13 GMT-0600 (Central Standard Time),279960.80000000075,011_m_f_h_a.png,I,m,1286,15,1,2345.7000000001863,277615.10000000056,8026,VNB,B,14
15,test,1,0.0,1-Back,1,m,Mon Feb 03 2025 14:06:13 GMT-0600 (Central Standard Time),282309.9000000004,007_m_m_d_a.png,I,m,1296,16,1,2345.5999999996275,279964.30000000075,8026,VNB,B,15
16,test,1,0.0,1-Back,1,m,Mon Feb 03 2025 14:06:13 GMT-0600 (Central Standard Time),284659.10000000056,016_y_m_n_a.png,I,m,1282,17,1,2345.2000000001863,282313.9000000004,8026,VNB,B,16
17,test,1,0.0,1-Back,1,m,Mon Feb 03 2025 14:06:13 GMT-0600 (Central Standard Time),287025.0,005_o_f_h_a.png,I,m,1302,18,1,2361.899999999441,284663.10000000056,8026,VNB,B,17
0,test,2,0.0,1-Back,,,Mon Feb 03 2025 14:06:13 GMT-0600 (Central Standard Time),287025.0,016_y_m_n_a.png,I,space,2131,1,1,2361.899999999441,284663.10000000056,8026,VNB,B,0
1,test,2,0.0,1-Back,1,m,Mon Feb 03 2025 14:06:13 GMT-0600 (Central Standard Time),293356.80000000075,020_y_f_h_a.png,I,m,1007,2,1,2062.100000000559,291294.7000000002,8026,VNB,B,1
2,test,2,1.0,1-Back,1,m,Mon Feb 03 2025 14:06:13 GMT-0600 (Central Standard Time),295639.0,004_o_m_n_a.png,I,m,1228,3,1,2278.399999999441,293360.60000000056,8026,VNB,B,2
3,test,2,0.0,1-Back,1,m,Mon Feb 03 2025 14:06:13 GMT-0600 (Central Standard Time),298104.9000000004,011_m_f_d_a.png,I,m,1402,4,1,2461.7000000001863,295643.2000000002,8026,VNB,B,3
4,test,2,0.0,1-Back,1,z,Mon Feb 03 2025 14:06:13 GMT-0600 (Central Standard Time),300154.4000000004,007_m_m_d_a.png,I,z,991,5,1,2045.4000000003725,298109.0,8026,VNB,B,4
5,test,2,0.0,1-Back,1,m,Mon Feb 03 2025 14:06:13 GMT-0600 (Central Standard Time),302353.7000000002,016_y_m_h_a.png,I,m,1135,6,1,2195.0,300158.7000000002,8026,VNB,B,5
6,test,2,1.0,1-Back,1,z,Mon Feb 03 2025 14:06:13 GMT-0600 (Central Standard Time),304336.4000000004,005_o_f_h_a.png,I,z,911,7,1,1978.7999999998137,302357.60000000056,8026,VNB,B,6
7,test,2,0.0,1-Back,1,m,Mon Feb 03 2025 14:06:13 GMT-0600 (Central Standard Time),306602.4000000004,011_m_f_n_a.png,I,m,1210,8,1,2261.7000000001863,304340.7000000002,8026,VNB,B,7
8,test,2,0.0,1-Back,1,m,Mon Feb 03 2025 14:06:13 GMT-0600 (Central Standard Time),308851.80000000075,020_y_f_d_a.png,I,m,1191,9,1,2245.9000000003725,306605.9000000004,8026,VNB,B,8
9,test,2,0.0,1-Back,1,m,Mon Feb 03 2025 14:06:13 GMT-0600 (Central Standard Time),311301.0,007_m_m_n_a.png,I,m,1382,10,1,2444.899999999441,308856.10000000056,8026,VNB,B,9
10,test,2,1.0,1-Back,1,m,Mon Feb 03 2025 14:06:13 GMT-0600 (Central Standard Time),313633.7000000002,011_m_f_h_a.png,I,m,1243,11,1,2329.2999999998137,311304.4000000004,8026,VNB,B,10
11,test,2,0.0,1-Back,1,z,Mon Feb 03 2025 14:06:13 GMT-0600 (Central Standard Time),315616.0,004_o_m_h_a.png,I,z,928,12,1,1978.3999999994412,313637.60000000056,8026,VNB,B,11
12,test,2,0.0,1-Back,1,m,Mon Feb 03 2025 14:06:13 GMT-0600 (Central Standard Time),317699.10000000056,016_y_m_d_a.png,I,m,1024,13,1,2079.2999999998137,315619.80000000075,8026,VNB,B,12
13,test,2,0.0,1-Back,1,m,Mon Feb 03 2025 14:06:13 GMT-0600 (Central Standard Time),320014.9000000004,005_o_f_n_a.png,I,m,1261,14,1,2311.7999999998137,317703.10000000056,8026,VNB,B,13
14,test,2,0.0,1-Back,1,z,Mon Feb 03 2025 14:06:13 GMT-0600 (Central Standard Time),322181.0,020_y_f_n_a.png,I,z,1099,15,1,2161.7999999998137,320019.2000000002,8026,VNB,B,14
15,test,2,1.0,1-Back,1,m,Mon Feb 03 2025 14:06:13 GMT-0600 (Central Standard Time),324546.60000000056,007_m_m_h_a.png,I,m,1300,16,1,2361.4000000003725,322185.2000000002,8026,VNB,B,15
16,test,2,0.0,1-Back,1,m,Mon Feb 03 2025 14:06:13 GMT-0600 (Central Standard Time),326912.80000000075,005_o_f_d_a.png,I,m,1310,17,1,2362.2000000001863,324550.60000000056,8026,VNB,B,16
17,test,2,1.0,1-Back,1,z,Mon Feb 03 2025 14:06:13 GMT-0600 (Central Standard Time),328928.60000000056,004_o_m_d_a.png,I,z,960,18,1,2011.7999999998137,326916.80000000075,8026,VNB,B,17
0,test,3,1.0,1-Back,,,Mon Feb 03 2025 14:06:13 GMT-0600 (Central Standard Time),328928.60000000056,005_o_f_h_a.png,I,space,1555,1,1,2011.7999999998137,326916.80000000075,8026,VNB,B,0
1,test,3,0.0,1-Back,1,m,Mon Feb 03 2025 14:06:13 GMT-0600 (Central Standard Time),334826.80000000075,011_m_f_d_a.png,I,m,1182,2,1,2211.800000000745,332615.0,8026,VNB,B,1
2,test,3,1.0,1-Back,1,m,Mon Feb 03 2025 14:06:13 GMT-0600 (Central Standard Time),337226.10000000056,007_m_m_n_a.png,I,m,1368,3,1,2395.2000000001863,334830.9000000004,8026,VNB,B,2
3,test,3,0.0,1-Back,1,z,Mon Feb 03 2025 14:06:13 GMT-0600 (Central Standard Time),339275.7000000002,005_o_f_n_a.png,I,z,950,4,1,2045.2000000001863,337230.5,8026,VNB,B,3
4,test,3,1.0,1-Back,1,m,Mon Feb 03 2025 14:06:13 GMT-0600 (Central Standard Time),341341.4000000004,004_o_m_d_a.png,I,m,1006,5,1,2060.7000000001863,339280.7000000002,8026,VNB,B,4
5,test,3,0.0,1-Back,1,m,Mon Feb 03 2025 14:06:13 GMT-0600 (Central Standard Time),343657.30000000075,020_y_f_h_a.png,I,m,1260,6,1,2312.300000000745,341345.0,8026,VNB,B,5
6,test,3,0.0,1-Back,1,z,Mon Feb 03 2025 14:06:13 GMT-0600 (Central Standard Time),345606.5,016_y_m_h_a.png,I,z,896,7,1,1944.7999999998137,343661.7000000002,8026,VNB,B,6
7,test,3,0.0,1-Back,1,m,Mon Feb 03 2025 14:06:13 GMT-0600 (Central Standard Time),347589.60000000056,011_m_f_n_a.png,I,m,923,8,1,1979.2999999998137,345610.30000000075,8026,VNB,B,7
8,test,3,0.0,1-Back,1,m,Mon Feb 03 2025 14:06:13 GMT-0600 (Central Standard Time),349688.9000000004,020_y_f_d_a.png,I,m,1068,9,1,2095.4000000003725,347593.5,8026,VNB,B,8
9,test,3,1.0,1-Back,1,m,Mon Feb 03 2025 14:06:13 GMT-0600 (Central Standard Time),352332.5,004_o_m_n_a.png,I,m,1592,10,1,2640.2999999998137,349692.2000000002,8026,VNB,B,9
10,test,3,0.0,1-Back,1,m,Mon Feb 03 2025 14:06:13 GMT-0600 (Central Standard Time),354370.7000000002,007_m_m_h_a.png,I,m,959,11,1,2034.0999999996275,352336.60000000056,8026,VNB,B,10
11,test,3,0.0,1-Back,1,z,Mon Feb 03 2025 14:06:13 GMT-0600 (Central Standard Time),356303.5,011_m_f_h_a.png,I,z,868,12,1,1928.5,354375.0,8026,VNB,B,11
12,test,3,1.0,1-Back,1,m,Mon Feb 03 2025 14:06:13 GMT-0600 (Central Standard Time),358202.7000000002,005_o_f_d_a.png,I,m,842,13,1,1895.3999999994412,356307.30000000075,8026,VNB,B,12
13,test,3,0.0,1-Back,1,z,Mon Feb 03 2025 14:06:13 GMT-0600 (Central Standard Time),360185.60000000056,007_m_m_d_a.png,I,z,918,14,1,1979.6000000005588,358206.0,8026,VNB,B,13
14,test,3,0.0,1-Back,1,m,Mon Feb 03 2025 14:06:13 GMT-0600 (Central Standard Time),362451.60000000056,016_y_m_n_a.png,I,m,1206,15,1,2262.2000000001863,360189.4000000004,8026,VNB,B,14
14,test,3,1.0,1-Back,0,m,Mon Feb 03 2025 14:06:13 GMT-0600 (Central Standard Time),364434.2000000002,004_o_m_h_a.png,I,z,918,16,1,1978.7999999998137,362455.4000000004,8026,VNB,B,15
15,test,3,0.0,1-Back,1,m,Mon Feb 03 2025 14:06:13 GMT-0600 (Central Standard Time),366583.7000000002,016_y_m_d_a.png,I,m,1086,17,1,2144.7000000001863,364439.0,8026,VNB,B,16
16,test,3,1.0,1-Back,1,m,Mon Feb 03 2025 14:06:13 GMT-0600 (Central Standard Time),369199.60000000056,020_y_f_n_a.png,I,m,1562,18,1,2612.0,366587.60000000056,8026,VNB,B,17
0,test,4,1.0,1-Back,,,Mon Feb 03 2025 14:06:13 GMT-0600 (Central Standard Time),369199.60000000056,007_m_m_d_a.png,I,space,2036,1,1,2612.0,366587.60000000056,8026,VNB,B,0
0,test,4,0.0,1-Back,0,z,Mon Feb 03 2025 14:06:13 GMT-0600 (Central Standard Time),376297.4000000004,004_o_m_d_a.png,I,None,2014,2,1,3028.4000000003725,373269.0,8026,VNB,B,1
1,test,4,0.0,1-Back,1,m,Mon Feb 03 2025 14:06:13 GMT-0600 (Central Standard Time),378613.2000000002,016_y_m_h_a.png,I,m,1289,3,1,2312.0999999996275,376301.10000000056,8026,VNB,B,2
2,test,4,0.0,1-Back,1,m,Mon Feb 03 2025 14:06:13 GMT-0600 (Central Standard Time),380845.5,011_m_f_n_a.png,I,m,1212,4,1,2229.0999999996275,378616.4000000004,8026,VNB,B,3
3,test,4,1.0,1-Back,1,m,Mon Feb 03 2025 14:06:13 GMT-0600 (Central Standard Time),383095.10000000056,005_o_f_h_a.png,I,m,1229,5,1,2246.5,380848.60000000056,8026,VNB,B,4
4,test,4,0.0,1-Back,1,m,Mon Feb 03 2025 14:06:13 GMT-0600 (Central Standard Time),384994.60000000056,007_m_m_n_a.png,I,m,867,6,1,1895.6000000005588,383099.0,8026,VNB,B,5
5,test,4,0.0,1-Back,1,m,Mon Feb 03 2025 14:06:13 GMT-0600 (Central Standard Time),387060.4000000004,016_y_m_d_a.png,I,m,1040,7,1,2062.0,384998.4000000004,8026,VNB,B,6
6,test,4,1.0,1-Back,1,z,Mon Feb 03 2025 14:06:13 GMT-0600 (Central Standard Time),389692.9000000004,020_y_f_d_a.png,I,z,1613,8,1,2628.5,387064.4000000004,8026,VNB,B,7
7,test,4,0.0,1-Back,1,m,Mon Feb 03 2025 14:06:13 GMT-0600 (Central Standard Time),391925.80000000075,011_m_f_h_a.png,I,m,1206,9,1,2229.0,389696.80000000075,8026,VNB,B,8
8,test,4,0.0,1-Back,1,z,Mon Feb 03 2025 14:06:13 GMT-0600 (Central Standard Time),393908.60000000056,004_o_m_h_a.png,I,z,948,10,1,1978.7000000001863,391929.9000000004,8026,VNB,B,9
9,test,4,1.0,1-Back,1,m,Mon Feb 03 2025 14:06:13 GMT-0600 (Central Standard Time),395891.5,005_o_f_n_a.png,I,m,949,11,1,1978.7999999998137,393912.7000000002,8026,VNB,B,10
10,test,4,0.0,1-Back,1,m,Mon Feb 03 2025 14:06:13 GMT-0600 (Central Standard Time),398223.60000000056,011_m_f_d_a.png,I,m,1310,12,1,2327.9000000003725,395895.7000000002,8026,VNB,B,11
11,test,4,0.0,1-Back,1,m,Mon Feb 03 2025 14:06:13 GMT-0600 (Central Standard Time),400439.60000000056,020_y_f_n_a.png,I,m,1114,13,1,2212.100000000559,398227.5,8026,VNB,B,12
12,test,4,0.0,1-Back,1,m,Mon Feb 03 2025 14:06:13 GMT-0600 (Central Standard Time),402772.2000000002,005_o_f_d_a.png,I,m,1299,14,1,2329.2999999998137,400442.9000000004,8026,VNB,B,13
13,test,4,0.0,1-Back,1,m,Mon Feb 03 2025 14:06:13 GMT-0600 (Central Standard Time),405055.0,020_y_f_h_a.png,I,m,1253,15,1,2278.899999999441,402776.10000000056,8026,VNB,B,14
14,test,4,1.0,1-Back,1,z,Mon Feb 03 2025 14:06:13 GMT-0600 (Central Standard Time),407221.0,007_m_m_h_a.png,I,z,1140,16,1,2161.899999999441,405059.10000000056,8026,VNB,B,15
15,test,4,0.0,1-Back,1,m,Mon Feb 03 2025 14:06:13 GMT-0600 (Central Standard Time),409286.80000000075,004_o_m_n_a.png,I,m,1046,17,1,2062.100000000559,407224.7000000002,8026,VNB,B,16
16,test,4,1.0,1-Back,1,z,Mon Feb 03 2025 14:06:13 GMT-0600 (Central Standard Time),411303.80000000075,016_y_m_n_a.png,I,z,988,18,1,2012.7000000001863,409291.10000000056,8026,VNB,B,17
0,test,5,1.0,1-Back,,,Mon Feb 03 2025 14:06:13 GMT-0600 (Central Standard Time),411303.80000000075,004_o_m_n_a.png,I,space,1620,1,1,2012.7000000001863,409291.10000000056,8026,VNB,B,0
1,test,5,1.0,1-Back,1,m,Mon Feb 03 2025 14:06:13 GMT-0600 (Central Standard Time),417151.2000000002,005_o_f_h_a.png,I,m,1054,2,1,2112.2000000001863,415039.0,8026,VNB,B,1
2,test,5,0.0,1-Back,1,m,Mon Feb 03 2025 14:06:13 GMT-0600 (Central Standard Time),419283.9000000004,016_y_m_d_a.png,I,m,1074,3,1,2128.7999999998137,417155.10000000056,8026,VNB,B,2
3,test,5,0.0,1-Back,1,z,Mon Feb 03 2025 14:06:13 GMT-0600 (Central Standard Time),421299.9000000004,004_o_m_d_a.png,I,z,957,4,1,2012.2000000001863,419287.7000000002,8026,VNB,B,3
4,test,5,0.0,1-Back,1,m,Mon Feb 03 2025 14:06:13 GMT-0600 (Central Standard Time),423232.60000000056,011_m_f_h_a.png,I,m,869,5,1,1928.7000000001863,421303.9000000004,8026,VNB,B,4
5,test,5,0.0,1-Back,1,m,Mon Feb 03 2025 14:06:13 GMT-0600 (Central Standard Time),425348.60000000056,020_y_f_n_a.png,I,m,1057,6,1,2112.7000000001863,423235.9000000004,8026,VNB,B,5
6,test,5,1.0,1-Back,1,z,Mon Feb 03 2025 14:06:13 GMT-0600 (Central Standard Time),427364.60000000056,005_o_f_n_a.png,I,z,949,7,1,2012.1000000005588,425352.5,8026,VNB,B,6
7,test,5,0.0,1-Back,1,m,Mon Feb 03 2025 14:06:13 GMT-0600 (Central Standard Time),429247.60000000056,011_m_f_d_a.png,I,m,820,8,1,1878.7000000001863,427368.9000000004,8026,VNB,B,7
8,test,5,0.0,1-Back,1,m,Mon Feb 03 2025 14:06:13 GMT-0600 (Central Standard Time),431413.30000000075,016_y_m_h_a.png,I,m,1106,9,1,2161.7000000001863,429251.60000000056,8026,VNB,B,8
9,test,5,0.0,1-Back,1,m,Mon Feb 03 2025 14:06:13 GMT-0600 (Central Standard Time),433479.5,020_y_f_d_a.png,I,m,1012,10,1,2062.0,431417.5,8026,VNB,B,9
10,test,5,0.0,1-Back,1,m,Mon Feb 03 2025 14:06:13 GMT-0600 (Central Standard Time),435578.60000000056,007_m_m_n_a.png,I,m,1042,11,1,2095.2999999998137,433483.30000000075,8026,VNB,B,10
11,test,5,1.0,1-Back,1,z,Mon Feb 03 2025 14:06:13 GMT-0600 (Central Standard Time),437727.9000000004,011_m_f_n_a.png,I,z,1087,12,1,2145.2999999998137,435582.60000000056,8026,VNB,B,11
12,test,5,0.0,1-Back,1,m,Mon Feb 03 2025 14:06:13 GMT-0600 (Central Standard Time),439794.30000000075,004_o_m_h_a.png,I,m,1001,13,1,2062.4000000003725,437731.9000000004,8026,VNB,B,12
13,test,5,0.0,1-Back,1,z,Mon Feb 03 2025 14:06:13 GMT-0600 (Central Standard Time),441726.60000000056,007_m_m_h_a.png,I,z,879,14,1,1928.4000000003725,439798.2000000002,8026,VNB,B,13
14,test,5,1.0,1-Back,1,m,Mon Feb 03 2025 14:06:13 GMT-0600 (Central Standard Time),443559.60000000056,005_o_f_d_a.png,I,m,804,15,1,1829.0,441730.60000000056,8026,VNB,B,14
15,test,5,0.0,1-Back,1,m,Mon Feb 03 2025 14:06:13 GMT-0600 (Central Standard Time),445808.7000000002,016_y_m_n_a.png,I,m,1194,16,1,2245.399999999441,443563.30000000075,8026,VNB,B,15
16,test,5,0.0,1-Back,1,m,Mon Feb 03 2025 14:06:13 GMT-0600 (Central Standard Time),447991.60000000056,020_y_f_h_a.png,I,m,1120,17,1,2179.100000000559,445812.5,8026,VNB,B,16
17,test,5,0.0,1-Back,1,m,Mon Feb 03 2025 14:06:13 GMT-0600 (Central Standard Time),450025.2000000002,007_m_m_d_a.png,I,m,978,18,1,2030.2000000001863,447995.0,8026,VNB,B,17
0,prac,1,0.0,2-Back,,,Mon Feb 03 2025 14:06:13 GMT-0600 (Central Standard Time),450025.2000000002,011_m_f_n_a.png,I,space,10426,1,1,2030.2000000001863,447995.0,8026,VNB,B,0
0,prac,1,0.0,2-Back,,,Mon Feb 03 2025 14:06:13 GMT-0600 (Central Standard Time),450025.2000000002,005_o_f_h_a.png,I,space,10426,2,1,2030.2000000001863,447995.0,8026,VNB,B,0
1,prac,1,0.0,2-Back,1,m,Mon Feb 03 2025 14:06:13 GMT-0600 (Central Standard Time),592163.3000000007,004_o_m_d_a.png,I,m,846,3,1,1727.7000000001863,590435.6000000006,8026,VNB,B,1
1,prac,1,1.0,2-Back,0,z,Mon Feb 03 2025 14:06:13 GMT-0600 (Central Standard Time),595062.3000000007,007_m_m_h_a.png,I,None,2012,4,1,2893.600000000559,592168.7000000002,8026,VNB,B,2
1,prac,1,0.0,2-Back,0,m,Mon Feb 03 2025 14:06:13 GMT-0600 (Central Standard Time),597927.8000000007,020_y_f_n_a.png,I,None,2001,5,1,2860.4000000003725,595067.4000000004,8026,VNB,B,3
1,prac,1,1.0,2-Back,0,z,Mon Feb 03 2025 14:06:13 GMT-0600 (Central Standard Time),599960.7000000002,004_o_m_h_a.png,I,m,1167,6,1,2027.7999999998137,597932.9000000004,8026,VNB,B,4
1,prac,1,1.0,2-Back,0,z,Mon Feb 03 2025 14:06:13 GMT-0600 (Central Standard Time),602127.7000000002,016_y_m_n_a.png,I,m,1282,7,1,2161.5999999996275,599966.1000000006,8026,VNB,B,5
2,prac,1,0.0,2-Back,1,m,Mon Feb 03 2025 14:06:13 GMT-0600 (Central Standard Time),604158.9000000004,011_m_f_d_a.png,I,m,1147,8,1,2025.5999999996275,602133.3000000007,8026,VNB,B,6
3,prac,1,0.0,2-Back,1,m,Mon Feb 03 2025 14:06:13 GMT-0600 (Central Standard Time),606692.0,005_o_f_d_a.png,I,m,1635,9,1,2526.0,604166.0,8026,VNB,B,7
3,prac,1,0.0,2-Back,0,m,Mon Feb 03 2025 14:06:13 GMT-0600 (Central Standard Time),608191.4000000004,007_m_m_h_a.png,I,z,722,10,1,1494.2000000001863,606697.2000000002,8026,VNB,B,8
3,prac,1,1.0,2-Back,0,z,Mon Feb 03 2025 14:06:13 GMT-0600 (Central Standard Time),610457.4000000004,020_y_f_d_a.png,I,m,1382,11,1,2261.0,608196.4000000004,8026,VNB,B,9
4,prac,1,0.0,2-Back,1,m,Mon Feb 03 2025 14:06:13 GMT-0600 (Central Standard Time),612956.8000000007,004_o_m_n_a.png,I,m,1637,12,1,2494.0,610462.8000000007,8026,VNB,B,10
0,prac,2,0.0,2-Back,,,Mon Feb 03 2025 14:06:13 GMT-0600 (Central Standard Time),612956.8000000007,011_m_f_n_a.png,I,a,5746,1,1,2494.0,610462.8000000007,8026,VNB,B,0
0,prac,2,0.0,2-Back,,,Mon Feb 03 2025 14:06:13 GMT-0600 (Central Standard Time),612956.8000000007,005_o_f_h_a.png,I,a,5746,2,1,2494.0,610462.8000000007,8026,VNB,B,0
1,prac,2,0.0,2-Back,1,m,Mon Feb 03 2025 14:06:13 GMT-0600 (Central Standard Time),626469.0,004_o_m_d_a.png,I,m,1628,3,1,2494.2999999998137,623974.7000000002,8026,VNB,B,1
1,prac,2,1.0,2-Back,0,z,Mon Feb 03 2025 14:06:13 GMT-0600 (Central Standard Time),629035.1000000006,007_m_m_h_a.png,I,m,1785,4,1,2560.600000000559,626474.5,8026,VNB,B,2
1,prac,2,0.0,2-Back,0,m,Mon Feb 03 2025 14:06:13 GMT-0600 (Central Standard Time),631650.8000000007,020_y_f_n_a.png,I,z,1733,5,1,2610.4000000003725,629040.4000000004,8026,VNB,B,3
2,prac,2,1.0,2-Back,1,z,Mon Feb 03 2025 14:06:13 GMT-0600 (Central Standard Time),634083.3000000007,004_o_m_h_a.png,I,z,1563,6,1,2427.4000000003725,631655.9000000004,8026,VNB,B,4
2,prac,2,1.0,2-Back,0,z,Mon Feb 03 2025 14:06:13 GMT-0600 (Central Standard Time),636216.1000000006,016_y_m_n_a.png,I,m,1231,7,1,2126.2999999998137,634089.8000000007,8026,VNB,B,5
2,prac,2,0.0,2-Back,0,m,Mon Feb 03 2025 14:06:13 GMT-0600 (Central Standard Time),638665.2000000002,011_m_f_d_a.png,I,z,1563,8,1,2442.899999999441,636222.3000000007,8026,VNB,B,6
2,prac,2,0.0,2-Back,0,m,Mon Feb 03 2025 14:06:13 GMT-0600 (Central Standard Time),641280.8000000007,005_o_f_d_a.png,I,z,1723,9,1,2610.5,638670.3000000007,8026,VNB,B,7
3,prac,2,0.0,2-Back,1,m,Mon Feb 03 2025 14:06:13 GMT-0600 (Central Standard Time),643713.7000000002,007_m_m_h_a.png,I,m,1653,10,1,2427.2999999998137,641286.4000000004,8026,VNB,B,8
3,prac,2,1.0,2-Back,0,z,Mon Feb 03 2025 14:06:13 GMT-0600 (Central Standard Time),646312.8000000007,020_y_f_d_a.png,I,m,1726,11,1,2593.7000000001863,643719.1000000006,8026,VNB,B,9
3,prac,2,0.0,2-Back,0,m,Mon Feb 03 2025 14:06:13 GMT-0600 (Central Standard Time),649178.4000000004,004_o_m_n_a.png,I,None,2004,12,1,2860.0999999996275,646318.3000000007,8026,VNB,B,10
0,test,1,0.0,2-Back,,,Mon Feb 03 2025 14:06:13 GMT-0600 (Central Standard Time),649178.4000000004,016_y_m_h_a.png,I,space,11803,1,1,2860.0999999996275,646318.3000000007,8026,VNB,B,0
0,test,1,0.0,2-Back,,,Mon Feb 03 2025 14:06:13 GMT-0600 (Central Standard Time),649178.4000000004,005_o_f_n_a.png,I,space,11803,2,1,2860.0999999996275,646318.3000000007,8026,VNB,B,0
1,test,1,0.0,2-Back,1,z,Mon Feb 03 2025 14:06:13 GMT-0600 (Central Standard Time),687816.6000000006,004_o_m_h_a.png,I,z,653,3,1,1712.4000000003725,686104.2000000002,8026,VNB,B,1
2,test,1,0.0,2-Back,1,m,Mon Feb 03 2025 14:06:13 GMT-0600 (Central Standard Time),690715.7000000002,011_m_f_d_a.png,I,m,1867,4,1,2895.2999999998137,687820.4000000004,8026,VNB,B,2
3,test,1,1.0,2-Back,1,m,Mon Feb 03 2025 14:06:13 GMT-0600 (Central Standard Time),693048.1000000006,016_y_m_n_a.png,I,m,1278,5,1,2328.4000000003725,690719.7000000002,8026,VNB,B,3
4,test,1,0.0,2-Back,1,z,Mon Feb 03 2025 14:06:13 GMT-0600 (Central Standard Time),695597.3000000007,020_y_f_d_a.png,I,z,1489,6,1,2545.4000000003725,693051.9000000004,8026,VNB,B,4
4,test,1,0.0,2-Back,0,m,Mon Feb 03 2025 14:06:13 GMT-0600 (Central Standard Time),697963.3000000007,007_m_m_h_a.png,I,z,1290,7,1,2362.100000000559,695601.2000000002,8026,VNB,B,5
5,test,1,1.0,2-Back,1,m,Mon Feb 03 2025 14:06:13 GMT-0600 (Central Standard Time),700912.3000000007,020_y_f_n_a.png,I,m,1861,8,1,2945.4000000003725,697966.9000000004,8026,VNB,B,6
5,test,1,0.0,2-Back,0,z,Mon Feb 03 2025 14:06:13 GMT-0600 (Central Standard Time),703944.7000000002,005_o_f_h_a.png,I,None,2015,9,1,3028.7999999998137,700915.9000000004,8026,VNB,B,7
6,test,1,0.0,2-Back,1,m,Mon Feb 03 2025 14:06:13 GMT-0600 (Central Standard Time),706094.1000000006,004_o_m_d_a.png,I,m,1129,10,1,2145.5,703948.6000000006,8026,VNB,B,8
7,test,1,1.0,2-Back,1,m,Mon Feb 03 2025 14:06:13 GMT-0600 (Central Standard Time),708093.2000000002,007_m_m_d_a.png,I,m,948,11,1,1995.2000000001863,706098.0,8026,VNB,B,9
7,test,1,0.0,2-Back,0,m,Mon Feb 03 2025 14:06:13 GMT-0600 (Central Standard Time),710342.9000000004,011_m_f_n_a.png,I,z,1229,12,1,2246.2999999998137,708096.6000000006,8026,VNB,B,10
7,test,1,0.0,2-Back,0,m,Mon Feb 03 2025 14:06:13 GMT-0600 (Central Standard Time),713025.2000000002,020_y_f_h_a.png,I,z,1619,13,1,2678.0,710347.2000000002,8026,VNB,B,11
7,test,1,0.0,2-Back,0,z,Mon Feb 03 2025 14:06:13 GMT-0600 (Central Standard Time),715557.6000000006,007_m_m_n_a.png,I,m,1480,14,1,2528.0,713029.6000000006,8026,VNB,B,12
7,test,1,0.0,2-Back,0,m,Mon Feb 03 2025 14:06:13 GMT-0600 (Central Standard Time),718623.4000000004,016_y_m_d_a.png,I,None,2013,15,1,3062.0,715561.4000000004,8026,VNB,B,13
8,test,1,1.0,2-Back,1,m,Mon Feb 03 2025 14:06:13 GMT-0600 (Central Standard Time),720773.0,011_m_f_h_a.png,I,m,1082,16,1,2145.899999999441,718627.1000000006,8026,VNB,B,14
9,test,1,0.0,2-Back,1,z,Mon Feb 03 2025 14:06:13 GMT-0600 (Central Standard Time),722722.0,005_o_f_d_a.png,I,z,884,17,1,1944.699999999255,720777.3000000007,8026,VNB,B,15
10,test,1,0.0,2-Back,1,m,Mon Feb 03 2025 14:06:13 GMT-0600 (Central Standard Time),725205.0,004_o_m_n_a.png,I,m,1397,18,1,2479.199999999255,722725.8000000007,8026,VNB,B,16
0,test,2,0.0,2-Back,,,Mon Feb 03 2025 14:06:13 GMT-0600 (Central Standard Time),725205.0,007_m_m_h_a.png,I,space,3642,1,1,2479.199999999255,722725.8000000007,8026,VNB,B,0
0,test,2,0.0,2-Back,,,Mon Feb 03 2025 14:06:13 GMT-0600 (Central Standard Time),725205.0,020_y_f_n_a.png,I,space,3642,2,1,2479.199999999255,722725.8000000007,8026,VNB,B,0
1,test,2,1.0,2-Back,1,z,Mon Feb 03 2025 14:06:13 GMT-0600 (Central Standard Time),736217.9000000004,005_o_f_h_a.png,I,z,1009,3,1,2078.5999999996275,734139.3000000007,8026,VNB,B,1
2,test,2,0.0,2-Back,1,m,Mon Feb 03 2025 14:06:13 GMT-0600 (Central Standard Time),738533.9000000004,004_o_m_d_a.png,I,m,1239,4,1,2312.2999999998137,736221.6000000006,8026,VNB,B,2
3,test,2,0.0,2-Back,1,m,Mon Feb 03 2025 14:06:13 GMT-0600 (Central Standard Time),740566.6000000006,011_m_f_d_a.png,I,m,972,5,1,2028.9000000003725,738537.7000000002,8026,VNB,B,3
3,test,2,0.0,2-Back,0,m,Mon Feb 03 2025 14:06:13 GMT-0600 (Central Standard Time),742482.7000000002,016_y_m_h_a.png,I,z,892,6,1,1912.3999999994412,740570.3000000007,8026,VNB,B,4
3,test,2,0.0,2-Back,0,m,Mon Feb 03 2025 14:06:13 GMT-0600 (Central Standard Time),744515.4000000004,005_o_f_n_a.png,I,z,1008,7,1,2029.2000000001863,742486.2000000002,8026,VNB,B,5
4,test,2,1.0,2-Back,1,z,Mon Feb 03 2025 14:06:13 GMT-0600 (Central Standard Time),746747.8000000007,004_o_m_h_a.png,I,z,1207,8,1,2228.5,744519.3000000007,8026,VNB,B,6
5,test,2,0.0,2-Back,1,m,Mon Feb 03 2025 14:06:13 GMT-0600 (Central Standard Time),748880.8000000007,020_y_f_d_a.png,I,m,1112,9,1,2129.5,746751.3000000007,8026,VNB,B,7
6,test,2,0.0,2-Back,1,m,Mon Feb 03 2025 14:06:13 GMT-0600 (Central Standard Time),751529.7000000002,016_y_m_d_a.png,I,m,1618,10,1,2645.2000000001863,748884.5,8026,VNB,B,8
7,test,2,0.0,2-Back,1,m,Mon Feb 03 2025 14:06:13 GMT-0600 (Central Standard Time),753745.7000000002,007_m_m_n_a.png,I,m,1193,11,1,2212.2000000001863,751533.5,8026,VNB,B,9
8,test,2,0.0,2-Back,1,m,Mon Feb 03 2025 14:06:13 GMT-0600 (Central Standard Time),755878.5,011_m_f_h_a.png,I,m,1113,12,1,2129.699999999255,753748.8000000007,8026,VNB,B,10
9,test,2,1.0,2-Back,1,z,Mon Feb 03 2025 14:06:13 GMT-0600 (Central Standard Time),758044.3000000007,004_o_m_n_a.png,I,z,1132,13,1,2162.300000000745,755882.0,8026,VNB,B,11
9,test,2,0.0,2-Back,0,m,Mon Feb 03 2025 14:06:13 GMT-0600 (Central Standard Time),760143.7000000002,005_o_f_d_a.png,I,z,1078,14,1,2095.7999999998137,758047.9000000004,8026,VNB,B,12
10,test,2,0.0,2-Back,1,m,Mon Feb 03 2025 14:06:13 GMT-0600 (Central Standard Time),762293.1000000006,020_y_f_h_a.png,I,m,1123,15,1,2146.2000000001863,760146.9000000004,8026,VNB,B,13
10,test,2,0.0,2-Back,0,z,Mon Feb 03 2025 14:06:13 GMT-0600 (Central Standard Time),765192.2000000002,007_m_m_d_a.png,I,m,1869,16,1,2895.399999999441,762296.8000000007,8026,VNB,B,14
10,test,2,0.0,2-Back,0,m,Mon Feb 03 2025 14:06:13 GMT-0600 (Central Standard Time),767174.9000000004,016_y_m_n_a.png,I,z,954,17,1,1978.7999999998137,765196.1000000006,8026,VNB,B,15
10,test,2,1.0,2-Back,0,m,Mon Feb 03 2025 14:06:13 GMT-0600 (Central Standard Time),769141.0,011_m_f_n_a.png,I,z,948,18,1,1962.0999999996275,767178.9000000004,8026,VNB,B,16
0,test,3,1.0,2-Back,,,Mon Feb 03 2025 14:06:13 GMT-0600 (Central Standard Time),769141.0,004_o_m_n_a.png,I,space,2551,1,1,1962.0999999996275,767178.9000000004,8026,VNB,B,0
0,test,3,1.0,2-Back,,,Mon Feb 03 2025 14:06:13 GMT-0600 (Central Standard Time),769141.0,005_o_f_d_a.png,I,space,2551,2,1,1962.0999999996275,767178.9000000004,8026,VNB,B,0
1,test,3,0.0,2-Back,1,m,Mon Feb 03 2025 14:06:13 GMT-0600 (Central Standard Time),778904.7000000002,020_y_f_h_a.png,I,m,1019,3,1,2045.5999999996275,776859.1000000006,8026,VNB,B,1
2,test,3,0.0,2-Back,1,z,Mon Feb 03 2025 14:06:13 GMT-0600 (Central Standard Time),780987.4000000004,011_m_f_d_a.png,I,z,1058,4,1,2079.4000000003725,778908.0,8026,VNB,B,2
3,test,3,1.0,2-Back,1,m,Mon Feb 03 2025 14:06:13 GMT-0600 (Central Standard Time),782970.7000000002,016_y_m_n_a.png,I,m,959,5,1,1979.3999999994412,780991.3000000007,8026,VNB,B,3
4,test,3,0.0,2-Back,1,m,Mon Feb 03 2025 14:06:13 GMT-0600 (Central Standard Time),785535.8000000007,004_o_m_h_a.png,I,m,1536,6,1,2561.7000000001863,782974.1000000006,8026,VNB,B,4
5,test,3,0.0,2-Back,1,z,Mon Feb 03 2025 14:06:13 GMT-0600 (Central Standard Time),787185.3000000007,020_y_f_n_a.png,I,z,619,7,1,1645.7000000001863,785539.6000000006,8026,VNB,B,5
6,test,3,1.0,2-Back,1,m,Mon Feb 03 2025 14:06:13 GMT-0600 (Central Standard Time),789318.0,007_m_m_d_a.png,I,m,1113,8,1,2129.0999999996275,787188.9000000004,8026,VNB,B,6
7,test,3,0.0,2-Back,1,m,Mon Feb 03 2025 14:06:13 GMT-0600 (Central Standard Time),791267.5,016_y_m_d_a.png,I,m,917,9,1,1945.7999999998137,789321.7000000002,8026,VNB,B,7
7,test,3,0.0,2-Back,0,m,Mon Feb 03 2025 14:06:13 GMT-0600 (Central Standard Time),793216.8000000007,005_o_f_h_a.png,I,z,919,10,1,1945.4000000003725,791271.4000000004,8026,VNB,B,8
8,test,3,1.0,2-Back,1,m,Mon Feb 03 2025 14:06:13 GMT-0600 (Central Standard Time),795482.7000000002,011_m_f_n_a.png,I,m,1242,11,1,2262.0,793220.7000000002,8026,VNB,B,9
9,test,3,1.0,2-Back,1,z,Mon Feb 03 2025 14:06:13 GMT-0600 (Central Standard Time),797582.2000000002,007_m_m_h_a.png,I,z,1072,12,1,2095.5999999996275,795486.6000000006,8026,VNB,B,10
10,test,3,0.0,2-Back,1,m,Mon Feb 03 2025 14:06:13 GMT-0600 (Central Standard Time),799500.3000000007,020_y_f_d_a.png,I,m,884,13,1,1915.1000000005588,797585.2000000002,8026,VNB,B,11
11,test,3,0.0,2-Back,1,m,Mon Feb 03 2025 14:06:13 GMT-0600 (Central Standard Time),801914.1000000006,005_o_f_n_a.png,I,m,1393,14,1,2409.9000000003725,799504.2000000002,8026,VNB,B,12
11,test,3,0.0,2-Back,0,z,Mon Feb 03 2025 14:06:13 GMT-0600 (Central Standard Time),804013.3000000007,004_o_m_d_a.png,I,m,1065,15,1,2095.300000000745,801918.0,8026,VNB,B,13
11,test,3,1.0,2-Back,0,m,Mon Feb 03 2025 14:06:13 GMT-0600 (Central Standard Time),805896.1000000006,011_m_f_h_a.png,I,z,853,16,1,1879.2000000001863,804016.9000000004,8026,VNB,B,14
12,test,3,0.0,2-Back,1,m,Mon Feb 03 2025 14:06:13 GMT-0600 (Central Standard Time),808195.6000000006,007_m_m_n_a.png,I,m,1274,17,1,2295.100000000559,805900.5,8026,VNB,B,15
13,test,3,0.0,2-Back,1,z,Mon Feb 03 2025 14:06:13 GMT-0600 (Central Standard Time),809944.9000000004,016_y_m_h_a.png,I,z,727,18,1,1745.5,808199.4000000004,8026,VNB,B,16
0,test,4,0.0,2-Back,,,Mon Feb 03 2025 14:06:13 GMT-0600 (Central Standard Time),809944.9000000004,011_m_f_n_a.png,I,space,3282,1,1,1745.5,808199.4000000004,8026,VNB,B,0
0,test,4,0.0,2-Back,,,Mon Feb 03 2025 14:06:13 GMT-0600 (Central Standard Time),809944.9000000004,004_o_m_n_a.png,I,space,3282,2,1,1745.5,808199.4000000004,8026,VNB,B,0
1,test,4,1.0,2-Back,1,m,Mon Feb 03 2025 14:06:13 GMT-0600 (Central Standard Time),820608.1000000006,016_y_m_h_a.png,I,m,1111,3,1,2128.4000000003725,818479.7000000002,8026,VNB,B,1
2,test,4,1.0,2-Back,1,m,Mon Feb 03 2025 14:06:13 GMT-0600 (Central Standard Time),822880.0,005_o_f_d_a.png,I,m,1253,4,1,2268.7999999998137,820611.2000000002,8026,VNB,B,2
3,test,4,0.0,2-Back,1,z,Mon Feb 03 2025 14:06:13 GMT-0600 (Central Standard Time),824707.0,004_o_m_h_a.png,I,z,809,5,1,1823.199999999255,822883.8000000007,8026,VNB,B,3
4,test,4,0.0,2-Back,1,m,Mon Feb 03 2025 14:06:13 GMT-0600 (Central Standard Time),827006.2000000002,007_m_m_n_a.png,I,m,1272,6,1,2295.2999999998137,824710.9000000004,8026,VNB,B,4
4,test,4,0.0,2-Back,0,m,Mon Feb 03 2025 14:06:13 GMT-0600 (Central Standard Time),828855.6000000006,011_m_f_d_a.png,I,z,828,7,1,1845.5,827010.1000000006,8026,VNB,B,5
5,test,4,0.0,2-Back,1,z,Mon Feb 03 2025 14:06:13 GMT-0600 (Central Standard Time),830954.9000000004,020_y_f_n_a.png,I,z,1067,8,1,2095.2999999998137,828859.6000000006,8026,VNB,B,6
6,test,4,1.0,2-Back,1,m,Mon Feb 03 2025 14:06:13 GMT-0600 (Central Standard Time),833120.9000000004,005_o_f_h_a.png,I,m,1144,9,1,2161.7999999998137,830959.1000000006,8026,VNB,B,7
7,test,4,0.0,2-Back,1,m,Mon Feb 03 2025 14:06:13 GMT-0600 (Central Standard Time),835470.1000000006,007_m_m_h_a.png,I,m,1322,10,1,2345.5,833124.6000000006,8026,VNB,B,8
8,test,4,0.0,2-Back,1,m,Mon Feb 03 2025 14:06:13 GMT-0600 (Central Standard Time),837869.6000000006,020_y_f_d_a.png,I,m,1372,11,1,2395.9000000003725,835473.7000000002,8026,VNB,B,9
9,test,4,0.0,2-Back,1,m,Mon Feb 03 2025 14:06:13 GMT-0600 (Central Standard Time),839835.7000000002,016_y_m_n_a.png,I,m,941,12,1,1962.5,837873.2000000002,8026,VNB,B,10
9,test,4,0.0,2-Back,0,z,Mon Feb 03 2025 14:06:13 GMT-0600 (Central Standard Time),842251.4000000004,004_o_m_d_a.png,I,m,1390,13,1,2412.0,839839.4000000004,8026,VNB,B,11
9,test,4,1.0,2-Back,0,m,Mon Feb 03 2025 14:06:13 GMT-0600 (Central Standard Time),843867.5,011_m_f_h_a.png,I,z,582,14,1,1612.8999999994412,842254.6000000006,8026,VNB,B,12
10,test,4,1.0,2-Back,1,m,Mon Feb 03 2025 14:06:13 GMT-0600 (Central Standard Time),846558.7000000002,020_y_f_h_a.png,I,m,1526,15,1,2687.2000000001863,843871.5,8026,VNB,B,13
10,test,4,0.0,2-Back,0,m,Mon Feb 03 2025 14:06:13 GMT-0600 (Central Standard Time),847967.5,005_o_f_n_a.png,I,z,389,16,1,1404.699999999255,846562.8000000007,8026,VNB,B,14
11,test,4,0.0,2-Back,1,m,Mon Feb 03 2025 14:06:13 GMT-0600 (Central Standard Time),850015.5,016_y_m_d_a.png,I,m,1021,17,1,2044.0,847971.5,8026,VNB,B,15
12,test,4,1.0,2-Back,1,m,Mon Feb 03 2025 14:06:13 GMT-0600 (Central Standard Time),852481.5,007_m_m_d_a.png,I,m,1443,18,1,2462.399999999441,850019.1000000006,8026,VNB,B,16
0,test,5,1.0,2-Back,,,Mon Feb 03 2025 14:06:13 GMT-0600 (Central Standard Time),852481.5,020_y_f_d_a.png,I,space,3082,1,1,2462.399999999441,850019.1000000006,8026,VNB,B,0
0,test,5,1.0,2-Back,,,Mon Feb 03 2025 14:06:13 GMT-0600 (Central Standard Time),852481.5,005_o_f_h_a.png,I,space,3082,2,1,2462.399999999441,850019.1000000006,8026,VNB,B,0
1,test,5,1.0,2-Back,1,z,Mon Feb 03 2025 14:06:13 GMT-0600 (Central Standard Time),862945.0,004_o_m_d_a.png,I,z,1110,3,1,2127.5999999996275,860817.4000000004,8026,VNB,B,1
2,test,5,1.0,2-Back,1,m,Mon Feb 03 2025 14:06:13 GMT-0600 (Central Standard Time),865194.3000000007,011_m_f_n_a.png,I,m,1226,4,1,2245.5,862948.8000000007,8026,VNB,B,2
3,test,5,0.0,2-Back,1,m,Mon Feb 03 2025 14:06:13 GMT-0600 (Central Standard Time),867410.2000000002,007_m_m_h_a.png,I,m,1184,5,1,2212.2000000001863,865198.0,8026,VNB,B,3
4,test,5,0.0,2-Back,1,z,Mon Feb 03 2025 14:06:13 GMT-0600 (Central Standard Time),869359.6000000006,020_y_f_n_a.png,I,z,929,6,1,1946.1000000005588,867413.5,8026,VNB,B,4
4,test,5,0.0,2-Back,0,m,Mon Feb 03 2025 14:06:13 GMT-0600 (Central Standard Time),871575.6000000006,005_o_f_d_a.png,I,z,1195,7,1,2212.0,869363.6000000006,8026,VNB,B,5
4,test,5,0.0,2-Back,0,m,Mon Feb 03 2025 14:06:13 GMT-0600 (Central Standard Time),873625.0,004_o_m_h_a.png,I,z,1019,8,1,2045.5,871579.5,8026,VNB,B,6
5,test,5,1.0,2-Back,1,z,Mon Feb 03 2025 14:06:13 GMT-0600 (Central Standard Time),876242.0,011_m_f_d_a.png,I,z,1594,9,1,2613.2999999998137,873628.7000000002,8026,VNB,B,7
6,test,5,0.0,2-Back,1,m,Mon Feb 03 2025 14:06:13 GMT-0600 (Central Standard Time),878123.6000000006,016_y_m_n_a.png,I,m,857,10,1,1877.9000000003725,876245.7000000002,8026,VNB,B,8
7,test,5,0.0,2-Back,1,m,Mon Feb 03 2025 14:06:13 GMT-0600 (Central Standard Time),880406.3000000007,007_m_m_n_a.png,I,m,1263,11,1,2278.800000000745,878127.5,8026,VNB,B,9
7,test,5,0.0,2-Back,0,m,Mon Feb 03 2025 14:06:13 GMT-0600 (Central Standard Time),882305.6000000006,020_y_f_h_a.png,I,z,876,12,1,1896.1000000005588,880409.5,8026,VNB,B,10
8,test,5,0.0,2-Back,1,m,Mon Feb 03 2025 14:06:13 GMT-0600 (Central Standard Time),884488.4000000004,016_y_m_d_a.png,I,m,1161,13,1,2178.9000000003725,882309.5,8026,VNB,B,11
9,test,5,1.0,2-Back,1,z,Mon Feb 03 2025 14:06:13 GMT-0600 (Central Standard Time),887137.4000000004,011_m_f_h_a.png,I,z,1618,14,1,2645.4000000003725,884492.0,8026,VNB,B,12
10,test,5,0.0,2-Back,1,m,Mon Feb 03 2025 14:06:13 GMT-0600 (Central Standard Time),889436.6000000006,004_o_m_n_a.png,I,m,1264,15,1,2295.4000000003725,887141.2000000002,8026,VNB,B,13
11,test,5,0.0,2-Back,1,m,Mon Feb 03 2025 14:06:13 GMT-0600 (Central Standard Time),891902.8000000007,007_m_m_d_a.png,I,m,1438,16,1,2463.0,889439.8000000007,8026,VNB,B,14
12,test,5,0.0,2-Back,1,z,Mon Feb 03 2025 14:06:13 GMT-0600 (Central Standard Time),894001.8000000007,005_o_f_n_a.png,I,z,1076,17,1,2095.300000000745,891906.5,8026,VNB,B,15
13,test,5,1.0,2-Back,1,m,Mon Feb 03 2025 14:06:13 GMT-0600 (Central Standard Time),896517.6000000006,016_y_m_h_a.png,I,m,1497,18,1,2511.9000000003725,894005.7000000002,8026,VNB,B,16
