block_c,block_dur,condition,countdown,datetime,endtime,list,multichar_response,project,response,response_time,session_number,start_end,starttime,subject_id,task,task_vers,trial
,,,,Fri May 02 2025 11:39:01 GMT-0400 (Eastern Daylight Time),,,,I,space,814,3,,,9002,WL,C,
prac,,0,,Fri May 02 2025 11:39:01 GMT-0400 (Eastern Daylight Time),,NA,b,I,b,4256,3,,,9002,WL,C,1.0
prac,,0,,Fri May 02 2025 11:39:01 GMT-0400 (Eastern Daylight Time),,NA,bo,I,o,406,3,,,9002,WL,C,1.0
prac,,0,,Fri May 02 2025 11:39:01 GMT-0400 (Eastern Daylight Time),,NA,boo,I,o,118,3,,,9002,WL,C,1.0
prac,,0,,Fri May 02 2025 11:39:01 GMT-0400 (Eastern Daylight Time),,NA,boos,I,s,154,3,,,9002,WL,C,1.0
prac,,0,,Fri May 02 2025 11:39:01 GMT-0400 (Eastern Daylight Time),,NA,boost,I,t,339,3,,,9002,WL,C,1.0
prac,,0,,Fri May 02 2025 11:39:01 GMT-0400 (Eastern Daylight Time),,NA,boostenter,I,enter,1179,3,,,9002,WL,C,1.0
1,1.2000000476837158,learn,58799.999952316284,Fri May 02 2025 11:39:01 GMT-0400 (Eastern Daylight Time),107034.80000019073,A,t,I,t,1176,3,1199.3999996185303,105835.4000005722,9002,WL,C,1.0
1,1.434000015258789,learn,58565.99998474121,Fri May 02 2025 11:39:01 GMT-0400 (Eastern Daylight Time),107268.10000038147,A,to,I,o,214,3,1432.6999998092651,105835.4000005722,9002,WL,C,1.0
1,1.6670000553131104,learn,58332.99994468689,Fri May 02 2025 11:39:01 GMT-0400 (Eastern Daylight Time),107501.20000076294,A,tow,I,w,206,3,1665.8000001907349,105835.4000005722,9002,WL,C,1.0
1,2.049999952316284,learn,57950.000047683716,Fri May 02 2025 11:39:01 GMT-0400 (Eastern Daylight Time),107884.70000076294,A,towe,I,e,346,3,2049.300000190735,105835.4000005722,9002,WL,C,1.0
1,2.2170000076293945,learn,57782.999992370605,Fri May 02 2025 11:39:01 GMT-0400 (Eastern Daylight Time),108051.4000005722,A,tower,I,r,150,3,2216.0,105835.4000005722,9002,WL,C,1.0
1,2.5,learn,57500.0,Fri May 02 2025 11:39:01 GMT-0400 (Eastern Daylight Time),108334.0,A,towerenter,I,enter,261,3,2498.5999994277954,105835.4000005722,9002,WL,C,1.0
1,3.183000087738037,learn,56816.99991226196,Fri May 02 2025 11:39:01 GMT-0400 (Eastern Daylight Time),109018.0,A,q,I,q,663,3,683.3999996185303,108334.60000038147,9002,WL,C,2.0
1,3.4170000553131104,learn,56582.99994468689,Fri May 02 2025 11:39:01 GMT-0400 (Eastern Daylight Time),109251.30000019073,A,qu,I,u,216,3,916.6999998092651,108334.60000038147,9002,WL,C,2.0
1,3.8500001430511475,learn,56149.99985694885,Fri May 02 2025 11:39:01 GMT-0400 (Eastern Daylight Time),109684.80000019073,A,que,I,e,415,3,1350.1999998092651,108334.60000038147,9002,WL,C,2.0
1,4.184000015258789,learn,55815.99998474121,Fri May 02 2025 11:39:01 GMT-0400 (Eastern Daylight Time),110018.0,A,quee,I,e,318,3,1683.3999996185303,108334.60000038147,9002,WL,C,2.0
1,4.41700005531311,learn,55582.99994468689,Fri May 02 2025 11:39:01 GMT-0400 (Eastern Daylight Time),110251.30000019073,A,queen,I,n,208,3,1916.6999998092651,108334.60000038147,9002,WL,C,2.0
1,4.7829999923706055,learn,55217.000007629395,Fri May 02 2025 11:39:01 GMT-0400 (Eastern Daylight Time),110617.4000005722,A,queenenter,I,enter,336,3,2282.800000190735,108334.60000038147,9002,WL,C,2.0
1,5.2170000076293945,learn,54782.999992370605,Fri May 02 2025 11:39:01 GMT-0400 (Eastern Daylight Time),111051.10000038147,A,w,I,w,411,3,433.19999980926514,110617.9000005722,9002,WL,C,3.0
1,5.400000095367432,learn,54599.99990463257,Fri May 02 2025 11:39:01 GMT-0400 (Eastern Daylight Time),111234.60000038147,A,wh,I,h,167,3,616.6999998092651,110617.9000005722,9002,WL,C,3.0
1,5.884000062942505,learn,54115.999937057495,Fri May 02 2025 11:39:01 GMT-0400 (Eastern Daylight Time),111718.0,A,whe,I,e,463,3,1100.0999994277954,110617.9000005722,9002,WL,C,3.0
1,6.1000001430511475,learn,53899.99985694885,Fri May 02 2025 11:39:01 GMT-0400 (Eastern Daylight Time),111934.30000019073,A,whea,I,a,203,3,1316.3999996185303,110617.9000005722,9002,WL,C,3.0
1,6.483999967575073,learn,53516.00003242493,Fri May 02 2025 11:39:01 GMT-0400 (Eastern Daylight Time),112318.20000076294,A,wheat,I,t,365,3,1700.3000001907349,110617.9000005722,9002,WL,C,3.0
1,7.2829999923706055,learn,52717.000007629395,Fri May 02 2025 11:39:01 GMT-0400 (Eastern Daylight Time),113117.4000005722,A,wheatenter,I,enter,773,3,2499.5,110617.9000005722,9002,WL,C,3.0
1,7.66700005531311,learn,52332.99994468689,Fri May 02 2025 11:39:01 GMT-0400 (Eastern Daylight Time),113501.10000038147,A,c,I,c,360,3,383.30000019073486,113117.80000019073,9002,WL,C,4.0
1,7.766999959945679,learn,52233.00004005432,Fri May 02 2025 11:39:01 GMT-0400 (Eastern Daylight Time),113601.4000005722,A,co,I,o,86,3,483.6000003814697,113117.80000019073,9002,WL,C,4.0
1,8.0,learn,52000.0,Fri May 02 2025 11:39:01 GMT-0400 (Eastern Daylight Time),113834.4000005722,A,cor,I,r,210,3,716.6000003814697,113117.80000019073,9002,WL,C,4.0
1,8.367000102996826,learn,51632.999897003174,Fri May 02 2025 11:39:01 GMT-0400 (Eastern Daylight Time),114201.30000019073,A,corn,I,n,346,3,1083.5,113117.80000019073,9002,WL,C,4.0
1,8.867000102996826,learn,51132.999897003174,Fri May 02 2025 11:39:01 GMT-0400 (Eastern Daylight Time),114701.0,A,cornenter,I,enter,489,3,1583.1999998092651,113117.80000019073,9002,WL,C,4.0
1,9.58299994468689,learn,50417.00005531311,Fri May 02 2025 11:39:01 GMT-0400 (Eastern Daylight Time),115418.0,A,b,I,b,697,3,716.5999994277954,114701.4000005722,9002,WL,C,5.0
1,9.799999952316284,learn,50200.000047683716,Fri May 02 2025 11:39:01 GMT-0400 (Eastern Daylight Time),115634.70000076294,A,bo,I,o,202,3,933.3000001907349,114701.4000005722,9002,WL,C,5.0
1,10.25,learn,49750.0,Fri May 02 2025 11:39:01 GMT-0400 (Eastern Daylight Time),116084.60000038147,A,boy,I,y,432,3,1383.1999998092651,114701.4000005722,9002,WL,C,5.0
1,11.0,learn,49000.0,Fri May 02 2025 11:39:01 GMT-0400 (Eastern Daylight Time),116834.10000038147,A,boyenter,I,enter,733,3,2132.699999809265,114701.4000005722,9002,WL,C,5.0
1,11.400000095367432,learn,48599.99990463257,Fri May 02 2025 11:39:01 GMT-0400 (Eastern Daylight Time),117234.5,A,f,I,f,387,3,400.0,116834.5,9002,WL,C,6.0
1,11.532999992370605,learn,48467.000007629395,Fri May 02 2025 11:39:01 GMT-0400 (Eastern Daylight Time),117367.80000019073,A,fl,I,l,110,3,533.3000001907349,116834.5,9002,WL,C,6.0
1,11.700000047683716,learn,48299.999952316284,Fri May 02 2025 11:39:01 GMT-0400 (Eastern Daylight Time),117534.30000019073,A,fla,I,a,155,3,699.8000001907349,116834.5,9002,WL,C,6.0
1,12.400000095367432,learn,47599.99990463257,Fri May 02 2025 11:39:01 GMT-0400 (Eastern Daylight Time),118234.70000076294,A,flag,I,g,669,3,1400.2000007629395,116834.5,9002,WL,C,6.0
1,13.282999992370605,learn,46717.000007629395,Fri May 02 2025 11:39:01 GMT-0400 (Eastern Daylight Time),119117.30000019073,A,flagenter,I,enter,872,3,2282.800000190735,116834.5,9002,WL,C,6.0
1,14.16700005531311,learn,45832.99994468689,Fri May 02 2025 11:39:01 GMT-0400 (Eastern Daylight Time),120001.10000038147,A,f,I,f,872,3,883.5,119117.60000038147,9002,WL,C,7.0
1,14.433000087738037,learn,45566.99991226196,Fri May 02 2025 11:39:01 GMT-0400 (Eastern Daylight Time),120267.9000005722,A,fi,I,i,241,3,1150.3000001907349,119117.60000038147,9002,WL,C,7.0
1,15.100000143051147,learn,44899.99985694885,Fri May 02 2025 11:39:01 GMT-0400 (Eastern Daylight Time),120934.60000038147,A,fil,I,l,638,3,1817.0,119117.60000038147,9002,WL,C,7.0
1,15.266999959945679,learn,44733.00004005432,Fri May 02 2025 11:39:01 GMT-0400 (Eastern Daylight Time),121101.0,A,file,I,e,132,3,1983.3999996185303,119117.60000038147,9002,WL,C,7.0
1,15.483000040054321,learn,44516.99995994568,Fri May 02 2025 11:39:01 GMT-0400 (Eastern Daylight Time),121317.9000005722,A,filed,I,d,198,3,2200.300000190735,119117.60000038147,9002,WL,C,7.0
1,16.016000032424927,learn,43983.99996757507,Fri May 02 2025 11:39:01 GMT-0400 (Eastern Daylight Time),121850.70000076294,A,file,I,backspace,501,3,2733.1000003814697,119117.60000038147,9002,WL,C,7.0
1,16.117000102996826,learn,43882.999897003174,Fri May 02 2025 11:39:01 GMT-0400 (Eastern Daylight Time),121951.0,A,fil,I,backspace,92,3,2833.3999996185303,119117.60000038147,9002,WL,C,7.0
1,16.48300004005432,learn,43516.99995994568,Fri May 02 2025 11:39:01 GMT-0400 (Eastern Daylight Time),122318.0,A,fi,I,backspace,339,3,3200.3999996185303,119117.60000038147,9002,WL,C,7.0
1,16.634000062942505,learn,43365.999937057495,Fri May 02 2025 11:39:01 GMT-0400 (Eastern Daylight Time),122468.0,A,fie,I,e,134,3,3350.3999996185303,119117.60000038147,9002,WL,C,7.0
1,17.16700005531311,learn,42832.99994468689,Fri May 02 2025 11:39:01 GMT-0400 (Eastern Daylight Time),123001.4000005722,A,fied,I,d,503,3,3883.800000190735,119117.60000038147,9002,WL,C,7.0
1,17.633000135421753,learn,42366.99986457825,Fri May 02 2025 11:39:01 GMT-0400 (Eastern Daylight Time),123467.80000019073,A,fie,I,backspace,441,3,4350.199999809265,119117.60000038147,9002,WL,C,7.0
1,17.83299994468689,learn,42167.00005531311,Fri May 02 2025 11:39:01 GMT-0400 (Eastern Daylight Time),123667.9000005722,A,fiel,I,l,184,3,4550.300000190735,119117.60000038147,9002,WL,C,7.0
1,18.01699995994568,learn,41983.00004005432,Fri May 02 2025 11:39:01 GMT-0400 (Eastern Daylight Time),123851.30000019073,A,field,I,d,161,3,4733.699999809265,119117.60000038147,9002,WL,C,7.0
1,18.299999952316284,learn,41700.000047683716,Fri May 02 2025 11:39:01 GMT-0400 (Eastern Daylight Time),124134.10000038147,A,fieldenter,I,enter,256,3,5016.5,119117.60000038147,9002,WL,C,7.0
1,18.799999952316284,learn,41200.000047683716,Fri May 02 2025 11:39:01 GMT-0400 (Eastern Daylight Time),124634.4000005722,A,n,I,n,480,3,499.9000005722046,124134.5,9002,WL,C,8.0
1,18.933000087738037,learn,41066.99991226196,Fri May 02 2025 11:39:01 GMT-0400 (Eastern Daylight Time),124767.9000005722,A,na,I,a,122,3,633.4000005722046,124134.5,9002,WL,C,8.0
1,19.41700005531311,learn,40582.99994468689,Fri May 02 2025 11:39:01 GMT-0400 (Eastern Daylight Time),125251.20000076294,A,nai,I,i,468,3,1116.7000007629395,124134.5,9002,WL,C,8.0
1,19.83299994468689,learn,40167.00005531311,Fri May 02 2025 11:39:01 GMT-0400 (Eastern Daylight Time),125667.9000005722,A,nail,I,l,401,3,1533.4000005722046,124134.5,9002,WL,C,8.0
1,20.766000032424927,learn,39233.99996757507,Fri May 02 2025 11:39:01 GMT-0400 (Eastern Daylight Time),126600.60000038147,A,nailenter,I,enter,911,3,2466.1000003814697,124134.5,9002,WL,C,8.0
1,26.117000102996826,learn,33882.999897003174,Fri May 02 2025 11:39:01 GMT-0400 (Eastern Daylight Time),131951.10000038147,A,h,I,h,5342,3,5350.10000038147,126601.0,9002,WL,C,9.0
1,26.299999952316284,learn,33700.000047683716,Fri May 02 2025 11:39:01 GMT-0400 (Eastern Daylight Time),132134.4000005722,A,ho,I,o,164,3,5533.400000572205,126601.0,9002,WL,C,9.0
1,26.566999912261963,learn,33433.00008773804,Fri May 02 2025 11:39:01 GMT-0400 (Eastern Daylight Time),132401.30000019073,A,hom,I,m,245,3,5800.300000190735,126601.0,9002,WL,C,9.0
1,26.782999992370605,learn,33217.000007629395,Fri May 02 2025 11:39:01 GMT-0400 (Eastern Daylight Time),132618.0,A,home,I,e,195,3,6017.0,126601.0,9002,WL,C,9.0
1,27.966000080108643,learn,32033.999919891357,Fri May 02 2025 11:39:01 GMT-0400 (Eastern Daylight Time),133800.70000076294,A,homeenter,I,enter,1162,3,7199.700000762939,126601.0,9002,WL,C,9.0
1,29.41700005531311,learn,30582.99994468689,Fri May 02 2025 11:39:01 GMT-0400 (Eastern Daylight Time),135251.30000019073,A,s,I,s,1438,3,1450.0999994277954,133801.20000076294,9002,WL,C,10.0
1,29.532999992370605,learn,30467.000007629395,Fri May 02 2025 11:39:01 GMT-0400 (Eastern Daylight Time),135368.0,A,se,I,e,97,3,1566.7999992370605,133801.20000076294,9002,WL,C,10.0
1,29.700000047683716,learn,30299.999952316284,Fri May 02 2025 11:39:01 GMT-0400 (Eastern Daylight Time),135534.30000019073,A,sea,I,a,149,3,1733.0999994277954,133801.20000076294,9002,WL,C,10.0
1,31.0,learn,29000.0,Fri May 02 2025 11:39:01 GMT-0400 (Eastern Daylight Time),136834.0,A,seaenter,I,enter,1285,3,3032.7999992370605,133801.20000076294,9002,WL,C,10.0
1,34.950000047683716,learn,25049.999952316284,Fri May 02 2025 11:39:01 GMT-0400 (Eastern Daylight Time),140784.60000038147,A,f,I,f,3940,3,3950.199999809265,136834.4000005722,9002,WL,C,11.0
1,35.700000047683716,learn,24299.999952316284,Fri May 02 2025 11:39:01 GMT-0400 (Eastern Daylight Time),141534.4000005722,A,,I,backspace,740,3,4700.0,136834.4000005722,9002,WL,C,11.0
1,47.76699995994568,learn,12233.000040054321,Fri May 02 2025 11:39:01 GMT-0400 (Eastern Daylight Time),153601.10000038147,A,f,I,f,12055,3,16766.699999809265,136834.4000005722,9002,WL,C,11.0
1,47.88300013542175,learn,12116.999864578247,Fri May 02 2025 11:39:01 GMT-0400 (Eastern Daylight Time),153718.0,A,fj,I,j,96,3,16883.599999427795,136834.4000005722,9002,WL,C,11.0
1,48.282999992370605,learn,11717.000007629395,Fri May 02 2025 11:39:01 GMT-0400 (Eastern Daylight Time),154117.9000005722,A,f,I,backspace,381,3,17283.5,136834.4000005722,9002,WL,C,11.0
1,48.41700005531311,learn,11582.99994468689,Fri May 02 2025 11:39:01 GMT-0400 (Eastern Daylight Time),154251.0,A,,I,backspace,110,3,17416.599999427795,136834.4000005722,9002,WL,C,11.0
1,48.549999952316284,learn,11450.000047683716,Fri May 02 2025 11:39:01 GMT-0400 (Eastern Daylight Time),154384.5,A,,I,backspace,113,3,17550.099999427795,136834.4000005722,9002,WL,C,11.0
1,48.75,learn,11250.0,Fri May 02 2025 11:39:01 GMT-0400 (Eastern Daylight Time),154584.60000038147,A,,I,backspace,172,3,17750.199999809265,136834.4000005722,9002,WL,C,11.0
1,60.01699995994568,learn,-16.99995994567871,Fri May 02 2025 11:39:01 GMT-0400 (Eastern Daylight Time),165851.4000005722,A,None,I,None,11257,3,29017.0,136834.4000005722,9002,WL,C,11.0
2,1.1500000953674316,learn,58849.99990463257,Fri May 02 2025 11:39:01 GMT-0400 (Eastern Daylight Time),238484.5,A,b,I,b,1133,3,1149.5999994277954,237334.9000005722,9002,WL,C,1.0
2,1.3329999446868896,learn,58667.00005531311,Fri May 02 2025 11:39:01 GMT-0400 (Eastern Daylight Time),238667.70000076294,A,bo,I,o,157,3,1332.8000001907349,237334.9000005722,9002,WL,C,1.0
2,1.4500000476837158,learn,58549.999952316284,Fri May 02 2025 11:39:01 GMT-0400 (Eastern Daylight Time),238784.4000005722,A,bod,I,d,104,3,1449.5,237334.9000005722,9002,WL,C,1.0
2,1.6159999370574951,learn,58384.000062942505,Fri May 02 2025 11:39:01 GMT-0400 (Eastern Daylight Time),238951.0,A,body,I,y,148,3,1616.0999994277954,237334.9000005722,9002,WL,C,1.0
2,1.9660000801086426,learn,58033.99991989136,Fri May 02 2025 11:39:01 GMT-0400 (Eastern Daylight Time),239300.60000038147,A,bodyenter,I,enter,324,3,1965.6999998092651,237334.9000005722,9002,WL,C,1.0
2,2.316999912261963,learn,57683.00008773804,Fri May 02 2025 11:39:01 GMT-0400 (Eastern Daylight Time),239651.10000038147,A,t,I,t,338,3,350.0,239301.10000038147,9002,WL,C,2.0
2,2.433000087738037,learn,57566.99991226196,Fri May 02 2025 11:39:01 GMT-0400 (Eastern Daylight Time),239767.80000019073,A,to,I,o,96,3,466.69999980926514,239301.10000038147,9002,WL,C,2.0
2,2.565999984741211,learn,57434.00001525879,Fri May 02 2025 11:39:01 GMT-0400 (Eastern Daylight Time),239900.9000005722,A,tow,I,w,108,3,599.8000001907349,239301.10000038147,9002,WL,C,2.0
2,3.117000102996826,learn,56882.999897003174,Fri May 02 2025 11:39:01 GMT-0400 (Eastern Daylight Time),240451.10000038147,A,towe,I,e,534,3,1150.0,239301.10000038147,9002,WL,C,2.0
2,3.249000072479248,learn,56750.99992752075,Fri May 02 2025 11:39:01 GMT-0400 (Eastern Daylight Time),240583.60000038147,A,tower,I,r,112,3,1282.5,239301.10000038147,9002,WL,C,2.0
2,3.4820001125335693,learn,56517.99988746643,Fri May 02 2025 11:39:01 GMT-0400 (Eastern Daylight Time),240816.9000005722,A,towerenter,I,enter,222,3,1515.8000001907349,239301.10000038147,9002,WL,C,2.0
2,3.799999952316284,learn,56200.000047683716,Fri May 02 2025 11:39:01 GMT-0400 (Eastern Daylight Time),241134.30000019073,A,w,I,w,310,3,317.19999980926514,240817.10000038147,9002,WL,C,3.0
2,3.883000135421753,learn,56116.99986457825,Fri May 02 2025 11:39:01 GMT-0400 (Eastern Daylight Time),241217.5,A,wh,I,h,68,3,400.3999996185303,240817.10000038147,9002,WL,C,3.0
2,4.049999952316284,learn,55950.000047683716,Fri May 02 2025 11:39:01 GMT-0400 (Eastern Daylight Time),241384.30000019073,A,whe,I,e,144,3,567.1999998092651,240817.10000038147,9002,WL,C,3.0
2,4.733000040054321,learn,55266.99995994568,Fri May 02 2025 11:39:01 GMT-0400 (Eastern Daylight Time),242067.80000019073,A,whea,I,a,658,3,1250.6999998092651,240817.10000038147,9002,WL,C,3.0
2,4.91700005531311,learn,55082.99994468689,Fri May 02 2025 11:39:01 GMT-0400 (Eastern Daylight Time),242251.0,A,wheat,I,t,159,3,1433.8999996185303,240817.10000038147,9002,WL,C,3.0
2,5.749000072479248,learn,54250.99992752075,Fri May 02 2025 11:39:01 GMT-0400 (Eastern Daylight Time),243083.9000005722,A,wheatenter,I,enter,806,3,2266.800000190735,240817.10000038147,9002,WL,C,3.0
2,6.8500001430511475,learn,53149.99985694885,Fri May 02 2025 11:39:01 GMT-0400 (Eastern Daylight Time),244184.5,A,h,I,h,1082,3,1100.2999992370605,243084.20000076294,9002,WL,C,4.0
2,6.91700005531311,learn,53082.99994468689,Fri May 02 2025 11:39:01 GMT-0400 (Eastern Daylight Time),244251.0,A,ho,I,o,44,3,1166.7999992370605,243084.20000076294,9002,WL,C,4.0
2,7.08299994468689,learn,52917.00005531311,Fri May 02 2025 11:39:01 GMT-0400 (Eastern Daylight Time),244417.70000076294,A,hom,I,m,153,3,1333.5,243084.20000076294,9002,WL,C,4.0
2,7.2829999923706055,learn,52717.000007629395,Fri May 02 2025 11:39:01 GMT-0400 (Eastern Daylight Time),244617.70000076294,A,home,I,e,178,3,1533.5,243084.20000076294,9002,WL,C,4.0
2,7.83299994468689,learn,52167.00005531311,Fri May 02 2025 11:39:01 GMT-0400 (Eastern Daylight Time),245167.20000076294,A,homeenter,I,enter,537,3,2083.0,243084.20000076294,9002,WL,C,4.0
2,8.115999937057495,learn,51884.000062942505,Fri May 02 2025 11:39:01 GMT-0400 (Eastern Daylight Time),245451.0,A,s,I,s,263,3,283.3999996185303,245167.60000038147,9002,WL,C,5.0
2,8.183000087738037,learn,51816.99991226196,Fri May 02 2025 11:39:01 GMT-0400 (Eastern Daylight Time),245517.0,A,su,I,u,57,3,349.3999996185303,245167.60000038147,9002,WL,C,5.0
2,8.483000040054321,learn,51516.99995994568,Fri May 02 2025 11:39:01 GMT-0400 (Eastern Daylight Time),245817.60000038147,A,sug,I,g,281,3,650.0,245167.60000038147,9002,WL,C,5.0
2,8.615999937057495,learn,51384.000062942505,Fri May 02 2025 11:39:01 GMT-0400 (Eastern Daylight Time),245950.9000005722,A,suga,I,a,122,3,783.3000001907349,245167.60000038147,9002,WL,C,5.0
2,8.983000040054321,learn,51016.99995994568,Fri May 02 2025 11:39:01 GMT-0400 (Eastern Daylight Time),246317.4000005722,A,sugar,I,r,340,3,1149.8000001907349,245167.60000038147,9002,WL,C,5.0
2,9.782999992370605,learn,50217.000007629395,Fri May 02 2025 11:39:01 GMT-0400 (Eastern Daylight Time),247117.10000038147,A,sugarenter,I,enter,790,3,1949.5,245167.60000038147,9002,WL,C,5.0
2,10.08299994468689,learn,49917.00005531311,Fri May 02 2025 11:39:01 GMT-0400 (Eastern Daylight Time),247417.70000076294,A,b,I,b,282,3,300.20000076293945,247117.5,9002,WL,C,6.0
2,10.183000087738037,learn,49816.99991226196,Fri May 02 2025 11:39:01 GMT-0400 (Eastern Daylight Time),247517.60000038147,A,bo,I,o,73,3,400.1000003814697,247117.5,9002,WL,C,6.0
2,10.66700005531311,learn,49332.99994468689,Fri May 02 2025 11:39:01 GMT-0400 (Eastern Daylight Time),248001.0,A,bod,I,d,469,3,883.5,247117.5,9002,WL,C,6.0
2,11.350000143051147,learn,48649.99985694885,Fri May 02 2025 11:39:01 GMT-0400 (Eastern Daylight Time),248684.10000038147,A,bo,I,backspace,658,3,1566.6000003814697,247117.5,9002,WL,C,6.0
2,12.016999959945679,learn,47983.00004005432,Fri May 02 2025 11:39:01 GMT-0400 (Eastern Daylight Time),249351.0,A,boy,I,y,646,3,2233.5,247117.5,9002,WL,C,6.0
2,13.166000127792358,learn,46833.99987220764,Fri May 02 2025 11:39:01 GMT-0400 (Eastern Daylight Time),250500.5,A,boyenter,I,enter,1132,3,3383.0,247117.5,9002,WL,C,6.0
2,13.650000095367432,learn,46349.99990463257,Fri May 02 2025 11:39:01 GMT-0400 (Eastern Daylight Time),250984.4000005722,A,b,I,b,465,3,483.5,250500.9000005722,9002,WL,C,7.0
2,13.799999952316284,learn,46200.000047683716,Fri May 02 2025 11:39:01 GMT-0400 (Eastern Daylight Time),251134.20000076294,A,bo,I,o,124,3,633.3000001907349,250500.9000005722,9002,WL,C,7.0
2,13.950000047683716,learn,46049.999952316284,Fri May 02 2025 11:39:01 GMT-0400 (Eastern Daylight Time),251284.4000005722,A,bod,I,d,133,3,783.5,250500.9000005722,9002,WL,C,7.0
2,14.717000007629395,learn,45282.999992370605,Fri May 02 2025 11:39:01 GMT-0400 (Eastern Daylight Time),252051.20000076294,A,body,I,y,751,3,1550.3000001907349,250500.9000005722,9002,WL,C,7.0
2,15.065999984741211,learn,44934.00001525879,Fri May 02 2025 11:39:01 GMT-0400 (Eastern Daylight Time),252400.60000038147,A,bodyenter,I,enter,336,3,1899.6999998092651,250500.9000005722,9002,WL,C,7.0
2,15.58299994468689,learn,44417.00005531311,Fri May 02 2025 11:39:01 GMT-0400 (Eastern Daylight Time),252917.70000076294,A,d,I,d,501,3,516.7000007629395,252401.0,9002,WL,C,8.0
2,15.700000047683716,learn,44299.999952316284,Fri May 02 2025 11:39:01 GMT-0400 (Eastern Daylight Time),253034.4000005722,A,do,I,o,93,3,633.4000005722046,252401.0,9002,WL,C,8.0
2,15.832000017166138,learn,44167.99998283386,Fri May 02 2025 11:39:01 GMT-0400 (Eastern Daylight Time),253166.70000076294,A,doc,I,c,111,3,765.7000007629395,252401.0,9002,WL,C,8.0
2,16.467000007629395,learn,43532.999992370605,Fri May 02 2025 11:39:01 GMT-0400 (Eastern Daylight Time),253801.0,A,doct,I,t,612,3,1400.0,252401.0,9002,WL,C,8.0
2,16.633000135421753,learn,43366.99986457825,Fri May 02 2025 11:39:01 GMT-0400 (Eastern Daylight Time),253967.70000076294,A,docto,I,o,154,3,1566.7000007629395,252401.0,9002,WL,C,8.0
2,16.76699995994568,learn,43233.00004005432,Fri May 02 2025 11:39:01 GMT-0400 (Eastern Daylight Time),254101.10000038147,A,doctor,I,r,114,3,1700.1000003814697,252401.0,9002,WL,C,8.0
2,17.3989999294281,learn,42601.0000705719,Fri May 02 2025 11:39:01 GMT-0400 (Eastern Daylight Time),254733.80000019073,A,doctorenter,I,enter,615,3,2332.800000190735,252401.0,9002,WL,C,8.0
2,17.81599998474121,learn,42184.00001525879,Fri May 02 2025 11:39:01 GMT-0400 (Eastern Daylight Time),255150.80000019073,A,c,I,c,409,3,416.69999980926514,254734.10000038147,9002,WL,C,9.0
2,17.950000047683716,learn,42049.999952316284,Fri May 02 2025 11:39:01 GMT-0400 (Eastern Daylight Time),255284.30000019073,A,ca,I,a,117,3,550.1999998092651,254734.10000038147,9002,WL,C,9.0
2,18.5,learn,41500.0,Fri May 02 2025 11:39:01 GMT-0400 (Eastern Daylight Time),255834.20000076294,A,cam,I,m,519,3,1100.1000003814697,254734.10000038147,9002,WL,C,9.0
2,19.33299994468689,learn,40667.00005531311,Fri May 02 2025 11:39:01 GMT-0400 (Eastern Daylight Time),256667.60000038147,A,camp,I,p,810,3,1933.5,254734.10000038147,9002,WL,C,9.0
2,19.76800012588501,learn,40231.99987411499,Fri May 02 2025 11:39:01 GMT-0400 (Eastern Daylight Time),257102.30000019073,A,campenter,I,enter,405,3,2368.199999809265,254734.10000038147,9002,WL,C,9.0
2,20.23300004005432,learn,39766.99995994568,Fri May 02 2025 11:39:01 GMT-0400 (Eastern Daylight Time),257567.30000019073,A,s,I,s,454,3,464.69999980926514,257102.60000038147,9002,WL,C,10.0
2,20.31599998474121,learn,39684.00001525879,Fri May 02 2025 11:39:01 GMT-0400 (Eastern Daylight Time),257650.20000076294,A,sh,I,h,67,3,547.6000003814697,257102.60000038147,9002,WL,C,10.0
2,21.06599998474121,learn,38934.00001525879,Fri May 02 2025 11:39:01 GMT-0400 (Eastern Daylight Time),258400.4000005722,A,shr,I,r,740,3,1297.8000001907349,257102.60000038147,9002,WL,C,10.0
2,21.16700005531311,learn,38832.99994468689,Fri May 02 2025 11:39:01 GMT-0400 (Eastern Daylight Time),258501.0,A,shre,I,e,86,3,1398.3999996185303,257102.60000038147,9002,WL,C,10.0
2,22.282999992370605,learn,37717.000007629395,Fri May 02 2025 11:39:01 GMT-0400 (Eastern Daylight Time),259617.10000038147,A,shreenter,I,enter,1093,3,2514.5,257102.60000038147,9002,WL,C,10.0
2,24.450000047683716,learn,35549.999952316284,Fri May 02 2025 11:39:01 GMT-0400 (Eastern Daylight Time),261784.4000005722,A,f,I,f,2148,3,2167.0,259617.4000005722,9002,WL,C,11.0
2,24.967000007629395,learn,35032.999992370605,Fri May 02 2025 11:39:01 GMT-0400 (Eastern Daylight Time),262301.10000038147,A,,I,backspace,490,3,2683.699999809265,259617.4000005722,9002,WL,C,11.0
2,30.01699995994568,learn,29983.00004005432,Fri May 02 2025 11:39:01 GMT-0400 (Eastern Daylight Time),267351.0,A,f,I,f,5029,3,7733.599999427795,259617.4000005722,9002,WL,C,11.0
2,30.31599998474121,learn,29684.00001525879,Fri May 02 2025 11:39:01 GMT-0400 (Eastern Daylight Time),267650.80000019073,A,,I,backspace,283,3,8033.39999961853,259617.4000005722,9002,WL,C,11.0
2,30.450000047683716,learn,29549.999952316284,Fri May 02 2025 11:39:01 GMT-0400 (Eastern Daylight Time),267784.30000019073,A,c,I,c,114,3,8166.89999961853,259617.4000005722,9002,WL,C,11.0
2,30.66600012779236,learn,29333.99987220764,Fri May 02 2025 11:39:01 GMT-0400 (Eastern Daylight Time),268000.9000005722,A,ca,I,a,194,3,8383.5,259617.4000005722,9002,WL,C,11.0
2,30.83299994468689,learn,29167.00005531311,Fri May 02 2025 11:39:01 GMT-0400 (Eastern Daylight Time),268167.4000005722,A,cat,I,t,145,3,8550.0,259617.4000005722,9002,WL,C,11.0
2,30.98300004005432,learn,29016.99995994568,Fri May 02 2025 11:39:01 GMT-0400 (Eastern Daylight Time),268317.5,A,catt,I,t,121,3,8700.099999427795,259617.4000005722,9002,WL,C,11.0
2,31.383000135421753,learn,28616.999864578247,Fri May 02 2025 11:39:01 GMT-0400 (Eastern Daylight Time),268717.70000076294,A,cattl,I,l,388,3,9100.300000190735,259617.4000005722,9002,WL,C,11.0
2,31.51699995994568,learn,28483.00004005432,Fri May 02 2025 11:39:01 GMT-0400 (Eastern Daylight Time),268851.0,A,cattle,I,e,117,3,9233.599999427795,259617.4000005722,9002,WL,C,11.0
2,32.46600008010864,learn,27533.999919891357,Fri May 02 2025 11:39:01 GMT-0400 (Eastern Daylight Time),269800.4000005722,A,cattleenter,I,enter,928,3,10183.0,259617.4000005722,9002,WL,C,11.0
2,37.049999952316284,learn,22950.000047683716,Fri May 02 2025 11:39:01 GMT-0400 (Eastern Daylight Time),274384.4000005722,A,j,I,j,4573,3,4583.699999809265,269800.70000076294,9002,WL,C,12.0
2,39.38300013542175,learn,20616.999864578247,Fri May 02 2025 11:39:01 GMT-0400 (Eastern Daylight Time),276717.80000019073,A,,I,backspace,2323,3,6917.099999427795,269800.70000076294,9002,WL,C,12.0
2,43.799999952316284,learn,16200.000047683716,Fri May 02 2025 11:39:01 GMT-0400 (Eastern Daylight Time),281134.5,A,w,I,w,4408,3,11333.79999923706,269800.70000076294,9002,WL,C,12.0
2,43.91600012779236,learn,16083.999872207642,Fri May 02 2025 11:39:01 GMT-0400 (Eastern Daylight Time),281250.9000005722,A,wh,I,h,103,3,11450.199999809265,269800.70000076294,9002,WL,C,12.0
2,44.06599998474121,learn,15934.000015258789,Fri May 02 2025 11:39:01 GMT-0400 (Eastern Daylight Time),281400.9000005722,A,whe,I,e,130,3,11600.199999809265,269800.70000076294,9002,WL,C,12.0
2,44.71600008010864,learn,15283.999919891357,Fri May 02 2025 11:39:01 GMT-0400 (Eastern Daylight Time),282051.0,A,whea,I,a,626,3,12250.29999923706,269800.70000076294,9002,WL,C,12.0
2,44.867000102996826,learn,15132.999897003174,Fri May 02 2025 11:39:01 GMT-0400 (Eastern Daylight Time),282201.10000038147,A,wheat,I,t,128,3,12400.39999961853,269800.70000076294,9002,WL,C,12.0
2,45.782999992370605,learn,14217.000007629395,Fri May 02 2025 11:39:01 GMT-0400 (Eastern Daylight Time),283117.10000038147,A,wheatenter,I,enter,905,3,13316.39999961853,269800.70000076294,9002,WL,C,12.0
2,52.13300013542175,learn,7866.999864578247,Fri May 02 2025 11:39:01 GMT-0400 (Eastern Daylight Time),289467.60000038147,A,n,I,n,6329,3,6350.300000190735,283117.30000019073,9002,WL,C,13.0
2,52.26699995994568,learn,7733.000040054321,Fri May 02 2025 11:39:01 GMT-0400 (Eastern Daylight Time),289601.10000038147,A,na,I,a,121,3,6483.800000190735,283117.30000019073,9002,WL,C,13.0
2,52.38300013542175,learn,7616.999864578247,Fri May 02 2025 11:39:01 GMT-0400 (Eastern Daylight Time),289717.70000076294,A,nai,I,i,90,3,6600.400000572205,283117.30000019073,9002,WL,C,13.0
2,52.56599998474121,learn,7434.000015258789,Fri May 02 2025 11:39:01 GMT-0400 (Eastern Daylight Time),289900.80000019073,A,nail,I,l,150,3,6783.5,283117.30000019073,9002,WL,C,13.0
2,52.79900002479553,learn,7200.999975204468,Fri May 02 2025 11:39:01 GMT-0400 (Eastern Daylight Time),290133.80000019073,A,nailenter,I,enter,214,3,7016.5,283117.30000019073,9002,WL,C,13.0
2,60.01600003242493,learn,-16.000032424926758,Fri May 02 2025 11:39:01 GMT-0400 (Eastern Daylight Time),297350.80000019073,A,None,I,None,7210,3,7216.599999427795,290134.20000076294,9002,WL,C,14.0
3,1.8660001754760742,learn,58133.999824523926,Fri May 02 2025 11:39:01 GMT-0400 (Eastern Daylight Time),367000.9000005722,A,t,I,t,1846,3,1866.1000003814697,365134.80000019073,9002,WL,C,1.0
3,2.0160000324249268,learn,57983.99996757507,Fri May 02 2025 11:39:01 GMT-0400 (Eastern Daylight Time),367150.70000076294,A,to,I,o,137,3,2015.9000005722046,365134.80000019073,9002,WL,C,1.0
3,2.0989999771118164,learn,57901.00002288818,Fri May 02 2025 11:39:01 GMT-0400 (Eastern Daylight Time),367233.80000019073,A,tow,I,w,60,3,2099.0,365134.80000019073,9002,WL,C,1.0
3,2.75,learn,57250.0,Fri May 02 2025 11:39:01 GMT-0400 (Eastern Daylight Time),367884.10000038147,A,towe,I,e,622,3,2749.300000190735,365134.80000019073,9002,WL,C,1.0
3,2.7840001583099365,learn,57215.99984169006,Fri May 02 2025 11:39:01 GMT-0400 (Eastern Daylight Time),367918.4000005722,A,tower,I,r,22,3,2783.6000003814697,365134.80000019073,9002,WL,C,1.0
3,3.683000087738037,learn,56316.99991226196,Fri May 02 2025 11:39:01 GMT-0400 (Eastern Daylight Time),368817.10000038147,A,towerenter,I,enter,885,3,3682.300000190735,365134.80000019073,9002,WL,C,1.0
3,4.799000024795532,learn,55200.99997520447,Fri May 02 2025 11:39:01 GMT-0400 (Eastern Daylight Time),369934.0,A,q,I,q,1108,3,1116.5999994277954,368817.4000005722,9002,WL,C,2.0
3,4.933000087738037,learn,55066.99991226196,Fri May 02 2025 11:39:01 GMT-0400 (Eastern Daylight Time),370067.5,A,qu,I,u,118,3,1250.0999994277954,368817.4000005722,9002,WL,C,2.0
3,5.216000080108643,learn,54783.99991989136,Fri May 02 2025 11:39:01 GMT-0400 (Eastern Daylight Time),370350.5,A,que,I,e,264,3,1533.0999994277954,368817.4000005722,9002,WL,C,2.0
3,5.700000047683716,learn,54299.999952316284,Fri May 02 2025 11:39:01 GMT-0400 (Eastern Daylight Time),370834.20000076294,A,quee,I,e,470,3,2016.8000001907349,368817.4000005722,9002,WL,C,2.0
3,5.950000047683716,learn,54049.999952316284,Fri May 02 2025 11:39:01 GMT-0400 (Eastern Daylight Time),371084.0,A,queen,I,n,225,3,2266.5999994277954,368817.4000005722,9002,WL,C,2.0
3,6.64900016784668,learn,53350.99983215332,Fri May 02 2025 11:39:01 GMT-0400 (Eastern Daylight Time),371783.70000076294,A,queenenter,I,enter,677,3,2966.300000190735,368817.4000005722,9002,WL,C,2.0
3,7.25,learn,52750.0,Fri May 02 2025 11:39:01 GMT-0400 (Eastern Daylight Time),372384.10000038147,A,w,I,w,591,3,600.0,371784.10000038147,9002,WL,C,3.0
3,7.383000135421753,learn,52616.99986457825,Fri May 02 2025 11:39:01 GMT-0400 (Eastern Daylight Time),372517.5,A,wh,I,h,116,3,733.3999996185303,371784.10000038147,9002,WL,C,3.0
3,7.516000032424927,learn,52483.99996757507,Fri May 02 2025 11:39:01 GMT-0400 (Eastern Daylight Time),372650.70000076294,A,whe,I,e,108,3,866.6000003814697,371784.10000038147,9002,WL,C,3.0
3,8.032999992370605,learn,51967.000007629395,Fri May 02 2025 11:39:01 GMT-0400 (Eastern Daylight Time),373167.4000005722,A,whea,I,a,504,3,1383.3000001907349,371784.10000038147,9002,WL,C,3.0
3,8.166000127792358,learn,51833.99987220764,Fri May 02 2025 11:39:01 GMT-0400 (Eastern Daylight Time),373301.0,A,wheat,I,t,116,3,1516.8999996185303,371784.10000038147,9002,WL,C,3.0
3,9.116000175476074,learn,50883.999824523926,Fri May 02 2025 11:39:01 GMT-0400 (Eastern Daylight Time),374250.4000005722,A,wheatenter,I,enter,925,3,2466.300000190735,371784.10000038147,9002,WL,C,3.0
3,9.5,learn,50500.0,Fri May 02 2025 11:39:01 GMT-0400 (Eastern Daylight Time),374634.20000076294,A,c,I,c,363,3,383.4000005722046,374250.80000019073,9002,WL,C,4.0
3,9.583000183105469,learn,50416.99981689453,Fri May 02 2025 11:39:01 GMT-0400 (Eastern Daylight Time),374717.10000038147,A,co,I,o,73,3,466.30000019073486,374250.80000019073,9002,WL,C,4.0
3,9.766000032424927,learn,50233.99996757507,Fri May 02 2025 11:39:01 GMT-0400 (Eastern Daylight Time),374900.80000019073,A,cor,I,r,163,3,650.0,374250.80000019073,9002,WL,C,4.0
3,9.883000135421753,learn,50116.99986457825,Fri May 02 2025 11:39:01 GMT-0400 (Eastern Daylight Time),375017.60000038147,A,core,I,e,87,3,766.8000001907349,374250.80000019073,9002,WL,C,4.0
3,10.300000190734863,learn,49699.99980926514,Fri May 02 2025 11:39:01 GMT-0400 (Eastern Daylight Time),375434.20000076294,A,cor,I,backspace,394,3,1183.4000005722046,374250.80000019073,9002,WL,C,4.0
3,10.532999992370605,learn,49467.000007629395,Fri May 02 2025 11:39:01 GMT-0400 (Eastern Daylight Time),375667.5,A,corn,I,n,216,3,1416.6999998092651,374250.80000019073,9002,WL,C,4.0
3,11.183000087738037,learn,48816.99991226196,Fri May 02 2025 11:39:01 GMT-0400 (Eastern Daylight Time),376317.0,A,cornenter,I,enter,640,3,2066.199999809265,374250.80000019073,9002,WL,C,4.0
3,11.516000032424927,learn,48483.99996757507,Fri May 02 2025 11:39:01 GMT-0400 (Eastern Daylight Time),376650.9000005722,A,b,I,b,314,3,333.6000003814697,376317.30000019073,9002,WL,C,5.0
3,11.616000175476074,learn,48383.999824523926,Fri May 02 2025 11:39:01 GMT-0400 (Eastern Daylight Time),376750.70000076294,A,bo,I,o,86,3,433.4000005722046,376317.30000019073,9002,WL,C,5.0
3,11.850000143051147,learn,48149.99985694885,Fri May 02 2025 11:39:01 GMT-0400 (Eastern Daylight Time),376984.30000019073,A,bod,I,d,213,3,667.0,376317.30000019073,9002,WL,C,5.0
3,12.66700005531311,learn,47332.99994468689,Fri May 02 2025 11:39:01 GMT-0400 (Eastern Daylight Time),377801.0,A,bo,I,backspace,795,3,1483.6999998092651,376317.30000019073,9002,WL,C,5.0
3,12.916000127792358,learn,47083.99987220764,Fri May 02 2025 11:39:01 GMT-0400 (Eastern Daylight Time),378050.9000005722,A,boy,I,y,234,3,1733.6000003814697,376317.30000019073,9002,WL,C,5.0
3,13.483000040054321,learn,46516.99995994568,Fri May 02 2025 11:39:01 GMT-0400 (Eastern Daylight Time),378617.10000038147,A,boyenter,I,enter,543,3,2299.800000190735,376317.30000019073,9002,WL,C,5.0
3,13.950000047683716,learn,46049.999952316284,Fri May 02 2025 11:39:01 GMT-0400 (Eastern Daylight Time),379084.5,A,b,I,b,445,3,467.0,378617.5,9002,WL,C,6.0
3,14.350000143051147,learn,45649.99985694885,Fri May 02 2025 11:39:01 GMT-0400 (Eastern Daylight Time),379484.0,A,bo,I,o,374,3,866.5,378617.5,9002,WL,C,6.0
3,14.532999992370605,learn,45467.000007629395,Fri May 02 2025 11:39:01 GMT-0400 (Eastern Daylight Time),379667.4000005722,A,bod,I,d,166,3,1049.9000005722046,378617.5,9002,WL,C,6.0
3,14.75,learn,45250.0,Fri May 02 2025 11:39:01 GMT-0400 (Eastern Daylight Time),379884.0,A,boda,I,a,192,3,1266.5,378617.5,9002,WL,C,6.0
3,15.383000135421753,learn,44616.99986457825,Fri May 02 2025 11:39:01 GMT-0400 (Eastern Daylight Time),380517.60000038147,A,bod,I,backspace,615,3,1900.1000003814697,378617.5,9002,WL,C,6.0
3,16.550000190734863,learn,43449.99980926514,Fri May 02 2025 11:39:01 GMT-0400 (Eastern Daylight Time),381684.20000076294,A,body,I,y,1148,3,3066.7000007629395,378617.5,9002,WL,C,6.0
3,17.200000047683716,learn,42799.999952316284,Fri May 02 2025 11:39:01 GMT-0400 (Eastern Daylight Time),382334.80000019073,A,bodyenter,I,enter,638,3,3717.300000190735,378617.5,9002,WL,C,6.0
3,17.449000120162964,learn,42550.999879837036,Fri May 02 2025 11:39:01 GMT-0400 (Eastern Daylight Time),382583.70000076294,A,enter,I,enter,231,3,248.5,382335.20000076294,9002,WL,C,7.0
3,18.050000190734863,learn,41949.99980926514,Fri May 02 2025 11:39:01 GMT-0400 (Eastern Daylight Time),383184.20000076294,A,c,I,c,591,3,600.1000003814697,382584.10000038147,9002,WL,C,8.0
3,18.532999992370605,learn,41467.000007629395,Fri May 02 2025 11:39:01 GMT-0400 (Eastern Daylight Time),383667.60000038147,A,,I,backspace,466,3,1083.5,382584.10000038147,9002,WL,C,8.0
3,18.766000032424927,learn,41233.99996757507,Fri May 02 2025 11:39:01 GMT-0400 (Eastern Daylight Time),383900.70000076294,A,d,I,d,208,3,1316.6000003814697,382584.10000038147,9002,WL,C,8.0
3,18.866000175476074,learn,41133.999824523926,Fri May 02 2025 11:39:01 GMT-0400 (Eastern Daylight Time),384000.80000019073,A,do,I,o,86,3,1416.6999998092651,382584.10000038147,9002,WL,C,8.0
3,19.116000175476074,learn,40883.999824523926,Fri May 02 2025 11:39:01 GMT-0400 (Eastern Daylight Time),384250.70000076294,A,doc,I,c,226,3,1666.6000003814697,382584.10000038147,9002,WL,C,8.0
3,19.633000135421753,learn,40366.99986457825,Fri May 02 2025 11:39:01 GMT-0400 (Eastern Daylight Time),384767.30000019073,A,doct,I,t,505,3,2183.199999809265,382584.10000038147,9002,WL,C,8.0
3,19.73300004005432,learn,40266.99995994568,Fri May 02 2025 11:39:01 GMT-0400 (Eastern Daylight Time),384867.30000019073,A,docti,I,i,84,3,2283.199999809265,382584.10000038147,9002,WL,C,8.0
3,19.782000064849854,learn,40217.99993515015,Fri May 02 2025 11:39:01 GMT-0400 (Eastern Daylight Time),384916.80000019073,A,doctio,I,o,24,3,2332.699999809265,382584.10000038147,9002,WL,C,8.0
3,20.300000190734863,learn,39699.99980926514,Fri May 02 2025 11:39:01 GMT-0400 (Eastern Daylight Time),385434.20000076294,A,docti,I,backspace,497,3,2850.1000003814697,382584.10000038147,9002,WL,C,8.0
3,20.41600012779236,learn,39583.99987220764,Fri May 02 2025 11:39:01 GMT-0400 (Eastern Daylight Time),385550.5,A,doct,I,backspace,105,3,2966.3999996185303,382584.10000038147,9002,WL,C,8.0
3,20.766000032424927,learn,39233.99996757507,Fri May 02 2025 11:39:01 GMT-0400 (Eastern Daylight Time),385900.80000019073,A,docto,I,o,317,3,3316.699999809265,382584.10000038147,9002,WL,C,8.0
3,20.91600012779236,learn,39083.99987220764,Fri May 02 2025 11:39:01 GMT-0400 (Eastern Daylight Time),386050.80000019073,A,doctor,I,r,135,3,3466.699999809265,382584.10000038147,9002,WL,C,8.0
3,22.08300018310547,learn,37916.99981689453,Fri May 02 2025 11:39:01 GMT-0400 (Eastern Daylight Time),387217.0,A,doctorenter,I,enter,1143,3,4632.89999961853,382584.10000038147,9002,WL,C,8.0
3,22.48300004005432,learn,37516.99995994568,Fri May 02 2025 11:39:01 GMT-0400 (Eastern Daylight Time),387617.60000038147,A,f,I,f,389,3,400.1000003814697,387217.5,9002,WL,C,9.0
3,22.633000135421753,learn,37366.99986457825,Fri May 02 2025 11:39:01 GMT-0400 (Eastern Daylight Time),387767.5,A,fa,I,a,130,3,550.0,387217.5,9002,WL,C,9.0
3,22.800000190734863,learn,37199.99980926514,Fri May 02 2025 11:39:01 GMT-0400 (Eastern Daylight Time),387934.0,A,fal,I,l,132,3,716.5,387217.5,9002,WL,C,9.0
3,23.516000032424927,learn,36483.99996757507,Fri May 02 2025 11:39:01 GMT-0400 (Eastern Daylight Time),388650.9000005722,A,fa,I,backspace,685,3,1433.4000005722046,387217.5,9002,WL,C,9.0
3,23.64900016784668,learn,36350.99983215332,Fri May 02 2025 11:39:01 GMT-0400 (Eastern Daylight Time),388783.9000005722,A,f,I,backspace,121,3,1566.4000005722046,387217.5,9002,WL,C,9.0
3,23.866000175476074,learn,36133.999824523926,Fri May 02 2025 11:39:01 GMT-0400 (Eastern Daylight Time),389000.70000076294,A,fl,I,l,188,3,1783.2000007629395,387217.5,9002,WL,C,9.0
3,24.0,learn,36000.0,Fri May 02 2025 11:39:01 GMT-0400 (Eastern Daylight Time),389134.30000019073,A,fla,I,a,99,3,1916.8000001907349,387217.5,9002,WL,C,9.0
3,24.532999992370605,learn,35467.000007629395,Fri May 02 2025 11:39:01 GMT-0400 (Eastern Daylight Time),389667.5,A,flag,I,g,517,3,2450.0,387217.5,9002,WL,C,9.0
3,24.866000175476074,learn,35133.999824523926,Fri May 02 2025 11:39:01 GMT-0400 (Eastern Daylight Time),390000.4000005722,A,flagenter,I,enter,316,3,2782.9000005722046,387217.5,9002,WL,C,9.0
3,25.516000032424927,learn,34483.99996757507,Fri May 02 2025 11:39:01 GMT-0400 (Eastern Daylight Time),390650.70000076294,A,s,I,s,629,3,649.9000005722046,390000.80000019073,9002,WL,C,10.0
3,25.598999977111816,learn,34401.00002288818,Fri May 02 2025 11:39:01 GMT-0400 (Eastern Daylight Time),390733.70000076294,A,sh,I,h,73,3,732.9000005722046,390000.80000019073,9002,WL,C,10.0
3,25.73300004005432,learn,34266.99995994568,Fri May 02 2025 11:39:01 GMT-0400 (Eastern Daylight Time),390867.60000038147,A,sho,I,o,110,3,866.8000001907349,390000.80000019073,9002,WL,C,10.0
3,26.08300018310547,learn,33916.99981689453,Fri May 02 2025 11:39:01 GMT-0400 (Eastern Daylight Time),391217.5,A,shor,I,r,334,3,1216.6999998092651,390000.80000019073,9002,WL,C,10.0
3,26.183000087738037,learn,33816.99991226196,Fri May 02 2025 11:39:01 GMT-0400 (Eastern Daylight Time),391317.30000019073,A,shore,I,e,82,3,1316.5,390000.80000019073,9002,WL,C,10.0
3,26.766000032424927,learn,33233.99996757507,Fri May 02 2025 11:39:01 GMT-0400 (Eastern Daylight Time),391900.20000076294,A,shoreenter,I,enter,550,3,1899.4000005722046,390000.80000019073,9002,WL,C,10.0
3,27.14900016784668,learn,32850.99983215332,Fri May 02 2025 11:39:01 GMT-0400 (Eastern Daylight Time),392284.0,A,l,I,l,362,3,383.5,391900.5,9002,WL,C,11.0
3,27.33300018310547,learn,32666.99981689453,Fri May 02 2025 11:39:01 GMT-0400 (Eastern Daylight Time),392467.60000038147,A,le,I,e,168,3,567.1000003814697,391900.5,9002,WL,C,11.0
3,27.532999992370605,learn,32467.000007629395,Fri May 02 2025 11:39:01 GMT-0400 (Eastern Daylight Time),392667.4000005722,A,let,I,t,168,3,766.9000005722046,391900.5,9002,WL,C,11.0
3,27.66600012779236,learn,32333.99987220764,Fri May 02 2025 11:39:01 GMT-0400 (Eastern Daylight Time),392800.9000005722,A,lett,I,t,119,3,900.4000005722046,391900.5,9002,WL,C,11.0
3,27.90000009536743,learn,32099.99990463257,Fri May 02 2025 11:39:01 GMT-0400 (Eastern Daylight Time),393034.10000038147,A,lette,I,e,210,3,1133.6000003814697,391900.5,9002,WL,C,11.0
3,28.383000135421753,learn,31616.999864578247,Fri May 02 2025 11:39:01 GMT-0400 (Eastern Daylight Time),393517.70000076294,A,letter,I,r,473,3,1617.2000007629395,391900.5,9002,WL,C,11.0
3,28.782999992370605,learn,31217.000007629395,Fri May 02 2025 11:39:01 GMT-0400 (Eastern Daylight Time),393917.0,A,letterenter,I,enter,374,3,2016.5,391900.5,9002,WL,C,11.0
3,29.200000047683716,learn,30799.999952316284,Fri May 02 2025 11:39:01 GMT-0400 (Eastern Daylight Time),394334.10000038147,A,c,I,c,409,3,416.80000019073486,393917.30000019073,9002,WL,C,12.0
3,29.33300018310547,learn,30666.99981689453,Fri May 02 2025 11:39:01 GMT-0400 (Eastern Daylight Time),394467.4000005722,A,ca,I,a,118,3,550.1000003814697,393917.30000019073,9002,WL,C,12.0
3,29.5,learn,30500.0,Fri May 02 2025 11:39:01 GMT-0400 (Eastern Daylight Time),394634.30000019073,A,cat,I,t,142,3,717.0,393917.30000019073,9002,WL,C,12.0
3,29.683000087738037,learn,30316.999912261963,Fri May 02 2025 11:39:01 GMT-0400 (Eastern Daylight Time),394817.5,A,catt,I,t,161,3,900.1999998092651,393917.30000019073,9002,WL,C,12.0
3,30.200000047683716,learn,29799.999952316284,Fri May 02 2025 11:39:01 GMT-0400 (Eastern Daylight Time),395334.30000019073,A,cattl,I,l,495,3,1417.0,393917.30000019073,9002,WL,C,12.0
3,30.383000135421753,learn,29616.999864578247,Fri May 02 2025 11:39:01 GMT-0400 (Eastern Daylight Time),395517.4000005722,A,cattle,I,e,158,3,1600.1000003814697,393917.30000019073,9002,WL,C,12.0
3,30.782999992370605,learn,29217.000007629395,Fri May 02 2025 11:39:01 GMT-0400 (Eastern Daylight Time),395917.0,A,cattleenter,I,enter,390,3,1999.6999998092651,393917.30000019073,9002,WL,C,12.0
3,31.300000190734863,learn,28699.999809265137,Fri May 02 2025 11:39:01 GMT-0400 (Eastern Daylight Time),396434.20000076294,A,n,I,n,506,3,517.0,395917.20000076294,9002,WL,C,13.0
3,31.433000087738037,learn,28566.999912261963,Fri May 02 2025 11:39:01 GMT-0400 (Eastern Daylight Time),396567.4000005722,A,na,I,a,115,3,650.1999998092651,395917.20000076294,9002,WL,C,13.0
3,31.598999977111816,learn,28401.000022888184,Fri May 02 2025 11:39:01 GMT-0400 (Eastern Daylight Time),396733.70000076294,A,nai,I,i,156,3,816.5,395917.20000076294,9002,WL,C,13.0
3,31.73300004005432,learn,28266.99995994568,Fri May 02 2025 11:39:01 GMT-0400 (Eastern Daylight Time),396867.5,A,nail,I,l,109,3,950.2999992370605,395917.20000076294,9002,WL,C,13.0
3,34.76600003242493,learn,25233.999967575073,Fri May 02 2025 11:39:01 GMT-0400 (Eastern Daylight Time),399900.30000019073,A,nailenter,I,enter,2997,3,3983.0999994277954,395917.20000076294,9002,WL,C,13.0
3,37.90000009536743,learn,22099.99990463257,Fri May 02 2025 11:39:01 GMT-0400 (Eastern Daylight Time),403034.20000076294,A,c,I,c,3113,3,3133.5,399900.70000076294,9002,WL,C,14.0
3,38.73300004005432,learn,21266.99995994568,Fri May 02 2025 11:39:01 GMT-0400 (Eastern Daylight Time),403867.5,A,,I,backspace,808,3,3966.7999992370605,399900.70000076294,9002,WL,C,14.0
3,43.93300008773804,learn,16066.999912261963,Fri May 02 2025 11:39:01 GMT-0400 (Eastern Daylight Time),409067.5,A,c,I,c,5176,3,9166.79999923706,399900.70000076294,9002,WL,C,14.0
3,46.950000047683716,learn,13049.999952316284,Fri May 02 2025 11:39:01 GMT-0400 (Eastern Daylight Time),412084.10000038147,A,,I,backspace,3000,3,12183.39999961853,399900.70000076294,9002,WL,C,14.0
3,50.08300018310547,learn,9916.999816894531,Fri May 02 2025 11:39:01 GMT-0400 (Eastern Daylight Time),415217.30000019073,A,w,I,w,3119,3,15316.599999427795,399900.70000076294,9002,WL,C,14.0
3,50.16700005531311,learn,9832.99994468689,Fri May 02 2025 11:39:01 GMT-0400 (Eastern Daylight Time),415301.30000019073,A,wh,I,h,63,3,15400.599999427795,399900.70000076294,9002,WL,C,14.0
3,50.31599998474121,learn,9684.000015258789,Fri May 02 2025 11:39:01 GMT-0400 (Eastern Daylight Time),415450.80000019073,A,whe,I,e,127,3,15550.099999427795,399900.70000076294,9002,WL,C,14.0
3,50.98300004005432,learn,9016.999959945679,Fri May 02 2025 11:39:01 GMT-0400 (Eastern Daylight Time),416117.30000019073,A,whea,I,a,639,3,16216.599999427795,399900.70000076294,9002,WL,C,14.0
3,51.13300013542175,learn,8866.999864578247,Fri May 02 2025 11:39:01 GMT-0400 (Eastern Daylight Time),416267.4000005722,A,wheat,I,t,118,3,16366.699999809265,399900.70000076294,9002,WL,C,14.0
3,52.03200006484985,learn,7967.9999351501465,Fri May 02 2025 11:39:01 GMT-0400 (Eastern Daylight Time),417166.9000005722,A,wheatenter,I,enter,887,3,17266.199999809265,399900.70000076294,9002,WL,C,14.0
3,60.01600003242493,learn,-16.000032424926758,Fri May 02 2025 11:39:01 GMT-0400 (Eastern Daylight Time),425150.80000019073,A,None,I,None,7977,3,7983.5,417167.30000019073,9002,WL,C,15.0
4,1.316999912261963,learn,58683.00008773804,Fri May 02 2025 11:39:01 GMT-0400 (Eastern Daylight Time),494884.10000038147,A,t,I,t,1300,3,1316.6000003814697,493567.5,9002,WL,C,1.0
4,1.5329999923706055,learn,58467.000007629395,Fri May 02 2025 11:39:01 GMT-0400 (Eastern Daylight Time),495100.70000076294,A,tw,I,w,183,3,1533.2000007629395,493567.5,9002,WL,C,1.0
4,1.7160000801086426,learn,58283.99991989136,Fri May 02 2025 11:39:01 GMT-0400 (Eastern Daylight Time),495283.9000005722,A,two,I,o,166,3,1716.4000005722046,493567.5,9002,WL,C,1.0
4,2.299999952316284,learn,57700.000047683716,Fri May 02 2025 11:39:01 GMT-0400 (Eastern Daylight Time),495867.20000076294,A,tw,I,backspace,559,3,2299.7000007629395,493567.5,9002,WL,C,1.0
4,2.4170000553131104,learn,57582.99994468689,Fri May 02 2025 11:39:01 GMT-0400 (Eastern Daylight Time),495984.0,A,t,I,backspace,103,3,2416.5,493567.5,9002,WL,C,1.0
4,2.6500000953674316,learn,57349.99990463257,Fri May 02 2025 11:39:01 GMT-0400 (Eastern Daylight Time),496217.30000019073,A,to,I,o,211,3,2649.800000190735,493567.5,9002,WL,C,1.0
4,2.815999984741211,learn,57184.00001525879,Fri May 02 2025 11:39:01 GMT-0400 (Eastern Daylight Time),496383.9000005722,A,toe,I,e,152,3,2816.4000005722046,493567.5,9002,WL,C,1.0
4,2.9830000400543213,learn,57016.99995994568,Fri May 02 2025 11:39:01 GMT-0400 (Eastern Daylight Time),496550.70000076294,A,toer,I,r,147,3,2983.2000007629395,493567.5,9002,WL,C,1.0
4,3.183000087738037,learn,56816.99991226196,Fri May 02 2025 11:39:01 GMT-0400 (Eastern Daylight Time),496750.5,A,toere,I,e,187,3,3183.0,493567.5,9002,WL,C,1.0
4,3.5329999923706055,learn,56467.000007629395,Fri May 02 2025 11:39:01 GMT-0400 (Eastern Daylight Time),497100.70000076294,A,toer,I,backspace,326,3,3533.2000007629395,493567.5,9002,WL,C,1.0
4,3.6659998893737793,learn,56334.00011062622,Fri May 02 2025 11:39:01 GMT-0400 (Eastern Daylight Time),497233.9000005722,A,toe,I,backspace,117,3,3666.4000005722046,493567.5,9002,WL,C,1.0
4,3.799999952316284,learn,56200.000047683716,Fri May 02 2025 11:39:01 GMT-0400 (Eastern Daylight Time),497367.5,A,to,I,backspace,114,3,3800.0,493567.5,9002,WL,C,1.0
4,3.9660000801086426,learn,56033.99991989136,Fri May 02 2025 11:39:01 GMT-0400 (Eastern Daylight Time),497533.70000076294,A,tow,I,w,156,3,3966.2000007629395,493567.5,9002,WL,C,1.0
4,4.132999897003174,learn,55867.000102996826,Fri May 02 2025 11:39:01 GMT-0400 (Eastern Daylight Time),497700.80000019073,A,towe,I,e,141,3,4133.300000190735,493567.5,9002,WL,C,1.0
4,4.367000102996826,learn,55632.999897003174,Fri May 02 2025 11:39:01 GMT-0400 (Eastern Daylight Time),497934.0,A,tower,I,r,222,3,4366.5,493567.5,9002,WL,C,1.0
4,4.648999929428101,learn,55351.0000705719,Fri May 02 2025 11:39:01 GMT-0400 (Eastern Daylight Time),498216.80000019073,A,towerenter,I,enter,258,3,4649.300000190735,493567.5,9002,WL,C,1.0
4,5.132999897003174,learn,54867.000102996826,Fri May 02 2025 11:39:01 GMT-0400 (Eastern Daylight Time),498700.60000038147,A,q,I,q,461,3,483.5,498217.10000038147,9002,WL,C,2.0
4,5.233000040054321,learn,54766.99995994568,Fri May 02 2025 11:39:01 GMT-0400 (Eastern Daylight Time),498800.60000038147,A,qu,I,u,84,3,583.5,498217.10000038147,9002,WL,C,2.0
4,5.483000040054321,learn,54516.99995994568,Fri May 02 2025 11:39:01 GMT-0400 (Eastern Daylight Time),499050.5,A,que,I,e,226,3,833.3999996185303,498217.10000038147,9002,WL,C,2.0
4,5.650000095367432,learn,54349.99990463257,Fri May 02 2025 11:39:01 GMT-0400 (Eastern Daylight Time),499217.4000005722,A,ques,I,s,152,3,1000.3000001907349,498217.10000038147,9002,WL,C,2.0
4,6.299999952316284,learn,53700.000047683716,Fri May 02 2025 11:39:01 GMT-0400 (Eastern Daylight Time),499867.30000019073,A,que,I,backspace,625,3,1650.1999998092651,498217.10000038147,9002,WL,C,2.0
4,6.365999937057495,learn,53634.000062942505,Fri May 02 2025 11:39:01 GMT-0400 (Eastern Daylight Time),499933.80000019073,A,quee,I,e,56,3,1716.6999998092651,498217.10000038147,9002,WL,C,2.0
4,6.58299994468689,learn,53417.00005531311,Fri May 02 2025 11:39:01 GMT-0400 (Eastern Daylight Time),500150.70000076294,A,queen,I,n,189,3,1933.6000003814697,498217.10000038147,9002,WL,C,2.0
4,6.966000080108643,learn,53033.99991989136,Fri May 02 2025 11:39:01 GMT-0400 (Eastern Daylight Time),500533.5,A,queenenter,I,enter,363,3,2316.3999996185303,498217.10000038147,9002,WL,C,2.0
4,7.5,learn,52500.0,Fri May 02 2025 11:39:01 GMT-0400 (Eastern Daylight Time),501067.20000076294,A,s,I,s,512,3,533.4000005722046,500533.80000019073,9002,WL,C,3.0
4,7.549000024795532,learn,52450.99997520447,Fri May 02 2025 11:39:01 GMT-0400 (Eastern Daylight Time),501116.9000005722,A,sh,I,h,39,3,583.1000003814697,500533.80000019073,9002,WL,C,3.0
4,7.7170000076293945,learn,52282.999992370605,Fri May 02 2025 11:39:01 GMT-0400 (Eastern Daylight Time),501284.10000038147,A,sho,I,o,153,3,750.3000001907349,500533.80000019073,9002,WL,C,3.0
4,8.08299994468689,learn,51917.00005531311,Fri May 02 2025 11:39:01 GMT-0400 (Eastern Daylight Time),501650.80000019073,A,shor,I,r,348,3,1117.0,500533.80000019073,9002,WL,C,3.0
4,8.132999897003174,learn,51867.000102996826,Fri May 02 2025 11:39:01 GMT-0400 (Eastern Daylight Time),501700.5,A,shore,I,e,33,3,1166.6999998092651,500533.80000019073,9002,WL,C,3.0
4,8.882999897003174,learn,51117.000102996826,Fri May 02 2025 11:39:01 GMT-0400 (Eastern Daylight Time),502450.20000076294,A,shoreenter,I,enter,729,3,1916.4000005722046,500533.80000019073,9002,WL,C,3.0
4,9.349999904632568,learn,50650.00009536743,Fri May 02 2025 11:39:01 GMT-0400 (Eastern Daylight Time),502917.4000005722,A,h,I,h,452,3,466.80000019073486,502450.60000038147,9002,WL,C,4.0
4,9.516999959945679,learn,50483.00004005432,Fri May 02 2025 11:39:01 GMT-0400 (Eastern Daylight Time),503084.10000038147,A,ho,I,o,142,3,633.5,502450.60000038147,9002,WL,C,4.0
4,9.650000095367432,learn,50349.99990463257,Fri May 02 2025 11:39:01 GMT-0400 (Eastern Daylight Time),503217.30000019073,A,hom,I,m,120,3,766.6999998092651,502450.60000038147,9002,WL,C,4.0
4,10.382999897003174,learn,49617.000102996826,Fri May 02 2025 11:39:01 GMT-0400 (Eastern Daylight Time),503950.30000019073,A,home,I,e,723,3,1499.6999998092651,502450.60000038147,9002,WL,C,4.0
4,11.098999977111816,learn,48901.00002288818,Fri May 02 2025 11:39:01 GMT-0400 (Eastern Daylight Time),504666.80000019073,A,homeenter,I,enter,691,3,2216.199999809265,502450.60000038147,9002,WL,C,4.0
4,11.58299994468689,learn,48417.00005531311,Fri May 02 2025 11:39:01 GMT-0400 (Eastern Daylight Time),505150.5,A,c,I,c,475,3,483.29999923706055,504667.20000076294,9002,WL,C,5.0
4,11.700000047683716,learn,48299.999952316284,Fri May 02 2025 11:39:01 GMT-0400 (Eastern Daylight Time),505267.10000038147,A,co,I,o,100,3,599.8999996185303,504667.20000076294,9002,WL,C,5.0
4,11.882999897003174,learn,48117.000102996826,Fri May 02 2025 11:39:01 GMT-0400 (Eastern Daylight Time),505450.5,A,cor,I,r,160,3,783.2999992370605,504667.20000076294,9002,WL,C,5.0
4,12.065999984741211,learn,47934.00001525879,Fri May 02 2025 11:39:01 GMT-0400 (Eastern Daylight Time),505633.80000019073,A,corn,I,n,169,3,966.5999994277954,504667.20000076294,9002,WL,C,5.0
4,12.999000072479248,learn,47000.99992752075,Fri May 02 2025 11:39:01 GMT-0400 (Eastern Daylight Time),506566.9000005722,A,cornenter,I,enter,913,3,1899.6999998092651,504667.20000076294,9002,WL,C,5.0
4,13.282999992370605,learn,46717.000007629395,Fri May 02 2025 11:39:01 GMT-0400 (Eastern Daylight Time),506850.60000038147,A,s,I,s,271,3,283.3999996185303,506567.20000076294,9002,WL,C,6.0
4,13.382999897003174,learn,46617.000102996826,Fri May 02 2025 11:39:01 GMT-0400 (Eastern Daylight Time),506950.60000038147,A,su,I,u,80,3,383.3999996185303,506567.20000076294,9002,WL,C,6.0
4,13.782999992370605,learn,46217.000007629395,Fri May 02 2025 11:39:01 GMT-0400 (Eastern Daylight Time),507350.60000038147,A,sug,I,g,373,3,783.3999996185303,506567.20000076294,9002,WL,C,6.0
4,13.950000047683716,learn,46049.999952316284,Fri May 02 2025 11:39:01 GMT-0400 (Eastern Daylight Time),507517.30000019073,A,suga,I,a,140,3,950.0999994277954,506567.20000076294,9002,WL,C,6.0
4,14.08299994468689,learn,45917.00005531311,Fri May 02 2025 11:39:01 GMT-0400 (Eastern Daylight Time),507650.60000038147,A,sugar,I,r,117,3,1083.3999996185303,506567.20000076294,9002,WL,C,6.0
4,14.948999881744385,learn,45051.000118255615,Fri May 02 2025 11:39:01 GMT-0400 (Eastern Daylight Time),508516.80000019073,A,sugarenter,I,enter,840,3,1949.5999994277954,506567.20000076294,9002,WL,C,6.0
4,15.75,learn,44250.0,Fri May 02 2025 11:39:01 GMT-0400 (Eastern Daylight Time),509317.20000076294,A,b,I,b,785,3,800.0,508517.20000076294,9002,WL,C,7.0
4,15.882999897003174,learn,44117.000102996826,Fri May 02 2025 11:39:01 GMT-0400 (Eastern Daylight Time),509450.60000038147,A,bo,I,o,109,3,933.3999996185303,508517.20000076294,9002,WL,C,7.0
4,16.34999990463257,learn,43650.00009536743,Fri May 02 2025 11:39:01 GMT-0400 (Eastern Daylight Time),509917.4000005722,A,boy,I,y,441,3,1400.1999998092651,508517.20000076294,9002,WL,C,7.0
4,16.73300004005432,learn,43266.99995994568,Fri May 02 2025 11:39:01 GMT-0400 (Eastern Daylight Time),510300.20000076294,A,boyenter,I,enter,356,3,1783.0,508517.20000076294,9002,WL,C,7.0
4,17.23300004005432,learn,42766.99995994568,Fri May 02 2025 11:39:01 GMT-0400 (Eastern Daylight Time),510800.70000076294,A,d,I,d,490,3,500.20000076293945,510300.5,9002,WL,C,8.0
4,17.382999897003174,learn,42617.000102996826,Fri May 02 2025 11:39:01 GMT-0400 (Eastern Daylight Time),510950.70000076294,A,do,I,o,131,3,650.2000007629395,510300.5,9002,WL,C,8.0
4,17.59999990463257,learn,42400.00009536743,Fri May 02 2025 11:39:01 GMT-0400 (Eastern Daylight Time),511167.30000019073,A,doc,I,c,204,3,866.8000001907349,510300.5,9002,WL,C,8.0
4,17.83299994468689,learn,42167.00005531311,Fri May 02 2025 11:39:01 GMT-0400 (Eastern Daylight Time),511400.80000019073,A,doct,I,t,204,3,1100.3000001907349,510300.5,9002,WL,C,8.0
4,18.0,learn,42000.0,Fri May 02 2025 11:39:01 GMT-0400 (Eastern Daylight Time),511567.20000076294,A,docto,I,o,155,3,1266.7000007629395,510300.5,9002,WL,C,8.0
4,18.08299994468689,learn,41917.00005531311,Fri May 02 2025 11:39:01 GMT-0400 (Eastern Daylight Time),511650.20000076294,A,doctor,I,r,60,3,1349.7000007629395,510300.5,9002,WL,C,8.0
4,18.6489999294281,learn,41351.0000705719,Fri May 02 2025 11:39:01 GMT-0400 (Eastern Daylight Time),512216.60000038147,A,doctorenter,I,enter,547,3,1916.1000003814697,510300.5,9002,WL,C,8.0
4,18.967000007629395,learn,41032.999992370605,Fri May 02 2025 11:39:01 GMT-0400 (Eastern Daylight Time),512534.0,A,c,I,c,302,3,317.0,512217.0,9002,WL,C,9.0
4,19.15000009536743,learn,40849.99990463257,Fri May 02 2025 11:39:01 GMT-0400 (Eastern Daylight Time),512717.30000019073,A,ca,I,a,158,3,500.30000019073486,512217.0,9002,WL,C,9.0
4,19.782999992370605,learn,40217.000007629395,Fri May 02 2025 11:39:01 GMT-0400 (Eastern Daylight Time),513350.70000076294,A,cam,I,m,606,3,1133.7000007629395,512217.0,9002,WL,C,9.0
4,20.782999992370605,learn,39217.000007629395,Fri May 02 2025 11:39:01 GMT-0400 (Eastern Daylight Time),514350.20000076294,A,camp,I,p,985,3,2133.2000007629395,512217.0,9002,WL,C,9.0
4,21.282999992370605,learn,38717.000007629395,Fri May 02 2025 11:39:01 GMT-0400 (Eastern Daylight Time),514850.20000076294,A,campenter,I,enter,485,3,2633.2000007629395,512217.0,9002,WL,C,9.0
4,21.73300004005432,learn,38266.99995994568,Fri May 02 2025 11:39:01 GMT-0400 (Eastern Daylight Time),515300.70000076294,A,l,I,l,436,3,450.20000076293945,514850.5,9002,WL,C,10.0
4,22.06599998474121,learn,37934.00001525879,Fri May 02 2025 11:39:01 GMT-0400 (Eastern Daylight Time),515633.9000005722,A,,I,backspace,318,3,783.4000005722046,514850.5,9002,WL,C,10.0
4,22.200000047683716,learn,37799.999952316284,Fri May 02 2025 11:39:01 GMT-0400 (Eastern Daylight Time),515767.30000019073,A,f,I,f,114,3,916.8000001907349,514850.5,9002,WL,C,10.0
4,22.31599998474121,learn,37684.00001525879,Fri May 02 2025 11:39:01 GMT-0400 (Eastern Daylight Time),515884.0,A,fl,I,l,92,3,1033.5,514850.5,9002,WL,C,10.0
4,23.0,learn,37000.0,Fri May 02 2025 11:39:01 GMT-0400 (Eastern Daylight Time),516567.20000076294,A,fla,I,a,654,3,1716.7000007629395,514850.5,9002,WL,C,10.0
4,23.282999992370605,learn,36717.000007629395,Fri May 02 2025 11:39:01 GMT-0400 (Eastern Daylight Time),516850.60000038147,A,flag,I,g,265,3,2000.1000003814697,514850.5,9002,WL,C,10.0
4,23.716000080108643,learn,36283.99991989136,Fri May 02 2025 11:39:01 GMT-0400 (Eastern Daylight Time),517283.5,A,flagenter,I,enter,415,3,2433.0,514850.5,9002,WL,C,10.0
4,24.132999897003174,learn,35867.000102996826,Fri May 02 2025 11:39:01 GMT-0400 (Eastern Daylight Time),517700.70000076294,A,c,I,c,402,3,416.80000019073486,517283.9000005722,9002,WL,C,11.0
4,24.25,learn,35750.0,Fri May 02 2025 11:39:01 GMT-0400 (Eastern Daylight Time),517817.4000005722,A,ca,I,a,94,3,533.5,517283.9000005722,9002,WL,C,11.0
4,24.40000009536743,learn,35599.99990463257,Fri May 02 2025 11:39:01 GMT-0400 (Eastern Daylight Time),517967.10000038147,A,cat,I,t,130,3,683.1999998092651,517283.9000005722,9002,WL,C,11.0
4,24.84999990463257,learn,35150.00009536743,Fri May 02 2025 11:39:01 GMT-0400 (Eastern Daylight Time),518417.30000019073,A,catt,I,t,428,3,1133.3999996185303,517283.9000005722,9002,WL,C,11.0
4,25.200000047683716,learn,34799.999952316284,Fri May 02 2025 11:39:01 GMT-0400 (Eastern Daylight Time),518767.20000076294,A,cattl,I,l,338,3,1483.3000001907349,517283.9000005722,9002,WL,C,11.0
4,25.299999952316284,learn,34700.000047683716,Fri May 02 2025 11:39:01 GMT-0400 (Eastern Daylight Time),518867.5,A,cattle,I,e,85,3,1583.5999994277954,517283.9000005722,9002,WL,C,11.0
4,25.716000080108643,learn,34283.99991989136,Fri May 02 2025 11:39:01 GMT-0400 (Eastern Daylight Time),519283.5,A,cattleenter,I,enter,390,3,1999.5999994277954,517283.9000005722,9002,WL,C,11.0
4,26.115999937057495,learn,33884.000062942505,Fri May 02 2025 11:39:01 GMT-0400 (Eastern Daylight Time),519683.9000005722,A,s,I,s,387,3,400.0,519283.9000005722,9002,WL,C,12.0
4,26.217000007629395,learn,33782.999992370605,Fri May 02 2025 11:39:01 GMT-0400 (Eastern Daylight Time),519784.10000038147,A,sh,I,h,80,3,500.19999980926514,519283.9000005722,9002,WL,C,12.0
4,26.33299994468689,learn,33667.00005531311,Fri May 02 2025 11:39:01 GMT-0400 (Eastern Daylight Time),519900.80000019073,A,sho,I,o,92,3,616.8999996185303,519283.9000005722,9002,WL,C,12.0
4,26.41599988937378,learn,33584.00011062622,Fri May 02 2025 11:39:01 GMT-0400 (Eastern Daylight Time),519983.60000038147,A,shor,I,r,69,3,699.6999998092651,519283.9000005722,9002,WL,C,12.0
4,26.516000032424927,learn,33483.99996757507,Fri May 02 2025 11:39:01 GMT-0400 (Eastern Daylight Time),520083.9000005722,A,shore,I,e,83,3,800.0,519283.9000005722,9002,WL,C,12.0
4,28.632999897003174,learn,31367.000102996826,Fri May 02 2025 11:39:01 GMT-0400 (Eastern Daylight Time),522200.20000076294,A,shoreenter,I,enter,2089,3,2916.300000190735,519283.9000005722,9002,WL,C,12.0
4,29.967000007629395,learn,30032.999992370605,Fri May 02 2025 11:39:01 GMT-0400 (Eastern Daylight Time),523534.0,A,l,I,l,1310,3,1333.5,522200.5,9002,WL,C,13.0
4,31.16700005531311,learn,28832.99994468689,Fri May 02 2025 11:39:01 GMT-0400 (Eastern Daylight Time),524734.1000003815,A,,I,backspace,1189,3,2533.6000003814697,522200.5,9002,WL,C,13.0
4,32.56599998474121,learn,27434.00001525879,Fri May 02 2025 11:39:01 GMT-0400 (Eastern Daylight Time),526133.6000003815,A,l,I,l,1380,3,3933.1000003814697,522200.5,9002,WL,C,13.0
4,32.76600003242493,learn,27233.999967575073,Fri May 02 2025 11:39:01 GMT-0400 (Eastern Daylight Time),526333.4000005722,A,le,I,e,189,3,4132.900000572205,522200.5,9002,WL,C,13.0
4,33.08299994468689,learn,26917.00005531311,Fri May 02 2025 11:39:01 GMT-0400 (Eastern Daylight Time),526650.5,A,let,I,t,290,3,4450.0,522200.5,9002,WL,C,13.0
4,33.282999992370605,learn,26717.000007629395,Fri May 02 2025 11:39:01 GMT-0400 (Eastern Daylight Time),526850.6000003815,A,lett,I,t,183,3,4650.10000038147,522200.5,9002,WL,C,13.0
4,33.700000047683716,learn,26299.999952316284,Fri May 02 2025 11:39:01 GMT-0400 (Eastern Daylight Time),527267.1000003815,A,lette,I,e,400,3,5066.60000038147,522200.5,9002,WL,C,13.0
4,33.81599998474121,learn,26184.00001525879,Fri May 02 2025 11:39:01 GMT-0400 (Eastern Daylight Time),527384.0,A,letter,I,r,95,3,5183.5,522200.5,9002,WL,C,13.0
4,34.29900002479553,learn,25700.999975204468,Fri May 02 2025 11:39:01 GMT-0400 (Eastern Daylight Time),527866.8000001907,A,letterenter,I,enter,451,3,5666.300000190735,522200.5,9002,WL,C,13.0
4,37.83299994468689,learn,22167.00005531311,Fri May 02 2025 11:39:01 GMT-0400 (Eastern Daylight Time),531400.6000003815,A,n,I,n,3515,3,3533.5,527867.1000003815,9002,WL,C,14.0
4,37.91700005531311,learn,22082.99994468689,Fri May 02 2025 11:39:01 GMT-0400 (Eastern Daylight Time),531484.1000003815,A,na,I,a,58,3,3617.0,527867.1000003815,9002,WL,C,14.0
4,38.09999990463257,learn,21900.00009536743,Fri May 02 2025 11:39:01 GMT-0400 (Eastern Daylight Time),531667.4000005722,A,nai,I,i,168,3,3800.300000190735,527867.1000003815,9002,WL,C,14.0
4,38.282999992370605,learn,21717.000007629395,Fri May 02 2025 11:39:01 GMT-0400 (Eastern Daylight Time),531850.6000003815,A,nail,I,l,161,3,3983.5,527867.1000003815,9002,WL,C,14.0
4,38.51600003242493,learn,21483.999967575073,Fri May 02 2025 11:39:01 GMT-0400 (Eastern Daylight Time),532083.5,A,nailenter,I,enter,215,3,4216.39999961853,527867.1000003815,9002,WL,C,14.0
4,40.049999952316284,learn,19950.000047683716,Fri May 02 2025 11:39:01 GMT-0400 (Eastern Daylight Time),533617.4000005722,A,j,I,j,1522,3,1533.6000003814697,532083.8000001907,9002,WL,C,15.0
4,40.48300004005432,learn,19516.99995994568,Fri May 02 2025 11:39:01 GMT-0400 (Eastern Daylight Time),534050.6000003815,A,,I,backspace,417,3,1966.8000001907349,532083.8000001907,9002,WL,C,15.0
4,43.91599988937378,learn,16084.00011062622,Fri May 02 2025 11:39:01 GMT-0400 (Eastern Daylight Time),537484.0,A,w,I,w,3409,3,5400.199999809265,532083.8000001907,9002,WL,C,15.0
4,43.98300004005432,learn,16016.999959945679,Fri May 02 2025 11:39:01 GMT-0400 (Eastern Daylight Time),537550.1000003815,A,wh,I,h,54,3,5466.300000190735,532083.8000001907,9002,WL,C,15.0
4,44.132999897003174,learn,15867.000102996826,Fri May 02 2025 11:39:01 GMT-0400 (Eastern Daylight Time),537700.5,A,whe,I,e,133,3,5616.699999809265,532083.8000001907,9002,WL,C,15.0
4,44.450000047683716,learn,15549.999952316284,Fri May 02 2025 11:39:01 GMT-0400 (Eastern Daylight Time),538017.4000005722,A,whee,I,e,303,3,5933.60000038147,532083.8000001907,9002,WL,C,15.0
4,44.799999952316284,learn,15200.000047683716,Fri May 02 2025 11:39:01 GMT-0400 (Eastern Daylight Time),538367.3000001907,A,whe,I,backspace,338,3,6283.5,532083.8000001907,9002,WL,C,15.0
4,44.882999897003174,learn,15117.000102996826,Fri May 02 2025 11:39:01 GMT-0400 (Eastern Daylight Time),538450.6000003815,A,whea,I,a,69,3,6366.800000190735,532083.8000001907,9002,WL,C,15.0
4,45.032999992370605,learn,14967.000007629395,Fri May 02 2025 11:39:01 GMT-0400 (Eastern Daylight Time),538600.7000007629,A,wheat,I,t,129,3,6516.900000572205,532083.8000001907,9002,WL,C,15.0
4,45.382999897003174,learn,14617.000102996826,Fri May 02 2025 11:39:01 GMT-0400 (Eastern Daylight Time),538950.1000003815,A,wheatenter,I,enter,329,3,6866.300000190735,532083.8000001907,9002,WL,C,15.0
5,1.3840000629425049,learn,60000.0,Fri May 02 2025 11:39:01 GMT-0400 (Eastern Daylight Time),620367.4000005722,A,t,I,t,1372,3,1383.1999998092651,618984.2000007629,9002,WL,C,1.0
5,1.6670000553131104,learn,60000.0,Fri May 02 2025 11:39:01 GMT-0400 (Eastern Daylight Time),620650.8000001907,A,to,I,o,259,3,1666.5999994277954,618984.2000007629,9002,WL,C,1.0
5,1.8500001430511475,learn,60000.0,Fri May 02 2025 11:39:01 GMT-0400 (Eastern Daylight Time),620833.7000007629,A,tow,I,w,168,3,1849.5,618984.2000007629,9002,WL,C,1.0
5,2.0500001907348633,learn,60000.0,Fri May 02 2025 11:39:01 GMT-0400 (Eastern Daylight Time),621033.9000005722,A,towe,I,e,178,3,2049.699999809265,618984.2000007629,9002,WL,C,1.0
5,2.4000000953674316,learn,60000.0,Fri May 02 2025 11:39:01 GMT-0400 (Eastern Daylight Time),621383.9000005722,A,tower,I,r,329,3,2399.699999809265,618984.2000007629,9002,WL,C,1.0
5,3.0500001907348633,learn,60000.0,Fri May 02 2025 11:39:01 GMT-0400 (Eastern Daylight Time),622033.3000001907,A,towerenter,I,enter,633,3,3049.0999994277954,618984.2000007629,9002,WL,C,1.0
5,3.6000001430511475,learn,60000.0,Fri May 02 2025 11:39:01 GMT-0400 (Eastern Daylight Time),622583.8000001907,A,w,I,w,533,3,550.0999994277954,622033.7000007629,9002,WL,C,2.0
5,3.950000047683716,learn,60000.0,Fri May 02 2025 11:39:01 GMT-0400 (Eastern Daylight Time),622933.9000005722,A,wh,I,h,332,3,900.1999998092651,622033.7000007629,9002,WL,C,2.0
5,4.0329999923706055,learn,60000.0,Fri May 02 2025 11:39:01 GMT-0400 (Eastern Daylight Time),623016.9000005722,A,whe,I,e,58,3,983.1999998092651,622033.7000007629,9002,WL,C,2.0
5,4.234000205993652,learn,60000.0,Fri May 02 2025 11:39:01 GMT-0400 (Eastern Daylight Time),623217.2000007629,A,whea,I,a,179,3,1183.5,622033.7000007629,9002,WL,C,2.0
5,4.450000047683716,learn,60000.0,Fri May 02 2025 11:39:01 GMT-0400 (Eastern Daylight Time),623433.8000001907,A,wheat,I,t,195,3,1400.0999994277954,622033.7000007629,9002,WL,C,2.0
5,5.1000001430511475,learn,60000.0,Fri May 02 2025 11:39:01 GMT-0400 (Eastern Daylight Time),624083.4000005722,A,wheatenter,I,enter,633,3,2049.699999809265,622033.7000007629,9002,WL,C,2.0
5,5.4670000076293945,learn,60000.0,Fri May 02 2025 11:39:01 GMT-0400 (Eastern Daylight Time),624450.4000005722,A,s,I,s,355,3,366.6000003814697,624083.8000001907,9002,WL,C,3.0
5,5.634000062942505,learn,60000.0,Fri May 02 2025 11:39:01 GMT-0400 (Eastern Daylight Time),624617.9000005722,A,su,I,u,157,3,534.1000003814697,624083.8000001907,9002,WL,C,3.0
5,5.884000062942505,learn,60000.0,Fri May 02 2025 11:39:01 GMT-0400 (Eastern Daylight Time),624867.2000007629,A,sua,I,a,233,3,783.4000005722046,624083.8000001907,9002,WL,C,3.0
5,6.16700005531311,learn,60000.0,Fri May 02 2025 11:39:01 GMT-0400 (Eastern Daylight Time),625150.3000001907,A,suag,I,g,272,3,1066.5,624083.8000001907,9002,WL,C,3.0
5,6.634000062942505,learn,60000.0,Fri May 02 2025 11:39:01 GMT-0400 (Eastern Daylight Time),625617.1000003815,A,sua,I,backspace,452,3,1533.3000001907349,624083.8000001907,9002,WL,C,3.0
5,6.867000102996826,learn,60000.0,Fri May 02 2025 11:39:01 GMT-0400 (Eastern Daylight Time),625850.6000003815,A,su,I,backspace,206,3,1766.8000001907349,624083.8000001907,9002,WL,C,3.0
5,6.983000040054321,learn,60000.0,Fri May 02 2025 11:39:01 GMT-0400 (Eastern Daylight Time),625967.0,A,s,I,backspace,103,3,1883.1999998092651,624083.8000001907,9002,WL,C,3.0
5,7.134000062942505,learn,60000.0,Fri May 02 2025 11:39:01 GMT-0400 (Eastern Daylight Time),626117.1000003815,A,,I,backspace,125,3,2033.3000001907349,624083.8000001907,9002,WL,C,3.0
5,7.367000102996826,learn,60000.0,Fri May 02 2025 11:39:01 GMT-0400 (Eastern Daylight Time),626350.0,A,q,I,q,215,3,2266.199999809265,624083.8000001907,9002,WL,C,3.0
5,7.450000047683716,learn,60000.0,Fri May 02 2025 11:39:01 GMT-0400 (Eastern Daylight Time),626433.7000007629,A,qu,I,u,70,3,2349.9000005722046,624083.8000001907,9002,WL,C,3.0
5,7.734000205993652,learn,60000.0,Fri May 02 2025 11:39:01 GMT-0400 (Eastern Daylight Time),626717.1000003815,A,que,I,e,250,3,2633.300000190735,624083.8000001907,9002,WL,C,3.0
5,7.91700005531311,learn,60000.0,Fri May 02 2025 11:39:01 GMT-0400 (Eastern Daylight Time),626900.7000007629,A,ques,I,s,167,3,2816.9000005722046,624083.8000001907,9002,WL,C,3.0
5,8.284000158309937,learn,60000.0,Fri May 02 2025 11:39:01 GMT-0400 (Eastern Daylight Time),627267.1000003815,A,que,I,backspace,351,3,3183.300000190735,624083.8000001907,9002,WL,C,3.0
5,8.384000062942505,learn,60000.0,Fri May 02 2025 11:39:01 GMT-0400 (Eastern Daylight Time),627367.1000003815,A,quee,I,e,80,3,3283.300000190735,624083.8000001907,9002,WL,C,3.0
5,8.600000143051147,learn,60000.0,Fri May 02 2025 11:39:01 GMT-0400 (Eastern Daylight Time),627583.7000007629,A,queen,I,n,205,3,3499.9000005722046,624083.8000001907,9002,WL,C,3.0
5,9.467000007629395,learn,60000.0,Fri May 02 2025 11:39:01 GMT-0400 (Eastern Daylight Time),628450.0,A,queenenter,I,enter,851,3,4366.199999809265,624083.8000001907,9002,WL,C,3.0
5,9.967000007629395,learn,60000.0,Fri May 02 2025 11:39:01 GMT-0400 (Eastern Daylight Time),628950.5,A,s,I,s,484,3,500.0999994277954,628450.4000005722,9002,WL,C,4.0
5,10.150000095367432,learn,60000.0,Fri May 02 2025 11:39:01 GMT-0400 (Eastern Daylight Time),629133.8000001907,A,su,I,u,157,3,683.3999996185303,628450.4000005722,9002,WL,C,4.0
5,10.734000205993652,learn,60000.0,Fri May 02 2025 11:39:01 GMT-0400 (Eastern Daylight Time),629717.1000003815,A,sug,I,g,565,3,1266.6999998092651,628450.4000005722,9002,WL,C,4.0
5,10.934000015258789,learn,60000.0,Fri May 02 2025 11:39:01 GMT-0400 (Eastern Daylight Time),629917.0,A,suga,I,a,174,3,1466.5999994277954,628450.4000005722,9002,WL,C,4.0
5,11.067000150680542,learn,60000.0,Fri May 02 2025 11:39:01 GMT-0400 (Eastern Daylight Time),630050.5,A,sugar,I,r,117,3,1600.0999994277954,628450.4000005722,9002,WL,C,4.0
5,12.133000135421753,learn,60000.0,Fri May 02 2025 11:39:01 GMT-0400 (Eastern Daylight Time),631116.6000003815,A,sugarenter,I,enter,1047,3,2666.199999809265,628450.4000005722,9002,WL,C,4.0
5,12.567000150680542,learn,60000.0,Fri May 02 2025 11:39:01 GMT-0400 (Eastern Daylight Time),631550.1000003815,A,h,I,h,426,3,433.19999980926514,631116.9000005722,9002,WL,C,5.0
5,12.66700005531311,learn,60000.0,Fri May 02 2025 11:39:01 GMT-0400 (Eastern Daylight Time),631650.4000005722,A,ho,I,o,85,3,533.5,631116.9000005722,9002,WL,C,5.0
5,12.884000062942505,learn,60000.0,Fri May 02 2025 11:39:01 GMT-0400 (Eastern Daylight Time),631867.2000007629,A,hom,I,m,184,3,750.3000001907349,631116.9000005722,9002,WL,C,5.0
5,13.0,learn,60000.0,Fri May 02 2025 11:39:01 GMT-0400 (Eastern Daylight Time),631983.7000007629,A,home,I,e,104,3,866.8000001907349,631116.9000005722,9002,WL,C,5.0
5,13.567000150680542,learn,60000.0,Fri May 02 2025 11:39:01 GMT-0400 (Eastern Daylight Time),632550.0,A,homeenter,I,enter,547,3,1433.0999994277954,631116.9000005722,9002,WL,C,5.0
5,14.017000198364258,learn,60000.0,Fri May 02 2025 11:39:01 GMT-0400 (Eastern Daylight Time),633000.6000003815,A,b,I,b,432,3,450.1000003814697,632550.5,9002,WL,C,6.0
5,14.150000095367432,learn,60000.0,Fri May 02 2025 11:39:01 GMT-0400 (Eastern Daylight Time),633133.6000003815,A,bo,I,o,123,3,583.1000003814697,632550.5,9002,WL,C,6.0
5,14.867000102996826,learn,60000.0,Fri May 02 2025 11:39:01 GMT-0400 (Eastern Daylight Time),633850.4000005722,A,bod,I,d,693,3,1299.9000005722046,632550.5,9002,WL,C,6.0
5,16.0,learn,60000.0,Fri May 02 2025 11:39:01 GMT-0400 (Eastern Daylight Time),634983.8000001907,A,body,I,y,1111,3,2433.300000190735,632550.5,9002,WL,C,6.0
5,16.950000047683716,learn,60000.0,Fri May 02 2025 11:39:01 GMT-0400 (Eastern Daylight Time),635933.1000003815,A,bodyenter,I,enter,937,3,3382.6000003814697,632550.5,9002,WL,C,6.0
5,17.58400011062622,learn,60000.0,Fri May 02 2025 11:39:01 GMT-0400 (Eastern Daylight Time),636567.2000007629,A,d,I,d,617,3,633.8000001907349,635933.4000005722,9002,WL,C,7.0
5,17.734000205993652,learn,60000.0,Fri May 02 2025 11:39:01 GMT-0400 (Eastern Daylight Time),636717.0,A,do,I,o,121,3,783.5999994277954,635933.4000005722,9002,WL,C,7.0
5,17.850000143051147,learn,60000.0,Fri May 02 2025 11:39:01 GMT-0400 (Eastern Daylight Time),636833.8000001907,A,doc,I,c,103,3,900.3999996185303,635933.4000005722,9002,WL,C,7.0
5,18.034000158309937,learn,60000.0,Fri May 02 2025 11:39:01 GMT-0400 (Eastern Daylight Time),637017.2000007629,A,doca,I,a,154,3,1083.8000001907349,635933.4000005722,9002,WL,C,7.0
5,18.517000198364258,learn,60000.0,Fri May 02 2025 11:39:01 GMT-0400 (Eastern Daylight Time),637499.9000005722,A,doc,I,backspace,449,3,1566.5,635933.4000005722,9002,WL,C,7.0
5,18.93400001525879,learn,60000.0,Fri May 02 2025 11:39:01 GMT-0400 (Eastern Daylight Time),637917.2000007629,A,doct,I,t,394,3,1983.8000001907349,635933.4000005722,9002,WL,C,7.0
5,19.050000190734863,learn,60000.0,Fri May 02 2025 11:39:01 GMT-0400 (Eastern Daylight Time),638033.9000005722,A,docto,I,o,101,3,2100.5,635933.4000005722,9002,WL,C,7.0
5,19.217000007629395,learn,60000.0,Fri May 02 2025 11:39:01 GMT-0400 (Eastern Daylight Time),638200.4000005722,A,doctor,I,r,137,3,2267.0,635933.4000005722,9002,WL,C,7.0
5,19.600000143051147,learn,60000.0,Fri May 02 2025 11:39:01 GMT-0400 (Eastern Daylight Time),638583.3000001907,A,doctorenter,I,enter,361,3,2649.8999996185303,635933.4000005722,9002,WL,C,7.0
5,19.93400001525879,learn,60000.0,Fri May 02 2025 11:39:01 GMT-0400 (Eastern Daylight Time),638917.1000003815,A,c,I,c,318,3,333.3999996185303,638583.7000007629,9002,WL,C,8.0
5,20.067000150680542,learn,60000.0,Fri May 02 2025 11:39:01 GMT-0400 (Eastern Daylight Time),639050.3000001907,A,ca,I,a,110,3,466.5999994277954,638583.7000007629,9002,WL,C,8.0
5,20.93400001525879,learn,60000.0,Fri May 02 2025 11:39:01 GMT-0400 (Eastern Daylight Time),639917.1000003815,A,cam,I,m,834,3,1333.3999996185303,638583.7000007629,9002,WL,C,8.0
5,21.18400001525879,learn,60000.0,Fri May 02 2025 11:39:01 GMT-0400 (Eastern Daylight Time),640167.1000003815,A,camp,I,p,227,3,1583.3999996185303,638583.7000007629,9002,WL,C,8.0
5,22.15000009536743,learn,60000.0,Fri May 02 2025 11:39:01 GMT-0400 (Eastern Daylight Time),641133.0,A,campenter,I,enter,954,3,2549.2999992370605,638583.7000007629,9002,WL,C,8.0
5,22.850000143051147,learn,60000.0,Fri May 02 2025 11:39:01 GMT-0400 (Eastern Daylight Time),641833.8000001907,A,f,I,f,681,3,700.5,641133.3000001907,9002,WL,C,9.0
5,23.0,learn,60000.0,Fri May 02 2025 11:39:01 GMT-0400 (Eastern Daylight Time),641983.7000007629,A,fa,I,a,138,3,850.4000005722046,641133.3000001907,9002,WL,C,9.0
5,23.367000102996826,learn,60000.0,Fri May 02 2025 11:39:01 GMT-0400 (Eastern Daylight Time),642350.3000001907,A,fal,I,l,348,3,1217.0,641133.3000001907,9002,WL,C,9.0
5,23.634000062942505,learn,60000.0,Fri May 02 2025 11:39:01 GMT-0400 (Eastern Daylight Time),642617.3000001907,A,fa,I,backspace,246,3,1484.0,641133.3000001907,9002,WL,C,9.0
5,23.784000158309937,learn,60000.0,Fri May 02 2025 11:39:01 GMT-0400 (Eastern Daylight Time),642767.0,A,f,I,backspace,136,3,1633.6999998092651,641133.3000001907,9002,WL,C,9.0
5,24.0,learn,60000.0,Fri May 02 2025 11:39:01 GMT-0400 (Eastern Daylight Time),642983.8000001907,A,fl,I,l,189,3,1850.5,641133.3000001907,9002,WL,C,9.0
5,24.134000062942505,learn,60000.0,Fri May 02 2025 11:39:01 GMT-0400 (Eastern Daylight Time),643117.1000003815,A,fla,I,a,100,3,1983.8000001907349,641133.3000001907,9002,WL,C,9.0
5,24.367000102996826,learn,60000.0,Fri May 02 2025 11:39:01 GMT-0400 (Eastern Daylight Time),643350.6000003815,A,flag,I,g,213,3,2217.300000190735,641133.3000001907,9002,WL,C,9.0
5,24.782999992370605,learn,60000.0,Fri May 02 2025 11:39:01 GMT-0400 (Eastern Daylight Time),643766.8000001907,A,flagenter,I,enter,395,3,2633.5,641133.3000001907,9002,WL,C,9.0
5,25.183000087738037,learn,60000.0,Fri May 02 2025 11:39:01 GMT-0400 (Eastern Daylight Time),644166.9000005722,A,l,I,l,383,3,399.80000019073486,643767.1000003815,9002,WL,C,10.0
5,25.33400011062622,learn,60000.0,Fri May 02 2025 11:39:01 GMT-0400 (Eastern Daylight Time),644317.4000005722,A,le,I,e,139,3,550.3000001907349,643767.1000003815,9002,WL,C,10.0
5,25.800000190734863,learn,60000.0,Fri May 02 2025 11:39:01 GMT-0400 (Eastern Daylight Time),644783.7000007629,A,let,I,t,454,3,1016.6000003814697,643767.1000003815,9002,WL,C,10.0
5,25.933000087738037,learn,60000.0,Fri May 02 2025 11:39:01 GMT-0400 (Eastern Daylight Time),644917.0,A,lett,I,t,116,3,1149.8999996185303,643767.1000003815,9002,WL,C,10.0
5,26.067000150680542,learn,60000.0,Fri May 02 2025 11:39:01 GMT-0400 (Eastern Daylight Time),645050.6000003815,A,lette,I,e,103,3,1283.5,643767.1000003815,9002,WL,C,10.0
5,26.200000047683716,learn,60000.0,Fri May 02 2025 11:39:01 GMT-0400 (Eastern Daylight Time),645183.7000007629,A,letter,I,r,119,3,1416.6000003814697,643767.1000003815,9002,WL,C,10.0
5,27.100000143051147,learn,60000.0,Fri May 02 2025 11:39:01 GMT-0400 (Eastern Daylight Time),646083.3000001907,A,letterenter,I,enter,883,3,2316.199999809265,643767.1000003815,9002,WL,C,10.0
5,27.534000158309937,learn,60000.0,Fri May 02 2025 11:39:01 GMT-0400 (Eastern Daylight Time),646517.1000003815,A,b,I,b,418,3,433.5,646083.6000003815,9002,WL,C,11.0
5,27.700000047683716,learn,60000.0,Fri May 02 2025 11:39:01 GMT-0400 (Eastern Daylight Time),646683.7000007629,A,bo,I,o,141,3,600.1000003814697,646083.6000003815,9002,WL,C,11.0
5,27.850000143051147,learn,60000.0,Fri May 02 2025 11:39:01 GMT-0400 (Eastern Daylight Time),646833.7000007629,A,bod,I,d,128,3,750.1000003814697,646083.6000003815,9002,WL,C,11.0
5,28.284000158309937,learn,60000.0,Fri May 02 2025 11:39:01 GMT-0400 (Eastern Daylight Time),647267.1000003815,A,body,I,y,417,3,1183.5,646083.6000003815,9002,WL,C,11.0
5,28.98300004005432,learn,60000.0,Fri May 02 2025 11:39:01 GMT-0400 (Eastern Daylight Time),647966.6000003815,A,bodyenter,I,enter,687,3,1883.0,646083.6000003815,9002,WL,C,11.0
5,29.75,learn,60000.0,Fri May 02 2025 11:39:01 GMT-0400 (Eastern Daylight Time),648733.6000003815,A,s,I,s,760,3,766.6999998092651,647966.9000005722,9002,WL,C,12.0
5,29.91700005531311,learn,60000.0,Fri May 02 2025 11:39:01 GMT-0400 (Eastern Daylight Time),648900.5,A,sh,I,h,150,3,933.5999994277954,647966.9000005722,9002,WL,C,12.0
5,29.98300004005432,learn,60000.0,Fri May 02 2025 11:39:01 GMT-0400 (Eastern Daylight Time),648966.6000003815,A,sho,I,o,45,3,999.6999998092651,647966.9000005722,9002,WL,C,12.0
5,30.33400011062622,learn,60000.0,Fri May 02 2025 11:39:01 GMT-0400 (Eastern Daylight Time),649317.1000003815,A,show,I,w,333,3,1350.1999998092651,647966.9000005722,9002,WL,C,12.0
5,30.90000009536743,learn,60000.0,Fri May 02 2025 11:39:01 GMT-0400 (Eastern Daylight Time),649883.7000007629,A,sho,I,backspace,543,3,1916.8000001907349,647966.9000005722,9002,WL,C,12.0
5,31.43400001525879,learn,60000.0,Fri May 02 2025 11:39:01 GMT-0400 (Eastern Daylight Time),650417.1000003815,A,shor,I,r,518,3,2450.199999809265,647966.9000005722,9002,WL,C,12.0
5,31.66700005531311,learn,60000.0,Fri May 02 2025 11:39:01 GMT-0400 (Eastern Daylight Time),650650.5,A,shore,I,e,210,3,2683.5999994277954,647966.9000005722,9002,WL,C,12.0
5,32.31700015068054,learn,60000.0,Fri May 02 2025 11:39:01 GMT-0400 (Eastern Daylight Time),651299.9000005722,A,shoreenter,I,enter,632,3,3333.0,647966.9000005722,9002,WL,C,12.0
5,33.117000102996826,learn,60000.0,Fri May 02 2025 11:39:01 GMT-0400 (Eastern Daylight Time),652100.4000005722,A,c,I,c,786,3,800.1000003814697,651300.3000001907,9002,WL,C,13.0
5,33.25,learn,60000.0,Fri May 02 2025 11:39:01 GMT-0400 (Eastern Daylight Time),652233.9000005722,A,co,I,o,111,3,933.6000003814697,651300.3000001907,9002,WL,C,13.0
5,33.43400001525879,learn,60000.0,Fri May 02 2025 11:39:01 GMT-0400 (Eastern Daylight Time),652417.2000007629,A,cor,I,r,162,3,1116.9000005722046,651300.3000001907,9002,WL,C,13.0
5,34.617000102996826,learn,60000.0,Fri May 02 2025 11:39:01 GMT-0400 (Eastern Daylight Time),653600.4000005722,A,corn,I,n,1161,3,2300.1000003814697,651300.3000001907,9002,WL,C,13.0
5,35.33300018310547,learn,60000.0,Fri May 02 2025 11:39:01 GMT-0400 (Eastern Daylight Time),654316.5,A,cornenter,I,enter,690,3,3016.199999809265,651300.3000001907,9002,WL,C,13.0
5,35.65000009536743,learn,60000.0,Fri May 02 2025 11:39:01 GMT-0400 (Eastern Daylight Time),654633.9000005722,A,c,I,c,298,3,317.1000003814697,654316.8000001907,9002,WL,C,14.0
5,35.80000019073486,learn,60000.0,Fri May 02 2025 11:39:01 GMT-0400 (Eastern Daylight Time),654783.7000007629,A,ca,I,a,137,3,466.9000005722046,654316.8000001907,9002,WL,C,14.0
5,36.08400011062622,learn,60000.0,Fri May 02 2025 11:39:01 GMT-0400 (Eastern Daylight Time),655067.0,A,cat,I,t,251,3,750.1999998092651,654316.8000001907,9002,WL,C,14.0
5,37.367000102996826,learn,60000.0,Fri May 02 2025 11:39:01 GMT-0400 (Eastern Daylight Time),656350.2000007629,A,catt,I,t,1273,3,2033.4000005722046,654316.8000001907,9002,WL,C,14.0
5,37.467000007629395,learn,60000.0,Fri May 02 2025 11:39:01 GMT-0400 (Eastern Daylight Time),656450.5,A,cattl,I,l,85,3,2133.699999809265,654316.8000001907,9002,WL,C,14.0
5,37.65000009536743,learn,60000.0,Fri May 02 2025 11:39:01 GMT-0400 (Eastern Daylight Time),656633.7000007629,A,cattle,I,e,161,3,2316.9000005722046,654316.8000001907,9002,WL,C,14.0
5,37.88300013542175,learn,60000.0,Fri May 02 2025 11:39:01 GMT-0400 (Eastern Daylight Time),656866.6000003815,A,cattleenter,I,enter,208,3,2549.800000190735,654316.8000001907,9002,WL,C,14.0
5,40.05000019073486,learn,60000.0,Fri May 02 2025 11:39:01 GMT-0400 (Eastern Daylight Time),659033.8000001907,A,n,I,n,2148,3,2166.699999809265,656867.1000003815,9002,WL,C,15.0
5,40.18300008773804,learn,60000.0,Fri May 02 2025 11:39:01 GMT-0400 (Eastern Daylight Time),659167.0,A,na,I,a,121,3,2299.8999996185303,656867.1000003815,9002,WL,C,15.0
5,40.367000102996826,learn,60000.0,Fri May 02 2025 11:39:01 GMT-0400 (Eastern Daylight Time),659350.4000005722,A,nai,I,i,163,3,2483.300000190735,656867.1000003815,9002,WL,C,15.0
5,40.532999992370605,learn,60000.0,Fri May 02 2025 11:39:01 GMT-0400 (Eastern Daylight Time),659516.9000005722,A,nail,I,l,133,3,2649.800000190735,656867.1000003815,9002,WL,C,15.0
5,41.16700005531311,learn,60000.0,Fri May 02 2025 11:39:01 GMT-0400 (Eastern Daylight Time),660150.0,A,nailenter,I,enter,610,3,3282.8999996185303,656867.1000003815,9002,WL,C,15.0
6,0.6830000877380371,distr,59316.99991226196,Fri May 02 2025 11:39:01 GMT-0400 (Eastern Daylight Time),736850.4000005722,B,w,I,w,669,3,682.9000005722046,736167.5,9002,WL,C,1.0
6,0.8660001754760742,distr,59133.999824523926,Fri May 02 2025 11:39:01 GMT-0400 (Eastern Daylight Time),737033.6000003815,B,wh,I,h,158,3,866.1000003814697,736167.5,9002,WL,C,1.0
6,0.9660000801086426,distr,59033.99991989136,Fri May 02 2025 11:39:01 GMT-0400 (Eastern Daylight Time),737133.3000001907,B,whe,I,e,66,3,965.8000001907349,736167.5,9002,WL,C,1.0
6,1.1000001430511475,distr,58899.99985694885,Fri May 02 2025 11:39:01 GMT-0400 (Eastern Daylight Time),737267.1000003815,B,whea,I,a,118,3,1099.6000003814697,736167.5,9002,WL,C,1.0
6,1.4160001277923584,distr,58583.99987220764,Fri May 02 2025 11:39:01 GMT-0400 (Eastern Daylight Time),737583.5,B,wheat,I,t,304,3,1416.0,736167.5,9002,WL,C,1.0
6,1.7160000801086426,distr,58283.99991989136,Fri May 02 2025 11:39:01 GMT-0400 (Eastern Daylight Time),737883.1000003815,B,wheatenter,I,enter,276,3,1715.6000003814697,736167.5,9002,WL,C,1.0
6,1.9660000801086426,distr,58033.99991989136,Fri May 02 2025 11:39:01 GMT-0400 (Eastern Daylight Time),738133.7000007629,B,f,I,f,234,3,250.20000076293945,737883.5,9002,WL,C,2.0
6,2.0989999771118164,distr,57901.00002288818,Fri May 02 2025 11:39:01 GMT-0400 (Eastern Daylight Time),738266.8000001907,B,fo,I,o,110,3,383.30000019073486,737883.5,9002,WL,C,2.0
6,2.182000160217285,distr,57817.999839782715,Fri May 02 2025 11:39:01 GMT-0400 (Eastern Daylight Time),738349.8000001907,B,for,I,r,65,3,466.30000019073486,737883.5,9002,WL,C,2.0
6,2.3489999771118164,distr,57651.00002288818,Fri May 02 2025 11:39:01 GMT-0400 (Eastern Daylight Time),738516.9000005722,B,forr,I,r,151,3,633.4000005722046,737883.5,9002,WL,C,2.0
6,3.0160000324249268,distr,56983.99996757507,Fri May 02 2025 11:39:01 GMT-0400 (Eastern Daylight Time),739183.6000003815,B,for,I,backspace,655,3,1300.1000003814697,737883.5,9002,WL,C,2.0
6,3.2660000324249268,distr,56733.99996757507,Fri May 02 2025 11:39:01 GMT-0400 (Eastern Daylight Time),739433.7000007629,B,fore,I,e,228,3,1550.2000007629395,737883.5,9002,WL,C,2.0
6,3.565999984741211,distr,56434.00001525879,Fri May 02 2025 11:39:01 GMT-0400 (Eastern Daylight Time),739733.7000007629,B,fores,I,s,280,3,1850.2000007629395,737883.5,9002,WL,C,2.0
6,3.699000120162964,distr,56300.999879837036,Fri May 02 2025 11:39:01 GMT-0400 (Eastern Daylight Time),739866.9000005722,B,forest,I,t,110,3,1983.4000005722046,737883.5,9002,WL,C,2.0
6,4.082000017166138,distr,55917.99998283386,Fri May 02 2025 11:39:01 GMT-0400 (Eastern Daylight Time),740249.8000001907,B,forestenter,I,enter,356,3,2366.300000190735,737883.5,9002,WL,C,2.0
6,4.299000024795532,distr,55700.99997520447,Fri May 02 2025 11:39:01 GMT-0400 (Eastern Daylight Time),740466.8000001907,B,m,I,m,205,3,216.69999980926514,740250.1000003815,9002,WL,C,3.0
6,4.499000072479248,distr,55500.99992752075,Fri May 02 2025 11:39:01 GMT-0400 (Eastern Daylight Time),740667.0,B,mo,I,o,177,3,416.8999996185303,740250.1000003815,9002,WL,C,3.0
6,4.633000135421753,distr,55366.99986457825,Fri May 02 2025 11:39:01 GMT-0400 (Eastern Daylight Time),740800.4000005722,B,mon,I,n,120,3,550.3000001907349,740250.1000003815,9002,WL,C,3.0
6,5.266000032424927,distr,54733.99996757507,Fri May 02 2025 11:39:01 GMT-0400 (Eastern Daylight Time),741433.7000007629,B,mone,I,e,602,3,1183.6000003814697,740250.1000003815,9002,WL,C,3.0
6,5.450000047683716,distr,54549.999952316284,Fri May 02 2025 11:39:01 GMT-0400 (Eastern Daylight Time),741617.1000003815,B,money,I,y,170,3,1367.0,740250.1000003815,9002,WL,C,3.0
6,5.749000072479248,distr,54250.99992752075,Fri May 02 2025 11:39:01 GMT-0400 (Eastern Daylight Time),741916.5,B,moneyenter,I,enter,274,3,1666.3999996185303,740250.1000003815,9002,WL,C,3.0
6,6.098999977111816,distr,53901.00002288818,Fri May 02 2025 11:39:01 GMT-0400 (Eastern Daylight Time),742266.8000001907,B,h,I,h,330,3,350.0,741916.8000001907,9002,WL,C,4.0
6,6.183000087738037,distr,53816.99991226196,Fri May 02 2025 11:39:01 GMT-0400 (Eastern Daylight Time),742350.0,B,ho,I,o,72,3,433.19999980926514,741916.8000001907,9002,WL,C,4.0
6,6.416000127792358,distr,53583.99987220764,Fri May 02 2025 11:39:01 GMT-0400 (Eastern Daylight Time),742583.6000003815,B,hot,I,t,206,3,666.8000001907349,741916.8000001907,9002,WL,C,4.0
6,6.616000175476074,distr,53383.999824523926,Fri May 02 2025 11:39:01 GMT-0400 (Eastern Daylight Time),742783.6000003815,B,hoti,I,i,180,3,866.8000001907349,741916.8000001907,9002,WL,C,4.0
6,7.050000190734863,distr,52949.99980926514,Fri May 02 2025 11:39:01 GMT-0400 (Eastern Daylight Time),743217.0,B,hot,I,backspace,419,3,1300.1999998092651,741916.8000001907,9002,WL,C,4.0
6,7.249000072479248,distr,52750.99992752075,Fri May 02 2025 11:39:01 GMT-0400 (Eastern Daylight Time),743416.8000001907,B,hote,I,e,176,3,1500.0,741916.8000001907,9002,WL,C,4.0
6,7.332000017166138,distr,52667.99998283386,Fri May 02 2025 11:39:01 GMT-0400 (Eastern Daylight Time),743499.9000005722,B,hotel,I,l,48,3,1583.1000003814697,741916.8000001907,9002,WL,C,4.0
6,7.616000175476074,distr,52383.999824523926,Fri May 02 2025 11:39:01 GMT-0400 (Eastern Daylight Time),743783.3000001907,B,hotelenter,I,enter,262,3,1866.5,741916.8000001907,9002,WL,C,4.0
6,8.266000032424927,distr,51733.99996757507,Fri May 02 2025 11:39:01 GMT-0400 (Eastern Daylight Time),744433.5,B,h,I,h,638,3,650.0,743783.5,9002,WL,C,5.0
6,8.39900016784668,distr,51600.99983215332,Fri May 02 2025 11:39:01 GMT-0400 (Eastern Daylight Time),744566.9000005722,B,ha,I,a,114,3,783.4000005722046,743783.5,9002,WL,C,5.0
6,8.516000032424927,distr,51483.99996757507,Fri May 02 2025 11:39:01 GMT-0400 (Eastern Daylight Time),744683.7000007629,B,hal,I,l,83,3,900.2000007629395,743783.5,9002,WL,C,5.0
6,8.616000175476074,distr,51383.999824523926,Fri May 02 2025 11:39:01 GMT-0400 (Eastern Daylight Time),744783.7000007629,B,hall,I,l,88,3,1000.2000007629395,743783.5,9002,WL,C,5.0
6,8.949000120162964,distr,51050.999879837036,Fri May 02 2025 11:39:01 GMT-0400 (Eastern Daylight Time),745116.4000005722,B,hallenter,I,enter,299,3,1332.9000005722046,743783.5,9002,WL,C,5.0
6,9.366000175476074,distr,50633.999824523926,Fri May 02 2025 11:39:01 GMT-0400 (Eastern Daylight Time),745533.8000001907,B,d,I,d,394,3,417.0,745116.8000001907,9002,WL,C,6.0
6,9.483000040054321,distr,50516.99995994568,Fri May 02 2025 11:39:01 GMT-0400 (Eastern Daylight Time),745650.2000007629,B,di,I,i,102,3,533.4000005722046,745116.8000001907,9002,WL,C,6.0
6,9.666000127792358,distr,50333.99987220764,Fri May 02 2025 11:39:01 GMT-0400 (Eastern Daylight Time),745833.7000007629,B,dia,I,a,154,3,716.9000005722046,745116.8000001907,9002,WL,C,6.0
6,10.233000040054321,distr,49766.99995994568,Fri May 02 2025 11:39:01 GMT-0400 (Eastern Daylight Time),746400.3000001907,B,diam,I,m,553,3,1283.5,745116.8000001907,9002,WL,C,6.0
6,10.348999977111816,distr,49651.00002288818,Fri May 02 2025 11:39:01 GMT-0400 (Eastern Daylight Time),746516.9000005722,B,diamo,I,o,91,3,1400.1000003814697,745116.8000001907,9002,WL,C,6.0
6,10.633000135421753,distr,49366.99986457825,Fri May 02 2025 11:39:01 GMT-0400 (Eastern Daylight Time),746800.3000001907,B,diamon,I,n,269,3,1683.5,745116.8000001907,9002,WL,C,6.0
6,11.315999984741211,distr,48684.00001525879,Fri May 02 2025 11:39:01 GMT-0400 (Eastern Daylight Time),747483.4000005722,B,diamond,I,d,657,3,2366.6000003814697,745116.8000001907,9002,WL,C,6.0
6,11.549000024795532,distr,48450.99997520447,Fri May 02 2025 11:39:01 GMT-0400 (Eastern Daylight Time),747716.5,B,diamondenter,I,enter,212,3,2599.699999809265,745116.8000001907,9002,WL,C,6.0
6,11.866000175476074,distr,48133.999824523926,Fri May 02 2025 11:39:01 GMT-0400 (Eastern Daylight Time),748033.7000007629,B,m,I,m,306,3,316.80000019073486,747716.9000005722,9002,WL,C,7.0
6,12.032999992370605,distr,47967.000007629395,Fri May 02 2025 11:39:01 GMT-0400 (Eastern Daylight Time),748200.2000007629,B,mo,I,o,146,3,483.30000019073486,747716.9000005722,9002,WL,C,7.0
6,12.098999977111816,distr,47901.00002288818,Fri May 02 2025 11:39:01 GMT-0400 (Eastern Daylight Time),748266.6000003815,B,mot,I,t,43,3,549.6999998092651,747716.9000005722,9002,WL,C,7.0
6,12.183000087738037,distr,47816.99991226196,Fri May 02 2025 11:39:01 GMT-0400 (Eastern Daylight Time),748350.0,B,moth,I,h,75,3,633.0999994277954,747716.9000005722,9002,WL,C,7.0
6,12.266000032424927,distr,47733.99996757507,Fri May 02 2025 11:39:01 GMT-0400 (Eastern Daylight Time),748433.7000007629,B,mothe,I,e,62,3,716.8000001907349,747716.9000005722,9002,WL,C,7.0
6,12.383000135421753,distr,47616.99986457825,Fri May 02 2025 11:39:01 GMT-0400 (Eastern Daylight Time),748550.3000001907,B,mother,I,r,90,3,833.3999996185303,747716.9000005722,9002,WL,C,7.0
6,12.832000017166138,distr,47167.99998283386,Fri May 02 2025 11:39:01 GMT-0400 (Eastern Daylight Time),748999.9000005722,B,motherenter,I,enter,420,3,1283.0,747716.9000005722,9002,WL,C,7.0
6,13.366000175476074,distr,46633.999824523926,Fri May 02 2025 11:39:01 GMT-0400 (Eastern Daylight Time),749533.5,B,c,I,c,525,3,533.2999992370605,749000.2000007629,9002,WL,C,8.0
6,13.516000032424927,distr,46483.99996757507,Fri May 02 2025 11:39:01 GMT-0400 (Eastern Daylight Time),749683.6000003815,B,ch,I,h,133,3,683.3999996185303,749000.2000007629,9002,WL,C,8.0
6,13.633000135421753,distr,46366.99986457825,Fri May 02 2025 11:39:01 GMT-0400 (Eastern Daylight Time),749800.2000007629,B,chr,I,r,88,3,800.0,749000.2000007629,9002,WL,C,8.0
6,13.916000127792358,distr,46083.99987220764,Fri May 02 2025 11:39:01 GMT-0400 (Eastern Daylight Time),750083.7000007629,B,chri,I,i,259,3,1083.5,749000.2000007629,9002,WL,C,8.0
6,14.39900016784668,distr,45600.99983215332,Fri May 02 2025 11:39:01 GMT-0400 (Eastern Daylight Time),750566.9000005722,B,chris,I,s,463,3,1566.6999998092651,749000.2000007629,9002,WL,C,8.0
6,14.565999984741211,distr,45434.00001525879,Fri May 02 2025 11:39:01 GMT-0400 (Eastern Daylight Time),750733.4000005722,B,christ,I,t,154,3,1733.1999998092651,749000.2000007629,9002,WL,C,8.0
6,14.900000095367432,distr,45099.99990463257,Fri May 02 2025 11:39:01 GMT-0400 (Eastern Daylight Time),751067.0,B,christm,I,m,302,3,2066.7999992370605,749000.2000007629,9002,WL,C,8.0
6,15.065999984741211,distr,44934.00001525879,Fri May 02 2025 11:39:01 GMT-0400 (Eastern Daylight Time),751233.7000007629,B,christma,I,a,153,3,2233.5,749000.2000007629,9002,WL,C,8.0
6,15.633000135421753,distr,44366.99986457825,Fri May 02 2025 11:39:01 GMT-0400 (Eastern Daylight Time),751800.2000007629,B,christmas,I,s,545,3,2800.0,749000.2000007629,9002,WL,C,8.0
6,15.866000175476074,distr,44133.999824523926,Fri May 02 2025 11:39:01 GMT-0400 (Eastern Daylight Time),752033.2000007629,B,christmasenter,I,enter,210,3,3033.0,749000.2000007629,9002,WL,C,8.0
6,16.249000072479248,distr,43750.99992752075,Fri May 02 2025 11:39:01 GMT-0400 (Eastern Daylight Time),752416.8000001907,B,w,I,w,373,3,383.30000019073486,752033.5,9002,WL,C,9.0
6,16.366000175476074,distr,43633.999824523926,Fri May 02 2025 11:39:01 GMT-0400 (Eastern Daylight Time),752533.6000003815,B,wi,I,i,99,3,500.1000003814697,752033.5,9002,WL,C,9.0
6,16.58300018310547,distr,43416.99981689453,Fri May 02 2025 11:39:01 GMT-0400 (Eastern Daylight Time),752750.1000003815,B,win,I,n,201,3,716.6000003814697,752033.5,9002,WL,C,9.0
6,17.098999977111816,distr,42901.00002288818,Fri May 02 2025 11:39:01 GMT-0400 (Eastern Daylight Time),753266.8000001907,B,wint,I,t,501,3,1233.3000001907349,752033.5,9002,WL,C,9.0
6,17.25,distr,42750.0,Fri May 02 2025 11:39:01 GMT-0400 (Eastern Daylight Time),753417.1000003815,B,winte,I,e,128,3,1383.6000003814697,752033.5,9002,WL,C,9.0
6,17.366000175476074,distr,42633.999824523926,Fri May 02 2025 11:39:01 GMT-0400 (Eastern Daylight Time),753533.6000003815,B,winter,I,r,104,3,1500.1000003814697,752033.5,9002,WL,C,9.0
6,19.032000064849854,distr,40967.99993515015,Fri May 02 2025 11:39:01 GMT-0400 (Eastern Daylight Time),755199.8000001907,B,winterenter,I,enter,1651,3,3166.300000190735,752033.5,9002,WL,C,9.0
6,21.049000024795532,distr,38950.99997520447,Fri May 02 2025 11:39:01 GMT-0400 (Eastern Daylight Time),757216.9000005722,B,g,I,g,2007,3,2016.6999998092651,755200.2000007629,9002,WL,C,10.0
6,21.64900016784668,distr,38350.99983215332,Fri May 02 2025 11:39:01 GMT-0400 (Eastern Daylight Time),757817.0,B,,I,backspace,578,3,2616.7999992370605,755200.2000007629,9002,WL,C,10.0
6,27.532999992370605,distr,32467.000007629395,Fri May 02 2025 11:39:01 GMT-0400 (Eastern Daylight Time),763700.3000001907,B,d,I,d,5867,3,8500.099999427795,755200.2000007629,9002,WL,C,10.0
6,27.66600012779236,distr,32333.99987220764,Fri May 02 2025 11:39:01 GMT-0400 (Eastern Daylight Time),763833.6000003815,B,do,I,o,111,3,8633.39999961853,755200.2000007629,9002,WL,C,10.0
6,27.81599998474121,distr,32184.00001525879,Fri May 02 2025 11:39:01 GMT-0400 (Eastern Daylight Time),763983.6000003815,B,don,I,n,129,3,8783.39999961853,755200.2000007629,9002,WL,C,10.0
6,28.14900016784668,distr,31850.99983215332,Fri May 02 2025 11:39:01 GMT-0400 (Eastern Daylight Time),764317.0,B,dont,I,t,307,3,9116.79999923706,755200.2000007629,9002,WL,C,10.0
6,28.582000017166138,distr,31417.999982833862,Fri May 02 2025 11:39:01 GMT-0400 (Eastern Daylight Time),764749.8000001907,B,dontenter,I,enter,422,3,9549.599999427795,755200.2000007629,9002,WL,C,10.0
6,28.966000080108643,distr,31033.999919891357,Fri May 02 2025 11:39:01 GMT-0400 (Eastern Daylight Time),765133.6000003815,B,k,I,k,377,3,383.5,764750.1000003815,9002,WL,C,11.0
6,29.08300018310547,distr,30916.99981689453,Fri May 02 2025 11:39:01 GMT-0400 (Eastern Daylight Time),765250.3000001907,B,kn,I,n,103,3,500.19999980926514,764750.1000003815,9002,WL,C,11.0
6,29.23300004005432,distr,30766.99995994568,Fri May 02 2025 11:39:01 GMT-0400 (Eastern Daylight Time),765400.1000003815,B,kno,I,o,129,3,650.0,764750.1000003815,9002,WL,C,11.0
6,29.366000175476074,distr,30633.999824523926,Fri May 02 2025 11:39:01 GMT-0400 (Eastern Daylight Time),765533.7000007629,B,know,I,w,123,3,783.6000003814697,764750.1000003815,9002,WL,C,11.0
6,29.682000160217285,distr,30317.999839782715,Fri May 02 2025 11:39:01 GMT-0400 (Eastern Daylight Time),765849.7000007629,B,knowenter,I,enter,293,3,1099.6000003814697,764750.1000003815,9002,WL,C,11.0
6,30.049000024795532,distr,29950.999975204468,Fri May 02 2025 11:39:01 GMT-0400 (Eastern Daylight Time),766216.9000005722,B,a,I,a,348,3,366.69999980926514,765850.2000007629,9002,WL,C,12.0
6,30.16600012779236,distr,29833.99987220764,Fri May 02 2025 11:39:01 GMT-0400 (Eastern Daylight Time),766333.2000007629,B,an,I,n,91,3,483.0,765850.2000007629,9002,WL,C,12.0
6,30.81599998474121,distr,29184.00001525879,Fri May 02 2025 11:39:01 GMT-0400 (Eastern Daylight Time),766983.7000007629,B,any,I,y,630,3,1133.5,765850.2000007629,9002,WL,C,12.0
6,31.06599998474121,distr,28934.00001525879,Fri May 02 2025 11:39:01 GMT-0400 (Eastern Daylight Time),767233.2000007629,B,anyenter,I,enter,232,3,1383.0,765850.2000007629,9002,WL,C,12.0
6,31.48300004005432,distr,28516.99995994568,Fri May 02 2025 11:39:01 GMT-0400 (Eastern Daylight Time),767650.3000001907,B,m,I,m,405,3,416.80000019073486,767233.5,9002,WL,C,13.0
6,31.766000032424927,distr,28233.999967575073,Fri May 02 2025 11:39:01 GMT-0400 (Eastern Daylight Time),767933.5,B,mr,I,r,274,3,700.0,767233.5,9002,WL,C,13.0
6,31.848999977111816,distr,28151.000022888184,Fri May 02 2025 11:39:01 GMT-0400 (Eastern Daylight Time),768016.9000005722,B,mre,I,e,71,3,783.4000005722046,767233.5,9002,WL,C,13.0
6,32.366000175476074,distr,27633.999824523926,Fri May 02 2025 11:39:01 GMT-0400 (Eastern Daylight Time),768533.7000007629,B,mr,I,backspace,492,3,1300.2000007629395,767233.5,9002,WL,C,13.0
6,32.48300004005432,distr,27516.99995994568,Fri May 02 2025 11:39:01 GMT-0400 (Eastern Daylight Time),768650.3000001907,B,m,I,backspace,92,3,1416.8000001907349,767233.5,9002,WL,C,13.0
6,32.66600012779236,distr,27333.99987220764,Fri May 02 2025 11:39:01 GMT-0400 (Eastern Daylight Time),768833.6000003815,B,mo,I,o,161,3,1600.1000003814697,767233.5,9002,WL,C,13.0
6,32.81599998474121,distr,27184.00001525879,Fri May 02 2025 11:39:01 GMT-0400 (Eastern Daylight Time),768983.6000003815,B,mor,I,r,125,3,1750.1000003814697,767233.5,9002,WL,C,13.0
6,32.91600012779236,distr,27083.99987220764,Fri May 02 2025 11:39:01 GMT-0400 (Eastern Daylight Time),769083.4000005722,B,more,I,e,75,3,1849.9000005722046,767233.5,9002,WL,C,13.0
