block_c,block_dur,condition,countdown,datetime,endtime,list,multichar_response,project,response,response_time,session_number,start_end,starttime,subject_id,task,task_vers,trial
,,,,Fri Oct 11 2024 11:56:54 GMT-0400 (Eastern Daylight Time),,,,I,space,366,1,,,9002,WL,A,
prac,,0,,Fri Oct 11 2024 11:56:54 GMT-0400 (Eastern Daylight Time),,NA,b,I,b,2177,1,,,9002,WL,A,1.0
prac,,0,,Fri Oct 11 2024 11:56:54 GMT-0400 (Eastern Daylight Time),,NA,bo,I,o,295,1,,,9002,WL,A,1.0
prac,,0,,Fri Oct 11 2024 11:56:54 GMT-0400 (Eastern Daylight Time),,NA,boo,I,o,121,1,,,9002,WL,A,1.0
prac,,0,,Fri Oct 11 2024 11:56:54 GMT-0400 (Eastern Daylight Time),,NA,boos,I,s,1076,1,,,9002,WL,A,1.0
prac,,0,,Fri Oct 11 2024 11:56:54 GMT-0400 (Eastern Daylight Time),,NA,boost,I,t,339,1,,,9002,WL,A,1.0
prac,,0,,Fri Oct 11 2024 11:56:54 GMT-0400 (Eastern Daylight Time),,NA,boostenter,I,enter,1369,1,,,9002,WL,A,1.0
1,0.7999999523162842,learn,59200.000047683716,Fri Oct 11 2024 11:56:54 GMT-0400 (Eastern Daylight Time),131375.5,A,b,I,b,787,1,799.2999999523163,130576.20000004768,9002,WL,A,1.0
1,1.1329998970031738,learn,58867.000102996826,Fri Oct 11 2024 11:56:54 GMT-0400 (Eastern Daylight Time),131709.0,A,bo,I,o,308,1,1132.7999999523163,130576.20000004768,9002,WL,A,1.0
1,1.25,learn,58750.0,Fri Oct 11 2024 11:56:54 GMT-0400 (Eastern Daylight Time),131825.39999997616,A,boo,I,o,103,1,1249.1999999284744,130576.20000004768,9002,WL,A,1.0
1,1.4670000076293945,learn,58532.999992370605,Fri Oct 11 2024 11:56:54 GMT-0400 (Eastern Daylight Time),132042.20000004768,A,book,I,k,194,1,1466.0,130576.20000004768,9002,WL,A,1.0
1,1.8329999446868896,learn,58167.00005531311,Fri Oct 11 2024 11:56:54 GMT-0400 (Eastern Daylight Time),132408.29999995232,A,bookenter,I,enter,342,1,1832.0999999046326,130576.20000004768,9002,WL,A,1.0
1,2.5829999446868896,learn,57417.00005531311,Fri Oct 11 2024 11:56:54 GMT-0400 (Eastern Daylight Time),133158.79999995232,A,m,I,m,734,1,750.0,132408.79999995232,9002,WL,A,2.0
1,2.75,learn,57250.0,Fri Oct 11 2024 11:56:54 GMT-0400 (Eastern Daylight Time),133325.39999997616,A,me,I,e,140,1,916.6000000238419,132408.79999995232,9002,WL,A,2.0
1,2.932999849319458,learn,57067.00015068054,Fri Oct 11 2024 11:56:54 GMT-0400 (Eastern Daylight Time),133508.79999995232,A,mea,I,a,165,1,1100.0,132408.79999995232,9002,WL,A,2.0
1,3.182999849319458,learn,56817.00015068054,Fri Oct 11 2024 11:56:54 GMT-0400 (Eastern Daylight Time),133758.29999995232,A,mean,I,n,239,1,1349.5,132408.79999995232,9002,WL,A,2.0
1,3.7829999923706055,learn,56217.000007629395,Fri Oct 11 2024 11:56:54 GMT-0400 (Eastern Daylight Time),134358.70000004768,A,mea,I,backspace,582,1,1949.9000000953674,132408.79999995232,9002,WL,A,2.0
1,3.9170000553131104,learn,56082.99994468689,Fri Oct 11 2024 11:56:54 GMT-0400 (Eastern Daylight Time),134492.20000004768,A,mead,I,d,108,1,2083.4000000953674,132408.79999995232,9002,WL,A,2.0
1,4.016999959945679,learn,55983.00004005432,Fri Oct 11 2024 11:56:54 GMT-0400 (Eastern Daylight Time),134592.10000002384,A,meado,I,o,88,1,2183.3000000715256,132408.79999995232,9002,WL,A,2.0
1,4.365999937057495,learn,55634.000062942505,Fri Oct 11 2024 11:56:54 GMT-0400 (Eastern Daylight Time),134941.89999997616,A,meadow,I,w,314,1,2533.100000023842,132408.79999995232,9002,WL,A,2.0
1,4.682999849319458,learn,55317.00015068054,Fri Oct 11 2024 11:56:54 GMT-0400 (Eastern Daylight Time),135258.20000004768,A,meadowenter,I,enter,293,1,2849.4000000953674,132408.79999995232,9002,WL,A,2.0
1,5.3999998569488525,learn,54600.00014305115,Fri Oct 11 2024 11:56:54 GMT-0400 (Eastern Daylight Time),135975.29999995232,A,r,I,r,700,1,716.5999999046326,135258.70000004768,9002,WL,A,3.0
1,5.75,learn,54250.0,Fri Oct 11 2024 11:56:54 GMT-0400 (Eastern Daylight Time),136325.5,A,,I,backspace,332,1,1066.7999999523163,135258.70000004768,9002,WL,A,3.0
1,6.066999912261963,learn,53933.00008773804,Fri Oct 11 2024 11:56:54 GMT-0400 (Eastern Daylight Time),136642.10000002384,A,r,I,r,303,1,1383.3999999761581,135258.70000004768,9002,WL,A,3.0
1,6.2829999923706055,learn,53717.000007629395,Fri Oct 11 2024 11:56:54 GMT-0400 (Eastern Daylight Time),136858.79999995232,A,ra,I,a,193,1,1600.0999999046326,135258.70000004768,9002,WL,A,3.0
1,6.632999897003174,learn,53367.000102996826,Fri Oct 11 2024 11:56:54 GMT-0400 (Eastern Daylight Time),137208.70000004768,A,r,I,backspace,322,1,1950.0,135258.70000004768,9002,WL,A,3.0
1,6.75,learn,53250.0,Fri Oct 11 2024 11:56:54 GMT-0400 (Eastern Daylight Time),137325.39999997616,A,,I,backspace,90,1,2066.6999999284744,135258.70000004768,9002,WL,A,3.0
1,6.983000040054321,learn,53016.99995994568,Fri Oct 11 2024 11:56:54 GMT-0400 (Eastern Daylight Time),137558.60000002384,A,t,I,t,215,1,2299.899999976158,135258.70000004768,9002,WL,A,3.0
1,7.58299994468689,learn,52417.00005531311,Fri Oct 11 2024 11:56:54 GMT-0400 (Eastern Daylight Time),138158.5,A,tr,I,r,590,1,2899.7999999523163,135258.70000004768,9002,WL,A,3.0
1,7.7829999923706055,learn,52217.000007629395,Fri Oct 11 2024 11:56:54 GMT-0400 (Eastern Daylight Time),138358.79999995232,A,tra,I,a,181,1,3100.0999999046326,135258.70000004768,9002,WL,A,3.0
1,7.9670000076293945,learn,52032.999992370605,Fri Oct 11 2024 11:56:54 GMT-0400 (Eastern Daylight Time),138542.20000004768,A,trai,I,i,172,1,3283.5,135258.70000004768,9002,WL,A,3.0
1,8.16700005531311,learn,51832.99994468689,Fri Oct 11 2024 11:56:54 GMT-0400 (Eastern Daylight Time),138741.89999997616,A,train,I,n,182,1,3483.1999999284744,135258.70000004768,9002,WL,A,3.0
1,8.516000032424927,learn,51483.99996757507,Fri Oct 11 2024 11:56:54 GMT-0400 (Eastern Daylight Time),139091.5,A,trainenter,I,enter,332,1,3832.7999999523163,135258.70000004768,9002,WL,A,3.0
1,8.91700005531311,learn,51082.99994468689,Fri Oct 11 2024 11:56:54 GMT-0400 (Eastern Daylight Time),139492.10000002384,A,c,I,c,387,1,400.0,139092.10000002384,9002,WL,A,4.0
1,9.099999904632568,learn,50900.00009536743,Fri Oct 11 2024 11:56:54 GMT-0400 (Eastern Daylight Time),139675.39999997616,A,ca,I,a,160,1,583.2999999523163,139092.10000002384,9002,WL,A,4.0
1,9.299999952316284,learn,50700.000047683716,Fri Oct 11 2024 11:56:54 GMT-0400 (Eastern Daylight Time),139875.5,A,car,I,r,177,1,783.3999999761581,139092.10000002384,9002,WL,A,4.0
1,9.849999904632568,learn,50150.00009536743,Fri Oct 11 2024 11:56:54 GMT-0400 (Eastern Daylight Time),140425.5,A,carp,I,p,528,1,1333.3999999761581,139092.10000002384,9002,WL,A,4.0
1,10.032999992370605,learn,49967.000007629395,Fri Oct 11 2024 11:56:54 GMT-0400 (Eastern Daylight Time),140608.79999995232,A,carpe,I,e,171,1,1516.6999999284744,139092.10000002384,9002,WL,A,4.0
1,10.233000040054321,learn,49766.99995994568,Fri Oct 11 2024 11:56:54 GMT-0400 (Eastern Daylight Time),140808.60000002384,A,carpet,I,t,179,1,1716.5,139092.10000002384,9002,WL,A,4.0
1,10.632999897003174,learn,49367.000102996826,Fri Oct 11 2024 11:56:54 GMT-0400 (Eastern Daylight Time),141208.20000004768,A,carpetenter,I,enter,378,1,2116.100000023842,139092.10000002384,9002,WL,A,4.0
1,11.266999959945679,learn,48733.00004005432,Fri Oct 11 2024 11:56:54 GMT-0400 (Eastern Daylight Time),141842.10000002384,A,f,I,f,622,1,633.3000000715256,141208.79999995232,9002,WL,A,5.0
1,11.41700005531311,learn,48582.99994468689,Fri Oct 11 2024 11:56:54 GMT-0400 (Eastern Daylight Time),141992.10000002384,A,fl,I,l,126,1,783.3000000715256,141208.79999995232,9002,WL,A,5.0
1,11.58299994468689,learn,48417.00005531311,Fri Oct 11 2024 11:56:54 GMT-0400 (Eastern Daylight Time),142158.39999997616,A,flo,I,o,155,1,949.6000000238419,141208.79999995232,9002,WL,A,5.0
1,11.682999849319458,learn,48317.00015068054,Fri Oct 11 2024 11:56:54 GMT-0400 (Eastern Daylight Time),142258.39999997616,A,flow,I,w,76,1,1049.6000000238419,141208.79999995232,9002,WL,A,5.0
1,12.5,learn,47500.0,Fri Oct 11 2024 11:56:54 GMT-0400 (Eastern Daylight Time),143075.5,A,flowe,I,e,799,1,1866.7000000476837,141208.79999995232,9002,WL,A,5.0
1,12.616999864578247,learn,47383.00013542175,Fri Oct 11 2024 11:56:54 GMT-0400 (Eastern Daylight Time),143192.0,A,flower,I,r,97,1,1983.2000000476837,141208.79999995232,9002,WL,A,5.0
1,13.049999952316284,learn,46950.000047683716,Fri Oct 11 2024 11:56:54 GMT-0400 (Eastern Daylight Time),143624.89999997616,A,flowerenter,I,enter,407,1,2416.100000023842,141208.79999995232,9002,WL,A,5.0
1,13.766999959945679,learn,46233.00004005432,Fri Oct 11 2024 11:56:54 GMT-0400 (Eastern Daylight Time),144342.0,A,c,I,c,702,1,716.6000000238419,143625.39999997616,9002,WL,A,6.0
1,13.899999856948853,learn,46100.00014305115,Fri Oct 11 2024 11:56:54 GMT-0400 (Eastern Daylight Time),144475.29999995232,A,ch,I,h,110,1,849.8999999761581,143625.39999997616,9002,WL,A,6.0
1,14.382999897003174,learn,45617.000102996826,Fri Oct 11 2024 11:56:54 GMT-0400 (Eastern Daylight Time),144958.5,A,chi,I,i,472,1,1333.1000000238419,143625.39999997616,9002,WL,A,6.0
1,14.532999992370605,learn,45467.000007629395,Fri Oct 11 2024 11:56:54 GMT-0400 (Eastern Daylight Time),145108.70000004768,A,chim,I,m,133,1,1483.3000000715256,143625.39999997616,9002,WL,A,6.0
1,14.816999912261963,learn,45183.00008773804,Fri Oct 11 2024 11:56:54 GMT-0400 (Eastern Daylight Time),145392.0,A,chimn,I,n,264,1,1766.6000000238419,143625.39999997616,9002,WL,A,6.0
1,15.116999864578247,learn,44883.00013542175,Fri Oct 11 2024 11:56:54 GMT-0400 (Eastern Daylight Time),145692.10000002384,A,chimne,I,e,276,1,2066.7000000476837,143625.39999997616,9002,WL,A,6.0
1,15.700000047683716,learn,44299.999952316284,Fri Oct 11 2024 11:56:54 GMT-0400 (Eastern Daylight Time),146275.39999997616,A,chimney,I,y,568,1,2650.0,143625.39999997616,9002,WL,A,6.0
1,16.299000024795532,learn,43700.99997520447,Fri Oct 11 2024 11:56:54 GMT-0400 (Eastern Daylight Time),146874.89999997616,A,chimneyenter,I,enter,576,1,3249.5,143625.39999997616,9002,WL,A,6.0
1,16.75,learn,43250.0,Fri Oct 11 2024 11:56:54 GMT-0400 (Eastern Daylight Time),147325.29999995232,A,l,I,l,427,1,450.0,146875.29999995232,9002,WL,A,7.0
1,16.932999849319458,learn,43067.00015068054,Fri Oct 11 2024 11:56:54 GMT-0400 (Eastern Daylight Time),147508.70000004768,A,lo,I,o,167,1,633.4000000953674,146875.29999995232,9002,WL,A,7.0
1,17.799999952316284,learn,42200.000047683716,Fri Oct 11 2024 11:56:54 GMT-0400 (Eastern Daylight Time),148375.39999997616,A,log,I,g,846,1,1500.1000000238419,146875.29999995232,9002,WL,A,7.0
1,18.950000047683716,learn,41049.999952316284,Fri Oct 11 2024 11:56:54 GMT-0400 (Eastern Daylight Time),149524.89999997616,A,logenter,I,enter,1132,1,2649.600000023842,146875.29999995232,9002,WL,A,7.0
1,26.382999897003174,learn,33617.000102996826,Fri Oct 11 2024 11:56:54 GMT-0400 (Eastern Daylight Time),156958.79999995232,A,f,I,f,7410,1,7433.5,149525.29999995232,9002,WL,A,8.0
1,26.532999992370605,learn,33467.000007629395,Fri Oct 11 2024 11:56:54 GMT-0400 (Eastern Daylight Time),157108.70000004768,A,fi,I,i,132,1,7583.400000095367,149525.29999995232,9002,WL,A,8.0
1,26.717000007629395,learn,33282.999992370605,Fri Oct 11 2024 11:56:54 GMT-0400 (Eastern Daylight Time),157292.0,A,fin,I,n,152,1,7766.700000047684,149525.29999995232,9002,WL,A,8.0
1,27.08299994468689,learn,32917.00005531311,Fri Oct 11 2024 11:56:54 GMT-0400 (Eastern Daylight Time),157658.79999995232,A,fing,I,g,344,1,8133.5,149525.29999995232,9002,WL,A,8.0
1,27.200000047683716,learn,32799.999952316284,Fri Oct 11 2024 11:56:54 GMT-0400 (Eastern Daylight Time),157775.29999995232,A,finge,I,e,106,1,8250.0,149525.29999995232,9002,WL,A,8.0
1,27.282999992370605,learn,32717.000007629395,Fri Oct 11 2024 11:56:54 GMT-0400 (Eastern Daylight Time),157858.70000004768,A,finger,I,r,62,1,8333.400000095367,149525.29999995232,9002,WL,A,8.0
1,28.700000047683716,learn,31299.999952316284,Fri Oct 11 2024 11:56:54 GMT-0400 (Eastern Daylight Time),159274.89999997616,A,fingerenter,I,enter,1391,1,9749.600000023842,149525.29999995232,9002,WL,A,8.0
1,60.01699995994568,learn,-16.99995994567871,Fri Oct 11 2024 11:56:54 GMT-0400 (Eastern Daylight Time),190592.5,A,None,I,None,31310,1,31317.200000047684,159275.29999995232,9002,WL,A,9.0
2,0.9659998416900635,learn,59034.00015830994,Fri Oct 11 2024 11:56:54 GMT-0400 (Eastern Daylight Time),273008.10000002384,A,g,I,g,954,1,965.6000000238419,272042.5,9002,WL,A,1.0
2,1.1499998569488525,learn,58850.00014305115,Fri Oct 11 2024 11:56:54 GMT-0400 (Eastern Daylight Time),273192.10000002384,A,go,I,o,167,1,1149.6000000238419,272042.5,9002,WL,A,1.0
2,1.2999999523162842,learn,58700.000047683716,Fri Oct 11 2024 11:56:54 GMT-0400 (Eastern Daylight Time),273342.0,A,gol,I,l,116,1,1299.5,272042.5,9002,WL,A,1.0
2,1.432999849319458,learn,58567.00015068054,Fri Oct 11 2024 11:56:54 GMT-0400 (Eastern Daylight Time),273475.60000002384,A,gold,I,d,119,1,1433.1000000238419,272042.5,9002,WL,A,1.0
2,1.9159998893737793,learn,58084.00011062622,Fri Oct 11 2024 11:56:54 GMT-0400 (Eastern Daylight Time),273958.2999999523,A,goldenter,I,enter,457,1,1915.7999999523163,272042.5,9002,WL,A,1.0
2,2.5,learn,57500.0,Fri Oct 11 2024 11:56:54 GMT-0400 (Eastern Daylight Time),274542.10000002384,A,r,I,r,561,1,583.3000000715256,273958.7999999523,9002,WL,A,2.0
2,2.8999998569488525,learn,57100.00014305115,Fri Oct 11 2024 11:56:54 GMT-0400 (Eastern Daylight Time),274942.2999999523,A,ra,I,a,390,1,983.5,273958.7999999523,9002,WL,A,2.0
2,3.065999984741211,learn,56934.00001525879,Fri Oct 11 2024 11:56:54 GMT-0400 (Eastern Daylight Time),275108.7999999523,A,rat,I,t,149,1,1150.0,273958.7999999523,9002,WL,A,2.0
2,3.2330000400543213,learn,56766.99995994568,Fri Oct 11 2024 11:56:54 GMT-0400 (Eastern Daylight Time),275275.60000002384,A,ratt,I,t,143,1,1316.8000000715256,273958.7999999523,9002,WL,A,2.0
2,3.3999998569488525,learn,56600.00014305115,Fri Oct 11 2024 11:56:54 GMT-0400 (Eastern Daylight Time),275442.2000000477,A,rattl,I,l,152,1,1483.4000000953674,273958.7999999523,9002,WL,A,2.0
2,3.5829999446868896,learn,56417.00005531311,Fri Oct 11 2024 11:56:54 GMT-0400 (Eastern Daylight Time),275625.60000002384,A,rattle,I,e,162,1,1666.8000000715256,273958.7999999523,9002,WL,A,2.0
2,3.9489998817443848,learn,56051.000118255615,Fri Oct 11 2024 11:56:54 GMT-0400 (Eastern Daylight Time),275991.7999999523,A,rattleenter,I,enter,346,1,2033.0,273958.7999999523,9002,WL,A,2.0
2,4.315999984741211,learn,55684.00001525879,Fri Oct 11 2024 11:56:54 GMT-0400 (Eastern Daylight Time),276358.89999997616,A,b,I,b,351,1,366.60000002384186,275992.2999999523,9002,WL,A,3.0
2,4.75,learn,55250.0,Fri Oct 11 2024 11:56:54 GMT-0400 (Eastern Daylight Time),276792.2000000477,A,bt,I,t,413,1,799.9000000953674,275992.2999999523,9002,WL,A,3.0
2,4.915999889373779,learn,55084.00011062622,Fri Oct 11 2024 11:56:54 GMT-0400 (Eastern Daylight Time),276958.5,A,btt,I,t,155,1,966.2000000476837,275992.2999999523,9002,WL,A,3.0
2,5.315999984741211,learn,54684.00001525879,Fri Oct 11 2024 11:56:54 GMT-0400 (Eastern Daylight Time),277358.5,A,bt,I,backspace,388,1,1366.2000000476837,275992.2999999523,9002,WL,A,3.0
2,5.450000047683716,learn,54549.999952316284,Fri Oct 11 2024 11:56:54 GMT-0400 (Eastern Daylight Time),277492.2000000477,A,b,I,backspace,118,1,1499.9000000953674,275992.2999999523,9002,WL,A,3.0
2,5.700000047683716,learn,54299.999952316284,Fri Oct 11 2024 11:56:54 GMT-0400 (Eastern Daylight Time),277742.2999999523,A,bu,I,u,241,1,1750.0,275992.2999999523,9002,WL,A,3.0
2,5.9659998416900635,learn,54034.00015830994,Fri Oct 11 2024 11:56:54 GMT-0400 (Eastern Daylight Time),278008.7999999523,A,but,I,t,246,1,2016.5,275992.2999999523,9002,WL,A,3.0
2,6.33299994468689,learn,53667.00005531311,Fri Oct 11 2024 11:56:54 GMT-0400 (Eastern Daylight Time),278375.5,A,buto,I,o,347,1,2383.2000000476837,275992.2999999523,9002,WL,A,3.0
2,6.665999889373779,learn,53334.00011062622,Fri Oct 11 2024 11:56:54 GMT-0400 (Eastern Daylight Time),278708.7999999523,A,but,I,backspace,316,1,2716.5,275992.2999999523,9002,WL,A,3.0
2,6.766000032424927,learn,53233.99996757507,Fri Oct 11 2024 11:56:54 GMT-0400 (Eastern Daylight Time),278808.7000000477,A,butt,I,t,79,1,2816.4000000953674,275992.2999999523,9002,WL,A,3.0
2,6.8999998569488525,learn,53100.00014305115,Fri Oct 11 2024 11:56:54 GMT-0400 (Eastern Daylight Time),278942.2999999523,A,butto,I,o,122,1,2950.0,275992.2999999523,9002,WL,A,3.0
2,7.065999984741211,learn,52934.00001525879,Fri Oct 11 2024 11:56:54 GMT-0400 (Eastern Daylight Time),279108.89999997616,A,button,I,n,143,1,3116.600000023842,275992.2999999523,9002,WL,A,3.0
2,7.348999977111816,learn,52651.00002288818,Fri Oct 11 2024 11:56:54 GMT-0400 (Eastern Daylight Time),279391.7000000477,A,buttonenter,I,enter,271,1,3399.4000000953674,275992.2999999523,9002,WL,A,3.0
2,7.7829999923706055,learn,52217.000007629395,Fri Oct 11 2024 11:56:54 GMT-0400 (Eastern Daylight Time),279825.60000002384,A,f,I,f,424,1,433.60000002384186,279392.0,9002,WL,A,4.0
2,7.882999897003174,learn,52117.000102996826,Fri Oct 11 2024 11:56:54 GMT-0400 (Eastern Daylight Time),279925.39999997616,A,fi,I,i,83,1,533.3999999761581,279392.0,9002,WL,A,4.0
2,8.049999952316284,learn,51950.000047683716,Fri Oct 11 2024 11:56:54 GMT-0400 (Eastern Daylight Time),280092.2999999523,A,fin,I,n,142,1,700.2999999523163,279392.0,9002,WL,A,4.0
2,8.450000047683716,learn,51549.999952316284,Fri Oct 11 2024 11:56:54 GMT-0400 (Eastern Daylight Time),280492.2999999523,A,fing,I,g,374,1,1100.2999999523163,279392.0,9002,WL,A,4.0
2,8.615999937057495,learn,51384.000062942505,Fri Oct 11 2024 11:56:54 GMT-0400 (Eastern Daylight Time),280658.89999997616,A,finge,I,e,151,1,1266.8999999761581,279392.0,9002,WL,A,4.0
2,8.715999841690063,learn,51284.00015830994,Fri Oct 11 2024 11:56:54 GMT-0400 (Eastern Daylight Time),280758.7000000477,A,finger,I,r,82,1,1366.7000000476837,279392.0,9002,WL,A,4.0
2,9.182999849319458,learn,50817.00015068054,Fri Oct 11 2024 11:56:54 GMT-0400 (Eastern Daylight Time),281225.10000002384,A,fingerenter,I,enter,444,1,1833.1000000238419,279392.0,9002,WL,A,4.0
2,9.598999977111816,learn,50401.00002288818,Fri Oct 11 2024 11:56:54 GMT-0400 (Eastern Daylight Time),281641.39999997616,A,h,I,h,397,1,415.89999997615814,281225.5,9002,WL,A,5.0
2,9.698999881744385,learn,50301.000118255615,Fri Oct 11 2024 11:56:54 GMT-0400 (Eastern Daylight Time),281741.5,A,ha,I,a,77,1,516.0,281225.5,9002,WL,A,5.0
2,9.799999952316284,learn,50200.000047683716,Fri Oct 11 2024 11:56:54 GMT-0400 (Eastern Daylight Time),281842.2999999523,A,har,I,r,87,1,616.7999999523163,281225.5,9002,WL,A,5.0
2,10.465999841690063,learn,49534.00015830994,Fri Oct 11 2024 11:56:54 GMT-0400 (Eastern Daylight Time),282508.89999997616,A,harp,I,p,633,1,1283.3999999761581,281225.5,9002,WL,A,5.0
2,10.865999937057495,learn,49134.000062942505,Fri Oct 11 2024 11:56:54 GMT-0400 (Eastern Daylight Time),282908.39999997616,A,harpenter,I,enter,375,1,1682.8999999761581,281225.5,9002,WL,A,5.0
2,11.200000047683716,learn,48799.999952316284,Fri Oct 11 2024 11:56:54 GMT-0400 (Eastern Daylight Time),283242.2999999523,A,r,I,r,315,1,333.59999990463257,282908.7000000477,9002,WL,A,6.0
2,11.315999984741211,learn,48684.00001525879,Fri Oct 11 2024 11:56:54 GMT-0400 (Eastern Daylight Time),283358.5,A,ru,I,u,106,1,449.7999999523163,282908.7000000477,9002,WL,A,6.0
2,12.099999904632568,learn,47900.00009536743,Fri Oct 11 2024 11:56:54 GMT-0400 (Eastern Daylight Time),284142.2999999523,A,run,I,n,767,1,1233.5999999046326,282908.7000000477,9002,WL,A,6.0
2,12.733000040054321,learn,47266.99995994568,Fri Oct 11 2024 11:56:54 GMT-0400 (Eastern Daylight Time),284775.60000002384,A,ru,I,backspace,615,1,1866.8999999761581,282908.7000000477,9002,WL,A,6.0
2,12.965999841690063,learn,47034.00015830994,Fri Oct 11 2024 11:56:54 GMT-0400 (Eastern Daylight Time),285008.60000002384,A,rug,I,g,220,1,2099.899999976158,282908.7000000477,9002,WL,A,6.0
2,13.365999937057495,learn,46634.000062942505,Fri Oct 11 2024 11:56:54 GMT-0400 (Eastern Daylight Time),285408.39999997616,A,rugenter,I,enter,387,1,2499.6999999284744,282908.7000000477,9002,WL,A,6.0
2,13.899999856948853,learn,46100.00014305115,Fri Oct 11 2024 11:56:54 GMT-0400 (Eastern Daylight Time),285942.10000002384,A,f,I,f,519,1,533.3000000715256,285408.7999999523,9002,WL,A,7.0
2,14.065999984741211,learn,45934.00001525879,Fri Oct 11 2024 11:56:54 GMT-0400 (Eastern Daylight Time),286108.89999997616,A,fl,I,l,143,1,700.1000000238419,285408.7999999523,9002,WL,A,7.0
2,14.266000032424927,learn,45733.99996757507,Fri Oct 11 2024 11:56:54 GMT-0400 (Eastern Daylight Time),286308.7999999523,A,flo,I,o,177,1,900.0,285408.7999999523,9002,WL,A,7.0
2,14.467000007629395,learn,45532.999992370605,Fri Oct 11 2024 11:56:54 GMT-0400 (Eastern Daylight Time),286508.89999997616,A,flow,I,w,175,1,1100.1000000238419,285408.7999999523,9002,WL,A,7.0
2,14.782999992370605,learn,45217.000007629395,Fri Oct 11 2024 11:56:54 GMT-0400 (Eastern Daylight Time),286825.5,A,flowe,I,e,288,1,1416.7000000476837,285408.7999999523,9002,WL,A,7.0
2,15.016000032424927,learn,44983.99996757507,Fri Oct 11 2024 11:56:54 GMT-0400 (Eastern Daylight Time),287058.7999999523,A,flower,I,r,218,1,1650.0,285408.7999999523,9002,WL,A,7.0
2,15.33299994468689,learn,44667.00005531311,Fri Oct 11 2024 11:56:54 GMT-0400 (Eastern Daylight Time),287375.0,A,flowerenter,I,enter,305,1,1966.2000000476837,285408.7999999523,9002,WL,A,7.0
2,15.865999937057495,learn,44134.000062942505,Fri Oct 11 2024 11:56:54 GMT-0400 (Eastern Daylight Time),287908.60000002384,A,t,I,t,520,1,533.2000000476837,287375.39999997616,9002,WL,A,8.0
2,16.049999952316284,learn,43950.000047683716,Fri Oct 11 2024 11:56:54 GMT-0400 (Eastern Daylight Time),288092.2999999523,A,tr,I,r,154,1,716.8999999761581,287375.39999997616,9002,WL,A,8.0
2,16.16599988937378,learn,43834.00011062622,Fri Oct 11 2024 11:56:54 GMT-0400 (Eastern Daylight Time),288208.60000002384,A,tra,I,a,97,1,833.2000000476837,287375.39999997616,9002,WL,A,8.0
2,16.34999990463257,learn,43650.00009536743,Fri Oct 11 2024 11:56:54 GMT-0400 (Eastern Daylight Time),288392.39999997616,A,trai,I,i,159,1,1017.0,287375.39999997616,9002,WL,A,8.0
2,16.532999992370605,learn,43467.000007629395,Fri Oct 11 2024 11:56:54 GMT-0400 (Eastern Daylight Time),288575.39999997616,A,train,I,n,172,1,1200.0,287375.39999997616,9002,WL,A,8.0
2,17.182999849319458,learn,42817.00015068054,Fri Oct 11 2024 11:56:54 GMT-0400 (Eastern Daylight Time),289225.0,A,trainenter,I,enter,627,1,1849.6000000238419,287375.39999997616,9002,WL,A,8.0
2,17.58299994468689,learn,42417.00005531311,Fri Oct 11 2024 11:56:54 GMT-0400 (Eastern Daylight Time),289625.60000002384,A,b,I,b,382,1,400.2000000476837,289225.39999997616,9002,WL,A,9.0
2,17.749000072479248,learn,42250.99992752075,Fri Oct 11 2024 11:56:54 GMT-0400 (Eastern Daylight Time),289791.60000002384,A,bo,I,o,152,1,566.2000000476837,289225.39999997616,9002,WL,A,9.0
2,17.91599988937378,learn,42084.00011062622,Fri Oct 11 2024 11:56:54 GMT-0400 (Eastern Daylight Time),289958.89999997616,A,boo,I,o,152,1,733.5,289225.39999997616,9002,WL,A,9.0
2,18.149999856948853,learn,41850.00014305115,Fri Oct 11 2024 11:56:54 GMT-0400 (Eastern Daylight Time),290191.89999997616,A,book,I,k,221,1,966.5,289225.39999997616,9002,WL,A,9.0
2,18.6489999294281,learn,41351.0000705719,Fri Oct 11 2024 11:56:54 GMT-0400 (Eastern Daylight Time),290691.60000002384,A,bookenter,I,enter,483,1,1466.2000000476837,289225.39999997616,9002,WL,A,9.0
2,20.58299994468689,learn,39417.00005531311,Fri Oct 11 2024 11:56:54 GMT-0400 (Eastern Daylight Time),292625.5,A,m,I,m,1924,1,1933.5,290692.0,9002,WL,A,10.0
2,20.682999849319458,learn,39317.00015068054,Fri Oct 11 2024 11:56:54 GMT-0400 (Eastern Daylight Time),292725.60000002384,A,me,I,e,81,1,2033.6000000238419,290692.0,9002,WL,A,10.0
2,20.83299994468689,learn,39167.00005531311,Fri Oct 11 2024 11:56:54 GMT-0400 (Eastern Daylight Time),292875.5,A,mea,I,a,126,1,2183.5,290692.0,9002,WL,A,10.0
2,20.950000047683716,learn,39049.999952316284,Fri Oct 11 2024 11:56:54 GMT-0400 (Eastern Daylight Time),292992.0,A,mean,I,n,98,1,2300.0,290692.0,9002,WL,A,10.0
2,21.59999990463257,learn,38400.00009536743,Fri Oct 11 2024 11:56:54 GMT-0400 (Eastern Daylight Time),293642.2000000477,A,mea,I,backspace,623,1,2950.2000000476837,290692.0,9002,WL,A,10.0
2,21.766000032424927,learn,38233.99996757507,Fri Oct 11 2024 11:56:54 GMT-0400 (Eastern Daylight Time),293808.7999999523,A,mead,I,d,154,1,3116.7999999523163,290692.0,9002,WL,A,10.0
2,21.899999856948853,learn,38100.00014305115,Fri Oct 11 2024 11:56:54 GMT-0400 (Eastern Daylight Time),293942.2999999523,A,meado,I,o,116,1,3250.2999999523163,290692.0,9002,WL,A,10.0
2,22.399999856948853,learn,37600.00014305115,Fri Oct 11 2024 11:56:54 GMT-0400 (Eastern Daylight Time),294442.10000002384,A,meadow,I,w,471,1,3750.100000023842,290692.0,9002,WL,A,10.0
2,22.766000032424927,learn,37233.99996757507,Fri Oct 11 2024 11:56:54 GMT-0400 (Eastern Daylight Time),294808.2999999523,A,meadowenter,I,enter,344,1,4116.299999952316,290692.0,9002,WL,A,10.0
2,23.132999897003174,learn,36867.000102996826,Fri Oct 11 2024 11:56:54 GMT-0400 (Eastern Daylight Time),295175.60000002384,A,s,I,s,351,1,366.89999997615814,294808.7000000477,9002,WL,A,11.0
2,23.282999992370605,learn,36717.000007629395,Fri Oct 11 2024 11:56:54 GMT-0400 (Eastern Daylight Time),295325.2999999523,A,sa,I,a,123,1,516.5999999046326,294808.7000000477,9002,WL,A,11.0
2,23.450000047683716,learn,36549.999952316284,Fri Oct 11 2024 11:56:54 GMT-0400 (Eastern Daylight Time),295492.2999999523,A,sal,I,l,151,1,683.5999999046326,294808.7000000477,9002,WL,A,11.0
2,24.549999952316284,learn,35450.000047683716,Fri Oct 11 2024 11:56:54 GMT-0400 (Eastern Daylight Time),296592.2000000477,A,salt,I,t,1087,1,1783.5,294808.7000000477,9002,WL,A,11.0
2,25.81599998474121,learn,34184.00001525879,Fri Oct 11 2024 11:56:54 GMT-0400 (Eastern Daylight Time),297858.2999999523,A,saltenter,I,enter,1251,1,3049.5999999046326,294808.7000000477,9002,WL,A,11.0
2,30.950000047683716,learn,29049.999952316284,Fri Oct 11 2024 11:56:54 GMT-0400 (Eastern Daylight Time),302992.2000000477,A,c,I,c,5125,1,5133.5,297858.7000000477,9002,WL,A,12.0
2,32.83299994468689,learn,27167.00005531311,Fri Oct 11 2024 11:56:54 GMT-0400 (Eastern Daylight Time),304875.2999999523,A,,I,backspace,1858,1,7016.599999904633,297858.7000000477,9002,WL,A,12.0
2,33.51699995994568,learn,26483.00004005432,Fri Oct 11 2024 11:56:54 GMT-0400 (Eastern Daylight Time),305558.89999997616,A,g,I,g,666,1,7700.199999928474,297858.7000000477,9002,WL,A,12.0
2,33.632999897003174,learn,26367.000102996826,Fri Oct 11 2024 11:56:54 GMT-0400 (Eastern Daylight Time),305675.5,A,go,I,o,94,1,7816.799999952316,297858.7000000477,9002,WL,A,12.0
2,33.782999992370605,learn,26217.000007629395,Fri Oct 11 2024 11:56:54 GMT-0400 (Eastern Daylight Time),305825.60000002384,A,gol,I,l,129,1,7966.899999976158,297858.7000000477,9002,WL,A,12.0
2,34.26600003242493,learn,25733.999967575073,Fri Oct 11 2024 11:56:54 GMT-0400 (Eastern Daylight Time),306308.7999999523,A,gold,I,d,466,1,8450.099999904633,297858.7000000477,9002,WL,A,12.0
2,35.48300004005432,learn,24516.99995994568,Fri Oct 11 2024 11:56:54 GMT-0400 (Eastern Daylight Time),307525.0,A,goldenter,I,enter,1199,1,9666.299999952316,297858.7000000477,9002,WL,A,12.0
2,37.865999937057495,learn,22134.000062942505,Fri Oct 11 2024 11:56:54 GMT-0400 (Eastern Daylight Time),309908.7999999523,A,r,I,r,2370,1,2383.399999976158,307525.39999997616,9002,WL,A,13.0
2,38.09999990463257,learn,21900.00009536743,Fri Oct 11 2024 11:56:54 GMT-0400 (Eastern Daylight Time),310142.5,A,ra,I,a,221,1,2617.100000023842,307525.39999997616,9002,WL,A,13.0
2,38.25,learn,21750.0,Fri Oct 11 2024 11:56:54 GMT-0400 (Eastern Daylight Time),310292.2999999523,A,rat,I,t,132,1,2766.899999976158,307525.39999997616,9002,WL,A,13.0
2,38.39999985694885,learn,21600.000143051147,Fri Oct 11 2024 11:56:54 GMT-0400 (Eastern Daylight Time),310442.39999997616,A,ratt,I,t,126,1,2917.0,307525.39999997616,9002,WL,A,13.0
2,38.56599998474121,learn,21434.00001525879,Fri Oct 11 2024 11:56:54 GMT-0400 (Eastern Daylight Time),310608.89999997616,A,rattl,I,l,147,1,3083.5,307525.39999997616,9002,WL,A,13.0
2,38.66700005531311,learn,21332.99994468689,Fri Oct 11 2024 11:56:54 GMT-0400 (Eastern Daylight Time),310708.89999997616,A,rattle,I,e,83,1,3183.5,307525.39999997616,9002,WL,A,13.0
2,38.91599988937378,learn,21084.00011062622,Fri Oct 11 2024 11:56:54 GMT-0400 (Eastern Daylight Time),310958.2000000477,A,rattleenter,I,enter,231,1,3432.8000000715256,307525.39999997616,9002,WL,A,13.0
2,43.86699986457825,learn,16133.000135421753,Fri Oct 11 2024 11:56:54 GMT-0400 (Eastern Daylight Time),315908.7999999523,A,b,I,b,4937,1,4950.299999952316,310958.5,9002,WL,A,14.0
2,44.0,learn,16000.0,Fri Oct 11 2024 11:56:54 GMT-0400 (Eastern Daylight Time),316042.2000000477,A,bu,I,u,110,1,5083.700000047684,310958.5,9002,WL,A,14.0
2,44.217000007629395,learn,15782.999992370605,Fri Oct 11 2024 11:56:54 GMT-0400 (Eastern Daylight Time),316258.89999997616,A,but,I,t,203,1,5300.399999976158,310958.5,9002,WL,A,14.0
2,44.382999897003174,learn,15617.000102996826,Fri Oct 11 2024 11:56:54 GMT-0400 (Eastern Daylight Time),316425.7000000477,A,butt,I,t,145,1,5467.200000047684,310958.5,9002,WL,A,14.0
2,44.632999897003174,learn,15367.000102996826,Fri Oct 11 2024 11:56:54 GMT-0400 (Eastern Daylight Time),316675.5,A,butto,I,o,235,1,5717.0,310958.5,9002,WL,A,14.0
2,44.799999952316284,learn,15200.000047683716,Fri Oct 11 2024 11:56:54 GMT-0400 (Eastern Daylight Time),316842.2999999523,A,button,I,n,144,1,5883.799999952316,310958.5,9002,WL,A,14.0
2,45.032999992370605,learn,14967.000007629395,Fri Oct 11 2024 11:56:54 GMT-0400 (Eastern Daylight Time),317075.0,A,buttonenter,I,enter,217,1,6116.5,310958.5,9002,WL,A,14.0
2,53.299999952316284,learn,6700.000047683716,Fri Oct 11 2024 11:56:54 GMT-0400 (Eastern Daylight Time),325341.7999999523,A,enter,I,enter,8243,1,8266.299999952316,317075.5,9002,WL,A,15.0
3,0.8669998645782471,learn,59133.00013542175,Fri Oct 11 2024 11:56:54 GMT-0400 (Eastern Daylight Time),397942.10000002384,A,b,I,b,848,1,866.2000000476837,397075.89999997616,9002,WL,A,1.0
3,1.25,learn,58750.0,Fri Oct 11 2024 11:56:54 GMT-0400 (Eastern Daylight Time),398325.7000000477,A,bo,I,o,364,1,1249.8000000715256,397075.89999997616,9002,WL,A,1.0
3,1.366999864578247,learn,58633.00013542175,Fri Oct 11 2024 11:56:54 GMT-0400 (Eastern Daylight Time),398442.2000000477,A,boo,I,o,94,1,1366.3000000715256,397075.89999997616,9002,WL,A,1.0
3,1.6340000629425049,learn,58365.999937057495,Fri Oct 11 2024 11:56:54 GMT-0400 (Eastern Daylight Time),398708.89999997616,A,book,I,k,243,1,1633.0,397075.89999997616,9002,WL,A,1.0
3,2.3499999046325684,learn,57650.00009536743,Fri Oct 11 2024 11:56:54 GMT-0400 (Eastern Daylight Time),399425.10000002384,A,bookenter,I,enter,702,1,2349.2000000476837,397075.89999997616,9002,WL,A,1.0
3,3.866999864578247,learn,56133.00013542175,Fri Oct 11 2024 11:56:54 GMT-0400 (Eastern Daylight Time),400942.39999997616,A,f,I,f,1494,1,1516.8999999761581,399425.5,9002,WL,A,2.0
3,4.349999904632568,learn,55650.00009536743,Fri Oct 11 2024 11:56:54 GMT-0400 (Eastern Daylight Time),401425.60000002384,A,fo,I,o,470,1,2000.1000000238419,399425.5,9002,WL,A,2.0
3,4.733999967575073,learn,55266.00003242493,Fri Oct 11 2024 11:56:54 GMT-0400 (Eastern Daylight Time),401808.89999997616,A,f,I,backspace,372,1,2383.399999976158,399425.5,9002,WL,A,2.0
3,4.934000015258789,learn,55065.99998474121,Fri Oct 11 2024 11:56:54 GMT-0400 (Eastern Daylight Time),402009.0,A,fl,I,l,177,1,2583.5,399425.5,9002,WL,A,2.0
3,5.116999864578247,learn,54883.00013542175,Fri Oct 11 2024 11:56:54 GMT-0400 (Eastern Daylight Time),402192.2999999523,A,flo,I,o,163,1,2766.7999999523163,399425.5,9002,WL,A,2.0
3,5.366999864578247,learn,54633.00013542175,Fri Oct 11 2024 11:56:54 GMT-0400 (Eastern Daylight Time),402442.2999999523,A,flow,I,w,228,1,3016.7999999523163,399425.5,9002,WL,A,2.0
3,5.816999912261963,learn,54183.00008773804,Fri Oct 11 2024 11:56:54 GMT-0400 (Eastern Daylight Time),402892.2999999523,A,flowe,I,e,426,1,3466.7999999523163,399425.5,9002,WL,A,2.0
3,6.016999959945679,learn,53983.00004005432,Fri Oct 11 2024 11:56:54 GMT-0400 (Eastern Daylight Time),403092.2999999523,A,flower,I,r,183,1,3666.7999999523163,399425.5,9002,WL,A,2.0
3,6.5329999923706055,learn,53467.000007629395,Fri Oct 11 2024 11:56:54 GMT-0400 (Eastern Daylight Time),403608.39999997616,A,flowerenter,I,enter,488,1,4182.899999976158,399425.5,9002,WL,A,2.0
3,6.884000062942505,learn,53115.999937057495,Fri Oct 11 2024 11:56:54 GMT-0400 (Eastern Daylight Time),403959.0,A,t,I,t,335,1,350.2000000476837,403608.7999999523,9002,WL,A,3.0
3,7.066999912261963,learn,52933.00008773804,Fri Oct 11 2024 11:56:54 GMT-0400 (Eastern Daylight Time),404142.2999999523,A,tr,I,r,173,1,533.5,403608.7999999523,9002,WL,A,3.0
3,7.184000015258789,learn,52815.99998474121,Fri Oct 11 2024 11:56:54 GMT-0400 (Eastern Daylight Time),404259.0,A,tra,I,a,103,1,650.2000000476837,403608.7999999523,9002,WL,A,3.0
3,7.299999952316284,learn,52700.000047683716,Fri Oct 11 2024 11:56:54 GMT-0400 (Eastern Daylight Time),404375.60000002384,A,trai,I,i,95,1,766.8000000715256,403608.7999999523,9002,WL,A,3.0
3,7.483000040054321,learn,52516.99995994568,Fri Oct 11 2024 11:56:54 GMT-0400 (Eastern Daylight Time),404558.7999999523,A,train,I,n,166,1,950.0,403608.7999999523,9002,WL,A,3.0
3,8.66599988937378,learn,51334.00011062622,Fri Oct 11 2024 11:56:54 GMT-0400 (Eastern Daylight Time),405741.7000000477,A,trainenter,I,enter,1166,1,2132.9000000953674,403608.7999999523,9002,WL,A,3.0
3,9.08299994468689,learn,50917.00005531311,Fri Oct 11 2024 11:56:54 GMT-0400 (Eastern Daylight Time),406158.60000002384,A,r,I,r,410,1,416.60000002384186,405742.0,9002,WL,A,4.0
3,9.217000007629395,learn,50782.999992370605,Fri Oct 11 2024 11:56:54 GMT-0400 (Eastern Daylight Time),406292.2999999523,A,ru,I,u,118,1,550.2999999523163,405742.0,9002,WL,A,4.0
3,10.049999952316284,learn,49950.000047683716,Fri Oct 11 2024 11:56:54 GMT-0400 (Eastern Daylight Time),407125.7000000477,A,rug,I,g,809,1,1383.7000000476837,405742.0,9002,WL,A,4.0
3,10.41700005531311,learn,49582.99994468689,Fri Oct 11 2024 11:56:54 GMT-0400 (Eastern Daylight Time),407491.7999999523,A,rugenter,I,enter,349,1,1749.7999999523163,405742.0,9002,WL,A,4.0
3,10.816999912261963,learn,49183.00008773804,Fri Oct 11 2024 11:56:54 GMT-0400 (Eastern Daylight Time),407892.2000000477,A,m,I,m,387,1,400.0,407492.2000000477,9002,WL,A,5.0
3,10.967000007629395,learn,49032.999992370605,Fri Oct 11 2024 11:56:54 GMT-0400 (Eastern Daylight Time),408042.2000000477,A,me,I,e,128,1,550.0,407492.2000000477,9002,WL,A,5.0
3,11.099999904632568,learn,48900.00009536743,Fri Oct 11 2024 11:56:54 GMT-0400 (Eastern Daylight Time),408175.39999997616,A,mea,I,a,123,1,683.1999999284744,407492.2000000477,9002,WL,A,5.0
3,11.299999952316284,learn,48700.000047683716,Fri Oct 11 2024 11:56:54 GMT-0400 (Eastern Daylight Time),408375.7000000477,A,mean,I,n,174,1,883.5,407492.2000000477,9002,WL,A,5.0
3,11.766999959945679,learn,48233.00004005432,Fri Oct 11 2024 11:56:54 GMT-0400 (Eastern Daylight Time),408842.39999997616,A,mea,I,backspace,445,1,1350.1999999284744,407492.2000000477,9002,WL,A,5.0
3,11.91700005531311,learn,48082.99994468689,Fri Oct 11 2024 11:56:54 GMT-0400 (Eastern Daylight Time),408992.2999999523,A,mead,I,d,138,1,1500.0999999046326,407492.2000000477,9002,WL,A,5.0
3,12.033999919891357,learn,47966.00008010864,Fri Oct 11 2024 11:56:54 GMT-0400 (Eastern Daylight Time),409109.10000002384,A,meado,I,o,98,1,1616.8999999761581,407492.2000000477,9002,WL,A,5.0
3,12.766999959945679,learn,47233.00004005432,Fri Oct 11 2024 11:56:54 GMT-0400 (Eastern Daylight Time),409841.89999997616,A,meadow,I,w,711,1,2349.6999999284744,407492.2000000477,9002,WL,A,5.0
3,13.91599988937378,learn,46084.00011062622,Fri Oct 11 2024 11:56:54 GMT-0400 (Eastern Daylight Time),410991.7999999523,A,meadowenter,I,enter,1138,1,3499.5999999046326,407492.2000000477,9002,WL,A,5.0
3,14.349999904632568,learn,45650.00009536743,Fri Oct 11 2024 11:56:54 GMT-0400 (Eastern Daylight Time),411425.39999997616,A,h,I,h,423,1,433.1999999284744,410992.2000000477,9002,WL,A,6.0
3,14.467000007629395,learn,45532.999992370605,Fri Oct 11 2024 11:56:54 GMT-0400 (Eastern Daylight Time),411542.39999997616,A,ha,I,a,98,1,550.1999999284744,410992.2000000477,9002,WL,A,6.0
3,14.583999872207642,learn,45416.00012779236,Fri Oct 11 2024 11:56:54 GMT-0400 (Eastern Daylight Time),411659.0,A,har,I,r,88,1,666.7999999523163,410992.2000000477,9002,WL,A,6.0
3,15.134000062942505,learn,44865.999937057495,Fri Oct 11 2024 11:56:54 GMT-0400 (Eastern Daylight Time),412209.0,A,harp,I,p,531,1,1216.7999999523163,410992.2000000477,9002,WL,A,6.0
3,15.700999975204468,learn,44299.00002479553,Fri Oct 11 2024 11:56:54 GMT-0400 (Eastern Daylight Time),412776.2000000477,A,harpenter,I,enter,545,1,1784.0,410992.2000000477,9002,WL,A,6.0
3,16.149999856948853,learn,43850.00014305115,Fri Oct 11 2024 11:56:54 GMT-0400 (Eastern Daylight Time),413225.7999999523,A,a,I,a,431,1,449.2999999523163,412776.5,9002,WL,A,7.0
3,16.566999912261963,learn,43433.00008773804,Fri Oct 11 2024 11:56:54 GMT-0400 (Eastern Daylight Time),413642.2999999523,A,ap,I,p,395,1,865.7999999523163,412776.5,9002,WL,A,7.0
3,17.299999952316284,learn,42700.000047683716,Fri Oct 11 2024 11:56:54 GMT-0400 (Eastern Daylight Time),414375.7999999523,A,app,I,p,714,1,1599.2999999523163,412776.5,9002,WL,A,7.0
3,17.51699995994568,learn,42483.00004005432,Fri Oct 11 2024 11:56:54 GMT-0400 (Eastern Daylight Time),414592.2999999523,A,appl,I,l,205,1,1815.7999999523163,412776.5,9002,WL,A,7.0
3,17.717000007629395,learn,42282.999992370605,Fri Oct 11 2024 11:56:54 GMT-0400 (Eastern Daylight Time),414792.39999997616,A,apple,I,e,180,1,2015.8999999761581,412776.5,9002,WL,A,7.0
3,18.216000080108643,learn,41783.99991989136,Fri Oct 11 2024 11:56:54 GMT-0400 (Eastern Daylight Time),415291.7000000477,A,appleenter,I,enter,472,1,2515.2000000476837,412776.5,9002,WL,A,7.0
3,18.649999856948853,learn,41350.00014305115,Fri Oct 11 2024 11:56:54 GMT-0400 (Eastern Daylight Time),415725.60000002384,A,s,I,s,412,1,433.60000002384186,415292.0,9002,WL,A,8.0
3,18.884000062942505,learn,41115.999937057495,Fri Oct 11 2024 11:56:54 GMT-0400 (Eastern Daylight Time),415958.89999997616,A,sa,I,a,214,1,666.8999999761581,415292.0,9002,WL,A,8.0
3,19.049999952316284,learn,40950.000047683716,Fri Oct 11 2024 11:56:54 GMT-0400 (Eastern Daylight Time),416125.7000000477,A,sal,I,l,141,1,833.7000000476837,415292.0,9002,WL,A,8.0
3,19.83299994468689,learn,40167.00005531311,Fri Oct 11 2024 11:56:54 GMT-0400 (Eastern Daylight Time),416908.7999999523,A,salt,I,t,759,1,1616.7999999523163,415292.0,9002,WL,A,8.0
3,21.217000007629395,learn,38782.999992370605,Fri Oct 11 2024 11:56:54 GMT-0400 (Eastern Daylight Time),418291.89999997616,A,saltenter,I,enter,1368,1,2999.899999976158,415292.0,9002,WL,A,8.0
3,21.533999919891357,learn,38466.00008010864,Fri Oct 11 2024 11:56:54 GMT-0400 (Eastern Daylight Time),418609.0,A,k,I,k,307,1,316.7999999523163,418292.2000000477,9002,WL,A,9.0
3,21.700000047683716,learn,38299.999952316284,Fri Oct 11 2024 11:56:54 GMT-0400 (Eastern Daylight Time),418775.7999999523,A,ke,I,e,148,1,483.59999990463257,418292.2000000477,9002,WL,A,9.0
3,21.866999864578247,learn,38133.00013542175,Fri Oct 11 2024 11:56:54 GMT-0400 (Eastern Daylight Time),418942.2999999523,A,ket,I,t,140,1,650.0999999046326,418292.2000000477,9002,WL,A,9.0
3,22.717000007629395,learn,37282.999992370605,Fri Oct 11 2024 11:56:54 GMT-0400 (Eastern Daylight Time),419792.39999997616,A,ke,I,backspace,830,1,1500.1999999284744,418292.2000000477,9002,WL,A,9.0
3,23.450000047683716,learn,36549.999952316284,Fri Oct 11 2024 11:56:54 GMT-0400 (Eastern Daylight Time),420525.60000002384,A,key,I,y,705,1,2233.399999976158,418292.2000000477,9002,WL,A,9.0
3,23.766000032424927,learn,36233.99996757507,Fri Oct 11 2024 11:56:54 GMT-0400 (Eastern Daylight Time),420841.60000002384,A,keyenter,I,enter,293,1,2549.399999976158,418292.2000000477,9002,WL,A,9.0
3,24.18400001525879,learn,35815.99998474121,Fri Oct 11 2024 11:56:54 GMT-0400 (Eastern Daylight Time),421259.0,A,l,I,l,398,1,416.89999997615814,420842.10000002384,9002,WL,A,10.0
3,24.366999864578247,learn,35633.00013542175,Fri Oct 11 2024 11:56:54 GMT-0400 (Eastern Daylight Time),421442.39999997616,A,lo,I,o,169,1,600.2999999523163,420842.10000002384,9002,WL,A,10.0
3,24.98300004005432,learn,35016.99995994568,Fri Oct 11 2024 11:56:54 GMT-0400 (Eastern Daylight Time),422058.89999997616,A,log,I,g,594,1,1216.7999999523163,420842.10000002384,9002,WL,A,10.0
3,25.950000047683716,learn,34049.999952316284,Fri Oct 11 2024 11:56:54 GMT-0400 (Eastern Daylight Time),423025.2000000477,A,logenter,I,enter,952,1,2183.100000023842,420842.10000002384,9002,WL,A,10.0
3,26.983999967575073,learn,33016.00003242493,Fri Oct 11 2024 11:56:54 GMT-0400 (Eastern Daylight Time),424058.89999997616,A,m,I,m,1014,1,1033.3999999761581,423025.5,9002,WL,A,11.0
3,27.366999864578247,learn,32633.000135421753,Fri Oct 11 2024 11:56:54 GMT-0400 (Eastern Daylight Time),424442.5,A,,I,backspace,362,1,1417.0,423025.5,9002,WL,A,11.0
3,27.66700005531311,learn,32332.99994468689,Fri Oct 11 2024 11:56:54 GMT-0400 (Eastern Daylight Time),424742.2000000477,A,m,I,m,282,1,1716.7000000476837,423025.5,9002,WL,A,11.0
3,28.467000007629395,learn,31532.999992370605,Fri Oct 11 2024 11:56:54 GMT-0400 (Eastern Daylight Time),425542.2000000477,A,,I,backspace,783,1,2516.7000000476837,423025.5,9002,WL,A,11.0
3,28.967000007629395,learn,31032.999992370605,Fri Oct 11 2024 11:56:54 GMT-0400 (Eastern Daylight Time),426042.2000000477,A,c,I,c,476,1,3016.7000000476837,423025.5,9002,WL,A,11.0
3,29.09999990463257,learn,30900.00009536743,Fri Oct 11 2024 11:56:54 GMT-0400 (Eastern Daylight Time),426175.7000000477,A,ch,I,h,108,1,3150.2000000476837,423025.5,9002,WL,A,11.0
3,29.649999856948853,learn,30350.000143051147,Fri Oct 11 2024 11:56:54 GMT-0400 (Eastern Daylight Time),426725.7999999523,A,chi,I,i,533,1,3700.2999999523163,423025.5,9002,WL,A,11.0
3,29.83399987220764,learn,30166.00012779236,Fri Oct 11 2024 11:56:54 GMT-0400 (Eastern Daylight Time),426908.89999997616,A,chim,I,m,158,1,3883.399999976158,423025.5,9002,WL,A,11.0
3,30.26699995994568,learn,29733.00004005432,Fri Oct 11 2024 11:56:54 GMT-0400 (Eastern Daylight Time),427342.5,A,chimn,I,n,423,1,4317.0,423025.5,9002,WL,A,11.0
3,30.43400001525879,learn,29565.99998474121,Fri Oct 11 2024 11:56:54 GMT-0400 (Eastern Daylight Time),427509.0,A,chimne,I,e,150,1,4483.5,423025.5,9002,WL,A,11.0
3,30.649999856948853,learn,29350.000143051147,Fri Oct 11 2024 11:56:54 GMT-0400 (Eastern Daylight Time),427725.7000000477,A,chimney,I,y,191,1,4700.200000047684,423025.5,9002,WL,A,11.0
3,31.33299994468689,learn,28667.00005531311,Fri Oct 11 2024 11:56:54 GMT-0400 (Eastern Daylight Time),428408.5,A,chimneyenter,I,enter,661,1,5383.0,423025.5,9002,WL,A,11.0
3,31.717000007629395,learn,28282.999992370605,Fri Oct 11 2024 11:56:54 GMT-0400 (Eastern Daylight Time),428792.5,A,b,I,b,367,1,383.60000002384186,428408.89999997616,9002,WL,A,12.0
3,31.816999912261963,learn,28183.000087738037,Fri Oct 11 2024 11:56:54 GMT-0400 (Eastern Daylight Time),428892.10000002384,A,bu,I,u,74,1,483.2000000476837,428408.89999997616,9002,WL,A,12.0
3,32.56699991226196,learn,27433.000087738037,Fri Oct 11 2024 11:56:54 GMT-0400 (Eastern Daylight Time),429642.5,A,but,I,t,729,1,1233.6000000238419,428408.89999997616,9002,WL,A,12.0
3,32.68299984931946,learn,27317.000150680542,Fri Oct 11 2024 11:56:54 GMT-0400 (Eastern Daylight Time),429758.5,A,butt,I,t,105,1,1349.6000000238419,428408.89999997616,9002,WL,A,12.0
3,33.09999990463257,learn,26900.00009536743,Fri Oct 11 2024 11:56:54 GMT-0400 (Eastern Daylight Time),430175.39999997616,A,butto,I,o,399,1,1766.5,428408.89999997616,9002,WL,A,12.0
3,33.23399996757507,learn,26766.000032424927,Fri Oct 11 2024 11:56:54 GMT-0400 (Eastern Daylight Time),430309.10000002384,A,button,I,n,117,1,1900.2000000476837,428408.89999997616,9002,WL,A,12.0
3,33.532999992370605,learn,26467.000007629395,Fri Oct 11 2024 11:56:54 GMT-0400 (Eastern Daylight Time),430608.2000000477,A,buttonenter,I,enter,279,1,2199.3000000715256,428408.89999997616,9002,WL,A,12.0
3,34.09999990463257,learn,25900.00009536743,Fri Oct 11 2024 11:56:54 GMT-0400 (Eastern Daylight Time),431175.7000000477,A,g,I,g,552,1,567.2000000476837,430608.5,9002,WL,A,13.0
3,34.26699995994568,learn,25733.00004005432,Fri Oct 11 2024 11:56:54 GMT-0400 (Eastern Daylight Time),431342.5,A,gl,I,l,141,1,734.0,430608.5,9002,WL,A,13.0
3,34.467000007629395,learn,25532.999992370605,Fri Oct 11 2024 11:56:54 GMT-0400 (Eastern Daylight Time),431542.39999997616,A,glo,I,o,182,1,933.8999999761581,430608.5,9002,WL,A,13.0
3,34.93400001525879,learn,25065.99998474121,Fri Oct 11 2024 11:56:54 GMT-0400 (Eastern Daylight Time),432008.89999997616,A,gl,I,backspace,444,1,1400.3999999761581,430608.5,9002,WL,A,13.0
3,35.049999952316284,learn,24950.000047683716,Fri Oct 11 2024 11:56:54 GMT-0400 (Eastern Daylight Time),432125.7000000477,A,g,I,backspace,89,1,1517.2000000476837,430608.5,9002,WL,A,13.0
3,35.26699995994568,learn,24733.00004005432,Fri Oct 11 2024 11:56:54 GMT-0400 (Eastern Daylight Time),432342.5,A,go,I,o,198,1,1734.0,430608.5,9002,WL,A,13.0
3,35.450000047683716,learn,24549.999952316284,Fri Oct 11 2024 11:56:54 GMT-0400 (Eastern Daylight Time),432525.7000000477,A,gol,I,l,158,1,1917.2000000476837,430608.5,9002,WL,A,13.0
3,35.61699986457825,learn,24383.000135421753,Fri Oct 11 2024 11:56:54 GMT-0400 (Eastern Daylight Time),432692.2999999523,A,gold,I,d,144,1,2083.7999999523163,430608.5,9002,WL,A,13.0
3,36.032999992370605,learn,23967.000007629395,Fri Oct 11 2024 11:56:54 GMT-0400 (Eastern Daylight Time),433108.5,A,goldenter,I,enter,392,1,2500.0,430608.5,9002,WL,A,13.0
3,36.51699995994568,learn,23483.00004005432,Fri Oct 11 2024 11:56:54 GMT-0400 (Eastern Daylight Time),433592.39999997616,A,r,I,r,467,1,483.5,433108.89999997616,9002,WL,A,14.0
3,36.64999985694885,learn,23350.000143051147,Fri Oct 11 2024 11:56:54 GMT-0400 (Eastern Daylight Time),433725.60000002384,A,ra,I,a,108,1,616.7000000476837,433108.89999997616,9002,WL,A,14.0
3,36.89999985694885,learn,23100.000143051147,Fri Oct 11 2024 11:56:54 GMT-0400 (Eastern Daylight Time),433975.60000002384,A,rat,I,t,230,1,866.7000000476837,433108.89999997616,9002,WL,A,14.0
3,37.16700005531311,learn,22832.99994468689,Fri Oct 11 2024 11:56:54 GMT-0400 (Eastern Daylight Time),434242.2000000477,A,ratt,I,t,252,1,1133.3000000715256,433108.89999997616,9002,WL,A,14.0
3,37.43299984931946,learn,22567.000150680542,Fri Oct 11 2024 11:56:54 GMT-0400 (Eastern Daylight Time),434508.7999999523,A,rattl,I,l,243,1,1399.8999999761581,433108.89999997616,9002,WL,A,14.0
3,37.58399987220764,learn,22416.00012779236,Fri Oct 11 2024 11:56:54 GMT-0400 (Eastern Daylight Time),434659.0,A,rattle,I,e,135,1,1550.1000000238419,433108.89999997616,9002,WL,A,14.0
3,38.049999952316284,learn,21950.000047683716,Fri Oct 11 2024 11:56:54 GMT-0400 (Eastern Daylight Time),435125.10000002384,A,rattleenter,I,enter,441,1,2016.2000000476837,433108.89999997616,9002,WL,A,14.0
3,60.01699995994568,learn,-16.99995994567871,Fri Oct 11 2024 11:56:54 GMT-0400 (Eastern Daylight Time),457092.60000002384,A,None,I,None,21961,1,21967.100000023842,435125.5,9002,WL,A,15.0
4,0.9500000476837158,learn,59049.999952316284,Fri Oct 11 2024 11:56:54 GMT-0400 (Eastern Daylight Time),527292.2000000477,A,b,I,b,927,1,949.4000000953674,526342.7999999523,9002,WL,A,1.0
4,1.1329998970031738,learn,58867.000102996826,Fri Oct 11 2024 11:56:54 GMT-0400 (Eastern Daylight Time),527475.8999999762,A,bo,I,o,164,1,1133.1000000238419,526342.7999999523,9002,WL,A,1.0
4,1.2829999923706055,learn,58717.000007629395,Fri Oct 11 2024 11:56:54 GMT-0400 (Eastern Daylight Time),527625.7999999523,A,boo,I,o,122,1,1283.0,526342.7999999523,9002,WL,A,1.0
4,1.4500000476837158,learn,58549.999952316284,Fri Oct 11 2024 11:56:54 GMT-0400 (Eastern Daylight Time),527792.3999999762,A,book,I,k,155,1,1449.6000000238419,526342.7999999523,9002,WL,A,1.0
4,2.065999984741211,learn,57934.00001525879,Fri Oct 11 2024 11:56:54 GMT-0400 (Eastern Daylight Time),528408.6000000238,A,bookenter,I,enter,597,1,2065.8000000715256,526342.7999999523,9002,WL,A,1.0
4,2.450000047683716,learn,57549.999952316284,Fri Oct 11 2024 11:56:54 GMT-0400 (Eastern Daylight Time),528792.5,A,f,I,f,367,1,383.5,528409.0,9002,WL,A,2.0
4,2.5829999446868896,learn,57417.00005531311,Fri Oct 11 2024 11:56:54 GMT-0400 (Eastern Daylight Time),528925.7999999523,A,fl,I,l,108,1,516.7999999523163,528409.0,9002,WL,A,2.0
4,2.7330000400543213,learn,57266.99995994568,Fri Oct 11 2024 11:56:54 GMT-0400 (Eastern Daylight Time),529075.7999999523,A,flo,I,o,134,1,666.7999999523163,528409.0,9002,WL,A,2.0
4,2.882999897003174,learn,57117.000102996826,Fri Oct 11 2024 11:56:54 GMT-0400 (Eastern Daylight Time),529225.7000000477,A,flow,I,w,129,1,816.7000000476837,528409.0,9002,WL,A,2.0
4,3.299999952316284,learn,56700.000047683716,Fri Oct 11 2024 11:56:54 GMT-0400 (Eastern Daylight Time),529642.8999999762,A,flowe,I,e,386,1,1233.8999999761581,528409.0,9002,WL,A,2.0
4,3.382999897003174,learn,56617.000102996826,Fri Oct 11 2024 11:56:54 GMT-0400 (Eastern Daylight Time),529725.7000000477,A,flower,I,r,56,1,1316.7000000476837,528409.0,9002,WL,A,2.0
4,3.75,learn,56250.0,Fri Oct 11 2024 11:56:54 GMT-0400 (Eastern Daylight Time),530091.8999999762,A,flowerenter,I,enter,340,1,1682.8999999761581,528409.0,9002,WL,A,2.0
4,4.516999959945679,learn,55483.00004005432,Fri Oct 11 2024 11:56:54 GMT-0400 (Eastern Daylight Time),530859.2999999523,A,t,I,t,748,1,767.0,530092.2999999523,9002,WL,A,3.0
4,4.683000087738037,learn,55316.99991226196,Fri Oct 11 2024 11:56:54 GMT-0400 (Eastern Daylight Time),531025.7999999523,A,tr,I,r,153,1,933.5,530092.2999999523,9002,WL,A,3.0
4,4.7829999923706055,learn,55217.000007629395,Fri Oct 11 2024 11:56:54 GMT-0400 (Eastern Daylight Time),531125.7999999523,A,tra,I,a,81,1,1033.5,530092.2999999523,9002,WL,A,3.0
4,4.91700005531311,learn,55082.99994468689,Fri Oct 11 2024 11:56:54 GMT-0400 (Eastern Daylight Time),531259.1000000238,A,trai,I,i,110,1,1166.8000000715256,530092.2999999523,9002,WL,A,3.0
4,5.066999912261963,learn,54933.00008773804,Fri Oct 11 2024 11:56:54 GMT-0400 (Eastern Daylight Time),531409.0,A,train,I,n,130,1,1316.7000000476837,530092.2999999523,9002,WL,A,3.0
4,6.033999919891357,learn,53966.00008010864,Fri Oct 11 2024 11:56:54 GMT-0400 (Eastern Daylight Time),532376.3999999762,A,trainenter,I,enter,946,1,2284.100000023842,530092.2999999523,9002,WL,A,3.0
4,6.400000095367432,learn,53599.99990463257,Fri Oct 11 2024 11:56:54 GMT-0400 (Eastern Daylight Time),532742.6000000238,A,r,I,r,351,1,365.89999997615814,532376.7000000477,9002,WL,A,4.0
4,6.799999952316284,learn,53200.000047683716,Fri Oct 11 2024 11:56:54 GMT-0400 (Eastern Daylight Time),533142.3999999762,A,rg,I,g,381,1,765.6999999284744,532376.7000000477,9002,WL,A,4.0
4,7.2170000076293945,learn,52782.999992370605,Fri Oct 11 2024 11:56:54 GMT-0400 (Eastern Daylight Time),533559.1000000238,A,r,I,backspace,399,1,1182.3999999761581,532376.7000000477,9002,WL,A,4.0
4,7.4670000076293945,learn,52532.999992370605,Fri Oct 11 2024 11:56:54 GMT-0400 (Eastern Daylight Time),533809.1000000238,A,ru,I,u,238,1,1432.3999999761581,532376.7000000477,9002,WL,A,4.0
4,8.032999992370605,learn,51967.000007629395,Fri Oct 11 2024 11:56:54 GMT-0400 (Eastern Daylight Time),534375.8999999762,A,rug,I,g,547,1,1999.1999999284744,532376.7000000477,9002,WL,A,4.0
4,9.815999984741211,learn,50184.00001525879,Fri Oct 11 2024 11:56:54 GMT-0400 (Eastern Daylight Time),536158.3999999762,A,rugenter,I,enter,1771,1,3781.6999999284744,532376.7000000477,9002,WL,A,4.0
4,10.150000095367432,learn,49849.99990463257,Fri Oct 11 2024 11:56:54 GMT-0400 (Eastern Daylight Time),536492.2999999523,A,m,I,m,313,1,333.6999999284744,536158.6000000238,9002,WL,A,5.0
4,10.433000087738037,learn,49566.99991226196,Fri Oct 11 2024 11:56:54 GMT-0400 (Eastern Daylight Time),536775.7999999523,A,me,I,e,264,1,617.1999999284744,536158.6000000238,9002,WL,A,5.0
4,10.683000087738037,learn,49316.99991226196,Fri Oct 11 2024 11:56:54 GMT-0400 (Eastern Daylight Time),537025.7999999523,A,mea,I,a,237,1,867.1999999284744,536158.6000000238,9002,WL,A,5.0
4,10.91700005531311,learn,49082.99994468689,Fri Oct 11 2024 11:56:54 GMT-0400 (Eastern Daylight Time),537259.1000000238,A,mead,I,d,208,1,1100.5,536158.6000000238,9002,WL,A,5.0
4,11.216000080108643,learn,48783.99991989136,Fri Oct 11 2024 11:56:54 GMT-0400 (Eastern Daylight Time),537558.8999999762,A,meado,I,o,282,1,1400.2999999523163,536158.6000000238,9002,WL,A,5.0
4,11.66700005531311,learn,48332.99994468689,Fri Oct 11 2024 11:56:54 GMT-0400 (Eastern Daylight Time),538009.1000000238,A,meadow,I,w,428,1,1850.5,536158.6000000238,9002,WL,A,5.0
4,12.58299994468689,learn,47417.00005531311,Fri Oct 11 2024 11:56:54 GMT-0400 (Eastern Daylight Time),538925.5,A,meadowenter,I,enter,890,1,2766.899999976158,536158.6000000238,9002,WL,A,5.0
4,12.983000040054321,learn,47016.99995994568,Fri Oct 11 2024 11:56:54 GMT-0400 (Eastern Daylight Time),539325.7999999523,A,h,I,h,378,1,400.0,538925.7999999523,9002,WL,A,6.0
4,13.099999904632568,learn,46900.00009536743,Fri Oct 11 2024 11:56:54 GMT-0400 (Eastern Daylight Time),539442.3999999762,A,ha,I,a,102,1,516.6000000238419,538925.7999999523,9002,WL,A,6.0
4,13.217000007629395,learn,46782.999992370605,Fri Oct 11 2024 11:56:54 GMT-0400 (Eastern Daylight Time),539559.1000000238,A,har,I,r,96,1,633.3000000715256,538925.7999999523,9002,WL,A,6.0
4,14.200000047683716,learn,45799.999952316284,Fri Oct 11 2024 11:56:54 GMT-0400 (Eastern Daylight Time),540542.5,A,harp,I,p,950,1,1616.7000000476837,538925.7999999523,9002,WL,A,6.0
4,14.799999952316284,learn,45200.000047683716,Fri Oct 11 2024 11:56:54 GMT-0400 (Eastern Daylight Time),541141.8999999762,A,harpenter,I,enter,583,1,2216.100000023842,538925.7999999523,9002,WL,A,6.0
4,15.217000007629395,learn,44782.999992370605,Fri Oct 11 2024 11:56:54 GMT-0400 (Eastern Daylight Time),541559.2000000477,A,s,I,s,402,1,416.90000009536743,541142.2999999523,9002,WL,A,7.0
4,15.400000095367432,learn,44599.99990463257,Fri Oct 11 2024 11:56:54 GMT-0400 (Eastern Daylight Time),541742.5,A,sa,I,a,158,1,600.2000000476837,541142.2999999523,9002,WL,A,7.0
4,15.599999904632568,learn,44400.00009536743,Fri Oct 11 2024 11:56:54 GMT-0400 (Eastern Daylight Time),541942.2999999523,A,sal,I,l,181,1,800.0,541142.2999999523,9002,WL,A,7.0
4,15.799999952316284,learn,44200.000047683716,Fri Oct 11 2024 11:56:54 GMT-0400 (Eastern Daylight Time),542142.6000000238,A,sale,I,e,189,1,1000.3000000715256,541142.2999999523,9002,WL,A,7.0
4,16.367000102996826,learn,43632.999897003174,Fri Oct 11 2024 11:56:54 GMT-0400 (Eastern Daylight Time),542709.2000000477,A,sal,I,backspace,550,1,1566.9000000953674,541142.2999999523,9002,WL,A,7.0
4,16.799999952316284,learn,43200.000047683716,Fri Oct 11 2024 11:56:54 GMT-0400 (Eastern Daylight Time),543142.2000000477,A,salt,I,t,416,1,1999.9000000953674,541142.2999999523,9002,WL,A,7.0
4,17.132999897003174,learn,42867.000102996826,Fri Oct 11 2024 11:56:54 GMT-0400 (Eastern Daylight Time),543475.2999999523,A,saltenter,I,enter,316,1,2333.0,541142.2999999523,9002,WL,A,7.0
4,17.566999912261963,learn,42433.00008773804,Fri Oct 11 2024 11:56:54 GMT-0400 (Eastern Daylight Time),543909.1000000238,A,f,I,f,420,1,433.39999997615814,543475.7000000477,9002,WL,A,8.0
4,17.66700005531311,learn,42332.99994468689,Fri Oct 11 2024 11:56:54 GMT-0400 (Eastern Daylight Time),544009.1000000238,A,fi,I,i,80,1,533.3999999761581,543475.7000000477,9002,WL,A,8.0
4,17.81599998474121,learn,42184.00001525879,Fri Oct 11 2024 11:56:54 GMT-0400 (Eastern Daylight Time),544158.7999999523,A,fin,I,n,133,1,683.0999999046326,543475.7000000477,9002,WL,A,8.0
4,18.33299994468689,learn,41667.00005531311,Fri Oct 11 2024 11:56:54 GMT-0400 (Eastern Daylight Time),544675.7999999523,A,fing,I,g,494,1,1200.0999999046326,543475.7000000477,9002,WL,A,8.0
4,18.5,learn,41500.0,Fri Oct 11 2024 11:56:54 GMT-0400 (Eastern Daylight Time),544842.5,A,finge,I,e,144,1,1366.7999999523163,543475.7000000477,9002,WL,A,8.0
4,18.56599998474121,learn,41434.00001525879,Fri Oct 11 2024 11:56:54 GMT-0400 (Eastern Daylight Time),544908.7999999523,A,finger,I,r,39,1,1433.0999999046326,543475.7000000477,9002,WL,A,8.0
4,20.0,learn,40000.0,Fri Oct 11 2024 11:56:54 GMT-0400 (Eastern Daylight Time),546342.0,A,fingerenter,I,enter,1417,1,2866.2999999523163,543475.7000000477,9002,WL,A,8.0
4,20.33299994468689,learn,39667.00005531311,Fri Oct 11 2024 11:56:54 GMT-0400 (Eastern Daylight Time),546675.6000000238,A,a,I,a,322,1,333.3000000715256,546342.2999999523,9002,WL,A,9.0
4,20.66700005531311,learn,39332.99994468689,Fri Oct 11 2024 11:56:54 GMT-0400 (Eastern Daylight Time),547009.2000000477,A,ap,I,p,321,1,666.9000000953674,546342.2999999523,9002,WL,A,9.0
4,21.15000009536743,learn,38849.99990463257,Fri Oct 11 2024 11:56:54 GMT-0400 (Eastern Daylight Time),547492.5,A,app,I,p,467,1,1150.2000000476837,546342.2999999523,9002,WL,A,9.0
4,21.41700005531311,learn,38582.99994468689,Fri Oct 11 2024 11:56:54 GMT-0400 (Eastern Daylight Time),547759.2000000477,A,appl,I,l,237,1,1416.9000000953674,546342.2999999523,9002,WL,A,9.0
4,21.799999952316284,learn,38200.000047683716,Fri Oct 11 2024 11:56:54 GMT-0400 (Eastern Daylight Time),548142.5,A,apple,I,e,357,1,1800.2000000476837,546342.2999999523,9002,WL,A,9.0
4,22.98300004005432,learn,37016.99995994568,Fri Oct 11 2024 11:56:54 GMT-0400 (Eastern Daylight Time),549325.2000000477,A,appleenter,I,enter,1157,1,2982.9000000953674,546342.2999999523,9002,WL,A,9.0
4,24.117000102996826,learn,35882.999897003174,Fri Oct 11 2024 11:56:54 GMT-0400 (Eastern Daylight Time),550459.1000000238,A,l,I,l,1115,1,1133.5,549325.6000000238,9002,WL,A,10.0
4,24.316999912261963,learn,35683.00008773804,Fri Oct 11 2024 11:56:54 GMT-0400 (Eastern Daylight Time),550659.2000000477,A,lo,I,o,185,1,1333.6000000238419,549325.6000000238,9002,WL,A,10.0
4,24.700000047683716,learn,35299.999952316284,Fri Oct 11 2024 11:56:54 GMT-0400 (Eastern Daylight Time),551042.5,A,log,I,g,370,1,1716.8999999761581,549325.6000000238,9002,WL,A,10.0
4,25.799000024795532,learn,34200.99997520447,Fri Oct 11 2024 11:56:54 GMT-0400 (Eastern Daylight Time),552141.7999999523,A,logenter,I,enter,1088,1,2816.1999999284744,549325.6000000238,9002,WL,A,10.0
4,26.717000007629395,learn,33282.999992370605,Fri Oct 11 2024 11:56:54 GMT-0400 (Eastern Daylight Time),553059.2000000477,A,k,I,k,906,1,917.1000000238419,552142.1000000238,9002,WL,A,11.0
4,26.91700005531311,learn,33082.99994468689,Fri Oct 11 2024 11:56:54 GMT-0400 (Eastern Daylight Time),553259.1000000238,A,ke,I,e,177,1,1117.0,552142.1000000238,9002,WL,A,11.0
4,27.08299994468689,learn,32917.00005531311,Fri Oct 11 2024 11:56:54 GMT-0400 (Eastern Daylight Time),553425.8999999762,A,ket,I,t,153,1,1283.7999999523163,552142.1000000238,9002,WL,A,11.0
4,27.66700005531311,learn,32332.99994468689,Fri Oct 11 2024 11:56:54 GMT-0400 (Eastern Daylight Time),554009.1000000238,A,ke,I,backspace,563,1,1867.0,552142.1000000238,9002,WL,A,11.0
4,27.91700005531311,learn,32082.99994468689,Fri Oct 11 2024 11:56:54 GMT-0400 (Eastern Daylight Time),554259.0,A,key,I,y,236,1,2116.899999976158,552142.1000000238,9002,WL,A,11.0
4,28.466000080108643,learn,31533.999919891357,Fri Oct 11 2024 11:56:54 GMT-0400 (Eastern Daylight Time),554808.6000000238,A,keyenter,I,enter,529,1,2666.5,552142.1000000238,9002,WL,A,11.0
4,28.816999912261963,learn,31183.000087738037,Fri Oct 11 2024 11:56:54 GMT-0400 (Eastern Daylight Time),555159.2000000477,A,c,I,c,335,1,350.10000002384186,554809.1000000238,9002,WL,A,12.0
4,28.967000007629395,learn,31032.999992370605,Fri Oct 11 2024 11:56:54 GMT-0400 (Eastern Daylight Time),555309.1000000238,A,ch,I,h,126,1,500.0,554809.1000000238,9002,WL,A,12.0
4,29.16700005531311,learn,30832.99994468689,Fri Oct 11 2024 11:56:54 GMT-0400 (Eastern Daylight Time),555509.2000000477,A,chi,I,i,176,1,700.1000000238419,554809.1000000238,9002,WL,A,12.0
4,29.41599988937378,learn,30584.00011062622,Fri Oct 11 2024 11:56:54 GMT-0400 (Eastern Daylight Time),555758.7999999523,A,chim,I,m,232,1,949.6999999284744,554809.1000000238,9002,WL,A,12.0
4,29.75,learn,30250.0,Fri Oct 11 2024 11:56:54 GMT-0400 (Eastern Daylight Time),556092.6000000238,A,chimn,I,n,311,1,1283.5,554809.1000000238,9002,WL,A,12.0
4,29.933000087738037,learn,30066.999912261963,Fri Oct 11 2024 11:56:54 GMT-0400 (Eastern Daylight Time),556275.7999999523,A,chimne,I,e,168,1,1466.6999999284744,554809.1000000238,9002,WL,A,12.0
4,30.549999952316284,learn,29450.000047683716,Fri Oct 11 2024 11:56:54 GMT-0400 (Eastern Daylight Time),556892.2999999523,A,chimney,I,y,592,1,2083.1999999284744,554809.1000000238,9002,WL,A,12.0
4,31.348999977111816,learn,28651.000022888184,Fri Oct 11 2024 11:56:54 GMT-0400 (Eastern Daylight Time),557691.6000000238,A,chimneyenter,I,enter,776,1,2882.5,554809.1000000238,9002,WL,A,12.0
4,33.0,learn,27000.0,Fri Oct 11 2024 11:56:54 GMT-0400 (Eastern Daylight Time),559342.5,A,r,I,r,1644,1,1650.6000000238419,557691.8999999762,9002,WL,A,13.0
4,33.132999897003174,learn,26867.000102996826,Fri Oct 11 2024 11:56:54 GMT-0400 (Eastern Daylight Time),559475.8999999762,A,ra,I,a,118,1,1784.0,557691.8999999762,9002,WL,A,13.0
4,33.40000009536743,learn,26599.99990463257,Fri Oct 11 2024 11:56:54 GMT-0400 (Eastern Daylight Time),559742.6000000238,A,rat,I,t,249,1,2050.7000000476837,557691.8999999762,9002,WL,A,13.0
4,33.549999952316284,learn,26450.000047683716,Fri Oct 11 2024 11:56:54 GMT-0400 (Eastern Daylight Time),559892.6000000238,A,ratt,I,t,134,1,2200.7000000476837,557691.8999999762,9002,WL,A,13.0
4,33.799999952316284,learn,26200.000047683716,Fri Oct 11 2024 11:56:54 GMT-0400 (Eastern Daylight Time),560142.3999999762,A,ratte,I,e,222,1,2450.5,557691.8999999762,9002,WL,A,13.0
4,34.0,learn,26000.0,Fri Oct 11 2024 11:56:54 GMT-0400 (Eastern Daylight Time),560342.2999999523,A,rattel,I,l,182,1,2650.399999976158,557691.8999999762,9002,WL,A,13.0
4,34.950000047683716,learn,25049.999952316284,Fri Oct 11 2024 11:56:54 GMT-0400 (Eastern Daylight Time),561291.8999999762,A,rattelenter,I,enter,918,1,3600.0,557691.8999999762,9002,WL,A,13.0
4,35.532999992370605,learn,24467.000007629395,Fri Oct 11 2024 11:56:54 GMT-0400 (Eastern Daylight Time),561875.7999999523,A,g,I,g,571,1,583.5,561292.2999999523,9002,WL,A,14.0
4,36.299999952316284,learn,23700.000047683716,Fri Oct 11 2024 11:56:54 GMT-0400 (Eastern Daylight Time),562642.1000000238,A,,I,backspace,752,1,1349.8000000715256,561292.2999999523,9002,WL,A,14.0
4,36.450000047683716,learn,23549.999952316284,Fri Oct 11 2024 11:56:54 GMT-0400 (Eastern Daylight Time),562792.2999999523,A,,I,backspace,132,1,1500.0,561292.2999999523,9002,WL,A,14.0
4,37.09999990463257,learn,22900.00009536743,Fri Oct 11 2024 11:56:54 GMT-0400 (Eastern Daylight Time),563441.8999999762,A,g,I,g,629,1,2149.600000023842,561292.2999999523,9002,WL,A,14.0
4,37.200000047683716,learn,22799.999952316284,Fri Oct 11 2024 11:56:54 GMT-0400 (Eastern Daylight Time),563542.5,A,go,I,o,87,1,2250.2000000476837,561292.2999999523,9002,WL,A,14.0
4,37.365999937057495,learn,22634.000062942505,Fri Oct 11 2024 11:56:54 GMT-0400 (Eastern Daylight Time),563708.7000000477,A,goo,I,o,134,1,2416.4000000953674,561292.2999999523,9002,WL,A,14.0
4,37.782999992370605,learn,22217.000007629395,Fri Oct 11 2024 11:56:54 GMT-0400 (Eastern Daylight Time),564125.8999999762,A,go,I,backspace,394,1,2833.600000023842,561292.2999999523,9002,WL,A,14.0
4,38.117000102996826,learn,21882.999897003174,Fri Oct 11 2024 11:56:54 GMT-0400 (Eastern Daylight Time),564459.2000000477,A,gol,I,l,309,1,3166.9000000953674,561292.2999999523,9002,WL,A,14.0
4,38.882999897003174,learn,21117.000102996826,Fri Oct 11 2024 11:56:54 GMT-0400 (Eastern Daylight Time),565225.8999999762,A,gold,I,d,745,1,3933.600000023842,561292.2999999523,9002,WL,A,14.0
4,40.365999937057495,learn,19634.000062942505,Fri Oct 11 2024 11:56:54 GMT-0400 (Eastern Daylight Time),566708.5,A,goldenter,I,enter,1465,1,5416.200000047684,561292.2999999523,9002,WL,A,14.0
4,60.01699995994568,learn,-16.99995994567871,Fri Oct 11 2024 11:56:54 GMT-0400 (Eastern Daylight Time),586359.1000000238,A,None,I,None,19644,1,19650.200000047684,566708.8999999762,9002,WL,A,15.0
5,3.3340001106262207,learn,60000.0,Fri Oct 11 2024 11:56:54 GMT-0400 (Eastern Daylight Time),663426.2999999523,A,b,I,b,3321,1,3333.399999976158,660092.8999999762,9002,WL,A,1.0
5,3.617000102996826,learn,60000.0,Fri Oct 11 2024 11:56:54 GMT-0400 (Eastern Daylight Time),663709.5,A,bo,I,o,258,1,3616.600000023842,660092.8999999762,9002,WL,A,1.0
5,3.7339999675750732,learn,60000.0,Fri Oct 11 2024 11:56:54 GMT-0400 (Eastern Daylight Time),663826.0,A,boo,I,o,104,1,3733.100000023842,660092.8999999762,9002,WL,A,1.0
5,4.0,learn,60000.0,Fri Oct 11 2024 11:56:54 GMT-0400 (Eastern Daylight Time),664092.7000000477,A,book,I,k,237,1,3999.8000000715256,660092.8999999762,9002,WL,A,1.0
5,4.382999897003174,learn,60000.0,Fri Oct 11 2024 11:56:54 GMT-0400 (Eastern Daylight Time),664475.3999999762,A,bookenter,I,enter,359,1,4382.5,660092.8999999762,9002,WL,A,1.0
5,4.867000102996826,learn,60000.0,Fri Oct 11 2024 11:56:54 GMT-0400 (Eastern Daylight Time),664959.2999999523,A,f,I,f,461,1,483.5,664475.7999999523,9002,WL,A,2.0
5,4.983999967575073,learn,60000.0,Fri Oct 11 2024 11:56:54 GMT-0400 (Eastern Daylight Time),665076.0,A,fl,I,l,101,1,600.2000000476837,664475.7999999523,9002,WL,A,2.0
5,5.2170000076293945,learn,60000.0,Fri Oct 11 2024 11:56:54 GMT-0400 (Eastern Daylight Time),665309.1000000238,A,flo,I,o,208,1,833.3000000715256,664475.7999999523,9002,WL,A,2.0
5,5.349999904632568,learn,60000.0,Fri Oct 11 2024 11:56:54 GMT-0400 (Eastern Daylight Time),665442.6000000238,A,flow,I,w,119,1,966.8000000715256,664475.7999999523,9002,WL,A,2.0
5,5.617000102996826,learn,60000.0,Fri Oct 11 2024 11:56:54 GMT-0400 (Eastern Daylight Time),665709.1000000238,A,flowe,I,e,243,1,1233.3000000715256,664475.7999999523,9002,WL,A,2.0
5,5.75,learn,60000.0,Fri Oct 11 2024 11:56:54 GMT-0400 (Eastern Daylight Time),665842.3999999762,A,flower,I,r,120,1,1366.6000000238419,664475.7999999523,9002,WL,A,2.0
5,6.5,learn,60000.0,Fri Oct 11 2024 11:56:54 GMT-0400 (Eastern Daylight Time),666592.1000000238,A,flowerenter,I,enter,732,1,2116.3000000715256,664475.7999999523,9002,WL,A,2.0
5,6.983999967575073,learn,60000.0,Fri Oct 11 2024 11:56:54 GMT-0400 (Eastern Daylight Time),667076.2000000477,A,t,I,t,471,1,483.8000000715256,666592.3999999762,9002,WL,A,3.0
5,7.200000047683716,learn,60000.0,Fri Oct 11 2024 11:56:54 GMT-0400 (Eastern Daylight Time),667292.5,A,tr,I,r,193,1,700.1000000238419,666592.3999999762,9002,WL,A,3.0
5,7.316999912261963,learn,60000.0,Fri Oct 11 2024 11:56:54 GMT-0400 (Eastern Daylight Time),667409.1000000238,A,tra,I,a,96,1,816.7000000476837,666592.3999999762,9002,WL,A,3.0
5,7.617000102996826,learn,60000.0,Fri Oct 11 2024 11:56:54 GMT-0400 (Eastern Daylight Time),667709.2000000477,A,trai,I,i,274,1,1116.8000000715256,666592.3999999762,9002,WL,A,3.0
5,7.799999952316284,learn,60000.0,Fri Oct 11 2024 11:56:54 GMT-0400 (Eastern Daylight Time),667892.5,A,train,I,n,167,1,1300.1000000238419,666592.3999999762,9002,WL,A,3.0
5,8.266000032424927,learn,60000.0,Fri Oct 11 2024 11:56:54 GMT-0400 (Eastern Daylight Time),668358.7999999523,A,trainenter,I,enter,449,1,1766.3999999761581,666592.3999999762,9002,WL,A,3.0
5,9.217000007629395,learn,60000.0,Fri Oct 11 2024 11:56:54 GMT-0400 (Eastern Daylight Time),669309.0,A,r,I,r,929,1,949.7000000476837,668359.2999999523,9002,WL,A,4.0
5,9.450000047683716,learn,60000.0,Fri Oct 11 2024 11:56:54 GMT-0400 (Eastern Daylight Time),669542.6000000238,A,ru,I,u,216,1,1183.3000000715256,668359.2999999523,9002,WL,A,4.0
5,9.650000095367432,learn,60000.0,Fri Oct 11 2024 11:56:54 GMT-0400 (Eastern Daylight Time),669742.7000000477,A,run,I,n,191,1,1383.4000000953674,668359.2999999523,9002,WL,A,4.0
5,10.25,learn,60000.0,Fri Oct 11 2024 11:56:54 GMT-0400 (Eastern Daylight Time),670342.7000000477,A,ru,I,backspace,583,1,1983.4000000953674,668359.2999999523,9002,WL,A,4.0
5,10.382999897003174,learn,60000.0,Fri Oct 11 2024 11:56:54 GMT-0400 (Eastern Daylight Time),670475.7999999523,A,rug,I,g,109,1,2116.5,668359.2999999523,9002,WL,A,4.0
5,11.849999904632568,learn,60000.0,Fri Oct 11 2024 11:56:54 GMT-0400 (Eastern Daylight Time),671942.1000000238,A,rugenter,I,enter,1441,1,3582.8000000715256,668359.2999999523,9002,WL,A,4.0
5,12.549999952316284,learn,60000.0,Fri Oct 11 2024 11:56:54 GMT-0400 (Eastern Daylight Time),672642.6000000238,A,m,I,m,690,1,700.2000000476837,671942.3999999762,9002,WL,A,5.0
5,12.66700005531311,learn,60000.0,Fri Oct 11 2024 11:56:54 GMT-0400 (Eastern Daylight Time),672759.2000000477,A,me,I,e,98,1,816.8000000715256,671942.3999999762,9002,WL,A,5.0
5,12.799999952316284,learn,60000.0,Fri Oct 11 2024 11:56:54 GMT-0400 (Eastern Daylight Time),672892.7999999523,A,mea,I,a,103,1,950.3999999761581,671942.3999999762,9002,WL,A,5.0
5,13.316999912261963,learn,60000.0,Fri Oct 11 2024 11:56:54 GMT-0400 (Eastern Daylight Time),673409.2999999523,A,mead,I,d,497,1,1466.8999999761581,671942.3999999762,9002,WL,A,5.0
5,13.516999959945679,learn,60000.0,Fri Oct 11 2024 11:56:54 GMT-0400 (Eastern Daylight Time),673609.2000000477,A,meado,I,o,179,1,1666.8000000715256,671942.3999999762,9002,WL,A,5.0
5,13.799999952316284,learn,60000.0,Fri Oct 11 2024 11:56:54 GMT-0400 (Eastern Daylight Time),673892.7000000477,A,meadow,I,w,267,1,1950.3000000715256,671942.3999999762,9002,WL,A,5.0
5,14.216000080108643,learn,60000.0,Fri Oct 11 2024 11:56:54 GMT-0400 (Eastern Daylight Time),674308.7000000477,A,meadowenter,I,enter,400,1,2366.3000000715256,671942.3999999762,9002,WL,A,5.0
5,14.66700005531311,learn,60000.0,Fri Oct 11 2024 11:56:54 GMT-0400 (Eastern Daylight Time),674759.2000000477,A,h,I,h,435,1,449.90000009536743,674309.2999999523,9002,WL,A,6.0
5,14.799999952316284,learn,60000.0,Fri Oct 11 2024 11:56:54 GMT-0400 (Eastern Daylight Time),674892.7000000477,A,ha,I,a,109,1,583.4000000953674,674309.2999999523,9002,WL,A,6.0
5,14.967000007629395,learn,60000.0,Fri Oct 11 2024 11:56:54 GMT-0400 (Eastern Daylight Time),675059.2999999523,A,har,I,r,145,1,750.0,674309.2999999523,9002,WL,A,6.0
5,15.58299994468689,learn,60000.0,Fri Oct 11 2024 11:56:54 GMT-0400 (Eastern Daylight Time),675675.7000000477,A,harp,I,p,592,1,1366.4000000953674,674309.2999999523,9002,WL,A,6.0
5,15.966000080108643,learn,60000.0,Fri Oct 11 2024 11:56:54 GMT-0400 (Eastern Daylight Time),676058.7000000477,A,harpenter,I,enter,360,1,1749.4000000953674,674309.2999999523,9002,WL,A,6.0
5,16.299999952316284,learn,60000.0,Fri Oct 11 2024 11:56:54 GMT-0400 (Eastern Daylight Time),676392.6000000238,A,s,I,s,317,1,333.60000002384186,676059.0,9002,WL,A,7.0
5,16.450000047683716,learn,60000.0,Fri Oct 11 2024 11:56:54 GMT-0400 (Eastern Daylight Time),676542.6000000238,A,sa,I,a,125,1,483.60000002384186,676059.0,9002,WL,A,7.0
5,16.75,learn,60000.0,Fri Oct 11 2024 11:56:54 GMT-0400 (Eastern Daylight Time),676842.5,A,sal,I,l,277,1,783.5,676059.0,9002,WL,A,7.0
5,17.23300004005432,learn,60000.0,Fri Oct 11 2024 11:56:54 GMT-0400 (Eastern Daylight Time),677325.8999999762,A,salt,I,t,458,1,1266.8999999761581,676059.0,9002,WL,A,7.0
5,17.65000009536743,learn,60000.0,Fri Oct 11 2024 11:56:54 GMT-0400 (Eastern Daylight Time),677742.1000000238,A,saltenter,I,enter,391,1,1683.1000000238419,676059.0,9002,WL,A,7.0
5,17.933000087738037,learn,60000.0,Fri Oct 11 2024 11:56:54 GMT-0400 (Eastern Daylight Time),678025.8999999762,A,f,I,f,265,1,283.5,677742.3999999762,9002,WL,A,8.0
5,18.049999952316284,learn,60000.0,Fri Oct 11 2024 11:56:54 GMT-0400 (Eastern Daylight Time),678142.7999999523,A,fi,I,i,106,1,400.39999997615814,677742.3999999762,9002,WL,A,8.0
5,18.26699995994568,learn,60000.0,Fri Oct 11 2024 11:56:54 GMT-0400 (Eastern Daylight Time),678359.2999999523,A,fin,I,n,199,1,616.8999999761581,677742.3999999762,9002,WL,A,8.0
5,18.634000062942505,learn,60000.0,Fri Oct 11 2024 11:56:54 GMT-0400 (Eastern Daylight Time),678726.1000000238,A,fing,I,g,349,1,983.7000000476837,677742.3999999762,9002,WL,A,8.0
5,18.90000009536743,learn,60000.0,Fri Oct 11 2024 11:56:54 GMT-0400 (Eastern Daylight Time),678992.5,A,finge,I,e,252,1,1250.1000000238419,677742.3999999762,9002,WL,A,8.0
5,18.967000007629395,learn,60000.0,Fri Oct 11 2024 11:56:54 GMT-0400 (Eastern Daylight Time),679058.8999999762,A,finger,I,r,53,1,1316.5,677742.3999999762,9002,WL,A,8.0
5,20.766000032424927,learn,60000.0,Fri Oct 11 2024 11:56:54 GMT-0400 (Eastern Daylight Time),680858.7000000477,A,fingerenter,I,enter,1777,1,3116.3000000715256,677742.3999999762,9002,WL,A,8.0
5,21.25,learn,60000.0,Fri Oct 11 2024 11:56:54 GMT-0400 (Eastern Daylight Time),681342.3999999762,A,a,I,a,460,1,483.1999999284744,680859.2000000477,9002,WL,A,9.0
5,21.40000009536743,learn,60000.0,Fri Oct 11 2024 11:56:54 GMT-0400 (Eastern Daylight Time),681492.7000000477,A,ap,I,p,134,1,633.5,680859.2000000477,9002,WL,A,9.0
5,21.59999990463257,learn,60000.0,Fri Oct 11 2024 11:56:54 GMT-0400 (Eastern Daylight Time),681692.7000000477,A,app,I,p,176,1,833.5,680859.2000000477,9002,WL,A,9.0
5,22.48300004005432,learn,60000.0,Fri Oct 11 2024 11:56:54 GMT-0400 (Eastern Daylight Time),682575.7999999523,A,appl,I,l,872,1,1716.5999999046326,680859.2000000477,9002,WL,A,9.0
5,23.717000007629395,learn,60000.0,Fri Oct 11 2024 11:56:54 GMT-0400 (Eastern Daylight Time),683809.2000000477,A,apple,I,e,1221,1,2950.0,680859.2000000477,9002,WL,A,9.0
5,24.466000080108643,learn,60000.0,Fri Oct 11 2024 11:56:54 GMT-0400 (Eastern Daylight Time),684558.5,A,appleenter,I,enter,737,1,3699.2999999523163,680859.2000000477,9002,WL,A,9.0
5,24.983999967575073,learn,60000.0,Fri Oct 11 2024 11:56:54 GMT-0400 (Eastern Daylight Time),685076.0,A,c,I,c,505,1,517.2000000476837,684558.7999999523,9002,WL,A,10.0
5,25.25,learn,60000.0,Fri Oct 11 2024 11:56:54 GMT-0400 (Eastern Daylight Time),685342.6000000238,A,ch,I,h,240,1,783.8000000715256,684558.7999999523,9002,WL,A,10.0
5,25.56599998474121,learn,60000.0,Fri Oct 11 2024 11:56:54 GMT-0400 (Eastern Daylight Time),685658.7999999523,A,chi,I,i,293,1,1100.0,684558.7999999523,9002,WL,A,10.0
5,25.651000022888184,learn,60000.0,Fri Oct 11 2024 11:56:54 GMT-0400 (Eastern Daylight Time),685743.0,A,chim,I,m,76,1,1184.2000000476837,684558.7999999523,9002,WL,A,10.0
5,26.134000062942505,learn,60000.0,Fri Oct 11 2024 11:56:54 GMT-0400 (Eastern Daylight Time),686226.0,A,chimn,I,n,463,1,1667.2000000476837,684558.7999999523,9002,WL,A,10.0
5,26.367000102996826,learn,60000.0,Fri Oct 11 2024 11:56:54 GMT-0400 (Eastern Daylight Time),686459.2000000477,A,chimne,I,e,211,1,1900.4000000953674,684558.7999999523,9002,WL,A,10.0
5,26.533999919891357,learn,60000.0,Fri Oct 11 2024 11:56:54 GMT-0400 (Eastern Daylight Time),686626.0,A,chimney,I,y,153,1,2067.2000000476837,684558.7999999523,9002,WL,A,10.0
5,27.08400011062622,learn,60000.0,Fri Oct 11 2024 11:56:54 GMT-0400 (Eastern Daylight Time),687176.1000000238,A,chimneyb,I,b,523,1,2617.3000000715256,684558.7999999523,9002,WL,A,10.0
5,27.566999912261963,learn,60000.0,Fri Oct 11 2024 11:56:54 GMT-0400 (Eastern Daylight Time),687659.2999999523,A,chimney,I,backspace,461,1,3100.5,684558.7999999523,9002,WL,A,10.0
5,28.450000047683716,learn,60000.0,Fri Oct 11 2024 11:56:54 GMT-0400 (Eastern Daylight Time),688542.1000000238,A,chimneyenter,I,enter,873,1,3983.3000000715256,684558.7999999523,9002,WL,A,10.0
5,28.84999990463257,learn,60000.0,Fri Oct 11 2024 11:56:54 GMT-0400 (Eastern Daylight Time),688942.7999999523,A,b,I,b,394,1,400.2999999523163,688542.5,9002,WL,A,11.0
5,28.967000007629395,learn,60000.0,Fri Oct 11 2024 11:56:54 GMT-0400 (Eastern Daylight Time),689059.3999999762,A,bu,I,u,102,1,516.8999999761581,688542.5,9002,WL,A,11.0
5,29.5,learn,60000.0,Fri Oct 11 2024 11:56:54 GMT-0400 (Eastern Daylight Time),689592.5,A,but,I,t,506,1,1050.0,688542.5,9002,WL,A,11.0
5,30.033999919891357,learn,60000.0,Fri Oct 11 2024 11:56:54 GMT-0400 (Eastern Daylight Time),690126.0,A,butt,I,t,508,1,1583.5,688542.5,9002,WL,A,11.0
5,30.48300004005432,learn,60000.0,Fri Oct 11 2024 11:56:54 GMT-0400 (Eastern Daylight Time),690575.7999999523,A,butto,I,o,439,1,2033.2999999523163,688542.5,9002,WL,A,11.0
5,30.75,learn,60000.0,Fri Oct 11 2024 11:56:54 GMT-0400 (Eastern Daylight Time),690842.5,A,button,I,n,244,1,2300.0,688542.5,9002,WL,A,11.0
5,31.91599988937378,learn,60000.0,Fri Oct 11 2024 11:56:54 GMT-0400 (Eastern Daylight Time),692008.6000000238,A,buttonenter,I,enter,1146,1,3466.100000023842,688542.5,9002,WL,A,11.0
5,32.90000009536743,learn,60000.0,Fri Oct 11 2024 11:56:54 GMT-0400 (Eastern Daylight Time),692992.6000000238,A,l,I,l,975,1,983.7000000476837,692008.8999999762,9002,WL,A,12.0
5,33.15000009536743,learn,60000.0,Fri Oct 11 2024 11:56:54 GMT-0400 (Eastern Daylight Time),693242.7000000477,A,lo,I,o,228,1,1233.8000000715256,692008.8999999762,9002,WL,A,12.0
5,33.59999990463257,learn,60000.0,Fri Oct 11 2024 11:56:54 GMT-0400 (Eastern Daylight Time),693692.7999999523,A,log,I,g,425,1,1683.8999999761581,692008.8999999762,9002,WL,A,12.0
5,34.09999990463257,learn,60000.0,Fri Oct 11 2024 11:56:54 GMT-0400 (Eastern Daylight Time),694192.1000000238,A,logenter,I,enter,488,1,2183.2000000476837,692008.8999999762,9002,WL,A,12.0
5,34.51699995994568,learn,60000.0,Fri Oct 11 2024 11:56:54 GMT-0400 (Eastern Daylight Time),694609.2000000477,A,k,I,k,408,1,416.7000000476837,694192.5,9002,WL,A,13.0
5,34.634000062942505,learn,60000.0,Fri Oct 11 2024 11:56:54 GMT-0400 (Eastern Daylight Time),694726.0,A,ke,I,e,99,1,533.5,694192.5,9002,WL,A,13.0
5,35.950000047683716,learn,60000.0,Fri Oct 11 2024 11:56:54 GMT-0400 (Eastern Daylight Time),696042.5,A,key,I,y,1295,1,1850.0,694192.5,9002,WL,A,13.0
5,36.66599988937378,learn,60000.0,Fri Oct 11 2024 11:56:54 GMT-0400 (Eastern Daylight Time),696758.8999999762,A,keyenter,I,enter,697,1,2566.399999976158,694192.5,9002,WL,A,13.0
5,37.467000007629395,learn,60000.0,Fri Oct 11 2024 11:56:54 GMT-0400 (Eastern Daylight Time),697559.2999999523,A,r,I,r,784,1,800.0999999046326,696759.2000000477,9002,WL,A,14.0
5,37.717000007629395,learn,60000.0,Fri Oct 11 2024 11:56:54 GMT-0400 (Eastern Daylight Time),697809.2000000477,A,ra,I,a,237,1,1050.0,696759.2000000477,9002,WL,A,14.0
5,38.049999952316284,learn,60000.0,Fri Oct 11 2024 11:56:54 GMT-0400 (Eastern Daylight Time),698142.7000000477,A,rat,I,t,324,1,1383.5,696759.2000000477,9002,WL,A,14.0
5,38.200000047683716,learn,60000.0,Fri Oct 11 2024 11:56:54 GMT-0400 (Eastern Daylight Time),698292.5,A,ratt,I,t,133,1,1533.2999999523163,696759.2000000477,9002,WL,A,14.0
5,38.467000007629395,learn,60000.0,Fri Oct 11 2024 11:56:54 GMT-0400 (Eastern Daylight Time),698559.0,A,rattl,I,l,249,1,1799.7999999523163,696759.2000000477,9002,WL,A,14.0
5,38.65000009536743,learn,60000.0,Fri Oct 11 2024 11:56:54 GMT-0400 (Eastern Daylight Time),698742.2000000477,A,rattle,I,e,167,1,1983.0,696759.2000000477,9002,WL,A,14.0
5,39.16599988937378,learn,60000.0,Fri Oct 11 2024 11:56:54 GMT-0400 (Eastern Daylight Time),699258.7999999523,A,rattleenter,I,enter,495,1,2499.5999999046326,696759.2000000477,9002,WL,A,14.0
5,39.549999952316284,learn,60000.0,Fri Oct 11 2024 11:56:54 GMT-0400 (Eastern Daylight Time),699642.5,A,g,I,g,365,1,383.39999997615814,699259.1000000238,9002,WL,A,15.0
5,39.66700005531311,learn,60000.0,Fri Oct 11 2024 11:56:54 GMT-0400 (Eastern Daylight Time),699759.2999999523,A,go,I,o,90,1,500.1999999284744,699259.1000000238,9002,WL,A,15.0
5,39.81699991226196,learn,60000.0,Fri Oct 11 2024 11:56:54 GMT-0400 (Eastern Daylight Time),699909.3999999762,A,goa,I,a,126,1,650.2999999523163,699259.1000000238,9002,WL,A,15.0
5,40.06699991226196,learn,60000.0,Fri Oct 11 2024 11:56:54 GMT-0400 (Eastern Daylight Time),700158.8999999762,A,goal,I,l,239,1,899.7999999523163,699259.1000000238,9002,WL,A,15.0
5,40.56699991226196,learn,60000.0,Fri Oct 11 2024 11:56:54 GMT-0400 (Eastern Daylight Time),700659.2000000477,A,goa,I,backspace,485,1,1400.1000000238419,699259.1000000238,9002,WL,A,15.0
5,40.782999992370605,learn,60000.0,Fri Oct 11 2024 11:56:54 GMT-0400 (Eastern Daylight Time),700875.8999999762,A,goal,I,l,193,1,1616.7999999523163,699259.1000000238,9002,WL,A,15.0
5,40.950000047683716,learn,60000.0,Fri Oct 11 2024 11:56:54 GMT-0400 (Eastern Daylight Time),701042.5,A,goald,I,d,153,1,1783.3999999761581,699259.1000000238,9002,WL,A,15.0
5,41.33400011062622,learn,60000.0,Fri Oct 11 2024 11:56:54 GMT-0400 (Eastern Daylight Time),701426.0,A,goal,I,backspace,370,1,2166.899999976158,699259.1000000238,9002,WL,A,15.0
5,41.48399996757507,learn,60000.0,Fri Oct 11 2024 11:56:54 GMT-0400 (Eastern Daylight Time),701576.0,A,goa,I,backspace,131,1,2316.899999976158,699259.1000000238,9002,WL,A,15.0
5,41.632999897003174,learn,60000.0,Fri Oct 11 2024 11:56:54 GMT-0400 (Eastern Daylight Time),701725.7999999523,A,go,I,backspace,121,1,2466.6999999284744,699259.1000000238,9002,WL,A,15.0
5,41.884000062942505,learn,60000.0,Fri Oct 11 2024 11:56:54 GMT-0400 (Eastern Daylight Time),701975.8999999762,A,gol,I,l,230,1,2716.7999999523163,699259.1000000238,9002,WL,A,15.0
5,42.25,learn,60000.0,Fri Oct 11 2024 11:56:54 GMT-0400 (Eastern Daylight Time),702342.6000000238,A,gold,I,d,348,1,3083.5,699259.1000000238,9002,WL,A,15.0
5,42.43300008773804,learn,60000.0,Fri Oct 11 2024 11:56:54 GMT-0400 (Eastern Daylight Time),702525.2999999523,A,goldenter,I,enter,156,1,3266.1999999284744,699259.1000000238,9002,WL,A,15.0
6,0.9830000400543213,distr,59016.99995994568,Fri Oct 11 2024 11:56:54 GMT-0400 (Eastern Daylight Time),777009.7999999523,B,b,I,b,971,1,983.3999999761581,776026.3999999762,9002,WL,A,1.0
6,1.1329998970031738,distr,58867.000102996826,Fri Oct 11 2024 11:56:54 GMT-0400 (Eastern Daylight Time),777159.6000000238,B,bo,I,o,132,1,1133.2000000476837,776026.3999999762,9002,WL,A,1.0
6,1.2660000324249268,distr,58733.99996757507,Fri Oct 11 2024 11:56:54 GMT-0400 (Eastern Daylight Time),777292.6000000238,B,bow,I,w,108,1,1266.2000000476837,776026.3999999762,9002,WL,A,1.0
6,1.4500000476837158,distr,58549.999952316284,Fri Oct 11 2024 11:56:54 GMT-0400 (Eastern Daylight Time),777476.1000000238,B,bowl,I,l,168,1,1449.7000000476837,776026.3999999762,9002,WL,A,1.0
6,3.0989999771118164,distr,56901.00002288818,Fri Oct 11 2024 11:56:54 GMT-0400 (Eastern Daylight Time),779125.6000000238,B,bowlenter,I,enter,1632,1,3099.2000000476837,776026.3999999762,9002,WL,A,1.0
6,3.9660000801086426,distr,56033.99991989136,Fri Oct 11 2024 11:56:54 GMT-0400 (Eastern Daylight Time),779992.7000000477,B,d,I,d,851,1,866.7000000476837,779126.0,9002,WL,A,2.0
6,4.115999937057495,distr,55884.000062942505,Fri Oct 11 2024 11:56:54 GMT-0400 (Eastern Daylight Time),780142.6000000238,B,da,I,a,125,1,1016.6000000238419,779126.0,9002,WL,A,2.0
6,4.516000032424927,distr,55483.99996757507,Fri Oct 11 2024 11:56:54 GMT-0400 (Eastern Daylight Time),780542.7000000477,B,daw,I,w,367,1,1416.7000000476837,779126.0,9002,WL,A,2.0
6,4.915999889373779,distr,55084.00011062622,Fri Oct 11 2024 11:56:54 GMT-0400 (Eastern Daylight Time),780942.6000000238,B,dawn,I,n,372,1,1816.6000000238419,779126.0,9002,WL,A,2.0
6,5.516000032424927,distr,54483.99996757507,Fri Oct 11 2024 11:56:54 GMT-0400 (Eastern Daylight Time),781542.2999999523,B,dawnenter,I,enter,582,1,2416.2999999523163,779126.0,9002,WL,A,2.0
6,6.115999937057495,distr,53884.000062942505,Fri Oct 11 2024 11:56:54 GMT-0400 (Eastern Daylight Time),782142.8999999762,B,n,I,n,594,1,600.3999999761581,781542.5,9002,WL,A,3.0
6,6.549999952316284,distr,53450.000047683716,Fri Oct 11 2024 11:56:54 GMT-0400 (Eastern Daylight Time),782576.0,B,,I,backspace,422,1,1033.5,781542.5,9002,WL,A,3.0
6,7.115999937057495,distr,52884.000062942505,Fri Oct 11 2024 11:56:54 GMT-0400 (Eastern Daylight Time),783142.6000000238,B,j,I,j,550,1,1600.1000000238419,781542.5,9002,WL,A,3.0
6,7.415999889373779,distr,52584.00011062622,Fri Oct 11 2024 11:56:54 GMT-0400 (Eastern Daylight Time),783442.6000000238,B,ju,I,u,287,1,1900.1000000238419,781542.5,9002,WL,A,3.0
6,7.7829999923706055,distr,52217.000007629395,Fri Oct 11 2024 11:56:54 GMT-0400 (Eastern Daylight Time),783809.2999999523,B,jud,I,d,354,1,2266.7999999523163,781542.5,9002,WL,A,3.0
6,7.950000047683716,distr,52049.999952316284,Fri Oct 11 2024 11:56:54 GMT-0400 (Eastern Daylight Time),783976.0,B,jude,I,e,148,1,2433.5,781542.5,9002,WL,A,3.0
6,8.282999992370605,distr,51717.000007629395,Fri Oct 11 2024 11:56:54 GMT-0400 (Eastern Daylight Time),784309.5,B,jud,I,backspace,317,1,2767.0,781542.5,9002,WL,A,3.0
6,8.532999992370605,distr,51467.000007629395,Fri Oct 11 2024 11:56:54 GMT-0400 (Eastern Daylight Time),784559.2000000477,B,judg,I,g,224,1,3016.7000000476837,781542.5,9002,WL,A,3.0
6,8.66599988937378,distr,51334.00011062622,Fri Oct 11 2024 11:56:54 GMT-0400 (Eastern Daylight Time),784692.7000000477,B,judge,I,e,117,1,3150.2000000476837,781542.5,9002,WL,A,3.0
6,9.216000080108643,distr,50783.99991989136,Fri Oct 11 2024 11:56:54 GMT-0400 (Eastern Daylight Time),785242.1000000238,B,judgeenter,I,enter,528,1,3699.600000023842,781542.5,9002,WL,A,3.0
6,9.549999952316284,distr,50450.000047683716,Fri Oct 11 2024 11:56:54 GMT-0400 (Eastern Daylight Time),785576.0,B,i,I,i,318,1,333.60000002384186,785242.3999999762,9002,WL,A,4.0
6,9.700000047683716,distr,50299.999952316284,Fri Oct 11 2024 11:56:54 GMT-0400 (Eastern Daylight Time),785726.0,B,in,I,n,125,1,483.60000002384186,785242.3999999762,9002,WL,A,4.0
6,9.950000047683716,distr,50049.999952316284,Fri Oct 11 2024 11:56:54 GMT-0400 (Eastern Daylight Time),785976.1000000238,B,ind,I,d,224,1,733.7000000476837,785242.3999999762,9002,WL,A,4.0
6,10.315999984741211,distr,49684.00001525879,Fri Oct 11 2024 11:56:54 GMT-0400 (Eastern Daylight Time),786342.5,B,in,I,backspace,342,1,1100.1000000238419,785242.3999999762,9002,WL,A,4.0
6,10.400000095367432,distr,49599.99990463257,Fri Oct 11 2024 11:56:54 GMT-0400 (Eastern Daylight Time),786426.0,B,ins,I,s,63,1,1183.6000000238419,785242.3999999762,9002,WL,A,4.0
6,11.115999937057495,distr,48884.000062942505,Fri Oct 11 2024 11:56:54 GMT-0400 (Eastern Daylight Time),787142.8999999762,B,inse,I,e,698,1,1900.5,785242.3999999762,9002,WL,A,4.0
6,11.315999984741211,distr,48684.00001525879,Fri Oct 11 2024 11:56:54 GMT-0400 (Eastern Daylight Time),787342.7999999523,B,insec,I,c,190,1,2100.399999976158,785242.3999999762,9002,WL,A,4.0
6,11.565999984741211,distr,48434.00001525879,Fri Oct 11 2024 11:56:54 GMT-0400 (Eastern Daylight Time),787592.8999999762,B,insect,I,t,222,1,2350.5,785242.3999999762,9002,WL,A,4.0
6,12.049000024795532,distr,47950.99997520447,Fri Oct 11 2024 11:56:54 GMT-0400 (Eastern Daylight Time),788075.6000000238,B,insectenter,I,enter,460,1,2833.2000000476837,785242.3999999762,9002,WL,A,4.0
6,12.516000032424927,distr,47483.99996757507,Fri Oct 11 2024 11:56:54 GMT-0400 (Eastern Daylight Time),788542.8999999762,B,g,I,g,460,1,467.0,788075.8999999762,9002,WL,A,5.0
6,12.700000047683716,distr,47299.999952316284,Fri Oct 11 2024 11:56:54 GMT-0400 (Eastern Daylight Time),788726.1000000238,B,gr,I,r,168,1,650.2000000476837,788075.8999999762,9002,WL,A,5.0
6,12.815999984741211,distr,47184.00001525879,Fri Oct 11 2024 11:56:54 GMT-0400 (Eastern Daylight Time),788842.7000000477,B,gra,I,a,87,1,766.8000000715256,788075.8999999762,9002,WL,A,5.0
6,13.0,distr,47000.0,Fri Oct 11 2024 11:56:54 GMT-0400 (Eastern Daylight Time),789026.1000000238,B,gran,I,n,171,1,950.2000000476837,788075.8999999762,9002,WL,A,5.0
6,14.0,distr,46000.0,Fri Oct 11 2024 11:56:54 GMT-0400 (Eastern Daylight Time),790026.1000000238,B,grant,I,t,980,1,1950.2000000476837,788075.8999999762,9002,WL,A,5.0
6,16.448999881744385,distr,43551.000118255615,Fri Oct 11 2024 11:56:54 GMT-0400 (Eastern Daylight Time),792475.6000000238,B,grantenter,I,enter,2424,1,4399.700000047684,788075.8999999762,9002,WL,A,5.0
6,17.81599998474121,distr,42184.00001525879,Fri Oct 11 2024 11:56:54 GMT-0400 (Eastern Daylight Time),793842.7000000477,B,o,I,o,1357,1,1366.7000000476837,792476.0,9002,WL,A,6.0
6,18.183000087738037,distr,41816.99991226196,Fri Oct 11 2024 11:56:54 GMT-0400 (Eastern Daylight Time),794209.3999999762,B,,I,backspace,355,1,1733.3999999761581,792476.0,9002,WL,A,6.0
6,19.032999992370605,distr,40967.000007629395,Fri Oct 11 2024 11:56:54 GMT-0400 (Eastern Daylight Time),795059.2999999523,B,p,I,p,836,1,2583.2999999523163,792476.0,9002,WL,A,6.0
6,19.23300004005432,distr,40766.99995994568,Fri Oct 11 2024 11:56:54 GMT-0400 (Eastern Daylight Time),795259.2999999523,B,pl,I,l,178,1,2783.2999999523163,792476.0,9002,WL,A,6.0
6,19.40000009536743,distr,40599.99990463257,Fri Oct 11 2024 11:56:54 GMT-0400 (Eastern Daylight Time),795426.1000000238,B,pla,I,a,154,1,2950.100000023842,792476.0,9002,WL,A,6.0
6,20.016000032424927,distr,39983.99996757507,Fri Oct 11 2024 11:56:54 GMT-0400 (Eastern Daylight Time),796042.7000000477,B,plan,I,n,588,1,3566.7000000476837,792476.0,9002,WL,A,6.0
6,20.433000087738037,distr,39566.99991226196,Fri Oct 11 2024 11:56:54 GMT-0400 (Eastern Daylight Time),796459.2999999523,B,plane,I,e,391,1,3983.2999999523163,792476.0,9002,WL,A,6.0
6,20.91599988937378,distr,39084.00011062622,Fri Oct 11 2024 11:56:54 GMT-0400 (Eastern Daylight Time),796942.2000000477,B,planeenter,I,enter,474,1,4466.200000047684,792476.0,9002,WL,A,6.0
6,21.40000009536743,distr,38599.99990463257,Fri Oct 11 2024 11:56:54 GMT-0400 (Eastern Daylight Time),797426.2000000477,B,c,I,c,474,1,483.7000000476837,796942.5,9002,WL,A,7.0
6,21.516000032424927,distr,38483.99996757507,Fri Oct 11 2024 11:56:54 GMT-0400 (Eastern Daylight Time),797542.7000000477,B,co,I,o,97,1,600.2000000476837,796942.5,9002,WL,A,7.0
6,21.615999937057495,distr,38384.000062942505,Fri Oct 11 2024 11:56:54 GMT-0400 (Eastern Daylight Time),797642.8999999762,B,cou,I,u,71,1,700.3999999761581,796942.5,9002,WL,A,7.0
6,21.865999937057495,distr,38134.000062942505,Fri Oct 11 2024 11:56:54 GMT-0400 (Eastern Daylight Time),797892.7000000477,B,coun,I,n,228,1,950.2000000476837,796942.5,9002,WL,A,7.0
6,22.23300004005432,distr,37766.99995994568,Fri Oct 11 2024 11:56:54 GMT-0400 (Eastern Daylight Time),798259.5,B,count,I,t,351,1,1317.0,796942.5,9002,WL,A,7.0
6,22.466000080108643,distr,37533.99991989136,Fri Oct 11 2024 11:56:54 GMT-0400 (Eastern Daylight Time),798492.7999999523,B,county,I,y,210,1,1550.2999999523163,796942.5,9002,WL,A,7.0
6,23.132999897003174,distr,36867.000102996826,Fri Oct 11 2024 11:56:54 GMT-0400 (Eastern Daylight Time),799159.0,B,countyenter,I,enter,641,1,2216.5,796942.5,9002,WL,A,7.0
6,23.532999992370605,distr,36467.000007629395,Fri Oct 11 2024 11:56:54 GMT-0400 (Eastern Daylight Time),799559.3999999762,B,b,I,b,384,1,400.1999999284744,799159.2000000477,9002,WL,A,8.0
6,23.66599988937378,distr,36334.00011062622,Fri Oct 11 2024 11:56:54 GMT-0400 (Eastern Daylight Time),799692.7000000477,B,bo,I,o,109,1,533.5,799159.2000000477,9002,WL,A,8.0
6,23.950000047683716,distr,36049.999952316284,Fri Oct 11 2024 11:56:54 GMT-0400 (Eastern Daylight Time),799976.0,B,bol,I,l,265,1,816.7999999523163,799159.2000000477,9002,WL,A,8.0
6,24.31599998474121,distr,35684.00001525879,Fri Oct 11 2024 11:56:54 GMT-0400 (Eastern Daylight Time),800342.6000000238,B,bo,I,backspace,349,1,1183.3999999761581,799159.2000000477,9002,WL,A,8.0
6,24.5,distr,35500.0,Fri Oct 11 2024 11:56:54 GMT-0400 (Eastern Daylight Time),800526.2000000477,B,bot,I,t,157,1,1367.0,799159.2000000477,9002,WL,A,8.0
6,24.632999897003174,distr,35367.000102996826,Fri Oct 11 2024 11:56:54 GMT-0400 (Eastern Daylight Time),800659.7000000477,B,botl,I,l,111,1,1500.5,799159.2000000477,9002,WL,A,8.0
6,25.115999937057495,distr,34884.000062942505,Fri Oct 11 2024 11:56:54 GMT-0400 (Eastern Daylight Time),801142.5,B,bot,I,backspace,458,1,1983.2999999523163,799159.2000000477,9002,WL,A,8.0
6,25.25,distr,34750.0,Fri Oct 11 2024 11:56:54 GMT-0400 (Eastern Daylight Time),801276.1000000238,B,bott,I,t,110,1,2116.899999976158,799159.2000000477,9002,WL,A,8.0
6,25.348999977111816,distr,34651.00002288818,Fri Oct 11 2024 11:56:54 GMT-0400 (Eastern Daylight Time),801375.7999999523,B,bottl,I,l,83,1,2216.5999999046326,799159.2000000477,9002,WL,A,8.0
6,25.549999952316284,distr,34450.000047683716,Fri Oct 11 2024 11:56:54 GMT-0400 (Eastern Daylight Time),801576.0,B,bottle,I,e,181,1,2416.7999999523163,799159.2000000477,9002,WL,A,8.0
6,26.56599998474121,distr,33434.00001525879,Fri Oct 11 2024 11:56:54 GMT-0400 (Eastern Daylight Time),802592.2999999523,B,bottleenter,I,enter,997,1,3433.0999999046326,799159.2000000477,9002,WL,A,8.0
6,29.25,distr,30750.0,Fri Oct 11 2024 11:56:54 GMT-0400 (Eastern Daylight Time),805275.8999999762,B,c,I,c,2664,1,2683.100000023842,802592.7999999523,9002,WL,A,9.0
6,29.382999897003174,distr,30617.000102996826,Fri Oct 11 2024 11:56:54 GMT-0400 (Eastern Daylight Time),805409.2999999523,B,ca,I,a,121,1,2816.5,802592.7999999523,9002,WL,A,9.0
6,29.865999937057495,distr,30134.000062942505,Fri Oct 11 2024 11:56:54 GMT-0400 (Eastern Daylight Time),805892.7999999523,B,c,I,backspace,469,1,3300.0,802592.7999999523,9002,WL,A,9.0
6,30.08299994468689,distr,29917.00005531311,Fri Oct 11 2024 11:56:54 GMT-0400 (Eastern Daylight Time),806109.2000000477,B,ch,I,h,192,1,3516.4000000953674,802592.7999999523,9002,WL,A,9.0
6,30.716000080108643,distr,29283.999919891357,Fri Oct 11 2024 11:56:54 GMT-0400 (Eastern Daylight Time),806742.7999999523,B,cha,I,a,616,1,4150.0,802592.7999999523,9002,WL,A,9.0
6,30.882999897003174,distr,29117.000102996826,Fri Oct 11 2024 11:56:54 GMT-0400 (Eastern Daylight Time),806909.2000000477,B,chai,I,i,142,1,4316.400000095367,802592.7999999523,9002,WL,A,9.0
6,31.0,distr,29000.0,Fri Oct 11 2024 11:56:54 GMT-0400 (Eastern Daylight Time),807026.0,B,chair,I,r,104,1,4433.200000047684,802592.7999999523,9002,WL,A,9.0
6,32.01600003242493,distr,27983.999967575073,Fri Oct 11 2024 11:56:54 GMT-0400 (Eastern Daylight Time),808042.2000000477,B,chairenter,I,enter,995,1,5449.400000095367,802592.7999999523,9002,WL,A,9.0
6,33.18300008773804,distr,26816.999912261963,Fri Oct 11 2024 11:56:54 GMT-0400 (Eastern Daylight Time),809209.2000000477,B,c,I,c,1150,1,1166.6000000238419,808042.6000000238,9002,WL,A,10.0
6,33.41599988937378,distr,26584.00011062622,Fri Oct 11 2024 11:56:54 GMT-0400 (Eastern Daylight Time),809442.7999999523,B,ca,I,a,221,1,1400.1999999284744,808042.6000000238,9002,WL,A,10.0
6,33.66599988937378,distr,26334.00011062622,Fri Oct 11 2024 11:56:54 GMT-0400 (Eastern Daylight Time),809692.7000000477,B,cao,I,o,225,1,1650.1000000238419,808042.6000000238,9002,WL,A,10.0
6,34.06599998474121,distr,25934.00001525879,Fri Oct 11 2024 11:56:54 GMT-0400 (Eastern Daylight Time),810092.7999999523,B,ca,I,backspace,377,1,2050.1999999284744,808042.6000000238,9002,WL,A,10.0
6,34.1489999294281,distr,25851.0000705719,Fri Oct 11 2024 11:56:54 GMT-0400 (Eastern Daylight Time),810175.6000000238,B,c,I,backspace,63,1,2133.0,808042.6000000238,9002,WL,A,10.0
6,34.41599988937378,distr,25584.00011062622,Fri Oct 11 2024 11:56:54 GMT-0400 (Eastern Daylight Time),810442.7000000477,B,co,I,o,247,1,2400.100000023842,808042.6000000238,9002,WL,A,10.0
6,34.549999952316284,distr,25450.000047683716,Fri Oct 11 2024 11:56:54 GMT-0400 (Eastern Daylight Time),810576.2999999523,B,coa,I,a,121,1,2533.6999999284744,808042.6000000238,9002,WL,A,10.0
6,35.76600003242493,distr,24233.999967575073,Fri Oct 11 2024 11:56:54 GMT-0400 (Eastern Daylight Time),811792.7000000477,B,coat,I,t,1204,1,3750.100000023842,808042.6000000238,9002,WL,A,10.0
6,37.01600003242493,distr,22983.999967575073,Fri Oct 11 2024 11:56:54 GMT-0400 (Eastern Daylight Time),813042.2999999523,B,coatenter,I,enter,1235,1,4999.699999928474,808042.6000000238,9002,WL,A,10.0
6,43.74900007247925,distr,16250.999927520752,Fri Oct 11 2024 11:56:54 GMT-0400 (Eastern Daylight Time),819775.7000000477,B,enter,I,enter,6725,1,6733.0,813042.7000000477,9002,WL,A,11.0
6,60.01699995994568,distr,-16.99995994567871,Fri Oct 11 2024 11:56:54 GMT-0400 (Eastern Daylight Time),836043.0,B,None,I,None,16260,1,16266.799999952316,819776.2000000477,9002,WL,A,12.0
7,1.5829999446868896,immed,58417.00005531311,Fri Oct 11 2024 11:56:54 GMT-0400 (Eastern Daylight Time),852476.1000000238,A,t,I,t,1558,1,1583.0,850893.1000000238,9002,WL,A,1.0
7,1.7170000076293945,immed,58282.999992370605,Fri Oct 11 2024 11:56:54 GMT-0400 (Eastern Daylight Time),852609.5,A,tr,I,r,121,1,1716.3999999761581,850893.1000000238,9002,WL,A,1.0
7,1.8670001029968262,immed,58132.999897003174,Fri Oct 11 2024 11:56:54 GMT-0400 (Eastern Daylight Time),852759.3999999762,A,tra,I,a,133,1,1866.2999999523163,850893.1000000238,9002,WL,A,1.0
7,2.384000062942505,immed,57615.999937057495,Fri Oct 11 2024 11:56:54 GMT-0400 (Eastern Daylight Time),853276.1000000238,A,trai,I,i,493,1,2383.0,850893.1000000238,9002,WL,A,1.0
7,2.634000062942505,immed,57365.999937057495,Fri Oct 11 2024 11:56:54 GMT-0400 (Eastern Daylight Time),853526.2000000477,A,train,I,n,230,1,2633.100000023842,850893.1000000238,9002,WL,A,1.0
7,3.7330000400543213,immed,56266.99995994568,Fri Oct 11 2024 11:56:54 GMT-0400 (Eastern Daylight Time),854625.6000000238,A,trainenter,I,enter,1079,1,3732.5,850893.1000000238,9002,WL,A,1.0
7,4.08299994468689,immed,55917.00005531311,Fri Oct 11 2024 11:56:54 GMT-0400 (Eastern Daylight Time),854976.0,A,f,I,f,343,1,350.0,854626.0,9002,WL,A,2.0
7,4.16700005531311,immed,55832.99994468689,Fri Oct 11 2024 11:56:54 GMT-0400 (Eastern Daylight Time),855059.5,A,fl,I,l,67,1,433.5,854626.0,9002,WL,A,2.0
7,4.367000102996826,immed,55632.999897003174,Fri Oct 11 2024 11:56:54 GMT-0400 (Eastern Daylight Time),855259.3999999762,A,flo,I,o,173,1,633.3999999761581,854626.0,9002,WL,A,2.0
7,4.4670000076293945,immed,55532.999992370605,Fri Oct 11 2024 11:56:54 GMT-0400 (Eastern Daylight Time),855360.0,A,flow,I,w,82,1,734.0,854626.0,9002,WL,A,2.0
7,4.7829999923706055,immed,55217.000007629395,Fri Oct 11 2024 11:56:54 GMT-0400 (Eastern Daylight Time),855676.1000000238,A,flowe,I,e,295,1,1050.1000000238419,854626.0,9002,WL,A,2.0
7,4.867000102996826,immed,55132.999897003174,Fri Oct 11 2024 11:56:54 GMT-0400 (Eastern Daylight Time),855759.2999999523,A,flower,I,r,57,1,1133.2999999523163,854626.0,9002,WL,A,2.0
7,5.299999952316284,immed,54700.000047683716,Fri Oct 11 2024 11:56:54 GMT-0400 (Eastern Daylight Time),856192.2999999523,A,flowerenter,I,enter,422,1,1566.2999999523163,854626.0,9002,WL,A,2.0
7,5.6000001430511475,immed,54399.99985694885,Fri Oct 11 2024 11:56:54 GMT-0400 (Eastern Daylight Time),856492.7999999523,A,b,I,b,279,1,300.1999999284744,856192.6000000238,9002,WL,A,3.0
7,5.683000087738037,immed,54316.99991226196,Fri Oct 11 2024 11:56:54 GMT-0400 (Eastern Daylight Time),856575.7999999523,A,bo,I,o,72,1,383.1999999284744,856192.6000000238,9002,WL,A,3.0
7,5.834000110626221,immed,54165.99988937378,Fri Oct 11 2024 11:56:54 GMT-0400 (Eastern Daylight Time),856726.2999999523,A,boo,I,o,129,1,533.6999999284744,856192.6000000238,9002,WL,A,3.0
7,6.049999952316284,immed,53950.000047683716,Fri Oct 11 2024 11:56:54 GMT-0400 (Eastern Daylight Time),856942.7999999523,A,book,I,k,199,1,750.1999999284744,856192.6000000238,9002,WL,A,3.0
7,6.716000080108643,immed,53283.99991989136,Fri Oct 11 2024 11:56:54 GMT-0400 (Eastern Daylight Time),857608.8999999762,A,bookenter,I,enter,644,1,1416.2999999523163,856192.6000000238,9002,WL,A,3.0
7,7.0,immed,53000.0,Fri Oct 11 2024 11:56:54 GMT-0400 (Eastern Daylight Time),857892.7000000477,A,m,I,m,272,1,283.40000009536743,857609.2999999523,9002,WL,A,4.0
7,7.200000047683716,immed,52799.999952316284,Fri Oct 11 2024 11:56:54 GMT-0400 (Eastern Daylight Time),858092.8999999762,A,me,I,e,176,1,483.60000002384186,857609.2999999523,9002,WL,A,4.0
7,7.299999952316284,immed,52700.000047683716,Fri Oct 11 2024 11:56:54 GMT-0400 (Eastern Daylight Time),858192.7999999523,A,mea,I,a,89,1,583.5,857609.2999999523,9002,WL,A,4.0
7,7.91700005531311,immed,52082.99994468689,Fri Oct 11 2024 11:56:54 GMT-0400 (Eastern Daylight Time),858809.2999999523,A,mead,I,d,597,1,1200.0,857609.2999999523,9002,WL,A,4.0
7,8.067000150680542,immed,51932.99984931946,Fri Oct 11 2024 11:56:54 GMT-0400 (Eastern Daylight Time),858959.1000000238,A,meado,I,o,140,1,1349.8000000715256,857609.2999999523,9002,WL,A,4.0
7,8.733999967575073,immed,51266.00003242493,Fri Oct 11 2024 11:56:54 GMT-0400 (Eastern Daylight Time),859626.1000000238,A,meadow,I,w,637,1,2016.8000000715256,857609.2999999523,9002,WL,A,4.0
7,9.166000127792358,immed,50833.99987220764,Fri Oct 11 2024 11:56:54 GMT-0400 (Eastern Daylight Time),860058.7999999523,A,meadowenter,I,enter,411,1,2449.5,857609.2999999523,9002,WL,A,4.0
