block_c,block_dur,condition,countdown,datetime,endtime,list,multichar_response,project,response,response_time,session_number,start_end,starttime,subject_id,task,task_vers,trial
,,,,Wed Feb 26 2025 11:26:39 GMT-0600 (Central Standard Time),,,,O,space,1835,1,,,7068,WL,B,
prac,,0,,Wed Feb 26 2025 11:26:39 GMT-0600 (Central Standard Time),,NA,b,O,b,4528,1,,,7068,WL,B,1.0
prac,,0,,Wed Feb 26 2025 11:26:39 GMT-0600 (Central Standard Time),,NA,bo,O,o,421,1,,,7068,WL,B,1.0
prac,,0,,Wed Feb 26 2025 11:26:39 GMT-0600 (Central Standard Time),,NA,boo,O,o,141,1,,,7068,WL,B,1.0
prac,,0,,Wed Feb 26 2025 11:26:39 GMT-0600 (Central Standard Time),,NA,boos,O,s,759,1,,,7068,WL,B,1.0
prac,,0,,Wed Feb 26 2025 11:26:39 GMT-0600 (Central Standard Time),,NA,boost,O,t,330,1,,,7068,WL,B,1.0
prac,,0,,Wed Feb 26 2025 11:26:39 GMT-0600 (Central Standard Time),,NA,boostenter,O,enter,1411,1,,,7068,WL,B,1.0
1,1.5829999446868896,learn,58417.00005531311,Wed Feb 26 2025 11:26:39 GMT-0600 (Central Standard Time),182776.09999999404,A,s,O,s,1572,1,1582.5999999940395,181193.5,7068,WL,B,1.0
1,2.0159997940063477,learn,57984.00020599365,Wed Feb 26 2025 11:26:39 GMT-0600 (Central Standard Time),183209.29999998212,A,st,O,t,413,1,2015.7999999821186,181193.5,7068,WL,B,1.0
1,2.2829999923706055,learn,57717.000007629395,Wed Feb 26 2025 11:26:39 GMT-0600 (Central Standard Time),183475.90000000596,A,str,O,r,245,1,2282.4000000059605,181193.5,7068,WL,B,1.0
1,2.432999849319458,learn,57567.00015068054,Wed Feb 26 2025 11:26:39 GMT-0600 (Central Standard Time),183625.90000000596,A,strr,O,r,136,1,2432.4000000059605,181193.5,7068,WL,B,1.0
1,2.6659998893737793,learn,57334.00011062622,Wed Feb 26 2025 11:26:39 GMT-0600 (Central Standard Time),183858.90000000596,A,strre,O,e,220,1,2665.4000000059605,181193.5,7068,WL,B,1.0
1,2.982999801635742,learn,57017.00019836426,Wed Feb 26 2025 11:26:39 GMT-0600 (Central Standard Time),184175.40000000596,A,strret,O,t,308,1,2981.9000000059605,181193.5,7068,WL,B,1.0
1,5.948999881744385,learn,54051.000118255615,Wed Feb 26 2025 11:26:39 GMT-0600 (Central Standard Time),187141.19999998808,A,strre,O,backspace,2958,1,5947.699999988079,181193.5,7068,WL,B,1.0
1,6.197999954223633,learn,53802.00004577637,Wed Feb 26 2025 11:26:39 GMT-0600 (Central Standard Time),187391.19999998808,A,strr,O,backspace,240,1,6197.699999988079,181193.5,7068,WL,B,1.0
1,6.832000017166138,learn,53167.99998283386,Wed Feb 26 2025 11:26:39 GMT-0600 (Central Standard Time),188024.29999998212,A,str,O,backspace,614,1,6830.799999982119,181193.5,7068,WL,B,1.0
1,7.730999946594238,learn,52269.00005340576,Wed Feb 26 2025 11:26:39 GMT-0600 (Central Standard Time),188923.90000000596,A,stre,O,e,893,1,7730.4000000059605,181193.5,7068,WL,B,1.0
1,7.880999803543091,learn,52119.00019645691,Wed Feb 26 2025 11:26:39 GMT-0600 (Central Standard Time),189074.19999998808,A,stree,O,e,137,1,7880.699999988079,181193.5,7068,WL,B,1.0
1,8.13099980354309,learn,51869.00019645691,Wed Feb 26 2025 11:26:39 GMT-0600 (Central Standard Time),189324.09999999404,A,street,O,t,228,1,8130.5999999940395,181193.5,7068,WL,B,1.0
1,8.980999946594238,learn,51019.00005340576,Wed Feb 26 2025 11:26:39 GMT-0600 (Central Standard Time),190173.69999998808,A,streetenter,O,enter,835,1,8980.199999988079,181193.5,7068,WL,B,1.0
1,10.646999835968018,learn,49353.00016403198,Wed Feb 26 2025 11:26:39 GMT-0600 (Central Standard Time),191839.79999998212,A,w,O,w,1656,1,1665.699999988079,190174.09999999404,7068,WL,B,2.0
1,10.929999828338623,learn,49070.00017166138,Wed Feb 26 2025 11:26:39 GMT-0600 (Central Standard Time),192123.0,A,wi,O,i,271,1,1948.9000000059605,190174.09999999404,7068,WL,B,2.0
1,11.179999828338623,learn,48820.00017166138,Wed Feb 26 2025 11:26:39 GMT-0600 (Central Standard Time),192372.69999998808,A,win,O,n,244,1,2198.5999999940395,190174.09999999404,7068,WL,B,2.0
1,11.446999788284302,learn,48553.0002117157,Wed Feb 26 2025 11:26:39 GMT-0600 (Central Standard Time),192639.69999998808,A,wind,O,d,257,1,2465.5999999940395,190174.09999999404,7068,WL,B,2.0
1,11.596999883651733,learn,48403.00011634827,Wed Feb 26 2025 11:26:39 GMT-0600 (Central Standard Time),192789.5,A,windo,O,o,134,1,2615.4000000059605,190174.09999999404,7068,WL,B,2.0
1,11.79699993133545,learn,48203.00006866455,Wed Feb 26 2025 11:26:39 GMT-0600 (Central Standard Time),192989.40000000596,A,window,O,w,185,1,2815.300000011921,190174.09999999404,7068,WL,B,2.0
1,12.44599986076355,learn,47554.00013923645,Wed Feb 26 2025 11:26:39 GMT-0600 (Central Standard Time),193639.09999999404,A,windowenter,O,enter,632,1,3465.0,190174.09999999404,7068,WL,B,2.0
1,13.328999996185303,learn,46671.0000038147,Wed Feb 26 2025 11:26:39 GMT-0600 (Central Standard Time),194522.19999998808,A,a,O,a,862,1,882.5999999940395,193639.59999999404,7068,WL,B,3.0
1,13.796000003814697,learn,46203.9999961853,Wed Feb 26 2025 11:26:39 GMT-0600 (Central Standard Time),194989.0,A,ar,O,r,451,1,1349.4000000059605,193639.59999999404,7068,WL,B,3.0
1,15.461999893188477,learn,44538.00010681152,Wed Feb 26 2025 11:26:39 GMT-0600 (Central Standard Time),196654.90000000596,A,a,O,backspace,1649,1,3015.300000011921,193639.59999999404,7068,WL,B,3.0
1,16.294999837875366,learn,43705.000162124634,Wed Feb 26 2025 11:26:39 GMT-0600 (Central Standard Time),197488.0,A,am,O,m,823,1,3848.4000000059605,193639.59999999404,7068,WL,B,3.0
1,17.91100001335144,learn,42088.99998664856,Wed Feb 26 2025 11:26:39 GMT-0600 (Central Standard Time),199104.19999998808,A,a,O,backspace,1598,1,5464.5999999940395,193639.59999999404,7068,WL,B,3.0
1,18.194999933242798,learn,41805.0000667572,Wed Feb 26 2025 11:26:39 GMT-0600 (Central Standard Time),199387.59999999404,A,ar,O,r,261,1,5748.0,193639.59999999404,7068,WL,B,3.0
1,18.59499979019165,learn,41405.00020980835,Wed Feb 26 2025 11:26:39 GMT-0600 (Central Standard Time),199787.5,A,arm,O,m,378,1,6147.9000000059605,193639.59999999404,7068,WL,B,3.0
1,19.161999940872192,learn,40838.00005912781,Wed Feb 26 2025 11:26:39 GMT-0600 (Central Standard Time),200355.0,A,armenter,O,enter,555,1,6715.4000000059605,193639.59999999404,7068,WL,B,3.0
1,20.526999950408936,learn,39473.000049591064,Wed Feb 26 2025 11:26:39 GMT-0600 (Central Standard Time),201720.0,A,g,O,g,1354,1,1364.5,200355.5,7068,WL,B,4.0
1,20.74399995803833,learn,39256.00004196167,Wed Feb 26 2025 11:26:39 GMT-0600 (Central Standard Time),201936.79999998212,A,gr,O,r,207,1,1581.2999999821186,200355.5,7068,WL,B,4.0
1,21.0939998626709,learn,38906.0001373291,Wed Feb 26 2025 11:26:39 GMT-0600 (Central Standard Time),202286.69999998808,A,gra,O,a,333,1,1931.199999988079,200355.5,7068,WL,B,4.0
1,21.359999895095825,learn,38640.000104904175,Wed Feb 26 2025 11:26:39 GMT-0600 (Central Standard Time),202553.09999999404,A,gras,O,s,256,1,2197.5999999940395,200355.5,7068,WL,B,4.0
1,21.526999950408936,learn,38473.000049591064,Wed Feb 26 2025 11:26:39 GMT-0600 (Central Standard Time),202719.40000000596,A,grass,O,s,157,1,2363.9000000059605,200355.5,7068,WL,B,4.0
1,22.72699999809265,learn,37273.00000190735,Wed Feb 26 2025 11:26:39 GMT-0600 (Central Standard Time),203919.40000000596,A,grassenter,O,enter,1182,1,3563.9000000059605,200355.5,7068,WL,B,4.0
1,24.05900001525879,learn,35940.99998474121,Wed Feb 26 2025 11:26:39 GMT-0600 (Central Standard Time),205252.0,A,c,O,c,1325,1,1332.300000011921,203919.69999998808,7068,WL,B,5.0
1,24.375999927520752,learn,35624.00007247925,Wed Feb 26 2025 11:26:39 GMT-0600 (Central Standard Time),205568.69999998808,A,ca,O,a,307,1,1649.0,203919.69999998808,7068,WL,B,5.0
1,24.70899987220764,learn,35291.00012779236,Wed Feb 26 2025 11:26:39 GMT-0600 (Central Standard Time),205902.19999998808,A,cab,O,b,317,1,1982.5,203919.69999998808,7068,WL,B,5.0
1,24.992999792099,learn,35007.000207901,Wed Feb 26 2025 11:26:39 GMT-0600 (Central Standard Time),206185.5,A,cabi,O,i,272,1,2265.800000011921,203919.69999998808,7068,WL,B,5.0
1,25.292999982833862,learn,34707.00001716614,Wed Feb 26 2025 11:26:39 GMT-0600 (Central Standard Time),206485.29999998212,A,cabin,O,n,284,1,2565.5999999940395,203919.69999998808,7068,WL,B,5.0
1,26.45899987220764,learn,33541.00012779236,Wed Feb 26 2025 11:26:39 GMT-0600 (Central Standard Time),207651.5,A,cabinenter,O,enter,1145,1,3731.800000011921,203919.69999998808,7068,WL,B,5.0
1,27.024999856948853,learn,32975.00014305115,Wed Feb 26 2025 11:26:39 GMT-0600 (Central Standard Time),208218.0,A,l,O,l,547,1,566.0,207652.0,7068,WL,B,6.0
1,27.22499990463257,learn,32775.00009536743,Wed Feb 26 2025 11:26:39 GMT-0600 (Central Standard Time),208417.79999998212,A,la,O,a,189,1,765.7999999821186,207652.0,7068,WL,B,6.0
1,27.424999952316284,learn,32575.000047683716,Wed Feb 26 2025 11:26:39 GMT-0600 (Central Standard Time),208618.09999999404,A,lak,O,k,179,1,966.0999999940395,207652.0,7068,WL,B,6.0
1,27.625,learn,32375.0,Wed Feb 26 2025 11:26:39 GMT-0600 (Central Standard Time),208817.69999998808,A,lake,O,e,188,1,1165.699999988079,207652.0,7068,WL,B,6.0
1,28.274999856948853,learn,31725.000143051147,Wed Feb 26 2025 11:26:39 GMT-0600 (Central Standard Time),209467.59999999404,A,lakeenter,O,enter,629,1,1815.5999999940395,207652.0,7068,WL,B,6.0
1,29.125,learn,30875.0,Wed Feb 26 2025 11:26:39 GMT-0600 (Central Standard Time),210317.29999998212,A,p,O,p,836,1,849.3999999761581,209467.90000000596,7068,WL,B,7.0
1,29.357999801635742,learn,30642.000198364258,Wed Feb 26 2025 11:26:39 GMT-0600 (Central Standard Time),210550.79999998212,A,pi,O,i,217,1,1082.8999999761581,209467.90000000596,7068,WL,B,7.0
1,29.507999897003174,learn,30492.000102996826,Wed Feb 26 2025 11:26:39 GMT-0600 (Central Standard Time),210700.5,A,pip,O,p,143,1,1232.5999999940395,209467.90000000596,7068,WL,B,7.0
1,30.173999786376953,learn,29826.000213623047,Wed Feb 26 2025 11:26:39 GMT-0600 (Central Standard Time),211367.0,A,pipe,O,e,658,1,1899.0999999940395,209467.90000000596,7068,WL,B,7.0
1,31.54099988937378,learn,28459.00011062622,Wed Feb 26 2025 11:26:39 GMT-0600 (Central Standard Time),212733.29999998212,A,pipeenter,O,enter,1352,1,3265.399999976158,209467.90000000596,7068,WL,B,7.0
1,33.83999991416931,learn,26160.00008583069,Wed Feb 26 2025 11:26:39 GMT-0600 (Central Standard Time),215032.79999998212,A,s,O,s,2289,1,2299.0999999940395,212733.69999998808,7068,WL,B,8.0
1,34.00599980354309,learn,25994.00019645691,Wed Feb 26 2025 11:26:39 GMT-0600 (Central Standard Time),215199.19999998808,A,sk,O,k,155,1,2465.5,212733.69999998808,7068,WL,B,8.0
1,34.25599980354309,learn,25744.00019645691,Wed Feb 26 2025 11:26:39 GMT-0600 (Central Standard Time),215449.19999998808,A,ski,O,i,231,1,2715.5,212733.69999998808,7068,WL,B,8.0
1,34.50599980354309,learn,25494.00019645691,Wed Feb 26 2025 11:26:39 GMT-0600 (Central Standard Time),215699.0,A,skin,O,n,237,1,2965.300000011921,212733.69999998808,7068,WL,B,8.0
1,37.23899984359741,learn,22761.000156402588,Wed Feb 26 2025 11:26:39 GMT-0600 (Central Standard Time),218431.59999999404,A,skinenter,O,enter,2724,1,5697.9000000059605,212733.69999998808,7068,WL,B,8.0
1,38.47199988365173,learn,21528.000116348267,Wed Feb 26 2025 11:26:39 GMT-0600 (Central Standard Time),219664.40000000596,A,a,O,a,1215,1,1232.4000000059605,218432.0,7068,WL,B,9.0
1,40.98799991607666,learn,19012.00008392334,Wed Feb 26 2025 11:26:39 GMT-0600 (Central Standard Time),222180.29999998212,A,,O,backspace,2495,1,3748.2999999821186,218432.0,7068,WL,B,9.0
1,41.72099995613098,learn,18279.00004386902,Wed Feb 26 2025 11:26:39 GMT-0600 (Central Standard Time),222913.40000000596,A,d,O,d,714,1,4481.4000000059605,218432.0,7068,WL,B,9.0
1,41.98699998855591,learn,18013.00001144409,Wed Feb 26 2025 11:26:39 GMT-0600 (Central Standard Time),223179.90000000596,A,do,O,o,253,1,4747.9000000059605,218432.0,7068,WL,B,9.0
1,42.15399980545044,learn,17846.00019454956,Wed Feb 26 2025 11:26:39 GMT-0600 (Central Standard Time),223346.79999998212,A,doo,O,o,154,1,4914.799999982119,218432.0,7068,WL,B,9.0
1,42.38699984550476,learn,17613.00015449524,Wed Feb 26 2025 11:26:39 GMT-0600 (Central Standard Time),223579.79999998212,A,door,O,r,220,1,5147.799999982119,218432.0,7068,WL,B,9.0
1,43.353999853134155,learn,16646.000146865845,Wed Feb 26 2025 11:26:39 GMT-0600 (Central Standard Time),224546.29999998212,A,doorenter,O,enter,946,1,6114.299999982119,218432.0,7068,WL,B,9.0
1,44.003000020980835,learn,15996.999979019165,Wed Feb 26 2025 11:26:39 GMT-0600 (Central Standard Time),225196.0,A,w,O,w,637,1,649.4000000059605,224546.59999999404,7068,WL,B,10.0
1,44.169999837875366,learn,15830.000162124634,Wed Feb 26 2025 11:26:39 GMT-0600 (Central Standard Time),225362.90000000596,A,wi,O,i,155,1,816.3000000119209,224546.59999999404,7068,WL,B,10.0
1,44.418999910354614,learn,15581.000089645386,Wed Feb 26 2025 11:26:39 GMT-0600 (Central Standard Time),225612.29999998212,A,wif,O,f,243,1,1065.699999988079,224546.59999999404,7068,WL,B,10.0
1,44.68599987030029,learn,15314.000129699707,Wed Feb 26 2025 11:26:39 GMT-0600 (Central Standard Time),225879.29999998212,A,wife,O,e,258,1,1332.699999988079,224546.59999999404,7068,WL,B,10.0
1,45.53600001335144,learn,14463.99998664856,Wed Feb 26 2025 11:26:39 GMT-0600 (Central Standard Time),226728.79999998212,A,wifeenter,O,enter,839,1,2182.199999988079,224546.59999999404,7068,WL,B,10.0
1,52.11699986457825,learn,7883.000135421753,Wed Feb 26 2025 11:26:39 GMT-0600 (Central Standard Time),233310.09999999404,A,p,O,p,6573,1,6580.9000000059605,226729.19999998808,7068,WL,B,11.0
1,52.48399996757507,learn,7516.000032424927,Wed Feb 26 2025 11:26:39 GMT-0600 (Central Standard Time),233676.40000000596,A,pu,O,u,360,1,6947.200000017881,226729.19999998808,7068,WL,B,11.0
1,52.76699995994568,learn,7233.000040054321,Wed Feb 26 2025 11:26:39 GMT-0600 (Central Standard Time),233959.90000000596,A,pup,O,p,266,1,7230.700000017881,226729.19999998808,7068,WL,B,11.0
1,53.050999879837036,learn,6949.000120162964,Wed Feb 26 2025 11:26:39 GMT-0600 (Central Standard Time),234243.40000000596,A,pupi,O,i,262,1,7514.200000017881,226729.19999998808,7068,WL,B,11.0
1,53.31699991226196,learn,6683.000087738037,Wed Feb 26 2025 11:26:39 GMT-0600 (Central Standard Time),234509.69999998808,A,pupil,O,l,259,1,7780.5,226729.19999998808,7068,WL,B,11.0
1,54.467000007629395,learn,5532.9999923706055,Wed Feb 26 2025 11:26:39 GMT-0600 (Central Standard Time),235659.40000000596,A,pupilenter,O,enter,1144,1,8930.200000017881,226729.19999998808,7068,WL,B,11.0
1,60.014999866485596,learn,-14.999866485595703,Wed Feb 26 2025 11:26:39 GMT-0600 (Central Standard Time),241207.69999998808,A,None,O,None,5543,1,5548.0,235659.69999998808,7068,WL,B,12.0
2,2.115999937057495,learn,57884.000062942505,Wed Feb 26 2025 11:26:39 GMT-0600 (Central Standard Time),330812.90000000596,A,s,O,s,2103,1,2115.7000000178814,328697.1999999881,7068,WL,B,1.0
2,2.999000072479248,learn,57000.99992752075,Wed Feb 26 2025 11:26:39 GMT-0600 (Central Standard Time),331696.1999999881,A,st,O,t,873,1,2999.0,328697.1999999881,7068,WL,B,1.0
2,3.797999858856201,learn,56202.0001411438,Wed Feb 26 2025 11:26:39 GMT-0600 (Central Standard Time),332495.59999999404,A,str,O,r,790,1,3798.4000000059605,328697.1999999881,7068,WL,B,1.0
2,4.098999977111816,learn,55901.00002288818,Wed Feb 26 2025 11:26:39 GMT-0600 (Central Standard Time),332795.90000000596,A,stre,O,e,280,1,4098.700000017881,328697.1999999881,7068,WL,B,1.0
2,4.266000032424927,learn,55733.99996757507,Wed Feb 26 2025 11:26:39 GMT-0600 (Central Standard Time),332962.59999999404,A,stree,O,e,154,1,4265.4000000059605,328697.1999999881,7068,WL,B,1.0
2,4.582000017166138,learn,55417.99998283386,Wed Feb 26 2025 11:26:39 GMT-0600 (Central Standard Time),333278.90000000596,A,street,O,t,309,1,4581.700000017881,328697.1999999881,7068,WL,B,1.0
2,5.230999946594238,learn,54769.00005340576,Wed Feb 26 2025 11:26:39 GMT-0600 (Central Standard Time),333928.5,A,streetenter,O,enter,632,1,5231.300000011921,328697.1999999881,7068,WL,B,1.0
2,6.180999994277954,learn,53819.000005722046,Wed Feb 26 2025 11:26:39 GMT-0600 (Central Standard Time),334878.2999999821,A,w,O,w,934,1,949.3999999761581,333928.90000000596,7068,WL,B,2.0
2,6.330999851226807,learn,53669.00014877319,Wed Feb 26 2025 11:26:39 GMT-0600 (Central Standard Time),335028.5,A,wi,O,i,136,1,1099.5999999940395,333928.90000000596,7068,WL,B,2.0
2,6.514999866485596,learn,53485.000133514404,Wed Feb 26 2025 11:26:39 GMT-0600 (Central Standard Time),335212.5,A,win,O,n,170,1,1283.5999999940395,333928.90000000596,7068,WL,B,2.0
2,6.747999906539917,learn,53252.00009346008,Wed Feb 26 2025 11:26:39 GMT-0600 (Central Standard Time),335444.90000000596,A,wind,O,d,226,1,1516.0,333928.90000000596,7068,WL,B,2.0
2,6.865000009536743,learn,53134.99999046326,Wed Feb 26 2025 11:26:39 GMT-0600 (Central Standard Time),335561.6999999881,A,windo,O,o,97,1,1632.7999999821186,333928.90000000596,7068,WL,B,2.0
2,7.047999858856201,learn,52952.0001411438,Wed Feb 26 2025 11:26:39 GMT-0600 (Central Standard Time),335744.7999999821,A,window,O,w,172,1,1815.8999999761581,333928.90000000596,7068,WL,B,2.0
2,7.697999954223633,learn,52302.00004577637,Wed Feb 26 2025 11:26:39 GMT-0600 (Central Standard Time),336394.7999999821,A,windowenter,O,enter,638,1,2465.899999976158,333928.90000000596,7068,WL,B,2.0
2,8.263999938964844,learn,51736.000061035156,Wed Feb 26 2025 11:26:39 GMT-0600 (Central Standard Time),336961.1999999881,A,d,O,d,547,1,566.0999999940395,336395.09999999404,7068,WL,B,3.0
2,8.480999946594238,learn,51519.00005340576,Wed Feb 26 2025 11:26:39 GMT-0600 (Central Standard Time),337177.6999999881,A,do,O,o,197,1,782.5999999940395,336395.09999999404,7068,WL,B,3.0
2,8.647000074386597,learn,51352.9999256134,Wed Feb 26 2025 11:26:39 GMT-0600 (Central Standard Time),337344.40000000596,A,doo,O,o,148,1,949.3000000119209,336395.09999999404,7068,WL,B,3.0
2,8.863999843597412,learn,51136.00015640259,Wed Feb 26 2025 11:26:39 GMT-0600 (Central Standard Time),337560.6999999881,A,door,O,r,206,1,1165.5999999940395,336395.09999999404,7068,WL,B,3.0
2,9.746999979019165,learn,50253.000020980835,Wed Feb 26 2025 11:26:39 GMT-0600 (Central Standard Time),338444.0,A,doorenter,O,enter,861,1,2048.9000000059605,336395.09999999404,7068,WL,B,3.0
2,10.230000019073486,learn,49769.999980926514,Wed Feb 26 2025 11:26:39 GMT-0600 (Central Standard Time),338927.1999999881,A,a,O,a,474,1,482.7999999821186,338444.40000000596,7068,WL,B,4.0
2,10.562999963760376,learn,49437.000036239624,Wed Feb 26 2025 11:26:39 GMT-0600 (Central Standard Time),339260.1999999881,A,ar,O,r,327,1,815.7999999821186,338444.40000000596,7068,WL,B,4.0
2,10.879999876022339,learn,49120.00012397766,Wed Feb 26 2025 11:26:39 GMT-0600 (Central Standard Time),339576.90000000596,A,arm,O,m,306,1,1132.5,338444.40000000596,7068,WL,B,4.0
2,11.29699993133545,learn,48703.00006866455,Wed Feb 26 2025 11:26:39 GMT-0600 (Central Standard Time),339993.59999999404,A,armenter,O,enter,406,1,1549.199999988079,338444.40000000596,7068,WL,B,4.0
2,11.912999868392944,learn,48087.000131607056,Wed Feb 26 2025 11:26:39 GMT-0600 (Central Standard Time),340610.0,A,s,O,s,598,1,616.0,339994.0,7068,WL,B,5.0
2,12.062999963760376,learn,47937.000036239624,Wed Feb 26 2025 11:26:39 GMT-0600 (Central Standard Time),340759.7999999821,A,sk,O,k,141,1,765.7999999821186,339994.0,7068,WL,B,5.0
2,12.263000011444092,learn,47736.99998855591,Wed Feb 26 2025 11:26:39 GMT-0600 (Central Standard Time),340960.0,A,ski,O,i,183,1,966.0,339994.0,7068,WL,B,5.0
2,12.595999956130981,learn,47404.00004386902,Wed Feb 26 2025 11:26:39 GMT-0600 (Central Standard Time),341293.09999999404,A,skin,O,n,318,1,1299.0999999940395,339994.0,7068,WL,B,5.0
2,13.062999963760376,learn,46937.000036239624,Wed Feb 26 2025 11:26:39 GMT-0600 (Central Standard Time),341759.6999999881,A,skinenter,O,enter,457,1,1765.699999988079,339994.0,7068,WL,B,5.0
2,13.661999940872192,learn,46338.00005912781,Wed Feb 26 2025 11:26:39 GMT-0600 (Central Standard Time),342359.5,A,f,O,f,582,1,599.5,341760.0,7068,WL,B,6.0
2,13.845999956130981,learn,46154.00004386902,Wed Feb 26 2025 11:26:39 GMT-0600 (Central Standard Time),342542.6999999881,A,fi,O,i,168,1,782.6999999880791,341760.0,7068,WL,B,6.0
2,14.01199984550476,learn,45988.00015449524,Wed Feb 26 2025 11:26:39 GMT-0600 (Central Standard Time),342709.40000000596,A,fir,O,r,151,1,949.4000000059605,341760.0,7068,WL,B,6.0
2,14.26199984550476,learn,45738.00015449524,Wed Feb 26 2025 11:26:39 GMT-0600 (Central Standard Time),342959.2999999821,A,fire,O,e,234,1,1199.2999999821186,341760.0,7068,WL,B,6.0
2,14.478999853134155,learn,45521.000146865845,Wed Feb 26 2025 11:26:39 GMT-0600 (Central Standard Time),343175.90000000596,A,fireenter,O,enter,208,1,1415.9000000059605,341760.0,7068,WL,B,6.0
2,14.978999853134155,learn,45021.000146865845,Wed Feb 26 2025 11:26:39 GMT-0600 (Central Standard Time),343675.6999999881,A,w,O,w,494,1,499.5,343176.1999999881,7068,WL,B,7.0
2,15.227999925613403,learn,44772.0000743866,Wed Feb 26 2025 11:26:39 GMT-0600 (Central Standard Time),343925.40000000596,A,wi,O,i,235,1,749.2000000178814,343176.1999999881,7068,WL,B,7.0
2,15.444999933242798,learn,44555.0000667572,Wed Feb 26 2025 11:26:39 GMT-0600 (Central Standard Time),344142.2999999821,A,wif,O,f,201,1,966.0999999940395,343176.1999999881,7068,WL,B,7.0
2,15.694999933242798,learn,44305.0000667572,Wed Feb 26 2025 11:26:39 GMT-0600 (Central Standard Time),344392.09999999404,A,wife,O,e,241,1,1215.9000000059605,343176.1999999881,7068,WL,B,7.0
2,16.16100001335144,learn,43838.99998664856,Wed Feb 26 2025 11:26:39 GMT-0600 (Central Standard Time),344858.5,A,wifeenter,O,enter,454,1,1682.300000011921,343176.1999999881,7068,WL,B,7.0
2,18.3439998626709,learn,41656.0001373291,Wed Feb 26 2025 11:26:39 GMT-0600 (Central Standard Time),347041.5,A,c,O,c,2164,1,2182.5999999940395,344858.90000000596,7068,WL,B,8.0
2,18.64400005340576,learn,41355.99994659424,Wed Feb 26 2025 11:26:39 GMT-0600 (Central Standard Time),347341.2999999821,A,ca,O,a,293,1,2482.399999976158,344858.90000000596,7068,WL,B,8.0
2,19.210999965667725,learn,40789.000034332275,Wed Feb 26 2025 11:26:39 GMT-0600 (Central Standard Time),347907.59999999404,A,cab,O,b,554,1,3048.699999988079,344858.90000000596,7068,WL,B,8.0
2,19.376999855041504,learn,40623.000144958496,Wed Feb 26 2025 11:26:39 GMT-0600 (Central Standard Time),348074.40000000596,A,cabi,O,i,155,1,3215.5,344858.90000000596,7068,WL,B,8.0
2,19.626999855041504,learn,40373.000144958496,Wed Feb 26 2025 11:26:39 GMT-0600 (Central Standard Time),348324.1999999881,A,cabin,O,n,228,1,3465.2999999821186,344858.90000000596,7068,WL,B,8.0
2,20.05999994277954,learn,39940.00005722046,Wed Feb 26 2025 11:26:39 GMT-0600 (Central Standard Time),348757.5,A,cabinenter,O,enter,426,1,3898.5999999940395,344858.90000000596,7068,WL,B,8.0
2,20.543999910354614,learn,39456.000089645386,Wed Feb 26 2025 11:26:39 GMT-0600 (Central Standard Time),349240.59999999404,A,l,O,l,466,1,482.80000001192093,348757.7999999821,7068,WL,B,9.0
2,20.743000030517578,learn,39256.99996948242,Wed Feb 26 2025 11:26:39 GMT-0600 (Central Standard Time),349440.40000000596,A,la,O,a,182,1,682.6000000238419,348757.7999999821,7068,WL,B,9.0
2,20.89400005340576,learn,39105.99994659424,Wed Feb 26 2025 11:26:39 GMT-0600 (Central Standard Time),349590.59999999404,A,lak,O,k,134,1,832.8000000119209,348757.7999999821,7068,WL,B,9.0
2,21.07699990272522,learn,38923.00009727478,Wed Feb 26 2025 11:26:39 GMT-0600 (Central Standard Time),349773.7999999821,A,lake,O,e,168,1,1016.0,348757.7999999821,7068,WL,B,9.0
2,21.792999982833862,learn,38207.00001716614,Wed Feb 26 2025 11:26:39 GMT-0600 (Central Standard Time),350490.1999999881,A,lakeenter,O,enter,698,1,1732.4000000059605,348757.7999999821,7068,WL,B,9.0
2,23.125999927520752,learn,36874.00007247925,Wed Feb 26 2025 11:26:39 GMT-0600 (Central Standard Time),351823.09999999404,A,p,O,p,1324,1,1332.5999999940395,350490.5,7068,WL,B,10.0
2,23.876999855041504,learn,36123.000144958496,Wed Feb 26 2025 11:26:39 GMT-0600 (Central Standard Time),352574.09999999404,A,pu,O,u,744,1,2083.5999999940395,350490.5,7068,WL,B,10.0
2,24.174999952316284,learn,35825.000047683716,Wed Feb 26 2025 11:26:39 GMT-0600 (Central Standard Time),352872.5,A,pup,O,p,288,1,2382.0,350490.5,7068,WL,B,10.0
2,25.174999952316284,learn,34825.000047683716,Wed Feb 26 2025 11:26:39 GMT-0600 (Central Standard Time),353872.59999999404,A,pupi,O,i,990,1,3382.0999999940395,350490.5,7068,WL,B,10.0
2,25.89199995994568,learn,34108.00004005432,Wed Feb 26 2025 11:26:39 GMT-0600 (Central Standard Time),354588.90000000596,A,pupil,O,l,703,1,4098.4000000059605,350490.5,7068,WL,B,10.0
2,27.09999990463257,learn,32900.00009536743,Wed Feb 26 2025 11:26:39 GMT-0600 (Central Standard Time),355797.0,A,pupilenter,O,enter,1203,1,5306.5,350490.5,7068,WL,B,10.0
2,30.988999843597412,learn,29011.000156402588,Wed Feb 26 2025 11:26:39 GMT-0600 (Central Standard Time),359687.5,A,s,O,s,3881,1,3890.2000000178814,355797.2999999821,7068,WL,B,11.0
2,31.35599994659424,learn,28644.00005340576,Wed Feb 26 2025 11:26:39 GMT-0600 (Central Standard Time),360054.0,A,st,O,t,351,1,4256.700000017881,355797.2999999821,7068,WL,B,11.0
2,31.738999843597412,learn,28261.000156402588,Wed Feb 26 2025 11:26:39 GMT-0600 (Central Standard Time),360437.2999999821,A,sta,O,a,368,1,4640.0,355797.2999999821,7068,WL,B,11.0
2,32.07200002670288,learn,27927.99997329712,Wed Feb 26 2025 11:26:39 GMT-0600 (Central Standard Time),360770.5,A,star,O,r,313,1,4973.200000017881,355797.2999999821,7068,WL,B,11.0
2,32.48899984359741,learn,27511.000156402588,Wed Feb 26 2025 11:26:39 GMT-0600 (Central Standard Time),361186.90000000596,A,starenter,O,enter,396,1,5389.600000023842,355797.2999999821,7068,WL,B,11.0
2,40.0699999332428,learn,19930.000066757202,Wed Feb 26 2025 11:26:39 GMT-0600 (Central Standard Time),368767.7999999821,A,d,O,d,7571,1,7580.5999999940395,361187.1999999881,7068,WL,B,12.0
2,40.3529999256134,learn,19647.000074386597,Wed Feb 26 2025 11:26:39 GMT-0600 (Central Standard Time),369051.1999999881,A,do,O,o,261,1,7864.0,361187.1999999881,7068,WL,B,12.0
2,40.51900005340576,learn,19480.99994659424,Wed Feb 26 2025 11:26:39 GMT-0600 (Central Standard Time),369217.59999999404,A,doo,O,o,147,1,8030.4000000059605,361187.1999999881,7068,WL,B,12.0
2,40.65299987792969,learn,19347.000122070312,Wed Feb 26 2025 11:26:39 GMT-0600 (Central Standard Time),369351.0,A,door,O,r,117,1,8163.800000011921,361187.1999999881,7068,WL,B,12.0
2,40.986000061035156,learn,19013.999938964844,Wed Feb 26 2025 11:26:39 GMT-0600 (Central Standard Time),369684.09999999404,A,doorenter,O,enter,320,1,8496.90000000596,361187.1999999881,7068,WL,B,12.0
2,46.96799993515015,learn,13032.000064849854,Wed Feb 26 2025 11:26:39 GMT-0600 (Central Standard Time),375665.7999999821,A,p,O,p,5962,1,5981.399999976158,369684.40000000596,7068,WL,B,13.0
2,47.18400001525879,learn,12815.999984741211,Wed Feb 26 2025 11:26:39 GMT-0600 (Central Standard Time),375882.2999999821,A,pi,O,i,204,1,6197.899999976158,369684.40000000596,7068,WL,B,13.0
2,47.300999879837036,learn,12699.000120162964,Wed Feb 26 2025 11:26:39 GMT-0600 (Central Standard Time),375999.0,A,pip,O,p,101,1,6314.5999999940395,369684.40000000596,7068,WL,B,13.0
2,47.50099992752075,learn,12499.000072479248,Wed Feb 26 2025 11:26:39 GMT-0600 (Central Standard Time),376198.7999999821,A,pipe,O,e,191,1,6514.399999976158,369684.40000000596,7068,WL,B,13.0
2,47.78399991989136,learn,12216.000080108643,Wed Feb 26 2025 11:26:39 GMT-0600 (Central Standard Time),376482.2999999821,A,pipeenter,O,enter,273,1,6797.899999976158,369684.40000000596,7068,WL,B,13.0
2,52.79900002479553,learn,7200.999975204468,Wed Feb 26 2025 11:26:39 GMT-0600 (Central Standard Time),381497.2999999821,A,c,O,c,4997,1,5014.699999988079,376482.59999999404,7068,WL,B,14.0
2,53.04900002479553,learn,6950.999975204468,Wed Feb 26 2025 11:26:39 GMT-0600 (Central Standard Time),381747.09999999404,A,cl,O,l,229,1,5264.5,376482.59999999404,7068,WL,B,14.0
2,53.24900007247925,learn,6750.999927520752,Wed Feb 26 2025 11:26:39 GMT-0600 (Central Standard Time),381947.1999999881,A,clo,O,o,179,1,5464.5999999940395,376482.59999999404,7068,WL,B,14.0
2,53.48199987411499,learn,6518.00012588501,Wed Feb 26 2025 11:26:39 GMT-0600 (Central Standard Time),382180.5,A,cloc,O,c,219,1,5697.9000000059605,376482.59999999404,7068,WL,B,14.0
2,53.66499996185303,learn,6335.000038146973,Wed Feb 26 2025 11:26:39 GMT-0600 (Central Standard Time),382363.59999999404,A,clock,O,k,171,1,5881.0,376482.59999999404,7068,WL,B,14.0
2,53.96499991416931,learn,6035.0000858306885,Wed Feb 26 2025 11:26:39 GMT-0600 (Central Standard Time),382663.6999999881,A,clockenter,O,enter,291,1,6181.0999999940395,376482.59999999404,7068,WL,B,14.0
2,60.013999938964844,learn,-13.99993896484375,Wed Feb 26 2025 11:26:39 GMT-0600 (Central Standard Time),388711.90000000596,A,None,O,None,6044,1,6047.9000000059605,382664.0,7068,WL,B,15.0
3,1.8489999771118164,learn,58151.00002288818,Wed Feb 26 2025 11:26:39 GMT-0600 (Central Standard Time),462338.6999999881,A,c,O,c,1830,1,1849.199999988079,460489.5,7068,WL,B,1.0
3,2.0490000247955322,learn,57950.99997520447,Wed Feb 26 2025 11:26:39 GMT-0600 (Central Standard Time),462538.7999999821,A,ci,O,i,180,1,2049.2999999821186,460489.5,7068,WL,B,1.0
3,2.2330000400543213,learn,57766.99995994568,Wed Feb 26 2025 11:26:39 GMT-0600 (Central Standard Time),462722.0,A,cit,O,t,163,1,2232.5,460489.5,7068,WL,B,1.0
3,2.4820001125335693,learn,57517.99988746643,Wed Feb 26 2025 11:26:39 GMT-0600 (Central Standard Time),462971.7999999821,A,city,O,y,229,1,2482.2999999821186,460489.5,7068,WL,B,1.0
3,3.0160000324249268,learn,56983.99996757507,Wed Feb 26 2025 11:26:39 GMT-0600 (Central Standard Time),463505.0,A,cityenter,O,enter,515,1,3015.5,460489.5,7068,WL,B,1.0
3,3.4489998817443848,learn,56551.000118255615,Wed Feb 26 2025 11:26:39 GMT-0600 (Central Standard Time),463938.09999999404,A,s,O,s,414,1,432.69999998807907,463505.40000000596,7068,WL,B,2.0
3,3.765000104904175,learn,56234.999895095825,Wed Feb 26 2025 11:26:39 GMT-0600 (Central Standard Time),464254.6999999881,A,st,O,t,300,1,749.2999999821186,463505.40000000596,7068,WL,B,2.0
3,4.164999961853027,learn,55835.00003814697,Wed Feb 26 2025 11:26:39 GMT-0600 (Central Standard Time),464654.59999999404,A,str,O,r,384,1,1149.199999988079,463505.40000000596,7068,WL,B,2.0
3,4.4649999141693115,learn,55535.00008583069,Wed Feb 26 2025 11:26:39 GMT-0600 (Central Standard Time),464954.59999999404,A,stre,O,e,281,1,1449.199999988079,463505.40000000596,7068,WL,B,2.0
3,4.648000001907349,learn,55351.99999809265,Wed Feb 26 2025 11:26:39 GMT-0600 (Central Standard Time),465137.59999999404,A,stree,O,e,164,1,1632.199999988079,463505.40000000596,7068,WL,B,2.0
3,5.015000104904175,learn,54984.999895095825,Wed Feb 26 2025 11:26:39 GMT-0600 (Central Standard Time),465504.40000000596,A,street,O,t,349,1,1999.0,463505.40000000596,7068,WL,B,2.0
3,5.365000009536743,learn,54634.99999046326,Wed Feb 26 2025 11:26:39 GMT-0600 (Central Standard Time),465854.2999999821,A,streetenter,O,enter,342,1,2348.899999976158,463505.40000000596,7068,WL,B,2.0
3,5.831000089645386,learn,54168.999910354614,Wed Feb 26 2025 11:26:39 GMT-0600 (Central Standard Time),466320.7999999821,A,g,O,g,449,1,466.19999998807907,465854.59999999404,7068,WL,B,3.0
3,6.063999891281128,learn,53936.00010871887,Wed Feb 26 2025 11:26:39 GMT-0600 (Central Standard Time),466553.90000000596,A,gr,O,r,214,1,699.3000000119209,465854.59999999404,7068,WL,B,3.0
3,6.364000082015991,learn,53635.99991798401,Wed Feb 26 2025 11:26:39 GMT-0600 (Central Standard Time),466853.90000000596,A,gra,O,a,293,1,999.3000000119209,465854.59999999404,7068,WL,B,3.0
3,6.71399998664856,learn,53286.00001335144,Wed Feb 26 2025 11:26:39 GMT-0600 (Central Standard Time),467203.7999999821,A,gras,O,s,329,1,1349.199999988079,465854.59999999404,7068,WL,B,3.0
3,6.88100004196167,learn,53118.99995803833,Wed Feb 26 2025 11:26:39 GMT-0600 (Central Standard Time),467370.40000000596,A,grass,O,s,146,1,1515.800000011921,465854.59999999404,7068,WL,B,3.0
3,7.230999946594238,learn,52769.00005340576,Wed Feb 26 2025 11:26:39 GMT-0600 (Central Standard Time),467720.2999999821,A,grassenter,O,enter,341,1,1865.699999988079,465854.59999999404,7068,WL,B,3.0
3,7.730999946594238,learn,52269.00005340576,Wed Feb 26 2025 11:26:39 GMT-0600 (Central Standard Time),468220.09999999404,A,d,O,d,479,1,499.5,467720.59999999404,7068,WL,B,4.0
3,7.96399998664856,learn,52036.00001335144,Wed Feb 26 2025 11:26:39 GMT-0600 (Central Standard Time),468453.5,A,do,O,o,227,1,732.9000000059605,467720.59999999404,7068,WL,B,4.0
3,8.129999876022339,learn,51870.00012397766,Wed Feb 26 2025 11:26:39 GMT-0600 (Central Standard Time),468620.0,A,doo,O,o,161,1,899.4000000059605,467720.59999999404,7068,WL,B,4.0
3,8.263999938964844,learn,51736.000061035156,Wed Feb 26 2025 11:26:39 GMT-0600 (Central Standard Time),468753.2999999821,A,door,O,r,115,1,1032.699999988079,467720.59999999404,7068,WL,B,4.0
3,8.513999938964844,learn,51486.000061035156,Wed Feb 26 2025 11:26:39 GMT-0600 (Central Standard Time),469003.5,A,doorenter,O,enter,229,1,1282.9000000059605,467720.59999999404,7068,WL,B,4.0
3,9.013999938964844,learn,50986.000061035156,Wed Feb 26 2025 11:26:39 GMT-0600 (Central Standard Time),469503.1999999881,A,w,O,w,492,1,499.40000000596046,469003.7999999821,7068,WL,B,5.0
3,9.19700002670288,learn,50802.99997329712,Wed Feb 26 2025 11:26:39 GMT-0600 (Central Standard Time),469686.40000000596,A,wi,O,i,168,1,682.6000000238419,469003.7999999821,7068,WL,B,5.0
3,9.44700002670288,learn,50552.99997329712,Wed Feb 26 2025 11:26:39 GMT-0600 (Central Standard Time),469936.2999999821,A,win,O,n,233,1,932.5,469003.7999999821,7068,WL,B,5.0
3,9.746999979019165,learn,50253.000020980835,Wed Feb 26 2025 11:26:39 GMT-0600 (Central Standard Time),470236.09999999404,A,wind,O,d,279,1,1232.300000011921,469003.7999999821,7068,WL,B,5.0
3,9.996999979019165,learn,50003.000020980835,Wed Feb 26 2025 11:26:39 GMT-0600 (Central Standard Time),470486.0,A,windo,O,o,243,1,1482.2000000178814,469003.7999999821,7068,WL,B,5.0
3,10.312999963760376,learn,49687.000036239624,Wed Feb 26 2025 11:26:39 GMT-0600 (Central Standard Time),470802.59999999404,A,window,O,w,304,1,1798.800000011921,469003.7999999821,7068,WL,B,5.0
3,10.579999923706055,learn,49420.000076293945,Wed Feb 26 2025 11:26:39 GMT-0600 (Central Standard Time),471069.1999999881,A,windowenter,O,enter,253,1,2065.4000000059605,469003.7999999821,7068,WL,B,5.0
3,10.946000099182129,learn,49053.99990081787,Wed Feb 26 2025 11:26:39 GMT-0600 (Central Standard Time),471435.6999999881,A,a,O,a,361,1,366.09999999403954,471069.59999999404,7068,WL,B,6.0
3,11.312999963760376,learn,48687.000036239624,Wed Feb 26 2025 11:26:39 GMT-0600 (Central Standard Time),471802.40000000596,A,ar,O,r,348,1,732.8000000119209,471069.59999999404,7068,WL,B,6.0
3,11.663000106811523,learn,48336.99989318848,Wed Feb 26 2025 11:26:39 GMT-0600 (Central Standard Time),472152.2999999821,A,arm,O,m,333,1,1082.699999988079,471069.59999999404,7068,WL,B,6.0
3,11.996000051498413,learn,48003.99994850159,Wed Feb 26 2025 11:26:39 GMT-0600 (Central Standard Time),472485.59999999404,A,armenter,O,enter,327,1,1416.0,471069.59999999404,7068,WL,B,6.0
3,12.562999963760376,learn,47437.000036239624,Wed Feb 26 2025 11:26:39 GMT-0600 (Central Standard Time),473052.09999999404,A,s,O,s,546,1,566.1999999880791,472485.90000000596,7068,WL,B,7.0
3,12.763000011444092,learn,47236.99998855591,Wed Feb 26 2025 11:26:39 GMT-0600 (Central Standard Time),473252.1999999881,A,sk,O,k,179,1,766.2999999821186,472485.90000000596,7068,WL,B,7.0
3,13.20300006866455,learn,46796.99993133545,Wed Feb 26 2025 11:26:39 GMT-0600 (Central Standard Time),473692.59999999404,A,ski,O,i,288,1,1206.699999988079,472485.90000000596,7068,WL,B,7.0
3,13.394999980926514,learn,46605.000019073486,Wed Feb 26 2025 11:26:39 GMT-0600 (Central Standard Time),473884.90000000596,A,skin,O,n,186,1,1399.0,472485.90000000596,7068,WL,B,7.0
3,13.944999933242798,learn,46055.0000667572,Wed Feb 26 2025 11:26:39 GMT-0600 (Central Standard Time),474434.7999999821,A,skinenter,O,enter,529,1,1948.8999999761581,472485.90000000596,7068,WL,B,7.0
3,14.494999885559082,learn,45505.00011444092,Wed Feb 26 2025 11:26:39 GMT-0600 (Central Standard Time),474984.90000000596,A,c,O,c,541,1,549.7000000178814,474435.1999999881,7068,WL,B,8.0
3,14.711999893188477,learn,45288.00010681152,Wed Feb 26 2025 11:26:39 GMT-0600 (Central Standard Time),475201.2999999821,A,cl,O,l,198,1,766.0999999940395,474435.1999999881,7068,WL,B,8.0
3,14.911999940872192,learn,45088.00005912781,Wed Feb 26 2025 11:26:39 GMT-0600 (Central Standard Time),475401.1999999881,A,clo,O,o,190,1,966.0,474435.1999999881,7068,WL,B,8.0
3,15.227999925613403,learn,44772.0000743866,Wed Feb 26 2025 11:26:39 GMT-0600 (Central Standard Time),475717.90000000596,A,cloc,O,c,310,1,1282.7000000178814,474435.1999999881,7068,WL,B,8.0
3,15.527999877929688,learn,44472.00012207031,Wed Feb 26 2025 11:26:39 GMT-0600 (Central Standard Time),476017.40000000596,A,clock,O,k,288,1,1582.2000000178814,474435.1999999881,7068,WL,B,8.0
3,15.92799997329712,learn,44072.00002670288,Wed Feb 26 2025 11:26:39 GMT-0600 (Central Standard Time),476417.6999999881,A,clockenter,O,enter,382,1,1982.5,474435.1999999881,7068,WL,B,8.0
3,16.394999980926514,learn,43605.000019073486,Wed Feb 26 2025 11:26:39 GMT-0600 (Central Standard Time),476884.1999999881,A,p,O,p,446,1,466.19999998807907,476418.0,7068,WL,B,9.0
3,16.67799997329712,learn,43322.00002670288,Wed Feb 26 2025 11:26:39 GMT-0600 (Central Standard Time),477167.40000000596,A,pu,O,u,266,1,749.4000000059605,476418.0,7068,WL,B,9.0
3,16.861000061035156,learn,43138.999938964844,Wed Feb 26 2025 11:26:39 GMT-0600 (Central Standard Time),477350.6999999881,A,pup,O,p,176,1,932.6999999880791,476418.0,7068,WL,B,9.0
3,17.094000101089478,learn,42905.99989891052,Wed Feb 26 2025 11:26:39 GMT-0600 (Central Standard Time),477583.90000000596,A,pupi,O,i,217,1,1165.9000000059605,476418.0,7068,WL,B,9.0
3,17.34500002861023,learn,42654.99997138977,Wed Feb 26 2025 11:26:39 GMT-0600 (Central Standard Time),477834.0,A,pupil,O,l,240,1,1416.0,476418.0,7068,WL,B,9.0
3,19.009000062942505,learn,40990.999937057495,Wed Feb 26 2025 11:26:39 GMT-0600 (Central Standard Time),479499.90000000596,A,pupilenter,O,enter,1653,1,3081.9000000059605,476418.0,7068,WL,B,9.0
3,19.608999967575073,learn,40391.00003242493,Wed Feb 26 2025 11:26:39 GMT-0600 (Central Standard Time),480099.6999999881,A,l,O,l,595,1,599.4000000059605,479500.2999999821,7068,WL,B,10.0
3,19.95900011062622,learn,40040.99988937378,Wed Feb 26 2025 11:26:39 GMT-0600 (Central Standard Time),480449.6999999881,A,la,O,a,340,1,949.4000000059605,479500.2999999821,7068,WL,B,10.0
3,20.191999912261963,learn,39808.00008773804,Wed Feb 26 2025 11:26:39 GMT-0600 (Central Standard Time),480683.09999999404,A,lak,O,k,222,1,1182.800000011921,479500.2999999821,7068,WL,B,10.0
3,20.52500009536743,learn,39474.99990463257,Wed Feb 26 2025 11:26:39 GMT-0600 (Central Standard Time),481016.09999999404,A,lake,O,e,324,1,1515.800000011921,479500.2999999821,7068,WL,B,10.0
3,23.424999952316284,learn,36575.000047683716,Wed Feb 26 2025 11:26:39 GMT-0600 (Central Standard Time),483915.2999999821,A,lakeenter,O,enter,2879,1,4415.0,479500.2999999821,7068,WL,B,10.0
3,23.808000087738037,learn,36191.99991226196,Wed Feb 26 2025 11:26:39 GMT-0600 (Central Standard Time),484298.59999999404,A,c,O,c,363,1,382.90000000596046,483915.6999999881,7068,WL,B,11.0
3,24.073999881744385,learn,35926.000118255615,Wed Feb 26 2025 11:26:39 GMT-0600 (Central Standard Time),484564.90000000596,A,ca,O,a,253,1,649.2000000178814,483915.6999999881,7068,WL,B,11.0
3,24.473999977111816,learn,35526.00002288818,Wed Feb 26 2025 11:26:39 GMT-0600 (Central Standard Time),484964.7999999821,A,cab,O,b,386,1,1049.0999999940395,483915.6999999881,7068,WL,B,11.0
3,24.657000064849854,learn,35342.99993515015,Wed Feb 26 2025 11:26:39 GMT-0600 (Central Standard Time),485148.1999999881,A,cabi,O,i,162,1,1232.5,483915.6999999881,7068,WL,B,11.0
3,24.891000032424927,learn,35108.99996757507,Wed Feb 26 2025 11:26:39 GMT-0600 (Central Standard Time),485381.40000000596,A,cabin,O,n,219,1,1465.7000000178814,483915.6999999881,7068,WL,B,11.0
3,25.756999969482422,learn,34243.00003051758,Wed Feb 26 2025 11:26:39 GMT-0600 (Central Standard Time),486248.0,A,cabinenter,O,enter,849,1,2332.300000011921,483915.6999999881,7068,WL,B,11.0
3,30.02300000190735,learn,29976.99999809265,Wed Feb 26 2025 11:26:39 GMT-0600 (Central Standard Time),490514.1999999881,A,w,O,w,4247,1,4265.799999982119,486248.40000000596,7068,WL,B,12.0
3,30.188999891281128,learn,29811.000108718872,Wed Feb 26 2025 11:26:39 GMT-0600 (Central Standard Time),490679.6999999881,A,wi,O,i,149,1,4431.299999982119,486248.40000000596,7068,WL,B,12.0
3,30.405999898910522,learn,29594.000101089478,Wed Feb 26 2025 11:26:39 GMT-0600 (Central Standard Time),490896.40000000596,A,wif,O,f,200,1,4648.0,486248.40000000596,7068,WL,B,12.0
3,30.638999938964844,learn,29361.000061035156,Wed Feb 26 2025 11:26:39 GMT-0600 (Central Standard Time),491129.90000000596,A,wife,O,e,223,1,4881.5,486248.40000000596,7068,WL,B,12.0
3,30.871999979019165,learn,29128.000020980835,Wed Feb 26 2025 11:26:39 GMT-0600 (Central Standard Time),491362.90000000596,A,wifeenter,O,enter,222,1,5114.5,486248.40000000596,7068,WL,B,12.0
3,32.57200002670288,learn,27427.99997329712,Wed Feb 26 2025 11:26:39 GMT-0600 (Central Standard Time),493062.40000000596,A,f,O,f,1684,1,1699.2000000178814,491363.1999999881,7068,WL,B,13.0
3,32.704999923706055,learn,27295.000076293945,Wed Feb 26 2025 11:26:39 GMT-0600 (Central Standard Time),493195.6999999881,A,fi,O,i,112,1,1832.5,491363.1999999881,7068,WL,B,13.0
3,32.87100005149841,learn,27128.999948501587,Wed Feb 26 2025 11:26:39 GMT-0600 (Central Standard Time),493362.1999999881,A,fir,O,r,148,1,1999.0,491363.1999999881,7068,WL,B,13.0
3,33.105000019073486,learn,26894.999980926514,Wed Feb 26 2025 11:26:39 GMT-0600 (Central Standard Time),493595.90000000596,A,fire,O,e,228,1,2232.7000000178814,491363.1999999881,7068,WL,B,13.0
3,33.32100009918213,learn,26678.99990081787,Wed Feb 26 2025 11:26:39 GMT-0600 (Central Standard Time),493812.0,A,fireenter,O,enter,211,1,2448.800000011921,491363.1999999881,7068,WL,B,13.0
3,34.58800005912781,learn,25411.999940872192,Wed Feb 26 2025 11:26:39 GMT-0600 (Central Standard Time),495078.5,A,p,O,p,1252,1,1266.300000011921,493812.1999999881,7068,WL,B,14.0
3,34.80399990081787,learn,25196.00009918213,Wed Feb 26 2025 11:26:39 GMT-0600 (Central Standard Time),495294.90000000596,A,pi,O,i,209,1,1482.7000000178814,493812.1999999881,7068,WL,B,14.0
3,34.937000036239624,learn,25062.999963760376,Wed Feb 26 2025 11:26:39 GMT-0600 (Central Standard Time),495428.1999999881,A,pip,O,p,128,1,1616.0,493812.1999999881,7068,WL,B,14.0
3,35.13700008392334,learn,24862.99991607666,Wed Feb 26 2025 11:26:39 GMT-0600 (Central Standard Time),495628.1999999881,A,pipe,O,e,195,1,1816.0,493812.1999999881,7068,WL,B,14.0
3,36.36999988555908,learn,23630.000114440918,Wed Feb 26 2025 11:26:39 GMT-0600 (Central Standard Time),496861.1999999881,A,pipeenter,O,enter,1227,1,3049.0,493812.1999999881,7068,WL,B,14.0
3,43.95099997520447,learn,16049.000024795532,Wed Feb 26 2025 11:26:39 GMT-0600 (Central Standard Time),504442.1999999881,A,s,O,s,7570,1,7580.799999982119,496861.40000000596,7068,WL,B,15.0
3,44.3510000705719,learn,15648.9999294281,Wed Feb 26 2025 11:26:39 GMT-0600 (Central Standard Time),504842.0,A,st,O,t,389,1,7980.5999999940395,496861.40000000596,7068,WL,B,15.0
3,44.75099992752075,learn,15249.000072479248,Wed Feb 26 2025 11:26:39 GMT-0600 (Central Standard Time),505241.7999999821,A,sta,O,a,381,1,8380.399999976158,496861.40000000596,7068,WL,B,15.0
3,45.20099997520447,learn,14799.000024795532,Wed Feb 26 2025 11:26:39 GMT-0600 (Central Standard Time),505692.0,A,star,O,r,428,1,8830.59999999404,496861.40000000596,7068,WL,B,15.0
3,45.58400011062622,learn,14415.99988937378,Wed Feb 26 2025 11:26:39 GMT-0600 (Central Standard Time),506074.7999999821,A,starenter,O,enter,370,1,9213.399999976158,496861.40000000596,7068,WL,B,15.0
4,1.0499999523162842,learn,58950.000047683716,Wed Feb 26 2025 11:26:39 GMT-0600 (Central Standard Time),579052.400000006,A,s,O,s,1029,1,1049.800000011921,578002.599999994,7068,WL,B,1.0
4,1.4170000553131104,learn,58582.99994468689,Wed Feb 26 2025 11:26:39 GMT-0600 (Central Standard Time),579418.7999999821,A,st,O,t,346,1,1416.199999988079,578002.599999994,7068,WL,B,1.0
4,1.6679999828338623,learn,58332.00001716614,Wed Feb 26 2025 11:26:39 GMT-0600 (Central Standard Time),579669.7999999821,A,str,O,r,244,1,1667.199999988079,578002.599999994,7068,WL,B,1.0
4,1.9500000476837158,learn,58049.999952316284,Wed Feb 26 2025 11:26:39 GMT-0600 (Central Standard Time),579952.0,A,stre,O,e,272,1,1949.4000000059605,578002.599999994,7068,WL,B,1.0
4,2.0999999046325684,learn,57900.00009536743,Wed Feb 26 2025 11:26:39 GMT-0600 (Central Standard Time),580102.099999994,A,stree,O,e,135,1,2099.5,578002.599999994,7068,WL,B,1.0
4,2.365999937057495,learn,57634.000062942505,Wed Feb 26 2025 11:26:39 GMT-0600 (Central Standard Time),580368.099999994,A,street,O,t,257,1,2365.5,578002.599999994,7068,WL,B,1.0
4,3.199000120162964,learn,56800.999879837036,Wed Feb 26 2025 11:26:39 GMT-0600 (Central Standard Time),581201.400000006,A,streetenter,O,enter,814,1,3198.800000011921,578002.599999994,7068,WL,B,1.0
4,3.5829999446868896,learn,56417.00005531311,Wed Feb 26 2025 11:26:39 GMT-0600 (Central Standard Time),581584.900000006,A,g,O,g,366,1,383.10000002384186,581201.7999999821,7068,WL,B,2.0
4,3.7829999923706055,learn,56217.000007629395,Wed Feb 26 2025 11:26:39 GMT-0600 (Central Standard Time),581784.900000006,A,gr,O,r,182,1,583.1000000238419,581201.7999999821,7068,WL,B,2.0
4,4.065999984741211,learn,55934.00001525879,Wed Feb 26 2025 11:26:39 GMT-0600 (Central Standard Time),582067.7999999821,A,gra,O,a,270,1,866.0,581201.7999999821,7068,WL,B,2.0
4,4.33299994468689,learn,55667.00005531311,Wed Feb 26 2025 11:26:39 GMT-0600 (Central Standard Time),582334.599999994,A,gras,O,s,260,1,1132.800000011921,581201.7999999821,7068,WL,B,2.0
4,4.499000072479248,learn,55500.99992752075,Wed Feb 26 2025 11:26:39 GMT-0600 (Central Standard Time),582500.900000006,A,grass,O,s,161,1,1299.1000000238419,581201.7999999821,7068,WL,B,2.0
4,4.832000017166138,learn,55167.99998283386,Wed Feb 26 2025 11:26:39 GMT-0600 (Central Standard Time),582834.2999999821,A,grassenter,O,enter,314,1,1632.5,581201.7999999821,7068,WL,B,2.0
4,5.2820000648498535,learn,54717.99993515015,Wed Feb 26 2025 11:26:39 GMT-0600 (Central Standard Time),583284.1999999881,A,d,O,d,445,1,449.59999999403954,582834.599999994,7068,WL,B,3.0
4,5.515000104904175,learn,54484.999895095825,Wed Feb 26 2025 11:26:39 GMT-0600 (Central Standard Time),583517.5,A,do,O,o,219,1,682.9000000059605,582834.599999994,7068,WL,B,3.0
4,5.681999921798706,learn,54318.000078201294,Wed Feb 26 2025 11:26:39 GMT-0600 (Central Standard Time),583684.1999999881,A,doo,O,o,146,1,849.5999999940395,582834.599999994,7068,WL,B,3.0
4,5.865000009536743,learn,54134.99999046326,Wed Feb 26 2025 11:26:39 GMT-0600 (Central Standard Time),583867.5,A,door,O,r,171,1,1032.9000000059605,582834.599999994,7068,WL,B,3.0
4,6.098999977111816,learn,53901.00002288818,Wed Feb 26 2025 11:26:39 GMT-0600 (Central Standard Time),584100.6999999881,A,doorenter,O,enter,220,1,1266.0999999940395,582834.599999994,7068,WL,B,3.0
4,6.615000009536743,learn,53384.99999046326,Wed Feb 26 2025 11:26:39 GMT-0600 (Central Standard Time),584617.0,A,w,O,w,499,1,516.0,584101.0,7068,WL,B,4.0
4,6.732000112533569,learn,53267.99988746643,Wed Feb 26 2025 11:26:39 GMT-0600 (Central Standard Time),584733.7999999821,A,wo,O,o,110,1,632.7999999821186,584101.0,7068,WL,B,4.0
4,7.598999977111816,learn,52401.00002288818,Wed Feb 26 2025 11:26:39 GMT-0600 (Central Standard Time),585600.6999999881,A,won,O,n,849,1,1499.699999988079,584101.0,7068,WL,B,4.0
4,7.898000001907349,learn,52101.99999809265,Wed Feb 26 2025 11:26:39 GMT-0600 (Central Standard Time),585900.1999999881,A,wond,O,d,279,1,1799.199999988079,584101.0,7068,WL,B,4.0
4,8.664999961853027,learn,51335.00003814697,Wed Feb 26 2025 11:26:39 GMT-0600 (Central Standard Time),586666.599999994,A,wondo,O,o,755,1,2565.5999999940395,584101.0,7068,WL,B,4.0
4,9.081000089645386,learn,50918.999910354614,Wed Feb 26 2025 11:26:39 GMT-0600 (Central Standard Time),587083.0,A,wondow,O,w,405,1,2982.0,584101.0,7068,WL,B,4.0
4,9.930999994277954,learn,50069.000005722046,Wed Feb 26 2025 11:26:39 GMT-0600 (Central Standard Time),587932.5,A,wondowenter,O,enter,837,1,3831.5,584101.0,7068,WL,B,4.0
4,10.38100004196167,learn,49618.99995803833,Wed Feb 26 2025 11:26:39 GMT-0600 (Central Standard Time),588382.599999994,A,s,O,s,435,1,449.69999998807907,587932.900000006,7068,WL,B,5.0
4,10.746999979019165,learn,49253.000020980835,Wed Feb 26 2025 11:26:39 GMT-0600 (Central Standard Time),588749.1999999881,A,st,O,t,350,1,816.2999999821186,587932.900000006,7068,WL,B,5.0
4,11.180000066757202,learn,48819.9999332428,Wed Feb 26 2025 11:26:39 GMT-0600 (Central Standard Time),589182.2999999821,A,sta,O,a,418,1,1249.3999999761581,587932.900000006,7068,WL,B,5.0
4,11.579999923706055,learn,48420.000076293945,Wed Feb 26 2025 11:26:39 GMT-0600 (Central Standard Time),589582.1999999881,A,star,O,r,393,1,1649.2999999821186,587932.900000006,7068,WL,B,5.0
4,13.946000099182129,learn,46053.99990081787,Wed Feb 26 2025 11:26:39 GMT-0600 (Central Standard Time),591948.1999999881,A,starenter,O,enter,2353,1,4015.2999999821186,587932.900000006,7068,WL,B,5.0
4,14.463000059127808,learn,45536.99994087219,Wed Feb 26 2025 11:26:39 GMT-0600 (Central Standard Time),592464.7999999821,A,c,O,c,499,1,516.1999999880791,591948.599999994,7068,WL,B,6.0
4,14.696000099182129,learn,45303.99990081787,Wed Feb 26 2025 11:26:39 GMT-0600 (Central Standard Time),592697.900000006,A,ci,O,i,214,1,749.3000000119209,591948.599999994,7068,WL,B,6.0
4,14.861999988555908,learn,45138.00001144409,Wed Feb 26 2025 11:26:39 GMT-0600 (Central Standard Time),592864.5,A,cit,O,t,157,1,915.9000000059605,591948.599999994,7068,WL,B,6.0
4,15.11299991607666,learn,44887.00008392334,Wed Feb 26 2025 11:26:39 GMT-0600 (Central Standard Time),593114.599999994,A,city,O,y,231,1,1166.0,591948.599999994,7068,WL,B,6.0
4,15.979000091552734,learn,44020.999908447266,Wed Feb 26 2025 11:26:39 GMT-0600 (Central Standard Time),593980.599999994,A,cityenter,O,enter,860,1,2032.0,591948.599999994,7068,WL,B,6.0
4,16.711999893188477,learn,43288.00010681152,Wed Feb 26 2025 11:26:39 GMT-0600 (Central Standard Time),594714.099999994,A,c,O,c,715,1,733.1999999880791,593980.900000006,7068,WL,B,7.0
4,16.977999925613403,learn,43022.0000743866,Wed Feb 26 2025 11:26:39 GMT-0600 (Central Standard Time),594980.2999999821,A,ca,O,a,261,1,999.3999999761581,593980.900000006,7068,WL,B,7.0
4,17.26200008392334,learn,42737.99991607666,Wed Feb 26 2025 11:26:39 GMT-0600 (Central Standard Time),595263.6999999881,A,cab,O,b,267,1,1282.7999999821186,593980.900000006,7068,WL,B,7.0
4,17.42799997329712,learn,42572.00002670288,Wed Feb 26 2025 11:26:39 GMT-0600 (Central Standard Time),595430.400000006,A,cabi,O,i,160,1,1449.5,593980.900000006,7068,WL,B,7.0
4,17.82800006866455,learn,42171.99993133545,Wed Feb 26 2025 11:26:39 GMT-0600 (Central Standard Time),595830.2999999821,A,cabin,O,n,393,1,1849.3999999761581,593980.900000006,7068,WL,B,7.0
4,18.628000020980835,learn,41371.999979019165,Wed Feb 26 2025 11:26:39 GMT-0600 (Central Standard Time),596629.6999999881,A,cabinenter,O,enter,792,1,2648.7999999821186,593980.900000006,7068,WL,B,7.0
4,20.061000108718872,learn,39938.99989128113,Wed Feb 26 2025 11:26:39 GMT-0600 (Central Standard Time),598063.099999994,A,l,O,l,1425,1,1433.0,596630.099999994,7068,WL,B,8.0
4,20.278000116348267,learn,39721.99988365173,Wed Feb 26 2025 11:26:39 GMT-0600 (Central Standard Time),598279.599999994,A,la,O,a,200,1,1649.5,596630.099999994,7068,WL,B,8.0
4,20.426000118255615,learn,39573.999881744385,Wed Feb 26 2025 11:26:39 GMT-0600 (Central Standard Time),598429.2999999821,A,lak,O,k,144,1,1799.199999988079,596630.099999994,7068,WL,B,8.0
4,20.627000093460083,learn,39372.99990653992,Wed Feb 26 2025 11:26:39 GMT-0600 (Central Standard Time),598630.400000006,A,lake,O,e,192,1,2000.300000011921,596630.099999994,7068,WL,B,8.0
4,20.908999919891357,learn,39091.00008010864,Wed Feb 26 2025 11:26:39 GMT-0600 (Central Standard Time),598912.599999994,A,lakeenter,O,enter,265,1,2282.5,596630.099999994,7068,WL,B,8.0
4,21.493000030517578,learn,38506.99996948242,Wed Feb 26 2025 11:26:39 GMT-0600 (Central Standard Time),599495.900000006,A,p,O,p,575,1,582.9000000059605,598913.0,7068,WL,B,9.0
4,21.776000022888184,learn,38223.99997711182,Wed Feb 26 2025 11:26:39 GMT-0600 (Central Standard Time),599779.0,A,pu,O,u,271,1,866.0,598913.0,7068,WL,B,9.0
4,21.9760000705719,learn,38023.9999294281,Wed Feb 26 2025 11:26:39 GMT-0600 (Central Standard Time),599978.900000006,A,pup,O,p,189,1,1065.9000000059605,598913.0,7068,WL,B,9.0
4,22.20900011062622,learn,37790.99988937378,Wed Feb 26 2025 11:26:39 GMT-0600 (Central Standard Time),600212.1999999881,A,pupi,O,i,221,1,1299.199999988079,598913.0,7068,WL,B,9.0
4,22.4760000705719,learn,37523.9999294281,Wed Feb 26 2025 11:26:39 GMT-0600 (Central Standard Time),600478.900000006,A,pupil,O,l,250,1,1565.9000000059605,598913.0,7068,WL,B,9.0
4,22.77500009536743,learn,37224.99990463257,Wed Feb 26 2025 11:26:39 GMT-0600 (Central Standard Time),600778.6999999881,A,pupilenter,O,enter,288,1,1865.699999988079,598913.0,7068,WL,B,9.0
4,23.22499990463257,learn,36775.00009536743,Wed Feb 26 2025 11:26:39 GMT-0600 (Central Standard Time),601228.599999994,A,c,O,c,436,1,449.5,600779.099999994,7068,WL,B,10.0
4,23.39199995994568,learn,36608.00004005432,Wed Feb 26 2025 11:26:39 GMT-0600 (Central Standard Time),601395.2999999821,A,cl,O,l,147,1,616.1999999880791,600779.099999994,7068,WL,B,10.0
4,23.592000007629395,learn,36407.999992370605,Wed Feb 26 2025 11:26:39 GMT-0600 (Central Standard Time),601595.099999994,A,clo,O,o,180,1,816.0,600779.099999994,7068,WL,B,10.0
4,23.95900011062622,learn,36040.99988937378,Wed Feb 26 2025 11:26:39 GMT-0600 (Central Standard Time),601961.900000006,A,cloc,O,c,356,1,1182.800000011921,600779.099999994,7068,WL,B,10.0
4,24.257999897003174,learn,35742.000102996826,Wed Feb 26 2025 11:26:39 GMT-0600 (Central Standard Time),602261.7999999821,A,clock,O,k,293,1,1482.699999988079,600779.099999994,7068,WL,B,10.0
4,25.757999897003174,learn,34242.000102996826,Wed Feb 26 2025 11:26:39 GMT-0600 (Central Standard Time),603761.0,A,clockenter,O,enter,1489,1,2981.9000000059605,600779.099999994,7068,WL,B,10.0
4,26.44099998474121,learn,33559.00001525879,Wed Feb 26 2025 11:26:39 GMT-0600 (Central Standard Time),604444.2999999821,A,w,O,w,678,1,682.8999999761581,603761.400000006,7068,WL,B,11.0
4,26.591000080108643,learn,33408.99991989136,Wed Feb 26 2025 11:26:39 GMT-0600 (Central Standard Time),604594.2999999821,A,wi,O,i,130,1,832.8999999761581,603761.400000006,7068,WL,B,11.0
4,26.808000087738037,learn,33191.99991226196,Wed Feb 26 2025 11:26:39 GMT-0600 (Central Standard Time),604810.900000006,A,wif,O,f,197,1,1049.5,603761.400000006,7068,WL,B,11.0
4,27.04099988937378,learn,32959.00011062622,Wed Feb 26 2025 11:26:39 GMT-0600 (Central Standard Time),605043.7999999821,A,wife,O,e,228,1,1282.3999999761581,603761.400000006,7068,WL,B,11.0
4,27.35700011253357,learn,32642.99988746643,Wed Feb 26 2025 11:26:39 GMT-0600 (Central Standard Time),605360.6999999881,A,wifeenter,O,enter,300,1,1599.2999999821186,603761.400000006,7068,WL,B,11.0
4,28.574000120162964,learn,31425.999879837036,Wed Feb 26 2025 11:26:39 GMT-0600 (Central Standard Time),606577.0,A,f,O,f,1207,1,1215.9000000059605,605361.099999994,7068,WL,B,12.0
4,29.056999921798706,learn,30943.000078201294,Wed Feb 26 2025 11:26:39 GMT-0600 (Central Standard Time),607060.2999999821,A,fi,O,i,479,1,1699.199999988079,605361.099999994,7068,WL,B,12.0
4,29.306999921798706,learn,30693.000078201294,Wed Feb 26 2025 11:26:39 GMT-0600 (Central Standard Time),607310.0,A,fir,O,r,235,1,1948.9000000059605,605361.099999994,7068,WL,B,12.0
4,29.907000064849854,learn,30092.999935150146,Wed Feb 26 2025 11:26:39 GMT-0600 (Central Standard Time),607910.099999994,A,fire,O,e,586,1,2549.0,605361.099999994,7068,WL,B,12.0
4,33.7720000743866,learn,26227.999925613403,Wed Feb 26 2025 11:26:39 GMT-0600 (Central Standard Time),611775.2999999821,A,fireenter,O,enter,3850,1,6414.199999988079,605361.099999994,7068,WL,B,12.0
4,36.13800001144409,learn,23861.99998855591,Wed Feb 26 2025 11:26:39 GMT-0600 (Central Standard Time),614141.099999994,A,c,O,c,2351,1,2365.5,611775.599999994,7068,WL,B,13.0
4,36.48699998855591,learn,23513.00001144409,Wed Feb 26 2025 11:26:39 GMT-0600 (Central Standard Time),614490.6999999881,A,ci,O,i,337,1,2715.0999999940395,611775.599999994,7068,WL,B,13.0
4,36.62100005149841,learn,23378.999948501587,Wed Feb 26 2025 11:26:39 GMT-0600 (Central Standard Time),614624.2999999821,A,cit,O,t,117,1,2848.699999988079,611775.599999994,7068,WL,B,13.0
4,36.967000007629395,learn,23032.999992370605,Wed Feb 26 2025 11:26:39 GMT-0600 (Central Standard Time),614969.900000006,A,city,O,y,340,1,3194.300000011921,611775.599999994,7068,WL,B,13.0
4,38.13700008392334,learn,21862.99991607666,Wed Feb 26 2025 11:26:39 GMT-0600 (Central Standard Time),616140.5,A,cityenter,O,enter,1165,1,4364.9000000059605,611775.599999994,7068,WL,B,13.0
4,44.901999950408936,learn,15098.000049591064,Wed Feb 26 2025 11:26:39 GMT-0600 (Central Standard Time),622905.099999994,A,s,O,s,6747,1,6764.4000000059605,616140.6999999881,7068,WL,B,14.0
4,45.21799993515015,learn,14782.000064849854,Wed Feb 26 2025 11:26:39 GMT-0600 (Central Standard Time),623221.599999994,A,sk,O,k,302,1,7080.9000000059605,616140.6999999881,7068,WL,B,14.0
4,45.401999950408936,learn,14598.000049591064,Wed Feb 26 2025 11:26:39 GMT-0600 (Central Standard Time),623404.900000006,A,ski,O,i,178,1,7264.200000017881,616140.6999999881,7068,WL,B,14.0
4,45.70199990272522,learn,14298.00009727478,Wed Feb 26 2025 11:26:39 GMT-0600 (Central Standard Time),623704.900000006,A,skin,O,n,283,1,7564.200000017881,616140.6999999881,7068,WL,B,14.0
4,46.551000118255615,learn,13448.999881744385,Wed Feb 26 2025 11:26:39 GMT-0600 (Central Standard Time),624554.599999994,A,skinenter,O,enter,839,1,8413.90000000596,616140.6999999881,7068,WL,B,14.0
4,56.03200006484985,learn,3967.9999351501465,Wed Feb 26 2025 11:26:39 GMT-0600 (Central Standard Time),634034.900000006,A,w,O,w,9461,1,9480.0,624554.900000006,7068,WL,B,15.0
4,56.23200011253357,learn,3767.9998874664307,Wed Feb 26 2025 11:26:39 GMT-0600 (Central Standard Time),634235.0,A,wi,O,i,180,1,9680.09999999404,624554.900000006,7068,WL,B,15.0
4,56.431999921798706,learn,3568.000078201294,Wed Feb 26 2025 11:26:39 GMT-0600 (Central Standard Time),634434.900000006,A,win,O,n,180,1,9880.0,624554.900000006,7068,WL,B,15.0
4,56.66499996185303,learn,3335.0000381469727,Wed Feb 26 2025 11:26:39 GMT-0600 (Central Standard Time),634668.0,A,wind,O,d,229,1,10113.09999999404,624554.900000006,7068,WL,B,15.0
4,56.89800000190735,learn,3101.9999980926514,Wed Feb 26 2025 11:26:39 GMT-0600 (Central Standard Time),634901.2999999821,A,windo,O,o,219,1,10346.399999976158,624554.900000006,7068,WL,B,15.0
4,57.41499996185303,learn,2585.0000381469727,Wed Feb 26 2025 11:26:39 GMT-0600 (Central Standard Time),635417.900000006,A,window,O,w,498,1,10863.0,624554.900000006,7068,WL,B,15.0
4,57.848000049591064,learn,2151.9999504089355,Wed Feb 26 2025 11:26:39 GMT-0600 (Central Standard Time),635851.099999994,A,windowenter,O,enter,412,1,11296.199999988079,624554.900000006,7068,WL,B,15.0
5,0.9670000076293945,learn,60000.0,Wed Feb 26 2025 11:26:39 GMT-0600 (Central Standard Time),710144.7999999821,A,s,O,s,950,1,966.5,709178.2999999821,7068,WL,B,1.0
5,1.4000000953674316,learn,60000.0,Wed Feb 26 2025 11:26:39 GMT-0600 (Central Standard Time),710578.0,A,st,O,t,414,1,1399.7000000178814,709178.2999999821,7068,WL,B,1.0
5,1.6489999294281006,learn,60000.0,Wed Feb 26 2025 11:26:39 GMT-0600 (Central Standard Time),710827.599999994,A,str,O,r,229,1,1649.300000011921,709178.2999999821,7068,WL,B,1.0
5,1.9159998893737793,learn,60000.0,Wed Feb 26 2025 11:26:39 GMT-0600 (Central Standard Time),711094.5,A,stre,O,e,252,1,1916.2000000178814,709178.2999999821,7068,WL,B,1.0
5,2.0829999446868896,learn,60000.0,Wed Feb 26 2025 11:26:39 GMT-0600 (Central Standard Time),711261.0,A,stree,O,e,153,1,2082.7000000178814,709178.2999999821,7068,WL,B,1.0
5,2.3989999294281006,learn,60000.0,Wed Feb 26 2025 11:26:39 GMT-0600 (Central Standard Time),711577.5,A,street,O,t,306,1,2399.2000000178814,709178.2999999821,7068,WL,B,1.0
5,3.4660000801086426,learn,60000.0,Wed Feb 26 2025 11:26:39 GMT-0600 (Central Standard Time),712644.0,A,streetenter,O,enter,1054,1,3465.7000000178814,709178.2999999821,7068,WL,B,1.0
5,4.082000017166138,learn,60000.0,Wed Feb 26 2025 11:26:39 GMT-0600 (Central Standard Time),713260.1999999881,A,g,O,g,595,1,615.9000000059605,712644.2999999821,7068,WL,B,2.0
5,4.315000057220459,learn,60000.0,Wed Feb 26 2025 11:26:39 GMT-0600 (Central Standard Time),713493.6999999881,A,gr,O,r,227,1,849.4000000059605,712644.2999999821,7068,WL,B,2.0
5,4.664999961853027,learn,60000.0,Wed Feb 26 2025 11:26:39 GMT-0600 (Central Standard Time),713843.400000006,A,gra,O,a,330,1,1199.1000000238419,712644.2999999821,7068,WL,B,2.0
5,4.931999921798706,learn,60000.0,Wed Feb 26 2025 11:26:39 GMT-0600 (Central Standard Time),714110.2999999821,A,gras,O,s,260,1,1466.0,712644.2999999821,7068,WL,B,2.0
5,5.398000001907349,learn,60000.0,Wed Feb 26 2025 11:26:39 GMT-0600 (Central Standard Time),714576.5,A,grass,O,s,449,1,1932.2000000178814,712644.2999999821,7068,WL,B,2.0
5,5.815000057220459,learn,60000.0,Wed Feb 26 2025 11:26:39 GMT-0600 (Central Standard Time),714993.0,A,grassenter,O,enter,399,1,2348.7000000178814,712644.2999999821,7068,WL,B,2.0
5,6.315000057220459,learn,60000.0,Wed Feb 26 2025 11:26:39 GMT-0600 (Central Standard Time),715492.6999999881,A,d,O,d,494,1,499.40000000596046,714993.2999999821,7068,WL,B,3.0
5,6.54800009727478,learn,60000.0,Wed Feb 26 2025 11:26:39 GMT-0600 (Central Standard Time),715726.2999999821,A,do,O,o,219,1,733.0,714993.2999999821,7068,WL,B,3.0
5,6.730999946594238,learn,60000.0,Wed Feb 26 2025 11:26:39 GMT-0600 (Central Standard Time),715909.400000006,A,doo,O,o,177,1,916.1000000238419,714993.2999999821,7068,WL,B,3.0
5,6.9649999141693115,learn,60000.0,Wed Feb 26 2025 11:26:39 GMT-0600 (Central Standard Time),716142.7999999821,A,door,O,r,226,1,1149.5,714993.2999999821,7068,WL,B,3.0
5,7.247999906539917,learn,60000.0,Wed Feb 26 2025 11:26:39 GMT-0600 (Central Standard Time),716426.099999994,A,doorenter,O,enter,264,1,1432.800000011921,714993.2999999821,7068,WL,B,3.0
5,7.71399998664856,learn,60000.0,Wed Feb 26 2025 11:26:39 GMT-0600 (Central Standard Time),716892.2999999821,A,w,O,w,453,1,465.89999997615814,716426.400000006,7068,WL,B,4.0
5,7.897000074386597,learn,60000.0,Wed Feb 26 2025 11:26:39 GMT-0600 (Central Standard Time),717075.5,A,wi,O,i,171,1,649.0999999940395,716426.400000006,7068,WL,B,4.0
5,8.114000082015991,learn,60000.0,Wed Feb 26 2025 11:26:39 GMT-0600 (Central Standard Time),717292.5,A,win,O,n,195,1,866.0999999940395,716426.400000006,7068,WL,B,4.0
5,8.398000001907349,learn,60000.0,Wed Feb 26 2025 11:26:39 GMT-0600 (Central Standard Time),717575.7999999821,A,wind,O,d,267,1,1149.3999999761581,716426.400000006,7068,WL,B,4.0
5,8.63100004196167,learn,60000.0,Wed Feb 26 2025 11:26:39 GMT-0600 (Central Standard Time),717808.6999999881,A,windo,O,o,216,1,1382.2999999821186,716426.400000006,7068,WL,B,4.0
5,9.77999997138977,learn,60000.0,Wed Feb 26 2025 11:26:39 GMT-0600 (Central Standard Time),718958.5,A,window,O,w,1143,1,2532.0999999940395,716426.400000006,7068,WL,B,4.0
5,10.878999948501587,learn,60000.0,Wed Feb 26 2025 11:26:39 GMT-0600 (Central Standard Time),720058.099999994,A,windowenter,O,enter,1081,1,3631.699999988079,716426.400000006,7068,WL,B,4.0
5,11.246000051498413,learn,60000.0,Wed Feb 26 2025 11:26:39 GMT-0600 (Central Standard Time),720424.7999999821,A,a,O,a,349,1,366.2999999821186,720058.5,7068,WL,B,5.0
5,11.562000036239624,learn,60000.0,Wed Feb 26 2025 11:26:39 GMT-0600 (Central Standard Time),720741.0,A,ar,O,r,310,1,682.5,720058.5,7068,WL,B,5.0
5,11.878999948501587,learn,60000.0,Wed Feb 26 2025 11:26:39 GMT-0600 (Central Standard Time),721058.099999994,A,arm,O,m,306,1,999.5999999940395,720058.5,7068,WL,B,5.0
5,12.51200008392334,learn,60000.0,Wed Feb 26 2025 11:26:39 GMT-0600 (Central Standard Time),721690.900000006,A,armenter,O,enter,614,1,1632.4000000059605,720058.5,7068,WL,B,5.0
5,13.062000036239624,learn,60000.0,Wed Feb 26 2025 11:26:39 GMT-0600 (Central Standard Time),722240.7999999821,A,s,O,s,540,1,549.5999999940395,721691.1999999881,7068,WL,B,6.0
5,13.194999933242798,learn,60000.0,Wed Feb 26 2025 11:26:39 GMT-0600 (Central Standard Time),722374.099999994,A,sk,O,k,119,1,682.9000000059605,721691.1999999881,7068,WL,B,6.0
5,13.397000074386597,learn,60000.0,Wed Feb 26 2025 11:26:39 GMT-0600 (Central Standard Time),722575.2999999821,A,ski,O,i,193,1,884.0999999940395,721691.1999999881,7068,WL,B,6.0
5,13.711999893188477,learn,60000.0,Wed Feb 26 2025 11:26:39 GMT-0600 (Central Standard Time),722890.6999999881,A,skin,O,n,304,1,1199.5,721691.1999999881,7068,WL,B,6.0
5,14.244999885559082,learn,60000.0,Wed Feb 26 2025 11:26:39 GMT-0600 (Central Standard Time),723423.900000006,A,skinenter,O,enter,517,1,1732.7000000178814,721691.1999999881,7068,WL,B,6.0
5,17.09500002861023,learn,60000.0,Wed Feb 26 2025 11:26:39 GMT-0600 (Central Standard Time),726274.0,A,c,O,c,2831,1,2849.7000000178814,723424.2999999821,7068,WL,B,7.0
5,17.377000093460083,learn,60000.0,Wed Feb 26 2025 11:26:39 GMT-0600 (Central Standard Time),726556.099999994,A,ca,O,a,261,1,3131.800000011921,723424.2999999821,7068,WL,B,7.0
5,17.82699990272522,learn,60000.0,Wed Feb 26 2025 11:26:39 GMT-0600 (Central Standard Time),727006.0,A,cab,O,b,435,1,3581.7000000178814,723424.2999999821,7068,WL,B,7.0
5,18.01099991798401,learn,60000.0,Wed Feb 26 2025 11:26:39 GMT-0600 (Central Standard Time),727189.1999999881,A,cabi,O,i,177,1,3764.9000000059605,723424.2999999821,7068,WL,B,7.0
5,18.227999925613403,learn,60000.0,Wed Feb 26 2025 11:26:39 GMT-0600 (Central Standard Time),727407.0,A,cabin,O,n,210,1,3982.7000000178814,723424.2999999821,7068,WL,B,7.0
5,18.5939998626709,learn,60000.0,Wed Feb 26 2025 11:26:39 GMT-0600 (Central Standard Time),727772.2999999821,A,cabinenter,O,enter,352,1,4348.0,723424.2999999821,7068,WL,B,7.0
5,19.0939998626709,learn,60000.0,Wed Feb 26 2025 11:26:39 GMT-0600 (Central Standard Time),728272.2999999821,A,l,O,l,483,1,499.69999998807907,727772.599999994,7068,WL,B,8.0
5,19.293999910354614,learn,60000.0,Wed Feb 26 2025 11:26:39 GMT-0600 (Central Standard Time),728472.2999999821,A,la,O,a,183,1,699.6999999880791,727772.599999994,7068,WL,B,8.0
5,19.443000078201294,learn,60000.0,Wed Feb 26 2025 11:26:39 GMT-0600 (Central Standard Time),728622.099999994,A,lak,O,k,143,1,849.5,727772.599999994,7068,WL,B,8.0
5,19.677000045776367,learn,60000.0,Wed Feb 26 2025 11:26:39 GMT-0600 (Central Standard Time),728855.400000006,A,lake,O,e,225,1,1082.800000011921,727772.599999994,7068,WL,B,8.0
5,20.109999895095825,learn,60000.0,Wed Feb 26 2025 11:26:39 GMT-0600 (Central Standard Time),729288.5,A,lakeenter,O,enter,416,1,1515.9000000059605,727772.599999994,7068,WL,B,8.0
5,22.776000022888184,learn,60000.0,Wed Feb 26 2025 11:26:39 GMT-0600 (Central Standard Time),731954.400000006,A,f,O,f,2647,1,2665.2000000178814,729289.1999999881,7068,WL,B,9.0
5,22.924999952316284,learn,60000.0,Wed Feb 26 2025 11:26:39 GMT-0600 (Central Standard Time),732104.1999999881,A,fi,O,i,133,1,2815.0,729289.1999999881,7068,WL,B,9.0
5,23.092000007629395,learn,60000.0,Wed Feb 26 2025 11:26:39 GMT-0600 (Central Standard Time),732271.099999994,A,fir,O,r,151,1,2981.9000000059605,729289.1999999881,7068,WL,B,9.0
5,23.39199995994568,learn,60000.0,Wed Feb 26 2025 11:26:39 GMT-0600 (Central Standard Time),732571.0,A,fire,O,e,288,1,3281.800000011921,729289.1999999881,7068,WL,B,9.0
5,24.108999967575073,learn,60000.0,Wed Feb 26 2025 11:26:39 GMT-0600 (Central Standard Time),733287.599999994,A,fireenter,O,enter,709,1,3998.4000000059605,729289.1999999881,7068,WL,B,9.0
5,24.842000007629395,learn,60000.0,Wed Feb 26 2025 11:26:39 GMT-0600 (Central Standard Time),734020.6999999881,A,w,O,w,720,1,732.6999999880791,733288.0,7068,WL,B,10.0
5,25.007999897003174,learn,60000.0,Wed Feb 26 2025 11:26:39 GMT-0600 (Central Standard Time),734187.0,A,wi,O,i,147,1,899.0,733288.0,7068,WL,B,10.0
5,25.22499990463257,learn,60000.0,Wed Feb 26 2025 11:26:39 GMT-0600 (Central Standard Time),734403.7999999821,A,wif,O,f,196,1,1115.7999999821186,733288.0,7068,WL,B,10.0
5,25.591000080108643,learn,60000.0,Wed Feb 26 2025 11:26:39 GMT-0600 (Central Standard Time),734770.099999994,A,wife,O,e,348,1,1482.0999999940395,733288.0,7068,WL,B,10.0
5,26.35800004005432,learn,60000.0,Wed Feb 26 2025 11:26:39 GMT-0600 (Central Standard Time),735536.6999999881,A,wifeenter,O,enter,757,1,2248.699999988079,733288.0,7068,WL,B,10.0
5,26.973999977111816,learn,60000.0,Wed Feb 26 2025 11:26:39 GMT-0600 (Central Standard Time),736153.099999994,A,c,O,c,607,1,616.0999999940395,735537.0,7068,WL,B,11.0
5,27.174000024795532,learn,60000.0,Wed Feb 26 2025 11:26:39 GMT-0600 (Central Standard Time),736353.0,A,ci,O,i,182,1,816.0,735537.0,7068,WL,B,11.0
5,27.35800004005432,learn,60000.0,Wed Feb 26 2025 11:26:39 GMT-0600 (Central Standard Time),736536.2999999821,A,cit,O,t,166,1,999.2999999821186,735537.0,7068,WL,B,11.0
5,27.573999881744385,learn,60000.0,Wed Feb 26 2025 11:26:39 GMT-0600 (Central Standard Time),736753.0,A,city,O,y,207,1,1216.0,735537.0,7068,WL,B,11.0
5,27.924000024795532,learn,60000.0,Wed Feb 26 2025 11:26:39 GMT-0600 (Central Standard Time),737102.7999999821,A,cityenter,O,enter,334,1,1565.7999999821186,735537.0,7068,WL,B,11.0
5,28.407000064849854,learn,60000.0,Wed Feb 26 2025 11:26:39 GMT-0600 (Central Standard Time),737586.1999999881,A,s,O,s,464,1,483.09999999403954,737103.099999994,7068,WL,B,12.0
5,28.723999977111816,learn,60000.0,Wed Feb 26 2025 11:26:39 GMT-0600 (Central Standard Time),737902.5,A,st,O,t,301,1,799.4000000059605,737103.099999994,7068,WL,B,12.0
5,28.889999866485596,learn,60000.0,Wed Feb 26 2025 11:26:39 GMT-0600 (Central Standard Time),738068.900000006,A,sta,O,a,161,1,965.8000000119209,737103.099999994,7068,WL,B,12.0
5,29.289999961853027,learn,60000.0,Wed Feb 26 2025 11:26:39 GMT-0600 (Central Standard Time),738469.1999999881,A,star,O,r,387,1,1366.0999999940395,737103.099999994,7068,WL,B,12.0
5,30.407000064849854,learn,60000.0,Wed Feb 26 2025 11:26:39 GMT-0600 (Central Standard Time),739585.400000006,A,starenter,O,enter,1098,1,2482.300000011921,737103.099999994,7068,WL,B,12.0
5,31.73900008201599,learn,60000.0,Wed Feb 26 2025 11:26:39 GMT-0600 (Central Standard Time),740918.1999999881,A,c,O,c,1326,1,1332.5,739585.6999999881,7068,WL,B,13.0
5,31.889999866485596,learn,60000.0,Wed Feb 26 2025 11:26:39 GMT-0600 (Central Standard Time),741068.400000006,A,cl,O,l,129,1,1482.7000000178814,739585.6999999881,7068,WL,B,13.0
5,32.039000034332275,learn,60000.0,Wed Feb 26 2025 11:26:39 GMT-0600 (Central Standard Time),741218.099999994,A,clo,O,o,139,1,1632.4000000059605,739585.6999999881,7068,WL,B,13.0
5,32.223000049591064,learn,60000.0,Wed Feb 26 2025 11:26:39 GMT-0600 (Central Standard Time),741401.5,A,clov,O,v,174,1,1815.800000011921,739585.6999999881,7068,WL,B,13.0
5,33.00600004196167,learn,60000.0,Wed Feb 26 2025 11:26:39 GMT-0600 (Central Standard Time),742184.5,A,clovk,O,k,766,1,2598.800000011921,739585.6999999881,7068,WL,B,13.0
5,34.08899998664856,learn,60000.0,Wed Feb 26 2025 11:26:39 GMT-0600 (Central Standard Time),743267.5,A,clovkenter,O,enter,1071,1,3681.800000011921,739585.6999999881,7068,WL,B,13.0
5,39.28699994087219,learn,60000.0,Wed Feb 26 2025 11:26:39 GMT-0600 (Central Standard Time),748466.0,A,s,O,s,5188,1,5198.0999999940395,743267.900000006,7068,WL,B,14.0
5,39.8199999332428,learn,60000.0,Wed Feb 26 2025 11:26:39 GMT-0600 (Central Standard Time),748999.099999994,A,st,O,t,517,1,5731.199999988079,743267.900000006,7068,WL,B,14.0
5,40.53699994087219,learn,60000.0,Wed Feb 26 2025 11:26:39 GMT-0600 (Central Standard Time),749715.599999994,A,str,O,r,704,1,6447.699999988079,743267.900000006,7068,WL,B,14.0
5,41.11999988555908,learn,60000.0,Wed Feb 26 2025 11:26:39 GMT-0600 (Central Standard Time),750298.6999999881,A,stre,O,e,572,1,7030.799999982119,743267.900000006,7068,WL,B,14.0
5,41.45300006866455,learn,60000.0,Wed Feb 26 2025 11:26:39 GMT-0600 (Central Standard Time),750632.099999994,A,stree,O,e,317,1,7364.199999988079,743267.900000006,7068,WL,B,14.0
5,41.986000061035156,learn,60000.0,Wed Feb 26 2025 11:26:39 GMT-0600 (Central Standard Time),751165.0,A,street,O,t,527,1,7897.0999999940395,743267.900000006,7068,WL,B,14.0
5,43.80299997329712,learn,60000.0,Wed Feb 26 2025 11:26:39 GMT-0600 (Central Standard Time),752981.2999999821,A,streetenter,O,enter,1802,1,9713.399999976158,743267.900000006,7068,WL,B,14.0
5,67.27799987792969,learn,60000.0,Wed Feb 26 2025 11:26:39 GMT-0600 (Central Standard Time),776457.1999999881,A,p,O,p,23458,1,23475.69999998808,752981.5,7068,WL,B,15.0
6,1.1160001754760742,distr,58883.999824523926,Wed Feb 26 2025 11:26:39 GMT-0600 (Central Standard Time),864913.2999999821,B,b,O,b,1107,1,1116.3999999761581,863796.900000006,7068,WL,B,1.0
6,1.2830002307891846,distr,58716.999769210815,Wed Feb 26 2025 11:26:39 GMT-0600 (Central Standard Time),865079.6999999881,B,ba,O,a,157,1,1282.7999999821186,863796.900000006,7068,WL,B,1.0
6,1.4830000400543213,distr,58516.99995994568,Wed Feb 26 2025 11:26:39 GMT-0600 (Central Standard Time),865279.599999994,B,bab,O,b,184,1,1482.699999988079,863796.900000006,7068,WL,B,1.0
6,1.9660000801086426,distr,58033.99991989136,Wed Feb 26 2025 11:26:39 GMT-0600 (Central Standard Time),865762.599999994,B,baby,O,y,472,1,1965.699999988079,863796.900000006,7068,WL,B,1.0
6,2.5160000324249268,distr,57483.99996757507,Wed Feb 26 2025 11:26:39 GMT-0600 (Central Standard Time),866312.5,B,babyenter,O,enter,532,1,2515.5999999940395,863796.900000006,7068,WL,B,1.0
6,3.0820000171661377,distr,56917.99998283386,Wed Feb 26 2025 11:26:39 GMT-0600 (Central Standard Time),866879.0,B,o,O,o,559,1,566.2000000178814,866312.7999999821,7068,WL,B,2.0
6,3.382000207901001,distr,56617.999792099,Wed Feb 26 2025 11:26:39 GMT-0600 (Central Standard Time),867179.0,B,oc,O,c,288,1,866.2000000178814,866312.7999999821,7068,WL,B,2.0
6,3.632000207901001,distr,56367.999792099,Wed Feb 26 2025 11:26:39 GMT-0600 (Central Standard Time),867428.900000006,B,oce,O,e,244,1,1116.1000000238419,866312.7999999821,7068,WL,B,2.0
6,3.9150002002716064,distr,56084.99979972839,Wed Feb 26 2025 11:26:39 GMT-0600 (Central Standard Time),867712.1999999881,B,ocea,O,a,267,1,1399.4000000059605,866312.7999999821,7068,WL,B,2.0
6,4.465000152587891,distr,55534.99984741211,Wed Feb 26 2025 11:26:39 GMT-0600 (Central Standard Time),868262.0,B,ocean,O,n,535,1,1949.2000000178814,866312.7999999821,7068,WL,B,2.0
6,6.614000082015991,distr,53385.99991798401,Wed Feb 26 2025 11:26:39 GMT-0600 (Central Standard Time),870411.1999999881,B,oceanenter,O,enter,2130,1,4098.4000000059605,866312.7999999821,7068,WL,B,2.0
6,7.215000152587891,distr,52784.99984741211,Wed Feb 26 2025 11:26:39 GMT-0600 (Central Standard Time),871011.5,B,c,O,c,580,1,600.0,870411.5,7068,WL,B,3.0
6,7.464000225067139,distr,52535.99977493286,Wed Feb 26 2025 11:26:39 GMT-0600 (Central Standard Time),871260.7999999821,B,ce,O,e,236,1,849.2999999821186,870411.5,7068,WL,B,3.0
6,7.748000144958496,distr,52251.999855041504,Wed Feb 26 2025 11:26:39 GMT-0600 (Central Standard Time),871544.2999999821,B,cel,O,l,275,1,1132.7999999821186,870411.5,7068,WL,B,3.0
6,7.931000232696533,distr,52068.99976730347,Wed Feb 26 2025 11:26:39 GMT-0600 (Central Standard Time),871727.5,B,cell,O,l,165,1,1316.0,870411.5,7068,WL,B,3.0
6,8.247000217437744,distr,51752.999782562256,Wed Feb 26 2025 11:26:39 GMT-0600 (Central Standard Time),872044.1999999881,B,cellenter,O,enter,304,1,1632.699999988079,870411.5,7068,WL,B,3.0
6,8.680000066757202,distr,51319.9999332428,Wed Feb 26 2025 11:26:39 GMT-0600 (Central Standard Time),872477.1999999881,B,p,O,p,419,1,432.69999998807907,872044.5,7068,WL,B,4.0
6,8.880000114440918,distr,51119.99988555908,Wed Feb 26 2025 11:26:39 GMT-0600 (Central Standard Time),872677.0,B,pa,O,a,194,1,632.5,872044.5,7068,WL,B,4.0
6,9.114000082015991,distr,50885.99991798401,Wed Feb 26 2025 11:26:39 GMT-0600 (Central Standard Time),872910.599999994,B,pal,O,l,227,1,866.0999999940395,872044.5,7068,WL,B,4.0
6,9.380000114440918,distr,50619.99988555908,Wed Feb 26 2025 11:26:39 GMT-0600 (Central Standard Time),873177.0,B,palc,O,c,249,1,1132.5,872044.5,7068,WL,B,4.0
6,9.664000034332275,distr,50335.999965667725,Wed Feb 26 2025 11:26:39 GMT-0600 (Central Standard Time),873460.400000006,B,palce,O,e,279,1,1415.9000000059605,872044.5,7068,WL,B,4.0
6,10.497000217437744,distr,49502.999782562256,Wed Feb 26 2025 11:26:39 GMT-0600 (Central Standard Time),874293.6999999881,B,palceenter,O,enter,819,1,2249.199999988079,872044.5,7068,WL,B,4.0
6,10.980000019073486,distr,49019.999980926514,Wed Feb 26 2025 11:26:39 GMT-0600 (Central Standard Time),874776.5,B,c,O,c,474,1,482.5,874294.0,7068,WL,B,5.0
6,11.163000106811523,distr,48836.99989318848,Wed Feb 26 2025 11:26:39 GMT-0600 (Central Standard Time),874959.7999999821,B,co,O,o,175,1,665.7999999821186,874294.0,7068,WL,B,5.0
6,11.630000114440918,distr,48369.99988555908,Wed Feb 26 2025 11:26:39 GMT-0600 (Central Standard Time),875426.5,B,coi,O,i,455,1,1132.5,874294.0,7068,WL,B,5.0
6,12.163000106811523,distr,47836.99989318848,Wed Feb 26 2025 11:26:39 GMT-0600 (Central Standard Time),875959.400000006,B,coin,O,n,517,1,1665.4000000059605,874294.0,7068,WL,B,5.0
6,14.745000123977661,distr,45254.99987602234,Wed Feb 26 2025 11:26:39 GMT-0600 (Central Standard Time),878542.099999994,B,coinenter,O,enter,2568,1,4248.0999999940395,874294.0,7068,WL,B,5.0
6,15.178000211715698,distr,44821.9997882843,Wed Feb 26 2025 11:26:39 GMT-0600 (Central Standard Time),878975.099999994,B,f,O,f,425,1,432.69999998807907,878542.400000006,7068,WL,B,6.0
6,15.395000219345093,distr,44604.99978065491,Wed Feb 26 2025 11:26:39 GMT-0600 (Central Standard Time),879191.900000006,B,fr,O,r,200,1,649.5,878542.400000006,7068,WL,B,6.0
6,15.561000108718872,distr,44438.99989128113,Wed Feb 26 2025 11:26:39 GMT-0600 (Central Standard Time),879358.2999999821,B,fri,O,i,152,1,815.8999999761581,878542.400000006,7068,WL,B,6.0
6,15.728000164031982,distr,44271.99983596802,Wed Feb 26 2025 11:26:39 GMT-0600 (Central Standard Time),879524.6999999881,B,frie,O,e,161,1,982.2999999821186,878542.400000006,7068,WL,B,6.0
6,15.928000211715698,distr,44071.9997882843,Wed Feb 26 2025 11:26:39 GMT-0600 (Central Standard Time),879724.7999999821,B,frien,O,n,194,1,1182.3999999761581,878542.400000006,7068,WL,B,6.0
6,16.378000020980835,distr,43621.999979019165,Wed Feb 26 2025 11:26:39 GMT-0600 (Central Standard Time),880174.900000006,B,friend,O,d,435,1,1632.5,878542.400000006,7068,WL,B,6.0
6,17.09500002861023,distr,42904.99997138977,Wed Feb 26 2025 11:26:39 GMT-0600 (Central Standard Time),880891.400000006,B,friendenter,O,enter,704,1,2349.0,878542.400000006,7068,WL,B,6.0
6,17.461000204086304,distr,42538.999795913696,Wed Feb 26 2025 11:26:39 GMT-0600 (Central Standard Time),881257.7999999821,B,a,O,a,356,1,366.0,880891.7999999821,7068,WL,B,7.0
6,17.82800006866455,distr,42171.99993133545,Wed Feb 26 2025 11:26:39 GMT-0600 (Central Standard Time),881624.2999999821,B,ar,O,r,358,1,732.5,880891.7999999821,7068,WL,B,7.0
6,18.47699999809265,distr,41523.00000190735,Wed Feb 26 2025 11:26:39 GMT-0600 (Central Standard Time),882274.2999999821,B,arm,O,m,639,1,1382.5,880891.7999999821,7068,WL,B,7.0
6,18.794000148773193,distr,41205.99985122681,Wed Feb 26 2025 11:26:39 GMT-0600 (Central Standard Time),882590.599999994,B,army,O,y,301,1,1698.800000011921,880891.7999999821,7068,WL,B,7.0
6,18.99400019645691,distr,41005.99980354309,Wed Feb 26 2025 11:26:39 GMT-0600 (Central Standard Time),882790.6999999881,B,armyenter,O,enter,193,1,1898.9000000059605,880891.7999999821,7068,WL,B,7.0
6,19.344000101089478,distr,40655.99989891052,Wed Feb 26 2025 11:26:39 GMT-0600 (Central Standard Time),883140.400000006,B,b,O,b,345,1,349.40000000596046,882791.0,7068,WL,B,8.0
6,19.594000101089478,distr,40405.99989891052,Wed Feb 26 2025 11:26:39 GMT-0600 (Central Standard Time),883390.6999999881,B,bu,O,u,243,1,599.6999999880791,882791.0,7068,WL,B,8.0
6,19.777000188827515,distr,40222.999811172485,Wed Feb 26 2025 11:26:39 GMT-0600 (Central Standard Time),883573.5,B,bui,O,i,177,1,782.5,882791.0,7068,WL,B,8.0
6,19.99400019645691,distr,40005.99980354309,Wed Feb 26 2025 11:26:39 GMT-0600 (Central Standard Time),883790.400000006,B,buil,O,l,208,1,999.4000000059605,882791.0,7068,WL,B,8.0
6,20.344000101089478,distr,39655.99989891052,Wed Feb 26 2025 11:26:39 GMT-0600 (Central Standard Time),884140.400000006,B,build,O,d,329,1,1349.4000000059605,882791.0,7068,WL,B,8.0
6,20.527000188827515,distr,39472.999811172485,Wed Feb 26 2025 11:26:39 GMT-0600 (Central Standard Time),884323.400000006,B,buildi,O,i,163,1,1532.4000000059605,882791.0,7068,WL,B,8.0
6,20.710000038146973,distr,39289.99996185303,Wed Feb 26 2025 11:26:39 GMT-0600 (Central Standard Time),884507.0,B,buildin,O,n,164,1,1716.0,882791.0,7068,WL,B,8.0
6,20.91000008583069,distr,39089.99991416931,Wed Feb 26 2025 11:26:39 GMT-0600 (Central Standard Time),884706.599999994,B,building,O,g,181,1,1915.5999999940395,882791.0,7068,WL,B,8.0
6,21.427000045776367,distr,38572.99995422363,Wed Feb 26 2025 11:26:39 GMT-0600 (Central Standard Time),885223.400000006,B,buildingenter,O,enter,509,1,2432.4000000059605,882791.0,7068,WL,B,8.0
6,25.425000190734863,distr,34574.99980926514,Wed Feb 26 2025 11:26:39 GMT-0600 (Central Standard Time),889222.099999994,B,s,O,s,3984,1,3998.4000000059605,885223.6999999881,7068,WL,B,9.0
6,25.80900001525879,distr,34190.99998474121,Wed Feb 26 2025 11:26:39 GMT-0600 (Central Standard Time),889605.900000006,B,st,O,t,369,1,4382.200000017881,885223.6999999881,7068,WL,B,9.0
6,26.092000007629395,distr,33907.999992370605,Wed Feb 26 2025 11:26:39 GMT-0600 (Central Standard Time),889888.400000006,B,sto,O,o,265,1,4664.700000017881,885223.6999999881,7068,WL,B,9.0
6,26.341000080108643,distr,33658.99991989136,Wed Feb 26 2025 11:26:39 GMT-0600 (Central Standard Time),890138.2999999821,B,stor,O,r,239,1,4914.5999999940395,885223.6999999881,7068,WL,B,9.0
6,27.35800004005432,distr,32641.99995994568,Wed Feb 26 2025 11:26:39 GMT-0600 (Central Standard Time),891154.400000006,B,storm,O,m,1005,1,5930.700000017881,885223.6999999881,7068,WL,B,9.0
6,29.374000072479248,distr,30625.999927520752,Wed Feb 26 2025 11:26:39 GMT-0600 (Central Standard Time),893170.900000006,B,stormenter,O,enter,1996,1,7947.200000017881,885223.6999999881,7068,WL,B,9.0
6,46.76800012588501,distr,13231.99987411499,Wed Feb 26 2025 11:26:39 GMT-0600 (Central Standard Time),910565.2999999821,B,c,O,c,17380,1,17394.09999999404,893171.1999999881,7068,WL,B,10.0
6,46.985000133514404,distr,13014.999866485596,Wed Feb 26 2025 11:26:39 GMT-0600 (Central Standard Time),910782.0,B,ce,O,e,210,1,17610.80000001192,893171.1999999881,7068,WL,B,10.0
6,47.151000022888184,distr,12848.999977111816,Wed Feb 26 2025 11:26:39 GMT-0600 (Central Standard Time),910948.5,B,cel,O,l,162,1,17777.30000001192,893171.1999999881,7068,WL,B,10.0
6,47.33400011062622,distr,12665.99988937378,Wed Feb 26 2025 11:26:39 GMT-0600 (Central Standard Time),911131.7999999821,B,cell,O,l,163,1,17960.59999999404,893171.1999999881,7068,WL,B,10.0
6,47.651000022888184,distr,12348.999977111816,Wed Feb 26 2025 11:26:39 GMT-0600 (Central Standard Time),911448.400000006,B,cellenter,O,enter,300,1,18277.20000001788,893171.1999999881,7068,WL,B,10.0
6,57.098000049591064,distr,2901.9999504089355,Wed Feb 26 2025 11:26:39 GMT-0600 (Central Standard Time),920895.099999994,B,p,O,p,9439,1,9446.40000000596,911448.6999999881,7068,WL,B,11.0
6,57.32200002670288,distr,2677.999973297119,Wed Feb 26 2025 11:26:39 GMT-0600 (Central Standard Time),921119.599999994,B,pa,O,a,219,1,9670.90000000596,911448.6999999881,7068,WL,B,11.0
6,57.46900010108948,distr,2530.9998989105225,Wed Feb 26 2025 11:26:39 GMT-0600 (Central Standard Time),921266.6999999881,B,pal,O,l,142,1,9818.0,911448.6999999881,7068,WL,B,11.0
6,57.81400012969971,distr,2185.999870300293,Wed Feb 26 2025 11:26:39 GMT-0600 (Central Standard Time),921611.6999999881,B,pala,O,a,325,1,10163.0,911448.6999999881,7068,WL,B,11.0
6,58.165000200271606,distr,1834.9997997283936,Wed Feb 26 2025 11:26:39 GMT-0600 (Central Standard Time),921962.099999994,B,palac,O,c,332,1,10513.40000000596,911448.6999999881,7068,WL,B,11.0
6,59.21400022506714,distr,785.9997749328613,Wed Feb 26 2025 11:26:39 GMT-0600 (Central Standard Time),923011.400000006,B,palace,O,e,1029,1,11562.700000017881,911448.6999999881,7068,WL,B,11.0
6,59.48100018501282,distr,518.9998149871826,Wed Feb 26 2025 11:26:39 GMT-0600 (Central Standard Time),923278.1999999881,B,palaceenter,O,enter,252,1,11829.5,911448.6999999881,7068,WL,B,11.0
6,60.01400017738342,distr,-14.000177383422852,Wed Feb 26 2025 11:26:39 GMT-0600 (Central Standard Time),923811.5,B,None,O,None,528,1,533.0,923278.5,7068,WL,B,12.0
7,0.7160000801086426,immed,59283.99991989136,Wed Feb 26 2025 11:26:39 GMT-0600 (Central Standard Time),953085.2999999821,A,s,O,s,703,1,716.0,952369.2999999821,7068,WL,B,1.0
7,0.8660001754760742,immed,59133.999824523926,Wed Feb 26 2025 11:26:39 GMT-0600 (Central Standard Time),953235.0,A,st,O,t,138,1,865.7000000178814,952369.2999999821,7068,WL,B,1.0
7,1.1660001277923584,immed,58833.99987220764,Wed Feb 26 2025 11:26:39 GMT-0600 (Central Standard Time),953535.400000006,A,str,O,r,284,1,1166.1000000238419,952369.2999999821,7068,WL,B,1.0
7,1.4490001201629639,immed,58550.999879837036,Wed Feb 26 2025 11:26:39 GMT-0600 (Central Standard Time),953818.400000006,A,stre,O,e,272,1,1449.1000000238419,952369.2999999821,7068,WL,B,1.0
7,1.5989999771118164,immed,58401.00002288818,Wed Feb 26 2025 11:26:39 GMT-0600 (Central Standard Time),953968.5,A,stree,O,e,133,1,1599.2000000178814,952369.2999999821,7068,WL,B,1.0
7,1.9660000801086426,immed,58033.99991989136,Wed Feb 26 2025 11:26:39 GMT-0600 (Central Standard Time),954335.0,A,street,O,t,359,1,1965.7000000178814,952369.2999999821,7068,WL,B,1.0
7,2.7320001125335693,immed,57267.99988746643,Wed Feb 26 2025 11:26:39 GMT-0600 (Central Standard Time),955101.1999999881,A,streetenter,O,enter,760,1,2731.9000000059605,952369.2999999821,7068,WL,B,1.0
7,3.249000072479248,immed,56750.99992752075,Wed Feb 26 2025 11:26:39 GMT-0600 (Central Standard Time),955617.900000006,A,g,O,g,506,1,516.3000000119209,955101.599999994,7068,WL,B,2.0
7,3.4650001525878906,immed,56534.99984741211,Wed Feb 26 2025 11:26:39 GMT-0600 (Central Standard Time),955834.5,A,gr,O,r,205,1,732.9000000059605,955101.599999994,7068,WL,B,2.0
7,3.8480000495910645,immed,56151.999950408936,Wed Feb 26 2025 11:26:39 GMT-0600 (Central Standard Time),956217.6999999881,A,gra,O,a,365,1,1116.0999999940395,955101.599999994,7068,WL,B,2.0
7,4.13100004196167,immed,55868.99995803833,Wed Feb 26 2025 11:26:39 GMT-0600 (Central Standard Time),956500.7999999821,A,gras,O,s,278,1,1399.199999988079,955101.599999994,7068,WL,B,2.0
7,4.29800009727478,immed,55701.99990272522,Wed Feb 26 2025 11:26:39 GMT-0600 (Central Standard Time),956667.599999994,A,grass,O,s,147,1,1566.0,955101.599999994,7068,WL,B,2.0
7,4.79800009727478,immed,55201.99990272522,Wed Feb 26 2025 11:26:39 GMT-0600 (Central Standard Time),957167.599999994,A,grassenter,O,enter,492,1,2066.0,955101.599999994,7068,WL,B,2.0
7,5.265000104904175,immed,54734.999895095825,Wed Feb 26 2025 11:26:39 GMT-0600 (Central Standard Time),957634.099999994,A,d,O,d,456,1,466.19999998807907,957167.900000006,7068,WL,B,3.0
7,5.531000137329102,immed,54468.9998626709,Wed Feb 26 2025 11:26:39 GMT-0600 (Central Standard Time),957900.2999999821,A,do,O,o,247,1,732.3999999761581,957167.900000006,7068,WL,B,3.0
7,5.698000192642212,immed,54301.99980735779,Wed Feb 26 2025 11:26:39 GMT-0600 (Central Standard Time),958066.900000006,A,doo,O,o,147,1,899.0,957167.900000006,7068,WL,B,3.0
7,5.930999994277954,immed,54069.000005722046,Wed Feb 26 2025 11:26:39 GMT-0600 (Central Standard Time),958300.400000006,A,door,O,r,228,1,1132.5,957167.900000006,7068,WL,B,3.0
7,6.331000089645386,immed,53668.999910354614,Wed Feb 26 2025 11:26:39 GMT-0600 (Central Standard Time),958700.2999999821,A,doorenter,O,enter,395,1,1532.3999999761581,957167.900000006,7068,WL,B,3.0
7,6.815000057220459,immed,53184.99994277954,Wed Feb 26 2025 11:26:39 GMT-0600 (Central Standard Time),959184.6999999881,A,w,O,w,475,1,484.19999998807907,958700.5,7068,WL,B,4.0
7,7.2799999713897705,immed,52720.00002861023,Wed Feb 26 2025 11:26:39 GMT-0600 (Central Standard Time),959650.099999994,A,wi,O,i,455,1,949.5999999940395,958700.5,7068,WL,B,4.0
7,7.547000169754028,immed,52452.99983024597,Wed Feb 26 2025 11:26:39 GMT-0600 (Central Standard Time),959916.400000006,A,win,O,n,253,1,1215.9000000059605,958700.5,7068,WL,B,4.0
7,7.746999979019165,immed,52253.000020980835,Wed Feb 26 2025 11:26:39 GMT-0600 (Central Standard Time),960116.2999999821,A,wind,O,d,195,1,1415.7999999821186,958700.5,7068,WL,B,4.0
7,7.897000074386597,immed,52102.9999256134,Wed Feb 26 2025 11:26:39 GMT-0600 (Central Standard Time),960266.400000006,A,windo,O,o,139,1,1565.9000000059605,958700.5,7068,WL,B,4.0
7,8.398000001907349,immed,51601.99999809265,Wed Feb 26 2025 11:26:39 GMT-0600 (Central Standard Time),960767.400000006,A,window,O,w,484,1,2066.9000000059605,958700.5,7068,WL,B,4.0
7,8.847000122070312,immed,51152.99987792969,Wed Feb 26 2025 11:26:39 GMT-0600 (Central Standard Time),961216.1999999881,A,windowenter,O,enter,440,1,2515.699999988079,958700.5,7068,WL,B,4.0
7,10.029000043869019,immed,49970.99995613098,Wed Feb 26 2025 11:26:39 GMT-0600 (Central Standard Time),962399.1999999881,A,c,O,c,1175,1,1182.5999999940395,961216.599999994,7068,WL,B,5.0
7,10.34600019454956,immed,49653.99980545044,Wed Feb 26 2025 11:26:39 GMT-0600 (Central Standard Time),962715.6999999881,A,ca,O,a,296,1,1499.0999999940395,961216.599999994,7068,WL,B,5.0
7,10.779000043869019,immed,49220.99995613098,Wed Feb 26 2025 11:26:39 GMT-0600 (Central Standard Time),963148.6999999881,A,cab,O,b,428,1,1932.0999999940395,961216.599999994,7068,WL,B,5.0
7,10.946000099182129,immed,49053.99990081787,Wed Feb 26 2025 11:26:39 GMT-0600 (Central Standard Time),963315.5,A,cabi,O,i,155,1,2098.9000000059605,961216.599999994,7068,WL,B,5.0
7,11.146000146865845,immed,48853.999853134155,Wed Feb 26 2025 11:26:39 GMT-0600 (Central Standard Time),963515.400000006,A,cabin,O,n,180,1,2298.800000011921,961216.599999994,7068,WL,B,5.0
7,11.545000076293945,immed,48454.999923706055,Wed Feb 26 2025 11:26:39 GMT-0600 (Central Standard Time),963915.1999999881,A,cabinenter,O,enter,380,1,2698.5999999940395,961216.599999994,7068,WL,B,5.0
7,11.945000171661377,immed,48054.99982833862,Wed Feb 26 2025 11:26:39 GMT-0600 (Central Standard Time),964315.099999994,A,l,O,l,380,1,399.69999998807907,963915.400000006,7068,WL,B,6.0
7,12.111999988555908,immed,47888.00001144409,Wed Feb 26 2025 11:26:39 GMT-0600 (Central Standard Time),964481.599999994,A,la,O,a,149,1,566.1999999880791,963915.400000006,7068,WL,B,6.0
7,12.245000123977661,immed,47754.99987602234,Wed Feb 26 2025 11:26:39 GMT-0600 (Central Standard Time),964615.099999994,A,lak,O,k,126,1,699.6999999880791,963915.400000006,7068,WL,B,6.0
7,12.495000123977661,immed,47504.99987602234,Wed Feb 26 2025 11:26:39 GMT-0600 (Central Standard Time),964865.0,A,lake,O,e,232,1,949.5999999940395,963915.400000006,7068,WL,B,6.0
7,12.945000171661377,immed,47054.99982833862,Wed Feb 26 2025 11:26:39 GMT-0600 (Central Standard Time),965315.0,A,lakeenter,O,enter,438,1,1399.5999999940395,963915.400000006,7068,WL,B,6.0
7,13.945000171661377,immed,46054.99982833862,Wed Feb 26 2025 11:26:39 GMT-0600 (Central Standard Time),966314.6999999881,A,f,O,f,980,1,999.2999999821186,965315.400000006,7068,WL,B,7.0
7,14.09500002861023,immed,45904.99997138977,Wed Feb 26 2025 11:26:39 GMT-0600 (Central Standard Time),966464.7999999821,A,fi,O,i,141,1,1149.3999999761581,965315.400000006,7068,WL,B,7.0
7,14.245000123977661,immed,45754.99987602234,Wed Feb 26 2025 11:26:39 GMT-0600 (Central Standard Time),966614.400000006,A,fir,O,r,134,1,1299.0,965315.400000006,7068,WL,B,7.0
7,14.511000156402588,immed,45488.99984359741,Wed Feb 26 2025 11:26:39 GMT-0600 (Central Standard Time),966881.0,A,fire,O,e,249,1,1565.5999999940395,965315.400000006,7068,WL,B,7.0
7,14.795000076293945,immed,45204.999923706055,Wed Feb 26 2025 11:26:39 GMT-0600 (Central Standard Time),967164.2999999821,A,fireenter,O,enter,270,1,1848.8999999761581,965315.400000006,7068,WL,B,7.0
7,15.278000116348267,immed,44721.99988365173,Wed Feb 26 2025 11:26:39 GMT-0600 (Central Standard Time),967647.5,A,p,O,p,475,1,482.80000001192093,967164.6999999881,7068,WL,B,8.0
7,15.461000204086304,immed,44538.999795913696,Wed Feb 26 2025 11:26:39 GMT-0600 (Central Standard Time),967830.7999999821,A,pi,O,i,168,1,666.0999999940395,967164.6999999881,7068,WL,B,8.0
7,15.611000061035156,immed,44388.999938964844,Wed Feb 26 2025 11:26:39 GMT-0600 (Central Standard Time),967980.5,A,pip,O,p,145,1,815.8000000119209,967164.6999999881,7068,WL,B,8.0
7,15.972000122070312,immed,44027.99987792969,Wed Feb 26 2025 11:26:39 GMT-0600 (Central Standard Time),968341.900000006,A,pipe,O,e,219,1,1177.2000000178814,967164.6999999881,7068,WL,B,8.0
7,16.511000156402588,immed,43488.99984359741,Wed Feb 26 2025 11:26:39 GMT-0600 (Central Standard Time),968880.2999999821,A,pipeenter,O,enter,529,1,1715.5999999940395,967164.6999999881,7068,WL,B,8.0
7,18.792999982833862,immed,41207.00001716614,Wed Feb 26 2025 11:26:39 GMT-0600 (Central Standard Time),971163.099999994,A,c,O,c,2263,1,2282.4000000059605,968880.6999999881,7068,WL,B,9.0
7,19.027000188827515,immed,40972.999811172485,Wed Feb 26 2025 11:26:39 GMT-0600 (Central Standard Time),971396.5,A,cl,O,l,213,1,2515.800000011921,968880.6999999881,7068,WL,B,9.0
7,19.261000156402588,immed,40738.99984359741,Wed Feb 26 2025 11:26:39 GMT-0600 (Central Standard Time),971630.7999999821,A,clo,O,o,219,1,2750.0999999940395,968880.6999999881,7068,WL,B,9.0
7,19.64300012588501,immed,40356.99987411499,Wed Feb 26 2025 11:26:39 GMT-0600 (Central Standard Time),972012.900000006,A,cloc,O,c,376,1,3132.2000000178814,968880.6999999881,7068,WL,B,9.0
7,20.12600016593933,immed,39873.99983406067,Wed Feb 26 2025 11:26:39 GMT-0600 (Central Standard Time),972496.099999994,A,clock,O,k,475,1,3615.4000000059605,968880.6999999881,7068,WL,B,9.0
7,21.325999975204468,immed,38674.00002479553,Wed Feb 26 2025 11:26:39 GMT-0600 (Central Standard Time),973695.6999999881,A,clockenter,O,enter,1191,1,4815.0,968880.6999999881,7068,WL,B,9.0
7,21.66000008583069,immed,38339.99991416931,Wed Feb 26 2025 11:26:39 GMT-0600 (Central Standard Time),974030.099999994,A,a,O,a,327,1,333.80000001192093,973696.2999999821,7068,WL,B,10.0
7,21.993000030517578,immed,38006.99996948242,Wed Feb 26 2025 11:26:39 GMT-0600 (Central Standard Time),974362.400000006,A,ar,O,r,313,1,666.1000000238419,973696.2999999821,7068,WL,B,10.0
7,22.242000102996826,immed,37757.999897003174,Wed Feb 26 2025 11:26:39 GMT-0600 (Central Standard Time),974612.0,A,arm,O,m,237,1,915.7000000178814,973696.2999999821,7068,WL,B,10.0
7,23.892000198364258,immed,36107.99980163574,Wed Feb 26 2025 11:26:39 GMT-0600 (Central Standard Time),976261.5,A,armenter,O,enter,1635,1,2565.2000000178814,973696.2999999821,7068,WL,B,10.0
7,24.758000135421753,immed,35241.99986457825,Wed Feb 26 2025 11:26:39 GMT-0600 (Central Standard Time),977128.0,A,s,O,s,850,1,866.3000000119209,976261.6999999881,7068,WL,B,11.0
7,24.85800004005432,immed,35141.99995994568,Wed Feb 26 2025 11:26:39 GMT-0600 (Central Standard Time),977228.0,A,sk,O,k,88,1,966.3000000119209,976261.6999999881,7068,WL,B,11.0
7,25.04200005531311,immed,34957.99994468689,Wed Feb 26 2025 11:26:39 GMT-0600 (Central Standard Time),977411.2999999821,A,ski,O,i,171,1,1149.5999999940395,976261.6999999881,7068,WL,B,11.0
7,25.29100012779236,immed,34708.99987220764,Wed Feb 26 2025 11:26:39 GMT-0600 (Central Standard Time),977661.0,A,skin,O,n,236,1,1399.300000011921,976261.6999999881,7068,WL,B,11.0
7,27.990000009536743,immed,32009.999990463257,Wed Feb 26 2025 11:26:39 GMT-0600 (Central Standard Time),980360.2999999821,A,skinenter,O,enter,2683,1,4098.5999999940395,976261.6999999881,7068,WL,B,11.0
7,28.69000005722046,immed,31309.99994277954,Wed Feb 26 2025 11:26:39 GMT-0600 (Central Standard Time),981060.099999994,A,w,O,w,679,1,699.5999999940395,980360.5,7068,WL,B,12.0
7,28.824000120162964,immed,31175.999879837036,Wed Feb 26 2025 11:26:39 GMT-0600 (Central Standard Time),981193.2999999821,A,wi,O,i,123,1,832.7999999821186,980360.5,7068,WL,B,12.0
7,29.006999969482422,immed,30993.000030517578,Wed Feb 26 2025 11:26:39 GMT-0600 (Central Standard Time),981376.5,A,wif,O,f,174,1,1016.0,980360.5,7068,WL,B,12.0
7,29.223000049591064,immed,30776.999950408936,Wed Feb 26 2025 11:26:39 GMT-0600 (Central Standard Time),981593.099999994,A,wife,O,e,207,1,1232.5999999940395,980360.5,7068,WL,B,12.0
7,29.573000192642212,immed,30426.999807357788,Wed Feb 26 2025 11:26:39 GMT-0600 (Central Standard Time),981943.0,A,wifeenter,O,enter,334,1,1582.5,980360.5,7068,WL,B,12.0
7,37.521000146865845,immed,22478.999853134155,Wed Feb 26 2025 11:26:39 GMT-0600 (Central Standard Time),989890.6999999881,A,w,O,w,7929,1,7947.4000000059605,981943.2999999821,7068,WL,B,13.0
7,37.62100005149841,immed,22378.999948501587,Wed Feb 26 2025 11:26:39 GMT-0600 (Central Standard Time),989990.2999999821,A,wi,O,i,84,1,8047.0,981943.2999999821,7068,WL,B,13.0
7,37.83800005912781,immed,22161.999940872192,Wed Feb 26 2025 11:26:39 GMT-0600 (Central Standard Time),990207.2999999821,A,win,O,n,201,1,8264.0,981943.2999999821,7068,WL,B,13.0
7,38.12100005149841,immed,21878.999948501587,Wed Feb 26 2025 11:26:39 GMT-0600 (Central Standard Time),990490.400000006,A,wind,O,d,272,1,8547.100000023842,981943.2999999821,7068,WL,B,13.0
7,38.28700017929077,immed,21712.99982070923,Wed Feb 26 2025 11:26:39 GMT-0600 (Central Standard Time),990657.099999994,A,windo,O,o,157,1,8713.800000011921,981943.2999999821,7068,WL,B,13.0
7,38.48800015449524,immed,21511.99984550476,Wed Feb 26 2025 11:26:39 GMT-0600 (Central Standard Time),990857.2999999821,A,window,O,w,182,1,8914.0,981943.2999999821,7068,WL,B,13.0
7,40.087000131607056,immed,19912.999868392944,Wed Feb 26 2025 11:26:39 GMT-0600 (Central Standard Time),992456.2999999821,A,windowenter,O,enter,1582,1,10513.0,981943.2999999821,7068,WL,B,13.0
7,40.40300011634827,immed,19596.999883651733,Wed Feb 26 2025 11:26:39 GMT-0600 (Central Standard Time),992773.1999999881,A,c,O,c,303,1,316.59999999403954,992456.599999994,7068,WL,B,14.0
7,40.62000012397766,immed,19379.99987602234,Wed Feb 26 2025 11:26:39 GMT-0600 (Central Standard Time),992989.599999994,A,ci,O,i,202,1,533.0,992456.599999994,7068,WL,B,14.0
7,40.78700017929077,immed,19212.99982070923,Wed Feb 26 2025 11:26:39 GMT-0600 (Central Standard Time),993156.400000006,A,cit,O,t,146,1,699.8000000119209,992456.599999994,7068,WL,B,14.0
7,40.98699998855591,immed,19013.00001144409,Wed Feb 26 2025 11:26:39 GMT-0600 (Central Standard Time),993356.5,A,city,O,y,187,1,899.9000000059605,992456.599999994,7068,WL,B,14.0
7,41.95300006866455,immed,18046.99993133545,Wed Feb 26 2025 11:26:39 GMT-0600 (Central Standard Time),994322.599999994,A,cityenter,O,enter,955,1,1866.0,992456.599999994,7068,WL,B,14.0
7,51.30000019073486,immed,8699.999809265137,Wed Feb 26 2025 11:26:39 GMT-0600 (Central Standard Time),1003669.5,A,p,O,p,9341,1,9346.59999999404,994322.900000006,7068,WL,B,15.0
7,51.55000019073486,immed,8449.999809265137,Wed Feb 26 2025 11:26:39 GMT-0600 (Central Standard Time),1003919.400000006,A,pu,O,u,241,1,9596.5,994322.900000006,7068,WL,B,15.0
7,51.85000014305115,immed,8149.9998569488525,Wed Feb 26 2025 11:26:39 GMT-0600 (Central Standard Time),1004219.2999999821,A,pup,O,p,288,1,9896.399999976158,994322.900000006,7068,WL,B,15.0
7,52.10000014305115,immed,7899.9998569488525,Wed Feb 26 2025 11:26:39 GMT-0600 (Central Standard Time),1004469.400000006,A,pupi,O,i,236,1,10146.5,994322.900000006,7068,WL,B,15.0
