Q,Q1,Q2,Q3,Q4,acc_sum,block,block_c,correct,correct_response,datetime,endtime,project,response,response_time,row_sel,session_number,squiggle1,squiggle1x,squiggle1y,squiggle2,squiggle2x,squiggle2y,squiggle3,squiggle3x,squiggle3y,squiggle4,squiggle4x,squiggle4y,start_end,starttime,subject_id,target_congruent,task,task_vers,testsquiggle,testsquigglex,testsquiggley,time_practice_delay,time_practice_fixation,time_practice_stimuli,time_practice_study,time_test_delay,time_test_fixation,time_test_stimuli,time_test_study,trial
1,1,0,0,0,1,prac,1,1,z,Fri Mar 07 2025 15:24:21 GMT-0600 (Central Standard Time),125266.80000000447,O,z,1359,1,1,116.bmp,-120,-120,117.bmp,120,-120,118.bmp,-120,120,119.bmp,120,120,10161.30000000447,115105.5,7099,yes,SM,A,116.bmp,-120,-120,119255,113231,121257,115239,,,,,1
3,0,0,1,0,2,prac,1,1,m,Fri Mar 07 2025 15:24:21 GMT-0600 (Central Standard Time),135461.0,O,m,1410,2,1,120.bmp,-120,-120,121.bmp,120,-120,122.bmp,-120,120,123.bmp,120,120,10188.5,125272.5,7099,no,SM,A,123.bmp,-120,120,129419,123398,131421,125404,,,,,2
4,0,0,0,1,3,prac,1,1,m,Fri Mar 07 2025 15:24:21 GMT-0600 (Central Standard Time),145890.70000000298,O,m,1616,3,1,124.bmp,-120,-120,125.bmp,120,-120,126.bmp,-120,120,127.bmp,120,120,10426.20000000298,135464.5,7099,no,SM,A,124.bmp,120,120,139616,133590,141617,135601,,,,,3
2,0,1,0,0,3,prac,1,0,z,Fri Mar 07 2025 15:24:21 GMT-0600 (Central Standard Time),156718.0,O,None,2013,4,1,128.bmp,-120,-120,129.bmp,120,-120,130.bmp,-120,120,131.bmp,120,120,10823.09999999404,145894.90000000596,7099,yes,SM,A,129.bmp,120,-120,150047,144020,152064,146030,,,,,4
3,0,0,1,0,4,prac,1,1,z,Fri Mar 07 2025 15:24:21 GMT-0600 (Central Standard Time),166717.0,O,z,1170,5,1,132.bmp,-120,-120,133.bmp,120,-120,134.bmp,-120,120,135.bmp,120,120,9994.0,156723.0,7099,yes,SM,A,134.bmp,-120,120,160876,154848,162894,156860,,,,,5
1,1,0,0,0,5,prac,1,1,m,Fri Mar 07 2025 15:24:21 GMT-0600 (Central Standard Time),176847.20000000298,O,m,1311,6,1,136.bmp,-120,-120,137.bmp,120,-120,138.bmp,-120,120,139.bmp,120,120,10125.70000000298,166721.5,7099,no,SM,A,139.bmp,-120,-120,170873,164847,172888,166858,,,,,6
2,0,1,0,0,6,prac,1,1,m,Fri Mar 07 2025 15:24:21 GMT-0600 (Central Standard Time),186761.20000000298,O,m,1093,7,1,140.bmp,-120,-120,141.bmp,120,-120,142.bmp,-120,120,143.bmp,120,120,9909.29999999702,176851.90000000596,7099,no,SM,A,140.bmp,120,-120,181004,174977,183018,176988,,,,,7
4,0,0,0,1,7,prac,1,1,z,Fri Mar 07 2025 15:24:21 GMT-0600 (Central Standard Time),196924.90000000596,O,z,1346,8,1,144.bmp,-120,-120,145.bmp,120,-120,146.bmp,-120,120,147.bmp,120,120,10156.90000000596,186768.0,7099,yes,SM,A,147.bmp,120,120,190917,184893,192934,186902,,,,,8
4,0,0,0,1,1,test,1,1,m,Fri Mar 07 2025 15:24:21 GMT-0600 (Central Standard Time),236375.40000000596,O,m,1458,1,1,148.bmp,-120,-120,149.bmp,120,-120,150.bmp,-120,120,143.bmp,120,120,9508.40000000596,226867.0,7099,no,SM,A,150.bmp,120,120,190917,184893,192934,186902,231021.0,224992.0,233036.0,227007.0,1
2,0,1,0,0,2,test,1,1,m,Fri Mar 07 2025 15:24:21 GMT-0600 (Central Standard Time),245240.90000000596,O,m,807,2,1,101.bmp,-120,-120,102.bmp,120,-120,103.bmp,-120,120,104.bmp,120,120,8863.20000000298,236377.70000000298,7099,no,SM,A,103.bmp,120,-120,190917,184893,192934,186902,240533.0,234503.0,242552.0,236520.0,2
1,1,0,0,0,3,test,1,1,z,Fri Mar 07 2025 15:24:21 GMT-0600 (Central Standard Time),254687.6000000015,O,z,1384,3,1,105.bmp,-120,-120,106.bmp,120,-120,107.bmp,-120,120,108.bmp,120,120,9443.60000000149,245244.0,7099,yes,SM,A,105.bmp,-120,-120,190917,184893,192934,186902,249398.0,243369.0,251415.0,245384.0,3
3,0,0,1,0,3,test,1,0,m,Fri Mar 07 2025 15:24:21 GMT-0600 (Central Standard Time),264085.1000000015,O,z,1338,4,1,109.bmp,-120,-120,110.bmp,120,-120,111.bmp,-120,120,112.bmp,120,120,9393.39999999851,254691.70000000298,7099,no,SM,A,109.bmp,-120,120,190917,184893,192934,186902,258845.0,252817.0,260861.0,254830.0,4
2,0,1,0,0,4,test,1,1,z,Fri Mar 07 2025 15:24:21 GMT-0600 (Central Standard Time),273031.80000000447,O,z,894,5,1,113.bmp,-120,-120,114.bmp,120,-120,115.bmp,-120,120,116.bmp,120,120,8942.20000000298,264089.6000000015,7099,yes,SM,A,114.bmp,120,-120,190917,184893,192934,186902,268242.0,262215.0,270258.0,264227.0,5
3,0,0,1,0,5,test,1,1,z,Fri Mar 07 2025 15:24:21 GMT-0600 (Central Standard Time),282562.5,O,z,1483,6,1,117.bmp,-120,-120,118.bmp,120,-120,119.bmp,-120,120,120.bmp,120,120,9527.79999999702,273034.700000003,7099,yes,SM,A,119.bmp,-120,120,190917,184893,192934,186902,277188.0,271160.0,279189.0,273174.0,6
4,0,0,0,1,6,test,1,1,z,Fri Mar 07 2025 15:24:21 GMT-0600 (Central Standard Time),291376.30000000447,O,z,776,7,1,121.bmp,-120,-120,122.bmp,120,-120,123.bmp,-120,120,124.bmp,120,120,8810.0,282566.30000000447,7099,yes,SM,A,124.bmp,120,120,190917,184893,192934,186902,286719.0,280692.0,288720.0,282704.0,7
2,0,1,0,0,7,test,1,1,m,Fri Mar 07 2025 15:24:21 GMT-0600 (Central Standard Time),300872.40000000596,O,m,1441,8,1,125.bmp,-120,-120,126.bmp,120,-120,127.bmp,-120,120,128.bmp,120,120,9492.80000000447,291379.6000000015,7099,no,SM,A,125.bmp,120,-120,190917,184893,192934,186902,295533.0,289505.0,297550.0,291518.0,8
3,0,0,1,0,7,test,1,0,m,Fri Mar 07 2025 15:24:21 GMT-0600 (Central Standard Time),310603.0,O,z,1671,9,1,129.bmp,-120,-120,130.bmp,120,-120,131.bmp,-120,120,132.bmp,120,120,9726.79999999702,300876.200000003,7099,no,SM,A,130.bmp,-120,120,190917,184893,192934,186902,305031.0,299001.0,307048.0,301015.0,9
4,0,0,0,1,8,test,1,1,z,Fri Mar 07 2025 15:24:21 GMT-0600 (Central Standard Time),319401.40000000596,O,z,741,10,1,137.bmp,-120,-120,138.bmp,120,-120,139.bmp,-120,120,140.bmp,120,120,8794.30000000447,310607.1000000015,7099,yes,SM,A,140.bmp,120,120,190917,184893,192934,186902,314762.0,308733.0,316778.0,310746.0,10
3,0,0,1,0,9,test,1,1,z,Fri Mar 07 2025 15:24:21 GMT-0600 (Central Standard Time),328996.90000000596,O,z,1544,11,1,133.bmp,-120,-120,134.bmp,120,-120,135.bmp,-120,120,136.bmp,120,120,9590.90000000596,319406.0,7099,yes,SM,A,135.bmp,-120,120,190917,184893,192934,186902,323558.0,317531.0,325575.0,319543.0,11
2,0,1,0,0,9,test,1,0,m,Fri Mar 07 2025 15:24:21 GMT-0600 (Central Standard Time),339061.80000000447,O,None,2016,12,1,141.bmp,-120,-120,142.bmp,120,-120,143.bmp,-120,120,144.bmp,120,120,10060.20000000298,329001.6000000015,7099,no,SM,A,141.bmp,120,-120,190917,184893,192934,186902,333155.0,327127.0,335171.0,329139.0,12
3,0,0,1,0,9,test,1,0,m,Fri Mar 07 2025 15:24:21 GMT-0600 (Central Standard Time),349124.90000000596,O,None,2015,13,1,145.bmp,-120,-120,146.bmp,120,-120,147.bmp,-120,120,148.bmp,120,120,10059.20000000298,339065.700000003,7099,no,SM,A,146.bmp,-120,120,190917,184893,192934,186902,343218.0,337191.0,345235.0,339202.0,13
1,1,0,0,0,10,test,1,1,z,Fri Mar 07 2025 15:24:21 GMT-0600 (Central Standard Time),358705.200000003,O,z,1517,14,1,149.bmp,-120,-120,150.bmp,120,-120,104.bmp,-120,120,101.bmp,120,120,9575.70000000298,349129.5,7099,yes,SM,A,149.bmp,-120,-120,190917,184893,192934,186902,353280.0,347255.0,355298.0,349267.0,14
4,0,0,0,1,11,test,1,1,m,Fri Mar 07 2025 15:24:21 GMT-0600 (Central Standard Time),368301.6000000015,O,m,1548,15,1,110.bmp,-120,-120,111.bmp,120,-120,112.bmp,-120,120,113.bmp,120,120,9591.60000000149,358710.0,7099,no,SM,A,111.bmp,120,120,190917,184893,192934,186902,362862.0,356835.0,364878.0,358848.0,15
1,1,0,0,0,12,test,1,1,m,Fri Mar 07 2025 15:24:21 GMT-0600 (Central Standard Time),377632.0,O,m,1268,16,1,102.bmp,-120,-120,103.bmp,120,-120,104.bmp,-120,120,105.bmp,120,120,9327.39999999851,368304.6000000015,7099,no,SM,A,105.bmp,-120,-120,190917,184893,192934,186902,372459.0,366430.0,374475.0,368443.0,16
3,0,0,1,0,12,test,1,0,m,Fri Mar 07 2025 15:24:21 GMT-0600 (Central Standard Time),387695.5,O,None,2015,17,1,122.bmp,-120,-120,123.bmp,120,-120,124.bmp,-120,120,125.bmp,120,120,10059.79999999702,377635.700000003,7099,no,SM,A,122.bmp,-120,120,190917,184893,192934,186902,381788.0,375761.0,383805.0,377775.0,17
1,1,0,0,0,12,test,1,0,z,Fri Mar 07 2025 15:24:21 GMT-0600 (Central Standard Time),397759.30000000447,O,None,2015,18,1,106.bmp,-120,-120,107.bmp,120,-120,108.bmp,-120,120,109.bmp,120,120,10059.30000000447,387700.0,7099,yes,SM,A,106.bmp,-120,-120,190917,184893,192934,186902,391852.0,385825.0,393869.0,387837.0,18
2,0,1,0,0,13,test,1,1,z,Fri Mar 07 2025 15:24:21 GMT-0600 (Central Standard Time),406674.5,O,z,858,19,1,126.bmp,-120,-120,127.bmp,120,-120,128.bmp,-120,120,129.bmp,120,120,8910.0,397764.5,7099,yes,SM,A,127.bmp,120,-120,190917,184893,192934,186902,401916.0,395890.0,403933.0,397902.0,19
3,0,0,1,0,14,test,1,1,z,Fri Mar 07 2025 15:24:21 GMT-0600 (Central Standard Time),415787.700000003,O,z,1049,20,1,130.bmp,-120,-120,131.bmp,120,-120,132.bmp,-120,120,133.bmp,120,120,9110.89999999851,406676.80000000447,7099,yes,SM,A,132.bmp,-120,120,190917,184893,192934,186902,410830.0,404802.0,412846.0,406815.0,20
1,1,0,0,0,15,test,1,1,m,Fri Mar 07 2025 15:24:21 GMT-0600 (Central Standard Time),424850.90000000596,O,m,998,21,1,114.bmp,-120,-120,115.bmp,120,-120,116.bmp,-120,120,117.bmp,120,120,9058.20000000298,415792.700000003,7099,no,SM,A,116.bmp,-120,-120,190917,184893,192934,186902,419944.0,413918.0,421962.0,415929.0,21
4,0,0,0,1,16,test,1,1,z,Fri Mar 07 2025 15:24:21 GMT-0600 (Central Standard Time),433697.0,O,z,799,22,1,118.bmp,-120,-120,119.bmp,120,-120,120.bmp,-120,120,121.bmp,120,120,8842.79999999702,424854.200000003,7099,yes,SM,A,121.bmp,120,120,190917,184893,192934,186902,429006.0,422979.0,431008.0,424992.0,22
1,1,0,0,0,16,test,1,0,m,Fri Mar 07 2025 15:24:21 GMT-0600 (Central Standard Time),443578.40000000596,O,z,1817,23,1,134.bmp,-120,-120,135.bmp,120,-120,136.bmp,-120,120,137.bmp,120,120,9876.40000000596,433702.0,7099,no,SM,A,137.bmp,-120,-120,190917,184893,192934,186902,437855.0,431827.0,439870.0,433840.0,23
2,0,1,0,0,16,test,1,0,z,Fri Mar 07 2025 15:24:21 GMT-0600 (Central Standard Time),453491.5,O,m,1855,24,1,142.bmp,-120,-120,143.bmp,120,-120,144.bmp,-120,120,145.bmp,120,120,9908.79999999702,443582.700000003,7099,yes,SM,A,143.bmp,120,-120,190917,184893,192934,186902,447735.0,441708.0,449752.0,443720.0,24
4,0,0,0,1,17,test,1,1,m,Fri Mar 07 2025 15:24:21 GMT-0600 (Central Standard Time),462971.200000003,O,m,1424,25,1,146.bmp,-120,-120,147.bmp,120,-120,148.bmp,-120,120,149.bmp,120,120,9475.79999999702,453495.40000000596,7099,no,SM,A,148.bmp,120,120,190917,184893,192934,186902,457650.0,451621.0,459664.0,453632.0,25
1,1,0,0,0,18,test,1,1,z,Fri Mar 07 2025 15:24:21 GMT-0600 (Central Standard Time),472384.700000003,O,z,1359,26,1,138.bmp,-120,-120,139.bmp,120,-120,140.bmp,-120,120,141.bmp,120,120,9410.0,462974.700000003,7099,yes,SM,A,138.bmp,-120,-120,190917,184893,192934,186902,467129.0,461100.0,469145.0,463114.0,26
4,0,0,0,1,19,test,1,1,z,Fri Mar 07 2025 15:24:21 GMT-0600 (Central Standard Time),481415.700000003,O,z,969,27,1,150.bmp,-120,-120,111.bmp,120,-120,101.bmp,-120,120,102.bmp,120,120,9027.60000000149,472388.1000000015,7099,yes,SM,A,102.bmp,120,120,190917,184893,192934,186902,476543.0,470513.0,478558.0,472528.0,27
3,0,0,1,0,20,test,1,1,m,Fri Mar 07 2025 15:24:21 GMT-0600 (Central Standard Time),490962.30000000447,O,m,1483,28,1,103.bmp,-120,-120,104.bmp,120,-120,105.bmp,-120,120,106.bmp,120,120,9542.39999999851,481419.90000000596,7099,no,SM,A,103.bmp,-120,120,190917,184893,192934,186902,485571.0,479545.0,487589.0,481558.0,28
2,0,1,0,0,21,test,1,1,z,Fri Mar 07 2025 15:24:21 GMT-0600 (Central Standard Time),500359.30000000447,O,z,1336,29,1,107.bmp,-120,-120,108.bmp,120,-120,109.bmp,-120,120,110.bmp,120,120,9393.10000000149,490966.200000003,7099,yes,SM,A,108.bmp,120,-120,190917,184893,192934,186902,495121.0,489092.0,497135.0,491105.0,29
3,0,0,1,0,22,test,1,1,z,Fri Mar 07 2025 15:24:21 GMT-0600 (Central Standard Time),510305.0,O,z,1890,30,1,111.bmp,-120,-120,112.bmp,120,-120,113.bmp,-120,120,114.bmp,120,120,9942.59999999404,500362.40000000596,7099,yes,SM,A,113.bmp,-120,120,190917,184893,192934,186902,504518.0,498488.0,506533.0,500502.0,30
1,1,0,0,0,23,test,1,1,z,Fri Mar 07 2025 15:24:21 GMT-0600 (Central Standard Time),520336.6000000015,O,z,1975,31,1,115.bmp,-120,-120,116.bmp,120,-120,117.bmp,-120,120,118.bmp,120,120,10028.19999999553,510308.40000000596,7099,yes,SM,A,115.bmp,-120,-120,190917,184893,192934,186902,514463.0,508434.0,516481.0,510449.0,31
2,0,1,0,0,23,test,1,0,m,Fri Mar 07 2025 15:24:21 GMT-0600 (Central Standard Time),529733.5,O,z,1338,32,1,119.bmp,-120,-120,120.bmp,120,-120,121.bmp,-120,120,122.bmp,120,120,9393.39999999851,520340.1000000015,7099,no,SM,A,119.bmp,120,-120,190917,184893,192934,186902,524495.0,518465.0,526509.0,520479.0,32
4,0,0,0,1,24,test,1,1,z,Fri Mar 07 2025 15:24:21 GMT-0600 (Central Standard Time),539363.5,O,z,1589,33,1,131.bmp,-120,-120,132.bmp,120,-120,133.bmp,-120,120,134.bmp,120,120,9626.29999999702,529737.200000003,7099,yes,SM,A,134.bmp,120,120,190917,184893,192934,186902,533889.0,527862.0,535891.0,529875.0,33
2,0,1,0,0,25,test,1,1,z,Fri Mar 07 2025 15:24:21 GMT-0600 (Central Standard Time),548196.3000000045,O,z,784,34,1,123.bmp,-120,-120,124.bmp,120,-120,125.bmp,-120,120,126.bmp,120,120,8828.60000000149,539367.700000003,7099,yes,SM,A,124.bmp,120,-120,190917,184893,192934,186902,543520.0,537493.0,545537.0,539506.0,34
4,0,0,0,1,26,test,1,1,m,Fri Mar 07 2025 15:24:21 GMT-0600 (Central Standard Time),558125.8000000045,O,m,1879,35,1,127.bmp,-120,-120,128.bmp,120,-120,129.bmp,-120,120,130.bmp,120,120,9924.39999999851,548201.400000006,7099,no,SM,A,129.bmp,120,120,190917,184893,192934,186902,552352.0,546327.0,554369.0,548337.0,35
3,0,0,1,0,27,test,1,1,m,Fri Mar 07 2025 15:24:21 GMT-0600 (Central Standard Time),567654.6000000015,O,m,1478,36,1,135.bmp,-120,-120,136.bmp,120,-120,137.bmp,-120,120,138.bmp,120,120,9522.79999999702,558131.8000000045,7099,no,SM,A,135.bmp,-120,120,190917,184893,192934,186902,562284.0,556257.0,564298.0,558266.0,36
1,1,0,0,0,28,test,1,1,m,Fri Mar 07 2025 15:24:21 GMT-0600 (Central Standard Time),576568.900000006,O,m,850,37,1,139.bmp,-120,-120,140.bmp,120,-120,141.bmp,-120,120,142.bmp,120,120,8908.20000000298,567660.700000003,7099,no,SM,A,140.bmp,-120,-120,190917,184893,192934,186902,571812.0,565786.0,573829.0,567798.0,37
2,0,1,0,0,29,test,1,1,m,Fri Mar 07 2025 15:24:21 GMT-0600 (Central Standard Time),585849.5,O,m,1226,38,1,143.bmp,-120,-120,144.bmp,120,-120,145.bmp,-120,120,146.bmp,120,120,9273.39999999851,576576.1000000015,7099,no,SM,A,145.bmp,120,-120,190917,184893,192934,186902,580726.0,574702.0,582742.0,576711.0,38
4,0,0,0,1,30,test,1,1,z,Fri Mar 07 2025 15:24:21 GMT-0600 (Central Standard Time),594830.1000000015,O,z,930,39,1,147.bmp,-120,-120,148.bmp,120,-120,149.bmp,-120,120,150.bmp,120,120,8977.0,585853.1000000015,7099,yes,SM,A,150.bmp,120,120,190917,184893,192934,186902,590006.0,583978.0,592022.0,585992.0,39
3,0,0,1,0,31,test,1,1,m,Fri Mar 07 2025 15:24:21 GMT-0600 (Central Standard Time),603994.200000003,O,m,1099,40,1,104.bmp,-120,-120,105.bmp,120,-120,106.bmp,-120,120,107.bmp,120,120,9160.5,594833.700000003,7099,no,SM,A,105.bmp,-120,120,190917,184893,192934,186902,598986.0,592959.0,601004.0,594972.0,40
1,1,0,0,0,32,test,1,1,z,Fri Mar 07 2025 15:24:21 GMT-0600 (Central Standard Time),613225.0,O,z,1191,41,1,108.bmp,-120,-120,109.bmp,120,-120,110.bmp,-120,120,111.bmp,120,120,9226.59999999404,603998.400000006,7099,yes,SM,A,108.bmp,-120,-120,190917,184893,192934,186902,608150.0,602124.0,610152.0,604135.0,41
4,0,0,0,1,33,test,1,1,z,Fri Mar 07 2025 15:24:21 GMT-0600 (Central Standard Time),622304.0,O,z,1016,42,1,112.bmp,-120,-120,113.bmp,120,-120,114.bmp,-120,120,115.bmp,120,120,9076.59999999404,613227.400000006,7099,yes,SM,A,115.bmp,120,120,190917,184893,192934,186902,617381.0,611353.0,619399.0,613366.0,42
1,1,0,0,0,34,test,1,1,z,Fri Mar 07 2025 15:24:21 GMT-0600 (Central Standard Time),631489.5,O,z,1121,43,1,116.bmp,-120,-120,117.bmp,120,-120,118.bmp,-120,120,119.bmp,120,120,9182.09999999404,622307.400000006,7099,yes,SM,A,116.bmp,-120,-120,190917,184893,192934,186902,626461.0,620433.0,628477.0,622446.0,43
4,0,0,0,1,35,test,1,1,m,Fri Mar 07 2025 15:24:21 GMT-0600 (Central Standard Time),640747.3000000045,O,m,1205,44,1,104.bmp,-120,-120,101.bmp,120,-120,102.bmp,-120,120,103.bmp,120,120,9255.70000000298,631491.6000000015,7099,no,SM,A,104.bmp,120,120,190917,184893,192934,186902,635642.0,629617.0,637658.0,631627.0,44
1,1,0,0,0,36,test,1,1,m,Fri Mar 07 2025 15:24:21 GMT-0600 (Central Standard Time),649628.900000006,O,m,832,45,1,128.bmp,-120,-120,129.bmp,120,-120,130.bmp,-120,120,131.bmp,120,120,8877.60000000149,640751.3000000045,7099,no,SM,A,131.bmp,-120,-120,190917,184893,192934,186902,644905.0,638877.0,646922.0,640890.0,45
1,1,0,0,0,37,test,1,1,m,Fri Mar 07 2025 15:24:21 GMT-0600 (Central Standard Time),658575.6000000015,O,m,885,46,1,120.bmp,-120,-120,121.bmp,120,-120,122.bmp,-120,120,123.bmp,120,120,8943.79999999702,649631.8000000045,7099,no,SM,A,121.bmp,-120,-120,190917,184893,192934,186902,653785.0,647757.0,655802.0,649771.0,46
3,0,0,1,0,38,test,1,1,z,Fri Mar 07 2025 15:24:21 GMT-0600 (Central Standard Time),667389.400000006,O,z,754,47,1,124.bmp,-120,-120,125.bmp,120,-120,126.bmp,-120,120,127.bmp,120,120,8810.10000000149,658579.3000000045,7099,yes,SM,A,126.bmp,-120,120,190917,184893,192934,186902,662733.0,656705.0,664749.0,658718.0,47
3,0,0,1,0,38,test,1,0,z,Fri Mar 07 2025 15:24:21 GMT-0600 (Central Standard Time),677452.8000000045,O,None,2014,48,1,140.bmp,-120,-120,141.bmp,120,-120,142.bmp,-120,120,143.bmp,120,120,10060.10000000149,667392.700000003,7099,yes,SM,A,142.bmp,-120,120,190917,184893,192934,186902,671546.0,665518.0,673564.0,667533.0,48
2,0,1,0,0,39,test,1,1,z,Fri Mar 07 2025 15:24:21 GMT-0600 (Central Standard Time),687067.5,O,z,1556,49,1,136.bmp,-120,-120,137.bmp,120,-120,138.bmp,-120,120,139.bmp,120,120,9608.19999999553,677459.3000000045,7099,yes,SM,A,137.bmp,120,-120,190917,184893,192934,186902,681610.0,675585.0,683627.0,677597.0,49
3,0,0,1,0,39,test,1,0,m,Fri Mar 07 2025 15:24:21 GMT-0600 (Central Standard Time),697114.6000000015,O,None,2015,50,1,132.bmp,-120,-120,133.bmp,120,-120,134.bmp,-120,120,135.bmp,120,120,10041.60000000149,687073.0,7099,no,SM,A,132.bmp,-120,120,190917,184893,192934,186902,691223.0,685198.0,693224.0,687210.0,50
2,0,1,0,0,40,test,1,1,z,Fri Mar 07 2025 15:24:21 GMT-0600 (Central Standard Time),706943.8000000045,O,z,1778,51,1,144.bmp,-120,-120,145.bmp,120,-120,146.bmp,-120,120,147.bmp,120,120,9823.60000000149,697120.200000003,7099,yes,SM,A,145.bmp,120,-120,190917,184893,192934,186902,701272.0,695245.0,703287.0,697256.0,51
4,0,0,0,1,41,test,1,1,m,Fri Mar 07 2025 15:24:21 GMT-0600 (Central Standard Time),716425.200000003,O,m,1426,52,1,148.bmp,-120,-120,149.bmp,120,-120,150.bmp,-120,120,131.bmp,120,120,9477.29999999702,706947.900000006,7099,no,SM,A,148.bmp,120,120,190917,184893,192934,186902,711101.0,705073.0,713117.0,707086.0,52
3,0,0,1,0,42,test,1,1,z,Fri Mar 07 2025 15:24:21 GMT-0600 (Central Standard Time),725039.5,O,z,553,53,1,101.bmp,-120,-120,102.bmp,120,-120,103.bmp,-120,120,104.bmp,120,120,8609.69999999553,716429.8000000045,7099,yes,SM,A,103.bmp,-120,120,190917,184893,192934,186902,720582.0,714555.0,722598.0,716567.0,53
1,1,0,0,0,43,test,1,1,m,Fri Mar 07 2025 15:24:21 GMT-0600 (Central Standard Time),734268.700000003,O,m,1182,54,1,105.bmp,-120,-120,106.bmp,120,-120,107.bmp,-120,120,108.bmp,120,120,9225.70000000298,725043.0,7099,no,SM,A,107.bmp,-120,-120,190917,184893,192934,186902,729195.0,723168.0,731211.0,725180.0,54
4,0,0,0,1,44,test,1,1,z,Fri Mar 07 2025 15:24:21 GMT-0600 (Central Standard Time),743683.900000006,O,z,1357,55,1,109.bmp,-120,-120,110.bmp,120,-120,111.bmp,-120,120,112.bmp,120,120,9412.20000000298,734271.700000003,7099,yes,SM,A,112.bmp,120,120,190917,184893,192934,186902,738426.0,732397.0,740442.0,734410.0,55
2,0,1,0,0,45,test,1,1,m,Fri Mar 07 2025 15:24:21 GMT-0600 (Central Standard Time),753147.8000000045,O,m,1400,56,1,113.bmp,-120,-120,114.bmp,120,-120,115.bmp,-120,120,116.bmp,120,120,9460.30000000447,743687.5,7099,no,SM,A,113.bmp,120,-120,190917,184893,192934,186902,747839.0,741813.0,749856.0,743825.0,56
4,0,0,0,1,45,test,1,0,m,Fri Mar 07 2025 15:24:21 GMT-0600 (Central Standard Time),763209.1000000015,O,None,2016,57,1,117.bmp,-120,-120,118.bmp,120,-120,119.bmp,-120,120,120.bmp,120,120,10056.69999999553,753152.400000006,7099,no,SM,A,118.bmp,120,120,190917,184893,192934,186902,757302.0,751278.0,759318.0,753289.0,57
3,0,0,1,0,46,test,1,1,z,Fri Mar 07 2025 15:24:21 GMT-0600 (Central Standard Time),772291.6000000015,O,z,1033,58,1,121.bmp,-120,-120,122.bmp,120,-120,123.bmp,-120,120,124.bmp,120,120,9079.19999999553,763212.400000006,7099,yes,SM,A,123.bmp,-120,120,190917,184893,192934,186902,767366.0,761338.0,769383.0,763352.0,58
2,0,1,0,0,47,test,1,1,m,Fri Mar 07 2025 15:24:21 GMT-0600 (Central Standard Time),781404.200000003,O,m,1065,59,1,125.bmp,-120,-120,126.bmp,120,-120,127.bmp,-120,120,128.bmp,120,120,9109.0,772295.200000003,7099,no,SM,A,128.bmp,120,-120,190917,184893,192934,186902,776447.0,770420.0,778464.0,772431.0,59
1,1,0,0,0,48,test,1,1,z,Fri Mar 07 2025 15:24:21 GMT-0600 (Central Standard Time),790351.3000000045,O,z,884,60,1,129.bmp,-120,-120,130.bmp,120,-120,131.bmp,-120,120,132.bmp,120,120,8943.89999999851,781407.400000006,7099,yes,SM,A,129.bmp,-120,-120,190917,184893,192934,186902,785560.0,779533.0,787578.0,781545.0,60
2,0,1,0,0,48,test,1,0,z,Fri Mar 07 2025 15:24:21 GMT-0600 (Central Standard Time),800415.400000006,O,None,2015,61,1,133.bmp,-120,-120,134.bmp,120,-120,135.bmp,-120,120,136.bmp,120,120,10061.20000000298,790354.200000003,7099,yes,SM,A,134.bmp,120,-120,190917,184893,192934,186902,794510.0,788479.0,796525.0,790494.0,61
4,0,0,0,1,49,test,1,1,z,Fri Mar 07 2025 15:24:21 GMT-0600 (Central Standard Time),809461.3000000045,O,z,995,62,1,141.bmp,-120,-120,142.bmp,120,-120,143.bmp,-120,120,144.bmp,120,120,9040.70000000298,800420.6000000015,7099,yes,SM,A,144.bmp,120,120,190917,184893,192934,186902,804571.0,798546.0,806590.0,800557.0,62
1,1,0,0,0,50,test,1,1,m,Fri Mar 07 2025 15:24:21 GMT-0600 (Central Standard Time),819208.8000000045,O,m,1685,63,1,145.bmp,-120,-120,146.bmp,120,-120,147.bmp,-120,120,148.bmp,120,120,9742.60000000149,809466.200000003,7099,no,SM,A,145.bmp,-120,120,190917,184893,192934,186902,813619.0,807592.0,815634.0,809603.0,63
2,0,1,0,0,51,test,1,1,z,Fri Mar 07 2025 15:24:21 GMT-0600 (Central Standard Time),828373.0,O,z,1115,64,1,149.bmp,-120,-120,150.bmp,120,-120,112.bmp,-120,120,101.bmp,120,120,9160.29999999702,819212.700000003,7099,yes,SM,A,150.bmp,120,-120,190917,184893,192934,186902,823366.0,817338.0,825382.0,819351.0,64
4,0,0,0,1,52,test,1,1,m,Fri Mar 07 2025 15:24:21 GMT-0600 (Central Standard Time),837368.6000000015,O,m,935,65,1,102.bmp,-120,-120,103.bmp,120,-120,104.bmp,-120,120,105.bmp,120,120,8991.29999999702,828377.3000000045,7099,no,SM,A,104.bmp,120,120,190917,184893,192934,186902,832529.0,826502.0,834544.0,828514.0,65
3,0,0,1,0,53,test,1,1,m,Fri Mar 07 2025 15:24:21 GMT-0600 (Central Standard Time),846267.400000006,O,m,849,66,1,106.bmp,-120,-120,107.bmp,120,-120,108.bmp,-120,120,109.bmp,120,120,8894.20000000298,837373.200000003,7099,no,SM,A,109.bmp,-120,120,190917,184893,192934,186902,841525.0,835498.0,843526.0,837515.0,66
2,0,1,0,0,54,test,1,1,m,Fri Mar 07 2025 15:24:21 GMT-0600 (Central Standard Time),855880.400000006,O,m,1550,67,1,137.bmp,-120,-120,138.bmp,120,-120,139.bmp,-120,120,140.bmp,120,120,9610.0,846270.400000006,7099,no,SM,A,139.bmp,120,-120,190917,184893,192934,186902,850424.0,844396.0,852440.0,846409.0,67
3,0,0,1,0,55,test,1,1,z,Fri Mar 07 2025 15:24:21 GMT-0600 (Central Standard Time),865226.200000003,O,z,1289,68,1,110.bmp,-120,-120,111.bmp,120,-120,112.bmp,-120,120,113.bmp,120,120,9342.60000000149,855883.6000000015,7099,yes,SM,A,112.bmp,-120,120,190917,184893,192934,186902,860039.0,854009.0,862053.0,856023.0,68
1,1,0,0,0,56,test,1,1,m,Fri Mar 07 2025 15:24:21 GMT-0600 (Central Standard Time),874223.6000000015,O,m,945,69,1,114.bmp,-120,-120,115.bmp,120,-120,116.bmp,-120,120,117.bmp,120,120,8994.60000000149,865229.0,7099,no,SM,A,115.bmp,-120,-120,190917,184893,192934,186902,869384.0,863354.0,871400.0,865369.0,69
2,0,1,0,0,57,test,1,1,m,Fri Mar 07 2025 15:24:21 GMT-0600 (Central Standard Time),883486.3000000045,O,m,1208,70,1,118.bmp,-120,-120,119.bmp,120,-120,120.bmp,-120,120,121.bmp,120,120,9259.70000000298,874226.6000000015,7099,no,SM,A,120.bmp,120,-120,190917,184893,192934,186902,878381.0,872352.0,880398.0,874366.0,70
4,0,0,0,1,58,test,1,1,z,Fri Mar 07 2025 15:24:21 GMT-0600 (Central Standard Time),892218.0,O,z,691,71,1,122.bmp,-120,-120,123.bmp,120,-120,124.bmp,-120,120,125.bmp,120,120,8728.39999999851,883489.6000000015,7099,yes,SM,A,125.bmp,120,120,190917,184893,192934,186902,887643.0,881615.0,889644.0,883629.0,71
1,1,0,0,0,59,test,1,1,z,Fri Mar 07 2025 15:24:21 GMT-0600 (Central Standard Time),901733.3000000045,O,z,1466,72,1,126.bmp,-120,-120,127.bmp,120,-120,128.bmp,-120,120,129.bmp,120,120,9511.80000000447,892221.5,7099,yes,SM,A,126.bmp,-120,-120,190917,184893,192934,186902,896377.0,890347.0,898392.0,892360.0,72
2,0,1,0,0,60,test,1,1,z,Fri Mar 07 2025 15:24:21 GMT-0600 (Central Standard Time),911162.3000000045,O,z,1382,73,1,130.bmp,-120,-120,131.bmp,120,-120,132.bmp,-120,120,133.bmp,120,120,9425.30000000447,901737.0,7099,yes,SM,A,131.bmp,120,-120,190917,184893,192934,186902,905889.0,899862.0,907905.0,901875.0,73
4,0,0,0,1,60,test,1,0,m,Fri Mar 07 2025 15:24:21 GMT-0600 (Central Standard Time),920858.900000006,O,z,1647,74,1,134.bmp,-120,-120,135.bmp,120,-120,136.bmp,-120,120,137.bmp,120,120,9691.40000000596,911167.5,7099,no,SM,A,136.bmp,120,120,190917,184893,192934,186902,915322.0,909293.0,917336.0,911304.0,74
2,0,1,0,0,61,test,1,1,m,Fri Mar 07 2025 15:24:21 GMT-0600 (Central Standard Time),929722.6000000015,O,m,806,75,1,138.bmp,-120,-120,139.bmp,120,-120,140.bmp,-120,120,141.bmp,120,120,8857.29999999702,920865.3000000045,7099,no,SM,A,141.bmp,120,-120,190917,184893,192934,186902,925017.0,918991.0,927033.0,921001.0,75
1,1,0,0,0,62,test,1,1,z,Fri Mar 07 2025 15:24:21 GMT-0600 (Central Standard Time),939103.8000000045,O,z,1318,76,1,142.bmp,-120,-120,143.bmp,120,-120,144.bmp,-120,120,145.bmp,120,120,9373.70000000298,929730.1000000015,7099,yes,SM,A,142.bmp,-120,-120,190917,184893,192934,186902,933880.0,927855.0,935897.0,929867.0,76
3,0,0,1,0,63,test,1,1,z,Fri Mar 07 2025 15:24:21 GMT-0600 (Central Standard Time),947917.6000000015,O,z,754,77,1,150.bmp,-120,-120,111.bmp,120,-120,101.bmp,-120,120,102.bmp,120,120,8809.19999999553,939108.400000006,7099,yes,SM,A,101.bmp,-120,120,190917,184893,192934,186902,943261.0,937234.0,945278.0,939246.0,77
1,1,0,0,0,64,test,1,1,m,Fri Mar 07 2025 15:24:21 GMT-0600 (Central Standard Time),957132.400000006,O,m,1167,78,1,146.bmp,-120,-120,147.bmp,120,-120,148.bmp,-120,120,149.bmp,120,120,9211.30000000447,947921.1000000015,7099,no,SM,A,147.bmp,-120,-120,190917,184893,192934,186902,952074.0,946046.0,954090.0,948059.0,78
4,0,0,0,1,64,test,1,0,m,Fri Mar 07 2025 15:24:21 GMT-0600 (Central Standard Time),966545.5,O,z,1350,79,1,107.bmp,-120,-120,108.bmp,120,-120,109.bmp,-120,120,110.bmp,120,120,9402.29999999702,957143.200000003,7099,no,SM,A,107.bmp,120,120,190917,184893,192934,186902,961289.0,955268.0,963305.0,957273.0,79
3,0,0,1,0,65,test,1,1,m,Fri Mar 07 2025 15:24:21 GMT-0600 (Central Standard Time),975825.200000003,O,m,1216,80,1,103.bmp,-120,-120,104.bmp,120,-120,105.bmp,-120,120,106.bmp,120,120,9275.89999999851,966549.3000000045,7099,no,SM,A,106.bmp,-120,120,190917,184893,192934,186902,970702.0,964674.0,972718.0,966686.0,80
