Q,Q1,Q2,Q3,Q4,acc_sum,block,block_c,correct,correct_response,datetime,endtime,project,response,response_time,row_sel,session_number,squiggle1,squiggle1x,squiggle1y,squiggle2,squiggle2x,squiggle2y,squiggle3,squiggle3x,squiggle3y,squiggle4,squiggle4x,squiggle4y,start_end,starttime,subject_id,target_congruent,task,task_vers,testsquiggle,testsquigglex,testsquiggley,time_practice_delay,time_practice_fixation,time_practice_stimuli,time_practice_study,time_test_delay,time_test_fixation,time_test_stimuli,time_test_study,trial
1,1,0,0,0,1,prac,1,1,z,Fri Apr 11 2025 14:05:38 GMT-0500 (Central Daylight Time),143452.19999992847,O,z,1663,1,1,16.bmp,-120,-120,17.bmp,120,-120,18.bmp,-120,120,19.bmp,120,120,10481.399999976158,132970.79999995232,7120,yes,SM,B,16.bmp,-120,-120,134007,127976,136025,129993,,,,,1
3,0,0,1,0,1,prac,1,0,m,Fri Apr 11 2025 14:05:38 GMT-0500 (Central Daylight Time),154014.89999997616,O,z,1726,2,1,20.bmp,-120,-120,21.bmp,120,-120,22.bmp,-120,120,23.bmp,120,120,10544.799999952316,143470.10000002384,7120,no,SM,B,23.bmp,-120,120,144504,138475,146521,140490,,,,,2
4,0,0,0,1,1,prac,1,0,m,Fri Apr 11 2025 14:05:38 GMT-0500 (Central Daylight Time),164644.89999997616,O,z,1789,3,1,24.bmp,-120,-120,25.bmp,120,-120,26.bmp,-120,120,27.bmp,120,120,10613.899999976158,154031.0,7120,no,SM,B,24.bmp,120,120,155066,149036,157083,151051,,,,,3
2,0,1,0,0,2,prac,1,1,z,Fri Apr 11 2025 14:05:38 GMT-0500 (Central Daylight Time),175391.5,O,z,1911,4,1,28.bmp,-120,-120,29.bmp,120,-120,30.bmp,-120,120,31.bmp,120,120,10729.399999976158,164662.10000002384,7120,yes,SM,B,29.bmp,120,-120,165697,159667,167713,161683,,,,,4
3,0,0,1,0,3,prac,1,1,z,Fri Apr 11 2025 14:05:38 GMT-0500 (Central Daylight Time),185321.39999997616,O,z,1082,5,1,32.bmp,-120,-120,33.bmp,120,-120,34.bmp,-120,120,35.bmp,120,120,9912.600000023842,175408.79999995232,7120,yes,SM,B,34.bmp,-120,120,176443,170414,178461,172430,,,,,5
1,1,0,0,0,4,prac,1,1,m,Fri Apr 11 2025 14:05:38 GMT-0500 (Central Daylight Time),196067.89999997616,O,m,1913,6,1,36.bmp,-120,-120,37.bmp,120,-120,38.bmp,-120,120,39.bmp,120,120,10731.799999952316,185336.10000002384,7120,no,SM,B,39.bmp,-120,-120,186373,180341,188391,182359,,,,,6
2,0,1,0,0,4,prac,1,0,m,Fri Apr 11 2025 14:05:38 GMT-0500 (Central Daylight Time),206913.5,O,None,2014,7,1,40.bmp,-120,-120,41.bmp,120,-120,42.bmp,-120,120,43.bmp,120,120,10828.899999976158,196084.60000002384,7120,no,SM,B,40.bmp,120,-120,197120,191090,199137,193106,,,,,7
4,0,0,0,1,5,prac,1,1,z,Fri Apr 11 2025 14:05:38 GMT-0500 (Central Daylight Time),217010.89999997616,O,z,1265,8,1,44.bmp,-120,-120,45.bmp,120,-120,46.bmp,-120,120,47.bmp,120,120,10087.200000047684,206923.69999992847,7120,yes,SM,B,47.bmp,120,120,207949,201928,209967,203936,,,,,8
4,0,0,0,1,0,test,1,0,m,Fri Apr 11 2025 14:05:38 GMT-0500 (Central Daylight Time),247551.19999992847,O,None,2015,1,1,48.bmp,-120,-120,49.bmp,120,-120,50.bmp,-120,120,43.bmp,120,120,10051.299999952316,237499.89999997616,7120,yes,SM,B,50.bmp,120,120,207949,201928,209967,203936,238523.0,232505.0,240540.0,234509.0,1
2,0,1,0,0,1,test,1,1,m,Fri Apr 11 2025 14:05:38 GMT-0500 (Central Daylight Time),257597.69999992847,O,m,1972,2,1,1.bmp,-120,-120,2.bmp,120,-120,3.bmp,-120,120,4.bmp,120,120,10031.899999976158,247565.79999995232,7120,yes,SM,B,3.bmp,120,-120,207949,201928,209967,203936,248603.0,242571.0,250620.0,244589.0,2
1,1,0,0,0,2,test,1,1,z,Fri Apr 11 2025 14:05:38 GMT-0500 (Central Daylight Time),266744.5,O,z,1069,3,1,5.bmp,-120,-120,6.bmp,120,-120,7.bmp,-120,120,8.bmp,120,120,9132.899999976158,257611.60000002384,7120,yes,SM,B,5.bmp,-120,-120,207949,201928,209967,203936,258650.0,252617.0,260667.0,254635.0,3
3,0,0,1,0,2,test,1,0,m,Fri Apr 11 2025 14:05:38 GMT-0500 (Central Daylight Time),276841.10000002384,O,None,2014,4,1,9.bmp,-120,-120,10.bmp,120,-120,11.bmp,-120,120,12.bmp,120,120,10061.200000047684,266779.89999997616,7120,yes,SM,B,9.bmp,-120,120,207949,201928,209967,203936,267813.0,261784.0,269831.0,263799.0,4
2,0,1,0,0,3,test,1,1,z,Fri Apr 11 2025 14:05:38 GMT-0500 (Central Daylight Time),286421.0,O,z,1521,5,1,13.bmp,-120,-120,14.bmp,120,-120,15.bmp,-120,120,16.bmp,120,120,9568.5,276852.5,7120,yes,SM,B,14.bmp,120,-120,207949,201928,209967,203936,277877.0,271857.0,279894.0,273863.0,5
3,0,0,1,0,4,test,1,1,z,Fri Apr 11 2025 14:05:38 GMT-0500 (Central Daylight Time),296068.1999999285,O,z,1590,6,1,17.bmp,-120,-120,18.bmp,120,-120,19.bmp,-120,120,20.bmp,120,120,9639.899999976158,286428.2999999523,7120,yes,SM,B,19.bmp,-120,120,207949,201928,209967,203936,287456.0,281433.0,289474.0,283443.0,6
4,0,0,0,1,5,test,1,1,z,Fri Apr 11 2025 14:05:38 GMT-0500 (Central Daylight Time),305697.60000002384,O,z,1575,7,1,21.bmp,-120,-120,22.bmp,120,-120,23.bmp,-120,120,24.bmp,120,120,9615.0,296082.60000002384,7120,yes,SM,B,24.bmp,120,120,207949,201928,209967,203936,297103.0,291087.0,299119.0,293090.0,7
2,0,1,0,0,5,test,1,0,m,Fri Apr 11 2025 14:05:38 GMT-0500 (Central Daylight Time),315044.60000002384,O,z,1294,8,1,25.bmp,-120,-120,26.bmp,120,-120,27.bmp,-120,120,28.bmp,120,120,9343.400000095367,305701.1999999285,7120,yes,SM,B,25.bmp,120,-120,207949,201928,209967,203936,306734.0,300706.0,308752.0,302718.0,8
3,0,0,1,0,5,test,1,0,m,Fri Apr 11 2025 14:05:38 GMT-0500 (Central Daylight Time),324891.39999997616,O,z,1790,9,1,29.bmp,-120,-120,30.bmp,120,-120,31.bmp,-120,120,32.bmp,120,120,9842.5,315048.89999997616,7120,yes,SM,B,30.bmp,-120,120,207949,201928,209967,203936,316080.0,310053.0,318096.0,312065.0,9
4,0,0,0,1,6,test,1,1,z,Fri Apr 11 2025 14:05:38 GMT-0500 (Central Daylight Time),334521.5,O,z,1576,10,1,37.bmp,-120,-120,38.bmp,120,-120,39.bmp,-120,120,40.bmp,120,120,9626.100000023842,324895.39999997616,7120,yes,SM,B,40.bmp,120,120,207949,201928,209967,203936,325927.0,319900.0,327943.0,321912.0,10
3,0,0,1,0,7,test,1,1,z,Fri Apr 11 2025 14:05:38 GMT-0500 (Central Daylight Time),343435.10000002384,O,z,857,11,1,33.bmp,-120,-120,34.bmp,120,-120,35.bmp,-120,120,36.bmp,120,120,8909.0,334526.10000002384,7120,yes,SM,B,35.bmp,-120,120,207949,201928,209967,203936,335557.0,329530.0,337573.0,331542.0,11
2,0,1,0,0,8,test,1,1,m,Fri Apr 11 2025 14:05:38 GMT-0500 (Central Daylight Time),353099.0,O,m,1616,12,1,41.bmp,-120,-120,42.bmp,120,-120,43.bmp,-120,120,44.bmp,120,120,9659.399999976158,343439.60000002384,7120,yes,SM,B,41.bmp,120,-120,207949,201928,209967,203936,344471.0,338444.0,346487.0,340456.0,12
3,0,0,1,0,9,test,1,1,m,Fri Apr 11 2025 14:05:38 GMT-0500 (Central Daylight Time),362579.10000002384,O,m,1416,13,1,45.bmp,-120,-120,46.bmp,120,-120,47.bmp,-120,120,48.bmp,120,120,9475.5,353103.60000002384,7120,yes,SM,B,46.bmp,-120,120,207949,201928,209967,203936,354134.0,348108.0,356151.0,350119.0,13
1,1,0,0,0,10,test,1,1,z,Fri Apr 11 2025 14:05:38 GMT-0500 (Central Daylight Time),371559.39999997616,O,z,928,14,1,49.bmp,-120,-120,50.bmp,120,-120,4.bmp,-120,120,1.bmp,120,120,8975.899999976158,362583.5,7120,yes,SM,B,49.bmp,-120,-120,207949,201928,209967,203936,363614.0,357588.0,365631.0,359600.0,14
4,0,0,0,1,10,test,1,0,m,Fri Apr 11 2025 14:05:38 GMT-0500 (Central Daylight Time),381422.60000002384,O,z,1811,15,1,10.bmp,-120,-120,11.bmp,120,-120,12.bmp,-120,120,13.bmp,120,120,9858.600000023842,371564.0,7120,yes,SM,B,11.bmp,120,120,207949,201928,209967,203936,372595.0,366568.0,374611.0,368580.0,15
1,1,0,0,0,11,test,1,1,m,Fri Apr 11 2025 14:05:38 GMT-0500 (Central Daylight Time),390736.39999997616,O,m,1252,16,1,2.bmp,-120,-120,3.bmp,120,-120,4.bmp,-120,120,5.bmp,120,120,9309.899999976158,381426.5,7120,yes,SM,B,5.bmp,-120,-120,207949,201928,209967,203936,382458.0,376431.0,384475.0,378444.0,16
3,0,0,1,0,12,test,1,1,m,Fri Apr 11 2025 14:05:38 GMT-0500 (Central Daylight Time),400666.6999999285,O,m,1882,17,1,22.bmp,-120,-120,23.bmp,120,-120,24.bmp,-120,120,25.bmp,120,120,9924.899999976158,390741.7999999523,7120,yes,SM,B,22.bmp,-120,120,207949,201928,209967,203936,391772.0,385746.0,393788.0,387757.0,17
1,1,0,0,0,13,test,1,1,z,Fri Apr 11 2025 14:05:38 GMT-0500 (Central Daylight Time),410080.0,O,z,1353,18,1,6.bmp,-120,-120,7.bmp,120,-120,8.bmp,-120,120,9.bmp,120,120,9409.0,400671.0,7120,yes,SM,B,6.bmp,-120,-120,207949,201928,209967,203936,401702.0,395675.0,403718.0,397687.0,18
2,0,1,0,0,14,test,1,1,z,Fri Apr 11 2025 14:05:38 GMT-0500 (Central Daylight Time),419793.5,O,z,1658,19,1,26.bmp,-120,-120,27.bmp,120,-120,28.bmp,-120,120,29.bmp,120,120,9709.399999976158,410084.10000002384,7120,yes,SM,B,27.bmp,120,-120,207949,201928,209967,203936,411116.0,405088.0,413132.0,407100.0,19
3,0,0,1,0,15,test,1,1,z,Fri Apr 11 2025 14:05:38 GMT-0500 (Central Daylight Time),428640.6999999285,O,z,794,20,1,30.bmp,-120,-120,31.bmp,120,-120,32.bmp,-120,120,33.bmp,120,120,8842.599999904633,419798.10000002384,7120,yes,SM,B,32.bmp,-120,120,207949,201928,209967,203936,420829.0,414802.0,422845.0,416814.0,20
1,1,0,0,0,16,test,1,1,m,Fri Apr 11 2025 14:05:38 GMT-0500 (Central Daylight Time),437787.60000002384,O,m,1097,21,1,14.bmp,-120,-120,15.bmp,120,-120,16.bmp,-120,120,17.bmp,120,120,9143.0,428644.60000002384,7120,yes,SM,B,16.bmp,-120,-120,207949,201928,209967,203936,429676.0,423649.0,431693.0,425661.0,21
4,0,0,0,1,17,test,1,1,z,Fri Apr 11 2025 14:05:38 GMT-0500 (Central Daylight Time),447101.10000002384,O,z,1263,22,1,18.bmp,-120,-120,19.bmp,120,-120,20.bmp,-120,120,21.bmp,120,120,9309.400000095367,437791.6999999285,7120,yes,SM,B,21.bmp,120,120,207949,201928,209967,203936,438823.0,432796.0,440840.0,434808.0,22
1,1,0,0,0,18,test,1,1,m,Fri Apr 11 2025 14:05:38 GMT-0500 (Central Daylight Time),456231.5,O,m,1077,23,1,34.bmp,-120,-120,35.bmp,120,-120,36.bmp,-120,120,37.bmp,120,120,9126.300000071526,447105.1999999285,7120,yes,SM,B,37.bmp,-120,-120,207949,201928,209967,203936,448137.0,442109.0,450153.0,444122.0,23
2,0,1,0,0,19,test,1,1,z,Fri Apr 11 2025 14:05:38 GMT-0500 (Central Daylight Time),465911.6999999285,O,z,1628,24,1,42.bmp,-120,-120,43.bmp,120,-120,44.bmp,-120,120,45.bmp,120,120,9676.0,456235.6999999285,7120,yes,SM,B,43.bmp,120,-120,207949,201928,209967,203936,457267.0,451240.0,459283.0,453252.0,24
4,0,0,0,1,20,test,1,1,m,Fri Apr 11 2025 14:05:38 GMT-0500 (Central Daylight Time),475358.5,O,m,1394,25,1,46.bmp,-120,-120,47.bmp,120,-120,48.bmp,-120,120,49.bmp,120,120,9442.700000047684,465915.7999999523,7120,yes,SM,B,48.bmp,120,120,207949,201928,209967,203936,466947.0,460920.0,468964.0,462932.0,25
1,1,0,0,0,21,test,1,1,z,Fri Apr 11 2025 14:05:38 GMT-0500 (Central Daylight Time),484688.89999997616,O,z,1276,26,1,38.bmp,-120,-120,39.bmp,120,-120,40.bmp,-120,120,41.bmp,120,120,9325.799999952316,475363.10000002384,7120,yes,SM,B,38.bmp,-120,-120,207949,201928,209967,203936,476394.0,470367.0,478411.0,472379.0,26
4,0,0,0,1,22,test,1,1,z,Fri Apr 11 2025 14:05:38 GMT-0500 (Central Daylight Time),494085.6999999285,O,z,1346,27,1,50.bmp,-120,-120,11.bmp,120,-120,1.bmp,-120,120,2.bmp,120,120,9392.299999952316,484693.39999997616,7120,yes,SM,B,2.bmp,120,120,207949,201928,209967,203936,485724.0,479698.0,487741.0,481710.0,27
3,0,0,1,0,22,test,1,0,m,Fri Apr 11 2025 14:05:38 GMT-0500 (Central Daylight Time),504149.10000002384,O,None,2015,28,1,3.bmp,-120,-120,4.bmp,120,-120,5.bmp,-120,120,6.bmp,120,120,10059.0,494090.10000002384,7120,yes,SM,B,3.bmp,-120,120,207949,201928,209967,203936,495121.0,489094.0,497138.0,491106.0,28
2,0,1,0,0,23,test,1,1,z,Fri Apr 11 2025 14:05:38 GMT-0500 (Central Daylight Time),513162.89999997616,O,z,966,29,1,7.bmp,-120,-120,8.bmp,120,-120,9.bmp,-120,120,10.bmp,120,120,9009.200000047684,504153.6999999285,7120,yes,SM,B,8.bmp,120,-120,207949,201928,209967,203936,505185.0,499158.0,507201.0,501170.0,29
3,0,0,1,0,23,test,1,0,z,Fri Apr 11 2025 14:05:38 GMT-0500 (Central Daylight Time),522776.39999997616,O,m,1560,30,1,11.bmp,-120,-120,12.bmp,120,-120,13.bmp,-120,120,14.bmp,120,120,9608.899999976158,513167.5,7120,yes,SM,B,13.bmp,-120,120,207949,201928,209967,203936,514198.0,508172.0,516215.0,510183.0,30
1,1,0,0,0,24,test,1,1,z,Fri Apr 11 2025 14:05:38 GMT-0500 (Central Daylight Time),532373.1999999285,O,z,1547,31,1,15.bmp,-120,-120,16.bmp,120,-120,17.bmp,-120,120,18.bmp,120,120,9592.699999928474,522780.5,7120,yes,SM,B,15.bmp,-120,-120,207949,201928,209967,203936,523812.0,517785.0,525828.0,519797.0,31
2,0,1,0,0,25,test,1,1,m,Fri Apr 11 2025 14:05:38 GMT-0500 (Central Daylight Time),541986.6999999285,O,m,1550,32,1,19.bmp,-120,-120,20.bmp,120,-120,21.bmp,-120,120,22.bmp,120,120,9609.299999952316,532377.3999999762,7120,yes,SM,B,19.bmp,120,-120,207949,201928,209967,203936,533409.0,527382.0,535425.0,529394.0,32
4,0,0,0,1,26,test,1,1,z,Fri Apr 11 2025 14:05:38 GMT-0500 (Central Daylight Time),551766.7999999523,O,z,1728,33,1,31.bmp,-120,-120,32.bmp,120,-120,33.bmp,-120,120,34.bmp,120,120,9775.899999976158,541990.8999999762,7120,yes,SM,B,34.bmp,120,120,207949,201928,209967,203936,543022.0,536995.0,545039.0,539007.0,33
2,0,1,0,0,26,test,1,0,z,Fri Apr 11 2025 14:05:38 GMT-0500 (Central Daylight Time),561613.6000000238,O,m,1796,34,1,23.bmp,-120,-120,24.bmp,120,-120,25.bmp,-120,120,26.bmp,120,120,9842.600000023842,551771.0,7120,yes,SM,B,24.bmp,120,-120,207949,201928,209967,203936,552802.0,546775.0,554819.0,548787.0,34
4,0,0,0,1,26,test,1,0,m,Fri Apr 11 2025 14:05:38 GMT-0500 (Central Daylight Time),571110.3999999762,O,z,1445,35,1,27.bmp,-120,-120,28.bmp,120,-120,29.bmp,-120,120,30.bmp,120,120,9492.299999952316,561618.1000000238,7120,yes,SM,B,29.bmp,120,120,207949,201928,209967,203936,562649.0,556622.0,564666.0,558634.0,35
3,0,0,1,0,27,test,1,1,m,Fri Apr 11 2025 14:05:38 GMT-0500 (Central Daylight Time),580640.6999999285,O,m,1469,36,1,35.bmp,-120,-120,36.bmp,120,-120,37.bmp,-120,120,38.bmp,120,120,9525.799999952316,571114.8999999762,7120,yes,SM,B,35.bmp,-120,120,207949,201928,209967,203936,572146.0,566119.0,574162.0,568131.0,36
1,1,0,0,0,28,test,1,1,m,Fri Apr 11 2025 14:05:38 GMT-0500 (Central Daylight Time),590320.8999999762,O,m,1619,37,1,39.bmp,-120,-120,40.bmp,120,-120,41.bmp,-120,120,42.bmp,120,120,9675.799999952316,580645.1000000238,7120,yes,SM,B,40.bmp,-120,-120,207949,201928,209967,203936,581676.0,575649.0,583692.0,577661.0,37
2,0,1,0,0,29,test,1,1,m,Fri Apr 11 2025 14:05:38 GMT-0500 (Central Daylight Time),600051.1999999285,O,m,1666,38,1,43.bmp,-120,-120,44.bmp,120,-120,45.bmp,-120,120,46.bmp,120,120,9719.899999976158,590331.2999999523,7120,yes,SM,B,45.bmp,120,-120,207949,201928,209967,203936,591356.0,585336.0,593373.0,587341.0,38
4,0,0,0,1,30,test,1,1,z,Fri Apr 11 2025 14:05:38 GMT-0500 (Central Daylight Time),610014.5,O,z,1904,39,1,47.bmp,-120,-120,48.bmp,120,-120,49.bmp,-120,120,50.bmp,120,120,9959.300000071526,600055.1999999285,7120,yes,SM,B,50.bmp,120,120,207949,201928,209967,203936,601087.0,595060.0,603103.0,597072.0,39
3,0,0,1,0,31,test,1,1,m,Fri Apr 11 2025 14:05:38 GMT-0500 (Central Daylight Time),619461.1999999285,O,m,1397,40,1,4.bmp,-120,-120,5.bmp,120,-120,6.bmp,-120,120,7.bmp,120,120,9442.299999952316,610018.8999999762,7120,yes,SM,B,5.bmp,-120,120,207949,201928,209967,203936,611050.0,605023.0,613066.0,607035.0,40
1,1,0,0,0,31,test,1,0,z,Fri Apr 11 2025 14:05:38 GMT-0500 (Central Daylight Time),629524.6999999285,O,None,2016,41,1,8.bmp,-120,-120,9.bmp,120,-120,10.bmp,-120,120,11.bmp,120,120,10059.599999904633,619465.1000000238,7120,yes,SM,B,8.bmp,-120,-120,207949,201928,209967,203936,620497.0,614469.0,622513.0,616482.0,41
4,0,0,0,1,32,test,1,1,z,Fri Apr 11 2025 14:05:38 GMT-0500 (Central Daylight Time),639388.0,O,z,1814,42,1,12.bmp,-120,-120,13.bmp,120,-120,14.bmp,-120,120,15.bmp,120,120,9859.399999976158,629528.6000000238,7120,yes,SM,B,15.bmp,120,120,207949,201928,209967,203936,630560.0,624533.0,632577.0,626545.0,42
1,1,0,0,0,33,test,1,1,z,Fri Apr 11 2025 14:05:38 GMT-0500 (Central Daylight Time),649134.8999999762,O,z,1695,43,1,16.bmp,-120,-120,17.bmp,120,-120,18.bmp,-120,120,19.bmp,120,120,9742.700000047684,639392.1999999285,7120,yes,SM,B,16.bmp,-120,-120,207949,201928,209967,203936,640424.0,634396.0,642440.0,636408.0,43
4,0,0,0,1,34,test,1,1,m,Fri Apr 11 2025 14:05:38 GMT-0500 (Central Daylight Time),658281.7999999523,O,m,1084,44,1,4.bmp,-120,-120,1.bmp,120,-120,2.bmp,-120,120,3.bmp,120,120,9142.399999976158,649139.3999999762,7120,yes,SM,B,4.bmp,120,120,207949,201928,209967,203936,650170.0,644144.0,652187.0,646155.0,44
1,1,0,0,0,34,test,1,0,m,Fri Apr 11 2025 14:05:38 GMT-0500 (Central Daylight Time),668345.2999999523,O,None,2015,45,1,28.bmp,-120,-120,29.bmp,120,-120,30.bmp,-120,120,31.bmp,120,120,10059.399999976158,658285.8999999762,7120,yes,SM,B,31.bmp,-120,-120,207949,201928,209967,203936,659317.0,653290.0,661334.0,655302.0,45
1,1,0,0,0,35,test,1,1,m,Fri Apr 11 2025 14:05:38 GMT-0500 (Central Daylight Time),677559.0,O,m,1154,46,1,20.bmp,-120,-120,21.bmp,120,-120,22.bmp,-120,120,23.bmp,120,120,9209.0,668350.0,7120,yes,SM,B,21.bmp,-120,-120,207949,201928,209967,203936,669381.0,663354.0,671397.0,665366.0,46
3,0,0,1,0,36,test,1,1,z,Fri Apr 11 2025 14:05:38 GMT-0500 (Central Daylight Time),687172.2999999523,O,z,1564,47,1,24.bmp,-120,-120,25.bmp,120,-120,26.bmp,-120,120,27.bmp,120,120,9609.199999928474,677563.1000000238,7120,yes,SM,B,26.bmp,-120,120,207949,201928,209967,203936,678594.0,672567.0,680611.0,674580.0,47
3,0,0,1,0,36,test,1,0,z,Fri Apr 11 2025 14:05:38 GMT-0500 (Central Daylight Time),697235.7999999523,O,None,2016,48,1,40.bmp,-120,-120,41.bmp,120,-120,42.bmp,-120,120,43.bmp,120,120,10059.299999952316,687176.5,7120,yes,SM,B,42.bmp,-120,120,207949,201928,209967,203936,688208.0,682181.0,690224.0,684193.0,48
2,0,1,0,0,37,test,1,1,z,Fri Apr 11 2025 14:05:38 GMT-0500 (Central Daylight Time),706616.0,O,z,1327,49,1,36.bmp,-120,-120,37.bmp,120,-120,38.bmp,-120,120,39.bmp,120,120,9376.0,697240.0,7120,yes,SM,B,37.bmp,120,-120,207949,201928,209967,203936,698271.0,692244.0,700288.0,694256.0,49
3,0,0,1,0,37,test,1,0,m,Fri Apr 11 2025 14:05:38 GMT-0500 (Central Daylight Time),716680.1999999285,O,None,2016,50,1,32.bmp,-120,-120,33.bmp,120,-120,34.bmp,-120,120,35.bmp,120,120,10059.899999976158,706620.2999999523,7120,yes,SM,B,32.bmp,-120,120,207949,201928,209967,203936,707652.0,701625.0,709668.0,703637.0,50
2,0,1,0,0,38,test,1,1,z,Fri Apr 11 2025 14:05:38 GMT-0500 (Central Daylight Time),725943.6000000238,O,z,1204,51,1,44.bmp,-120,-120,45.bmp,120,-120,46.bmp,-120,120,47.bmp,120,120,9251.200000047684,716692.3999999762,7120,yes,SM,B,45.bmp,120,-120,207949,201928,209967,203936,717716.0,711697.0,719732.0,713701.0,51
4,0,0,0,1,39,test,1,1,m,Fri Apr 11 2025 14:05:38 GMT-0500 (Central Daylight Time),735357.6999999285,O,m,1364,52,1,48.bmp,-120,-120,49.bmp,120,-120,50.bmp,-120,120,31.bmp,120,120,9400.899999976158,725956.7999999523,7120,yes,SM,B,48.bmp,120,120,207949,201928,209967,203936,726979.0,720961.0,728997.0,722965.0,52
3,0,0,1,0,40,test,1,1,z,Fri Apr 11 2025 14:05:38 GMT-0500 (Central Daylight Time),745137.6000000238,O,z,1726,53,1,1.bmp,-120,-120,2.bmp,120,-120,3.bmp,-120,120,4.bmp,120,120,9766.700000047684,735370.8999999762,7120,yes,SM,B,3.bmp,-120,120,207949,201928,209967,203936,736393.0,730376.0,738410.0,732379.0,53
1,1,0,0,0,40,test,1,0,m,Fri Apr 11 2025 14:05:38 GMT-0500 (Central Daylight Time),755200.1000000238,O,None,2014,54,1,5.bmp,-120,-120,6.bmp,120,-120,7.bmp,-120,120,8.bmp,120,120,10049.600000023842,745150.5,7120,yes,SM,B,7.bmp,-120,-120,207949,201928,209967,203936,746173.0,740155.0,748190.0,742158.0,54
4,0,0,0,1,41,test,1,1,z,Fri Apr 11 2025 14:05:38 GMT-0500 (Central Daylight Time),764830.7999999523,O,z,1578,55,1,9.bmp,-120,-120,10.bmp,120,-120,11.bmp,-120,120,12.bmp,120,120,9626.899999976158,755203.8999999762,7120,yes,SM,B,12.bmp,120,120,207949,201928,209967,203936,756236.0,750208.0,758254.0,752222.0,55
2,0,1,0,0,42,test,1,1,m,Fri Apr 11 2025 14:05:38 GMT-0500 (Central Daylight Time),774144.6000000238,O,m,1253,56,1,13.bmp,-120,-120,14.bmp,120,-120,15.bmp,-120,120,16.bmp,120,120,9302.400000095367,764842.1999999285,7120,yes,SM,B,13.bmp,120,-120,207949,201928,209967,203936,765867.0,759847.0,767884.0,761852.0,56
4,0,0,0,1,43,test,1,1,m,Fri Apr 11 2025 14:05:38 GMT-0500 (Central Daylight Time),784008.0,O,m,1803,57,1,17.bmp,-120,-120,18.bmp,120,-120,19.bmp,-120,120,20.bmp,120,120,9851.300000071526,774156.6999999285,7120,yes,SM,B,18.bmp,120,120,207949,201928,209967,203936,775180.0,769161.0,777197.0,771166.0,57
3,0,0,1,0,44,test,1,1,z,Fri Apr 11 2025 14:05:38 GMT-0500 (Central Daylight Time),793704.8999999762,O,z,1635,58,1,21.bmp,-120,-120,22.bmp,120,-120,23.bmp,-120,120,24.bmp,120,120,9684.100000023842,784020.7999999523,7120,yes,SM,B,23.bmp,-120,120,207949,201928,209967,203936,785044.0,779025.0,787061.0,781029.0,58
2,0,1,0,0,45,test,1,1,m,Fri Apr 11 2025 14:05:38 GMT-0500 (Central Daylight Time),803035.0,O,m,1274,59,1,25.bmp,-120,-120,26.bmp,120,-120,27.bmp,-120,120,28.bmp,120,120,9316.300000071526,793718.6999999285,7120,yes,SM,B,28.bmp,120,-120,207949,201928,209967,203936,794740.0,788723.0,796758.0,790726.0,59
1,1,0,0,0,46,test,1,1,z,Fri Apr 11 2025 14:05:38 GMT-0500 (Central Daylight Time),812447.8999999762,O,z,1351,60,1,29.bmp,-120,-120,30.bmp,120,-120,31.bmp,-120,120,32.bmp,120,120,9400.600000023842,803047.2999999523,7120,yes,SM,B,29.bmp,-120,-120,207949,201928,209967,203936,804071.0,798052.0,806088.0,800056.0,60
2,0,1,0,0,46,test,1,0,z,Fri Apr 11 2025 14:05:38 GMT-0500 (Central Daylight Time),822512.1999999285,O,None,2014,61,1,33.bmp,-120,-120,34.bmp,120,-120,35.bmp,-120,120,36.bmp,120,120,10060.599999904633,812451.6000000238,7120,yes,SM,B,34.bmp,120,-120,207949,201928,209967,203936,813484.0,807456.0,815502.0,809468.0,61
4,0,0,0,1,46,test,1,0,z,Fri Apr 11 2025 14:05:38 GMT-0500 (Central Daylight Time),832575.6000000238,O,None,2014,62,1,41.bmp,-120,-120,42.bmp,120,-120,43.bmp,-120,120,44.bmp,120,120,10050.0,822525.6000000238,7120,yes,SM,B,44.bmp,120,120,207949,201928,209967,203936,823548.0,817530.0,825565.0,819533.0,62
1,1,0,0,0,46,test,1,0,m,Fri Apr 11 2025 14:05:38 GMT-0500 (Central Daylight Time),842038.8999999762,O,z,1405,63,1,45.bmp,-120,-120,46.bmp,120,-120,47.bmp,-120,120,48.bmp,120,120,9451.200000047684,832587.6999999285,7120,yes,SM,B,45.bmp,-120,120,207949,201928,209967,203936,833611.0,827592.0,835628.0,829597.0,63
2,0,1,0,0,47,test,1,1,z,Fri Apr 11 2025 14:05:38 GMT-0500 (Central Daylight Time),851386.0,O,z,1284,64,1,49.bmp,-120,-120,50.bmp,120,-120,12.bmp,-120,120,1.bmp,120,120,9334.800000071526,842051.1999999285,7120,yes,SM,B,50.bmp,120,-120,207949,201928,209967,203936,843075.0,837056.0,845092.0,839060.0,64
4,0,0,0,1,48,test,1,1,m,Fri Apr 11 2025 14:05:38 GMT-0500 (Central Daylight Time),860849.5,O,m,1409,65,1,2.bmp,-120,-120,3.bmp,120,-120,4.bmp,-120,120,5.bmp,120,120,9451.200000047684,851398.2999999523,7120,yes,SM,B,4.bmp,120,120,207949,201928,209967,203936,852422.0,846403.0,854439.0,848407.0,65
3,0,0,1,0,49,test,1,1,m,Fri Apr 11 2025 14:05:38 GMT-0500 (Central Daylight Time),870197.1000000238,O,m,1298,66,1,6.bmp,-120,-120,7.bmp,120,-120,8.bmp,-120,120,9.bmp,120,120,9335.400000095367,860861.6999999285,7120,yes,SM,B,9.bmp,-120,120,207949,201928,209967,203936,861884.0,855866.0,863902.0,857871.0,66
2,0,1,0,0,50,test,1,1,m,Fri Apr 11 2025 14:05:38 GMT-0500 (Central Daylight Time),879360.2999999523,O,m,1112,67,1,37.bmp,-120,-120,38.bmp,120,-120,39.bmp,-120,120,40.bmp,120,120,9151.100000023842,870209.1999999285,7120,yes,SM,B,39.bmp,120,-120,207949,201928,209967,203936,871232.0,865214.0,873249.0,867218.0,67
3,0,0,1,0,51,test,1,1,z,Fri Apr 11 2025 14:05:38 GMT-0500 (Central Daylight Time),888557.1000000238,O,z,1139,68,1,10.bmp,-120,-120,11.bmp,120,-120,12.bmp,-120,120,13.bmp,120,120,9183.200000047684,879373.8999999762,7120,yes,SM,B,12.bmp,-120,120,207949,201928,209967,203936,880396.0,874379.0,882413.0,876381.0,68
1,1,0,0,0,52,test,1,1,m,Fri Apr 11 2025 14:05:38 GMT-0500 (Central Daylight Time),897820.1999999285,O,m,1214,69,1,14.bmp,-120,-120,15.bmp,120,-120,16.bmp,-120,120,17.bmp,120,120,9250.399999976158,888569.7999999523,7120,yes,SM,B,15.bmp,-120,-120,207949,201928,209967,203936,889593.0,883574.0,891610.0,885578.0,69
2,0,1,0,0,53,test,1,1,m,Fri Apr 11 2025 14:05:38 GMT-0500 (Central Daylight Time),907817.3999999762,O,m,1934,70,1,18.bmp,-120,-120,19.bmp,120,-120,20.bmp,-120,120,21.bmp,120,120,9990.5,897826.8999999762,7120,yes,SM,B,20.bmp,120,-120,207949,201928,209967,203936,898856.0,892831.0,900874.0,894842.0,70
4,0,0,0,1,54,test,1,1,z,Fri Apr 11 2025 14:05:38 GMT-0500 (Central Daylight Time),917581.3999999762,O,z,1715,71,1,22.bmp,-120,-120,23.bmp,120,-120,24.bmp,-120,120,25.bmp,120,120,9749.799999952316,907831.6000000238,7120,yes,SM,B,25.bmp,120,120,207949,201928,209967,203936,908853.0,902836.0,910870.0,904839.0,71
1,1,0,0,0,55,test,1,1,z,Fri Apr 11 2025 14:05:38 GMT-0500 (Central Daylight Time),926743.7999999523,O,z,1101,72,1,26.bmp,-120,-120,27.bmp,120,-120,28.bmp,-120,120,29.bmp,120,120,9149.0,917594.7999999523,7120,yes,SM,B,26.bmp,-120,-120,207949,201928,209967,203936,918617.0,912599.0,920634.0,914602.0,72
2,0,1,0,0,55,test,1,0,z,Fri Apr 11 2025 14:05:38 GMT-0500 (Central Daylight Time),936807.2999999523,O,None,2014,73,1,30.bmp,-120,-120,31.bmp,120,-120,32.bmp,-120,120,33.bmp,120,120,10059.899999976158,926747.3999999762,7120,yes,SM,B,31.bmp,120,-120,207949,201928,209967,203936,927780.0,921752.0,929797.0,923766.0,73
4,0,0,0,1,56,test,1,1,m,Fri Apr 11 2025 14:05:38 GMT-0500 (Central Daylight Time),946238.0,O,m,1379,74,1,34.bmp,-120,-120,35.bmp,120,-120,36.bmp,-120,120,37.bmp,120,120,9422.600000023842,936815.3999999762,7120,yes,SM,B,36.bmp,120,120,207949,201928,209967,203936,937844.0,931820.0,939861.0,933829.0,74
2,0,1,0,0,56,test,1,0,m,Fri Apr 11 2025 14:05:38 GMT-0500 (Central Daylight Time),955501.6000000238,O,z,1214,75,1,38.bmp,-120,-120,39.bmp,120,-120,40.bmp,-120,120,41.bmp,120,120,9249.600000023842,946252.0,7120,yes,SM,B,41.bmp,120,-120,207949,201928,209967,203936,947274.0,941257.0,949291.0,943259.0,75
1,1,0,0,0,57,test,1,1,z,Fri Apr 11 2025 14:05:38 GMT-0500 (Central Daylight Time),964748.1999999285,O,z,1196,76,1,42.bmp,-120,-120,43.bmp,120,-120,44.bmp,-120,120,45.bmp,120,120,9232.399999976158,955515.7999999523,7120,yes,SM,B,42.bmp,-120,-120,207949,201928,209967,203936,956537.0,950520.0,958555.0,952523.0,76
3,0,0,1,0,58,test,1,1,z,Fri Apr 11 2025 14:05:38 GMT-0500 (Central Daylight Time),974145.6999999285,O,z,1343,77,1,50.bmp,-120,-120,11.bmp,120,-120,1.bmp,-120,120,2.bmp,120,120,9393.099999904633,964752.6000000238,7120,yes,SM,B,1.bmp,-120,120,207949,201928,209967,203936,965784.0,959757.0,967802.0,961770.0,77
1,1,0,0,0,59,test,1,1,m,Fri Apr 11 2025 14:05:38 GMT-0500 (Central Daylight Time),983992.5,O,m,1793,78,1,46.bmp,-120,-120,47.bmp,120,-120,48.bmp,-120,120,49.bmp,120,120,9833.399999976158,974159.1000000238,7120,yes,SM,B,47.bmp,-120,-120,207949,201928,209967,203936,975182.0,969164.0,977199.0,971167.0,78
4,0,0,0,1,60,test,1,1,m,Fri Apr 11 2025 14:05:38 GMT-0500 (Central Daylight Time),993538.6000000238,O,m,1456,79,1,7.bmp,-120,-120,8.bmp,120,-120,9.bmp,-120,120,10.bmp,120,120,9510.700000047684,984027.8999999762,7120,yes,SM,B,7.bmp,120,120,207949,201928,209967,203936,985061.0,979032.0,987079.0,981047.0,79
3,0,0,1,0,61,test,1,1,m,Fri Apr 11 2025 14:05:38 GMT-0500 (Central Daylight Time),1002669.5,O,m,1080,80,1,3.bmp,-120,-120,4.bmp,120,-120,5.bmp,-120,120,6.bmp,120,120,9126.899999976158,993542.6000000238,7120,yes,SM,B,6.bmp,-120,120,207949,201928,209967,203936,994575.0,988547.0,996592.0,990560.0,80
