acc_sum,block,block_c,condition,correct,correct_response,datetime,endtime,flanker,jitter,project,response,response_test_buffer_response,response_test_target_response,response_time,response_time_test_buffer_response,response_time_test_target_response,row_sel,session_number,start_end,starttime,subject_id,target,task,task_vers,time_test_buffer,time_test_buffer_response,time_test_constants,time_test_flanker,time_test_jitter,time_test_logger,time_test_target,time_test_target_response,time_test_variables,trial
1,prac,1,inc,1,z,Wed Apr 02 2025 11:41:41 GMT-0500 (Central Daylight Time),83204.89999997616,window,1100,O,z,,,810,,,16,1,3209.7999999523163,79995.10000002384,7104,temper,AF,B,,,,,,,,,,1
2,prac,1,inc,1,m,Wed Apr 02 2025 11:41:41 GMT-0500 (Central Daylight Time),86221.19999992847,hate,1100,O,m,,,602,,,4,1,3010.0999999046326,83211.10000002384,7104,film,AF,B,,,,,,,,,,2
3,prac,1,con,1,z,Wed Apr 02 2025 11:41:41 GMT-0500 (Central Daylight Time),88938.29999995232,rage,1000,O,z,,,415,,,15,1,2709.6999999284744,86228.60000002384,7104,rage,AF,B,,,,,,,,,,3
3,prac,1,inc,0,m,Wed Apr 02 2025 11:41:41 GMT-0500 (Central Daylight Time),91584.89999997616,kind,900,O,z,,,446,,,2,1,2639.100000023842,88945.79999995232,7104,rock,AF,B,,,,,,,,,,4
3,prac,1,con,0,z,Wed Apr 02 2025 11:41:41 GMT-0500 (Central Daylight Time),94150.69999992847,brutal,800,O,m,,,450,,,13,1,2560.0,91590.69999992847,7104,brutal,AF,B,,,,,,,,,,5
4,prac,1,con,1,z,Wed Apr 02 2025 11:41:41 GMT-0500 (Central Daylight Time),96899.89999997616,love,1000,O,z,,,444,,,11,1,2743.399999976158,94156.5,7104,love,AF,B,,,,,,,,,,6
5,prac,1,inc,1,z,Wed Apr 02 2025 11:41:41 GMT-0500 (Central Daylight Time),99933.0,rock,900,O,z,,,827,,,10,1,3027.399999976158,96905.60000002384,7104,kind,AF,B,,,,,,,,,,7
5,prac,1,inc,0,z,Wed Apr 02 2025 11:41:41 GMT-0500 (Central Daylight Time),102715.19999992847,film,900,O,m,,,577,,,14,1,2776.399999976158,99938.79999995232,7104,hate,AF,B,,,,,,,,,,8
6,prac,1,con,1,m,Wed Apr 02 2025 11:41:41 GMT-0500 (Central Daylight Time),105614.19999992847,step,800,O,m,,,791,,,1,1,2892.399999976158,102721.79999995232,7104,step,AF,B,,,,,,,,,,9
7,prac,1,con,1,m,Wed Apr 02 2025 11:41:41 GMT-0500 (Central Daylight Time),108946.19999992847,bell,1000,O,m,,,1034,,,3,1,3327.0,105619.19999992847,7104,bell,AF,B,,,,,,,,,,10
8,prac,1,con,1,m,Wed Apr 02 2025 11:41:41 GMT-0500 (Central Daylight Time),112028.0,remote,1000,O,m,,,768,,,7,1,3075.899999976158,108952.10000002384,7104,remote,AF,B,,,,,,,,,,11
9,prac,1,inc,1,m,Wed Apr 02 2025 11:41:41 GMT-0500 (Central Daylight Time),115127.79999995232,brutal,1100,O,m,,,688,,,8,1,3094.1999999284744,112033.60000002384,7104,window,AF,B,,,,,,,,,,12
10,prac,1,con,1,m,Wed Apr 02 2025 11:41:41 GMT-0500 (Central Daylight Time),118174.29999995232,jacket,800,O,m,,,942,,,5,1,3042.0,115132.29999995232,7104,jacket,AF,B,,,,,,,,,,13
11,prac,1,inc,1,m,Wed Apr 02 2025 11:41:41 GMT-0500 (Central Daylight Time),121126.69999992847,elated,900,O,m,,,742,,,6,1,2947.0,118179.69999992847,7104,napkin,AF,B,,,,,,,,,,14
12,prac,1,inc,1,z,Wed Apr 02 2025 11:41:41 GMT-0500 (Central Daylight Time),124192.79999995232,napkin,1100,O,z,,,657,,,12,1,3061.600000023842,121131.19999992847,7104,friend,AF,B,,,,,,,,,,15
13,prac,1,con,1,z,Wed Apr 02 2025 11:41:41 GMT-0500 (Central Daylight Time),126756.5,elated,800,O,z,,,452,,,9,1,2558.7000000476837,124197.79999995232,7104,elated,AF,B,,,,,,,,,,16
1,test,1,con,1,m,Wed Apr 02 2025 11:41:41 GMT-0500 (Central Daylight Time),148984.0,remote,1000,O,m,m,None,840,640.0,200.0,115,1,2378.5,146605.5,7104,remote,AF,B,145366,145366,143635,144648,143636,146014,145165,145165,146014,1
1,test,1,inc,0,m,Wed Apr 02 2025 11:41:41 GMT-0500 (Central Daylight Time),150899.89999997616,rage,800,O,z,z,None,570,371.0,199.0,69,1,1910.3999999761581,148989.5,7104,step,AF,B,147547,147547,146020,146830,146020,147930,147347,147347,147930,2
2,test,1,inc,1,z,Wed Apr 02 2025 11:41:41 GMT-0500 (Central Daylight Time),153347.60000002384,window,1100,O,z,z,None,813,614.0,199.0,8,1,2442.4000000953674,150905.19999992847,7104,elated,AF,B,149761,149761,147935,149047,147936,150378,149562,149562,150378,3
3,test,1,inc,1,m,Wed Apr 02 2025 11:41:41 GMT-0500 (Central Daylight Time),155330.79999995232,rage,800,O,m,m,None,635,419.0,216.0,93,1,1978.2999999523163,153352.5,7104,film,AF,B,151931,151931,150383,151196,150383,152361,151714,151714,152361,4
4,test,1,con,1,m,Wed Apr 02 2025 11:41:41 GMT-0500 (Central Daylight Time),157213.19999992847,rock,800,O,m,m,None,542,343.0,199.0,73,1,1877.8999999761581,155335.29999995232,7104,rock,AF,B,153896,153896,152365,153180,152366,154243,153696,153696,154243,5
5,test,1,con,1,z,Wed Apr 02 2025 11:41:41 GMT-0500 (Central Daylight Time),159296.69999992847,brutal,1100,O,z,z,None,440,241.0,199.0,36,1,2078.6999999284744,157218.0,7104,brutal,AF,B,156078,156078,154248,155363,154248,156327,155878,155878,156327,6
6,test,1,con,1,m,Wed Apr 02 2025 11:41:41 GMT-0500 (Central Daylight Time),161396.39999997616,jacket,1000,O,m,m,None,566,366.0,200.0,99,1,2094.7000000476837,159301.69999992847,7104,jacket,AF,B,158060,158060,156332,157345,156332,158427,157860,157860,158426,7
7,test,1,inc,1,z,Wed Apr 02 2025 11:41:41 GMT-0500 (Central Daylight Time),163694.5,remote,1000,O,z,z,None,758,559.0,199.0,31,1,2291.3000000715256,161403.19999992847,7104,friend,AF,B,160160,160160,158433,159444,158433,160725,159960,159960,160725,8
8,test,1,inc,1,z,Wed Apr 02 2025 11:41:41 GMT-0500 (Central Daylight Time),166077.69999992847,film,1100,O,z,z,None,745,543.0,202.0,48,1,2379.2999999523163,163698.39999997616,7104,hate,AF,B,162560,162560,160728,161844,160729,163108,162357,162357,163108,9
9,test,1,con,1,z,Wed Apr 02 2025 11:41:41 GMT-0500 (Central Daylight Time),167979.29999995232,temper,800,O,z,z,None,564,351.0,213.0,57,1,1896.2999999523163,166083.0,7104,temper,AF,B,164658,164658,163113,163926,163113,165009,164444,164444,165009,10
10,test,1,inc,1,m,Wed Apr 02 2025 11:41:41 GMT-0500 (Central Daylight Time),170075.5,temper,1000,O,m,m,None,553,353.0,200.0,111,1,2088.899999976158,167986.60000002384,7104,napkin,AF,B,166742,166742,165017,166025,165017,167106,166542,166542,167106,11
11,test,1,con,1,m,Wed Apr 02 2025 11:41:41 GMT-0500 (Central Daylight Time),172492.69999992847,step,1100,O,m,m,None,768,553.0,215.0,68,1,2410.0,170082.69999992847,7104,step,AF,B,168957,168957,167113,168225,167113,169523,168741,168741,169523,12
12,test,1,con,1,m,Wed Apr 02 2025 11:41:41 GMT-0500 (Central Daylight Time),174376.10000002384,bell,800,O,m,m,None,532,333.0,199.0,81,1,1876.7000000476837,172499.39999997616,7104,bell,AF,B,171057,171057,169529,170340,169530,171406,170857,170857,171406,13
13,test,1,inc,1,m,Wed Apr 02 2025 11:41:41 GMT-0500 (Central Daylight Time),176356.79999995232,rage,800,O,m,m,None,642,443.0,199.0,77,1,1974.1000000238419,174382.69999992847,7104,rock,AF,B,172939,172939,171413,172224,171414,173387,172739,172739,173387,14
14,test,1,inc,1,m,Wed Apr 02 2025 11:41:41 GMT-0500 (Central Daylight Time),178407.5,kind,900,O,m,m,None,607,393.0,214.0,70,1,2043.2000000476837,176364.29999995232,7104,step,AF,B,175038,175038,173394,174307,173395,175438,174823,174823,175438,15
15,test,1,inc,1,m,Wed Apr 02 2025 11:41:41 GMT-0500 (Central Daylight Time),180607.0,love,1000,O,m,m,None,650,451.0,199.0,71,1,2190.0,178417.0,7104,step,AF,B,177171,177171,175447,176454,175448,177637,176971,176972,177637,16
16,test,1,inc,1,z,Wed Apr 02 2025 11:41:41 GMT-0500 (Central Daylight Time),182706.39999997616,napkin,900,O,z,z,None,654,455.0,199.0,6,1,2092.7000000476837,180613.69999992847,7104,elated,AF,B,179270,179271,177644,178553,177644,179737,179071,179071,179736,17
17,test,1,con,1,z,Wed Apr 02 2025 11:41:41 GMT-0500 (Central Daylight Time),184907.39999997616,temper,900,O,z,z,None,766,550.0,216.0,58,1,2194.5,182712.89999997616,7104,temper,AF,B,181387,181387,179743,180653,179743,181937,181170,181170,181937,18
18,test,1,inc,1,z,Wed Apr 02 2025 11:41:41 GMT-0500 (Central Daylight Time),187386.60000002384,window,1100,O,z,z,None,852,638.0,214.0,40,1,2470.100000023842,184916.5,7104,brutal,AF,B,183769,183769,181947,183052,181947,184417,183554,183554,184417,19
19,test,1,inc,1,z,Wed Apr 02 2025 11:41:41 GMT-0500 (Central Daylight Time),189637.60000002384,window,1100,O,z,z,None,625,411.0,214.0,32,1,2244.600000023842,187393.0,7104,friend,AF,B,186251,186251,184423,185535,184423,186668,186036,186036,186668,20
20,test,1,inc,1,m,Wed Apr 02 2025 11:41:41 GMT-0500 (Central Daylight Time),191885.19999992847,hate,1100,O,m,m,None,601,401.0,200.0,72,1,2239.1999999284744,189646.0,7104,step,AF,B,188501,188501,186676,187784,186676,188915,188300,188300,188915,21
21,test,1,con,1,z,Wed Apr 02 2025 11:41:41 GMT-0500 (Central Daylight Time),194253.19999992847,friend,800,O,z,z,None,1020,819.0,201.0,25,1,2359.5999999046326,191893.60000002384,7104,friend,AF,B,190451,190451,188924,189734,188924,191283,190250,190250,191283,22
22,test,1,con,1,z,Wed Apr 02 2025 11:41:41 GMT-0500 (Central Daylight Time),196469.5,hate,1100,O,z,z,None,578,379.0,199.0,44,1,2209.3000000715256,194260.19999992847,7104,hate,AF,B,193116,193116,191290,192399,191291,193500,192916,192916,193499,23
23,test,1,con,1,z,Wed Apr 02 2025 11:41:41 GMT-0500 (Central Daylight Time),198785.29999995232,rage,1000,O,z,z,None,775,576.0,199.0,51,1,2310.5,196474.79999995232,7104,rage,AF,B,195231,195231,193505,194516,193505,195815,195032,195032,195815,24
24,test,1,inc,1,m,Wed Apr 02 2025 11:41:41 GMT-0500 (Central Daylight Time),200882.39999997616,brutal,900,O,m,m,None,653,439.0,214.0,102,1,2091.5,198790.89999997616,7104,jacket,AF,B,197464,197464,195821,196731,195821,197912,197248,197249,197912,25
25,test,1,inc,1,z,Wed Apr 02 2025 11:41:41 GMT-0500 (Central Daylight Time),202998.39999997616,napkin,900,O,z,z,None,667,467.0,200.0,62,1,2111.7000000476837,200886.69999992847,7104,temper,AF,B,199547,199547,197917,198832,197917,200028,199347,199347,200028,26
26,test,1,inc,1,z,Wed Apr 02 2025 11:41:41 GMT-0500 (Central Daylight Time),205032.19999992847,jacket,800,O,z,z,None,683,482.0,201.0,29,1,2030.7999999523163,203001.39999997616,7104,friend,AF,B,201564,201564,200031,200847,200032,202062,201363,201363,202062,27
27,test,1,con,1,z,Wed Apr 02 2025 11:41:41 GMT-0500 (Central Daylight Time),207649.60000002384,rage,1100,O,z,z,None,983,782.0,201.0,52,1,2612.0,205037.60000002384,7104,rage,AF,B,203897,203897,202068,203179,202068,204680,203696,203696,204680,28
28,test,1,con,1,m,Wed Apr 02 2025 11:41:41 GMT-0500 (Central Daylight Time),209613.69999992847,window,800,O,m,m,None,626,427.0,199.0,121,1,1958.2999999523163,207655.39999997616,7104,window,AF,B,206212,206212,204685,205495,204686,206644,206012,206012,206644,29
29,test,1,inc,1,m,Wed Apr 02 2025 11:41:41 GMT-0500 (Central Daylight Time),211747.5,kind,900,O,m,m,None,688,473.0,215.0,94,1,2128.7000000476837,209618.79999995232,7104,film,AF,B,208293,208294,206649,207561,206649,208778,208078,208078,208777,30
30,test,1,con,1,m,Wed Apr 02 2025 11:41:41 GMT-0500 (Central Daylight Time),213946.5,rock,1000,O,m,m,None,657,456.0,201.0,75,1,2193.2000000476837,211753.29999995232,7104,rock,AF,B,210511,210511,208783,209794,208784,210977,210309,210309,210977,31
31,test,1,inc,1,z,Wed Apr 02 2025 11:41:41 GMT-0500 (Central Daylight Time),216128.5,napkin,900,O,z,z,None,740,541.0,199.0,38,1,2177.3000000715256,213951.19999992847,7104,brutal,AF,B,212609,212609,210981,211893,210982,213159,212410,212410,213159,32
32,test,1,con,1,m,Wed Apr 02 2025 11:41:41 GMT-0500 (Central Daylight Time),218411.19999992847,napkin,1000,O,m,m,None,738,539.0,199.0,107,1,2277.6999999284744,216133.5,7104,napkin,AF,B,214892,214892,213164,214176,213164,215441,214692,214692,215441,33
33,test,1,con,1,m,Wed Apr 02 2025 11:41:41 GMT-0500 (Central Daylight Time),220778.39999997616,bell,1100,O,m,m,None,733,533.0,200.0,84,1,2362.0,218416.39999997616,7104,bell,AF,B,217275,217275,215446,216558,215447,217809,217075,217075,217808,34
34,test,1,inc,1,m,Wed Apr 02 2025 11:41:41 GMT-0500 (Central Daylight Time),223159.89999997616,friend,1100,O,m,m,None,742,542.0,200.0,120,1,2375.899999976158,220784.0,7104,remote,AF,B,219641,219641,217814,218925,217814,220190,219441,219441,220190,35
35,test,1,con,1,m,Wed Apr 02 2025 11:41:41 GMT-0500 (Central Daylight Time),225358.79999995232,film,1100,O,m,m,None,557,358.0,199.0,92,1,2193.6999999284744,223165.10000002384,7104,film,AF,B,222024,222024,220195,221306,220195,222389,221824,221824,222389,36
36,test,1,inc,1,z,Wed Apr 02 2025 11:41:41 GMT-0500 (Central Daylight Time),227441.10000002384,jacket,800,O,z,z,None,740,541.0,199.0,37,1,2078.2000000476837,225362.89999997616,7104,brutal,AF,B,223922,223922,222393,223205,222393,224471,223723,223723,224471,37
37,test,1,inc,1,z,Wed Apr 02 2025 11:41:41 GMT-0500 (Central Daylight Time),229673.10000002384,rock,900,O,z,z,None,788,589.0,199.0,14,1,2227.100000023842,227446.0,7104,kind,AF,B,226105,226105,224476,225389,224477,226703,225905,225905,226703,38
38,test,1,con,1,m,Wed Apr 02 2025 11:41:41 GMT-0500 (Central Daylight Time),231674.69999992847,rock,900,O,m,m,None,582,366.0,216.0,74,1,1996.5,229678.19999992847,7104,rock,AF,B,228338,228338,226708,227621,226709,228705,228122,228122,228705,39
39,test,1,con,1,m,Wed Apr 02 2025 11:41:41 GMT-0500 (Central Daylight Time),233490.69999992847,film,800,O,m,m,None,483,283.0,200.0,89,1,1809.7999999523163,231680.89999997616,7104,film,AF,B,230237,230237,228711,229521,228711,230521,230036,230036,230521,40
40,test,1,con,1,z,Wed Apr 02 2025 11:41:41 GMT-0500 (Central Daylight Time),235492.5,kind,1000,O,z,z,None,471,271.0,200.0,11,1,1995.7000000476837,233496.79999995232,7104,kind,AF,B,232238,232238,230527,231536,230527,232523,232037,232037,232523,41
41,test,1,con,1,m,Wed Apr 02 2025 11:41:41 GMT-0500 (Central Daylight Time),237872.0,step,1000,O,m,m,None,834,634.0,200.0,67,1,2376.399999976158,235495.60000002384,7104,step,AF,B,234252,234252,232526,233536,232526,234902,234052,234052,234902,42
42,test,1,con,1,z,Wed Apr 02 2025 11:41:41 GMT-0500 (Central Daylight Time),239770.89999997616,love,800,O,z,z,None,555,339.0,216.0,17,1,1892.8999999761581,237878.0,7104,love,AF,B,236452,236452,234908,235718,234908,236801,236236,236236,236801,43
43,test,1,inc,1,m,Wed Apr 02 2025 11:41:41 GMT-0500 (Central Daylight Time),241639.89999997616,elated,800,O,m,m,None,534,335.0,199.0,101,1,1864.2000000476837,239775.69999992847,7104,jacket,AF,B,238319,238319,236806,237618,236806,238670,238119,238119,238670,44
44,test,1,con,1,z,Wed Apr 02 2025 11:41:41 GMT-0500 (Central Daylight Time),244021.69999992847,brutal,1000,O,z,z,None,866,666.0,200.0,35,1,2376.7999999523163,241644.89999997616,7104,brutal,AF,B,240385,240385,238675,239683,238675,241052,240184,240184,241052,45
45,test,1,con,1,z,Wed Apr 02 2025 11:41:41 GMT-0500 (Central Daylight Time),246452.69999992847,kind,1100,O,z,z,None,795,595.0,200.0,12,1,2426.399999976158,244026.29999995232,7104,kind,AF,B,242884,242884,241056,242166,241057,243483,242684,242684,243483,46
46,test,1,con,1,z,Wed Apr 02 2025 11:41:41 GMT-0500 (Central Daylight Time),248385.79999995232,love,900,O,z,z,None,499,283.0,216.0,18,1,1928.3999999761581,246457.39999997616,7104,love,AF,B,245133,245133,243487,244400,243488,245416,244916,244916,245416,47
47,test,1,con,1,m,Wed Apr 02 2025 11:41:41 GMT-0500 (Central Daylight Time),250186.10000002384,jacket,800,O,m,m,None,469,267.0,202.0,97,1,1795.8000000715256,248390.29999995232,7104,jacket,AF,B,246949,246949,245420,246231,245421,247216,246746,246746,247216,48
48,test,1,con,1,m,Wed Apr 02 2025 11:41:41 GMT-0500 (Central Daylight Time),252184.10000002384,film,1000,O,m,m,None,449,249.0,200.0,91,1,1991.4000000953674,250192.69999992847,7104,film,AF,B,248949,248949,247223,248232,247223,249214,248749,248749,249214,49
49,test,1,inc,1,z,Wed Apr 02 2025 11:41:41 GMT-0500 (Central Daylight Time),254284.0,film,1100,O,z,z,None,482,267.0,215.0,16,1,2094.0,252190.0,7104,kind,AF,B,251047,251047,249220,250330,249220,251314,250832,250832,251314,50
50,test,1,inc,1,z,Wed Apr 02 2025 11:41:41 GMT-0500 (Central Daylight Time),256349.79999995232,rock,900,O,z,z,None,619,418.0,201.0,46,1,2060.399999976158,254289.39999997616,7104,hate,AF,B,252949,252949,251319,252231,251320,253380,252747,252747,253380,51
51,test,1,con,1,z,Wed Apr 02 2025 11:41:41 GMT-0500 (Central Daylight Time),258232.10000002384,brutal,800,O,z,z,None,541,342.0,199.0,33,1,1876.8000000715256,256355.29999995232,7104,brutal,AF,B,254913,254913,253385,254196,253386,255262,254714,254714,255262,52
52,test,1,inc,1,z,Wed Apr 02 2025 11:41:41 GMT-0500 (Central Daylight Time),260381.29999995232,film,1100,O,z,z,None,504,304.0,200.0,56,1,2144.600000023842,258236.69999992847,7104,rage,AF,B,257095,257095,255267,256378,255267,257411,256895,256895,257411,53
53,test,1,con,1,z,Wed Apr 02 2025 11:41:41 GMT-0500 (Central Daylight Time),262382.10000002384,hate,1000,O,z,z,None,461,247.0,214.0,43,1,1995.9000000953674,260386.19999992847,7104,hate,AF,B,259160,259160,257416,258429,257417,259412,258945,258946,259412,54
54,test,1,con,1,m,Wed Apr 02 2025 11:41:41 GMT-0500 (Central Daylight Time),264479.6999999285,rock,1100,O,m,m,None,458,258.0,200.0,76,1,2092.2999999523163,262387.39999997616,7104,rock,AF,B,261245,261245,259417,260528,259418,261510,261044,261044,261510,55
55,test,1,inc,1,m,Wed Apr 02 2025 11:41:41 GMT-0500 (Central Daylight Time),266613.0,love,1000,O,m,m,None,596,396.0,200.0,95,1,2128.3000000715256,264484.6999999285,7104,film,AF,B,263243,263243,261515,262528,261515,263643,263043,263043,263643,56
56,test,1,con,1,m,Wed Apr 02 2025 11:41:41 GMT-0500 (Central Daylight Time),268513.10000002384,jacket,900,O,m,m,None,449,250.0,199.0,98,1,1895.8000000715256,266617.2999999523,7104,jacket,AF,B,265276,265276,263647,264560,263648,265543,265076,265076,265543,57
57,test,1,inc,1,m,Wed Apr 02 2025 11:41:41 GMT-0500 (Central Daylight Time),270545.10000002384,love,1000,O,m,m,None,498,299.0,199.0,87,1,2027.1000000238419,268518.0,7104,bell,AF,B,267276,267276,265548,266560,265548,267575,267076,267076,267575,58
58,test,1,con,1,m,Wed Apr 02 2025 11:41:41 GMT-0500 (Central Daylight Time),272460.39999997616,napkin,900,O,m,m,None,479,280.0,199.0,106,1,1911.3999999761581,270549.0,7104,napkin,AF,B,269207,269207,267579,268492,267579,269491,269008,269008,269490,59
59,test,1,con,1,m,Wed Apr 02 2025 11:41:41 GMT-0500 (Central Daylight Time),274476.39999997616,window,1000,O,m,m,None,469,269.0,200.0,123,1,2010.7999999523163,272465.60000002384,7104,window,AF,B,271225,271225,269496,270507,269496,271506,271024,271024,271506,60
60,test,1,con,1,z,Wed Apr 02 2025 11:41:41 GMT-0500 (Central Daylight Time),276276.5,elated,800,O,z,z,None,468,254.0,214.0,1,1,1794.6000000238419,274481.89999997616,7104,elated,AF,B,273040,273040,271512,272323,271512,273307,272826,272826,273306,61
61,test,1,inc,1,m,Wed Apr 02 2025 11:41:41 GMT-0500 (Central Daylight Time),278224.1999999285,kind,900,O,m,m,None,515,316.0,199.0,78,1,1940.7999999523163,276283.39999997616,7104,rock,AF,B,274938,274938,273313,274224,273314,275254,274738,274738,275254,62
62,test,1,con,1,z,Wed Apr 02 2025 11:41:41 GMT-0500 (Central Daylight Time),280290.7999999523,love,1000,O,z,z,None,521,322.0,199.0,19,1,2064.100000023842,278226.6999999285,7104,love,AF,B,276988,276988,275257,276273,275257,277321,276788,276788,277321,63
63,test,1,inc,1,z,Wed Apr 02 2025 11:41:41 GMT-0500 (Central Daylight Time),282644.10000002384,bell,1000,O,z,z,None,804,604.0,200.0,15,1,2349.100000023842,280295.0,7104,kind,AF,B,279055,279055,277325,278339,277325,279674,278855,278855,279674,64
64,test,1,inc,1,z,Wed Apr 02 2025 11:41:41 GMT-0500 (Central Daylight Time),284791.10000002384,step,800,O,z,z,None,810,610.0,200.0,45,1,2144.2000000476837,282646.89999997616,7104,hate,AF,B,281204,281204,279677,280488,279677,281821,281004,281004,281821,65
65,test,1,inc,1,z,Wed Apr 02 2025 11:41:41 GMT-0500 (Central Daylight Time),286907.10000002384,bell,1000,O,z,z,None,574,372.0,202.0,47,1,2110.3000000715256,284796.7999999523,7104,hate,AF,B,283555,283555,281827,282837,281827,283937,283353,283353,283937,66
66,test,1,con,1,m,Wed Apr 02 2025 11:41:41 GMT-0500 (Central Daylight Time),288971.10000002384,napkin,1100,O,m,m,None,445,244.0,201.0,108,1,2055.100000023842,286916.0,7104,napkin,AF,B,285755,285755,283946,285052,283946,286001,285554,285554,286001,67
66,test,1,inc,0,z,Wed Apr 02 2025 11:41:41 GMT-0500 (Central Daylight Time),291088.10000002384,film,1100,O,m,m,None,476,276.0,200.0,24,1,2111.5,288976.60000002384,7104,love,AF,B,287835,287835,286007,287120,286007,288118,287635,287635,288118,68
67,test,1,inc,1,z,Wed Apr 02 2025 11:41:41 GMT-0500 (Central Daylight Time),293286.89999997616,remote,1000,O,z,z,None,673,460.0,213.0,7,1,2192.7999999523163,291094.10000002384,7104,elated,AF,B,289851,289851,288124,289135,288125,290317,289637,289637,290317,69
68,test,1,inc,1,m,Wed Apr 02 2025 11:41:41 GMT-0500 (Central Daylight Time),295520.5,hate,1100,O,m,m,None,591,392.0,199.0,96,1,2229.399999976158,293291.10000002384,7104,film,AF,B,292151,292151,290321,291434,290322,292551,291951,291951,292550,70
69,test,1,inc,1,z,Wed Apr 02 2025 11:41:41 GMT-0500 (Central Daylight Time),297370.0,jacket,800,O,z,z,None,516,317.0,199.0,5,1,1843.3000000715256,295526.6999999285,7104,elated,AF,B,294067,294067,292557,293366,292557,294400,293868,293868,294400,71
70,test,1,con,1,m,Wed Apr 02 2025 11:41:41 GMT-0500 (Central Daylight Time),299418.10000002384,window,900,O,m,m,None,614,414.0,200.0,122,1,2042.0,297376.10000002384,7104,window,AF,B,296033,296033,294406,295316,294407,296448,295833,295833,296448,72
71,test,1,inc,1,z,Wed Apr 02 2025 11:41:41 GMT-0500 (Central Daylight Time),301519.39999997616,bell,1000,O,z,z,None,566,351.0,215.0,23,1,2095.899999976158,299423.5,7104,love,AF,B,298183,298183,296454,297465,296454,298549,297967,297967,298549,73
72,test,1,inc,1,m,Wed Apr 02 2025 11:41:41 GMT-0500 (Central Daylight Time),303501.10000002384,kind,900,O,m,m,None,545,345.0,200.0,86,1,1977.0,301524.10000002384,7104,bell,AF,B,300182,300182,298554,299466,298555,300531,299982,299982,300531,74
73,test,1,con,1,z,Wed Apr 02 2025 11:41:41 GMT-0500 (Central Daylight Time),305634.0,friend,900,O,z,z,None,689,490.0,199.0,26,1,2127.600000023842,303506.39999997616,7104,friend,AF,B,302165,302165,300536,301449,300537,302664,301965,301965,302664,75
74,test,1,con,1,m,Wed Apr 02 2025 11:41:41 GMT-0500 (Central Daylight Time),307765.89999997616,bell,1000,O,m,m,None,593,392.0,201.0,83,1,2127.7000000476837,305638.1999999285,7104,bell,AF,B,304398,304398,302668,303681,302669,304796,304196,304197,304796,76
75,test,1,con,1,z,Wed Apr 02 2025 11:41:41 GMT-0500 (Central Daylight Time),309865.60000002384,elated,1100,O,z,z,None,473,273.0,200.0,4,1,2094.4000000953674,307771.1999999285,7104,elated,AF,B,306613,306613,304801,305911,304802,306896,306413,306413,306896,77
75,test,1,con,0,m,Wed Apr 02 2025 11:41:41 GMT-0500 (Central Daylight Time),311748.60000002384,remote,900,O,z,z,None,436,237.0,199.0,114,1,1875.6000000238419,309873.0,7104,remote,AF,B,308529,308529,306903,307813,306904,308779,308330,308330,308779,78
76,test,1,inc,1,m,Wed Apr 02 2025 11:41:41 GMT-0500 (Central Daylight Time),313996.0,friend,1100,O,m,m,None,617,402.0,215.0,112,1,2242.100000023842,311753.89999997616,7104,napkin,AF,B,310612,310612,308784,309894,308784,311026,310396,310396,311026,79
77,test,1,inc,1,m,Wed Apr 02 2025 11:41:41 GMT-0500 (Central Daylight Time),316263.6999999285,temper,1000,O,m,m,None,727,526.0,201.0,119,1,2263.6999999284744,314000.0,7104,remote,AF,B,312760,312760,311030,312044,311030,313294,312559,312559,313294,80
78,test,1,inc,1,z,Wed Apr 02 2025 11:41:41 GMT-0500 (Central Daylight Time),318130.10000002384,step,800,O,z,z,None,532,332.0,200.0,53,1,1862.1000000238419,316268.0,7104,rage,AF,B,314828,314828,313298,314110,313298,315160,314628,314628,315160,81
79,test,1,con,1,z,Wed Apr 02 2025 11:41:41 GMT-0500 (Central Daylight Time),320094.10000002384,hate,900,O,z,z,None,541,342.0,199.0,42,1,1959.8000000715256,318134.2999999523,7104,hate,AF,B,316777,316777,315164,316076,315165,317124,316577,316577,317124,82
80,test,1,inc,1,z,Wed Apr 02 2025 11:41:41 GMT-0500 (Central Daylight Time),321963.10000002384,step,800,O,z,z,None,531,332.0,199.0,21,1,1864.5,320098.60000002384,7104,love,AF,B,318660,318660,317129,317944,317129,318993,318459,318460,318993,83
81,test,1,con,1,z,Wed Apr 02 2025 11:41:41 GMT-0500 (Central Daylight Time),324144.2999999523,friend,1100,O,z,z,None,533,333.0,200.0,28,1,2176.7999999523163,321967.5,7104,friend,AF,B,320825,320825,318998,320108,318998,321174,320625,320625,321174,84
82,test,1,con,1,m,Wed Apr 02 2025 11:41:41 GMT-0500 (Central Daylight Time),325961.39999997616,remote,800,O,m,m,None,483,283.0,200.0,113,1,1811.7999999523163,324149.60000002384,7104,remote,AF,B,322708,322708,321180,321992,321180,322992,322508,322508,322991,85
83,test,1,con,1,z,Wed Apr 02 2025 11:41:41 GMT-0500 (Central Daylight Time),327809.5,rage,800,O,z,z,None,514,315.0,199.0,49,1,1842.5,325967.0,7104,rage,AF,B,324524,324524,322997,323807,322997,324840,324324,324324,324840,86
84,test,1,con,1,m,Wed Apr 02 2025 11:41:41 GMT-0500 (Central Daylight Time),330008.6999999285,bell,900,O,m,m,None,757,558.0,199.0,82,1,2194.2999999523163,327814.39999997616,7104,bell,AF,B,326472,326472,324844,325757,324845,327039,326272,326272,327039,87
85,test,1,inc,1,z,Wed Apr 02 2025 11:41:41 GMT-0500 (Central Daylight Time),332224.89999997616,remote,1000,O,z,z,None,680,481.0,199.0,39,1,2212.600000023842,330012.2999999523,7104,brutal,AF,B,328773,328773,327042,328056,327043,329255,328574,328574,329255,88
86,test,1,inc,1,z,Wed Apr 02 2025 11:41:41 GMT-0500 (Central Daylight Time),334340.60000002384,napkin,900,O,z,z,None,676,477.0,199.0,30,1,2111.3000000715256,332229.2999999523,7104,friend,AF,B,330889,330889,329259,330171,329260,331371,330690,330690,331371,89
87,test,1,inc,1,m,Wed Apr 02 2025 11:41:41 GMT-0500 (Central Daylight Time),336323.60000002384,elated,800,O,m,m,None,637,438.0,199.0,109,1,1980.3000000715256,334343.2999999523,7104,napkin,AF,B,332904,332904,331373,332188,331374,333354,332705,332705,333354,90
88,test,1,con,1,z,Wed Apr 02 2025 11:41:41 GMT-0500 (Central Daylight Time),338606.39999997616,brutal,900,O,z,z,None,833,633.0,200.0,34,1,2278.2999999523163,336328.10000002384,7104,brutal,AF,B,334989,334989,333358,334271,333358,335636,334788,334788,335636,91
89,test,1,inc,1,m,Wed Apr 02 2025 11:41:41 GMT-0500 (Central Daylight Time),340456.7999999523,elated,800,O,m,m,None,516,301.0,215.0,125,1,1846.1999999284744,338610.60000002384,7104,window,AF,B,337186,337186,335641,336452,335641,337487,336970,336970,337487,92
90,test,1,inc,1,z,Wed Apr 02 2025 11:41:41 GMT-0500 (Central Daylight Time),342604.6999999285,window,1100,O,z,z,None,502,303.0,199.0,64,1,2143.5,340461.1999999285,7104,temper,AF,B,339319,339319,337491,338603,337491,339635,339120,339120,339635,93
91,test,1,con,1,m,Wed Apr 02 2025 11:41:41 GMT-0500 (Central Daylight Time),344554.39999997616,napkin,800,O,m,m,None,605,390.0,215.0,105,1,1945.1000000238419,342609.2999999523,7104,napkin,AF,B,341185,341185,339639,340453,339639,341584,340969,340969,341584,94
92,test,1,inc,1,m,Wed Apr 02 2025 11:41:41 GMT-0500 (Central Daylight Time),346553.39999997616,brutal,900,O,m,m,None,557,356.0,201.0,126,1,1995.0,344558.39999997616,7104,window,AF,B,343218,343218,341588,342501,341589,343583,343017,343017,343583,95
92,test,1,inc,0,m,Wed Apr 02 2025 11:41:41 GMT-0500 (Central Daylight Time),348553.0,love,1000,O,z,z,None,455,256.0,199.0,79,1,1994.7000000476837,346558.2999999523,7104,rock,AF,B,345318,345318,343588,344600,343589,345583,345118,345118,345583,96
93,test,1,con,1,z,Wed Apr 02 2025 11:41:41 GMT-0500 (Central Daylight Time),350787.1999999285,love,1100,O,z,z,None,586,385.0,201.0,20,1,2229.899999976158,348557.2999999523,7104,love,AF,B,347416,347416,345587,346699,345588,347817,347215,347215,347817,97
94,test,1,inc,1,m,Wed Apr 02 2025 11:41:41 GMT-0500 (Central Daylight Time),353087.7999999523,hate,1100,O,m,m,None,660,460.0,200.0,80,1,2295.5,350792.2999999523,7104,rock,AF,B,349649,349649,347822,348932,347823,350118,349449,349449,350118,98
95,test,1,inc,1,m,Wed Apr 02 2025 11:41:41 GMT-0500 (Central Daylight Time),355183.7999999523,temper,1000,O,m,m,None,548,332.0,216.0,127,1,2093.399999976158,353090.39999997616,7104,window,AF,B,351866,351866,350120,351131,350121,352214,351649,351649,352214,99
96,test,1,inc,1,m,Wed Apr 02 2025 11:41:41 GMT-0500 (Central Daylight Time),357183.5,brutal,900,O,m,m,None,565,365.0,200.0,110,1,1994.8000000715256,355188.6999999285,7104,napkin,AF,B,353833,353833,352219,353131,352219,354214,353632,353632,354213,100
96,test,1,con,0,z,Wed Apr 02 2025 11:41:41 GMT-0500 (Central Daylight Time),359099.2999999523,rage,900,O,m,m,None,481,282.0,199.0,50,1,1911.6999999284744,357187.60000002384,7104,rage,AF,B,355847,355847,354218,355130,354218,356129,355647,355647,356129,101
97,test,1,inc,1,m,Wed Apr 02 2025 11:41:41 GMT-0500 (Central Daylight Time),361382.5,friend,1100,O,m,m,None,634,418.0,216.0,104,1,2277.7000000476837,359104.7999999523,7104,jacket,AF,B,357980,357980,356135,357247,356135,358413,357763,357763,358413,102
98,test,1,inc,1,z,Wed Apr 02 2025 11:41:41 GMT-0500 (Central Daylight Time),363814.2999999523,remote,1000,O,z,z,None,884,685.0,199.0,63,1,2426.600000023842,361387.6999999285,7104,temper,AF,B,360145,360145,358418,359429,358418,360844,359946,359946,360844,103
99,test,1,con,1,z,Wed Apr 02 2025 11:41:41 GMT-0500 (Central Daylight Time),365981.0,temper,1000,O,z,z,None,630,431.0,199.0,59,1,2162.2000000476837,363818.7999999523,7104,temper,AF,B,362578,362578,360849,361861,360849,363011,362379,362379,363011,104
100,test,1,con,1,z,Wed Apr 02 2025 11:41:41 GMT-0500 (Central Daylight Time),367846.60000002384,kind,800,O,z,z,None,517,317.0,200.0,9,1,1860.6000000238419,365986.0,7104,kind,AF,B,364545,364545,363016,363828,363016,364877,364345,364345,364877,105
101,test,1,inc,1,m,Wed Apr 02 2025 11:41:41 GMT-0500 (Central Daylight Time),369879.10000002384,rage,800,O,m,m,None,683,484.0,199.0,85,1,2028.5,367850.60000002384,7104,bell,AF,B,366410,366410,364881,365696,364881,366909,366210,366210,366909,106
102,test,1,inc,1,m,Wed Apr 02 2025 11:41:41 GMT-0500 (Central Daylight Time),372044.7999999523,friend,1100,O,m,m,None,527,328.0,199.0,128,1,2160.899999976158,369883.89999997616,7104,window,AF,B,368743,368743,366914,368027,366914,369075,368543,368543,369075,107
103,test,1,con,1,m,Wed Apr 02 2025 11:41:41 GMT-0500 (Central Daylight Time),374111.60000002384,step,900,O,m,m,None,625,424.0,201.0,66,1,2061.0,372050.60000002384,7104,step,AF,B,370710,370710,369081,369995,369081,371142,370509,370509,371142,108
104,test,1,con,1,m,Wed Apr 02 2025 11:41:41 GMT-0500 (Central Daylight Time),376361.10000002384,window,1100,O,m,m,None,601,401.0,200.0,124,1,2244.7000000476837,374116.39999997616,7104,window,AF,B,372975,372975,371146,372259,371147,373391,372774,372774,373391,109
105,test,1,inc,1,z,Wed Apr 02 2025 11:41:41 GMT-0500 (Central Daylight Time),378426.60000002384,jacket,800,O,z,z,None,721,521.0,200.0,61,1,2060.100000023842,376366.5,7104,temper,AF,B,374925,374925,373397,374208,373397,375457,374725,374725,375457,110
106,test,1,con,1,z,Wed Apr 02 2025 11:41:41 GMT-0500 (Central Daylight Time),380426.10000002384,friend,1000,O,z,z,None,454,255.0,199.0,27,1,1994.3000000715256,378431.7999999523,7104,friend,AF,B,377191,377191,375462,376474,375462,377456,376991,376991,377456,111
107,test,1,con,1,z,Wed Apr 02 2025 11:41:41 GMT-0500 (Central Daylight Time),382309.60000002384,elated,900,O,z,z,None,443,244.0,199.0,2,1,1878.6000000238419,380431.0,7104,elated,AF,B,379090,379090,377461,378375,377461,379340,378890,378890,379340,112
108,test,1,inc,1,m,Wed Apr 02 2025 11:41:41 GMT-0500 (Central Daylight Time),384558.10000002384,hate,1100,O,m,m,None,601,401.0,200.0,88,1,2244.0,382314.10000002384,7104,bell,AF,B,381173,381173,379344,380456,379344,381588,380972,380972,381588,113
109,test,1,con,1,z,Wed Apr 02 2025 11:41:41 GMT-0500 (Central Daylight Time),386641.5,kind,900,O,z,z,None,640,425.0,215.0,10,1,2078.899999976158,384562.60000002384,7104,kind,AF,B,383238,383238,381593,382505,381593,383672,383023,383023,383672,114
110,test,1,con,1,m,Wed Apr 02 2025 11:41:41 GMT-0500 (Central Daylight Time),388573.0,step,800,O,m,m,None,592,377.0,215.0,65,1,1928.0,386645.0,7104,step,AF,B,385221,385221,383675,384489,383675,385603,385006,385006,385603,115
111,test,1,inc,1,z,Wed Apr 02 2025 11:41:41 GMT-0500 (Central Daylight Time),390691.2999999523,bell,1000,O,z,z,None,597,383.0,214.0,55,1,2113.399999976158,388577.89999997616,7104,rage,AF,B,387338,387338,385608,386621,385608,387721,387123,387123,387721,116
112,test,1,inc,1,z,Wed Apr 02 2025 11:41:41 GMT-0500 (Central Daylight Time),392755.1999999285,rock,900,O,z,z,None,630,430.0,200.0,54,1,2057.5,390697.6999999285,7104,rage,AF,B,389353,389353,387728,388638,387728,389785,389153,389153,389785,117
113,test,1,con,1,z,Wed Apr 02 2025 11:41:41 GMT-0500 (Central Daylight Time),394770.2999999523,elated,1000,O,z,z,None,478,264.0,214.0,3,1,2009.3999999761581,392760.89999997616,7104,elated,AF,B,391535,391535,389791,390804,389791,391800,391320,391320,391800,118
114,test,1,con,1,z,Wed Apr 02 2025 11:41:41 GMT-0500 (Central Daylight Time),396653.7999999523,hate,800,O,z,z,None,542,343.0,199.0,41,1,1877.6000000238419,394776.1999999285,7104,hate,AF,B,393335,393335,391806,392619,391807,393684,393135,393135,393684,119
115,test,1,inc,1,z,Wed Apr 02 2025 11:41:41 GMT-0500 (Central Daylight Time),398802.60000002384,step,800,O,z,z,None,801,588.0,213.0,13,1,2143.2000000476837,396659.39999997616,7104,kind,AF,B,395234,395234,393689,394501,393690,395833,395020,395020,395833,120
116,test,1,inc,1,z,Wed Apr 02 2025 11:41:41 GMT-0500 (Central Daylight Time),400737.0,rock,900,O,z,z,None,501,300.0,201.0,22,1,1927.8999999761581,398809.10000002384,7104,love,AF,B,397467,397467,395839,396748,395840,397767,397266,397266,397767,121
117,test,1,con,1,m,Wed Apr 02 2025 11:41:41 GMT-0500 (Central Daylight Time),402652.7999999523,film,900,O,m,m,None,478,277.0,201.0,90,1,1911.3999999761581,400741.39999997616,7104,film,AF,B,399401,399401,397771,398684,397772,399683,399200,399200,399683,122
118,test,1,con,1,m,Wed Apr 02 2025 11:41:41 GMT-0500 (Central Daylight Time),404834.6999999285,jacket,1100,O,m,m,None,538,338.0,200.0,100,1,2177.0999999046326,402657.60000002384,7104,jacket,AF,B,401516,401516,399688,400801,399688,401865,401315,401315,401865,123
119,test,1,con,1,z,Wed Apr 02 2025 11:41:41 GMT-0500 (Central Daylight Time),406953.10000002384,temper,1100,O,z,z,None,469,270.0,199.0,60,1,2113.3000000715256,404839.7999999523,7104,temper,AF,B,403698,403698,401870,402982,401870,403983,403498,403498,403983,124
120,test,1,con,1,m,Wed Apr 02 2025 11:41:41 GMT-0500 (Central Daylight Time),409201.7999999523,remote,1100,O,m,m,None,634,432.0,202.0,116,1,2244.0,406957.7999999523,7104,remote,AF,B,405799,405799,403988,405095,403988,406232,405597,405597,406232,125
121,test,1,inc,1,m,Wed Apr 02 2025 11:41:41 GMT-0500 (Central Daylight Time),411298.5,elated,800,O,m,m,None,753,551.0,202.0,117,1,2089.5,409209.0,7104,remote,AF,B,407763,407763,406239,407048,406240,408329,407561,407561,408329,126
122,test,1,inc,1,m,Wed Apr 02 2025 11:41:41 GMT-0500 (Central Daylight Time),413399.6999999285,temper,1000,O,m,m,None,553,353.0,200.0,103,1,2094.2999999523163,411305.39999997616,7104,jacket,AF,B,410061,410061,408335,409344,408336,410430,409861,409861,410430,127
123,test,1,inc,1,m,Wed Apr 02 2025 11:41:41 GMT-0500 (Central Daylight Time),415381.0,brutal,900,O,m,m,None,542,343.0,199.0,118,1,1973.5,413407.5,7104,remote,AF,B,412063,412063,410438,411346,410438,412411,411863,411863,412411,128
