block_c,block_dur,condition,countdown,datetime,endtime,list,multichar_response,project,response,response_time,session_number,start_end,starttime,subject_id,task,task_vers,trial
,,,,Tue Mar 11 2025 14:07:10 GMT-0500 (Central Daylight Time),,,,O,space,304,1,,,7093,WL,B,
prac,,0,,Tue Mar 11 2025 14:07:10 GMT-0500 (Central Daylight Time),,NA,b,O,b,18647,1,,,7093,WL,B,1.0
prac,,0,,Tue Mar 11 2025 14:07:10 GMT-0500 (Central Daylight Time),,NA,bo,O,o,892,1,,,7093,WL,B,1.0
prac,,0,,Tue Mar 11 2025 14:07:10 GMT-0500 (Central Daylight Time),,NA,boo,O,o,163,1,,,7093,WL,B,1.0
prac,,0,,Tue Mar 11 2025 14:07:10 GMT-0500 (Central Daylight Time),,NA,boos,O,s,227,1,,,7093,WL,B,1.0
prac,,0,,Tue Mar 11 2025 14:07:10 GMT-0500 (Central Daylight Time),,NA,boost,O,t,281,1,,,7093,WL,B,1.0
prac,,0,,Tue Mar 11 2025 14:07:10 GMT-0500 (Central Daylight Time),,NA,boostenter,O,enter,334,1,,,7093,WL,B,1.0
1,0.7000000476837158,learn,59299.999952316284,Tue Mar 11 2025 14:07:10 GMT-0500 (Central Daylight Time),178729.5,A,s,O,s,687,1,699.5,178030.0,7093,WL,B,1.0
1,0.8670001029968262,learn,59132.999897003174,Tue Mar 11 2025 14:07:10 GMT-0500 (Central Daylight Time),178896.0,A,sk,O,k,145,1,866.0,178030.0,7093,WL,B,1.0
1,1.0829999446868896,learn,58917.00005531311,Tue Mar 11 2025 14:07:10 GMT-0500 (Central Daylight Time),179112.5,A,ski,O,i,204,1,1082.5,178030.0,7093,WL,B,1.0
1,1.8659999370574951,learn,58134.000062942505,Tue Mar 11 2025 14:07:10 GMT-0500 (Central Daylight Time),179895.5,A,skin,O,n,772,1,1865.5,178030.0,7093,WL,B,1.0
1,2.7660000324249268,learn,57233.99996757507,Tue Mar 11 2025 14:07:10 GMT-0500 (Central Daylight Time),180795.19999999553,A,skinenter,O,enter,893,1,2765.1999999955297,178030.0,7093,WL,B,1.0
1,3.5160000324249268,learn,56483.99996757507,Tue Mar 11 2025 14:07:10 GMT-0500 (Central Daylight Time),181545.1000000015,A,a,O,a,737,1,749.6000000014901,180795.5,7093,WL,B,2.0
1,3.881999969482422,learn,56118.00003051758,Tue Mar 11 2025 14:07:10 GMT-0500 (Central Daylight Time),181911.6000000015,A,ar,O,r,347,1,1116.1000000014901,180795.5,7093,WL,B,2.0
1,5.049000024795532,learn,54950.99997520447,Tue Mar 11 2025 14:07:10 GMT-0500 (Central Daylight Time),183078.0,A,arm,O,m,1149,1,2282.5,180795.5,7093,WL,B,2.0
1,5.699000120162964,learn,54300.999879837036,Tue Mar 11 2025 14:07:10 GMT-0500 (Central Daylight Time),183727.79999999702,A,armenter,O,enter,631,1,2932.2999999970198,180795.5,7093,WL,B,2.0
1,5.999000072479248,learn,54000.99992752075,Tue Mar 11 2025 14:07:10 GMT-0500 (Central Daylight Time),184027.69999999553,A,w,O,w,293,1,299.5,183728.19999999553,7093,WL,B,3.0
1,6.247999906539917,learn,53752.00009346008,Tue Mar 11 2025 14:07:10 GMT-0500 (Central Daylight Time),184277.5,A,wi,O,i,232,1,549.3000000044703,183728.19999999553,7093,WL,B,3.0
1,6.565000057220459,learn,53434.99994277954,Tue Mar 11 2025 14:07:10 GMT-0500 (Central Daylight Time),184594.29999999702,A,wif,O,f,295,1,866.1000000014901,183728.19999999553,7093,WL,B,3.0
1,6.8480000495910645,learn,53151.999950408936,Tue Mar 11 2025 14:07:10 GMT-0500 (Central Daylight Time),184877.3999999985,A,wife,O,e,274,1,1149.2000000029802,183728.19999999553,7093,WL,B,3.0
1,7.247999906539917,learn,52752.00009346008,Tue Mar 11 2025 14:07:10 GMT-0500 (Central Daylight Time),185277.29999999702,A,wifeenter,O,enter,384,1,1549.1000000014901,183728.19999999553,7093,WL,B,3.0
1,9.69700002670288,learn,50302.99997329712,Tue Mar 11 2025 14:07:10 GMT-0500 (Central Daylight Time),187726.3999999985,A,l,O,l,2439,1,2448.7000000029802,185277.69999999553,7093,WL,B,4.0
1,9.864000082015991,learn,50135.99991798401,Tue Mar 11 2025 14:07:10 GMT-0500 (Central Daylight Time),187893.3999999985,A,la,O,a,150,1,2615.7000000029802,185277.69999999553,7093,WL,B,4.0
1,10.579999923706055,learn,49420.000076293945,Tue Mar 11 2025 14:07:10 GMT-0500 (Central Daylight Time),188609.29999999702,A,lak,O,k,695,1,3331.60000000149,185277.69999999553,7093,WL,B,4.0
1,10.730000019073486,learn,49269.999980926514,Tue Mar 11 2025 14:07:10 GMT-0500 (Central Daylight Time),188759.5,A,lake,O,e,131,1,3481.8000000044703,185277.69999999553,7093,WL,B,4.0
1,11.114000082015991,learn,48885.99991798401,Tue Mar 11 2025 14:07:10 GMT-0500 (Central Daylight Time),189142.69999999553,A,lakeenter,O,enter,365,1,3865.0,185277.69999999553,7093,WL,B,4.0
1,11.996999979019165,learn,48003.000020980835,Tue Mar 11 2025 14:07:10 GMT-0500 (Central Daylight Time),190025.79999999702,A,c,O,c,862,1,882.5,189143.29999999702,7093,WL,B,5.0
1,12.213000059127808,learn,47786.99994087219,Tue Mar 11 2025 14:07:10 GMT-0500 (Central Daylight Time),190242.3999999985,A,ca,O,a,203,1,1099.1000000014901,189143.29999999702,7093,WL,B,5.0
1,12.630000114440918,learn,47369.99988555908,Tue Mar 11 2025 14:07:10 GMT-0500 (Central Daylight Time),190659.0,A,cab,O,b,395,1,1515.7000000029802,189143.29999999702,7093,WL,B,5.0
1,13.013000011444092,learn,46986.99998855591,Tue Mar 11 2025 14:07:10 GMT-0500 (Central Daylight Time),191042.5,A,cabi,O,i,362,1,1899.2000000029802,189143.29999999702,7093,WL,B,5.0
1,13.246000051498413,learn,46753.99994850159,Tue Mar 11 2025 14:07:10 GMT-0500 (Central Daylight Time),191275.3999999985,A,cabin,O,n,219,1,2132.10000000149,189143.29999999702,7093,WL,B,5.0
1,13.746000051498413,learn,46253.99994850159,Tue Mar 11 2025 14:07:10 GMT-0500 (Central Daylight Time),191775.19999999553,A,cabinenter,O,enter,482,1,2631.89999999851,189143.29999999702,7093,WL,B,5.0
1,14.378999948501587,learn,45621.00005149841,Tue Mar 11 2025 14:07:10 GMT-0500 (Central Daylight Time),192408.3999999985,A,s,O,s,613,1,632.6000000014901,191775.79999999702,7093,WL,B,6.0
1,14.562000036239624,learn,45437.999963760376,Tue Mar 11 2025 14:07:10 GMT-0500 (Central Daylight Time),192591.5,A,st,O,t,172,1,815.7000000029802,191775.79999999702,7093,WL,B,6.0
1,14.812000036239624,learn,45187.999963760376,Tue Mar 11 2025 14:07:10 GMT-0500 (Central Daylight Time),192841.5,A,sta,O,a,229,1,1065.7000000029802,191775.79999999702,7093,WL,B,6.0
1,15.378999948501587,learn,44621.00005149841,Tue Mar 11 2025 14:07:10 GMT-0500 (Central Daylight Time),193408.0,A,star,O,r,555,1,1632.2000000029802,191775.79999999702,7093,WL,B,6.0
1,15.663000106811523,learn,44336.99989318848,Tue Mar 11 2025 14:07:10 GMT-0500 (Central Daylight Time),193692.5,A,starenter,O,enter,269,1,1916.7000000029802,191775.79999999702,7093,WL,B,6.0
1,16.02900004386902,learn,43970.99995613098,Tue Mar 11 2025 14:07:10 GMT-0500 (Central Daylight Time),194057.79999999702,A,s,O,s,352,1,364.6000000014901,193693.19999999553,7093,WL,B,7.0
1,16.34500002861023,learn,43654.99997138977,Tue Mar 11 2025 14:07:10 GMT-0500 (Central Daylight Time),194374.1000000015,A,sk,O,k,307,1,680.9000000059605,193693.19999999553,7093,WL,B,7.0
1,16.562000036239624,learn,43437.999963760376,Tue Mar 11 2025 14:07:10 GMT-0500 (Central Daylight Time),194591.0,A,ski,O,i,199,1,897.8000000044703,193693.19999999553,7093,WL,B,7.0
1,16.861999988555908,learn,43138.00001144409,Tue Mar 11 2025 14:07:10 GMT-0500 (Central Daylight Time),194890.8999999985,A,skin,O,n,286,1,1197.7000000029802,193693.19999999553,7093,WL,B,7.0
1,17.795000076293945,learn,42204.999923706055,Tue Mar 11 2025 14:07:10 GMT-0500 (Central Daylight Time),195823.8999999985,A,skinenter,O,enter,921,1,2130.7000000029802,193693.19999999553,7093,WL,B,7.0
1,22.22699999809265,learn,37773.00000190735,Tue Mar 11 2025 14:07:10 GMT-0500 (Central Daylight Time),200256.0,A,g,O,g,4420,1,4431.5,195824.5,7093,WL,B,8.0
1,22.41000008583069,learn,37589.99991416931,Tue Mar 11 2025 14:07:10 GMT-0500 (Central Daylight Time),200439.19999999553,A,gr,O,r,172,1,4614.69999999553,195824.5,7093,WL,B,8.0
1,22.743000030517578,learn,37256.99996948242,Tue Mar 11 2025 14:07:10 GMT-0500 (Central Daylight Time),200772.3999999985,A,gra,O,a,326,1,4947.89999999851,195824.5,7093,WL,B,8.0
1,23.075999975204468,learn,36924.00002479553,Tue Mar 11 2025 14:07:10 GMT-0500 (Central Daylight Time),201105.6000000015,A,gras,O,s,313,1,5281.10000000149,195824.5,7093,WL,B,8.0
1,23.2260000705719,learn,36773.9999294281,Tue Mar 11 2025 14:07:10 GMT-0500 (Central Daylight Time),201255.6000000015,A,grass,O,s,140,1,5431.10000000149,195824.5,7093,WL,B,8.0
1,23.710000038146973,learn,36289.99996185303,Tue Mar 11 2025 14:07:10 GMT-0500 (Central Daylight Time),201738.79999999702,A,grassenter,O,enter,470,1,5914.29999999702,195824.5,7093,WL,B,8.0
1,24.14300012588501,learn,35856.99987411499,Tue Mar 11 2025 14:07:10 GMT-0500 (Central Daylight Time),202172.0,A,d,O,d,418,1,432.8999999985099,201739.1000000015,7093,WL,B,9.0
1,24.45900011062622,learn,35540.99988937378,Tue Mar 11 2025 14:07:10 GMT-0500 (Central Daylight Time),202488.5,A,do,O,o,305,1,749.3999999985099,201739.1000000015,7093,WL,B,9.0
1,24.66000008583069,learn,35339.99991416931,Tue Mar 11 2025 14:07:10 GMT-0500 (Central Daylight Time),202689.0,A,doo,O,o,181,1,949.8999999985099,201739.1000000015,7093,WL,B,9.0
1,25.092000007629395,learn,34907.999992370605,Tue Mar 11 2025 14:07:10 GMT-0500 (Central Daylight Time),203121.6000000015,A,door,O,r,420,1,1382.5,201739.1000000015,7093,WL,B,9.0
1,25.509000062942505,learn,34490.999937057495,Tue Mar 11 2025 14:07:10 GMT-0500 (Central Daylight Time),203538.19999999553,A,doorenter,O,enter,395,1,1799.0999999940395,201739.1000000015,7093,WL,B,9.0
1,33.82299995422363,learn,26177.000045776367,Tue Mar 11 2025 14:07:10 GMT-0500 (Central Daylight Time),211852.19999999553,A,s,O,s,8299,1,8313.59999999404,203538.6000000015,7093,WL,B,10.0
1,34.19000005722046,learn,25809.99994277954,Tue Mar 11 2025 14:07:10 GMT-0500 (Central Daylight Time),212218.79999999702,A,sk,O,k,360,1,8680.19999999553,203538.6000000015,7093,WL,B,10.0
1,34.390000104904175,learn,25609.999895095825,Tue Mar 11 2025 14:07:10 GMT-0500 (Central Daylight Time),212418.79999999702,A,ski,O,i,187,1,8880.19999999553,203538.6000000015,7093,WL,B,10.0
1,34.58899998664856,learn,25411.00001335144,Tue Mar 11 2025 14:07:10 GMT-0500 (Central Daylight Time),212618.19999999553,A,skin,O,n,179,1,9079.59999999404,203538.6000000015,7093,WL,B,10.0
1,35.35599994659424,learn,24644.00005340576,Tue Mar 11 2025 14:07:10 GMT-0500 (Central Daylight Time),213385.29999999702,A,skinenter,O,enter,755,1,9846.69999999553,203538.6000000015,7093,WL,B,10.0
1,36.25600004196167,learn,23743.99995803833,Tue Mar 11 2025 14:07:10 GMT-0500 (Central Daylight Time),214284.8999999985,A,c,O,c,892,1,899.2000000029802,213385.69999999553,7093,WL,B,11.0
1,36.43900012969971,learn,23560.999870300293,Tue Mar 11 2025 14:07:10 GMT-0500 (Central Daylight Time),214468.19999999553,A,cl,O,l,168,1,1082.5,213385.69999999553,7093,WL,B,11.0
1,36.62299990653992,learn,23377.000093460083,Tue Mar 11 2025 14:07:10 GMT-0500 (Central Daylight Time),214652.3999999985,A,clo,O,o,177,1,1266.7000000029802,213385.69999999553,7093,WL,B,11.0
1,36.954999923706055,learn,23045.000076293945,Tue Mar 11 2025 14:07:10 GMT-0500 (Central Daylight Time),214984.5,A,cloc,O,c,321,1,1598.8000000044703,213385.69999999553,7093,WL,B,11.0
1,37.138999938964844,learn,22861.000061035156,Tue Mar 11 2025 14:07:10 GMT-0500 (Central Daylight Time),215167.8999999985,A,clock,O,k,173,1,1782.2000000029802,213385.69999999553,7093,WL,B,11.0
1,37.50500011444092,learn,22494.999885559082,Tue Mar 11 2025 14:07:10 GMT-0500 (Central Daylight Time),215534.5,A,clockenter,O,enter,349,1,2148.8000000044703,213385.69999999553,7093,WL,B,11.0
1,46.735000133514404,learn,13264.999866485596,Tue Mar 11 2025 14:07:10 GMT-0500 (Central Daylight Time),224764.6000000015,A,d,O,d,9215,1,9229.70000000298,215534.8999999985,7093,WL,B,12.0
1,46.96900010108948,learn,13030.999898910522,Tue Mar 11 2025 14:07:10 GMT-0500 (Central Daylight Time),224998.29999999702,A,do,O,o,216,1,9463.39999999851,215534.8999999985,7093,WL,B,12.0
1,47.11899995803833,learn,12881.00004196167,Tue Mar 11 2025 14:07:10 GMT-0500 (Central Daylight Time),225148.29999999702,A,doo,O,o,142,1,9613.39999999851,215534.8999999985,7093,WL,B,12.0
1,47.25200009346008,learn,12747.999906539917,Tue Mar 11 2025 14:07:10 GMT-0500 (Central Daylight Time),225281.3999999985,A,door,O,r,113,1,9746.5,215534.8999999985,7093,WL,B,12.0
1,47.43600010871887,learn,12563.999891281128,Tue Mar 11 2025 14:07:10 GMT-0500 (Central Daylight Time),225464.69999999553,A,doorenter,O,enter,165,1,9929.79999999702,215534.8999999985,7093,WL,B,12.0
1,51.28399991989136,learn,8716.000080108643,Tue Mar 11 2025 14:07:10 GMT-0500 (Central Daylight Time),229313.5,A,h,O,h,3837,1,3848.39999999851,225465.1000000015,7093,WL,B,13.0
1,51.48399996757507,learn,8516.000032424927,Tue Mar 11 2025 14:07:10 GMT-0500 (Central Daylight Time),229513.5,A,ho,O,o,180,1,4048.39999999851,225465.1000000015,7093,WL,B,13.0
1,51.651000022888184,learn,8348.999977111816,Tue Mar 11 2025 14:07:10 GMT-0500 (Central Daylight Time),229680.1000000015,A,hou,O,u,148,1,4215.0,225465.1000000015,7093,WL,B,13.0
1,51.91799998283386,learn,8082.000017166138,Tue Mar 11 2025 14:07:10 GMT-0500 (Central Daylight Time),229946.8999999985,A,hous,O,s,246,1,4481.79999999702,225465.1000000015,7093,WL,B,13.0
1,52.18400001525879,learn,7815.999984741211,Tue Mar 11 2025 14:07:10 GMT-0500 (Central Daylight Time),230213.19999999553,A,house,O,e,251,1,4748.0999999940395,225465.1000000015,7093,WL,B,13.0
1,52.51699995994568,learn,7483.000040054321,Tue Mar 11 2025 14:07:10 GMT-0500 (Central Daylight Time),230546.29999999702,A,houseenter,O,enter,320,1,5081.19999999553,225465.1000000015,7093,WL,B,13.0
1,60.01600003242493,learn,-16.000032424926758,Tue Mar 11 2025 14:07:10 GMT-0500 (Central Daylight Time),238045.29999999702,A,None,O,None,7494,1,7498.60000000149,230546.69999999553,7093,WL,B,14.0
2,0.75,learn,59250.0,Tue Mar 11 2025 14:07:10 GMT-0500 (Central Daylight Time),308971.799999997,A,w,O,w,735,1,749.2999999970198,308222.5,7093,WL,B,1.0
2,0.9000000953674316,learn,59099.99990463257,Tue Mar 11 2025 14:07:10 GMT-0500 (Central Daylight Time),309121.69999999553,A,wi,O,i,136,1,899.1999999955297,308222.5,7093,WL,B,1.0
2,1.0830001831054688,learn,58916.99981689453,Tue Mar 11 2025 14:07:10 GMT-0500 (Central Daylight Time),309305.19999999553,A,win,O,n,163,1,1082.6999999955297,308222.5,7093,WL,B,1.0
2,1.4660000801086426,learn,58533.99991989136,Tue Mar 11 2025 14:07:10 GMT-0500 (Central Daylight Time),309688.19999999553,A,wind,O,d,364,1,1465.6999999955297,308222.5,7093,WL,B,1.0
2,1.7330000400543213,learn,58266.99995994568,Tue Mar 11 2025 14:07:10 GMT-0500 (Central Daylight Time),309954.69999999553,A,windy,O,y,261,1,1732.1999999955297,308222.5,7093,WL,B,1.0
2,4.016000032424927,learn,55983.99996757507,Tue Mar 11 2025 14:07:10 GMT-0500 (Central Daylight Time),312237.5,A,wind,O,backspace,2275,1,4015.0,308222.5,7093,WL,B,1.0
2,5.749000072479248,learn,54250.99992752075,Tue Mar 11 2025 14:07:10 GMT-0500 (Central Daylight Time),313970.3999999985,A,windo,O,o,1728,1,5747.89999999851,308222.5,7093,WL,B,1.0
2,5.949000120162964,learn,54050.999879837036,Tue Mar 11 2025 14:07:10 GMT-0500 (Central Daylight Time),314170.3999999985,A,window,O,w,179,1,5947.89999999851,308222.5,7093,WL,B,1.0
2,6.2820000648498535,learn,53717.99993515015,Tue Mar 11 2025 14:07:10 GMT-0500 (Central Daylight Time),314503.3999999985,A,windowenter,O,enter,315,1,6280.89999999851,308222.5,7093,WL,B,1.0
2,6.815000057220459,learn,53184.99994277954,Tue Mar 11 2025 14:07:10 GMT-0500 (Central Daylight Time),315036.5,A,c,O,c,518,1,532.6000000014901,314503.8999999985,7093,WL,B,2.0
2,6.998000144958496,learn,53001.999855041504,Tue Mar 11 2025 14:07:10 GMT-0500 (Central Daylight Time),315219.8999999985,A,ci,O,i,168,1,716.0,314503.8999999985,7093,WL,B,2.0
2,7.3480000495910645,learn,52651.999950408936,Tue Mar 11 2025 14:07:10 GMT-0500 (Central Daylight Time),315569.799999997,A,cit,O,t,337,1,1065.8999999985099,314503.8999999985,7093,WL,B,2.0
2,7.54800009727478,learn,52451.99990272522,Tue Mar 11 2025 14:07:10 GMT-0500 (Central Daylight Time),315769.69999999553,A,city,O,y,187,1,1265.7999999970198,314503.8999999985,7093,WL,B,2.0
2,8.064000129699707,learn,51935.99987030029,Tue Mar 11 2025 14:07:10 GMT-0500 (Central Daylight Time),316286.299999997,A,cityenter,O,enter,507,1,1782.3999999985099,314503.8999999985,7093,WL,B,2.0
2,8.547000169754028,learn,51452.99983024597,Tue Mar 11 2025 14:07:10 GMT-0500 (Central Daylight Time),316769.1000000015,A,p,O,p,471,1,482.5,316286.6000000015,7093,WL,B,3.0
2,8.814000129699707,learn,51185.99987030029,Tue Mar 11 2025 14:07:10 GMT-0500 (Central Daylight Time),317036.0,A,pu,O,u,260,1,749.3999999985099,316286.6000000015,7093,WL,B,3.0
2,9.414000034332275,learn,50585.999965667725,Tue Mar 11 2025 14:07:10 GMT-0500 (Central Daylight Time),317635.8999999985,A,pup,O,p,593,1,1349.2999999970198,316286.6000000015,7093,WL,B,3.0
2,9.797000169754028,learn,50202.99983024597,Tue Mar 11 2025 14:07:10 GMT-0500 (Central Daylight Time),318018.8999999985,A,pupu,O,u,378,1,1732.2999999970198,316286.6000000015,7093,WL,B,3.0
2,10.78000020980835,learn,49219.99979019165,Tue Mar 11 2025 14:07:10 GMT-0500 (Central Daylight Time),319002.1000000015,A,pup,O,backspace,971,1,2715.5,316286.6000000015,7093,WL,B,3.0
2,11.480000019073486,learn,48519.999980926514,Tue Mar 11 2025 14:07:10 GMT-0500 (Central Daylight Time),319701.799999997,A,pupi,O,i,691,1,3415.1999999955297,316286.6000000015,7093,WL,B,3.0
2,11.680000066757202,learn,48319.9999332428,Tue Mar 11 2025 14:07:10 GMT-0500 (Central Daylight Time),319901.69999999553,A,pupil,O,l,191,1,3615.0999999940395,316286.6000000015,7093,WL,B,3.0
2,12.480000019073486,learn,47519.999980926514,Tue Mar 11 2025 14:07:10 GMT-0500 (Central Daylight Time),320701.6000000015,A,pupilenter,O,enter,791,1,4415.0,316286.6000000015,7093,WL,B,3.0
2,12.814000129699707,learn,47185.99987030029,Tue Mar 11 2025 14:07:10 GMT-0500 (Central Daylight Time),321035.8999999985,A,f,O,f,319,1,333.8999999985099,320702.0,7093,WL,B,4.0
2,13.446000099182129,learn,46553.99990081787,Tue Mar 11 2025 14:07:10 GMT-0500 (Central Daylight Time),321667.8999999985,A,fi,O,i,625,1,965.8999999985099,320702.0,7093,WL,B,4.0
2,13.67900013923645,learn,46320.99986076355,Tue Mar 11 2025 14:07:10 GMT-0500 (Central Daylight Time),321901.19999999553,A,fir,O,r,217,1,1199.1999999955297,320702.0,7093,WL,B,4.0
2,14.180000066757202,learn,45819.9999332428,Tue Mar 11 2025 14:07:10 GMT-0500 (Central Daylight Time),322402.299999997,A,fire,O,e,488,1,1700.2999999970198,320702.0,7093,WL,B,4.0
2,14.546000003814697,learn,45453.9999961853,Tue Mar 11 2025 14:07:10 GMT-0500 (Central Daylight Time),322767.5,A,fireenter,O,enter,355,1,2065.5,320702.0,7093,WL,B,4.0
2,14.796000003814697,learn,45203.9999961853,Tue Mar 11 2025 14:07:10 GMT-0500 (Central Daylight Time),323017.5,A,a,O,a,230,1,249.70000000298023,322767.799999997,7093,WL,B,5.0
2,15.112000226974487,learn,44887.99977302551,Tue Mar 11 2025 14:07:10 GMT-0500 (Central Daylight Time),323334.1000000015,A,ar,O,r,300,1,566.3000000044703,322767.799999997,7093,WL,B,5.0
2,15.82800006866455,learn,44171.99993133545,Tue Mar 11 2025 14:07:10 GMT-0500 (Central Daylight Time),324050.3999999985,A,arm,O,m,703,1,1282.6000000014901,322767.799999997,7093,WL,B,5.0
2,16.778000116348267,learn,43221.99988365173,Tue Mar 11 2025 14:07:10 GMT-0500 (Central Daylight Time),325000.19999999553,A,armenter,O,enter,939,1,2232.39999999851,322767.799999997,7093,WL,B,5.0
2,17.66100001335144,learn,42338.99998664856,Tue Mar 11 2025 14:07:10 GMT-0500 (Central Daylight Time),325883.3999999985,A,s,O,s,869,1,882.8999999985099,325000.5,7093,WL,B,6.0
2,18.128000020980835,learn,41871.999979019165,Tue Mar 11 2025 14:07:10 GMT-0500 (Central Daylight Time),326349.8999999985,A,sk,O,k,458,1,1349.3999999985099,325000.5,7093,WL,B,6.0
2,18.311000108718872,learn,41688.99989128113,Tue Mar 11 2025 14:07:10 GMT-0500 (Central Daylight Time),326533.1000000015,A,ski,O,i,176,1,1532.6000000014901,325000.5,7093,WL,B,6.0
2,18.545000076293945,learn,41454.999923706055,Tue Mar 11 2025 14:07:10 GMT-0500 (Central Daylight Time),326766.3999999985,A,skin,O,n,224,1,1765.8999999985099,325000.5,7093,WL,B,6.0
2,19.379000186920166,learn,40620.999813079834,Tue Mar 11 2025 14:07:10 GMT-0500 (Central Daylight Time),327600.6000000015,A,skinenter,O,enter,815,1,2600.10000000149,325000.5,7093,WL,B,6.0
2,19.627000093460083,learn,40372.99990653992,Tue Mar 11 2025 14:07:10 GMT-0500 (Central Daylight Time),327849.299999997,A,w,O,w,229,1,248.5,327600.799999997,7093,WL,B,7.0
2,19.811000108718872,learn,40188.99989128113,Tue Mar 11 2025 14:07:10 GMT-0500 (Central Daylight Time),328032.5,A,wi,O,i,172,1,431.70000000298023,327600.799999997,7093,WL,B,7.0
2,21.927000045776367,learn,38072.99995422363,Tue Mar 11 2025 14:07:10 GMT-0500 (Central Daylight Time),330148.6000000015,A,wif,O,f,2102,1,2547.8000000044703,327600.799999997,7093,WL,B,7.0
2,22.110000133514404,learn,37889.999866485596,Tue Mar 11 2025 14:07:10 GMT-0500 (Central Daylight Time),330332.0,A,wife,O,e,168,1,2731.2000000029802,327600.799999997,7093,WL,B,7.0
2,22.610000133514404,learn,37389.999866485596,Tue Mar 11 2025 14:07:10 GMT-0500 (Central Daylight Time),330831.799999997,A,wifeenter,O,enter,489,1,3231.0,327600.799999997,7093,WL,B,7.0
2,23.39300012588501,learn,36606.99987411499,Tue Mar 11 2025 14:07:10 GMT-0500 (Central Daylight Time),331614.6000000015,A,y,O,y,766,1,782.5,330832.1000000015,7093,WL,B,8.0
2,23.576000213623047,learn,36423.99978637695,Tue Mar 11 2025 14:07:10 GMT-0500 (Central Daylight Time),331798.1000000015,A,ya,O,a,174,1,966.0,330832.1000000015,7093,WL,B,8.0
2,23.926000118255615,learn,36073.999881744385,Tue Mar 11 2025 14:07:10 GMT-0500 (Central Daylight Time),332148.0,A,yar,O,r,343,1,1315.8999999985099,330832.1000000015,7093,WL,B,8.0
2,24.359000205993652,learn,35640.99979400635,Tue Mar 11 2025 14:07:10 GMT-0500 (Central Daylight Time),332581.299999997,A,yard,O,d,425,1,1749.1999999955297,330832.1000000015,7093,WL,B,8.0
2,24.592000007629395,learn,35407.999992370605,Tue Mar 11 2025 14:07:10 GMT-0500 (Central Daylight Time),332814.19999999553,A,yardenter,O,enter,224,1,1982.0999999940395,330832.1000000015,7093,WL,B,8.0
2,24.87600016593933,learn,35123.99983406067,Tue Mar 11 2025 14:07:10 GMT-0500 (Central Daylight Time),333097.5,A,s,O,s,271,1,282.8999999985099,332814.6000000015,7093,WL,B,9.0
2,25.109000205993652,learn,34890.99979400635,Tue Mar 11 2025 14:07:10 GMT-0500 (Central Daylight Time),333330.799999997,A,st,O,t,228,1,516.1999999955297,332814.6000000015,7093,WL,B,9.0
2,25.30900001525879,learn,34690.99998474121,Tue Mar 11 2025 14:07:10 GMT-0500 (Central Daylight Time),333530.8999999985,A,str,O,r,195,1,716.2999999970198,332814.6000000015,7093,WL,B,9.0
2,25.676000118255615,learn,34323.999881744385,Tue Mar 11 2025 14:07:10 GMT-0500 (Central Daylight Time),333897.6000000015,A,stre,O,e,355,1,1083.0,332814.6000000015,7093,WL,B,9.0
2,25.842000007629395,learn,34157.999992370605,Tue Mar 11 2025 14:07:10 GMT-0500 (Central Daylight Time),334064.19999999553,A,stree,O,e,156,1,1249.5999999940395,332814.6000000015,7093,WL,B,9.0
2,27.092000007629395,learn,32907.999992370605,Tue Mar 11 2025 14:07:10 GMT-0500 (Central Daylight Time),335313.8999999985,A,street,O,t,1229,1,2499.2999999970198,332814.6000000015,7093,WL,B,9.0
2,27.258000135421753,learn,32741.999864578247,Tue Mar 11 2025 14:07:10 GMT-0500 (Central Daylight Time),335480.3999999985,A,streetenter,O,enter,155,1,2665.7999999970198,332814.6000000015,7093,WL,B,9.0
2,28.29100012779236,learn,31708.99987220764,Tue Mar 11 2025 14:07:10 GMT-0500 (Central Daylight Time),336513.19999999553,A,c,O,c,1013,1,1032.3999999985099,335480.799999997,7093,WL,B,10.0
2,28.45800018310547,learn,31541.99981689453,Tue Mar 11 2025 14:07:10 GMT-0500 (Central Daylight Time),336679.8999999985,A,cl,O,l,156,1,1199.1000000014901,335480.799999997,7093,WL,B,10.0
2,28.658000230789185,learn,31341.999769210815,Tue Mar 11 2025 14:07:10 GMT-0500 (Central Daylight Time),336879.69999999553,A,clo,O,o,181,1,1398.8999999985099,335480.799999997,7093,WL,B,10.0
2,28.975000143051147,learn,31024.999856948853,Tue Mar 11 2025 14:07:10 GMT-0500 (Central Daylight Time),337196.3999999985,A,cloc,O,c,302,1,1715.6000000014901,335480.799999997,7093,WL,B,10.0
2,29.224000215530396,learn,30775.999784469604,Tue Mar 11 2025 14:07:10 GMT-0500 (Central Daylight Time),337446.1000000015,A,clock,O,k,241,1,1965.3000000044703,335480.799999997,7093,WL,B,10.0
2,30.091000080108643,learn,29908.999919891357,Tue Mar 11 2025 14:07:10 GMT-0500 (Central Daylight Time),338312.5,A,clockenter,O,enter,847,1,2831.7000000029802,335480.799999997,7093,WL,B,10.0
2,30.341000080108643,learn,29658.999919891357,Tue Mar 11 2025 14:07:10 GMT-0500 (Central Daylight Time),338562.5,A,c,O,c,237,1,249.60000000149012,338312.8999999985,7093,WL,B,11.0
2,30.624000072479248,learn,29375.999927520752,Tue Mar 11 2025 14:07:10 GMT-0500 (Central Daylight Time),338845.8999999985,A,ca,O,a,275,1,533.0,338312.8999999985,7093,WL,B,11.0
2,31.007000207901,learn,28992.999792099,Tue Mar 11 2025 14:07:10 GMT-0500 (Central Daylight Time),339229.1000000015,A,cab,O,b,375,1,916.2000000029802,338312.8999999985,7093,WL,B,11.0
2,31.324000120162964,learn,28675.999879837036,Tue Mar 11 2025 14:07:10 GMT-0500 (Central Daylight Time),339545.6000000015,A,cabi,O,i,296,1,1232.7000000029802,338312.8999999985,7093,WL,B,11.0
2,31.841000080108643,learn,28158.999919891357,Tue Mar 11 2025 14:07:10 GMT-0500 (Central Daylight Time),340062.5,A,cabin,O,n,500,1,1749.6000000014901,338312.8999999985,7093,WL,B,11.0
2,32.223000049591064,learn,27776.999950408936,Tue Mar 11 2025 14:07:10 GMT-0500 (Central Daylight Time),340445.3999999985,A,cabinenter,O,enter,367,1,2132.5,338312.8999999985,7093,WL,B,11.0
2,32.723000049591064,learn,27276.999950408936,Tue Mar 11 2025 14:07:10 GMT-0500 (Central Daylight Time),340945.19999999553,A,l,O,l,489,1,499.5,340445.69999999553,7093,WL,B,12.0
2,32.99000000953674,learn,27009.999990463257,Tue Mar 11 2025 14:07:10 GMT-0500 (Central Daylight Time),341211.799999997,A,la,O,a,252,1,766.1000000014901,340445.69999999553,7093,WL,B,12.0
2,33.290000200271606,learn,26709.999799728394,Tue Mar 11 2025 14:07:10 GMT-0500 (Central Daylight Time),341511.6000000015,A,lak,O,k,290,1,1065.9000000059605,340445.69999999553,7093,WL,B,12.0
2,33.623000144958496,learn,26376.999855041504,Tue Mar 11 2025 14:07:10 GMT-0500 (Central Daylight Time),341845.0,A,lake,O,e,325,1,1399.3000000044703,340445.69999999553,7093,WL,B,12.0
2,34.35600018501282,learn,25643.999814987183,Tue Mar 11 2025 14:07:10 GMT-0500 (Central Daylight Time),342578.0,A,lakeenter,O,enter,720,1,2132.3000000044703,340445.69999999553,7093,WL,B,12.0
2,38.67200016975403,learn,21327.99983024597,Tue Mar 11 2025 14:07:10 GMT-0500 (Central Daylight Time),346893.3999999985,A,p,O,p,4308,1,4315.10000000149,342578.299999997,7093,WL,B,13.0
2,38.955000162124634,learn,21044.999837875366,Tue Mar 11 2025 14:07:10 GMT-0500 (Central Daylight Time),347176.6000000015,A,pu,O,u,272,1,4598.30000000447,342578.299999997,7093,WL,B,13.0
2,39.38800001144409,learn,20611.99998855591,Tue Mar 11 2025 14:07:10 GMT-0500 (Central Daylight Time),347609.6000000015,A,pup,O,p,413,1,5031.30000000447,342578.299999997,7093,WL,B,13.0
2,39.855000019073486,learn,20144.999980926514,Tue Mar 11 2025 14:07:10 GMT-0500 (Central Daylight Time),348076.3999999985,A,pu,O,backspace,460,1,5498.10000000149,342578.299999997,7093,WL,B,13.0
2,40.104000091552734,learn,19895.999908447266,Tue Mar 11 2025 14:07:10 GMT-0500 (Central Daylight Time),348326.299999997,A,p,O,backspace,241,1,5748.0,342578.299999997,7093,WL,B,13.0
2,40.55400013923645,learn,19445.99986076355,Tue Mar 11 2025 14:07:10 GMT-0500 (Central Daylight Time),348776.19999999553,A,,O,backspace,439,1,6197.89999999851,342578.299999997,7093,WL,B,13.0
2,42.82000017166138,learn,17179.999828338623,Tue Mar 11 2025 14:07:10 GMT-0500 (Central Daylight Time),351042.1000000015,A,d,O,d,2246,1,8463.80000000447,342578.299999997,7093,WL,B,13.0
2,43.03700017929077,learn,16962.99982070923,Tue Mar 11 2025 14:07:10 GMT-0500 (Central Daylight Time),351258.799999997,A,do,O,o,196,1,8680.5,342578.299999997,7093,WL,B,13.0
2,43.22000002861023,learn,16779.99997138977,Tue Mar 11 2025 14:07:10 GMT-0500 (Central Daylight Time),351441.8999999985,A,doo,O,o,163,1,8863.60000000149,342578.299999997,7093,WL,B,13.0
2,43.52000021934509,learn,16479.999780654907,Tue Mar 11 2025 14:07:10 GMT-0500 (Central Daylight Time),351741.799999997,A,door,O,r,284,1,9163.5,342578.299999997,7093,WL,B,13.0
2,43.93600010871887,learn,16063.999891281128,Tue Mar 11 2025 14:07:10 GMT-0500 (Central Daylight Time),352158.299999997,A,doorenter,O,enter,407,1,9580.0,342578.299999997,7093,WL,B,13.0
2,49.801000118255615,learn,10198.999881744385,Tue Mar 11 2025 14:07:10 GMT-0500 (Central Daylight Time),358023.299999997,A,a,O,a,5855,1,5864.5,352158.799999997,7093,WL,B,14.0
2,50.00100016593933,learn,9998.999834060669,Tue Mar 11 2025 14:07:10 GMT-0500 (Central Daylight Time),358223.19999999553,A,ar,O,r,190,1,6064.39999999851,352158.799999997,7093,WL,B,14.0
2,50.51700019836426,learn,9482.999801635742,Tue Mar 11 2025 14:07:10 GMT-0500 (Central Daylight Time),358739.5,A,arn,O,n,510,1,6580.70000000298,352158.799999997,7093,WL,B,14.0
2,51.31700015068054,learn,8682.999849319458,Tue Mar 11 2025 14:07:10 GMT-0500 (Central Daylight Time),359539.3999999985,A,ar,O,backspace,786,1,7380.60000000149,352158.799999997,7093,WL,B,14.0
2,52.25,learn,7750.0,Tue Mar 11 2025 14:07:10 GMT-0500 (Central Daylight Time),360472.5,A,arm,O,m,914,1,8313.70000000298,352158.799999997,7093,WL,B,14.0
2,52.51700019836426,learn,7482.999801635742,Tue Mar 11 2025 14:07:10 GMT-0500 (Central Daylight Time),360739.1000000015,A,armenter,O,enter,246,1,8580.30000000447,352158.799999997,7093,WL,B,14.0
2,60.015000104904175,learn,-15.000104904174805,Tue Mar 11 2025 14:07:10 GMT-0500 (Central Daylight Time),368236.6000000015,A,None,O,None,7493,1,7497.10000000149,360739.5,7093,WL,B,15.0
3,0.3000001907348633,learn,59699.99980926514,Tue Mar 11 2025 14:07:10 GMT-0500 (Central Daylight Time),437831.299999997,A,w,O,w,282,1,299.69999999552965,437531.6000000015,7093,WL,B,1.0
3,0.46700000762939453,learn,59532.999992370605,Tue Mar 11 2025 14:07:10 GMT-0500 (Central Daylight Time),437997.8999999985,A,wi,O,i,158,1,466.29999999701977,437531.6000000015,7093,WL,B,1.0
3,0.6830000877380371,learn,59316.99991226196,Tue Mar 11 2025 14:07:10 GMT-0500 (Central Daylight Time),438214.5,A,win,O,n,199,1,682.8999999985099,437531.6000000015,7093,WL,B,1.0
3,0.9160001277923584,learn,59083.99987220764,Tue Mar 11 2025 14:07:10 GMT-0500 (Central Daylight Time),438447.799999997,A,wind,O,d,215,1,916.1999999955297,437531.6000000015,7093,WL,B,1.0
3,1.1660001277923584,learn,58833.99987220764,Tue Mar 11 2025 14:07:10 GMT-0500 (Central Daylight Time),438697.69999999553,A,windo,O,o,229,1,1166.0999999940395,437531.6000000015,7093,WL,B,1.0
3,1.7160000801086426,learn,58283.99991989136,Tue Mar 11 2025 14:07:10 GMT-0500 (Central Daylight Time),439247.3999999985,A,window,O,w,539,1,1715.7999999970198,437531.6000000015,7093,WL,B,1.0
3,2.116000175476074,learn,57883.999824523926,Tue Mar 11 2025 14:07:10 GMT-0500 (Central Daylight Time),439647.299999997,A,windowenter,O,enter,382,1,2115.6999999955297,437531.6000000015,7093,WL,B,1.0
3,2.6490001678466797,learn,57350.99983215332,Tue Mar 11 2025 14:07:10 GMT-0500 (Central Daylight Time),440180.5,A,c,O,c,526,1,532.8999999985099,439647.6000000015,7093,WL,B,2.0
3,2.8320000171661377,learn,57167.99998283386,Tue Mar 11 2025 14:07:10 GMT-0500 (Central Daylight Time),440363.799999997,A,ci,O,i,176,1,716.1999999955297,439647.6000000015,7093,WL,B,2.0
3,3.1660001277923584,learn,56833.99987220764,Tue Mar 11 2025 14:07:10 GMT-0500 (Central Daylight Time),440697.1000000015,A,cit,O,t,313,1,1049.5,439647.6000000015,7093,WL,B,2.0
3,3.4160001277923584,learn,56583.99987220764,Tue Mar 11 2025 14:07:10 GMT-0500 (Central Daylight Time),440947.0,A,city,O,y,236,1,1299.3999999985099,439647.6000000015,7093,WL,B,2.0
3,4.232000112533569,learn,55767.99988746643,Tue Mar 11 2025 14:07:10 GMT-0500 (Central Daylight Time),441763.299999997,A,cityenter,O,enter,810,1,2115.6999999955297,439647.6000000015,7093,WL,B,2.0
3,4.832000017166138,learn,55167.99998283386,Tue Mar 11 2025 14:07:10 GMT-0500 (Central Daylight Time),442363.5,A,g,O,g,586,1,599.8000000044703,441763.69999999553,7093,WL,B,3.0
3,4.999000072479248,learn,55000.99992752075,Tue Mar 11 2025 14:07:10 GMT-0500 (Central Daylight Time),442529.8999999985,A,gr,O,r,154,1,766.2000000029802,441763.69999999553,7093,WL,B,3.0
3,5.29800009727478,learn,54701.99990272522,Tue Mar 11 2025 14:07:10 GMT-0500 (Central Daylight Time),442829.69999999553,A,gra,O,a,283,1,1066.0,441763.69999999553,7093,WL,B,3.0
3,5.615000009536743,learn,54384.99999046326,Tue Mar 11 2025 14:07:10 GMT-0500 (Central Daylight Time),443146.3999999985,A,gras,O,s,295,1,1382.7000000029802,441763.69999999553,7093,WL,B,3.0
3,5.7820000648498535,learn,54217.99993515015,Tue Mar 11 2025 14:07:10 GMT-0500 (Central Daylight Time),443313.1000000015,A,grass,O,s,146,1,1549.4000000059605,441763.69999999553,7093,WL,B,3.0
3,6.115000009536743,learn,53884.99999046326,Tue Mar 11 2025 14:07:10 GMT-0500 (Central Daylight Time),443646.299999997,A,grassenter,O,enter,316,1,1882.6000000014901,441763.69999999553,7093,WL,B,3.0
3,6.748000144958496,learn,53251.999855041504,Tue Mar 11 2025 14:07:10 GMT-0500 (Central Daylight Time),444279.5,A,s,O,s,623,1,632.8000000044703,443646.69999999553,7093,WL,B,4.0
3,6.96399998664856,learn,53036.00001335144,Tue Mar 11 2025 14:07:10 GMT-0500 (Central Daylight Time),444495.799999997,A,st,O,t,198,1,849.1000000014901,443646.69999999553,7093,WL,B,4.0
3,7.228000164031982,learn,52771.99983596802,Tue Mar 11 2025 14:07:10 GMT-0500 (Central Daylight Time),444759.69999999553,A,str,O,r,258,1,1113.0,443646.69999999553,7093,WL,B,4.0
3,7.4670000076293945,learn,52532.999992370605,Tue Mar 11 2025 14:07:10 GMT-0500 (Central Daylight Time),444997.8999999985,A,stre,O,e,228,1,1351.2000000029802,443646.69999999553,7093,WL,B,4.0
3,7.63100004196167,learn,52368.99995803833,Tue Mar 11 2025 14:07:10 GMT-0500 (Central Daylight Time),445162.3999999985,A,stree,O,e,159,1,1515.7000000029802,443646.69999999553,7093,WL,B,4.0
3,8.347000122070312,learn,51652.99987792969,Tue Mar 11 2025 14:07:10 GMT-0500 (Central Daylight Time),445878.69999999553,A,street,O,t,706,1,2232.0,443646.69999999553,7093,WL,B,4.0
3,8.547000169754028,learn,51452.99983024597,Tue Mar 11 2025 14:07:10 GMT-0500 (Central Daylight Time),446078.6000000015,A,streetenter,O,enter,190,1,2431.9000000059605,443646.69999999553,7093,WL,B,4.0
3,9.231000185012817,learn,50768.99981498718,Tue Mar 11 2025 14:07:10 GMT-0500 (Central Daylight Time),446762.1000000015,A,f,O,f,671,1,683.4000000059605,446078.69999999553,7093,WL,B,5.0
3,9.46399998664856,learn,50536.00001335144,Tue Mar 11 2025 14:07:10 GMT-0500 (Central Daylight Time),446995.0,A,fi,O,i,219,1,916.3000000044703,446078.69999999553,7093,WL,B,5.0
3,9.71399998664856,learn,50286.00001335144,Tue Mar 11 2025 14:07:10 GMT-0500 (Central Daylight Time),447245.1000000015,A,fir,O,r,235,1,1166.4000000059605,446078.69999999553,7093,WL,B,5.0
3,10.463000059127808,learn,49536.99994087219,Tue Mar 11 2025 14:07:10 GMT-0500 (Central Daylight Time),447994.69999999553,A,fire,O,e,744,1,1916.0,446078.69999999553,7093,WL,B,5.0
3,10.763000011444092,learn,49236.99998855591,Tue Mar 11 2025 14:07:10 GMT-0500 (Central Daylight Time),448294.69999999553,A,fireenter,O,enter,282,1,2216.0,446078.69999999553,7093,WL,B,5.0
3,11.163000106811523,learn,48836.99989318848,Tue Mar 11 2025 14:07:10 GMT-0500 (Central Daylight Time),448694.6000000015,A,p,O,p,390,1,399.6000000014901,448295.0,7093,WL,B,6.0
3,11.413000106811523,learn,48586.99989318848,Tue Mar 11 2025 14:07:10 GMT-0500 (Central Daylight Time),448944.6000000015,A,pi,O,i,230,1,649.6000000014901,448295.0,7093,WL,B,6.0
3,11.713000059127808,learn,48286.99994087219,Tue Mar 11 2025 14:07:10 GMT-0500 (Central Daylight Time),449244.3999999985,A,pip,O,p,284,1,949.3999999985099,448295.0,7093,WL,B,6.0
3,12.328999996185303,learn,47671.0000038147,Tue Mar 11 2025 14:07:10 GMT-0500 (Central Daylight Time),449860.799999997,A,pipe,O,e,600,1,1565.7999999970198,448295.0,7093,WL,B,6.0
3,12.513000011444092,learn,47486.99998855591,Tue Mar 11 2025 14:07:10 GMT-0500 (Central Daylight Time),450044.1000000015,A,pipeenter,O,enter,175,1,1749.1000000014901,448295.0,7093,WL,B,6.0
3,12.84600019454956,learn,47153.99980545044,Tue Mar 11 2025 14:07:10 GMT-0500 (Central Daylight Time),450377.5,A,p,O,p,313,1,333.20000000298023,450044.299999997,7093,WL,B,7.0
3,13.17900013923645,learn,46820.99986076355,Tue Mar 11 2025 14:07:10 GMT-0500 (Central Daylight Time),450710.6000000015,A,pu,O,u,323,1,666.3000000044703,450044.299999997,7093,WL,B,7.0
3,13.796000003814697,learn,46203.9999961853,Tue Mar 11 2025 14:07:10 GMT-0500 (Central Daylight Time),451327.1000000015,A,pup,O,p,598,1,1282.8000000044703,450044.299999997,7093,WL,B,7.0
3,14.029000043869019,learn,45970.99995613098,Tue Mar 11 2025 14:07:10 GMT-0500 (Central Daylight Time),451560.3999999985,A,pupi,O,i,214,1,1516.1000000014901,450044.299999997,7093,WL,B,7.0
3,14.578999996185303,learn,45421.0000038147,Tue Mar 11 2025 14:07:10 GMT-0500 (Central Daylight Time),452110.1000000015,A,pupil,O,l,532,1,2065.8000000044703,450044.299999997,7093,WL,B,7.0
3,14.995000123977661,learn,45004.99987602234,Tue Mar 11 2025 14:07:10 GMT-0500 (Central Daylight Time),452526.799999997,A,pupilenter,O,enter,407,1,2482.5,450044.299999997,7093,WL,B,7.0
3,15.695000171661377,learn,44304.99982833862,Tue Mar 11 2025 14:07:10 GMT-0500 (Central Daylight Time),453226.6000000015,A,c,O,c,679,1,699.6000000014901,452527.0,7093,WL,B,8.0
3,15.894999980926514,learn,44105.000019073486,Tue Mar 11 2025 14:07:10 GMT-0500 (Central Daylight Time),453426.6000000015,A,ca,O,a,194,1,899.6000000014901,452527.0,7093,WL,B,8.0
3,16.59500002861023,learn,43404.99997138977,Tue Mar 11 2025 14:07:10 GMT-0500 (Central Daylight Time),454126.19999999553,A,cab,O,b,691,1,1599.1999999955297,452527.0,7093,WL,B,8.0
3,16.9280002117157,learn,43071.9997882843,Tue Mar 11 2025 14:07:10 GMT-0500 (Central Daylight Time),454459.299999997,A,cabi,O,i,319,1,1932.2999999970198,452527.0,7093,WL,B,8.0
3,17.128000020980835,learn,42871.999979019165,Tue Mar 11 2025 14:07:10 GMT-0500 (Central Daylight Time),454659.299999997,A,cabin,O,n,194,1,2132.2999999970198,452527.0,7093,WL,B,8.0
3,17.59500002861023,learn,42404.99997138977,Tue Mar 11 2025 14:07:10 GMT-0500 (Central Daylight Time),455125.8999999985,A,cabinenter,O,enter,450,1,2598.89999999851,452527.0,7093,WL,B,8.0
3,18.028000116348267,learn,41971.99988365173,Tue Mar 11 2025 14:07:10 GMT-0500 (Central Daylight Time),455559.1000000015,A,w,O,w,415,1,432.90000000596046,455126.19999999553,7093,WL,B,9.0
3,18.294000148773193,learn,41705.99985122681,Tue Mar 11 2025 14:07:10 GMT-0500 (Central Daylight Time),455825.799999997,A,wi,O,i,254,1,699.6000000014901,455126.19999999553,7093,WL,B,9.0
3,18.8270001411438,learn,41172.9998588562,Tue Mar 11 2025 14:07:10 GMT-0500 (Central Daylight Time),456358.799999997,A,wif,O,f,523,1,1232.6000000014901,455126.19999999553,7093,WL,B,9.0
3,18.97699999809265,learn,41023.00000190735,Tue Mar 11 2025 14:07:10 GMT-0500 (Central Daylight Time),456508.799999997,A,wife,O,e,142,1,1382.6000000014901,455126.19999999553,7093,WL,B,9.0
3,19.39400005340576,learn,40605.99994659424,Tue Mar 11 2025 14:07:10 GMT-0500 (Central Daylight Time),456925.299999997,A,wifeenter,O,enter,400,1,1799.1000000014901,455126.19999999553,7093,WL,B,9.0
3,19.694000005722046,learn,40305.999994277954,Tue Mar 11 2025 14:07:10 GMT-0500 (Central Daylight Time),457225.299999997,A,l,O,l,288,1,299.69999999552965,456925.6000000015,7093,WL,B,10.0
3,19.927000045776367,learn,40072.99995422363,Tue Mar 11 2025 14:07:10 GMT-0500 (Central Daylight Time),457458.5,A,la,O,a,219,1,532.8999999985099,456925.6000000015,7093,WL,B,10.0
3,20.3270001411438,learn,39672.9998588562,Tue Mar 11 2025 14:07:10 GMT-0500 (Central Daylight Time),457858.5,A,lak,O,k,395,1,932.8999999985099,456925.6000000015,7093,WL,B,10.0
3,20.677000045776367,learn,39322.99995422363,Tue Mar 11 2025 14:07:10 GMT-0500 (Central Daylight Time),458208.3999999985,A,lake,O,e,339,1,1282.7999999970198,456925.6000000015,7093,WL,B,10.0
3,20.927000045776367,learn,39072.99995422363,Tue Mar 11 2025 14:07:10 GMT-0500 (Central Daylight Time),458458.6000000015,A,lakeenter,O,enter,245,1,1533.0,456925.6000000015,7093,WL,B,10.0
3,21.427000045776367,learn,38572.99995422363,Tue Mar 11 2025 14:07:10 GMT-0500 (Central Daylight Time),458958.299999997,A,s,O,s,483,1,499.5,458458.799999997,7093,WL,B,11.0
3,21.627000093460083,learn,38372.99990653992,Tue Mar 11 2025 14:07:10 GMT-0500 (Central Daylight Time),459158.0,A,st,O,t,183,1,699.2000000029802,458458.799999997,7093,WL,B,11.0
3,21.792999982833862,learn,38207.00001716614,Tue Mar 11 2025 14:07:10 GMT-0500 (Central Daylight Time),459324.6000000015,A,sta,O,a,151,1,865.8000000044703,458458.799999997,7093,WL,B,11.0
3,21.993000030517578,learn,38006.99996948242,Tue Mar 11 2025 14:07:10 GMT-0500 (Central Daylight Time),459524.5,A,star,O,r,184,1,1065.7000000029802,458458.799999997,7093,WL,B,11.0
3,23.06000018119812,learn,36939.99981880188,Tue Mar 11 2025 14:07:10 GMT-0500 (Central Daylight Time),460590.8999999985,A,starenter,O,enter,1049,1,2132.10000000149,458458.799999997,7093,WL,B,11.0
3,24.642000198364258,learn,35357.99980163574,Tue Mar 11 2025 14:07:10 GMT-0500 (Central Daylight Time),462173.69999999553,A,d,O,d,1566,1,1582.5999999940395,460591.1000000015,7093,WL,B,12.0
3,24.826000213623047,learn,35173.99978637695,Tue Mar 11 2025 14:07:10 GMT-0500 (Central Daylight Time),462356.8999999985,A,do,O,o,167,1,1765.7999999970198,460591.1000000015,7093,WL,B,12.0
3,25.05900001525879,learn,34940.99998474121,Tue Mar 11 2025 14:07:10 GMT-0500 (Central Daylight Time),462590.1000000015,A,doo,O,o,224,1,1999.0,460591.1000000015,7093,WL,B,12.0
3,25.54200005531311,learn,34457.99994468689,Tue Mar 11 2025 14:07:10 GMT-0500 (Central Daylight Time),463073.3999999985,A,door,O,r,471,1,2482.2999999970198,460591.1000000015,7093,WL,B,12.0
3,25.892000198364258,learn,34107.99980163574,Tue Mar 11 2025 14:07:10 GMT-0500 (Central Daylight Time),463423.299999997,A,doorenter,O,enter,332,1,2832.1999999955297,460591.1000000015,7093,WL,B,12.0
3,30.94000005722046,learn,29059.99994277954,Tue Mar 11 2025 14:07:10 GMT-0500 (Central Daylight Time),468471.799999997,A,c,O,c,5039,1,5048.39999999851,463423.3999999985,7093,WL,B,13.0
3,31.074000120162964,learn,28925.999879837036,Tue Mar 11 2025 14:07:10 GMT-0500 (Central Daylight Time),468605.69999999553,A,cl,O,l,122,1,5182.29999999702,463423.3999999985,7093,WL,B,13.0
3,31.257000207901,learn,28742.999792099,Tue Mar 11 2025 14:07:10 GMT-0500 (Central Daylight Time),468788.299999997,A,clo,O,o,175,1,5364.89999999851,463423.3999999985,7093,WL,B,13.0
3,31.657000064849854,learn,28342.999935150146,Tue Mar 11 2025 14:07:10 GMT-0500 (Central Daylight Time),469188.3999999985,A,cloc,O,c,383,1,5765.0,463423.3999999985,7093,WL,B,13.0
3,31.807000160217285,learn,28192.999839782715,Tue Mar 11 2025 14:07:10 GMT-0500 (Central Daylight Time),469338.299999997,A,clock,O,k,145,1,5914.89999999851,463423.3999999985,7093,WL,B,13.0
3,32.45700001716614,learn,27542.999982833862,Tue Mar 11 2025 14:07:10 GMT-0500 (Central Daylight Time),469987.8999999985,A,clockenter,O,enter,634,1,6564.5,463423.3999999985,7093,WL,B,13.0
3,41.07100009918213,learn,18928.99990081787,Tue Mar 11 2025 14:07:10 GMT-0500 (Central Daylight Time),478603.0,A,p,O,p,8601,1,8614.70000000298,469988.299999997,7093,WL,B,14.0
3,41.337000131607056,learn,18662.999868392944,Tue Mar 11 2025 14:07:10 GMT-0500 (Central Daylight Time),478868.5,A,pu,O,u,258,1,8880.20000000298,469988.299999997,7093,WL,B,14.0
3,41.85300016403198,learn,18146.999835968018,Tue Mar 11 2025 14:07:10 GMT-0500 (Central Daylight Time),479385.0,A,pup,O,p,497,1,9396.70000000298,469988.299999997,7093,WL,B,14.0
3,42.10300016403198,learn,17896.999835968018,Tue Mar 11 2025 14:07:10 GMT-0500 (Central Daylight Time),479634.8999999985,A,pupi,O,i,236,1,9646.60000000149,469988.299999997,7093,WL,B,14.0
3,42.37000012397766,learn,17629.99987602234,Tue Mar 11 2025 14:07:10 GMT-0500 (Central Daylight Time),479901.3999999985,A,pupil,O,l,258,1,9913.10000000149,469988.299999997,7093,WL,B,14.0
3,42.62000012397766,learn,17379.99987602234,Tue Mar 11 2025 14:07:10 GMT-0500 (Central Daylight Time),480151.299999997,A,pupilenter,O,enter,239,1,10163.0,469988.299999997,7093,WL,B,14.0
3,48.884000062942505,learn,11115.999937057495,Tue Mar 11 2025 14:07:10 GMT-0500 (Central Daylight Time),486415.8999999985,A,c,O,c,6254,1,6264.29999999702,480151.6000000015,7093,WL,B,15.0
3,49.068000078201294,learn,10931.999921798706,Tue Mar 11 2025 14:07:10 GMT-0500 (Central Daylight Time),486599.299999997,A,ci,O,i,165,1,6447.69999999553,480151.6000000015,7093,WL,B,15.0
3,49.56700015068054,learn,10432.999849319458,Tue Mar 11 2025 14:07:10 GMT-0500 (Central Daylight Time),487098.8999999985,A,cit,O,t,486,1,6947.29999999702,480151.6000000015,7093,WL,B,15.0
3,49.68400001525879,learn,10315.999984741211,Tue Mar 11 2025 14:07:10 GMT-0500 (Central Daylight Time),487215.6000000015,A,city,O,y,98,1,7064.0,480151.6000000015,7093,WL,B,15.0
3,49.95100021362305,learn,10048.999786376953,Tue Mar 11 2025 14:07:10 GMT-0500 (Central Daylight Time),487482.299999997,A,cityenter,O,enter,246,1,7330.69999999553,480151.6000000015,7093,WL,B,15.0
4,0.4330000877380371,learn,59566.99991226196,Tue Mar 11 2025 14:07:10 GMT-0500 (Central Daylight Time),555678.0,A,p,O,p,425,1,433.1000000014901,555244.8999999985,7093,WL,B,1.0
4,0.7660000324249268,learn,59233.99996757507,Tue Mar 11 2025 14:07:10 GMT-0500 (Central Daylight Time),556011.1000000015,A,pu,O,u,320,1,766.2000000029802,555244.8999999985,7093,WL,B,1.0
4,1.0829999446868896,learn,58917.00005531311,Tue Mar 11 2025 14:07:10 GMT-0500 (Central Daylight Time),556327.6999999955,A,pup,O,p,298,1,1082.7999999970198,555244.8999999985,7093,WL,B,1.0
4,1.315999984741211,learn,58684.00001525879,Tue Mar 11 2025 14:07:10 GMT-0500 (Central Daylight Time),556561.0,A,pupi,O,i,214,1,1316.1000000014901,555244.8999999985,7093,WL,B,1.0
4,1.5499999523162842,learn,58450.000047683716,Tue Mar 11 2025 14:07:10 GMT-0500 (Central Daylight Time),556794.3999999985,A,pupil,O,l,220,1,1549.5,555244.8999999985,7093,WL,B,1.0
4,4.365000009536743,learn,55634.99999046326,Tue Mar 11 2025 14:07:10 GMT-0500 (Central Daylight Time),559610.1000000015,A,pupilenter,O,enter,2795,1,4365.20000000298,555244.8999999985,7093,WL,B,1.0
4,5.115000009536743,learn,54884.99999046326,Tue Mar 11 2025 14:07:10 GMT-0500 (Central Daylight Time),560359.8999999985,A,s,O,s,739,1,749.3999999985099,559610.5,7093,WL,B,2.0
4,5.2820000648498535,learn,54717.99993515015,Tue Mar 11 2025 14:07:10 GMT-0500 (Central Daylight Time),560526.5,A,st,O,t,158,1,916.0,559610.5,7093,WL,B,2.0
4,5.447999954223633,learn,54552.00004577637,Tue Mar 11 2025 14:07:10 GMT-0500 (Central Daylight Time),560693.0,A,sta,O,a,159,1,1082.5,559610.5,7093,WL,B,2.0
4,5.565000057220459,learn,54434.99994277954,Tue Mar 11 2025 14:07:10 GMT-0500 (Central Daylight Time),560809.6000000015,A,star,O,r,105,1,1199.1000000014901,559610.5,7093,WL,B,2.0
4,6.281000137329102,learn,53718.9998626709,Tue Mar 11 2025 14:07:10 GMT-0500 (Central Daylight Time),561526.1999999955,A,starenter,O,enter,708,1,1915.6999999955297,559610.5,7093,WL,B,2.0
4,6.8480000495910645,learn,53151.999950408936,Tue Mar 11 2025 14:07:10 GMT-0500 (Central Daylight Time),562092.5,A,p,O,p,551,1,565.8999999985099,561526.6000000015,7093,WL,B,3.0
4,7.081000089645386,learn,52918.999910354614,Tue Mar 11 2025 14:07:10 GMT-0500 (Central Daylight Time),562326.1999999955,A,pi,O,i,225,1,799.5999999940395,561526.6000000015,7093,WL,B,3.0
4,7.427999973297119,learn,52572.00002670288,Tue Mar 11 2025 14:07:10 GMT-0500 (Central Daylight Time),562672.6999999955,A,pip,O,p,341,1,1146.0999999940395,561526.6000000015,7093,WL,B,3.0
4,7.8480000495910645,learn,52151.999950408936,Tue Mar 11 2025 14:07:10 GMT-0500 (Central Daylight Time),563092.5,A,pipe,O,e,413,1,1565.8999999985099,561526.6000000015,7093,WL,B,3.0
4,8.064000129699707,learn,51935.99987030029,Tue Mar 11 2025 14:07:10 GMT-0500 (Central Daylight Time),563308.6000000015,A,pipeenter,O,enter,209,1,1782.0,561526.6000000015,7093,WL,B,3.0
4,8.647000074386597,learn,51352.9999256134,Tue Mar 11 2025 14:07:10 GMT-0500 (Central Daylight Time),563892.1999999955,A,f,O,f,569,1,583.2999999970198,563308.8999999985,7093,WL,B,4.0
4,8.980000019073486,learn,51019.999980926514,Tue Mar 11 2025 14:07:10 GMT-0500 (Central Daylight Time),564225.1999999955,A,fi,O,i,313,1,916.2999999970198,563308.8999999985,7093,WL,B,4.0
4,9.21399998664856,learn,50786.00001335144,Tue Mar 11 2025 14:07:10 GMT-0500 (Central Daylight Time),564458.6999999955,A,fir,O,r,228,1,1149.7999999970198,563308.8999999985,7093,WL,B,4.0
4,9.496999979019165,learn,50503.000020980835,Tue Mar 11 2025 14:07:10 GMT-0500 (Central Daylight Time),564741.8999999985,A,fire,O,e,267,1,1433.0,563308.8999999985,7093,WL,B,4.0
4,9.86300015449524,learn,50136.99984550476,Tue Mar 11 2025 14:07:10 GMT-0500 (Central Daylight Time),565108.1999999955,A,fireenter,O,enter,360,1,1799.2999999970198,563308.8999999985,7093,WL,B,4.0
4,10.348000049591064,learn,49651.999950408936,Tue Mar 11 2025 14:07:10 GMT-0500 (Central Daylight Time),565592.6000000015,A,g,O,g,465,1,484.1000000014901,565108.5,7093,WL,B,5.0
4,10.496999979019165,learn,49503.000020980835,Tue Mar 11 2025 14:07:10 GMT-0500 (Central Daylight Time),565741.3999999985,A,gr,O,r,141,1,632.8999999985099,565108.5,7093,WL,B,5.0
4,10.79699993133545,learn,49203.00006866455,Tue Mar 11 2025 14:07:10 GMT-0500 (Central Daylight Time),566041.5,A,gra,O,a,288,1,933.0,565108.5,7093,WL,B,5.0
4,11.11300015449524,learn,48886.99984550476,Tue Mar 11 2025 14:07:10 GMT-0500 (Central Daylight Time),566357.8999999985,A,gras,O,s,300,1,1249.3999999985099,565108.5,7093,WL,B,5.0
4,11.27999997138977,learn,48720.00002861023,Tue Mar 11 2025 14:07:10 GMT-0500 (Central Daylight Time),566524.6999999955,A,grass,O,s,151,1,1416.1999999955297,565108.5,7093,WL,B,5.0
4,11.463000059127808,learn,48536.99994087219,Tue Mar 11 2025 14:07:10 GMT-0500 (Central Daylight Time),566707.8999999985,A,grassenter,O,enter,177,1,1599.3999999985099,565108.5,7093,WL,B,5.0
4,11.913000106811523,learn,48086.99989318848,Tue Mar 11 2025 14:07:10 GMT-0500 (Central Daylight Time),567157.6000000015,A,d,O,d,441,1,449.20000000298023,566708.3999999985,7093,WL,B,6.0
4,12.230000019073486,learn,47769.999980926514,Tue Mar 11 2025 14:07:10 GMT-0500 (Central Daylight Time),567474.5,A,do,O,o,312,1,766.1000000014901,566708.3999999985,7093,WL,B,6.0
4,12.413000106811523,learn,47586.99989318848,Tue Mar 11 2025 14:07:10 GMT-0500 (Central Daylight Time),567657.5,A,doo,O,o,171,1,949.1000000014901,566708.3999999985,7093,WL,B,6.0
4,12.61300015449524,learn,47386.99984550476,Tue Mar 11 2025 14:07:10 GMT-0500 (Central Daylight Time),567857.3999999985,A,door,O,r,180,1,1149.0,566708.3999999985,7093,WL,B,6.0
4,12.845999956130981,learn,47154.00004386902,Tue Mar 11 2025 14:07:10 GMT-0500 (Central Daylight Time),568090.799999997,A,doorenter,O,enter,229,1,1382.3999999985099,566708.3999999985,7093,WL,B,6.0
4,13.213000059127808,learn,46786.99994087219,Tue Mar 11 2025 14:07:10 GMT-0500 (Central Daylight Time),568457.5,A,s,O,s,347,1,366.30000000447035,568091.1999999955,7093,WL,B,7.0
4,13.496000051498413,learn,46503.99994850159,Tue Mar 11 2025 14:07:10 GMT-0500 (Central Daylight Time),568740.3999999985,A,st,O,t,276,1,649.2000000029802,568091.1999999955,7093,WL,B,7.0
4,13.67900013923645,learn,46320.99986076355,Tue Mar 11 2025 14:07:10 GMT-0500 (Central Daylight Time),568923.8999999985,A,str,O,r,177,1,832.7000000029802,568091.1999999955,7093,WL,B,7.0
4,14.046000003814697,learn,45953.9999961853,Tue Mar 11 2025 14:07:10 GMT-0500 (Central Daylight Time),569290.5,A,stre,O,e,354,1,1199.3000000044703,568091.1999999955,7093,WL,B,7.0
4,14.194999933242798,learn,45805.0000667572,Tue Mar 11 2025 14:07:10 GMT-0500 (Central Daylight Time),569440.1000000015,A,stree,O,e,131,1,1348.9000000059605,568091.1999999955,7093,WL,B,7.0
4,14.611999988555908,learn,45388.00001144409,Tue Mar 11 2025 14:07:10 GMT-0500 (Central Daylight Time),569856.8999999985,A,street,O,t,405,1,1765.7000000029802,568091.1999999955,7093,WL,B,7.0
4,14.84500002861023,learn,45154.99997138977,Tue Mar 11 2025 14:07:10 GMT-0500 (Central Daylight Time),570090.0,A,streetenter,O,enter,220,1,1998.8000000044703,568091.1999999955,7093,WL,B,7.0
4,15.295000076293945,learn,44704.999923706055,Tue Mar 11 2025 14:07:10 GMT-0500 (Central Daylight Time),570540.1000000015,A,w,O,w,443,1,449.70000000298023,570090.3999999985,7093,WL,B,8.0
4,15.57800006866455,learn,44421.99993133545,Tue Mar 11 2025 14:07:10 GMT-0500 (Central Daylight Time),570823.1000000015,A,wi,O,i,265,1,732.7000000029802,570090.3999999985,7093,WL,B,8.0
4,15.995000123977661,learn,44004.99987602234,Tue Mar 11 2025 14:07:10 GMT-0500 (Central Daylight Time),571240.0,A,wif,O,f,398,1,1149.6000000014901,570090.3999999985,7093,WL,B,8.0
4,16.528000116348267,learn,43471.99988365173,Tue Mar 11 2025 14:07:10 GMT-0500 (Central Daylight Time),571772.6999999955,A,wife,O,e,525,1,1682.2999999970198,570090.3999999985,7093,WL,B,8.0
4,17.294000148773193,learn,42705.99985122681,Tue Mar 11 2025 14:07:10 GMT-0500 (Central Daylight Time),572539.1000000015,A,wifeenter,O,enter,760,1,2448.7000000029802,570090.3999999985,7093,WL,B,8.0
4,18.14400005340576,learn,41855.99994659424,Tue Mar 11 2025 14:07:10 GMT-0500 (Central Daylight Time),573389.1999999955,A,s,O,s,834,1,849.7999999970198,572539.3999999985,7093,WL,B,9.0
4,18.278000116348267,learn,41721.99988365173,Tue Mar 11 2025 14:07:10 GMT-0500 (Central Daylight Time),573522.299999997,A,st,O,t,112,1,982.8999999985099,572539.3999999985,7093,WL,B,9.0
4,18.361000061035156,learn,41638.999938964844,Tue Mar 11 2025 14:07:10 GMT-0500 (Central Daylight Time),573605.6999999955,A,sta,O,a,75,1,1066.2999999970198,572539.3999999985,7093,WL,B,9.0
4,18.544000148773193,learn,41455.99985122681,Tue Mar 11 2025 14:07:10 GMT-0500 (Central Daylight Time),573788.8999999985,A,star,O,r,168,1,1249.5,572539.3999999985,7093,WL,B,9.0
4,19.460999965667725,learn,40539.000034332275,Tue Mar 11 2025 14:07:10 GMT-0500 (Central Daylight Time),574705.3999999985,A,starenter,O,enter,896,1,2166.0,572539.3999999985,7093,WL,B,9.0
4,21.127000093460083,learn,38872.99990653992,Tue Mar 11 2025 14:07:10 GMT-0500 (Central Daylight Time),576371.299999997,A,a,O,a,1645,1,1665.6000000014901,574705.6999999955,7093,WL,B,10.0
4,21.41000008583069,learn,38589.99991416931,Tue Mar 11 2025 14:07:10 GMT-0500 (Central Daylight Time),576654.6999999955,A,ar,O,r,274,1,1949.0,574705.6999999955,7093,WL,B,10.0
4,21.877000093460083,learn,38122.99990653992,Tue Mar 11 2025 14:07:10 GMT-0500 (Central Daylight Time),577121.3999999985,A,arn,O,n,447,1,2415.7000000029802,574705.6999999955,7093,WL,B,10.0
4,22.375999927520752,learn,37624.00007247925,Tue Mar 11 2025 14:07:10 GMT-0500 (Central Daylight Time),577621.299999997,A,ar,O,backspace,492,1,2915.60000000149,574705.6999999955,7093,WL,B,10.0
4,22.759000062942505,learn,37240.999937057495,Tue Mar 11 2025 14:07:10 GMT-0500 (Central Daylight Time),578004.299999997,A,arm,O,m,376,1,3298.60000000149,574705.6999999955,7093,WL,B,10.0
4,23.158999919891357,learn,36841.00008010864,Tue Mar 11 2025 14:07:10 GMT-0500 (Central Daylight Time),578404.1999999955,A,armenter,O,enter,386,1,3698.5,574705.6999999955,7093,WL,B,10.0
4,24.158999919891357,learn,35841.00008010864,Tue Mar 11 2025 14:07:10 GMT-0500 (Central Daylight Time),579403.799999997,A,s,O,s,985,1,999.2999999970198,578404.5,7093,WL,B,11.0
4,24.608999967575073,learn,35391.00003242493,Tue Mar 11 2025 14:07:10 GMT-0500 (Central Daylight Time),579853.6999999955,A,sk,O,k,442,1,1449.1999999955297,578404.5,7093,WL,B,11.0
4,24.79200005531311,learn,35207.99994468689,Tue Mar 11 2025 14:07:10 GMT-0500 (Central Daylight Time),580037.1000000015,A,ski,O,i,176,1,1632.6000000014901,578404.5,7093,WL,B,11.0
4,25.02500009536743,learn,34974.99990463257,Tue Mar 11 2025 14:07:10 GMT-0500 (Central Daylight Time),580270.299999997,A,skin,O,n,216,1,1865.7999999970198,578404.5,7093,WL,B,11.0
4,25.509000062942505,learn,34490.999937057495,Tue Mar 11 2025 14:07:10 GMT-0500 (Central Daylight Time),580753.3999999985,A,skinenter,O,enter,471,1,2348.89999999851,578404.5,7093,WL,B,11.0
4,25.792999982833862,learn,34207.00001716614,Tue Mar 11 2025 14:07:10 GMT-0500 (Central Daylight Time),581037.6999999955,A,d,O,d,268,1,283.8999999985099,580753.799999997,7093,WL,B,12.0
4,25.992000102996826,learn,34007.999897003174,Tue Mar 11 2025 14:07:10 GMT-0500 (Central Daylight Time),581236.6999999955,A,do,O,o,192,1,482.8999999985099,580753.799999997,7093,WL,B,12.0
4,26.158999919891357,learn,33841.00008010864,Tue Mar 11 2025 14:07:10 GMT-0500 (Central Daylight Time),581403.3999999985,A,doo,O,o,153,1,649.6000000014901,580753.799999997,7093,WL,B,12.0
4,26.342000007629395,learn,33657.999992370605,Tue Mar 11 2025 14:07:10 GMT-0500 (Central Daylight Time),581586.6000000015,A,door,O,r,162,1,832.8000000044703,580753.799999997,7093,WL,B,12.0
4,26.592000007629395,learn,33407.999992370605,Tue Mar 11 2025 14:07:10 GMT-0500 (Central Daylight Time),581836.3999999985,A,doorenter,O,enter,243,1,1082.6000000014901,580753.799999997,7093,WL,B,12.0
4,27.04200005531311,learn,32957.99994468689,Tue Mar 11 2025 14:07:10 GMT-0500 (Central Daylight Time),582286.299999997,A,w,O,w,441,1,449.6000000014901,581836.6999999955,7093,WL,B,13.0
4,27.342000007629395,learn,32657.999992370605,Tue Mar 11 2025 14:07:10 GMT-0500 (Central Daylight Time),582586.3999999985,A,wi,O,i,279,1,749.7000000029802,581836.6999999955,7093,WL,B,13.0
4,27.52500009536743,learn,32474.99990463257,Tue Mar 11 2025 14:07:10 GMT-0500 (Central Daylight Time),582769.5,A,win,O,n,171,1,932.8000000044703,581836.6999999955,7093,WL,B,13.0
4,27.808000087738037,learn,32191.999912261963,Tue Mar 11 2025 14:07:10 GMT-0500 (Central Daylight Time),583052.6999999955,A,wind,O,d,276,1,1216.0,581836.6999999955,7093,WL,B,13.0
4,28.058000087738037,learn,31941.999912261963,Tue Mar 11 2025 14:07:10 GMT-0500 (Central Daylight Time),583302.6000000015,A,windo,O,o,233,1,1465.9000000059605,581836.6999999955,7093,WL,B,13.0
4,29.074000120162964,learn,30925.999879837036,Tue Mar 11 2025 14:07:10 GMT-0500 (Central Daylight Time),584319.0,A,window,O,w,1007,1,2482.3000000044703,581836.6999999955,7093,WL,B,13.0
4,29.306999921798706,learn,30693.000078201294,Tue Mar 11 2025 14:07:10 GMT-0500 (Central Daylight Time),584552.1000000015,A,windowenter,O,enter,214,1,2715.4000000059605,581836.6999999955,7093,WL,B,13.0
4,29.624000072479248,learn,30375.999927520752,Tue Mar 11 2025 14:07:10 GMT-0500 (Central Daylight Time),584868.799999997,A,c,O,c,310,1,316.3999999985099,584552.3999999985,7093,WL,B,14.0
4,29.891000032424927,learn,30108.999967575073,Tue Mar 11 2025 14:07:10 GMT-0500 (Central Daylight Time),585135.6000000015,A,ca,O,a,257,1,583.2000000029802,584552.3999999985,7093,WL,B,14.0
4,30.141000032424927,learn,29858.999967575073,Tue Mar 11 2025 14:07:10 GMT-0500 (Central Daylight Time),585385.299999997,A,cab,O,b,238,1,832.8999999985099,584552.3999999985,7093,WL,B,14.0
4,30.390000104904175,learn,29609.999895095825,Tue Mar 11 2025 14:07:10 GMT-0500 (Central Daylight Time),585634.8999999985,A,cabi,O,i,244,1,1082.5,584552.3999999985,7093,WL,B,14.0
4,30.835000038146973,learn,29164.999961853027,Tue Mar 11 2025 14:07:10 GMT-0500 (Central Daylight Time),586079.3999999985,A,cabin,O,n,299,1,1527.0,584552.3999999985,7093,WL,B,14.0
4,31.123000144958496,learn,28876.999855041504,Tue Mar 11 2025 14:07:10 GMT-0500 (Central Daylight Time),586368.1000000015,A,cabinenter,O,enter,269,1,1815.7000000029802,584552.3999999985,7093,WL,B,14.0
4,31.572999954223633,learn,28427.000045776367,Tue Mar 11 2025 14:07:10 GMT-0500 (Central Daylight Time),586818.299999997,A,l,O,l,438,1,450.0,586368.299999997,7093,WL,B,15.0
4,31.85599994659424,learn,28144.00005340576,Tue Mar 11 2025 14:07:10 GMT-0500 (Central Daylight Time),587101.1000000015,A,la,O,a,275,1,732.8000000044703,586368.299999997,7093,WL,B,15.0
4,32.140000104904175,learn,27859.999895095825,Tue Mar 11 2025 14:07:10 GMT-0500 (Central Daylight Time),587384.6000000015,A,lak,O,k,264,1,1016.3000000044703,586368.299999997,7093,WL,B,15.0
4,32.50600004196167,learn,27493.99995803833,Tue Mar 11 2025 14:07:10 GMT-0500 (Central Daylight Time),587751.1999999955,A,lake,O,e,357,1,1382.8999999985099,586368.299999997,7093,WL,B,15.0
4,33.18900012969971,learn,26810.999870300293,Tue Mar 11 2025 14:07:10 GMT-0500 (Central Daylight Time),588434.1999999955,A,lakeenter,O,enter,663,1,2065.89999999851,586368.299999997,7093,WL,B,15.0
5,0.7170000076293945,learn,60000.0,Tue Mar 11 2025 14:07:10 GMT-0500 (Central Daylight Time),659212.3999999985,A,p,O,p,702,1,716.5,658495.8999999985,7093,WL,B,1.0
5,0.9170000553131104,learn,60000.0,Tue Mar 11 2025 14:07:10 GMT-0500 (Central Daylight Time),659412.3999999985,A,pi,O,i,192,1,916.5,658495.8999999985,7093,WL,B,1.0
5,1.133000135421753,learn,60000.0,Tue Mar 11 2025 14:07:10 GMT-0500 (Central Daylight Time),659628.6999999955,A,pip,O,p,201,1,1132.7999999970198,658495.8999999985,7093,WL,B,1.0
5,1.9500000476837158,learn,60000.0,Tue Mar 11 2025 14:07:10 GMT-0500 (Central Daylight Time),660445.1000000015,A,pipe,O,e,809,1,1949.2000000029802,658495.8999999985,7093,WL,B,1.0
5,2.2160000801086426,learn,60000.0,Tue Mar 11 2025 14:07:10 GMT-0500 (Central Daylight Time),660711.799999997,A,pipeenter,O,enter,257,1,2215.89999999851,658495.8999999985,7093,WL,B,1.0
5,3.2660000324249268,learn,60000.0,Tue Mar 11 2025 14:07:10 GMT-0500 (Central Daylight Time),661761.299999997,A,f,O,f,1038,1,1049.1000000014901,660712.1999999955,7093,WL,B,2.0
5,3.449000120162964,learn,60000.0,Tue Mar 11 2025 14:07:10 GMT-0500 (Central Daylight Time),661944.6000000015,A,fi,O,i,172,1,1232.4000000059605,660712.1999999955,7093,WL,B,2.0
5,3.700000047683716,learn,60000.0,Tue Mar 11 2025 14:07:10 GMT-0500 (Central Daylight Time),662194.8999999985,A,fir,O,r,229,1,1482.7000000029802,660712.1999999955,7093,WL,B,2.0
5,3.8989999294281006,learn,60000.0,Tue Mar 11 2025 14:07:10 GMT-0500 (Central Daylight Time),662394.6999999955,A,fire,O,e,187,1,1682.5,660712.1999999955,7093,WL,B,2.0
5,4.200000047683716,learn,60000.0,Tue Mar 11 2025 14:07:10 GMT-0500 (Central Daylight Time),662695.6999999955,A,fireenter,O,enter,291,1,1983.5,660712.1999999955,7093,WL,B,2.0
5,4.565999984741211,learn,60000.0,Tue Mar 11 2025 14:07:10 GMT-0500 (Central Daylight Time),663061.1000000015,A,s,O,s,350,1,365.1000000014901,662696.0,7093,WL,B,3.0
5,4.931999921798706,learn,60000.0,Tue Mar 11 2025 14:07:10 GMT-0500 (Central Daylight Time),663427.6000000015,A,sk,O,k,353,1,731.6000000014901,662696.0,7093,WL,B,3.0
5,5.131999969482422,learn,60000.0,Tue Mar 11 2025 14:07:10 GMT-0500 (Central Daylight Time),663627.3999999985,A,ski,O,i,186,1,931.3999999985099,662696.0,7093,WL,B,3.0
5,5.449000120162964,learn,60000.0,Tue Mar 11 2025 14:07:10 GMT-0500 (Central Daylight Time),663944.1999999955,A,skin,O,n,306,1,1248.1999999955297,662696.0,7093,WL,B,3.0
5,6.164999961853027,learn,60000.0,Tue Mar 11 2025 14:07:10 GMT-0500 (Central Daylight Time),664660.3999999985,A,skinenter,O,enter,701,1,1964.3999999985099,662696.0,7093,WL,B,3.0
5,6.381999969482422,learn,60000.0,Tue Mar 11 2025 14:07:10 GMT-0500 (Central Daylight Time),664877.0,A,a,O,a,201,1,216.20000000298023,664660.799999997,7093,WL,B,4.0
5,6.681999921798706,learn,60000.0,Tue Mar 11 2025 14:07:10 GMT-0500 (Central Daylight Time),665176.8999999985,A,ar,O,r,289,1,516.1000000014901,664660.799999997,7093,WL,B,4.0
5,6.949000120162964,learn,60000.0,Tue Mar 11 2025 14:07:10 GMT-0500 (Central Daylight Time),665444.0,A,arm,O,m,253,1,783.2000000029802,664660.799999997,7093,WL,B,4.0
5,7.398000001907349,learn,60000.0,Tue Mar 11 2025 14:07:10 GMT-0500 (Central Daylight Time),665893.299999997,A,armenter,O,enter,442,1,1232.5,664660.799999997,7093,WL,B,4.0
5,7.7829999923706055,learn,60000.0,Tue Mar 11 2025 14:07:10 GMT-0500 (Central Daylight Time),666277.8999999985,A,s,O,s,376,1,384.29999999701977,665893.6000000015,7093,WL,B,5.0
5,7.998000144958496,learn,60000.0,Tue Mar 11 2025 14:07:10 GMT-0500 (Central Daylight Time),666493.3999999985,A,st,O,t,199,1,599.7999999970198,665893.6000000015,7093,WL,B,5.0
5,8.164000034332275,learn,60000.0,Tue Mar 11 2025 14:07:10 GMT-0500 (Central Daylight Time),666659.6999999955,A,str,O,r,152,1,766.0999999940395,665893.6000000015,7093,WL,B,5.0
5,8.480999946594238,learn,60000.0,Tue Mar 11 2025 14:07:10 GMT-0500 (Central Daylight Time),666976.299999997,A,stre,O,e,298,1,1082.6999999955297,665893.6000000015,7093,WL,B,5.0
5,8.63100004196167,learn,60000.0,Tue Mar 11 2025 14:07:10 GMT-0500 (Central Daylight Time),667126.299999997,A,stree,O,e,133,1,1232.6999999955297,665893.6000000015,7093,WL,B,5.0
5,8.831000089645386,learn,60000.0,Tue Mar 11 2025 14:07:10 GMT-0500 (Central Daylight Time),667326.299999997,A,street,O,t,191,1,1432.6999999955297,665893.6000000015,7093,WL,B,5.0
5,9.314000129699707,learn,60000.0,Tue Mar 11 2025 14:07:10 GMT-0500 (Central Daylight Time),667809.6999999955,A,streetenter,O,enter,471,1,1916.0999999940395,665893.6000000015,7093,WL,B,5.0
5,9.664000034332275,learn,60000.0,Tue Mar 11 2025 14:07:10 GMT-0500 (Central Daylight Time),668159.299999997,A,w,O,w,340,1,349.29999999701977,667810.0,7093,WL,B,6.0
5,9.847000122070312,learn,60000.0,Tue Mar 11 2025 14:07:10 GMT-0500 (Central Daylight Time),668342.6999999955,A,wi,O,i,174,1,532.6999999955297,667810.0,7093,WL,B,6.0
5,10.164000034332275,learn,60000.0,Tue Mar 11 2025 14:07:10 GMT-0500 (Central Daylight Time),668659.0,A,win,O,n,296,1,849.0,667810.0,7093,WL,B,6.0
5,10.513999938964844,learn,60000.0,Tue Mar 11 2025 14:07:10 GMT-0500 (Central Daylight Time),669009.1000000015,A,wind,O,d,338,1,1199.1000000014901,667810.0,7093,WL,B,6.0
5,10.748000144958496,learn,60000.0,Tue Mar 11 2025 14:07:10 GMT-0500 (Central Daylight Time),669243.0,A,windo,O,o,228,1,1433.0,667810.0,7093,WL,B,6.0
5,11.36300015449524,learn,60000.0,Tue Mar 11 2025 14:07:10 GMT-0500 (Central Daylight Time),669858.6999999955,A,window,O,w,611,1,2048.6999999955297,667810.0,7093,WL,B,6.0
5,11.562999963760376,learn,60000.0,Tue Mar 11 2025 14:07:10 GMT-0500 (Central Daylight Time),670058.6000000015,A,windowenter,O,enter,186,1,2248.60000000149,667810.0,7093,WL,B,6.0
5,12.04699993133545,learn,60000.0,Tue Mar 11 2025 14:07:10 GMT-0500 (Central Daylight Time),670542.1999999955,A,g,O,g,473,1,483.29999999701977,670058.8999999985,7093,WL,B,7.0
5,12.19700002670288,learn,60000.0,Tue Mar 11 2025 14:07:10 GMT-0500 (Central Daylight Time),670692.0,A,gr,O,r,135,1,633.1000000014901,670058.8999999985,7093,WL,B,7.0
5,12.480000019073486,learn,60000.0,Tue Mar 11 2025 14:07:10 GMT-0500 (Central Daylight Time),670975.1999999955,A,gra,O,a,266,1,916.2999999970198,670058.8999999985,7093,WL,B,7.0
5,12.746000051498413,learn,60000.0,Tue Mar 11 2025 14:07:10 GMT-0500 (Central Daylight Time),671241.6999999955,A,gras,O,s,254,1,1182.7999999970198,670058.8999999985,7093,WL,B,7.0
5,12.930000066757202,learn,60000.0,Tue Mar 11 2025 14:07:10 GMT-0500 (Central Daylight Time),671425.1000000015,A,grass,O,s,164,1,1366.2000000029802,670058.8999999985,7093,WL,B,7.0
5,13.079999923706055,learn,60000.0,Tue Mar 11 2025 14:07:10 GMT-0500 (Central Daylight Time),671575.1000000015,A,grassenter,O,enter,140,1,1516.2000000029802,670058.8999999985,7093,WL,B,7.0
5,13.378999948501587,learn,60000.0,Tue Mar 11 2025 14:07:10 GMT-0500 (Central Daylight Time),671874.799999997,A,d,O,d,279,1,299.29999999701977,671575.5,7093,WL,B,8.0
5,13.628999948501587,learn,60000.0,Tue Mar 11 2025 14:07:10 GMT-0500 (Central Daylight Time),672124.799999997,A,do,O,o,243,1,549.2999999970198,671575.5,7093,WL,B,8.0
5,14.163000106811523,learn,60000.0,Tue Mar 11 2025 14:07:10 GMT-0500 (Central Daylight Time),672658.0,A,doo,O,o,513,1,1082.5,671575.5,7093,WL,B,8.0
5,14.36300015449524,learn,60000.0,Tue Mar 11 2025 14:07:10 GMT-0500 (Central Daylight Time),672858.1000000015,A,door,O,r,180,1,1282.6000000014901,671575.5,7093,WL,B,8.0
5,14.76200008392334,learn,60000.0,Tue Mar 11 2025 14:07:10 GMT-0500 (Central Daylight Time),673257.6999999955,A,doorenter,O,enter,388,1,1682.1999999955297,671575.5,7093,WL,B,8.0
5,15.146000146865845,learn,60000.0,Tue Mar 11 2025 14:07:10 GMT-0500 (Central Daylight Time),673641.1999999955,A,w,O,w,372,1,383.19999999552965,673258.0,7093,WL,B,9.0
5,15.446000099182129,learn,60000.0,Tue Mar 11 2025 14:07:10 GMT-0500 (Central Daylight Time),673940.8999999985,A,wi,O,i,284,1,682.8999999985099,673258.0,7093,WL,B,9.0
5,15.796000003814697,learn,60000.0,Tue Mar 11 2025 14:07:10 GMT-0500 (Central Daylight Time),674291.0,A,wif,O,f,330,1,1033.0,673258.0,7093,WL,B,9.0
5,16.078999996185303,learn,60000.0,Tue Mar 11 2025 14:07:10 GMT-0500 (Central Daylight Time),674574.1000000015,A,wife,O,e,267,1,1316.1000000014901,673258.0,7093,WL,B,9.0
5,16.328999996185303,learn,60000.0,Tue Mar 11 2025 14:07:10 GMT-0500 (Central Daylight Time),674824.0,A,wifeenter,O,enter,240,1,1566.0,673258.0,7093,WL,B,9.0
5,16.661999940872192,learn,60000.0,Tue Mar 11 2025 14:07:10 GMT-0500 (Central Daylight Time),675157.1999999955,A,l,O,l,326,1,332.8999999985099,674824.299999997,7093,WL,B,10.0
5,16.84500002861023,learn,60000.0,Tue Mar 11 2025 14:07:10 GMT-0500 (Central Daylight Time),675340.3999999985,A,la,O,a,168,1,516.1000000014901,674824.299999997,7093,WL,B,10.0
5,16.996000051498413,learn,60000.0,Tue Mar 11 2025 14:07:10 GMT-0500 (Central Daylight Time),675491.6000000015,A,lak,O,k,130,1,667.3000000044703,674824.299999997,7093,WL,B,10.0
5,17.194999933242798,learn,60000.0,Tue Mar 11 2025 14:07:10 GMT-0500 (Central Daylight Time),675690.6000000015,A,lake,O,e,194,1,866.3000000044703,674824.299999997,7093,WL,B,10.0
5,17.644999980926514,learn,60000.0,Tue Mar 11 2025 14:07:10 GMT-0500 (Central Daylight Time),676140.1999999955,A,lakeenter,O,enter,436,1,1315.8999999985099,674824.299999997,7093,WL,B,10.0
5,18.111999988555908,learn,60000.0,Tue Mar 11 2025 14:07:10 GMT-0500 (Central Daylight Time),676606.799999997,A,c,O,c,457,1,466.19999999552965,676140.6000000015,7093,WL,B,11.0
5,18.34500002861023,learn,60000.0,Tue Mar 11 2025 14:07:10 GMT-0500 (Central Daylight Time),676840.1000000015,A,ca,O,a,223,1,699.5,676140.6000000015,7093,WL,B,11.0
5,18.561000108718872,learn,60000.0,Tue Mar 11 2025 14:07:10 GMT-0500 (Central Daylight Time),677056.5,A,cab,O,b,198,1,915.8999999985099,676140.6000000015,7093,WL,B,11.0
5,18.778000116348267,learn,60000.0,Tue Mar 11 2025 14:07:10 GMT-0500 (Central Daylight Time),677273.299999997,A,cabi,O,i,197,1,1132.6999999955297,676140.6000000015,7093,WL,B,11.0
5,19.14400005340576,learn,60000.0,Tue Mar 11 2025 14:07:10 GMT-0500 (Central Daylight Time),677639.8999999985,A,cabin,O,n,356,1,1499.2999999970198,676140.6000000015,7093,WL,B,11.0
5,19.545000076293945,learn,60000.0,Tue Mar 11 2025 14:07:10 GMT-0500 (Central Daylight Time),678039.8999999985,A,cabinenter,O,enter,390,1,1899.2999999970198,676140.6000000015,7093,WL,B,11.0
5,19.99399995803833,learn,60000.0,Tue Mar 11 2025 14:07:10 GMT-0500 (Central Daylight Time),678489.5,A,c,O,c,430,1,449.30000000447035,678040.1999999955,7093,WL,B,12.0
5,20.194000005722046,learn,60000.0,Tue Mar 11 2025 14:07:10 GMT-0500 (Central Daylight Time),678689.3999999985,A,cl,O,l,180,1,649.2000000029802,678040.1999999955,7093,WL,B,12.0
5,20.377000093460083,learn,60000.0,Tue Mar 11 2025 14:07:10 GMT-0500 (Central Daylight Time),678872.6999999955,A,clo,O,o,172,1,832.5,678040.1999999955,7093,WL,B,12.0
5,20.72699999809265,learn,60000.0,Tue Mar 11 2025 14:07:10 GMT-0500 (Central Daylight Time),679222.6999999955,A,cloc,O,c,341,1,1182.5,678040.1999999955,7093,WL,B,12.0
5,21.011000156402588,learn,60000.0,Tue Mar 11 2025 14:07:10 GMT-0500 (Central Daylight Time),679506.0,A,clock,O,k,263,1,1465.8000000044703,678040.1999999955,7093,WL,B,12.0
5,21.756999969482422,learn,60000.0,Tue Mar 11 2025 14:07:10 GMT-0500 (Central Daylight Time),680252.5,A,clockenter,O,enter,741,1,2212.3000000044703,678040.1999999955,7093,WL,B,12.0
5,21.927000045776367,learn,60000.0,Tue Mar 11 2025 14:07:10 GMT-0500 (Central Daylight Time),680422.1000000015,A,s,O,s,161,1,169.30000000447035,680252.799999997,7093,WL,B,13.0
5,22.127000093460083,learn,60000.0,Tue Mar 11 2025 14:07:10 GMT-0500 (Central Daylight Time),680622.1999999955,A,st,O,t,181,1,369.3999999985099,680252.799999997,7093,WL,B,13.0
5,22.276999950408936,learn,60000.0,Tue Mar 11 2025 14:07:10 GMT-0500 (Central Daylight Time),680772.1000000015,A,sta,O,a,143,1,519.3000000044703,680252.799999997,7093,WL,B,13.0
5,22.460000038146973,learn,60000.0,Tue Mar 11 2025 14:07:10 GMT-0500 (Central Daylight Time),680955.6000000015,A,star,O,r,169,1,702.8000000044703,680252.799999997,7093,WL,B,13.0
5,23.64300012588501,learn,60000.0,Tue Mar 11 2025 14:07:10 GMT-0500 (Central Daylight Time),682138.299999997,A,starenter,O,enter,1170,1,1885.5,680252.799999997,7093,WL,B,13.0
5,47.71900010108948,learn,60000.0,Tue Mar 11 2025 14:07:10 GMT-0500 (Central Daylight Time),706214.1999999955,A,c,O,c,24060,1,24075.59999999404,682138.6000000015,7093,WL,B,14.0
5,47.86899995803833,learn,60000.0,Tue Mar 11 2025 14:07:10 GMT-0500 (Central Daylight Time),706364.1999999955,A,ci,O,i,135,1,24225.59999999404,682138.6000000015,7093,WL,B,14.0
5,48.401999950408936,learn,60000.0,Tue Mar 11 2025 14:07:10 GMT-0500 (Central Daylight Time),706897.3999999985,A,cit,O,t,513,1,24758.79999999702,682138.6000000015,7093,WL,B,14.0
5,48.485000133514404,learn,60000.0,Tue Mar 11 2025 14:07:10 GMT-0500 (Central Daylight Time),706980.6999999955,A,city,O,y,77,1,24842.09999999404,682138.6000000015,7093,WL,B,14.0
5,48.78500008583069,learn,60000.0,Tue Mar 11 2025 14:07:10 GMT-0500 (Central Daylight Time),707280.5,A,cityenter,O,enter,281,1,25141.89999999851,682138.6000000015,7093,WL,B,14.0
5,75.20900011062622,learn,60000.0,Tue Mar 11 2025 14:07:10 GMT-0500 (Central Daylight Time),733705.6999999955,A,s,O,s,26405,1,26424.89999999851,707280.799999997,7093,WL,B,15.0
6,0.4159998893737793,distr,59584.00011062622,Tue Mar 11 2025 14:07:10 GMT-0500 (Central Daylight Time),799235.0,B,c,O,c,412,1,415.6000000014901,798819.3999999985,7093,WL,B,1.0
6,0.7000000476837158,distr,59299.999952316284,Tue Mar 11 2025 14:07:10 GMT-0500 (Central Daylight Time),799518.3999999985,B,ce,O,e,266,1,699.0,798819.3999999985,7093,WL,B,1.0
6,0.932999849319458,distr,59067.00015068054,Tue Mar 11 2025 14:07:10 GMT-0500 (Central Daylight Time),799751.6000000015,B,cel,O,l,223,1,932.2000000029802,798819.3999999985,7093,WL,B,1.0
6,1.0999999046325684,distr,58900.00009536743,Tue Mar 11 2025 14:07:10 GMT-0500 (Central Daylight Time),799919.1000000015,B,cell,O,l,158,1,1099.7000000029802,798819.3999999985,7093,WL,B,1.0
6,1.565999984741211,distr,58434.00001525879,Tue Mar 11 2025 14:07:10 GMT-0500 (Central Daylight Time),800384.5,B,cellenter,O,enter,454,1,1565.1000000014901,798819.3999999985,7093,WL,B,1.0
6,1.8659999370574951,distr,58134.000062942505,Tue Mar 11 2025 14:07:10 GMT-0500 (Central Daylight Time),800684.6000000015,B,p,O,p,292,1,299.80000000447035,800384.799999997,7093,WL,B,2.0
6,2.0820000171661377,distr,57917.99998283386,Tue Mar 11 2025 14:07:10 GMT-0500 (Central Daylight Time),800901.299999997,B,pa,O,a,201,1,516.5,800384.799999997,7093,WL,B,2.0
6,2.2990000247955322,distr,57700.99997520447,Tue Mar 11 2025 14:07:10 GMT-0500 (Central Daylight Time),801117.8999999985,B,pal,O,l,200,1,733.1000000014901,800384.799999997,7093,WL,B,2.0
6,2.498999834060669,distr,57501.00016593933,Tue Mar 11 2025 14:07:10 GMT-0500 (Central Daylight Time),801317.6999999955,B,pala,O,a,192,1,932.8999999985099,800384.799999997,7093,WL,B,2.0
6,2.865000009536743,distr,57134.99999046326,Tue Mar 11 2025 14:07:10 GMT-0500 (Central Daylight Time),801684.1999999955,B,palac,O,c,352,1,1299.3999999985099,800384.799999997,7093,WL,B,2.0
6,3.131999969482422,distr,56868.00003051758,Tue Mar 11 2025 14:07:10 GMT-0500 (Central Daylight Time),801950.799999997,B,palace,O,e,257,1,1566.0,800384.799999997,7093,WL,B,2.0
6,3.4149999618530273,distr,56585.00003814697,Tue Mar 11 2025 14:07:10 GMT-0500 (Central Daylight Time),802234.1000000015,B,palaceenter,O,enter,271,1,1849.3000000044703,800384.799999997,7093,WL,B,2.0
6,3.681999921798706,distr,56318.000078201294,Tue Mar 11 2025 14:07:10 GMT-0500 (Central Daylight Time),802500.3999999985,B,d,O,d,251,1,266.0,802234.3999999985,7093,WL,B,3.0
6,3.9649999141693115,distr,56035.00008583069,Tue Mar 11 2025 14:07:10 GMT-0500 (Central Daylight Time),802783.799999997,B,dr,O,r,274,1,549.3999999985099,802234.3999999985,7093,WL,B,3.0
6,4.197999954223633,distr,55802.00004577637,Tue Mar 11 2025 14:07:10 GMT-0500 (Central Daylight Time),803017.299999997,B,dre,O,e,214,1,782.8999999985099,802234.3999999985,7093,WL,B,3.0
6,4.531999826431274,distr,55468.000173568726,Tue Mar 11 2025 14:07:10 GMT-0500 (Central Daylight Time),803350.8999999985,B,dres,O,s,316,1,1116.5,802234.3999999985,7093,WL,B,3.0
6,4.7149999141693115,distr,55285.00008583069,Tue Mar 11 2025 14:07:10 GMT-0500 (Central Daylight Time),803533.6000000015,B,dress,O,s,167,1,1299.2000000029802,802234.3999999985,7093,WL,B,3.0
6,4.898000001907349,distr,55101.99999809265,Tue Mar 11 2025 14:07:10 GMT-0500 (Central Daylight Time),803716.6000000015,B,dressenter,O,enter,176,1,1482.2000000029802,802234.3999999985,7093,WL,B,3.0
6,5.514999866485596,distr,54485.000133514404,Tue Mar 11 2025 14:07:10 GMT-0500 (Central Daylight Time),804333.6000000015,B,b,O,b,610,1,616.8000000044703,803716.799999997,7093,WL,B,4.0
6,5.664999961853027,distr,54335.00003814697,Tue Mar 11 2025 14:07:10 GMT-0500 (Central Daylight Time),804483.5,B,ba,O,a,137,1,766.7000000029802,803716.799999997,7093,WL,B,4.0
6,5.830999851226807,distr,54169.00014877319,Tue Mar 11 2025 14:07:10 GMT-0500 (Central Daylight Time),804649.8999999985,B,bab,O,b,152,1,933.1000000014901,803716.799999997,7093,WL,B,4.0
6,6.148000001907349,distr,53851.99999809265,Tue Mar 11 2025 14:07:10 GMT-0500 (Central Daylight Time),804966.6000000015,B,baby,O,y,300,1,1249.8000000044703,803716.799999997,7093,WL,B,4.0
6,6.563999891281128,distr,53436.00010871887,Tue Mar 11 2025 14:07:10 GMT-0500 (Central Daylight Time),805383.1000000015,B,babyenter,O,enter,400,1,1666.3000000044703,803716.799999997,7093,WL,B,4.0
6,7.131999969482422,distr,52868.00003051758,Tue Mar 11 2025 14:07:10 GMT-0500 (Central Daylight Time),805950.6000000015,B,l,O,l,559,1,567.1000000014901,805383.5,7093,WL,B,5.0
6,7.363999843597412,distr,52636.00015640259,Tue Mar 11 2025 14:07:10 GMT-0500 (Central Daylight Time),806182.8999999985,B,li,O,i,223,1,799.3999999985099,805383.5,7093,WL,B,5.0
6,7.996999979019165,distr,52003.000020980835,Tue Mar 11 2025 14:07:10 GMT-0500 (Central Daylight Time),806815.8999999985,B,lip,O,p,623,1,1432.3999999985099,805383.5,7093,WL,B,5.0
6,8.430999994277954,distr,51569.000005722046,Tue Mar 11 2025 14:07:10 GMT-0500 (Central Daylight Time),807249.299999997,B,lipenter,O,enter,414,1,1865.7999999970198,805383.5,7093,WL,B,5.0
6,9.429999828338623,distr,50570.00017166138,Tue Mar 11 2025 14:07:10 GMT-0500 (Central Daylight Time),808248.8999999985,B,v,O,v,988,1,999.2999999970198,807249.6000000015,7093,WL,B,6.0
6,9.646999835968018,distr,50353.00016403198,Tue Mar 11 2025 14:07:10 GMT-0500 (Central Daylight Time),808465.5,B,vi,O,i,205,1,1215.8999999985099,807249.6000000015,7093,WL,B,6.0
6,9.914000034332275,distr,50085.999965667725,Tue Mar 11 2025 14:07:10 GMT-0500 (Central Daylight Time),808733.299999997,B,vil,O,l,252,1,1483.6999999955297,807249.6000000015,7093,WL,B,6.0
6,10.079999923706055,distr,49920.000076293945,Tue Mar 11 2025 14:07:10 GMT-0500 (Central Daylight Time),808898.6999999955,B,vill,O,l,145,1,1649.0999999940395,807249.6000000015,7093,WL,B,6.0
6,10.312999963760376,distr,49687.000036239624,Tue Mar 11 2025 14:07:10 GMT-0500 (Central Daylight Time),809131.799999997,B,villa,O,a,219,1,1882.1999999955297,807249.6000000015,7093,WL,B,6.0
6,11.88100004196167,distr,48118.99995803833,Tue Mar 11 2025 14:07:10 GMT-0500 (Central Daylight Time),810699.3999999985,B,villag,O,g,1545,1,3449.7999999970198,807249.6000000015,7093,WL,B,6.0
6,12.01199984550476,distr,47988.00015449524,Tue Mar 11 2025 14:07:10 GMT-0500 (Central Daylight Time),810831.1999999955,B,village,O,e,122,1,3581.5999999940395,807249.6000000015,7093,WL,B,6.0
6,12.312000036239624,distr,47687.999963760376,Tue Mar 11 2025 14:07:10 GMT-0500 (Central Daylight Time),811131.1999999955,B,villageenter,O,enter,279,1,3881.5999999940395,807249.6000000015,7093,WL,B,6.0
6,12.578999996185303,distr,47421.0000038147,Tue Mar 11 2025 14:07:10 GMT-0500 (Central Daylight Time),811397.799999997,B,r,O,r,258,1,266.19999999552965,811131.6000000015,7093,WL,B,7.0
6,12.779000043869019,distr,47220.99995613098,Tue Mar 11 2025 14:07:10 GMT-0500 (Central Daylight Time),811597.799999997,B,ro,O,o,184,1,466.19999999552965,811131.6000000015,7093,WL,B,7.0
6,13.079999923706055,distr,46920.000076293945,Tue Mar 11 2025 14:07:10 GMT-0500 (Central Daylight Time),811898.3999999985,B,roc,O,c,296,1,766.7999999970198,811131.6000000015,7093,WL,B,7.0
6,13.378999948501587,distr,46621.00005149841,Tue Mar 11 2025 14:07:10 GMT-0500 (Central Daylight Time),812197.5,B,rock,O,k,283,1,1065.8999999985099,811131.6000000015,7093,WL,B,7.0
6,13.76199984550476,distr,46238.00015449524,Tue Mar 11 2025 14:07:10 GMT-0500 (Central Daylight Time),812580.8999999985,B,rockenter,O,enter,377,1,1449.2999999970198,811131.6000000015,7093,WL,B,7.0
6,14.312000036239624,distr,45687.999963760376,Tue Mar 11 2025 14:07:10 GMT-0500 (Central Daylight Time),813130.6999999955,B,c,O,c,530,1,549.5,812581.1999999955,7093,WL,B,8.0
6,14.51199984550476,distr,45488.00015449524,Tue Mar 11 2025 14:07:10 GMT-0500 (Central Daylight Time),813330.6000000015,B,co,O,o,195,1,749.4000000059605,812581.1999999955,7093,WL,B,8.0
6,14.694999933242798,distr,45305.0000667572,Tue Mar 11 2025 14:07:10 GMT-0500 (Central Daylight Time),813514.1000000015,B,coi,O,i,163,1,932.9000000059605,812581.1999999955,7093,WL,B,8.0
6,15.09500002861023,distr,44904.99997138977,Tue Mar 11 2025 14:07:10 GMT-0500 (Central Daylight Time),813913.6000000015,B,coin,O,n,387,1,1332.4000000059605,812581.1999999955,7093,WL,B,8.0
6,16.728999853134155,distr,43271.000146865845,Tue Mar 11 2025 14:07:10 GMT-0500 (Central Daylight Time),815547.799999997,B,coinenter,O,enter,1620,1,2966.60000000149,812581.1999999955,7093,WL,B,8.0
6,19.977999925613403,distr,40022.0000743866,Tue Mar 11 2025 14:07:10 GMT-0500 (Central Daylight Time),818796.5,B,o,O,o,3242,1,3248.39999999851,815548.1000000015,7093,WL,B,9.0
6,20.14400005340576,distr,39855.99994659424,Tue Mar 11 2025 14:07:10 GMT-0500 (Central Daylight Time),818962.299999997,B,oc,O,c,153,1,3414.1999999955297,815548.1000000015,7093,WL,B,9.0
6,20.39299988746643,distr,39607.00011253357,Tue Mar 11 2025 14:07:10 GMT-0500 (Central Daylight Time),819212.1999999955,B,oce,O,e,235,1,3664.0999999940395,815548.1000000015,7093,WL,B,9.0
6,20.710000038146973,distr,39289.99996185303,Tue Mar 11 2025 14:07:10 GMT-0500 (Central Daylight Time),819528.6999999955,B,ocea,O,a,297,1,3980.5999999940395,815548.1000000015,7093,WL,B,9.0
6,20.876999855041504,distr,39123.000144958496,Tue Mar 11 2025 14:07:10 GMT-0500 (Central Daylight Time),819695.299999997,B,ocean,O,n,149,1,4147.19999999553,815548.1000000015,7093,WL,B,9.0
6,21.375999927520752,distr,38624.00007247925,Tue Mar 11 2025 14:07:10 GMT-0500 (Central Daylight Time),820195.0,B,oceanenter,O,enter,495,1,4646.89999999851,815548.1000000015,7093,WL,B,9.0
6,22.042999982833862,distr,37957.00001716614,Tue Mar 11 2025 14:07:10 GMT-0500 (Central Daylight Time),820861.6000000015,B,v,O,v,659,1,666.3000000044703,820195.299999997,7093,WL,B,10.0
6,22.22599983215332,distr,37774.00016784668,Tue Mar 11 2025 14:07:10 GMT-0500 (Central Daylight Time),821044.799999997,B,vi,O,i,168,1,849.5,820195.299999997,7093,WL,B,10.0
6,22.442999839782715,distr,37557.000160217285,Tue Mar 11 2025 14:07:10 GMT-0500 (Central Daylight Time),821261.299999997,B,vil,O,l,209,1,1066.0,820195.299999997,7093,WL,B,10.0
6,22.638000011444092,distr,37361.99998855591,Tue Mar 11 2025 14:07:10 GMT-0500 (Central Daylight Time),821456.5,B,vill,O,l,190,1,1261.2000000029802,820195.299999997,7093,WL,B,10.0
6,22.78499984741211,distr,37215.00015258789,Tue Mar 11 2025 14:07:10 GMT-0500 (Central Daylight Time),821603.799999997,B,villa,O,a,143,1,1408.5,820195.299999997,7093,WL,B,10.0
6,23.14199995994568,distr,36858.00004005432,Tue Mar 11 2025 14:07:10 GMT-0500 (Central Daylight Time),821961.299999997,B,villad,O,d,338,1,1766.0,820195.299999997,7093,WL,B,10.0
6,23.691999912261963,distr,36308.00008773804,Tue Mar 11 2025 14:07:10 GMT-0500 (Central Daylight Time),822511.1999999955,B,villa,O,backspace,540,1,2315.89999999851,820195.299999997,7093,WL,B,10.0
6,23.908999919891357,distr,36091.00008010864,Tue Mar 11 2025 14:07:10 GMT-0500 (Central Daylight Time),822727.6999999955,B,villag,O,g,206,1,2532.39999999851,820195.299999997,7093,WL,B,10.0
6,24.241999864578247,distr,35758.00013542175,Tue Mar 11 2025 14:07:10 GMT-0500 (Central Daylight Time),823060.8999999985,B,village,O,e,326,1,2865.60000000149,820195.299999997,7093,WL,B,10.0
6,24.674999952316284,distr,35325.000047683716,Tue Mar 11 2025 14:07:10 GMT-0500 (Central Daylight Time),823494.1000000015,B,villageenter,O,enter,425,1,3298.8000000044703,820195.299999997,7093,WL,B,10.0
6,36.23799991607666,distr,23762.00008392334,Tue Mar 11 2025 14:07:10 GMT-0500 (Central Daylight Time),835057.1999999955,B,b,O,b,11551,1,11562.69999999553,823494.5,7093,WL,B,11.0
6,36.40499997138977,distr,23595.00002861023,Tue Mar 11 2025 14:07:10 GMT-0500 (Central Daylight Time),835223.8999999985,B,bu,O,u,156,1,11729.39999999851,823494.5,7093,WL,B,11.0
6,36.621999979019165,distr,23378.000020980835,Tue Mar 11 2025 14:07:10 GMT-0500 (Central Daylight Time),835440.3999999985,B,bui,O,i,198,1,11945.89999999851,823494.5,7093,WL,B,11.0
6,36.82200002670288,distr,23177.99997329712,Tue Mar 11 2025 14:07:10 GMT-0500 (Central Daylight Time),835640.299999997,B,buil,O,l,190,1,12145.79999999702,823494.5,7093,WL,B,11.0
6,37.121999979019165,distr,22878.000020980835,Tue Mar 11 2025 14:07:10 GMT-0500 (Central Daylight Time),835940.299999997,B,build,O,d,293,1,12445.79999999702,823494.5,7093,WL,B,11.0
6,37.32099986076355,distr,22679.00013923645,Tue Mar 11 2025 14:07:10 GMT-0500 (Central Daylight Time),836140.1999999955,B,buildi,O,i,193,1,12645.69999999553,823494.5,7093,WL,B,11.0
6,37.48799991607666,distr,22512.00008392334,Tue Mar 11 2025 14:07:10 GMT-0500 (Central Daylight Time),836306.8999999985,B,buildin,O,n,161,1,12812.39999999851,823494.5,7093,WL,B,11.0
6,37.7039999961853,distr,22296.000003814697,Tue Mar 11 2025 14:07:10 GMT-0500 (Central Daylight Time),836523.1999999955,B,building,O,g,211,1,13028.69999999553,823494.5,7093,WL,B,11.0
6,37.954999923706055,distr,22045.000076293945,Tue Mar 11 2025 14:07:10 GMT-0500 (Central Daylight Time),836773.299999997,B,buildingenter,O,enter,243,1,13278.79999999702,823494.5,7093,WL,B,11.0
6,57.81399989128113,distr,2186.000108718872,Tue Mar 11 2025 14:07:10 GMT-0500 (Central Daylight Time),856633.799999997,B,d,O,d,19848,1,19860.10000000149,836773.6999999955,7093,WL,B,12.0
6,58.04699993133545,distr,1953.0000686645508,Tue Mar 11 2025 14:07:10 GMT-0500 (Central Daylight Time),856866.799999997,B,dr,O,r,227,1,20093.10000000149,836773.6999999955,7093,WL,B,12.0
6,58.980000019073486,distr,1019.9999809265137,Tue Mar 11 2025 14:07:10 GMT-0500 (Central Daylight Time),857800.1000000015,B,dre,O,e,915,1,21026.40000000596,836773.6999999955,7093,WL,B,12.0
6,59.246999979019165,distr,753.000020980835,Tue Mar 11 2025 14:07:10 GMT-0500 (Central Daylight Time),858066.799999997,B,dres,O,s,247,1,21293.10000000149,836773.6999999955,7093,WL,B,12.0
6,59.412999868392944,distr,587.0001316070557,Tue Mar 11 2025 14:07:10 GMT-0500 (Central Daylight Time),858233.299999997,B,dress,O,s,146,1,21459.60000000149,836773.6999999955,7093,WL,B,12.0
6,59.562999963760376,distr,437.000036239624,Tue Mar 11 2025 14:07:10 GMT-0500 (Central Daylight Time),858383.299999997,B,dressenter,O,enter,132,1,21609.60000000149,836773.6999999955,7093,WL,B,12.0
6,60.01300001144409,distr,-13.000011444091797,Tue Mar 11 2025 14:07:10 GMT-0500 (Central Daylight Time),858832.8999999985,B,None,O,None,445,1,449.29999999701977,858383.6000000015,7093,WL,B,13.0
7,9.996999979019165,immed,50003.000020980835,Tue Mar 11 2025 14:07:10 GMT-0500 (Central Daylight Time),872945.299999997,A,g,O,g,9979,1,9996.79999999702,862948.5,7093,WL,B,1.0
7,10.146999835968018,immed,49853.00016403198,Tue Mar 11 2025 14:07:10 GMT-0500 (Central Daylight Time),873095.299999997,A,gr,O,r,139,1,10146.79999999702,862948.5,7093,WL,B,1.0
7,10.46399998664856,immed,49536.00001335144,Tue Mar 11 2025 14:07:10 GMT-0500 (Central Daylight Time),873411.6999999955,A,gra,O,a,302,1,10463.19999999553,862948.5,7093,WL,B,1.0
7,10.77999997138977,immed,49220.00002861023,Tue Mar 11 2025 14:07:10 GMT-0500 (Central Daylight Time),873728.299999997,A,gras,O,s,306,1,10779.79999999702,862948.5,7093,WL,B,1.0
7,10.929999828338623,immed,49070.00017166138,Tue Mar 11 2025 14:07:10 GMT-0500 (Central Daylight Time),873878.299999997,A,grass,O,s,133,1,10929.79999999702,862948.5,7093,WL,B,1.0
7,12.346999883651733,immed,47653.00011634827,Tue Mar 11 2025 14:07:10 GMT-0500 (Central Daylight Time),875294.6000000015,A,grassl,O,l,1399,1,12346.10000000149,862948.5,7093,WL,B,1.0
7,12.52999997138977,immed,47470.00002861023,Tue Mar 11 2025 14:07:10 GMT-0500 (Central Daylight Time),875477.6000000015,A,grassla,O,a,166,1,12529.10000000149,862948.5,7093,WL,B,1.0
7,12.646999835968018,immed,47353.00016403198,Tue Mar 11 2025 14:07:10 GMT-0500 (Central Daylight Time),875594.6999999955,A,grasslak,O,k,96,1,12646.19999999553,862948.5,7093,WL,B,1.0
7,12.86299991607666,immed,47137.00008392334,Tue Mar 11 2025 14:07:10 GMT-0500 (Central Daylight Time),875810.8999999985,A,grasslake,O,e,211,1,12862.39999999851,862948.5,7093,WL,B,1.0
7,13.462999820709229,immed,46537.00017929077,Tue Mar 11 2025 14:07:10 GMT-0500 (Central Daylight Time),876410.799999997,A,grasslakeenter,O,enter,587,1,13462.29999999702,862948.5,7093,WL,B,1.0
7,13.645999908447266,immed,46354.000091552734,Tue Mar 11 2025 14:07:10 GMT-0500 (Central Daylight Time),876594.1999999955,A,c,O,c,163,1,183.09999999403954,876411.1000000015,7093,WL,B,2.0
7,13.86299991607666,immed,46137.00008392334,Tue Mar 11 2025 14:07:10 GMT-0500 (Central Daylight Time),876811.0,A,ca,O,a,203,1,399.8999999985099,876411.1000000015,7093,WL,B,2.0
7,14.095999956130981,immed,45904.00004386902,Tue Mar 11 2025 14:07:10 GMT-0500 (Central Daylight Time),877043.8999999985,A,cab,O,b,227,1,632.7999999970198,876411.1000000015,7093,WL,B,2.0
7,14.395999908447266,immed,45604.000091552734,Tue Mar 11 2025 14:07:10 GMT-0500 (Central Daylight Time),877343.8999999985,A,cabi,O,i,290,1,932.7999999970198,876411.1000000015,7093,WL,B,2.0
7,14.861999988555908,immed,45138.00001144409,Tue Mar 11 2025 14:07:10 GMT-0500 (Central Daylight Time),877810.5,A,cabin,O,n,447,1,1399.3999999985099,876411.1000000015,7093,WL,B,2.0
7,15.245999813079834,immed,44754.000186920166,Tue Mar 11 2025 14:07:10 GMT-0500 (Central Daylight Time),878193.6000000015,A,cabinenter,O,enter,371,1,1782.5,876411.1000000015,7093,WL,B,2.0
7,15.578999996185303,immed,44421.0000038147,Tue Mar 11 2025 14:07:10 GMT-0500 (Central Daylight Time),878526.8999999985,A,s,O,s,325,1,333.1000000014901,878193.799999997,7093,WL,B,3.0
7,15.745999813079834,immed,44254.000186920166,Tue Mar 11 2025 14:07:10 GMT-0500 (Central Daylight Time),878693.6999999955,A,st,O,t,159,1,499.8999999985099,878193.799999997,7093,WL,B,3.0
7,15.911999940872192,immed,44088.00005912781,Tue Mar 11 2025 14:07:10 GMT-0500 (Central Daylight Time),878860.1000000015,A,sta,O,a,159,1,666.3000000044703,878193.799999997,7093,WL,B,3.0
7,16.128999948501587,immed,43871.00005149841,Tue Mar 11 2025 14:07:10 GMT-0500 (Central Daylight Time),879076.6000000015,A,star,O,r,210,1,882.8000000044703,878193.799999997,7093,WL,B,3.0
7,17.744999885559082,immed,42255.00011444092,Tue Mar 11 2025 14:07:10 GMT-0500 (Central Daylight Time),880692.799999997,A,starenter,O,enter,1609,1,2499.0,878193.799999997,7093,WL,B,3.0
7,18.477999925613403,immed,41522.0000743866,Tue Mar 11 2025 14:07:10 GMT-0500 (Central Daylight Time),881426.0,A,g,O,g,721,1,733.0,880693.0,7093,WL,B,4.0
7,18.76099991798401,immed,41239.00008201599,Tue Mar 11 2025 14:07:10 GMT-0500 (Central Daylight Time),881709.299999997,A,gr,O,r,267,1,1016.2999999970198,880693.0,7093,WL,B,4.0
7,19.09500002861023,immed,40904.99997138977,Tue Mar 11 2025 14:07:10 GMT-0500 (Central Daylight Time),882042.6000000015,A,gra,O,a,328,1,1349.6000000014901,880693.0,7093,WL,B,4.0
7,19.360999822616577,immed,40639.00017738342,Tue Mar 11 2025 14:07:10 GMT-0500 (Central Daylight Time),882309.0,A,gras,O,s,259,1,1616.0,880693.0,7093,WL,B,4.0
7,19.527999877929688,immed,40472.00012207031,Tue Mar 11 2025 14:07:10 GMT-0500 (Central Daylight Time),882475.6000000015,A,grass,O,s,152,1,1782.6000000014901,880693.0,7093,WL,B,4.0
7,19.694000005722046,immed,40305.999994277954,Tue Mar 11 2025 14:07:10 GMT-0500 (Central Daylight Time),882642.3999999985,A,grassenter,O,enter,145,1,1949.3999999985099,880693.0,7093,WL,B,4.0
7,19.860999822616577,immed,40139.00017738342,Tue Mar 11 2025 14:07:10 GMT-0500 (Central Daylight Time),882808.8999999985,A,w,O,w,147,1,166.10000000149012,882642.799999997,7093,WL,B,5.0
7,20.110999822616577,immed,39889.00017738342,Tue Mar 11 2025 14:07:10 GMT-0500 (Central Daylight Time),883058.799999997,A,wi,O,i,230,1,416.0,882642.799999997,7093,WL,B,5.0
7,20.310999870300293,immed,39689.00012969971,Tue Mar 11 2025 14:07:10 GMT-0500 (Central Daylight Time),883258.6999999955,A,win,O,n,179,1,615.8999999985099,882642.799999997,7093,WL,B,5.0
7,20.560999870300293,immed,39439.00012969971,Tue Mar 11 2025 14:07:10 GMT-0500 (Central Daylight Time),883508.6000000015,A,wind,O,d,236,1,865.8000000044703,882642.799999997,7093,WL,B,5.0
7,20.793999910354614,immed,39206.000089645386,Tue Mar 11 2025 14:07:10 GMT-0500 (Central Daylight Time),883741.799999997,A,windo,O,o,217,1,1099.0,882642.799999997,7093,WL,B,5.0
7,21.40999984741211,immed,38590.00015258789,Tue Mar 11 2025 14:07:10 GMT-0500 (Central Daylight Time),884358.5,A,window,O,w,600,1,1715.7000000029802,882642.799999997,7093,WL,B,5.0
7,21.626999855041504,immed,38373.000144958496,Tue Mar 11 2025 14:07:10 GMT-0500 (Central Daylight Time),884574.8999999985,A,windowenter,O,enter,208,1,1932.1000000014901,882642.799999997,7093,WL,B,5.0
7,22.05999994277954,immed,37940.00005722046,Tue Mar 11 2025 14:07:10 GMT-0500 (Central Daylight Time),885008.299999997,A,d,O,d,423,1,433.1000000014901,884575.1999999955,7093,WL,B,6.0
7,22.30999994277954,immed,37690.00005722046,Tue Mar 11 2025 14:07:10 GMT-0500 (Central Daylight Time),885258.0,A,do,O,o,237,1,682.8000000044703,884575.1999999955,7093,WL,B,6.0
7,22.493000030517578,immed,37506.99996948242,Tue Mar 11 2025 14:07:10 GMT-0500 (Central Daylight Time),885441.3999999985,A,doo,O,o,171,1,866.2000000029802,884575.1999999955,7093,WL,B,6.0
7,23.15999984741211,immed,36840.00015258789,Tue Mar 11 2025 14:07:10 GMT-0500 (Central Daylight Time),886107.799999997,A,door,O,r,660,1,1532.6000000014901,884575.1999999955,7093,WL,B,6.0
7,24.042999982833862,immed,35957.00001716614,Tue Mar 11 2025 14:07:10 GMT-0500 (Central Daylight Time),886990.799999997,A,doorenter,O,enter,866,1,2415.60000000149,884575.1999999955,7093,WL,B,6.0
7,25.075999975204468,immed,34924.00002479553,Tue Mar 11 2025 14:07:10 GMT-0500 (Central Daylight Time),888023.8999999985,A,c,O,c,1015,1,1032.7999999970198,886991.1000000015,7093,WL,B,7.0
7,25.20899987220764,immed,34791.00012779236,Tue Mar 11 2025 14:07:10 GMT-0500 (Central Daylight Time),888157.1999999955,A,cl,O,l,118,1,1166.0999999940395,886991.1000000015,7093,WL,B,7.0
7,25.39299988746643,immed,34607.00011253357,Tue Mar 11 2025 14:07:10 GMT-0500 (Central Daylight Time),888340.6000000015,A,clo,O,o,176,1,1349.5,886991.1000000015,7093,WL,B,7.0
7,25.70899987220764,immed,34291.00012779236,Tue Mar 11 2025 14:07:10 GMT-0500 (Central Daylight Time),888657.1000000015,A,cloc,O,c,305,1,1666.0,886991.1000000015,7093,WL,B,7.0
7,25.925999879837036,immed,34074.000120162964,Tue Mar 11 2025 14:07:10 GMT-0500 (Central Daylight Time),888873.6999999955,A,clock,O,k,196,1,1882.5999999940395,886991.1000000015,7093,WL,B,7.0
7,26.95899987220764,immed,33041.00012779236,Tue Mar 11 2025 14:07:10 GMT-0500 (Central Daylight Time),889906.799999997,A,clockenter,O,enter,1021,1,2915.6999999955297,886991.1000000015,7093,WL,B,7.0
7,32.00699996948242,immed,27993.000030517578,Tue Mar 11 2025 14:07:10 GMT-0500 (Central Daylight Time),894955.0,A,a,O,a,5028,1,5047.80000000447,889907.1999999955,7093,WL,B,8.0
7,32.28999996185303,immed,27710.000038146973,Tue Mar 11 2025 14:07:10 GMT-0500 (Central Daylight Time),895238.299999997,A,ar,O,r,266,1,5331.10000000149,889907.1999999955,7093,WL,B,8.0
7,32.823999881744385,immed,27176.000118255615,Tue Mar 11 2025 14:07:10 GMT-0500 (Central Daylight Time),895771.6999999955,A,arm,O,m,519,1,5864.5,889907.1999999955,7093,WL,B,8.0
7,33.28999996185303,immed,26710.000038146973,Tue Mar 11 2025 14:07:10 GMT-0500 (Central Daylight Time),896238.0,A,armenter,O,enter,451,1,6330.80000000447,889907.1999999955,7093,WL,B,8.0
7,33.62299990653992,immed,26377.000093460083,Tue Mar 11 2025 14:07:10 GMT-0500 (Central Daylight Time),896571.3999999985,A,s,O,s,319,1,333.1000000014901,896238.299999997,7093,WL,B,9.0
7,34.03999996185303,immed,25960.000038146973,Tue Mar 11 2025 14:07:10 GMT-0500 (Central Daylight Time),896987.799999997,A,sk,O,k,402,1,749.5,896238.299999997,7093,WL,B,9.0
7,34.223999977111816,immed,25776.000022888184,Tue Mar 11 2025 14:07:10 GMT-0500 (Central Daylight Time),897172.1000000015,A,ski,O,i,170,1,933.8000000044703,896238.299999997,7093,WL,B,9.0
7,34.52300000190735,immed,25476.99999809265,Tue Mar 11 2025 14:07:10 GMT-0500 (Central Daylight Time),897470.8999999985,A,skin,O,n,282,1,1232.6000000014901,896238.299999997,7093,WL,B,9.0
7,35.605000019073486,immed,24394.999980926514,Tue Mar 11 2025 14:07:10 GMT-0500 (Central Daylight Time),898553.8999999985,A,skinenter,O,enter,1063,1,2315.60000000149,896238.299999997,7093,WL,B,9.0
7,40.73699998855591,immed,19263.00001144409,Tue Mar 11 2025 14:07:10 GMT-0500 (Central Daylight Time),903685.799999997,A,f,O,f,5124,1,5131.5,898554.299999997,7093,WL,B,10.0
7,40.90299987792969,immed,19097.000122070312,Tue Mar 11 2025 14:07:10 GMT-0500 (Central Daylight Time),903852.3999999985,A,fi,O,i,151,1,5298.10000000149,898554.299999997,7093,WL,B,10.0
7,41.22000002861023,immed,18779.99997138977,Tue Mar 11 2025 14:07:10 GMT-0500 (Central Daylight Time),904169.1000000015,A,fir,O,r,305,1,5614.80000000447,898554.299999997,7093,WL,B,10.0
7,41.47000002861023,immed,18529.99997138977,Tue Mar 11 2025 14:07:10 GMT-0500 (Central Daylight Time),904418.799999997,A,fire,O,e,244,1,5864.5,898554.299999997,7093,WL,B,10.0
7,41.76899981498718,immed,18231.000185012817,Tue Mar 11 2025 14:07:10 GMT-0500 (Central Daylight Time),904718.6000000015,A,fireenter,O,enter,283,1,6164.30000000447,898554.299999997,7093,WL,B,10.0
7,42.03600001335144,immed,17963.99998664856,Tue Mar 11 2025 14:07:10 GMT-0500 (Central Daylight Time),904985.1000000015,A,p,O,p,247,1,266.1000000014901,904719.0,7093,WL,B,11.0
7,42.26899981498718,immed,17731.000185012817,Tue Mar 11 2025 14:07:10 GMT-0500 (Central Daylight Time),905218.3999999985,A,pi,O,i,221,1,499.3999999985099,904719.0,7093,WL,B,11.0
7,42.51899981498718,immed,17481.000185012817,Tue Mar 11 2025 14:07:10 GMT-0500 (Central Daylight Time),905468.3999999985,A,pip,O,p,234,1,749.3999999985099,904719.0,7093,WL,B,11.0
7,43.28600001335144,immed,16713.99998664856,Tue Mar 11 2025 14:07:10 GMT-0500 (Central Daylight Time),906235.0,A,pipe,O,e,753,1,1516.0,904719.0,7093,WL,B,11.0
7,43.43499994277954,immed,16565.00005722046,Tue Mar 11 2025 14:07:10 GMT-0500 (Central Daylight Time),906384.6999999955,A,pipeenter,O,enter,138,1,1665.6999999955297,904719.0,7093,WL,B,11.0
7,51.39999985694885,immed,8600.000143051147,Tue Mar 11 2025 14:07:10 GMT-0500 (Central Daylight Time),914349.0,A,w,O,w,7949,1,7963.89999999851,906385.1000000015,7093,WL,B,12.0
7,51.58299994468689,immed,8417.00005531311,Tue Mar 11 2025 14:07:10 GMT-0500 (Central Daylight Time),914532.299999997,A,wi,O,i,169,1,8147.19999999553,906385.1000000015,7093,WL,B,12.0
