acc_sum,block,block_c,condition,correct,correct_response,datetime,endtime,flanker,jitter,project,response,response_test_buffer_response,response_test_target_response,response_time,response_time_test_buffer_response,response_time_test_target_response,row_sel,session_number,start_end,starttime,subject_id,target,task,task_vers,time_test_buffer,time_test_buffer_response,time_test_constants,time_test_flanker,time_test_jitter,time_test_logger,time_test_target,time_test_target_response,time_test_variables,trial
1,prac,1,con,1,m,Wed Apr 09 2025 11:10:42 GMT-0500 (Central Daylight Time),163863.2999999998,bronze,800,I,m,,,409,,,9,1,2511.699999999255,161351.60000000056,8023,bronze,NF,C,,,,,,,,,,1
2,prac,1,con,1,m,Wed Apr 09 2025 11:10:42 GMT-0500 (Central Daylight Time),166296.10000000056,zinc,1000,I,m,,,132,,,15,1,2427.300000000745,163868.7999999998,8023,zinc,NF,C,,,,,,,,,,2
2,prac,1,inc,0,z,Wed Apr 09 2025 11:10:42 GMT-0500 (Central Daylight Time),168661.7000000002,copper,900,I,m,,,152,,,2,1,2361.2000000001863,166300.5,8023,cherry,NF,C,,,,,,,,,,3
3,prac,1,con,1,m,Wed Apr 09 2025 11:10:42 GMT-0500 (Central Daylight Time),171194.5,silver,1000,I,m,,,223,,,11,1,2528.399999999441,168666.10000000056,8023,silver,NF,C,,,,,,,,,,4
4,prac,1,con,1,z,Wed Apr 09 2025 11:10:42 GMT-0500 (Central Daylight Time),173593.60000000056,orange,1000,I,z,,,90,,,3,1,2394.4000000003725,171199.2000000002,8023,orange,NF,C,,,,,,,,,,5
5,prac,1,con,1,z,Wed Apr 09 2025 11:10:42 GMT-0500 (Central Daylight Time),175992.7999999998,banana,800,I,z,,,289,,,1,1,2395.0,173597.7999999998,8023,banana,NF,C,,,,,,,,,,6
5,prac,1,inc,0,m,Wed Apr 09 2025 11:10:42 GMT-0500 (Central Daylight Time),178675.2000000002,raisin,1100,I,z,,,279,,,12,1,2677.9000000003725,175997.2999999998,8023,cobalt,NF,C,,,,,,,,,,7
6,prac,1,inc,1,m,Wed Apr 09 2025 11:10:42 GMT-0500 (Central Daylight Time),181892.10000000056,cherry,900,I,m,,,1005,,,10,1,3213.0,178679.10000000056,8023,copper,NF,C,,,,,,,,,,8
6,prac,1,inc,0,m,Wed Apr 09 2025 11:10:42 GMT-0500 (Central Daylight Time),184756.7999999998,plum,1100,I,z,,,462,,,16,1,2860.0999999996275,181896.7000000002,8023,lead,NF,C,,,,,,,,,,9
7,prac,1,con,1,m,Wed Apr 09 2025 11:10:42 GMT-0500 (Central Daylight Time),187539.2000000002,gold,800,I,m,,,670,,,13,1,2778.2000000001863,184761.0,8023,gold,NF,C,,,,,,,,,,10
8,prac,1,inc,1,m,Wed Apr 09 2025 11:10:42 GMT-0500 (Central Daylight Time),190354.7999999998,pear,900,I,m,,,612,,,14,1,2810.5,187544.2999999998,8023,iron,NF,C,,,,,,,,,,11
9,prac,1,con,1,z,Wed Apr 09 2025 11:10:42 GMT-0500 (Central Daylight Time),193104.10000000056,lime,800,I,z,,,642,,,5,1,2745.0,190359.10000000056,8023,lime,NF,C,,,,,,,,,,12
9,prac,1,inc,0,z,Wed Apr 09 2025 11:10:42 GMT-0500 (Central Daylight Time),195903.2999999998,lead,1100,I,m,,,384,,,8,1,2794.899999999441,193108.40000000037,8023,plum,NF,C,,,,,,,,,,13
10,prac,1,inc,1,z,Wed Apr 09 2025 11:10:42 GMT-0500 (Central Daylight Time),198752.0,iron,900,I,z,,,649,,,6,1,2844.5999999996275,195907.40000000037,8023,pear,NF,C,,,,,,,,,,14
11,prac,1,inc,1,z,Wed Apr 09 2025 11:10:42 GMT-0500 (Central Daylight Time),201884.7999999998,cobalt,1100,I,z,,,726,,,4,1,3128.5,198756.2999999998,8023,raisin,NF,C,,,,,,,,,,15
12,prac,1,con,1,z,Wed Apr 09 2025 11:10:42 GMT-0500 (Central Daylight Time),204783.7999999998,kiwi,1000,I,z,,,582,,,7,1,2894.7999999998137,201889.0,8023,kiwi,NF,C,,,,,,,,,,16
1,test,1,con,1,m,Wed Apr 09 2025 11:10:42 GMT-0500 (Central Daylight Time),230426.0,zinc,1100,I,m,m,None,608,409.0,199.0,116,1,2246.2000000001863,228179.7999999998,8023,zinc,NF,C,225966,225966,224137,225250,224137,226383,225767,225767,226383,1
2,test,1,con,1,m,Wed Apr 09 2025 11:10:42 GMT-0500 (Central Daylight Time),232441.60000000056,gold,800,I,m,m,None,674,473.0,201.0,97,1,2011.1000000005588,230430.5,8023,gold,NF,C,227917,227917,226387,227199,226388,228399,227716,227716,228399,2
3,test,1,inc,1,m,Wed Apr 09 2025 11:10:42 GMT-0500 (Central Daylight Time),234407.7000000002,cherry,900,I,m,m,None,526,326.0,200.0,70,1,1961.5999999996275,232446.10000000056,8023,bronze,NF,C,230032,230032,228403,229315,228404,230365,229832,229832,230365,3
4,test,1,inc,1,m,Wed Apr 09 2025 11:10:42 GMT-0500 (Central Daylight Time),236590.40000000037,cherry,900,I,m,m,None,736,536.0,200.0,86,1,2178.600000000559,234411.7999999998,8023,silver,NF,C,231998,231998,230369,231282,230369,232547,231798,231798,232547,4
5,test,1,con,1,m,Wed Apr 09 2025 11:10:42 GMT-0500 (Central Daylight Time),238606.5,lead,800,I,m,m,None,676,477.0,199.0,121,1,2012.0,236594.5,8023,lead,NF,C,234081,234081,232552,233364,232552,234564,233881,233881,234563,5
6,test,1,inc,1,z,Wed Apr 09 2025 11:10:42 GMT-0500 (Central Daylight Time),240689.10000000056,zinc,1000,I,z,z,None,541,342.0,199.0,47,1,2078.5,238610.60000000056,8023,pear,NF,C,236297,236297,234568,235580,234568,236646,236097,236097,236646,6
7,test,1,con,1,z,Wed Apr 09 2025 11:10:42 GMT-0500 (Central Daylight Time),242621.90000000037,plum,900,I,z,z,None,486,287.0,199.0,58,1,1928.7000000001863,240693.2000000002,8023,plum,NF,C,238279,238279,236650,237563,236651,238579,238080,238080,238579,7
8,test,1,inc,1,z,Wed Apr 09 2025 11:10:42 GMT-0500 (Central Daylight Time),244804.60000000056,cobalt,1100,I,z,z,None,546,347.0,199.0,32,1,2178.7000000001863,242625.90000000037,8023,raisin,NF,C,240412,240412,238583,239696,238583,240762,240212,240212,240762,8
9,test,1,con,1,m,Wed Apr 09 2025 11:10:42 GMT-0500 (Central Daylight Time),246753.7999999998,iron,800,I,m,m,None,607,408.0,199.0,105,1,1945.0999999996275,244808.7000000002,8023,iron,NF,C,242295,242295,240766,241578,240766,242711,242095,242095,242711,9
10,test,1,con,1,z,Wed Apr 09 2025 11:10:42 GMT-0500 (Central Daylight Time),248636.5,raisin,800,I,z,z,None,547,347.0,200.0,25,1,1878.7000000001863,246757.7999999998,8023,raisin,NF,C,244244,244244,242715,243528,242715,244594,244044,244044,244594,10
11,test,1,con,1,z,Wed Apr 09 2025 11:10:42 GMT-0500 (Central Daylight Time),250836.0,plum,1100,I,z,z,None,562,363.0,199.0,60,1,2195.2999999998137,248640.7000000002,8023,plum,NF,C,246427,246427,244598,245710,244598,246793,246227,246227,246793,11
12,test,1,inc,1,z,Wed Apr 09 2025 11:10:42 GMT-0500 (Central Daylight Time),253135.2999999998,lead,1100,I,z,z,None,661,461.0,200.0,64,1,2295.0,250840.2999999998,8023,plum,NF,C,248626,248626,246797,247910,246798,249092,248426,248426,249092,12
13,test,1,con,1,z,Wed Apr 09 2025 11:10:42 GMT-0500 (Central Daylight Time),255351.2000000002,banana,1100,I,z,z,None,570,370.0,200.0,4,1,2211.9000000003725,253139.2999999998,8023,banana,NF,C,250925,250925,249096,250209,249097,251308,250725,250725,251308,13
14,test,1,con,1,m,Wed Apr 09 2025 11:10:42 GMT-0500 (Central Daylight Time),257467.2000000002,zinc,800,I,m,m,None,772,573.0,199.0,113,1,2112.0,255355.2000000002,8023,zinc,NF,C,252841,252841,251312,252125,251313,253424,252642,252642,253424,14
15,test,1,con,1,m,Wed Apr 09 2025 11:10:42 GMT-0500 (Central Daylight Time),259783.2999999998,lead,1100,I,m,m,None,678,478.0,200.0,124,1,2311.899999999441,257471.40000000037,8023,lead,NF,C,255257,255257,253428,254541,253429,255740,255057,255057,255740,15
16,test,1,inc,1,z,Wed Apr 09 2025 11:10:42 GMT-0500 (Central Daylight Time),261982.10000000056,zinc,1000,I,z,z,None,653,453.0,200.0,39,1,2194.9000000003725,259787.2000000002,8023,lime,NF,C,257473,257473,255744,256757,255745,257939,257273,257273,257939,16
17,test,1,inc,1,m,Wed Apr 09 2025 11:10:42 GMT-0500 (Central Daylight Time),263915.2999999998,lime,800,I,m,m,None,589,390.0,199.0,101,1,1928.8999999994412,261986.40000000037,8023,gold,NF,C,259473,259473,257943,258756,257944,259872,259273,259273,259872,17
18,test,1,con,1,z,Wed Apr 09 2025 11:10:42 GMT-0500 (Central Daylight Time),265864.5,pear,800,I,z,z,None,600,401.0,199.0,41,1,1945.0999999996275,263919.4000000004,8023,pear,NF,C,261405,261405,259876,260689,259877,261822,261206,261206,261822,18
19,test,1,con,1,m,Wed Apr 09 2025 11:10:42 GMT-0500 (Central Daylight Time),268097.2999999998,copper,1000,I,m,m,None,699,499.0,200.0,75,1,2228.7999999998137,265868.5,8023,copper,NF,C,263555,263555,261826,262838,261826,264054,263355,263355,264054,19
20,test,1,inc,1,m,Wed Apr 09 2025 11:10:42 GMT-0500 (Central Daylight Time),270396.5,plum,1100,I,m,m,None,656,456.0,200.0,128,1,2295.2000000001863,268101.2999999998,8023,lead,NF,C,265887,265887,264058,265171,264059,266354,265687,265687,266354,20
21,test,1,inc,1,m,Wed Apr 09 2025 11:10:42 GMT-0500 (Central Daylight Time),272596.10000000056,pear,900,I,m,m,None,756,557.0,199.0,118,1,2195.5,270400.60000000056,8023,zinc,NF,C,267986,267986,266358,267270,266358,268553,267787,267787,268553,21
22,test,1,inc,1,m,Wed Apr 09 2025 11:10:42 GMT-0500 (Central Daylight Time),274745.0,cherry,900,I,m,m,None,708,509.0,199.0,94,1,2143.5999999996275,272601.4000000004,8023,cobalt,NF,C,270186,270186,268558,269470,268559,270702,269986,269986,270702,22
23,test,1,con,1,z,Wed Apr 09 2025 11:10:42 GMT-0500 (Central Daylight Time),276927.60000000056,cherry,1000,I,z,z,None,634,434.0,200.0,11,1,2177.9000000003725,274749.7000000002,8023,cherry,NF,C,272435,272436,270707,271719,270707,272885,272235,272235,272885,23
24,test,1,inc,1,z,Wed Apr 09 2025 11:10:42 GMT-0500 (Central Daylight Time),278810.5,gold,800,I,z,z,None,540,341.0,199.0,37,1,1878.7999999998137,276931.7000000002,8023,lime,NF,C,274418,274418,272889,273702,272889,274768,274218,274218,274767,24
25,test,1,inc,1,z,Wed Apr 09 2025 11:10:42 GMT-0500 (Central Daylight Time),280827.5,gold,800,I,z,z,None,680,481.0,199.0,45,1,2013.2999999998137,278814.2000000002,8023,pear,NF,C,276301,276301,274771,275584,274772,276785,276101,276101,276785,25
26,test,1,inc,1,m,Wed Apr 09 2025 11:10:42 GMT-0500 (Central Daylight Time),283026.0,raisin,1100,I,m,m,None,565,366.0,199.0,96,1,2194.2999999998137,280831.7000000002,8023,cobalt,NF,C,278617,278617,276789,277900,276789,278983,278417,278417,278983,26
27,test,1,con,1,z,Wed Apr 09 2025 11:10:42 GMT-0500 (Central Daylight Time),284959.7999999998,plum,800,I,z,z,None,594,394.0,200.0,57,1,1929.699999999255,283030.10000000056,8023,plum,NF,C,280516,280516,278987,279800,278987,280917,280316,280316,280917,27
28,test,1,inc,1,z,Wed Apr 09 2025 11:10:42 GMT-0500 (Central Daylight Time),287424.5,silver,1000,I,z,z,None,916,717.0,199.0,31,1,2460.2000000001863,284964.2999999998,8023,raisin,NF,C,282649,282649,280921,281933,280922,283382,282449,282449,283382,28
29,test,1,inc,1,z,Wed Apr 09 2025 11:10:42 GMT-0500 (Central Daylight Time),289807.0,cobalt,1100,I,z,z,None,742,543.0,199.0,24,1,2378.7999999998137,287428.2000000002,8023,orange,NF,C,285215,285215,283385,284498,283386,285764,285015,285015,285764,29
30,test,1,inc,1,z,Wed Apr 09 2025 11:10:42 GMT-0500 (Central Daylight Time),291789.60000000056,bronze,800,I,z,z,None,638,438.0,200.0,21,1,1978.6000000005588,289811.0,8023,orange,NF,C,287297,287297,285768,286581,285768,287747,287097,287097,287747,30
31,test,1,inc,1,z,Wed Apr 09 2025 11:10:42 GMT-0500 (Central Daylight Time),294005.60000000056,cobalt,1100,I,z,z,None,579,379.0,200.0,8,1,2212.2000000001863,291793.4000000004,8023,banana,NF,C,289580,289580,287750,288864,287751,289963,289380,289380,289963,31
32,test,1,con,1,z,Wed Apr 09 2025 11:10:42 GMT-0500 (Central Daylight Time),295939.4000000004,cherry,800,I,z,z,None,599,399.0,200.0,9,1,1930.0,294009.4000000004,8023,cherry,NF,C,291496,291496,289966,290779,289967,291896,291296,291296,291896,32
33,test,1,con,1,z,Wed Apr 09 2025 11:10:42 GMT-0500 (Central Daylight Time),297987.9000000004,banana,800,I,z,z,None,712,513.0,199.0,1,1,2044.2999999998137,295943.60000000056,8023,banana,NF,C,293429,293429,291901,292712,291901,293945,293229,293229,293945,33
34,test,1,inc,1,z,Wed Apr 09 2025 11:10:42 GMT-0500 (Central Daylight Time),300053.7000000002,iron,900,I,z,z,None,628,428.0,200.0,62,1,2062.0999999996275,297991.60000000056,8023,plum,NF,C,295578,295578,293949,294862,293949,296011,295378,295378,296011,34
35,test,1,con,1,m,Wed Apr 09 2025 11:10:42 GMT-0500 (Central Daylight Time),302220.0,silver,900,I,m,m,None,730,531.0,199.0,82,1,2162.399999999441,300057.60000000056,8023,silver,NF,C,297644,297644,296015,296928,296015,298177,297445,297445,298177,35
36,test,1,con,1,z,Wed Apr 09 2025 11:10:42 GMT-0500 (Central Daylight Time),304302.5,banana,900,I,z,z,None,636,436.0,200.0,2,1,2078.5,302224.0,8023,banana,NF,C,299810,299810,298181,299093,298181,300260,299610,299610,300259,36
37,test,1,inc,1,z,Wed Apr 09 2025 11:10:42 GMT-0500 (Central Daylight Time),306585.10000000056,zinc,1000,I,z,z,None,732,533.0,199.0,55,1,2278.7000000001863,304306.4000000004,8023,kiwi,NF,C,301993,301993,300263,301276,300264,302542,301793,301793,302542,37
38,test,1,con,1,z,Wed Apr 09 2025 11:10:42 GMT-0500 (Central Daylight Time),308584.5,kiwi,800,I,z,z,None,651,452.0,199.0,49,1,1995.2000000001863,306589.2999999998,8023,kiwi,NF,C,304075,304075,302546,303359,302547,304542,303876,303876,304542,38
39,test,1,inc,1,m,Wed Apr 09 2025 11:10:42 GMT-0500 (Central Daylight Time),310917.10000000056,raisin,1100,I,m,m,None,696,495.0,201.0,88,1,2328.600000000559,308588.5,8023,silver,NF,C,306375,306375,304546,305658,304546,306874,306174,306174,306874,39
40,test,1,con,1,m,Wed Apr 09 2025 11:10:42 GMT-0500 (Central Daylight Time),312899.7999999998,iron,900,I,m,m,None,547,348.0,199.0,106,1,1978.3999999994412,310921.4000000004,8023,iron,NF,C,308507,308507,306878,307791,306879,308857,308308,308308,308857,40
41,test,1,con,1,z,Wed Apr 09 2025 11:10:42 GMT-0500 (Central Daylight Time),315099.2000000002,orange,1000,I,z,z,None,656,456.0,200.0,19,1,2195.5,312903.7000000002,8023,orange,NF,C,310590,310590,308861,309874,308861,311056,310390,310390,311056,41
42,test,1,con,1,m,Wed Apr 09 2025 11:10:42 GMT-0500 (Central Daylight Time),317231.60000000056,iron,1000,I,m,m,None,585,385.0,200.0,107,1,2128.4000000003725,315103.2000000002,8023,iron,NF,C,312789,312789,311060,312073,311061,313189,312589,312589,313189,42
43,test,1,con,1,z,Wed Apr 09 2025 11:10:42 GMT-0500 (Central Daylight Time),319364.4000000004,lime,800,I,z,z,None,797,597.0,200.0,33,1,2128.7999999998137,317235.60000000056,8023,lime,NF,C,314722,314722,313193,314006,313193,315322,314522,314522,315321,43
44,test,1,con,1,m,Wed Apr 09 2025 11:10:42 GMT-0500 (Central Daylight Time),321497.0,lead,900,I,m,m,None,690,491.0,199.0,122,1,2128.7999999998137,319368.2000000002,8023,lead,NF,C,316955,316955,315325,316238,315326,317454,316755,316755,317454,44
45,test,1,inc,1,m,Wed Apr 09 2025 11:10:42 GMT-0500 (Central Daylight Time),323629.60000000056,banana,800,I,m,m,None,788,588.0,200.0,93,1,2128.600000000559,321501.0,8023,cobalt,NF,C,318987,318987,317458,318271,317458,319587,318787,318787,319587,45
46,test,1,con,1,m,Wed Apr 09 2025 11:10:42 GMT-0500 (Central Daylight Time),326012.4000000004,lead,1000,I,m,m,None,847,647.0,200.0,123,1,2379.0,323633.4000000004,8023,lead,NF,C,321320,321320,319590,320604,319591,321970,321120,321120,321969,46
47,test,1,con,1,z,Wed Apr 09 2025 11:10:42 GMT-0500 (Central Daylight Time),328011.7999999998,pear,1000,I,z,z,None,462,263.0,199.0,43,1,1995.0999999996275,326016.7000000002,8023,pear,NF,C,323703,323703,321974,322986,321974,323969,323503,323503,323969,47
48,test,1,inc,1,z,Wed Apr 09 2025 11:10:42 GMT-0500 (Central Daylight Time),330111.10000000056,iron,900,I,z,z,None,660,460.0,200.0,54,1,2095.5,328015.60000000056,8023,kiwi,NF,C,325602,325602,323973,324885,323973,326068,325402,325402,326068,48
49,test,1,inc,1,z,Wed Apr 09 2025 11:10:42 GMT-0500 (Central Daylight Time),332160.5,bronze,800,I,z,z,None,709,509.0,200.0,5,1,2045.7000000001863,330114.7999999998,8023,banana,NF,C,327601,327601,326072,326885,326072,328118,327401,327401,328118,49
50,test,1,inc,1,z,Wed Apr 09 2025 11:10:42 GMT-0500 (Central Daylight Time),334226.2000000002,copper,900,I,z,z,None,623,424.0,199.0,6,1,2061.7999999998137,332164.4000000004,8023,banana,NF,C,329750,329750,328121,329034,328122,330183,329551,329551,330183,50
51,test,1,con,1,m,Wed Apr 09 2025 11:10:42 GMT-0500 (Central Daylight Time),336392.4000000004,gold,900,I,m,m,None,724,525.0,199.0,98,1,2162.2999999998137,334230.10000000056,8023,gold,NF,C,331817,331817,330187,331100,330187,332350,331617,331617,332349,51
52,test,1,inc,1,z,Wed Apr 09 2025 11:10:42 GMT-0500 (Central Daylight Time),338341.7999999998,gold,800,I,z,z,None,604,404.0,200.0,53,1,1945.5,336396.2999999998,8023,kiwi,NF,C,333883,333883,332353,333166,332354,334299,333683,333683,334299,52
53,test,1,inc,1,z,Wed Apr 09 2025 11:10:42 GMT-0500 (Central Daylight Time),340592.10000000056,lead,1100,I,z,z,None,484,285.0,199.0,48,1,2246.4000000003725,338345.7000000002,8023,pear,NF,C,336249,336249,334303,335540,334303,336549,336048,336049,336549,53
54,test,1,con,1,m,Wed Apr 09 2025 11:10:42 GMT-0500 (Central Daylight Time),342957.0,bronze,1100,I,m,m,None,730,530.0,200.0,68,1,2361.0999999996275,340595.9000000004,8023,bronze,NF,C,338381,338381,336553,337665,336553,338914,338181,338181,338914,54
55,test,1,inc,1,m,Wed Apr 09 2025 11:10:42 GMT-0500 (Central Daylight Time),345289.9000000004,plum,1100,I,m,m,None,684,484.0,200.0,120,1,2328.9000000003725,342961.0,8023,zinc,NF,C,340747,340747,338918,340031,338918,341247,340547,340547,341247,55
56,test,1,inc,1,m,Wed Apr 09 2025 11:10:42 GMT-0500 (Central Daylight Time),347688.7000000002,plum,1100,I,m,m,None,749,550.0,199.0,104,1,2394.7000000001863,345294.0,8023,gold,NF,C,343080,343080,341251,342363,341251,343646,342880,342880,343646,56
57,test,1,inc,1,m,Wed Apr 09 2025 11:10:42 GMT-0500 (Central Daylight Time),349704.9000000004,lime,800,I,m,m,None,667,467.0,200.0,125,1,2012.4000000003725,347692.5,8023,lead,NF,C,345179,345179,343650,344463,343650,345662,344979,344979,345662,57
58,test,1,con,1,z,Wed Apr 09 2025 11:10:42 GMT-0500 (Central Daylight Time),351987.60000000056,cherry,1100,I,z,z,None,639,439.0,200.0,12,1,2278.800000000745,349708.7999999998,8023,cherry,NF,C,347495,347495,345666,346779,345666,347945,347295,347295,347945,58
59,test,1,inc,1,z,Wed Apr 09 2025 11:10:42 GMT-0500 (Central Daylight Time),354153.5,copper,900,I,z,z,None,724,525.0,199.0,14,1,2162.0999999996275,351991.4000000004,8023,cherry,NF,C,349578,349578,347948,348862,347949,350111,349378,349378,350111,59
60,test,1,inc,1,z,Wed Apr 09 2025 11:10:42 GMT-0500 (Central Daylight Time),356036.2000000002,bronze,800,I,z,z,None,539,339.0,200.0,29,1,1878.9000000003725,354157.2999999998,8023,raisin,NF,C,351644,351644,350114,350927,350115,351993,351444,351444,351993,60
61,test,1,con,1,m,Wed Apr 09 2025 11:10:42 GMT-0500 (Central Daylight Time),358119.0,zinc,1000,I,m,m,None,535,336.0,199.0,115,1,2078.7999999998137,356040.2000000002,8023,zinc,NF,C,353726,353727,351997,353010,351998,354076,353527,353527,354076,61
62,test,1,inc,1,z,Wed Apr 09 2025 11:10:42 GMT-0500 (Central Daylight Time),360101.5,bronze,800,I,z,z,None,637,437.0,200.0,13,1,1978.5,358123.0,8023,cherry,NF,C,355609,355609,354080,354893,354080,356059,355409,355409,356059,62
63,test,1,con,1,m,Wed Apr 09 2025 11:10:42 GMT-0500 (Central Daylight Time),362017.7000000002,copper,800,I,m,m,None,574,374.0,200.0,73,1,1912.2999999998137,360105.4000000004,8023,copper,NF,C,357592,357592,356062,356877,356063,357975,357392,357392,357975,63
64,test,1,inc,1,m,Wed Apr 09 2025 11:10:42 GMT-0500 (Central Daylight Time),364233.7999999998,orange,1000,I,m,m,None,600,400.0,200.0,95,1,2212.0999999996275,362021.7000000002,8023,cobalt,NF,C,359791,359791,357979,359086,357979,360191,359591,359591,360191,64
65,test,1,inc,1,z,Wed Apr 09 2025 11:10:42 GMT-0500 (Central Daylight Time),366299.7000000002,iron,900,I,z,z,None,630,431.0,199.0,38,1,2062.2000000001863,364237.5,8023,lime,NF,C,361824,361824,360195,361108,360195,362257,361624,361624,362257,65
66,test,1,inc,1,m,Wed Apr 09 2025 11:10:42 GMT-0500 (Central Daylight Time),368399.2999999998,kiwi,1000,I,m,m,None,552,352.0,200.0,103,1,2095.7999999998137,366303.5,8023,gold,NF,C,363990,363990,362261,363274,362261,364356,363790,363790,364356,66
67,test,1,inc,1,m,Wed Apr 09 2025 11:10:42 GMT-0500 (Central Daylight Time),370548.60000000056,kiwi,1000,I,m,m,None,605,405.0,200.0,127,1,2145.4000000003725,368403.2000000002,8023,lead,NF,C,366089,366089,364360,365373,364360,366506,365889,365889,366506,67
68,test,1,con,1,z,Wed Apr 09 2025 11:10:42 GMT-0500 (Central Daylight Time),372481.2000000002,orange,900,I,z,z,None,491,292.0,199.0,18,1,1928.5999999996275,370552.60000000056,8023,orange,NF,C,368138,368138,366510,367422,366510,368438,367939,367939,368438,68
69,test,1,con,1,z,Wed Apr 09 2025 11:10:42 GMT-0500 (Central Daylight Time),374663.7000000002,banana,1000,I,z,z,None,643,443.0,200.0,3,1,2178.5,372485.2000000002,8023,banana,NF,C,370171,370171,368442,369455,368442,370621,369971,369971,370621,69
70,test,1,inc,1,m,Wed Apr 09 2025 11:10:42 GMT-0500 (Central Daylight Time),376813.10000000056,orange,1000,I,m,m,None,604,405.0,199.0,87,1,2145.4000000003725,374667.7000000002,8023,silver,NF,C,372353,372353,370625,371638,370625,372770,372154,372154,372770,70
71,test,1,con,1,z,Wed Apr 09 2025 11:10:42 GMT-0500 (Central Daylight Time),378845.7000000002,orange,800,I,z,z,None,696,496.0,200.0,17,1,2028.7000000001863,376817.0,8023,orange,NF,C,374303,374303,372774,373587,372774,374803,374103,374103,374803,71
72,test,1,con,1,m,Wed Apr 09 2025 11:10:42 GMT-0500 (Central Daylight Time),380878.5,bronze,900,I,m,m,None,586,387.0,199.0,66,1,2029.0,378849.5,8023,bronze,NF,C,376436,376436,374807,375720,374807,376836,376236,376236,376836,72
73,test,1,con,1,m,Wed Apr 09 2025 11:10:42 GMT-0500 (Central Daylight Time),383177.7999999998,silver,1100,I,m,m,None,649,450.0,199.0,84,1,2295.0999999996275,380882.7000000002,8023,silver,NF,C,378669,378669,376840,377952,376840,379135,378469,378469,379135,73
74,test,1,con,1,m,Wed Apr 09 2025 11:10:42 GMT-0500 (Central Daylight Time),385677.0,iron,1100,I,m,m,None,854,654.0,200.0,108,1,2495.2999999998137,383181.7000000002,8023,iron,NF,C,380968,380968,379139,380251,379139,381634,380768,380768,381634,74
75,test,1,inc,1,m,Wed Apr 09 2025 11:10:42 GMT-0500 (Central Daylight Time),387976.4000000004,raisin,1100,I,m,m,None,660,460.0,200.0,72,1,2295.2999999998137,385681.10000000056,8023,bronze,NF,C,383467,383467,381638,382751,381638,383933,383267,383267,383933,75
76,test,1,inc,1,z,Wed Apr 09 2025 11:10:42 GMT-0500 (Central Daylight Time),390142.4000000004,lead,1100,I,z,z,None,519,320.0,199.0,56,1,2162.100000000559,387980.2999999998,8023,kiwi,NF,C,385766,385766,383937,385050,383938,386099,385567,385567,386099,76
77,test,1,con,1,z,Wed Apr 09 2025 11:10:42 GMT-0500 (Central Daylight Time),392274.9000000004,raisin,900,I,z,z,None,689,490.0,199.0,26,1,2128.100000000559,390146.7999999998,8023,raisin,NF,C,387733,387733,386104,387016,386104,388232,387532,387533,388232,77
78,test,1,inc,1,m,Wed Apr 09 2025 11:10:42 GMT-0500 (Central Daylight Time),394257.7999999998,pear,900,I,m,m,None,534,334.0,200.0,126,1,1979.0999999996275,392278.7000000002,8023,lead,NF,C,389865,389865,388236,389149,388236,390215,389665,389665,390215,78
79,test,1,inc,1,m,Wed Apr 09 2025 11:10:42 GMT-0500 (Central Daylight Time),396573.2999999998,raisin,1100,I,m,m,None,677,478.0,199.0,80,1,2311.699999999255,394261.60000000056,8023,copper,NF,C,392048,392048,390219,391331,390219,392530,391848,391848,392530,79
80,test,1,con,1,m,Wed Apr 09 2025 11:10:42 GMT-0500 (Central Daylight Time),398489.7000000002,bronze,800,I,m,m,None,574,375.0,199.0,65,1,1912.7000000001863,396577.0,8023,bronze,NF,C,394064,394064,392534,393347,392534,394447,393864,393864,394447,80
81,test,1,inc,1,z,Wed Apr 09 2025 11:10:42 GMT-0500 (Central Daylight Time),400838.9000000004,silver,1000,I,z,z,None,827,628.0,199.0,7,1,2345.5,398493.4000000004,8023,banana,NF,C,396163,396163,394450,395463,394451,396796,395964,395964,396796,81
82,test,1,con,1,z,Wed Apr 09 2025 11:10:42 GMT-0500 (Central Daylight Time),403338.10000000056,kiwi,1100,I,z,z,None,866,666.0,200.0,52,1,2495.300000000745,400842.7999999998,8023,kiwi,NF,C,398629,398629,396800,397913,396800,399295,398429,398429,399295,82
83,test,1,con,1,m,Wed Apr 09 2025 11:10:42 GMT-0500 (Central Daylight Time),405370.7000000002,silver,1000,I,m,m,None,490,291.0,199.0,83,1,2028.9000000003725,403341.7999999998,8023,silver,NF,C,401028,401028,399299,400312,399299,401328,400829,400829,401328,83
84,test,1,con,1,z,Wed Apr 09 2025 11:10:42 GMT-0500 (Central Daylight Time),407636.7000000002,pear,1100,I,z,z,None,622,422.0,200.0,44,1,2262.2000000001863,405374.5,8023,pear,NF,C,403161,403161,401332,402444,401332,403594,402961,402961,403594,84
85,test,1,con,1,m,Wed Apr 09 2025 11:10:42 GMT-0500 (Central Daylight Time),409769.60000000056,gold,1000,I,m,m,None,584,384.0,200.0,99,1,2129.100000000559,407640.5,8023,gold,NF,C,405327,405327,403598,404611,403598,405727,405127,405127,405727,85
86,test,1,inc,1,z,Wed Apr 09 2025 11:10:42 GMT-0500 (Central Daylight Time),411868.7000000002,silver,1000,I,z,z,None,554,354.0,200.0,23,1,2095.2000000001863,409773.5,8023,orange,NF,C,407461,407461,405731,406743,405731,407826,407260,407260,407826,86
87,test,1,inc,1,m,Wed Apr 09 2025 11:10:42 GMT-0500 (Central Daylight Time),413801.60000000056,pear,900,I,m,m,None,484,284.0,200.0,102,1,1929.1000000005588,411872.5,8023,gold,NF,C,409459,409459,407830,408743,407830,409759,409259,409259,409759,87
88,test,1,inc,1,m,Wed Apr 09 2025 11:10:42 GMT-0500 (Central Daylight Time),415967.4000000004,kiwi,1000,I,m,m,None,617,418.0,199.0,119,1,2161.9000000003725,413805.5,8023,zinc,NF,C,411492,411492,409763,410775,409763,411925,411292,411292,411924,88
89,test,1,con,1,z,Wed Apr 09 2025 11:10:42 GMT-0500 (Central Daylight Time),418267.9000000004,lime,1100,I,z,z,None,664,465.0,199.0,36,1,2296.600000000559,415971.2999999998,8023,lime,NF,C,413758,413758,411928,413042,411929,414225,413558,413558,414225,89
90,test,1,con,1,m,Wed Apr 09 2025 11:10:42 GMT-0500 (Central Daylight Time),420499.7000000002,bronze,1000,I,m,m,None,690,490.0,200.0,67,1,2227.9000000003725,418271.7999999998,8023,bronze,NF,C,415957,415957,414229,415240,414229,416457,415757,415757,416457,90
91,test,1,con,1,m,Wed Apr 09 2025 11:10:42 GMT-0500 (Central Daylight Time),422482.0,cobalt,900,I,m,m,None,547,348.0,199.0,90,1,1978.7000000001863,420503.2999999998,8023,cobalt,NF,C,418090,418090,416460,417373,416461,418439,417890,417890,418439,91
92,test,1,inc,1,m,Wed Apr 09 2025 11:10:42 GMT-0500 (Central Daylight Time),424731.60000000056,kiwi,1000,I,m,m,None,706,506.0,200.0,111,1,2245.7000000001863,422485.9000000004,8023,iron,NF,C,420172,420172,418443,419456,418443,420689,419972,419972,420689,92
93,test,1,inc,1,m,Wed Apr 09 2025 11:10:42 GMT-0500 (Central Daylight Time),426714.0,banana,800,I,m,m,None,647,448.0,199.0,77,1,1978.3999999994412,424735.60000000056,8023,copper,NF,C,422222,422222,420693,421505,420693,422671,422022,422022,422671,93
94,test,1,con,1,m,Wed Apr 09 2025 11:10:42 GMT-0500 (Central Daylight Time),429046.7999999998,gold,1100,I,m,m,None,687,486.0,201.0,100,1,2329.199999999255,426717.60000000056,8023,gold,NF,C,424505,424505,422675,423788,422675,425004,424304,424304,425004,94
95,test,1,inc,1,m,Wed Apr 09 2025 11:10:42 GMT-0500 (Central Daylight Time),431062.7000000002,pear,900,I,m,m,None,578,378.0,200.0,110,1,2012.2000000001863,429050.5,8023,iron,NF,C,426637,426637,425008,425921,425008,427020,426437,426437,427020,95
96,test,1,con,1,m,Wed Apr 09 2025 11:10:42 GMT-0500 (Central Daylight Time),432978.7999999998,cobalt,800,I,m,m,None,582,382.0,200.0,89,1,1911.8999999994412,431066.9000000004,8023,cobalt,NF,C,428553,428553,427024,427837,427024,428936,428353,428353,428936,96
97,test,1,inc,1,z,Wed Apr 09 2025 11:10:42 GMT-0500 (Central Daylight Time),435178.0,lead,1100,I,z,z,None,565,365.0,200.0,40,1,2195.5,432982.5,8023,lime,NF,C,430769,430769,428940,430052,428940,431135,430569,430569,431135,97
98,test,1,con,1,z,Wed Apr 09 2025 11:10:42 GMT-0500 (Central Daylight Time),437444.2000000002,raisin,1100,I,z,z,None,623,423.0,200.0,28,1,2262.5,435181.7000000002,8023,raisin,NF,C,432968,432968,431139,432252,431139,433401,432768,432768,433401,98
99,test,1,inc,1,m,Wed Apr 09 2025 11:10:42 GMT-0500 (Central Daylight Time),439360.2000000002,banana,800,I,m,m,None,576,377.0,199.0,85,1,1912.2999999998137,437447.9000000004,8023,silver,NF,C,434934,434934,433405,434218,433405,435317,434735,434735,435317,99
100,test,1,inc,1,z,Wed Apr 09 2025 11:10:42 GMT-0500 (Central Daylight Time),441476.2000000002,gold,800,I,z,z,None,786,571.0,215.0,61,1,2112.0,439364.2000000002,8023,plum,NF,C,436851,436851,435321,436134,435321,437433,436635,436635,437433,100
101,test,1,inc,1,m,Wed Apr 09 2025 11:10:42 GMT-0500 (Central Daylight Time),443692.2000000002,orange,1000,I,m,m,None,672,473.0,199.0,71,1,2212.2000000001863,441480.0,8023,bronze,NF,C,439166,439166,437437,438450,437437,439649,438966,438967,439649,101
102,test,1,con,1,z,Wed Apr 09 2025 11:10:42 GMT-0500 (Central Daylight Time),445758.2999999998,lime,1000,I,z,z,None,529,329.0,200.0,35,1,2062.0,443696.2999999998,8023,lime,NF,C,441382,441382,439653,440666,439654,441715,441182,441182,441715,102
103,test,1,con,1,z,Wed Apr 09 2025 11:10:42 GMT-0500 (Central Daylight Time),447974.2000000002,raisin,1000,I,z,z,None,678,479.0,199.0,27,1,2212.0999999996275,445762.10000000056,8023,raisin,NF,C,443448,443448,441719,442732,441719,443931,443249,443249,443931,103
104,test,1,inc,1,m,Wed Apr 09 2025 11:10:42 GMT-0500 (Central Daylight Time),449890.4000000004,lime,800,I,m,m,None,575,375.0,200.0,109,1,1912.2000000001863,447978.2000000002,8023,iron,NF,C,445464,445464,443935,444748,443936,445847,445264,445264,445847,104
105,test,1,inc,1,z,Wed Apr 09 2025 11:10:42 GMT-0500 (Central Daylight Time),451873.60000000056,silver,1000,I,z,z,None,450,250.0,200.0,15,1,1979.300000000745,449894.2999999998,8023,cherry,NF,C,447580,447580,445851,446864,445852,447831,447380,447380,447831,105
106,test,1,con,1,m,Wed Apr 09 2025 11:10:42 GMT-0500 (Central Daylight Time),453822.4000000004,copper,900,I,m,m,None,511,311.0,200.0,74,1,1945.2999999998137,451877.10000000056,8023,copper,NF,C,449463,449463,447834,448746,447834,449779,449263,449263,449779,106
107,test,1,con,1,m,Wed Apr 09 2025 11:10:42 GMT-0500 (Central Daylight Time),455921.9000000004,cobalt,1000,I,m,m,None,565,366.0,199.0,91,1,2095.5,453826.4000000004,8023,cobalt,NF,C,451513,451513,449783,450796,449784,451879,451313,451313,451879,107
108,test,1,inc,1,m,Wed Apr 09 2025 11:10:42 GMT-0500 (Central Daylight Time),458004.4000000004,cherry,900,I,m,m,None,643,439.0,204.0,78,1,2078.7000000001863,455925.7000000002,8023,copper,NF,C,453512,453512,451883,452795,451883,453962,453308,453308,453961,108
109,test,1,con,1,m,Wed Apr 09 2025 11:10:42 GMT-0500 (Central Daylight Time),459920.5,zinc,900,I,m,m,None,466,267.0,199.0,114,1,1912.2999999998137,458008.2000000002,8023,zinc,NF,C,455595,455595,453965,454878,453966,455878,455395,455395,455878,109
110,test,1,inc,1,m,Wed Apr 09 2025 11:10:42 GMT-0500 (Central Daylight Time),461786.5,banana,800,I,m,m,None,523,324.0,199.0,69,1,1862.0,459924.5,8023,bronze,NF,C,457411,457411,455882,456694,455882,457744,457211,457211,457744,110
111,test,1,con,1,m,Wed Apr 09 2025 11:10:42 GMT-0500 (Central Daylight Time),463685.9000000004,silver,800,I,m,m,None,553,354.0,199.0,81,1,1895.2999999998137,461790.60000000056,8023,silver,NF,C,459277,459277,457748,458560,457748,459643,459077,459077,459643,111
112,test,1,inc,1,m,Wed Apr 09 2025 11:10:42 GMT-0500 (Central Daylight Time),465802.0,orange,1000,I,m,m,None,567,367.0,200.0,79,1,2112.2999999998137,463689.7000000002,8023,copper,NF,C,461376,461376,459647,460660,459647,461759,461176,461176,461759,112
113,test,1,con,1,z,Wed Apr 09 2025 11:10:42 GMT-0500 (Central Daylight Time),467651.5,kiwi,900,I,z,z,None,406,206.0,200.0,50,1,1845.7000000001863,465805.7999999998,8023,kiwi,NF,C,463392,463392,461763,462676,461763,463609,463192,463192,463609,113
114,test,1,inc,1,z,Wed Apr 09 2025 11:10:42 GMT-0500 (Central Daylight Time),469634.2999999998,copper,900,I,z,z,None,540,341.0,199.0,30,1,1978.8999999994412,467655.4000000004,8023,raisin,NF,C,465241,465241,463612,464525,463613,465591,465042,465042,465591,114
115,test,1,inc,1,m,Wed Apr 09 2025 11:10:42 GMT-0500 (Central Daylight Time),472016.5,plum,1100,I,m,m,None,734,534.0,200.0,112,1,2378.5,469638.0,8023,iron,NF,C,467424,467424,465595,466708,465595,467974,467224,467224,467974,115
116,test,1,con,1,m,Wed Apr 09 2025 11:10:42 GMT-0500 (Central Daylight Time),474215.9000000004,copper,1100,I,m,m,None,552,352.0,200.0,76,1,2195.5,472020.4000000004,8023,copper,NF,C,469807,469807,467977,469090,467978,470173,469607,469607,470173,116
117,test,1,con,1,z,Wed Apr 09 2025 11:10:42 GMT-0500 (Central Daylight Time),476232.2000000002,pear,900,I,z,z,None,577,377.0,200.0,42,1,2012.4000000003725,474219.7999999998,8023,pear,NF,C,471806,471806,470177,471090,470177,472189,471606,471606,472189,117
118,test,1,con,1,z,Wed Apr 09 2025 11:10:42 GMT-0500 (Central Daylight Time),478148.2000000002,lime,900,I,z,z,None,473,273.0,200.0,34,1,1912.0,476236.2000000002,8023,lime,NF,C,473822,473822,472193,473106,472193,474105,473622,473622,474105,118
119,test,1,con,1,z,Wed Apr 09 2025 11:10:42 GMT-0500 (Central Daylight Time),480247.5,orange,1100,I,z,z,None,460,260.0,200.0,20,1,2095.2999999998137,478152.2000000002,8023,orange,NF,C,475938,475938,474109,475222,474109,476205,475738,475738,476204,119
120,test,1,con,1,z,Wed Apr 09 2025 11:10:42 GMT-0500 (Central Daylight Time),482396.60000000056,plum,1000,I,z,z,None,612,413.0,199.0,59,1,2145.4000000003725,480251.2000000002,8023,plum,NF,C,477937,477938,476208,477221,476208,478354,477738,477738,478354,120
121,test,1,inc,1,z,Wed Apr 09 2025 11:10:42 GMT-0500 (Central Daylight Time),484662.7000000002,cobalt,1100,I,z,z,None,628,428.0,200.0,16,1,2262.5,482400.2000000002,8023,cherry,NF,C,480187,480187,478357,479470,478358,480620,479987,479987,480620,121
122,test,1,inc,1,z,Wed Apr 09 2025 11:10:42 GMT-0500 (Central Daylight Time),486695.2999999998,copper,900,I,z,z,None,593,393.0,200.0,22,1,2028.699999999255,484666.60000000056,8023,orange,NF,C,482253,482253,480624,481536,480624,482652,482053,482053,482652,122
123,test,1,con,1,m,Wed Apr 09 2025 11:10:42 GMT-0500 (Central Daylight Time),488944.7000000002,cobalt,1100,I,m,m,None,607,408.0,199.0,92,1,2245.5,486699.2000000002,8023,cobalt,NF,C,484486,484486,482656,483769,482656,484902,484286,484286,484902,123
124,test,1,con,1,z,Wed Apr 09 2025 11:10:42 GMT-0500 (Central Daylight Time),490961.0,kiwi,1000,I,z,z,None,476,276.0,200.0,51,1,2012.3999999994412,488948.60000000056,8023,kiwi,NF,C,486635,486635,484906,485918,484906,486918,486435,486435,486918,124
125,test,1,inc,1,m,Wed Apr 09 2025 11:10:42 GMT-0500 (Central Daylight Time),492893.2000000002,lime,800,I,m,m,None,595,395.0,200.0,117,1,1928.5,490964.7000000002,8023,zinc,NF,C,488451,488451,486922,487735,486922,488850,488251,488251,488850,125
126,test,1,inc,1,z,Wed Apr 09 2025 11:10:42 GMT-0500 (Central Daylight Time),494909.60000000056,iron,900,I,z,z,None,577,378.0,199.0,46,1,2012.6000000005588,492897.0,8023,pear,NF,C,490484,490484,488854,489767,488854,490867,490284,490284,490867,126
127,test,1,inc,1,z,Wed Apr 09 2025 11:10:42 GMT-0500 (Central Daylight Time),497058.7999999998,zinc,1000,I,z,z,None,606,407.0,199.0,63,1,2145.2999999998137,494913.5,8023,plum,NF,C,492599,492599,490871,491883,490871,493016,492400,492400,493016,127
128,test,1,con,1,z,Wed Apr 09 2025 11:10:42 GMT-0500 (Central Daylight Time),498924.7999999998,cherry,900,I,z,z,None,421,221.0,200.0,10,1,1862.199999999255,497062.60000000056,8023,cherry,NF,C,494649,494649,493020,493933,493020,494882,494449,494449,494882,128
