acc_sum,block,block_c,change,condition,correct,correct_response,datetime,endtime,face,project,response,response_time,row_sel,session_number,start_end,starttime,subject_id,task,task_vers,trial
0,prac,1,,1-Back,,,Fri Apr 18 2025 11:23:35 GMT-0500 (Central Daylight Time),,097_m_f_n_a.png,O,space,9091,1,1,,,7126,NNB,B,0
1,prac,1,0.0,1-Back,1,m,Fri Apr 18 2025 11:23:35 GMT-0500 (Central Daylight Time),144641.70000000298,152_y_f_n_a.png,O,m,777,2,1,1624.300000011921,143017.39999999106,7126,NNB,B,1
1,prac,1,1.0,1-Back,0,z,Fri Apr 18 2025 11:23:35 GMT-0500 (Central Daylight Time),147441.09999999404,152_y_f_n_a.png,O,None,2007,3,1,2791.3999999910593,144649.70000000298,7126,NNB,B,2
1,prac,1,0.0,1-Back,0,m,Fri Apr 18 2025 11:23:35 GMT-0500 (Central Daylight Time),149822.59999999404,176_o_m_n_a.png,O,z,1486,4,1,2372.8999999910593,147449.70000000298,7126,NNB,B,3
2,prac,1,0.0,1-Back,1,m,Fri Apr 18 2025 11:23:35 GMT-0500 (Central Daylight Time),152540.29999999702,126_m_m_n_a.png,O,m,1926,5,1,2709.4000000059605,149830.89999999106,7126,NNB,B,4
3,prac,1,1.0,1-Back,1,z,Fri Apr 18 2025 11:23:35 GMT-0500 (Central Daylight Time),154338.5,126_m_m_n_a.png,O,z,980,6,1,1790.2000000029802,152548.29999999702,7126,NNB,B,5
4,prac,1,0.0,1-Back,1,m,Fri Apr 18 2025 11:23:35 GMT-0500 (Central Daylight Time),156372.79999999702,086_o_f_n_a.png,O,m,1209,7,1,2026.2000000029802,154346.59999999404,7126,NNB,B,6
4,prac,1,0.0,1-Back,0,m,Fri Apr 18 2025 11:23:35 GMT-0500 (Central Daylight Time),158071.20000000298,178_m_m_n_a.png,O,z,799,8,1,1689.4000000059605,156381.79999999702,7126,NNB,B,7
5,prac,1,0.0,1-Back,1,m,Fri Apr 18 2025 11:23:35 GMT-0500 (Central Daylight Time),159903.70000000298,097_m_f_n_a.png,O,m,1059,9,1,1825.0,158078.70000000298,7126,NNB,B,8
6,prac,1,1.0,1-Back,1,z,Fri Apr 18 2025 11:23:35 GMT-0500 (Central Daylight Time),161552.59999999404,097_m_f_n_a.png,O,z,865,10,1,1639.8999999910593,159912.70000000298,7126,NNB,B,9
7,prac,1,0.0,1-Back,1,m,Fri Apr 18 2025 11:23:35 GMT-0500 (Central Daylight Time),163684.39999999106,176_o_m_n_a.png,O,m,1327,11,1,2123.199999988079,161561.20000000298,7126,NNB,B,10
8,prac,1,0.0,1-Back,1,m,Fri Apr 18 2025 11:23:35 GMT-0500 (Central Daylight Time),165598.59999999404,173_y_f_n_a.png,O,m,1017,12,1,1902.2999999970198,163696.29999999702,7126,NNB,B,11
0,test,1,0.0,1-Back,,,Fri Apr 18 2025 11:23:35 GMT-0500 (Central Daylight Time),165598.59999999404,152_y_f_n_a.png,O,space,11678,1,1,1902.2999999970198,163696.29999999702,7126,NNB,B,0
1,test,1,0.0,1-Back,1,m,Fri Apr 18 2025 11:23:35 GMT-0500 (Central Daylight Time),188795.5,029_m_f_n_a.png,O,m,984,2,1,2010.2999999970198,186785.20000000298,7126,NNB,B,1
2,test,1,0.0,1-Back,1,m,Fri Apr 18 2025 11:23:35 GMT-0500 (Central Daylight Time),190811.0,173_y_f_n_a.png,O,m,959,3,1,2006.9000000059605,188804.09999999404,7126,NNB,B,2
3,test,1,1.0,1-Back,1,z,Fri Apr 18 2025 11:23:35 GMT-0500 (Central Daylight Time),192626.20000000298,173_y_f_n_a.png,O,z,757,4,1,1807.800000011921,190818.39999999106,7126,NNB,B,3
4,test,1,0.0,1-Back,1,m,Fri Apr 18 2025 11:23:35 GMT-0500 (Central Daylight Time),194425.79999999702,029_m_f_n_a.png,O,m,752,5,1,1791.2000000029802,192634.59999999404,7126,NNB,B,4
5,test,1,0.0,1-Back,1,m,Fri Apr 18 2025 11:23:35 GMT-0500 (Central Daylight Time),196307.20000000298,176_o_m_n_a.png,O,m,832,6,1,1874.1000000089407,194433.09999999404,7126,NNB,B,5
6,test,1,1.0,1-Back,1,z,Fri Apr 18 2025 11:23:35 GMT-0500 (Central Daylight Time),198258.5,176_o_m_n_a.png,O,z,902,7,1,1943.4000000059605,196315.09999999404,7126,NNB,B,6
7,test,1,0.0,1-Back,1,m,Fri Apr 18 2025 11:23:35 GMT-0500 (Central Daylight Time),200190.09999999404,126_m_m_n_a.png,O,m,911,8,1,1924.2000000029802,198265.89999999106,7126,NNB,B,7
8,test,1,0.0,1-Back,1,m,Fri Apr 18 2025 11:23:35 GMT-0500 (Central Daylight Time),202073.0,086_o_f_n_a.png,O,m,818,9,1,1876.2000000029802,200196.79999999702,7126,NNB,B,8
8,test,1,0.0,1-Back,0,m,Fri Apr 18 2025 11:23:35 GMT-0500 (Central Daylight Time),203905.0,126_m_m_n_a.png,O,z,791,10,1,1825.5,202079.5,7126,NNB,B,9
9,test,1,0.0,1-Back,1,m,Fri Apr 18 2025 11:23:35 GMT-0500 (Central Daylight Time),206022.59999999404,153_y_m_n_a.png,O,m,1065,11,1,2109.8999999910593,203912.70000000298,7126,NNB,B,10
10,test,1,1.0,1-Back,1,z,Fri Apr 18 2025 11:23:35 GMT-0500 (Central Daylight Time),208487.89999999106,153_y_m_n_a.png,O,z,1425,12,1,2458.3999999910593,206029.5,7126,NNB,B,11
11,test,1,0.0,1-Back,1,m,Fri Apr 18 2025 11:23:35 GMT-0500 (Central Daylight Time),210420.39999999106,110_o_f_n_a.png,O,m,889,13,1,1926.0999999940395,208494.29999999702,7126,NNB,B,12
12,test,1,1.0,1-Back,1,z,Fri Apr 18 2025 11:23:35 GMT-0500 (Central Daylight Time),212354.70000000298,110_o_f_n_a.png,O,z,899,14,1,1927.7000000029802,210427.0,7126,NNB,B,13
13,test,1,0.0,1-Back,1,m,Fri Apr 18 2025 11:23:35 GMT-0500 (Central Daylight Time),214188.29999999702,013_y_m_n_a.png,O,m,817,15,1,1825.5999999940395,212362.70000000298,7126,NNB,B,14
14,test,1,0.0,1-Back,1,m,Fri Apr 18 2025 11:23:35 GMT-0500 (Central Daylight Time),216085.20000000298,097_m_f_n_a.png,O,m,870,16,1,1889.9000000059605,214195.29999999702,7126,NNB,B,15
15,test,1,0.0,1-Back,1,m,Fri Apr 18 2025 11:23:35 GMT-0500 (Central Daylight Time),217935.29999999702,065_o_m_n_a.png,O,m,802,17,1,1843.7000000029802,216091.59999999404,7126,NNB,B,16
16,test,1,0.0,1-Back,1,m,Fri Apr 18 2025 11:23:35 GMT-0500 (Central Daylight Time),219984.09999999404,097_m_f_n_a.png,O,m,991,18,1,2042.5,217941.59999999404,7126,NNB,B,17
0,test,2,0.0,1-Back,,,Fri Apr 18 2025 11:23:35 GMT-0500 (Central Daylight Time),219984.09999999404,126_m_m_n_a.png,O,space,2729,1,1,2042.5,217941.59999999404,7126,NNB,B,0
1,test,2,0.0,1-Back,1,m,Fri Apr 18 2025 11:23:35 GMT-0500 (Central Daylight Time),226381.59999999404,029_m_f_n_a.png,O,m,568,2,1,1609.2000000029802,224772.39999999106,7126,NNB,B,1
2,test,2,1.0,1-Back,1,z,Fri Apr 18 2025 11:23:35 GMT-0500 (Central Daylight Time),228198.70000000298,029_m_f_n_a.png,O,z,763,3,1,1810.5,226388.20000000298,7126,NNB,B,2
3,test,2,0.0,1-Back,1,m,Fri Apr 18 2025 11:23:35 GMT-0500 (Central Daylight Time),229846.39999999106,126_m_m_n_a.png,O,m,602,4,1,1641.2999999970198,228205.09999999404,7126,NNB,B,3
4,test,2,0.0,1-Back,1,m,Fri Apr 18 2025 11:23:35 GMT-0500 (Central Daylight Time),231514.0,153_y_m_n_a.png,O,m,624,5,1,1659.7000000029802,229854.29999999702,7126,NNB,B,4
5,test,2,0.0,1-Back,1,m,Fri Apr 18 2025 11:23:35 GMT-0500 (Central Daylight Time),233380.5,152_y_f_n_a.png,O,m,822,6,1,1858.0,231522.5,7126,NNB,B,5
6,test,2,1.0,1-Back,1,z,Fri Apr 18 2025 11:23:35 GMT-0500 (Central Daylight Time),235296.09999999404,152_y_f_n_a.png,O,z,853,7,1,1908.2000000029802,233387.89999999106,7126,NNB,B,6
7,test,2,0.0,1-Back,1,m,Fri Apr 18 2025 11:23:35 GMT-0500 (Central Daylight Time),236978.89999999106,153_y_m_n_a.png,O,m,634,8,1,1675.0999999940395,235303.79999999702,7126,NNB,B,7
8,test,2,0.0,1-Back,1,m,Fri Apr 18 2025 11:23:35 GMT-0500 (Central Daylight Time),238694.29999999702,110_o_f_n_a.png,O,m,653,9,1,1707.7999999970198,236986.5,7126,NNB,B,8
9,test,2,0.0,1-Back,1,m,Fri Apr 18 2025 11:23:35 GMT-0500 (Central Daylight Time),240411.59999999404,178_m_m_n_a.png,O,m,666,10,1,1710.0,238701.59999999404,7126,NNB,B,9
10,test,2,1.0,1-Back,1,z,Fri Apr 18 2025 11:23:35 GMT-0500 (Central Daylight Time),242426.79999999702,178_m_m_n_a.png,O,z,957,11,1,2006.9000000059605,240419.89999999106,7126,NNB,B,10
11,test,2,0.0,1-Back,1,m,Fri Apr 18 2025 11:23:35 GMT-0500 (Central Daylight Time),244275.20000000298,110_o_f_n_a.png,O,m,790,12,1,1842.9000000059605,242432.29999999702,7126,NNB,B,11
12,test,2,0.0,1-Back,1,m,Fri Apr 18 2025 11:23:35 GMT-0500 (Central Daylight Time),246492.39999999106,086_o_f_n_a.png,O,m,1167,13,1,2211.5999999940395,244280.79999999702,7126,NNB,B,12
13,test,2,0.0,1-Back,1,m,Fri Apr 18 2025 11:23:35 GMT-0500 (Central Daylight Time),248406.59999999404,176_o_m_n_a.png,O,m,867,14,1,1906.8999999910593,246499.70000000298,7126,NNB,B,13
14,test,2,0.0,1-Back,1,m,Fri Apr 18 2025 11:23:35 GMT-0500 (Central Daylight Time),250174.09999999404,065_o_m_n_a.png,O,m,716,15,1,1763.3999999910593,248410.70000000298,7126,NNB,B,14
15,test,2,1.0,1-Back,1,z,Fri Apr 18 2025 11:23:35 GMT-0500 (Central Daylight Time),252041.20000000298,065_o_m_n_a.png,O,z,819,16,1,1858.300000011921,250182.89999999106,7126,NNB,B,15
16,test,2,0.0,1-Back,1,m,Fri Apr 18 2025 11:23:35 GMT-0500 (Central Daylight Time),253805.89999999106,013_y_m_n_a.png,O,m,745,17,1,1758.199999988079,252047.70000000298,7126,NNB,B,16
17,test,2,1.0,1-Back,1,z,Fri Apr 18 2025 11:23:35 GMT-0500 (Central Daylight Time),255723.09999999404,013_y_m_n_a.png,O,z,859,18,1,1909.5999999940395,253813.5,7126,NNB,B,17
0,test,3,1.0,1-Back,,,Fri Apr 18 2025 11:23:35 GMT-0500 (Central Daylight Time),255723.09999999404,173_y_f_n_a.png,O,space,4079,1,1,1909.5999999940395,253813.5,7126,NNB,B,0
1,test,3,0.0,1-Back,1,m,Fri Apr 18 2025 11:23:35 GMT-0500 (Central Daylight Time),263655.09999999404,065_o_m_n_a.png,O,m,654,1,1,1692.7999999970198,261962.29999999702,7126,NNB,B,1
2,test,3,1.0,1-Back,1,z,Fri Apr 18 2025 11:23:35 GMT-0500 (Central Daylight Time),265319.299999997,065_o_m_n_a.png,O,z,637,1,1,1661.7999999970198,263657.5,7126,NNB,B,2
3,test,3,0.0,1-Back,1,m,Fri Apr 18 2025 11:23:35 GMT-0500 (Central Daylight Time),266935.59999999404,097_m_f_n_a.png,O,m,568,1,1,1609.0999999940395,265326.5,7126,NNB,B,3
4,test,3,1.0,1-Back,1,z,Fri Apr 18 2025 11:23:35 GMT-0500 (Central Daylight Time),268685.59999999404,097_m_f_n_a.png,O,z,699,1,1,1742.5,266943.09999999404,7126,NNB,B,4
5,test,3,0.0,1-Back,1,m,Fri Apr 18 2025 11:23:35 GMT-0500 (Central Daylight Time),270484.39999999106,110_o_f_n_a.png,O,m,755,1,1,1791.3999999910593,268693.0,7126,NNB,B,5
6,test,3,0.0,1-Back,1,m,Fri Apr 18 2025 11:23:35 GMT-0500 (Central Daylight Time),272584.299999997,153_y_m_n_a.png,O,m,1051,1,1,2094.0,270490.299999997,7126,NNB,B,6
7,test,3,0.0,1-Back,1,m,Fri Apr 18 2025 11:23:35 GMT-0500 (Central Daylight Time),274332.799999997,110_o_f_n_a.png,O,m,687,1,1,1743.5999999940395,272589.200000003,7126,NNB,B,7
8,test,3,0.0,1-Back,1,m,Fri Apr 18 2025 11:23:35 GMT-0500 (Central Daylight Time),276100.59999999404,013_y_m_n_a.png,O,m,749,1,1,1761.0999999940395,274339.5,7126,NNB,B,8
9,test,3,1.0,1-Back,1,z,Fri Apr 18 2025 11:23:35 GMT-0500 (Central Daylight Time),277798.89999999106,013_y_m_n_a.png,O,z,662,1,1,1694.199999988079,276104.700000003,7126,NNB,B,9
10,test,3,0.0,1-Back,1,m,Fri Apr 18 2025 11:23:35 GMT-0500 (Central Daylight Time),279631.299999997,029_m_f_n_a.png,O,m,801,1,1,1825.0999999940395,277806.200000003,7126,NNB,B,10
11,test,3,0.0,1-Back,1,m,Fri Apr 18 2025 11:23:35 GMT-0500 (Central Daylight Time),281348.59999999404,152_y_f_n_a.png,O,m,672,1,1,1711.0,279637.59999999404,7126,NNB,B,11
12,test,3,1.0,1-Back,1,z,Fri Apr 18 2025 11:23:35 GMT-0500 (Central Daylight Time),283063.200000003,152_y_f_n_a.png,O,z,676,1,1,1706.6000000089407,281356.59999999404,7126,NNB,B,12
13,test,3,0.0,1-Back,1,m,Fri Apr 18 2025 11:23:35 GMT-0500 (Central Daylight Time),284913.39999999106,029_m_f_n_a.png,O,m,791,1,1,1843.2999999970198,283070.09999999404,7126,NNB,B,13
14,test,3,0.0,1-Back,1,m,Fri Apr 18 2025 11:23:35 GMT-0500 (Central Daylight Time),286763.700000003,126_m_m_n_a.png,O,m,816,1,1,1843.0,284920.700000003,7126,NNB,B,14
15,test,3,1.0,1-Back,1,z,Fri Apr 18 2025 11:23:35 GMT-0500 (Central Daylight Time),288579.0,126_m_m_n_a.png,O,z,749,1,1,1809.7999999970198,286769.200000003,7126,NNB,B,15
16,test,3,0.0,1-Back,1,m,Fri Apr 18 2025 11:23:35 GMT-0500 (Central Daylight Time),290312.200000003,086_o_f_n_a.png,O,m,701,1,1,1725.800000011921,288586.39999999106,7126,NNB,B,16
17,test,3,1.0,1-Back,1,z,Fri Apr 18 2025 11:23:35 GMT-0500 (Central Daylight Time),292228.200000003,086_o_f_n_a.png,O,z,856,1,1,1908.5,290319.700000003,7126,NNB,B,17
0,test,4,1.0,1-Back,,,Fri Apr 18 2025 11:23:35 GMT-0500 (Central Daylight Time),292228.200000003,097_m_f_n_a.png,O,space,2747,1,1,1908.5,290319.700000003,7126,NNB,B,0
1,test,4,0.0,1-Back,1,m,Fri Apr 18 2025 11:23:35 GMT-0500 (Central Daylight Time),298792.5,065_o_m_n_a.png,O,m,626,2,1,1675.5,297117.0,7126,NNB,B,1
2,test,4,0.0,1-Back,1,m,Fri Apr 18 2025 11:23:35 GMT-0500 (Central Daylight Time),301659.700000003,097_m_f_n_a.png,O,m,1850,3,1,2861.0,298798.700000003,7126,NNB,B,2
2,test,4,0.0,1-Back,0,m,Fri Apr 18 2025 11:23:35 GMT-0500 (Central Daylight Time),304691.09999999404,110_o_f_n_a.png,O,None,2013,4,1,3023.3999999910593,301667.700000003,7126,NNB,B,3
3,test,4,1.0,1-Back,1,z,Fri Apr 18 2025 11:23:35 GMT-0500 (Central Daylight Time),306356.200000003,110_o_f_n_a.png,O,z,639,5,1,1655.300000011921,304700.89999999106,7126,NNB,B,4
4,test,4,0.0,1-Back,1,m,Fri Apr 18 2025 11:23:35 GMT-0500 (Central Daylight Time),308056.299999997,152_y_f_n_a.png,O,m,651,6,1,1691.2000000029802,306365.09999999404,7126,NNB,B,5
5,test,4,0.0,1-Back,1,m,Fri Apr 18 2025 11:23:35 GMT-0500 (Central Daylight Time),309805.200000003,153_y_m_n_a.png,O,m,687,7,1,1740.2000000029802,308065.0,7126,NNB,B,6
6,test,4,1.0,1-Back,1,z,Fri Apr 18 2025 11:23:35 GMT-0500 (Central Daylight Time),311539.0,153_y_m_n_a.png,O,z,681,8,1,1725.4000000059605,309813.59999999404,7126,NNB,B,7
7,test,4,0.0,1-Back,1,m,Fri Apr 18 2025 11:23:35 GMT-0500 (Central Daylight Time),313272.39999999106,152_y_f_n_a.png,O,m,693,9,1,1724.8999999910593,311547.5,7126,NNB,B,8
8,test,4,0.0,1-Back,1,m,Fri Apr 18 2025 11:23:35 GMT-0500 (Central Daylight Time),315169.5,178_m_m_n_a.png,O,m,872,10,1,1889.4000000059605,313280.09999999404,7126,NNB,B,9
9,test,4,1.0,1-Back,1,z,Fri Apr 18 2025 11:23:35 GMT-0500 (Central Daylight Time),316919.0,178_m_m_n_a.png,O,z,701,11,1,1743.4000000059605,315175.59999999404,7126,NNB,B,10
10,test,4,0.0,1-Back,1,m,Fri Apr 18 2025 11:23:35 GMT-0500 (Central Daylight Time),318686.39999999106,086_o_f_n_a.png,O,m,733,12,1,1758.3999999910593,316928.0,7126,NNB,B,11
11,test,4,0.0,1-Back,1,m,Fri Apr 18 2025 11:23:35 GMT-0500 (Central Daylight Time),320518.39999999106,176_o_m_n_a.png,O,m,782,13,1,1824.8999999910593,318693.5,7126,NNB,B,12
12,test,4,0.0,1-Back,1,m,Fri Apr 18 2025 11:23:35 GMT-0500 (Central Daylight Time),322701.700000003,086_o_f_n_a.png,O,m,1137,14,1,2176.7000000029802,320525.0,7126,NNB,B,13
13,test,4,0.0,1-Back,1,m,Fri Apr 18 2025 11:23:35 GMT-0500 (Central Daylight Time),324934.799999997,173_y_f_n_a.png,O,m,1196,15,1,2226.0,322708.799999997,7126,NNB,B,14
14,test,4,1.0,1-Back,1,z,Fri Apr 18 2025 11:23:35 GMT-0500 (Central Daylight Time),326999.700000003,173_y_f_n_a.png,O,z,1017,16,1,2057.4000000059605,324942.299999997,7126,NNB,B,15
15,test,4,0.0,1-Back,1,m,Fri Apr 18 2025 11:23:35 GMT-0500 (Central Daylight Time),328814.09999999404,029_m_f_n_a.png,O,m,776,17,1,1807.8999999910593,327006.200000003,7126,NNB,B,16
16,test,4,1.0,1-Back,1,z,Fri Apr 18 2025 11:23:35 GMT-0500 (Central Daylight Time),330731.09999999404,029_m_f_n_a.png,O,z,855,18,1,1910.7999999970198,328820.299999997,7126,NNB,B,17
0,test,5,1.0,1-Back,,,Fri Apr 18 2025 11:23:35 GMT-0500 (Central Daylight Time),330731.09999999404,176_o_m_n_a.png,O,space,3220,1,1,1910.7999999970198,328820.299999997,7126,NNB,B,0
1,test,5,1.0,1-Back,1,z,Fri Apr 18 2025 11:23:35 GMT-0500 (Central Daylight Time),337847.799999997,176_o_m_n_a.png,O,z,787,2,1,1828.4000000059605,336019.39999999106,7126,NNB,B,1
2,test,5,0.0,1-Back,1,m,Fri Apr 18 2025 11:23:35 GMT-0500 (Central Daylight Time),339496.5,152_y_f_n_a.png,O,m,602,3,1,1641.7000000029802,337854.799999997,7126,NNB,B,2
3,test,5,0.0,1-Back,1,m,Fri Apr 18 2025 11:23:35 GMT-0500 (Central Daylight Time),341195.200000003,153_y_m_n_a.png,O,m,667,4,1,1692.9000000059605,339502.299999997,7126,NNB,B,3
3,test,5,0.0,1-Back,0,m,Fri Apr 18 2025 11:23:35 GMT-0500 (Central Daylight Time),342928.700000003,152_y_f_n_a.png,O,z,711,5,1,1729.300000011921,341199.39999999106,7126,NNB,B,4
4,test,5,0.0,1-Back,1,m,Fri Apr 18 2025 11:23:35 GMT-0500 (Central Daylight Time),344877.799999997,126_m_m_n_a.png,O,m,900,6,1,1942.9000000059605,342934.89999999106,7126,NNB,B,5
5,test,5,1.0,1-Back,1,z,Fri Apr 18 2025 11:23:35 GMT-0500 (Central Daylight Time),346594.299999997,126_m_m_n_a.png,O,z,650,7,1,1710.5999999940395,344883.700000003,7126,NNB,B,6
6,test,5,0.0,1-Back,1,m,Fri Apr 18 2025 11:23:35 GMT-0500 (Central Daylight Time),348309.5,173_y_f_n_a.png,O,m,655,8,1,1706.6000000089407,346602.89999999106,7126,NNB,B,7
7,test,5,0.0,1-Back,1,m,Fri Apr 18 2025 11:23:35 GMT-0500 (Central Daylight Time),350175.89999999106,013_y_m_n_a.png,O,m,832,9,1,1857.7999999970198,348318.09999999404,7126,NNB,B,8
7,test,5,0.0,1-Back,0,m,Fri Apr 18 2025 11:23:35 GMT-0500 (Central Daylight Time),352243.299999997,173_y_f_n_a.png,O,z,1016,10,1,2059.7000000029802,350183.59999999404,7126,NNB,B,9
8,test,5,0.0,1-Back,1,m,Fri Apr 18 2025 11:23:35 GMT-0500 (Central Daylight Time),353928.299999997,086_o_f_n_a.png,O,m,636,11,1,1678.4000000059605,352249.89999999106,7126,NNB,B,10
9,test,5,1.0,1-Back,1,z,Fri Apr 18 2025 11:23:35 GMT-0500 (Central Daylight Time),355875.59999999404,086_o_f_n_a.png,O,z,884,12,1,1943.5999999940395,353932.0,7126,NNB,B,11
10,test,5,0.0,1-Back,1,m,Fri Apr 18 2025 11:23:35 GMT-0500 (Central Daylight Time),357556.299999997,065_o_m_n_a.png,O,m,633,13,1,1673.7999999970198,355882.5,7126,NNB,B,12
11,test,5,0.0,1-Back,1,m,Fri Apr 18 2025 11:23:35 GMT-0500 (Central Daylight Time),359689.200000003,097_m_f_n_a.png,O,m,1101,14,1,2125.9000000059605,357563.299999997,7126,NNB,B,13
11,test,5,1.0,1-Back,0,z,Fri Apr 18 2025 11:23:35 GMT-0500 (Central Daylight Time),361988.700000003,097_m_f_n_a.png,O,m,1255,15,1,2291.7000000029802,359697.0,7126,NNB,B,14
12,test,5,0.0,1-Back,1,m,Fri Apr 18 2025 11:23:35 GMT-0500 (Central Daylight Time),363805.200000003,065_o_m_n_a.png,O,m,765,16,1,1810.1000000089407,361995.09999999404,7126,NNB,B,15
13,test,5,0.0,1-Back,1,m,Fri Apr 18 2025 11:23:35 GMT-0500 (Central Daylight Time),365821.299999997,029_m_f_n_a.png,O,m,965,17,1,2008.9000000059605,363812.39999999106,7126,NNB,B,16
13,test,5,0.0,1-Back,0,m,Fri Apr 18 2025 11:23:35 GMT-0500 (Central Daylight Time),367520.59999999404,178_m_m_n_a.png,O,z,674,18,1,1692.2999999970198,365828.299999997,7126,NNB,B,17
0,prac,1,0.0,2-Back,,,Fri Apr 18 2025 11:23:35 GMT-0500 (Central Daylight Time),367520.59999999404,013_y_m_n_a.png,O,space,9094,1,1,1692.2999999970198,365828.299999997,7126,NNB,B,0
0,prac,1,0.0,2-Back,,,Fri Apr 18 2025 11:23:35 GMT-0500 (Central Daylight Time),367520.59999999404,029_m_f_n_a.png,O,space,9094,2,1,1692.2999999970198,365828.299999997,7126,NNB,B,0
1,prac,1,1.0,2-Back,1,m,Fri Apr 18 2025 11:23:35 GMT-0500 (Central Daylight Time),476320.09999999404,065_o_m_n_a.png,O,m,998,3,1,1875.5999999940395,474444.5,7126,NNB,B,1
2,prac,1,0.0,2-Back,1,m,Fri Apr 18 2025 11:23:35 GMT-0500 (Central Daylight Time),479201.39999999106,086_o_f_n_a.png,O,m,1984,4,1,2873.5,476327.89999999106,7126,NNB,B,2
2,prac,1,0.0,2-Back,0,z,Fri Apr 18 2025 11:23:35 GMT-0500 (Central Daylight Time),481467.200000003,065_o_m_n_a.png,O,m,1467,5,1,2260.2000000029802,479207.0,7126,NNB,B,3
2,prac,1,1.0,2-Back,0,z,Fri Apr 18 2025 11:23:35 GMT-0500 (Central Daylight Time),484251.59999999404,086_o_f_n_a.png,O,None,2008,6,1,2778.8999999910593,481472.700000003,7126,NNB,B,4
3,prac,1,0.0,2-Back,1,m,Fri Apr 18 2025 11:23:35 GMT-0500 (Central Daylight Time),486113.5,178_m_m_n_a.png,O,m,993,7,1,1853.6000000089407,484259.89999999106,7126,NNB,B,5
4,prac,1,0.0,2-Back,1,m,Fri Apr 18 2025 11:23:35 GMT-0500 (Central Daylight Time),488114.0,176_o_m_n_a.png,O,m,1100,8,1,1997.0,486117.0,7126,NNB,B,6
5,prac,1,0.0,2-Back,1,m,Fri Apr 18 2025 11:23:35 GMT-0500 (Central Daylight Time),490645.5,173_y_f_n_a.png,O,m,1660,9,1,2526.7000000029802,488118.799999997,7126,NNB,B,7
6,prac,1,1.0,2-Back,1,z,Fri Apr 18 2025 11:23:35 GMT-0500 (Central Daylight Time),492512.700000003,176_o_m_n_a.png,O,z,1079,10,1,1863.2000000029802,490649.5,7126,NNB,B,8
7,prac,1,0.0,2-Back,1,m,Fri Apr 18 2025 11:23:35 GMT-0500 (Central Daylight Time),494628.700000003,152_y_f_n_a.png,O,m,1239,11,1,2111.4000000059605,492517.299999997,7126,NNB,B,9
8,prac,1,0.0,2-Back,1,m,Fri Apr 18 2025 11:23:35 GMT-0500 (Central Daylight Time),496744.5,178_m_m_n_a.png,O,m,1310,12,1,2110.2999999970198,494634.200000003,7126,NNB,B,10
0,test,1,0.0,2-Back,,,Fri Apr 18 2025 11:23:35 GMT-0500 (Central Daylight Time),496744.5,153_y_m_n_a.png,O,space,9662,1,1,2110.2999999970198,494634.200000003,7126,NNB,B,0
0,test,1,0.0,2-Back,,,Fri Apr 18 2025 11:23:35 GMT-0500 (Central Daylight Time),496744.5,153_y_m_n_a.png,O,space,9662,2,1,2110.2999999970198,494634.200000003,7126,NNB,B,0
1,test,1,0.0,2-Back,1,m,Fri Apr 18 2025 11:23:35 GMT-0500 (Central Daylight Time),522071.0,086_o_f_n_a.png,O,m,903,3,1,1940.9000000059605,520130.09999999404,7126,NNB,B,1
2,test,1,0.0,2-Back,1,m,Fri Apr 18 2025 11:23:35 GMT-0500 (Central Daylight Time),523836.09999999404,126_m_m_n_a.png,O,m,745,4,1,1757.7999999970198,522078.299999997,7126,NNB,B,2
3,test,1,1.0,2-Back,1,z,Fri Apr 18 2025 11:23:35 GMT-0500 (Central Daylight Time),525703.700000003,086_o_f_n_a.png,O,z,828,5,1,1861.1000000089407,523842.59999999404,7126,NNB,B,3
4,test,1,0.0,2-Back,1,m,Fri Apr 18 2025 11:23:35 GMT-0500 (Central Daylight Time),527386.8999999911,152_y_f_n_a.png,O,m,648,6,1,1676.199999988079,525710.700000003,7126,NNB,B,4
5,test,1,0.0,2-Back,1,m,Fri Apr 18 2025 11:23:35 GMT-0500 (Central Daylight Time),529319.3999999911,126_m_m_n_a.png,O,m,895,7,1,1928.0999999940395,527391.299999997,7126,NNB,B,5
6,test,1,1.0,2-Back,1,z,Fri Apr 18 2025 11:23:35 GMT-0500 (Central Daylight Time),531635.700000003,152_y_f_n_a.png,O,z,1282,8,1,2308.800000011921,529326.8999999911,7126,NNB,B,6
7,test,1,0.0,2-Back,1,m,Fri Apr 18 2025 11:23:35 GMT-0500 (Central Daylight Time),533417.299999997,013_y_m_n_a.png,O,m,748,9,1,1774.7000000029802,531642.599999994,7126,NNB,B,7
8,test,1,0.0,2-Back,1,m,Fri Apr 18 2025 11:23:35 GMT-0500 (Central Daylight Time),535634.200000003,110_o_f_n_a.png,O,m,1182,10,1,2213.5,533420.700000003,7126,NNB,B,8
9,test,1,1.0,2-Back,1,z,Fri Apr 18 2025 11:23:35 GMT-0500 (Central Daylight Time),537548.3999999911,013_y_m_n_a.png,O,z,879,11,1,1907.699999988079,535640.700000003,7126,NNB,B,9
10,test,1,0.0,2-Back,1,m,Fri Apr 18 2025 11:23:35 GMT-0500 (Central Daylight Time),539382.200000003,029_m_f_n_a.png,O,m,795,12,1,1826.7000000029802,537555.5,7126,NNB,B,10
11,test,1,0.0,2-Back,1,m,Fri Apr 18 2025 11:23:35 GMT-0500 (Central Daylight Time),541915.5,029_m_f_n_a.png,O,m,1516,13,1,2526.4000000059605,539389.099999994,7126,NNB,B,11
12,test,1,0.0,2-Back,1,m,Fri Apr 18 2025 11:23:35 GMT-0500 (Central Daylight Time),544563.3999999911,065_o_m_n_a.png,O,m,1606,14,1,2641.5999999940395,541921.799999997,7126,NNB,B,12
12,test,1,0.0,2-Back,0,m,Fri Apr 18 2025 11:23:35 GMT-0500 (Central Daylight Time),547613.0,110_o_f_n_a.png,O,None,2016,15,1,3041.9000000059605,544571.099999994,7126,NNB,B,13
13,test,1,1.0,2-Back,1,z,Fri Apr 18 2025 11:23:35 GMT-0500 (Central Daylight Time),550043.799999997,065_o_m_n_a.png,O,z,1396,16,1,2425.0999999940395,547618.700000003,7126,NNB,B,14
14,test,1,0.0,2-Back,1,m,Fri Apr 18 2025 11:23:35 GMT-0500 (Central Daylight Time),552228.0,097_m_f_n_a.png,O,m,1133,17,1,2181.5,550046.5,7126,NNB,B,15
15,test,1,0.0,2-Back,1,m,Fri Apr 18 2025 11:23:35 GMT-0500 (Central Daylight Time),554310.799999997,178_m_m_n_a.png,O,m,1027,18,1,2074.7000000029802,552236.099999994,7126,NNB,B,16
0,test,2,0.0,2-Back,,,Fri Apr 18 2025 11:23:35 GMT-0500 (Central Daylight Time),554310.799999997,178_m_m_n_a.png,O,space,2562,1,1,2074.7000000029802,552236.099999994,7126,NNB,B,0
0,test,2,0.0,2-Back,,,Fri Apr 18 2025 11:23:35 GMT-0500 (Central Daylight Time),554310.799999997,173_y_f_n_a.png,O,space,2562,2,1,2074.7000000029802,552236.099999994,7126,NNB,B,0
1,test,2,1.0,2-Back,1,z,Fri Apr 18 2025 11:23:35 GMT-0500 (Central Daylight Time),564009.099999994,178_m_m_n_a.png,O,z,928,3,1,1961.2999999970198,562047.799999997,7126,NNB,B,1
2,test,2,0.0,2-Back,1,m,Fri Apr 18 2025 11:23:35 GMT-0500 (Central Daylight Time),566073.8999999911,097_m_f_n_a.png,O,m,1025,4,1,2059.5,564014.3999999911,7126,NNB,B,2
2,test,2,0.0,2-Back,0,m,Fri Apr 18 2025 11:23:35 GMT-0500 (Central Daylight Time),567939.5,173_y_f_n_a.png,O,z,834,5,1,1858.9000000059605,566080.599999994,7126,NNB,B,3
3,test,2,0.0,2-Back,1,m,Fri Apr 18 2025 11:23:35 GMT-0500 (Central Daylight Time),569855.599999994,065_o_m_n_a.png,O,m,877,6,1,1909.0,567946.599999994,7126,NNB,B,4
4,test,2,0.0,2-Back,1,m,Fri Apr 18 2025 11:23:35 GMT-0500 (Central Daylight Time),571806.700000003,152_y_f_n_a.png,O,m,890,7,1,1942.6000000089407,569864.099999994,7126,NNB,B,5
5,test,2,1.0,2-Back,1,z,Fri Apr 18 2025 11:23:35 GMT-0500 (Central Daylight Time),573987.3999999911,065_o_m_n_a.png,O,z,1138,8,1,2177.5,571809.8999999911,7126,NNB,B,6
6,test,2,0.0,2-Back,1,m,Fri Apr 18 2025 11:23:35 GMT-0500 (Central Daylight Time),576304.599999994,013_y_m_n_a.png,O,m,1251,9,1,2309.8999999910593,573994.700000003,7126,NNB,B,7
7,test,2,0.0,2-Back,1,m,Fri Apr 18 2025 11:23:35 GMT-0500 (Central Daylight Time),579002.8999999911,013_y_m_n_a.png,O,m,1656,10,1,2688.7999999970198,576314.099999994,7126,NNB,B,8
7,test,2,0.0,2-Back,0,m,Fri Apr 18 2025 11:23:35 GMT-0500 (Central Daylight Time),581886.8999999911,029_m_f_n_a.png,O,z,1837,11,1,2880.0,579006.8999999911,7126,NNB,B,9
8,test,2,0.0,2-Back,1,m,Fri Apr 18 2025 11:23:35 GMT-0500 (Central Daylight Time),584319.700000003,173_y_f_n_a.png,O,m,1412,12,1,2425.5,581894.200000003,7126,NNB,B,10
9,test,2,1.0,2-Back,1,z,Fri Apr 18 2025 11:23:35 GMT-0500 (Central Daylight Time),586699.700000003,029_m_f_n_a.png,O,z,1345,13,1,2374.0,584325.700000003,7126,NNB,B,11
10,test,2,0.0,2-Back,1,m,Fri Apr 18 2025 11:23:35 GMT-0500 (Central Daylight Time),588849.8999999911,176_o_m_n_a.png,O,m,1108,14,1,2142.2999999970198,586707.599999994,7126,NNB,B,12
10,test,2,0.0,2-Back,0,m,Fri Apr 18 2025 11:23:35 GMT-0500 (Central Daylight Time),591883.200000003,176_o_m_n_a.png,O,None,2015,15,1,3026.1000000089407,588857.099999994,7126,NNB,B,13
11,test,2,0.0,2-Back,1,m,Fri Apr 18 2025 11:23:35 GMT-0500 (Central Daylight Time),593965.5,110_o_f_n_a.png,O,m,1021,16,1,2077.7000000029802,591887.799999997,7126,NNB,B,14
12,test,2,0.0,2-Back,1,m,Fri Apr 18 2025 11:23:35 GMT-0500 (Central Daylight Time),596581.200000003,126_m_m_n_a.png,O,m,1581,17,1,2608.7000000029802,593972.5,7126,NNB,B,15
13,test,2,1.0,2-Back,1,z,Fri Apr 18 2025 11:23:35 GMT-0500 (Central Daylight Time),598414.3999999911,110_o_f_n_a.png,O,z,799,18,1,1826.0999999940395,596588.299999997,7126,NNB,B,16
0,test,3,1.0,2-Back,,,Fri Apr 18 2025 11:23:35 GMT-0500 (Central Daylight Time),598414.3999999911,153_y_m_n_a.png,O,space,7214,1,1,1826.0999999940395,596588.299999997,7126,NNB,B,0
0,test,3,1.0,2-Back,,,Fri Apr 18 2025 11:23:35 GMT-0500 (Central Daylight Time),598414.3999999911,153_y_m_n_a.png,O,space,7214,2,1,1826.0999999940395,596588.299999997,7126,NNB,B,0
1,test,3,0.0,2-Back,1,m,Fri Apr 18 2025 11:23:35 GMT-0500 (Central Daylight Time),612576.299999997,110_o_f_n_a.png,O,m,758,3,1,1792.0999999940395,610784.200000003,7126,NNB,B,1
1,test,3,0.0,2-Back,0,m,Fri Apr 18 2025 11:23:35 GMT-0500 (Central Daylight Time),615627.099999994,178_m_m_n_a.png,O,None,2015,4,1,3047.0999999940395,612580.0,7126,NNB,B,2
2,test,3,1.0,2-Back,1,z,Fri Apr 18 2025 11:23:35 GMT-0500 (Central Daylight Time),617589.3999999911,110_o_f_n_a.png,O,z,918,5,1,1953.7999999970198,615635.599999994,7126,NNB,B,3
3,test,3,0.0,2-Back,1,m,Fri Apr 18 2025 11:23:35 GMT-0500 (Central Daylight Time),620173.299999997,013_y_m_n_a.png,O,m,1543,6,1,2577.7000000029802,617595.599999994,7126,NNB,B,4
3,test,3,0.0,2-Back,0,m,Fri Apr 18 2025 11:23:35 GMT-0500 (Central Daylight Time),622722.700000003,178_m_m_n_a.png,O,z,1500,7,1,2541.300000011921,620181.3999999911,7126,NNB,B,5
3,test,3,1.0,2-Back,0,z,Fri Apr 18 2025 11:23:35 GMT-0500 (Central Daylight Time),625505.299999997,013_y_m_n_a.png,O,m,1726,8,1,2775.2999999970198,622730.0,7126,NNB,B,6
4,test,3,0.0,2-Back,1,m,Fri Apr 18 2025 11:23:35 GMT-0500 (Central Daylight Time),628037.299999997,173_y_f_n_a.png,O,m,1499,9,1,2526.0999999940395,625511.200000003,7126,NNB,B,7
4,test,3,0.0,2-Back,0,m,Fri Apr 18 2025 11:23:35 GMT-0500 (Central Daylight Time),630453.799999997,126_m_m_n_a.png,O,z,1355,10,1,2409.7000000029802,628044.099999994,7126,NNB,B,8
4,test,3,1.0,2-Back,0,z,Fri Apr 18 2025 11:23:35 GMT-0500 (Central Daylight Time),633501.5,173_y_f_n_a.png,O,None,2013,11,1,3041.5,630460.0,7126,NNB,B,9
5,test,3,1.0,2-Back,1,z,Fri Apr 18 2025 11:23:35 GMT-0500 (Central Daylight Time),635967.0,126_m_m_n_a.png,O,z,1443,12,1,2459.2999999970198,633507.700000003,7126,NNB,B,10
6,test,3,0.0,2-Back,1,m,Fri Apr 18 2025 11:23:35 GMT-0500 (Central Daylight Time),638034.3999999911,110_o_f_n_a.png,O,m,1025,13,1,2064.7999999970198,635969.599999994,7126,NNB,B,11
7,test,3,0.0,2-Back,1,m,Fri Apr 18 2025 11:23:35 GMT-0500 (Central Daylight Time),640466.5,097_m_f_n_a.png,O,m,1406,14,1,2423.6000000089407,638042.8999999911,7126,NNB,B,12
8,test,3,0.0,2-Back,1,m,Fri Apr 18 2025 11:23:35 GMT-0500 (Central Daylight Time),643166.099999994,065_o_m_n_a.png,O,m,1652,15,1,2693.3999999910593,640472.700000003,7126,NNB,B,13
9,test,3,1.0,2-Back,1,z,Fri Apr 18 2025 11:23:35 GMT-0500 (Central Daylight Time),645898.599999994,097_m_f_n_a.png,O,z,1698,16,1,2725.7999999970198,643172.799999997,7126,NNB,B,14
10,test,3,0.0,2-Back,1,m,Fri Apr 18 2025 11:23:35 GMT-0500 (Central Daylight Time),648431.799999997,086_o_f_n_a.png,O,m,1508,17,1,2525.7999999970198,645906.0,7126,NNB,B,15
10,test,3,0.0,2-Back,0,m,Fri Apr 18 2025 11:23:35 GMT-0500 (Central Daylight Time),651479.700000003,086_o_f_n_a.png,O,None,2015,18,1,3041.5,648438.200000003,7126,NNB,B,16
0,test,4,0.0,2-Back,,,Fri Apr 18 2025 11:23:35 GMT-0500 (Central Daylight Time),651479.700000003,176_o_m_n_a.png,O,space,3905,1,1,3041.5,648438.200000003,7126,NNB,B,0
0,test,4,0.0,2-Back,,,Fri Apr 18 2025 11:23:35 GMT-0500 (Central Daylight Time),651479.700000003,152_y_f_n_a.png,O,space,3905,2,1,3041.5,648438.200000003,7126,NNB,B,0
1,test,4,1.0,2-Back,1,z,Fri Apr 18 2025 11:23:35 GMT-0500 (Central Daylight Time),662458.299999997,176_o_m_n_a.png,O,z,771,3,1,1790.4000000059605,660667.8999999911,7126,NNB,B,1
2,test,4,1.0,2-Back,1,z,Fri Apr 18 2025 11:23:35 GMT-0500 (Central Daylight Time),664457.8999999911,152_y_f_n_a.png,O,z,964,4,1,1992.199999988079,662465.700000003,7126,NNB,B,2
3,test,4,0.0,2-Back,1,m,Fri Apr 18 2025 11:23:35 GMT-0500 (Central Daylight Time),666324.599999994,110_o_f_n_a.png,O,m,829,5,1,1859.5999999940395,664465.0,7126,NNB,B,3
4,test,4,0.0,2-Back,1,m,Fri Apr 18 2025 11:23:35 GMT-0500 (Central Daylight Time),668424.299999997,110_o_f_n_a.png,O,m,1067,6,1,2092.9000000059605,666331.3999999911,7126,NNB,B,4
5,test,4,0.0,2-Back,1,m,Fri Apr 18 2025 11:23:35 GMT-0500 (Central Daylight Time),670310.799999997,029_m_f_n_a.png,O,m,850,7,1,1880.5,668430.299999997,7126,NNB,B,5
6,test,4,0.0,2-Back,1,m,Fri Apr 18 2025 11:23:35 GMT-0500 (Central Daylight Time),672506.799999997,013_y_m_n_a.png,O,m,1182,8,1,2189.7999999970198,670317.0,7126,NNB,B,6
7,test,4,1.0,2-Back,1,z,Fri Apr 18 2025 11:23:35 GMT-0500 (Central Daylight Time),674572.099999994,029_m_f_n_a.png,O,z,1038,9,1,2057.0,672515.099999994,7126,NNB,B,7
8,test,4,0.0,2-Back,1,m,Fri Apr 18 2025 11:23:35 GMT-0500 (Central Daylight Time),676821.8999999911,126_m_m_n_a.png,O,m,1199,10,1,2243.0999999940395,674578.799999997,7126,NNB,B,8
9,test,4,0.0,2-Back,1,m,Fri Apr 18 2025 11:23:35 GMT-0500 (Central Daylight Time),679137.8999999911,013_y_m_n_a.png,O,m,1265,11,1,2308.7999999970198,676829.099999994,7126,NNB,B,9
10,test,4,0.0,2-Back,1,m,Fri Apr 18 2025 11:23:35 GMT-0500 (Central Daylight Time),681187.700000003,086_o_f_n_a.png,O,m,989,12,1,2043.4000000059605,679144.299999997,7126,NNB,B,10
11,test,4,0.0,2-Back,1,m,Fri Apr 18 2025 11:23:35 GMT-0500 (Central Daylight Time),683669.5,153_y_m_n_a.png,O,m,1429,13,1,2475.1000000089407,681194.3999999911,7126,NNB,B,11
12,test,4,1.0,2-Back,1,z,Fri Apr 18 2025 11:23:35 GMT-0500 (Central Daylight Time),686401.299999997,086_o_f_n_a.png,O,z,1689,14,1,2725.0,683676.299999997,7126,NNB,B,12
12,test,4,1.0,2-Back,0,z,Fri Apr 18 2025 11:23:35 GMT-0500 (Central Daylight Time),688686.599999994,153_y_m_n_a.png,O,m,1220,15,1,2280.0999999940395,686406.5,7126,NNB,B,13
13,test,4,0.0,2-Back,1,m,Fri Apr 18 2025 11:23:35 GMT-0500 (Central Daylight Time),691367.200000003,178_m_m_n_a.png,O,m,1634,16,1,2678.1000000089407,688689.099999994,7126,NNB,B,14
14,test,4,0.0,2-Back,1,m,Fri Apr 18 2025 11:23:35 GMT-0500 (Central Daylight Time),693734.0,097_m_f_n_a.png,O,m,1320,17,1,2360.2999999970198,691373.700000003,7126,NNB,B,15
15,test,4,1.0,2-Back,1,z,Fri Apr 18 2025 11:23:35 GMT-0500 (Central Daylight Time),695465.299999997,178_m_m_n_a.png,O,z,706,18,1,1725.5999999940395,693739.700000003,7126,NNB,B,16
0,test,5,1.0,2-Back,,,Fri Apr 18 2025 11:23:35 GMT-0500 (Central Daylight Time),695465.299999997,153_y_m_n_a.png,O,space,4345,1,1,1725.5999999940395,693739.700000003,7126,NNB,B,0
0,test,5,1.0,2-Back,,,Fri Apr 18 2025 11:23:35 GMT-0500 (Central Daylight Time),695465.299999997,097_m_f_n_a.png,O,space,4345,2,1,1725.5999999940395,693739.700000003,7126,NNB,B,0
1,test,5,1.0,2-Back,1,z,Fri Apr 18 2025 11:23:35 GMT-0500 (Central Daylight Time),706445.5,153_y_m_n_a.png,O,z,528,3,1,1559.2999999970198,704886.200000003,7126,NNB,B,1
2,test,5,1.0,2-Back,1,z,Fri Apr 18 2025 11:23:35 GMT-0500 (Central Daylight Time),708412.3999999911,097_m_f_n_a.png,O,z,934,4,1,1964.199999988079,706448.200000003,7126,NNB,B,2
3,test,5,0.0,2-Back,1,m,Fri Apr 18 2025 11:23:35 GMT-0500 (Central Daylight Time),710380.0,086_o_f_n_a.png,O,m,925,5,1,1960.2999999970198,708419.700000003,7126,NNB,B,3
4,test,5,0.0,2-Back,1,m,Fri Apr 18 2025 11:23:35 GMT-0500 (Central Daylight Time),712827.200000003,153_y_m_n_a.png,O,m,1388,6,1,2439.4000000059605,710387.799999997,7126,NNB,B,4
5,test,5,0.0,2-Back,1,m,Fri Apr 18 2025 11:23:35 GMT-0500 (Central Daylight Time),714742.200000003,173_y_f_n_a.png,O,m,853,7,1,1908.6000000089407,712833.599999994,7126,NNB,B,5
6,test,5,0.0,2-Back,1,m,Fri Apr 18 2025 11:23:35 GMT-0500 (Central Daylight Time),717242.299999997,086_o_f_n_a.png,O,m,1456,8,1,2493.2000000029802,714749.099999994,7126,NNB,B,6
7,test,5,1.0,2-Back,1,z,Fri Apr 18 2025 11:23:35 GMT-0500 (Central Daylight Time),719942.200000003,173_y_f_n_a.png,O,z,1661,9,1,2692.5,717249.700000003,7126,NNB,B,7
8,test,5,0.0,2-Back,1,m,Fri Apr 18 2025 11:23:35 GMT-0500 (Central Daylight Time),722606.5,065_o_m_n_a.png,O,m,1626,10,1,2657.5,719949.0,7126,NNB,B,8
8,test,5,0.0,2-Back,0,m,Fri Apr 18 2025 11:23:35 GMT-0500 (Central Daylight Time),725639.200000003,029_m_f_n_a.png,O,None,2016,11,1,3026.5,722612.700000003,7126,NNB,B,9
8,test,5,0.0,2-Back,0,m,Fri Apr 18 2025 11:23:35 GMT-0500 (Central Daylight Time),728671.5,126_m_m_n_a.png,O,None,2015,12,1,3025.7000000029802,725645.799999997,7126,NNB,B,10
9,test,5,0.0,2-Back,1,m,Fri Apr 18 2025 11:23:35 GMT-0500 (Central Daylight Time),731103.200000003,065_o_m_n_a.png,O,m,1386,13,1,2428.7000000029802,728674.5,7126,NNB,B,11
9,test,5,1.0,2-Back,0,z,Fri Apr 18 2025 11:23:35 GMT-0500 (Central Daylight Time),733973.099999994,126_m_m_n_a.png,O,m,1831,14,1,2867.5,731105.599999994,7126,NNB,B,12
10,test,5,0.0,2-Back,1,m,Fri Apr 18 2025 11:23:35 GMT-0500 (Central Daylight Time),736619.599999994,152_y_f_n_a.png,O,m,1590,15,1,2639.0,733980.599999994,7126,NNB,B,13
10,test,5,0.0,2-Back,0,m,Fri Apr 18 2025 11:23:35 GMT-0500 (Central Daylight Time),738736.299999997,176_o_m_n_a.png,O,z,1059,16,1,2108.5999999940395,736627.700000003,7126,NNB,B,14
11,test,5,0.0,2-Back,1,m,Fri Apr 18 2025 11:23:35 GMT-0500 (Central Daylight Time),740951.3999999911,029_m_f_n_a.png,O,m,1166,17,1,2209.199999988079,738742.200000003,7126,NNB,B,15
12,test,5,1.0,2-Back,1,z,Fri Apr 18 2025 11:23:35 GMT-0500 (Central Daylight Time),743366.299999997,176_o_m_n_a.png,O,z,1366,18,1,2408.2999999970198,740958.0,7126,NNB,B,16
