block_c,block_dur,condition,countdown,datetime,endtime,list,multichar_response,project,response,response_time,session_number,start_end,starttime,subject_id,task,task_vers,trial
,,,,Wed Sep 25 2024 09:17:18 GMT-0500 (Central Daylight Time),,,,I,space,265,1,,,8004,WL,C,
prac,,0,,Wed Sep 25 2024 09:17:18 GMT-0500 (Central Daylight Time),,NA,b,I,b,3701,1,,,8004,WL,C,1.0
prac,,0,,Wed Sep 25 2024 09:17:18 GMT-0500 (Central Daylight Time),,NA,bo,I,o,2103,1,,,8004,WL,C,1.0
prac,,0,,Wed Sep 25 2024 09:17:18 GMT-0500 (Central Daylight Time),,NA,boo,I,o,183,1,,,8004,WL,C,1.0
prac,,0,,Wed Sep 25 2024 09:17:18 GMT-0500 (Central Daylight Time),,NA,boos,I,s,223,1,,,8004,WL,C,1.0
prac,,0,,Wed Sep 25 2024 09:17:18 GMT-0500 (Central Daylight Time),,NA,boost,I,t,86,1,,,8004,WL,C,1.0
prac,,0,,Wed Sep 25 2024 09:17:18 GMT-0500 (Central Daylight Time),,NA,boostenter,I,enter,11809,1,,,8004,WL,C,1.0
1,1.1159999370574951,learn,58884.000062942505,Wed Sep 25 2024 09:17:18 GMT-0500 (Central Daylight Time),155438.1000000015,A,t,I,t,1100,1,1116.300000000745,154321.80000000075,8004,WL,C,1.0
1,1.5989999771118164,learn,58401.00002288818,Wed Sep 25 2024 09:17:18 GMT-0500 (Central Daylight Time),155921.1000000015,A,to,I,o,470,1,1599.300000000745,154321.80000000075,8004,WL,C,1.0
1,3.315000057220459,learn,56684.99994277954,Wed Sep 25 2024 09:17:18 GMT-0500 (Central Daylight Time),157636.90000000224,A,tow,I,w,1700,1,3315.10000000149,154321.80000000075,8004,WL,C,1.0
1,4.247999906539917,learn,55752.00009346008,Wed Sep 25 2024 09:17:18 GMT-0500 (Central Daylight Time),158570.30000000075,A,towe,I,e,912,1,4248.5,154321.80000000075,8004,WL,C,1.0
1,5.9649999141693115,learn,54035.00008583069,Wed Sep 25 2024 09:17:18 GMT-0500 (Central Daylight Time),160286.40000000224,A,tower,I,r,1698,1,5964.60000000149,154321.80000000075,8004,WL,C,1.0
1,6.5309998989105225,learn,53469.00010108948,Wed Sep 25 2024 09:17:18 GMT-0500 (Central Daylight Time),160852.6000000015,A,towerenter,I,enter,550,1,6530.800000000745,154321.80000000075,8004,WL,C,1.0
1,7.448999881744385,learn,52551.000118255615,Wed Sep 25 2024 09:17:18 GMT-0500 (Central Daylight Time),161770.30000000075,A,w,I,w,896,1,917.0,160853.30000000075,8004,WL,C,2.0
1,7.830999851226807,learn,52169.00014877319,Wed Sep 25 2024 09:17:18 GMT-0500 (Central Daylight Time),162152.30000000075,A,wh,I,h,362,1,1299.0,160853.30000000075,8004,WL,C,2.0
1,8.19700002670288,learn,51802.99997329712,Wed Sep 25 2024 09:17:18 GMT-0500 (Central Daylight Time),162518.90000000224,A,whe,I,e,348,1,1665.6000000014901,160853.30000000075,8004,WL,C,2.0
1,8.430999994277954,learn,51569.000005722046,Wed Sep 25 2024 09:17:18 GMT-0500 (Central Daylight Time),162752.5,A,whea,I,a,214,1,1899.199999999255,160853.30000000075,8004,WL,C,2.0
1,8.864000082015991,learn,51135.99991798401,Wed Sep 25 2024 09:17:18 GMT-0500 (Central Daylight Time),163185.5,A,wheat,I,t,412,1,2332.199999999255,160853.30000000075,8004,WL,C,2.0
1,9.213000059127808,learn,50786.99994087219,Wed Sep 25 2024 09:17:18 GMT-0500 (Central Daylight Time),163535.1000000015,A,wheatenter,I,enter,339,1,2681.800000000745,160853.30000000075,8004,WL,C,2.0
1,9.912999868392944,learn,50087.000131607056,Wed Sep 25 2024 09:17:18 GMT-0500 (Central Daylight Time),164235.0,A,q,I,q,686,1,699.3999999985099,163535.6000000015,8004,WL,C,3.0
1,10.19599986076355,learn,49804.00013923645,Wed Sep 25 2024 09:17:18 GMT-0500 (Central Daylight Time),164518.19999999925,A,qu,I,u,266,1,982.5999999977648,163535.6000000015,8004,WL,C,3.0
1,10.530999898910522,learn,49469.00010108948,Wed Sep 25 2024 09:17:18 GMT-0500 (Central Daylight Time),164852.6000000015,A,que,I,e,319,1,1317.0,163535.6000000015,8004,WL,C,3.0
1,10.730000019073486,learn,49269.999980926514,Wed Sep 25 2024 09:17:18 GMT-0500 (Central Daylight Time),165051.30000000075,A,quee,I,e,192,1,1515.699999999255,163535.6000000015,8004,WL,C,3.0
1,10.94599986076355,learn,49054.00013923645,Wed Sep 25 2024 09:17:18 GMT-0500 (Central Daylight Time),165267.6000000015,A,queen,I,n,210,1,1732.0,163535.6000000015,8004,WL,C,3.0
1,11.395999908447266,learn,48604.000091552734,Wed Sep 25 2024 09:17:18 GMT-0500 (Central Daylight Time),165717.80000000075,A,queenenter,I,enter,433,1,2182.199999999255,163535.6000000015,8004,WL,C,3.0
1,12.44599986076355,learn,47554.00013923645,Wed Sep 25 2024 09:17:18 GMT-0500 (Central Daylight Time),166767.5,A,s,I,s,1031,1,1049.300000000745,165718.19999999925,8004,WL,C,4.0
1,12.645999908447266,learn,47354.000091552734,Wed Sep 25 2024 09:17:18 GMT-0500 (Central Daylight Time),166967.40000000224,A,su,I,u,190,1,1249.2000000029802,165718.19999999925,8004,WL,C,4.0
1,12.796000003814697,learn,47203.9999961853,Wed Sep 25 2024 09:17:18 GMT-0500 (Central Daylight Time),167117.40000000224,A,sug,I,g,142,1,1399.2000000029802,165718.19999999925,8004,WL,C,4.0
1,13.180000066757202,learn,46819.9999332428,Wed Sep 25 2024 09:17:18 GMT-0500 (Central Daylight Time),167501.5,A,suga,I,a,376,1,1783.300000000745,165718.19999999925,8004,WL,C,4.0
1,13.361999988555908,learn,46638.00001144409,Wed Sep 25 2024 09:17:18 GMT-0500 (Central Daylight Time),167683.90000000224,A,sugar,I,r,168,1,1965.7000000029802,165718.19999999925,8004,WL,C,4.0
1,13.628999948501587,learn,46371.00005149841,Wed Sep 25 2024 09:17:18 GMT-0500 (Central Daylight Time),167950.40000000224,A,sugarenter,I,enter,249,1,2232.2000000029802,165718.19999999925,8004,WL,C,4.0
1,14.027999877929688,learn,45972.00012207031,Wed Sep 25 2024 09:17:18 GMT-0500 (Central Daylight Time),168350.19999999925,A,b,I,b,383,1,399.3999999985099,167950.80000000075,8004,WL,C,5.0
1,14.194999933242798,learn,45805.0000667572,Wed Sep 25 2024 09:17:18 GMT-0500 (Central Daylight Time),168517.0,A,bo,I,o,150,1,566.1999999992549,167950.80000000075,8004,WL,C,5.0
1,14.461999893188477,learn,45538.00010681152,Wed Sep 25 2024 09:17:18 GMT-0500 (Central Daylight Time),168783.6000000015,A,boy,I,y,247,1,832.8000000007451,167950.80000000075,8004,WL,C,5.0
1,15.644999980926514,learn,44355.000019073486,Wed Sep 25 2024 09:17:18 GMT-0500 (Central Daylight Time),169966.5,A,boyenter,I,enter,1166,1,2015.699999999255,167950.80000000075,8004,WL,C,5.0
1,18.960000038146973,learn,41039.99996185303,Wed Sep 25 2024 09:17:18 GMT-0500 (Central Daylight Time),173282.1000000015,A,c,I,c,3303,1,3315.199999999255,169966.90000000224,8004,WL,C,6.0
1,19.14299988746643,learn,40857.00011253357,Wed Sep 25 2024 09:17:18 GMT-0500 (Central Daylight Time),173465.19999999925,A,co,I,o,163,1,3498.2999999970198,169966.90000000224,8004,WL,C,6.0
1,19.41000008583069,learn,40589.99991416931,Wed Sep 25 2024 09:17:18 GMT-0500 (Central Daylight Time),173731.90000000224,A,cor,I,r,260,1,3765.0,169966.90000000224,8004,WL,C,6.0
1,19.57699990272522,learn,40423.00009727478,Wed Sep 25 2024 09:17:18 GMT-0500 (Central Daylight Time),173898.6000000015,A,corn,I,n,145,1,3931.699999999255,169966.90000000224,8004,WL,C,6.0
1,20.026999950408936,learn,39973.000049591064,Wed Sep 25 2024 09:17:18 GMT-0500 (Central Daylight Time),174348.40000000224,A,cornenter,I,enter,435,1,4381.5,169966.90000000224,8004,WL,C,6.0
1,20.4760000705719,learn,39523.9999294281,Wed Sep 25 2024 09:17:18 GMT-0500 (Central Daylight Time),174798.19999999925,A,l,I,l,441,1,449.5,174348.69999999925,8004,WL,C,7.0
1,20.66000008583069,learn,39339.99991416931,Wed Sep 25 2024 09:17:18 GMT-0500 (Central Daylight Time),174981.5,A,le,I,e,165,1,632.8000000007451,174348.69999999925,8004,WL,C,7.0
1,20.859999895095825,learn,39140.000104904175,Wed Sep 25 2024 09:17:18 GMT-0500 (Central Daylight Time),175181.40000000224,A,let,I,t,183,1,832.7000000029802,174348.69999999925,8004,WL,C,7.0
1,21.092999935150146,learn,38907.00006484985,Wed Sep 25 2024 09:17:18 GMT-0500 (Central Daylight Time),175414.90000000224,A,lett,I,t,224,1,1066.2000000029802,174348.69999999925,8004,WL,C,7.0
1,21.47699999809265,learn,38523.00000190735,Wed Sep 25 2024 09:17:18 GMT-0500 (Central Daylight Time),175799.1000000015,A,lette,I,e,367,1,1450.4000000022352,174348.69999999925,8004,WL,C,7.0
1,21.625999927520752,learn,38374.00007247925,Wed Sep 25 2024 09:17:18 GMT-0500 (Central Daylight Time),175947.90000000224,A,letter,I,r,134,1,1599.2000000029802,174348.69999999925,8004,WL,C,7.0
1,22.325999975204468,learn,37674.00002479553,Wed Sep 25 2024 09:17:18 GMT-0500 (Central Daylight Time),176647.90000000224,A,letterenter,I,enter,682,1,2299.2000000029802,174348.69999999925,8004,WL,C,7.0
1,24.95799994468689,learn,35042.00005531311,Wed Sep 25 2024 09:17:18 GMT-0500 (Central Daylight Time),179280.19999999925,A,c,I,c,2621,1,2631.699999999255,176648.5,8004,WL,C,8.0
1,25.307999849319458,learn,34692.00015068054,Wed Sep 25 2024 09:17:18 GMT-0500 (Central Daylight Time),179630.0,A,ca,I,a,341,1,2981.5,176648.5,8004,WL,C,8.0
1,25.625,learn,34375.0,Wed Sep 25 2024 09:17:18 GMT-0500 (Central Daylight Time),179946.69999999925,A,cam,I,m,303,1,3298.199999999255,176648.5,8004,WL,C,8.0
1,25.891000032424927,learn,34108.99996757507,Wed Sep 25 2024 09:17:18 GMT-0500 (Central Daylight Time),180212.90000000224,A,camp,I,p,250,1,3564.400000002235,176648.5,8004,WL,C,8.0
1,26.42199993133545,learn,33578.00006866455,Wed Sep 25 2024 09:17:18 GMT-0500 (Central Daylight Time),180743.90000000224,A,campenter,I,enter,526,1,4095.400000002235,176648.5,8004,WL,C,8.0
1,26.741999864578247,learn,33258.00013542175,Wed Sep 25 2024 09:17:18 GMT-0500 (Central Daylight Time),181064.19999999925,A,d,I,d,301,1,320.0,180744.19999999925,8004,WL,C,9.0
1,27.124000072479248,learn,32875.99992752075,Wed Sep 25 2024 09:17:18 GMT-0500 (Central Daylight Time),181446.19999999925,A,do,I,o,365,1,702.0,180744.19999999925,8004,WL,C,9.0
1,27.323999881744385,learn,32676.000118255615,Wed Sep 25 2024 09:17:18 GMT-0500 (Central Daylight Time),181646.0,A,doc,I,c,182,1,901.8000000007451,180744.19999999925,8004,WL,C,9.0
1,27.641000032424927,learn,32358.999967575073,Wed Sep 25 2024 09:17:18 GMT-0500 (Central Daylight Time),181962.69999999925,A,doct,I,t,303,1,1218.5,180744.19999999925,8004,WL,C,9.0
1,27.79099988937378,learn,32209.00011062622,Wed Sep 25 2024 09:17:18 GMT-0500 (Central Daylight Time),182112.6000000015,A,docto,I,o,139,1,1368.4000000022352,180744.19999999925,8004,WL,C,9.0
1,27.990999937057495,learn,32009.000062942505,Wed Sep 25 2024 09:17:18 GMT-0500 (Central Daylight Time),182312.6000000015,A,doctor,I,r,181,1,1568.4000000022352,180744.19999999925,8004,WL,C,9.0
1,28.223999977111816,learn,31776.000022888184,Wed Sep 25 2024 09:17:18 GMT-0500 (Central Daylight Time),182545.90000000224,A,doctorenter,I,enter,213,1,1801.7000000029802,180744.19999999925,8004,WL,C,9.0
1,33.355000019073486,learn,26644.999980926514,Wed Sep 25 2024 09:17:18 GMT-0500 (Central Daylight Time),187677.5,A,h,I,h,5116,1,5131.300000000745,182546.19999999925,8004,WL,C,10.0
1,33.65599989891052,learn,26344.000101089478,Wed Sep 25 2024 09:17:18 GMT-0500 (Central Daylight Time),187977.6000000015,A,ho,I,o,279,1,5431.400000002235,182546.19999999925,8004,WL,C,10.0
1,33.805999994277954,learn,26194.000005722046,Wed Sep 25 2024 09:17:18 GMT-0500 (Central Daylight Time),188127.6000000015,A,hou,I,u,132,1,5581.400000002235,182546.19999999925,8004,WL,C,10.0
1,33.98900008201599,learn,26010.99991798401,Wed Sep 25 2024 09:17:18 GMT-0500 (Central Daylight Time),188310.69999999925,A,hous,I,s,174,1,5764.5,182546.19999999925,8004,WL,C,10.0
1,34.138999938964844,learn,25861.000061035156,Wed Sep 25 2024 09:17:18 GMT-0500 (Central Daylight Time),188460.69999999925,A,house,I,e,143,1,5914.5,182546.19999999925,8004,WL,C,10.0
1,34.355000019073486,learn,25644.999980926514,Wed Sep 25 2024 09:17:18 GMT-0500 (Central Daylight Time),188677.30000000075,A,houseenter,I,enter,201,1,6131.10000000149,182546.19999999925,8004,WL,C,10.0
1,46.16799998283386,learn,13832.000017166138,Wed Sep 25 2024 09:17:18 GMT-0500 (Central Daylight Time),200490.19999999925,A,enter,I,enter,11800,1,11812.5,188677.69999999925,8004,WL,C,11.0
1,46.484999895095825,learn,13515.000104904175,Wed Sep 25 2024 09:17:18 GMT-0500 (Central Daylight Time),200806.90000000224,A,enter,I,enter,299,1,316.20000000298023,200490.69999999925,8004,WL,C,12.0
1,49.634000062942505,learn,10365.999937057495,Wed Sep 25 2024 09:17:18 GMT-0500 (Central Daylight Time),203956.1000000015,A,enter,I,enter,3134,1,3148.60000000149,200807.5,8004,WL,C,13.0
1,52.34999990463257,learn,7650.000095367432,Wed Sep 25 2024 09:17:18 GMT-0500 (Central Daylight Time),206671.90000000224,A,enter,I,enter,2705,1,2715.5,203956.40000000224,8004,WL,C,14.0
1,53.46600008010864,learn,6533.999919891357,Wed Sep 25 2024 09:17:18 GMT-0500 (Central Daylight Time),207787.90000000224,A,enter,I,enter,1109,1,1115.7000000029802,206672.19999999925,8004,WL,C,15.0
2,0.9839999675750732,learn,59016.00003242493,Wed Sep 25 2024 09:17:18 GMT-0500 (Central Daylight Time),279349.1000000015,A,t,I,t,969,1,983.3000000007451,278365.80000000075,8004,WL,C,1.0
2,1.2999999523162842,learn,58700.000047683716,Wed Sep 25 2024 09:17:18 GMT-0500 (Central Daylight Time),279665.1000000015,A,to,I,o,296,1,1299.300000000745,278365.80000000075,8004,WL,C,1.0
2,1.6159999370574951,learn,58384.000062942505,Wed Sep 25 2024 09:17:18 GMT-0500 (Central Daylight Time),279981.80000000075,A,tow,I,w,308,1,1616.0,278365.80000000075,8004,WL,C,1.0
2,1.933000087738037,learn,58066.99991226196,Wed Sep 25 2024 09:17:18 GMT-0500 (Central Daylight Time),280298.30000000075,A,towe,I,e,312,1,1932.5,278365.80000000075,8004,WL,C,1.0
2,2.315999984741211,learn,57684.00001525879,Wed Sep 25 2024 09:17:18 GMT-0500 (Central Daylight Time),280681.69999999925,A,tower,I,r,363,1,2315.89999999851,278365.80000000075,8004,WL,C,1.0
2,2.9660000801086426,learn,57033.99991989136,Wed Sep 25 2024 09:17:18 GMT-0500 (Central Daylight Time),281331.69999999925,A,towerenter,I,enter,644,1,2965.89999999851,278365.80000000075,8004,WL,C,1.0
2,3.3989999294281006,learn,56601.0000705719,Wed Sep 25 2024 09:17:18 GMT-0500 (Central Daylight Time),281764.69999999925,A,w,I,w,426,1,432.5,281332.19999999925,8004,WL,C,2.0
2,3.5989999771118164,learn,56401.00002288818,Wed Sep 25 2024 09:17:18 GMT-0500 (Central Daylight Time),281964.6000000015,A,wh,I,h,185,1,632.4000000022352,281332.19999999925,8004,WL,C,2.0
2,3.749000072479248,learn,56250.99992752075,Wed Sep 25 2024 09:17:18 GMT-0500 (Central Daylight Time),282114.40000000224,A,whe,I,e,145,1,782.2000000029802,281332.19999999925,8004,WL,C,2.0
2,3.9489998817443848,learn,56051.000118255615,Wed Sep 25 2024 09:17:18 GMT-0500 (Central Daylight Time),282314.5,A,whea,I,a,179,1,982.3000000007451,281332.19999999925,8004,WL,C,2.0
2,4.2820000648498535,learn,55717.99993515015,Wed Sep 25 2024 09:17:18 GMT-0500 (Central Daylight Time),282647.6000000015,A,wheat,I,t,323,1,1315.4000000022352,281332.19999999925,8004,WL,C,2.0
2,4.466000080108643,learn,55533.99991989136,Wed Sep 25 2024 09:17:18 GMT-0500 (Central Daylight Time),282830.90000000224,A,wheatenter,I,enter,174,1,1498.7000000029802,281332.19999999925,8004,WL,C,2.0
2,4.764999866485596,learn,55235.000133514404,Wed Sep 25 2024 09:17:18 GMT-0500 (Central Daylight Time),283130.69999999925,A,q,I,q,294,1,299.3999999985099,282831.30000000075,8004,WL,C,3.0
2,5.082000017166138,learn,54917.99998283386,Wed Sep 25 2024 09:17:18 GMT-0500 (Central Daylight Time),283447.5,A,qu,I,u,299,1,616.1999999992549,282831.30000000075,8004,WL,C,3.0
2,5.448999881744385,learn,54551.000118255615,Wed Sep 25 2024 09:17:18 GMT-0500 (Central Daylight Time),283814.0,A,que,I,e,350,1,982.6999999992549,282831.30000000075,8004,WL,C,3.0
2,5.631999969482422,learn,54368.00003051758,Wed Sep 25 2024 09:17:18 GMT-0500 (Central Daylight Time),283997.30000000075,A,quee,I,e,175,1,1166.0,282831.30000000075,8004,WL,C,3.0
2,5.749000072479248,learn,54250.99992752075,Wed Sep 25 2024 09:17:18 GMT-0500 (Central Daylight Time),284114.30000000075,A,queen,I,n,97,1,1283.0,282831.30000000075,8004,WL,C,3.0
2,6.0320000648498535,learn,53967.99993515015,Wed Sep 25 2024 09:17:18 GMT-0500 (Central Daylight Time),284397.1000000015,A,queenenter,I,enter,275,1,1565.800000000745,282831.30000000075,8004,WL,C,3.0
2,6.3480000495910645,learn,53651.999950408936,Wed Sep 25 2024 09:17:18 GMT-0500 (Central Daylight Time),284713.80000000075,A,s,I,s,304,1,316.30000000074506,284397.5,8004,WL,C,4.0
2,6.514999866485596,learn,53485.000133514404,Wed Sep 25 2024 09:17:18 GMT-0500 (Central Daylight Time),284880.30000000075,A,su,I,u,156,1,482.80000000074506,284397.5,8004,WL,C,4.0
2,6.764999866485596,learn,53235.000133514404,Wed Sep 25 2024 09:17:18 GMT-0500 (Central Daylight Time),285130.30000000075,A,sug,I,g,237,1,732.8000000007451,284397.5,8004,WL,C,4.0
2,7.065000057220459,learn,52934.99994277954,Wed Sep 25 2024 09:17:18 GMT-0500 (Central Daylight Time),285430.0,A,suga,I,a,291,1,1032.5,284397.5,8004,WL,C,4.0
2,7.197999954223633,learn,52802.00004577637,Wed Sep 25 2024 09:17:18 GMT-0500 (Central Daylight Time),285563.90000000224,A,sugar,I,r,119,1,1166.4000000022352,284397.5,8004,WL,C,4.0
2,7.447999954223633,learn,52552.00004577637,Wed Sep 25 2024 09:17:18 GMT-0500 (Central Daylight Time),285813.5,A,sugarenter,I,enter,234,1,1416.0,284397.5,8004,WL,C,4.0
2,7.831000089645386,learn,52168.999910354614,Wed Sep 25 2024 09:17:18 GMT-0500 (Central Daylight Time),286196.6000000015,A,h,I,h,376,1,382.80000000074506,285813.80000000075,8004,WL,C,5.0
2,7.999000072479248,learn,52000.99992752075,Wed Sep 25 2024 09:17:18 GMT-0500 (Central Daylight Time),286364.0,A,ho,I,o,161,1,550.1999999992549,285813.80000000075,8004,WL,C,5.0
2,8.381999969482422,learn,51618.00003051758,Wed Sep 25 2024 09:17:18 GMT-0500 (Central Daylight Time),286747.6000000015,A,hom,I,m,377,1,933.8000000007451,285813.80000000075,8004,WL,C,5.0
2,8.71399998664856,learn,51286.00001335144,Wed Sep 25 2024 09:17:18 GMT-0500 (Central Daylight Time),287079.69999999925,A,home,I,e,314,1,1265.8999999985099,285813.80000000075,8004,WL,C,5.0
2,9.21399998664856,learn,50786.00001335144,Wed Sep 25 2024 09:17:18 GMT-0500 (Central Daylight Time),287579.5,A,homeenter,I,enter,486,1,1765.699999999255,285813.80000000075,8004,WL,C,5.0
2,9.54699993133545,learn,50453.00006866455,Wed Sep 25 2024 09:17:18 GMT-0500 (Central Daylight Time),287912.6000000015,A,c,I,c,322,1,332.80000000074506,287579.80000000075,8004,WL,C,6.0
2,9.763999938964844,learn,50236.000061035156,Wed Sep 25 2024 09:17:18 GMT-0500 (Central Daylight Time),288129.19999999925,A,ca,I,a,205,1,549.3999999985099,287579.80000000075,8004,WL,C,6.0
2,9.914000034332275,learn,50085.999965667725,Wed Sep 25 2024 09:17:18 GMT-0500 (Central Daylight Time),288279.30000000075,A,cam,I,m,141,1,699.5,287579.80000000075,8004,WL,C,6.0
2,10.096999883651733,learn,49903.00011634827,Wed Sep 25 2024 09:17:18 GMT-0500 (Central Daylight Time),288462.6000000015,A,camp,I,p,166,1,882.8000000007451,287579.80000000075,8004,WL,C,6.0
2,10.563999891281128,learn,49436.00010871887,Wed Sep 25 2024 09:17:18 GMT-0500 (Central Daylight Time),288929.30000000075,A,campenter,I,enter,447,1,1349.5,287579.80000000075,8004,WL,C,6.0
2,11.129999876022339,learn,48870.00012397766,Wed Sep 25 2024 09:17:18 GMT-0500 (Central Daylight Time),289495.5,A,b,I,b,548,1,565.8000000007451,288929.69999999925,8004,WL,C,7.0
2,11.213000059127808,learn,48786.99994087219,Wed Sep 25 2024 09:17:18 GMT-0500 (Central Daylight Time),289578.90000000224,A,bo,I,o,70,1,649.2000000029802,288929.69999999925,8004,WL,C,7.0
2,11.397000074386597,learn,48602.9999256134,Wed Sep 25 2024 09:17:18 GMT-0500 (Central Daylight Time),289762.19999999925,A,boy,I,y,179,1,832.5,288929.69999999925,8004,WL,C,7.0
2,11.746999979019165,learn,48253.000020980835,Wed Sep 25 2024 09:17:18 GMT-0500 (Central Daylight Time),290112.0,A,boyenter,I,enter,339,1,1182.300000000745,288929.69999999925,8004,WL,C,7.0
2,12.096999883651733,learn,47903.00011634827,Wed Sep 25 2024 09:17:18 GMT-0500 (Central Daylight Time),290462.1000000015,A,f,I,f,334,1,349.9000000022352,290112.19999999925,8004,WL,C,8.0
2,12.246999979019165,learn,47753.000020980835,Wed Sep 25 2024 09:17:18 GMT-0500 (Central Daylight Time),290612.19999999925,A,fl,I,l,136,1,500.0,290112.19999999925,8004,WL,C,8.0
2,12.463000059127808,learn,47536.99994087219,Wed Sep 25 2024 09:17:18 GMT-0500 (Central Daylight Time),290828.40000000224,A,fla,I,a,209,1,716.2000000029802,290112.19999999925,8004,WL,C,8.0
2,12.812999963760376,learn,47187.000036239624,Wed Sep 25 2024 09:17:18 GMT-0500 (Central Daylight Time),291178.30000000075,A,flag,I,g,329,1,1066.1000000014901,290112.19999999925,8004,WL,C,8.0
2,13.013999938964844,learn,46986.000061035156,Wed Sep 25 2024 09:17:18 GMT-0500 (Central Daylight Time),291379.30000000075,A,flagenter,I,enter,195,1,1267.1000000014901,290112.19999999925,8004,WL,C,8.0
2,15.479000091552734,learn,44520.999908447266,Wed Sep 25 2024 09:17:18 GMT-0500 (Central Daylight Time),293844.40000000224,A,s,I,s,2458,1,2464.800000000745,291379.6000000015,8004,WL,C,9.0
2,15.678999900817871,learn,44321.00009918213,Wed Sep 25 2024 09:17:18 GMT-0500 (Central Daylight Time),294044.30000000075,A,sh,I,h,185,1,2664.699999999255,291379.6000000015,8004,WL,C,9.0
2,15.779000043869019,learn,44220.99995613098,Wed Sep 25 2024 09:17:18 GMT-0500 (Central Daylight Time),294144.19999999925,A,sho,I,o,81,1,2764.599999997765,291379.6000000015,8004,WL,C,9.0
2,15.92799997329712,learn,44072.00002670288,Wed Sep 25 2024 09:17:18 GMT-0500 (Central Daylight Time),294293.90000000224,A,shor,I,r,141,1,2914.300000000745,291379.6000000015,8004,WL,C,9.0
2,16.045000076293945,learn,43954.999923706055,Wed Sep 25 2024 09:17:18 GMT-0500 (Central Daylight Time),294410.5,A,shore,I,e,112,1,3030.89999999851,291379.6000000015,8004,WL,C,9.0
2,16.494999885559082,learn,43505.00011444092,Wed Sep 25 2024 09:17:18 GMT-0500 (Central Daylight Time),294860.6000000015,A,shoreenter,I,enter,443,1,3481.0,291379.6000000015,8004,WL,C,9.0
2,16.944999933242798,learn,43055.0000667572,Wed Sep 25 2024 09:17:18 GMT-0500 (Central Daylight Time),295310.40000000224,A,b,I,b,433,1,449.4000000022352,294861.0,8004,WL,C,10.0
2,17.111999988555908,learn,42888.00001144409,Wed Sep 25 2024 09:17:18 GMT-0500 (Central Daylight Time),295476.90000000224,A,bo,I,o,151,1,615.9000000022352,294861.0,8004,WL,C,10.0
2,17.227999925613403,learn,42772.0000743866,Wed Sep 25 2024 09:17:18 GMT-0500 (Central Daylight Time),295593.90000000224,A,bod,I,d,105,1,732.9000000022352,294861.0,8004,WL,C,10.0
2,17.42799997329712,learn,42572.00002670288,Wed Sep 25 2024 09:17:18 GMT-0500 (Central Daylight Time),295793.80000000075,A,body,I,y,180,1,932.8000000007451,294861.0,8004,WL,C,10.0
2,17.795000076293945,learn,42204.999923706055,Wed Sep 25 2024 09:17:18 GMT-0500 (Central Daylight Time),296160.1000000015,A,bodyenter,I,enter,348,1,1299.1000000014901,294861.0,8004,WL,C,10.0
2,21.543999910354614,learn,38456.000089645386,Wed Sep 25 2024 09:17:18 GMT-0500 (Central Daylight Time),299909.19999999925,A,c,I,c,3733,1,3748.7999999970198,296160.40000000224,8004,WL,C,11.0
2,21.710000038146973,learn,38289.99996185303,Wed Sep 25 2024 09:17:18 GMT-0500 (Central Daylight Time),300075.69999999925,A,co,I,o,160,1,3915.2999999970198,296160.40000000224,8004,WL,C,11.0
2,21.91000008583069,learn,38089.99991416931,Wed Sep 25 2024 09:17:18 GMT-0500 (Central Daylight Time),300275.5,A,cor,I,r,186,1,4115.099999997765,296160.40000000224,8004,WL,C,11.0
2,22.026999950408936,learn,37973.000049591064,Wed Sep 25 2024 09:17:18 GMT-0500 (Central Daylight Time),300392.5,A,corn,I,n,106,1,4232.099999997765,296160.40000000224,8004,WL,C,11.0
2,22.292999982833862,learn,37707.00001716614,Wed Sep 25 2024 09:17:18 GMT-0500 (Central Daylight Time),300658.69999999925,A,cornenter,I,enter,253,1,4498.29999999702,296160.40000000224,8004,WL,C,11.0
2,24.693000078201294,learn,35306.999921798706,Wed Sep 25 2024 09:17:18 GMT-0500 (Central Daylight Time),303058.1000000015,A,n,I,n,2379,1,2399.0,300659.1000000015,8004,WL,C,12.0
2,24.844000101089478,learn,35155.99989891052,Wed Sep 25 2024 09:17:18 GMT-0500 (Central Daylight Time),303209.1000000015,A,na,I,a,139,1,2550.0,300659.1000000015,8004,WL,C,12.0
2,25.026000022888184,learn,34973.99997711182,Wed Sep 25 2024 09:17:18 GMT-0500 (Central Daylight Time),303391.40000000224,A,nai,I,i,173,1,2732.300000000745,300659.1000000015,8004,WL,C,12.0
2,25.108999967575073,learn,34891.00003242493,Wed Sep 25 2024 09:17:18 GMT-0500 (Central Daylight Time),303474.40000000224,A,nail,I,l,78,1,2815.300000000745,300659.1000000015,8004,WL,C,12.0
2,25.52500009536743,learn,34474.99990463257,Wed Sep 25 2024 09:17:18 GMT-0500 (Central Daylight Time),303890.90000000224,A,nailenter,I,enter,411,1,3231.800000000745,300659.1000000015,8004,WL,C,12.0
2,34.956000089645386,learn,25043.999910354614,Wed Sep 25 2024 09:17:18 GMT-0500 (Central Daylight Time),313321.5,A,b,I,b,9419,1,9430.199999999255,303891.30000000075,8004,WL,C,13.0
2,35.121999979019165,learn,24878.000020980835,Wed Sep 25 2024 09:17:18 GMT-0500 (Central Daylight Time),313487.80000000075,A,bo,I,o,156,1,9596.5,303891.30000000075,8004,WL,C,13.0
2,35.25699996948242,learn,24743.000030517578,Wed Sep 25 2024 09:17:18 GMT-0500 (Central Daylight Time),313622.19999999925,A,bod,I,d,126,1,9730.89999999851,303891.30000000075,8004,WL,C,13.0
2,35.371999979019165,learn,24628.000020980835,Wed Sep 25 2024 09:17:18 GMT-0500 (Central Daylight Time),313738.1000000015,A,body,I,y,104,1,9846.800000000745,303891.30000000075,8004,WL,C,13.0
2,35.723000049591064,learn,24276.999950408936,Wed Sep 25 2024 09:17:18 GMT-0500 (Central Daylight Time),314088.1000000015,A,bodyenter,I,enter,332,1,10196.800000000745,303891.30000000075,8004,WL,C,13.0
2,42.8199999332428,learn,17180.000066757202,Wed Sep 25 2024 09:17:18 GMT-0500 (Central Daylight Time),321185.80000000075,A,enter,I,enter,7077,1,7097.39999999851,314088.40000000224,8004,WL,C,14.0
2,43.920000076293945,learn,16079.999923706055,Wed Sep 25 2024 09:17:18 GMT-0500 (Central Daylight Time),322285.1000000015,A,enter,I,enter,1082,1,1098.800000000745,321186.30000000075,8004,WL,C,15.0
3,1.179999828338623,learn,58820.00017166138,Wed Sep 25 2024 09:17:18 GMT-0500 (Central Daylight Time),392676.19999999925,A,c,I,c,1036,1,1179.199999999255,391497.0,8004,WL,C,1.0
3,1.2170000076293945,learn,58782.999992370605,Wed Sep 25 2024 09:17:18 GMT-0500 (Central Daylight Time),392713.80000000075,A,ca,I,a,32,1,1216.800000000745,391497.0,8004,WL,C,1.0
3,1.4670000076293945,learn,58532.999992370605,Wed Sep 25 2024 09:17:18 GMT-0500 (Central Daylight Time),392963.0,A,cat,I,t,242,1,1466.0,391497.0,8004,WL,C,1.0
3,1.6329998970031738,learn,58367.000102996826,Wed Sep 25 2024 09:17:18 GMT-0500 (Central Daylight Time),393129.80000000075,A,catt,I,t,155,1,1632.800000000745,391497.0,8004,WL,C,1.0
3,1.7330000400543213,learn,58266.99995994568,Wed Sep 25 2024 09:17:18 GMT-0500 (Central Daylight Time),393229.80000000075,A,cattl,I,l,92,1,1732.800000000745,391497.0,8004,WL,C,1.0
3,2.1499998569488525,learn,57850.00014305115,Wed Sep 25 2024 09:17:18 GMT-0500 (Central Daylight Time),393646.30000000075,A,cattle,I,e,408,1,2149.300000000745,391497.0,8004,WL,C,1.0
3,2.549999952316284,learn,57450.000047683716,Wed Sep 25 2024 09:17:18 GMT-0500 (Central Daylight Time),394046.30000000075,A,cattleenter,I,enter,383,1,2549.300000000745,391497.0,8004,WL,C,1.0
3,2.799999952316284,learn,57200.000047683716,Wed Sep 25 2024 09:17:18 GMT-0500 (Central Daylight Time),394296.19999999925,A,s,I,s,239,1,249.59999999776483,394046.6000000015,8004,WL,C,2.0
3,2.932999849319458,learn,57067.00015068054,Wed Sep 25 2024 09:17:18 GMT-0500 (Central Daylight Time),394429.30000000075,A,sh,I,h,125,1,382.69999999925494,394046.6000000015,8004,WL,C,2.0
3,3.0490000247955322,learn,56950.99997520447,Wed Sep 25 2024 09:17:18 GMT-0500 (Central Daylight Time),394545.80000000075,A,sho,I,o,96,1,499.19999999925494,394046.6000000015,8004,WL,C,2.0
3,3.1659998893737793,learn,56834.00011062622,Wed Sep 25 2024 09:17:18 GMT-0500 (Central Daylight Time),394662.69999999925,A,shor,I,r,108,1,616.0999999977648,394046.6000000015,8004,WL,C,2.0
3,3.2660000324249268,learn,56733.99996757507,Wed Sep 25 2024 09:17:18 GMT-0500 (Central Daylight Time),394762.5,A,shore,I,e,95,1,715.8999999985099,394046.6000000015,8004,WL,C,2.0
3,3.5160000324249268,learn,56483.99996757507,Wed Sep 25 2024 09:17:18 GMT-0500 (Central Daylight Time),395012.6000000015,A,shoreenter,I,enter,243,1,966.0,394046.6000000015,8004,WL,C,2.0
3,3.7660000324249268,learn,56233.99996757507,Wed Sep 25 2024 09:17:18 GMT-0500 (Central Daylight Time),395262.5,A,b,I,b,241,1,249.5,395013.0,8004,WL,C,3.0
3,3.9489998817443848,learn,56051.000118255615,Wed Sep 25 2024 09:17:18 GMT-0500 (Central Daylight Time),395445.80000000075,A,bo,I,o,175,1,432.80000000074506,395013.0,8004,WL,C,3.0
3,4.049000024795532,learn,55950.99997520447,Wed Sep 25 2024 09:17:18 GMT-0500 (Central Daylight Time),395545.69999999925,A,bod,I,d,80,1,532.6999999992549,395013.0,8004,WL,C,3.0
3,4.233999967575073,learn,55766.00003242493,Wed Sep 25 2024 09:17:18 GMT-0500 (Central Daylight Time),395730.0,A,body,I,y,163,1,717.0,395013.0,8004,WL,C,3.0
3,4.549000024795532,learn,55450.99997520447,Wed Sep 25 2024 09:17:18 GMT-0500 (Central Daylight Time),396045.5,A,bodyenter,I,enter,307,1,1032.5,395013.0,8004,WL,C,3.0
3,4.91700005531311,learn,55082.99994468689,Wed Sep 25 2024 09:17:18 GMT-0500 (Central Daylight Time),396413.19999999925,A,n,I,n,352,1,367.29999999701977,396045.90000000224,8004,WL,C,4.0
3,5.065000057220459,learn,54934.99994277954,Wed Sep 25 2024 09:17:18 GMT-0500 (Central Daylight Time),396561.90000000224,A,na,I,a,128,1,516.0,396045.90000000224,8004,WL,C,4.0
3,5.248999834060669,learn,54751.00016593933,Wed Sep 25 2024 09:17:18 GMT-0500 (Central Daylight Time),396745.30000000075,A,nai,I,i,164,1,699.3999999985099,396045.90000000224,8004,WL,C,4.0
3,5.348999977111816,learn,54651.00002288818,Wed Sep 25 2024 09:17:18 GMT-0500 (Central Daylight Time),396845.19999999925,A,nail,I,l,84,1,799.2999999970198,396045.90000000224,8004,WL,C,4.0
3,5.815000057220459,learn,54184.99994277954,Wed Sep 25 2024 09:17:18 GMT-0500 (Central Daylight Time),397311.80000000075,A,nailenter,I,enter,456,1,1265.8999999985099,396045.90000000224,8004,WL,C,4.0
3,9.430999994277954,learn,50569.000005722046,Wed Sep 25 2024 09:17:18 GMT-0500 (Central Daylight Time),400927.40000000224,A,t,I,t,3606,1,3615.400000002235,397312.0,8004,WL,C,5.0
3,9.664000034332275,learn,50335.999965667725,Wed Sep 25 2024 09:17:18 GMT-0500 (Central Daylight Time),401160.6000000015,A,to,I,o,214,1,3848.60000000149,397312.0,8004,WL,C,5.0
3,9.746999979019165,learn,50253.000020980835,Wed Sep 25 2024 09:17:18 GMT-0500 (Central Daylight Time),401243.69999999925,A,tow,I,w,77,1,3931.699999999255,397312.0,8004,WL,C,5.0
3,9.830999851226807,learn,50169.00014877319,Wed Sep 25 2024 09:17:18 GMT-0500 (Central Daylight Time),401327.1000000015,A,towe,I,e,74,1,4015.10000000149,397312.0,8004,WL,C,5.0
3,10.030999898910522,learn,49969.00010108948,Wed Sep 25 2024 09:17:18 GMT-0500 (Central Daylight Time),401527.19999999925,A,tower,I,r,191,1,4215.199999999255,397312.0,8004,WL,C,5.0
3,10.247999906539917,learn,49752.00009346008,Wed Sep 25 2024 09:17:18 GMT-0500 (Central Daylight Time),401744.90000000224,A,towerenter,I,enter,198,1,4432.900000002235,397312.0,8004,WL,C,5.0
3,11.562999963760376,learn,48437.000036239624,Wed Sep 25 2024 09:17:18 GMT-0500 (Central Daylight Time),403059.90000000224,A,w,I,w,1301,1,1314.6000000014901,401745.30000000075,8004,WL,C,6.0
3,11.69700002670288,learn,48302.99997329712,Wed Sep 25 2024 09:17:18 GMT-0500 (Central Daylight Time),403193.1000000015,A,wh,I,h,113,1,1447.800000000745,401745.30000000075,8004,WL,C,6.0
3,11.79699993133545,learn,48203.00006866455,Wed Sep 25 2024 09:17:18 GMT-0500 (Central Daylight Time),403293.30000000075,A,whe,I,e,92,1,1548.0,401745.30000000075,8004,WL,C,6.0
3,11.929999828338623,learn,48070.00017166138,Wed Sep 25 2024 09:17:18 GMT-0500 (Central Daylight Time),403426.6000000015,A,whea,I,a,120,1,1681.300000000745,401745.30000000075,8004,WL,C,6.0
3,12.063999891281128,learn,47936.00010871887,Wed Sep 25 2024 09:17:18 GMT-0500 (Central Daylight Time),403560.1000000015,A,wheat,I,t,115,1,1814.800000000745,401745.30000000075,8004,WL,C,6.0
3,12.345999956130981,learn,47654.00004386902,Wed Sep 25 2024 09:17:18 GMT-0500 (Central Daylight Time),403842.90000000224,A,wheatenter,I,enter,269,1,2097.60000000149,401745.30000000075,8004,WL,C,6.0
3,15.013000011444092,learn,44986.99998855591,Wed Sep 25 2024 09:17:18 GMT-0500 (Central Daylight Time),406509.0,A,q,I,q,2658,1,2665.599999997765,403843.40000000224,8004,WL,C,7.0
3,15.194999933242798,learn,44805.0000667572,Wed Sep 25 2024 09:17:18 GMT-0500 (Central Daylight Time),406692.0,A,qu,I,u,176,1,2848.599999997765,403843.40000000224,8004,WL,C,7.0
3,15.345999956130981,learn,44654.00004386902,Wed Sep 25 2024 09:17:18 GMT-0500 (Central Daylight Time),406842.1000000015,A,que,I,e,146,1,2998.699999999255,403843.40000000224,8004,WL,C,7.0
3,15.52999997138977,learn,44470.00002861023,Wed Sep 25 2024 09:17:18 GMT-0500 (Central Daylight Time),407026.69999999925,A,quee,I,e,163,1,3183.2999999970198,403843.40000000224,8004,WL,C,7.0
3,15.645999908447266,learn,44354.000091552734,Wed Sep 25 2024 09:17:18 GMT-0500 (Central Daylight Time),407142.0,A,queen,I,n,99,1,3298.599999997765,403843.40000000224,8004,WL,C,7.0
3,16.078999996185303,learn,43921.0000038147,Wed Sep 25 2024 09:17:18 GMT-0500 (Central Daylight Time),407575.19999999925,A,queenenter,I,enter,424,1,3731.7999999970198,403843.40000000224,8004,WL,C,7.0
3,16.294999837875366,learn,43705.000162124634,Wed Sep 25 2024 09:17:18 GMT-0500 (Central Daylight Time),407791.69999999925,A,s,I,s,205,1,216.0,407575.69999999925,8004,WL,C,8.0
3,16.42899990081787,learn,43571.00009918213,Wed Sep 25 2024 09:17:18 GMT-0500 (Central Daylight Time),407925.0,A,su,I,u,126,1,349.30000000074506,407575.69999999925,8004,WL,C,8.0
3,16.57799983024597,learn,43422.00016975403,Wed Sep 25 2024 09:17:18 GMT-0500 (Central Daylight Time),408074.90000000224,A,sug,I,g,144,1,499.20000000298023,407575.69999999925,8004,WL,C,8.0
3,16.777999877929688,learn,43222.00012207031,Wed Sep 25 2024 09:17:18 GMT-0500 (Central Daylight Time),408274.90000000224,A,suga,I,a,187,1,699.2000000029802,407575.69999999925,8004,WL,C,8.0
3,16.894999980926514,learn,43105.000019073486,Wed Sep 25 2024 09:17:18 GMT-0500 (Central Daylight Time),408391.6000000015,A,sugar,I,r,106,1,815.9000000022352,407575.69999999925,8004,WL,C,8.0
3,17.07799983024597,learn,42922.00016975403,Wed Sep 25 2024 09:17:18 GMT-0500 (Central Daylight Time),408574.90000000224,A,sugarenter,I,enter,166,1,999.2000000029802,407575.69999999925,8004,WL,C,8.0
3,17.361999988555908,learn,42638.00001144409,Wed Sep 25 2024 09:17:18 GMT-0500 (Central Daylight Time),408858.19999999925,A,b,I,b,278,1,282.8999999985099,408575.30000000075,8004,WL,C,9.0
3,17.51199984550476,learn,42488.00015449524,Wed Sep 25 2024 09:17:18 GMT-0500 (Central Daylight Time),409008.1000000015,A,bo,I,o,139,1,432.80000000074506,408575.30000000075,8004,WL,C,9.0
3,17.76199984550476,learn,42238.00015449524,Wed Sep 25 2024 09:17:18 GMT-0500 (Central Daylight Time),409258.1000000015,A,boy,I,y,245,1,682.8000000007451,408575.30000000075,8004,WL,C,9.0
3,18.310999870300293,learn,41689.00012969971,Wed Sep 25 2024 09:17:18 GMT-0500 (Central Daylight Time),409808.0,A,boyenter,I,enter,531,1,1232.699999999255,408575.30000000075,8004,WL,C,9.0
3,19.727999925613403,learn,40272.0000743866,Wed Sep 25 2024 09:17:18 GMT-0500 (Central Daylight Time),411224.19999999925,A,d,I,d,1406,1,1416.0,409808.19999999925,8004,WL,C,10.0
3,19.89400005340576,learn,40105.99994659424,Wed Sep 25 2024 09:17:18 GMT-0500 (Central Daylight Time),411390.69999999925,A,do,I,o,157,1,1582.5,409808.19999999925,8004,WL,C,10.0
3,19.99399995803833,learn,40006.00004196167,Wed Sep 25 2024 09:17:18 GMT-0500 (Central Daylight Time),411490.6000000015,A,doc,I,c,95,1,1682.4000000022352,409808.19999999925,8004,WL,C,10.0
3,20.210999965667725,learn,39789.000034332275,Wed Sep 25 2024 09:17:18 GMT-0500 (Central Daylight Time),411707.0,A,doct,I,t,211,1,1898.800000000745,409808.19999999925,8004,WL,C,10.0
3,20.361000061035156,learn,39638.999938964844,Wed Sep 25 2024 09:17:18 GMT-0500 (Central Daylight Time),411857.30000000075,A,docto,I,o,131,1,2049.10000000149,409808.19999999925,8004,WL,C,10.0
3,20.47699999809265,learn,39523.00000190735,Wed Sep 25 2024 09:17:18 GMT-0500 (Central Daylight Time),411973.6000000015,A,doctor,I,r,100,1,2165.400000002235,409808.19999999925,8004,WL,C,10.0
3,20.66100001335144,learn,39338.99998664856,Wed Sep 25 2024 09:17:18 GMT-0500 (Central Daylight Time),412157.0,A,doctorenter,I,enter,168,1,2348.800000000745,409808.19999999925,8004,WL,C,10.0
3,20.99399995803833,learn,39006.00004196167,Wed Sep 25 2024 09:17:18 GMT-0500 (Central Daylight Time),412490.30000000075,A,c,I,c,312,1,332.8999999985099,412157.40000000224,8004,WL,C,11.0
3,21.17799997329712,learn,38822.00002670288,Wed Sep 25 2024 09:17:18 GMT-0500 (Central Daylight Time),412674.69999999925,A,ca,I,a,163,1,517.2999999970198,412157.40000000224,8004,WL,C,11.0
3,21.3439998626709,learn,38656.0001373291,Wed Sep 25 2024 09:17:18 GMT-0500 (Central Daylight Time),412840.1000000015,A,cam,I,m,147,1,682.6999999992549,412157.40000000224,8004,WL,C,11.0
3,21.626999855041504,learn,38373.000144958496,Wed Sep 25 2024 09:17:18 GMT-0500 (Central Daylight Time),413123.5,A,camp,I,p,278,1,966.0999999977648,412157.40000000224,8004,WL,C,11.0
3,22.126999855041504,learn,37873.000144958496,Wed Sep 25 2024 09:17:18 GMT-0500 (Central Daylight Time),413623.40000000224,A,campenter,I,enter,482,1,1466.0,412157.40000000224,8004,WL,C,11.0
3,22.90999984741211,learn,37090.00015258789,Wed Sep 25 2024 09:17:18 GMT-0500 (Central Daylight Time),414406.5,A,c,I,c,766,1,782.8000000007451,413623.69999999925,8004,WL,C,12.0
3,23.07699990272522,learn,36923.00009727478,Wed Sep 25 2024 09:17:18 GMT-0500 (Central Daylight Time),414573.0,A,co,I,o,151,1,949.3000000007451,413623.69999999925,8004,WL,C,12.0
3,23.259999990463257,learn,36740.00000953674,Wed Sep 25 2024 09:17:18 GMT-0500 (Central Daylight Time),414756.30000000075,A,cor,I,r,168,1,1132.6000000014901,413623.69999999925,8004,WL,C,12.0
3,23.361000061035156,learn,36638.999938964844,Wed Sep 25 2024 09:17:18 GMT-0500 (Central Daylight Time),414857.40000000224,A,corn,I,n,89,1,1233.7000000029802,413623.69999999925,8004,WL,C,12.0
3,23.65999984741211,learn,36340.00015258789,Wed Sep 25 2024 09:17:18 GMT-0500 (Central Daylight Time),415156.19999999925,A,cornenter,I,enter,292,1,1532.5,413623.69999999925,8004,WL,C,12.0
3,24.042999982833862,learn,35957.00001716614,Wed Sep 25 2024 09:17:18 GMT-0500 (Central Daylight Time),415539.40000000224,A,l,I,l,370,1,383.0,415156.40000000224,8004,WL,C,13.0
3,24.192999839782715,learn,35807.000160217285,Wed Sep 25 2024 09:17:18 GMT-0500 (Central Daylight Time),415689.40000000224,A,le,I,e,130,1,533.0,415156.40000000224,8004,WL,C,13.0
3,24.325999975204468,learn,35674.00002479553,Wed Sep 25 2024 09:17:18 GMT-0500 (Central Daylight Time),415822.6000000015,A,let,I,t,125,1,666.1999999992549,415156.40000000224,8004,WL,C,13.0
3,24.621999979019165,learn,35378.000020980835,Wed Sep 25 2024 09:17:18 GMT-0500 (Central Daylight Time),416118.1000000015,A,lett,I,t,291,1,961.6999999992549,415156.40000000224,8004,WL,C,13.0
3,24.76900005340576,learn,35230.99994659424,Wed Sep 25 2024 09:17:18 GMT-0500 (Central Daylight Time),416265.40000000224,A,lette,I,e,142,1,1109.0,415156.40000000224,8004,WL,C,13.0
3,24.858999967575073,learn,35141.00003242493,Wed Sep 25 2024 09:17:18 GMT-0500 (Central Daylight Time),416355.6000000015,A,letter,I,r,75,1,1199.199999999255,415156.40000000224,8004,WL,C,13.0
3,25.042999982833862,learn,34957.00001716614,Wed Sep 25 2024 09:17:18 GMT-0500 (Central Daylight Time),416539.1000000015,A,letterenter,I,enter,170,1,1382.699999999255,415156.40000000224,8004,WL,C,13.0
3,25.924999952316284,learn,34075.000047683716,Wed Sep 25 2024 09:17:18 GMT-0500 (Central Daylight Time),417422.0,A,n,I,n,873,1,882.5999999977648,416539.40000000224,8004,WL,C,14.0
3,28.507999897003174,learn,31492.000102996826,Wed Sep 25 2024 09:17:18 GMT-0500 (Central Daylight Time),420004.80000000075,A,,I,backspace,2568,1,3465.39999999851,416539.40000000224,8004,WL,C,14.0
3,29.057999849319458,learn,30942.000150680542,Wed Sep 25 2024 09:17:18 GMT-0500 (Central Daylight Time),420554.69999999925,A,s,I,s,529,1,4015.2999999970198,416539.40000000224,8004,WL,C,14.0
3,29.490999937057495,learn,30509.000062942505,Wed Sep 25 2024 09:17:18 GMT-0500 (Central Daylight Time),420987.69999999925,A,sh,I,h,419,1,4448.29999999702,416539.40000000224,8004,WL,C,14.0
3,29.707000017166138,learn,30292.999982833862,Wed Sep 25 2024 09:17:18 GMT-0500 (Central Daylight Time),421204.1000000015,A,sho,I,o,210,1,4664.699999999255,416539.40000000224,8004,WL,C,14.0
3,29.872999906539917,learn,30127.000093460083,Wed Sep 25 2024 09:17:18 GMT-0500 (Central Daylight Time),421370.6000000015,A,shor,I,r,161,1,4831.199999999255,416539.40000000224,8004,WL,C,14.0
3,30.006999969482422,learn,29993.000030517578,Wed Sep 25 2024 09:17:18 GMT-0500 (Central Daylight Time),421504.1000000015,A,shore,I,e,115,1,4964.699999999255,416539.40000000224,8004,WL,C,14.0
3,30.08999991416931,learn,29910.00008583069,Wed Sep 25 2024 09:17:18 GMT-0500 (Central Daylight Time),421587.40000000224,A,shoreenter,I,enter,77,1,5048.0,416539.40000000224,8004,WL,C,14.0
3,30.389999866485596,learn,29610.000133514404,Wed Sep 25 2024 09:17:18 GMT-0500 (Central Daylight Time),421887.69999999925,A,b,I,b,282,1,300.0,421587.69999999925,8004,WL,C,15.0
3,30.573999881744385,learn,29426.000118255615,Wed Sep 25 2024 09:17:18 GMT-0500 (Central Daylight Time),422070.80000000075,A,bo,I,o,174,1,483.1000000014901,421587.69999999925,8004,WL,C,15.0
3,30.823999881744385,learn,29176.000118255615,Wed Sep 25 2024 09:17:18 GMT-0500 (Central Daylight Time),422320.69999999925,A,bod,I,d,231,1,733.0,421587.69999999925,8004,WL,C,15.0
3,30.957000017166138,learn,29042.999982833862,Wed Sep 25 2024 09:17:18 GMT-0500 (Central Daylight Time),422454.0,A,body,I,y,125,1,866.3000000007451,421587.69999999925,8004,WL,C,15.0
3,31.256999969482422,learn,28743.000030517578,Wed Sep 25 2024 09:17:18 GMT-0500 (Central Daylight Time),422753.90000000224,A,bodyenter,I,enter,288,1,1166.2000000029802,421587.69999999925,8004,WL,C,15.0
4,0.75,learn,59250.0,Wed Sep 25 2024 09:17:18 GMT-0500 (Central Daylight Time),492265.19999999925,A,t,I,t,738,1,749.2999999970198,491515.90000000224,8004,WL,C,1.0
4,1.0160000324249268,learn,58983.99996757507,Wed Sep 25 2024 09:17:18 GMT-0500 (Central Daylight Time),492532.0,A,to,I,o,251,1,1016.0999999977648,491515.90000000224,8004,WL,C,1.0
4,1.4660000801086426,learn,58533.99991989136,Wed Sep 25 2024 09:17:18 GMT-0500 (Central Daylight Time),492981.80000000075,A,tow,I,w,434,1,1465.8999999985099,491515.90000000224,8004,WL,C,1.0
4,1.7339999675750732,learn,58266.00003242493,Wed Sep 25 2024 09:17:18 GMT-0500 (Central Daylight Time),493249.5,A,towe,I,e,248,1,1733.5999999977648,491515.90000000224,8004,WL,C,1.0
4,1.9500000476837158,learn,58049.999952316284,Wed Sep 25 2024 09:17:18 GMT-0500 (Central Daylight Time),493465.0,A,tower,I,r,196,1,1949.0999999977648,491515.90000000224,8004,WL,C,1.0
4,2.4660000801086426,learn,57533.99991989136,Wed Sep 25 2024 09:17:18 GMT-0500 (Central Daylight Time),493981.6000000015,A,towerenter,I,enter,501,1,2465.699999999255,491515.90000000224,8004,WL,C,1.0
4,3.2820000648498535,learn,56717.99993515015,Wed Sep 25 2024 09:17:18 GMT-0500 (Central Daylight Time),494797.90000000224,A,w,I,w,808,1,816.0,493981.90000000224,8004,WL,C,2.0
4,3.4660000801086426,learn,56533.99991989136,Wed Sep 25 2024 09:17:18 GMT-0500 (Central Daylight Time),494980.90000000224,A,wh,I,h,176,1,999.0,493981.90000000224,8004,WL,C,2.0
4,3.565999984741211,learn,56434.00001525879,Wed Sep 25 2024 09:17:18 GMT-0500 (Central Daylight Time),495081.19999999925,A,whe,I,e,89,1,1099.2999999970198,493981.90000000224,8004,WL,C,2.0
4,3.700000047683716,learn,56299.999952316284,Wed Sep 25 2024 09:17:18 GMT-0500 (Central Daylight Time),495215.69999999925,A,whea,I,a,124,1,1233.7999999970198,493981.90000000224,8004,WL,C,2.0
4,3.931999921798706,learn,56068.000078201294,Wed Sep 25 2024 09:17:18 GMT-0500 (Central Daylight Time),495447.69999999925,A,wheat,I,t,222,1,1465.7999999970198,493981.90000000224,8004,WL,C,2.0
4,4.2820000648498535,learn,55717.99993515015,Wed Sep 25 2024 09:17:18 GMT-0500 (Central Daylight Time),495797.5,A,wheatenter,I,enter,342,1,1815.5999999977648,493981.90000000224,8004,WL,C,2.0
4,5.247999906539917,learn,54752.00009346008,Wed Sep 25 2024 09:17:18 GMT-0500 (Central Daylight Time),496763.80000000075,A,c,I,c,952,1,966.0,495797.80000000075,8004,WL,C,3.0
4,5.648000001907349,learn,54351.99999809265,Wed Sep 25 2024 09:17:18 GMT-0500 (Central Daylight Time),497163.6000000015,A,cr,I,r,386,1,1365.800000000745,495797.80000000075,8004,WL,C,3.0
4,7.563999891281128,learn,52436.00010871887,Wed Sep 25 2024 09:17:18 GMT-0500 (Central Daylight Time),499079.90000000224,A,c,I,backspace,1898,1,3282.10000000149,495797.80000000075,8004,WL,C,3.0
4,7.79800009727478,learn,52201.99990272522,Wed Sep 25 2024 09:17:18 GMT-0500 (Central Daylight Time),499313.19999999925,A,,I,backspace,222,1,3515.39999999851,495797.80000000075,8004,WL,C,3.0
4,8.313999891281128,learn,51686.00010871887,Wed Sep 25 2024 09:17:18 GMT-0500 (Central Daylight Time),499829.69999999925,A,q,I,q,509,1,4031.89999999851,495797.80000000075,8004,WL,C,3.0
4,8.680999994277954,learn,51319.000005722046,Wed Sep 25 2024 09:17:18 GMT-0500 (Central Daylight Time),500196.0,A,qu,I,u,352,1,4398.199999999255,495797.80000000075,8004,WL,C,3.0
4,8.996999979019165,learn,51003.000020980835,Wed Sep 25 2024 09:17:18 GMT-0500 (Central Daylight Time),500512.69999999925,A,que,I,e,298,1,4714.89999999851,495797.80000000075,8004,WL,C,3.0
4,9.230000019073486,learn,50769.999980926514,Wed Sep 25 2024 09:17:18 GMT-0500 (Central Daylight Time),500745.90000000224,A,quee,I,e,221,1,4948.10000000149,495797.80000000075,8004,WL,C,3.0
4,9.397000074386597,learn,50602.9999256134,Wed Sep 25 2024 09:17:18 GMT-0500 (Central Daylight Time),500912.69999999925,A,queen,I,n,156,1,5114.89999999851,495797.80000000075,8004,WL,C,3.0
4,9.77999997138977,learn,50220.00002861023,Wed Sep 25 2024 09:17:18 GMT-0500 (Central Daylight Time),501295.80000000075,A,queenenter,I,enter,373,1,5498.0,495797.80000000075,8004,WL,C,3.0
4,10.414999961853027,learn,49585.00003814697,Wed Sep 25 2024 09:17:18 GMT-0500 (Central Daylight Time),501930.0,A,s,I,s,614,1,633.8999999985099,501296.1000000015,8004,WL,C,4.0
4,10.615000009536743,learn,49384.99999046326,Wed Sep 25 2024 09:17:18 GMT-0500 (Central Daylight Time),502130.1000000015,A,su,I,u,187,1,834.0,501296.1000000015,8004,WL,C,4.0
4,10.879999876022339,learn,49120.00012397766,Wed Sep 25 2024 09:17:18 GMT-0500 (Central Daylight Time),502395.5,A,sug,I,g,259,1,1099.3999999985099,501296.1000000015,8004,WL,C,4.0
4,11.213000059127808,learn,48786.99994087219,Wed Sep 25 2024 09:17:18 GMT-0500 (Central Daylight Time),502728.69999999925,A,suga,I,a,322,1,1432.5999999977648,501296.1000000015,8004,WL,C,4.0
4,11.346999883651733,learn,48653.00011634827,Wed Sep 25 2024 09:17:18 GMT-0500 (Central Daylight Time),502862.1000000015,A,sugar,I,r,125,1,1566.0,501296.1000000015,8004,WL,C,4.0
4,11.595999956130981,learn,48404.00004386902,Wed Sep 25 2024 09:17:18 GMT-0500 (Central Daylight Time),503112.0,A,sugarenter,I,enter,232,1,1815.8999999985099,501296.1000000015,8004,WL,C,4.0
4,12.196000099182129,learn,47803.99990081787,Wed Sep 25 2024 09:17:18 GMT-0500 (Central Daylight Time),503711.80000000075,A,h,I,h,590,1,599.5,503112.30000000075,8004,WL,C,5.0
4,12.331000089645386,learn,47668.999910354614,Wed Sep 25 2024 09:17:18 GMT-0500 (Central Daylight Time),503846.1000000015,A,ho,I,o,118,1,733.8000000007451,503112.30000000075,8004,WL,C,5.0
4,12.628999948501587,learn,47371.00005149841,Wed Sep 25 2024 09:17:18 GMT-0500 (Central Daylight Time),504144.90000000224,A,hom,I,m,287,1,1032.6000000014901,503112.30000000075,8004,WL,C,5.0
4,13.095999956130981,learn,46904.00004386902,Wed Sep 25 2024 09:17:18 GMT-0500 (Central Daylight Time),504611.30000000075,A,home,I,e,461,1,1499.0,503112.30000000075,8004,WL,C,5.0
4,13.26200008392334,learn,46737.99991607666,Wed Sep 25 2024 09:17:18 GMT-0500 (Central Daylight Time),504777.90000000224,A,homeenter,I,enter,146,1,1665.6000000014901,503112.30000000075,8004,WL,C,5.0
4,13.529000043869019,learn,46470.99995613098,Wed Sep 25 2024 09:17:18 GMT-0500 (Central Daylight Time),505044.69999999925,A,b,I,b,252,1,266.5999999977648,504778.1000000015,8004,WL,C,6.0
4,13.696000099182129,learn,46303.99990081787,Wed Sep 25 2024 09:17:18 GMT-0500 (Central Daylight Time),505211.19999999925,A,bo,I,o,161,1,433.0999999977648,504778.1000000015,8004,WL,C,6.0
4,13.963000059127808,learn,46036.99994087219,Wed Sep 25 2024 09:17:18 GMT-0500 (Central Daylight Time),505478.0,A,boy,I,y,259,1,699.8999999985099,504778.1000000015,8004,WL,C,6.0
4,14.411999940872192,learn,45588.00005912781,Wed Sep 25 2024 09:17:18 GMT-0500 (Central Daylight Time),505927.90000000224,A,boyenter,I,enter,440,1,1149.800000000745,504778.1000000015,8004,WL,C,6.0
4,14.878999948501587,learn,45121.00005149841,Wed Sep 25 2024 09:17:18 GMT-0500 (Central Daylight Time),506394.0,A,d,I,d,454,1,465.80000000074506,505928.19999999925,8004,WL,C,7.0
4,15.062000036239624,learn,44937.999963760376,Wed Sep 25 2024 09:17:18 GMT-0500 (Central Daylight Time),506577.5,A,do,I,o,164,1,649.3000000007451,505928.19999999925,8004,WL,C,7.0
4,15.279000043869019,learn,44720.99995613098,Wed Sep 25 2024 09:17:18 GMT-0500 (Central Daylight Time),506794.30000000075,A,doc,I,c,204,1,866.1000000014901,505928.19999999925,8004,WL,C,7.0
4,15.611999988555908,learn,44388.00001144409,Wed Sep 25 2024 09:17:18 GMT-0500 (Central Daylight Time),507127.19999999925,A,doct,I,t,323,1,1199.0,505928.19999999925,8004,WL,C,7.0
4,15.76200008392334,learn,44237.99991607666,Wed Sep 25 2024 09:17:18 GMT-0500 (Central Daylight Time),507277.90000000224,A,docto,I,o,134,1,1349.7000000029802,505928.19999999925,8004,WL,C,7.0
4,16.07800006866455,learn,43921.99993133545,Wed Sep 25 2024 09:17:18 GMT-0500 (Central Daylight Time),507593.80000000075,A,doctor,I,r,296,1,1665.6000000014901,505928.19999999925,8004,WL,C,7.0
4,16.227999925613403,learn,43772.0000743866,Wed Sep 25 2024 09:17:18 GMT-0500 (Central Daylight Time),507743.69999999925,A,doctorenter,I,enter,132,1,1815.5,505928.19999999925,8004,WL,C,7.0
4,16.694999933242798,learn,43305.0000667572,Wed Sep 25 2024 09:17:18 GMT-0500 (Central Daylight Time),508210.19999999925,A,c,I,c,462,1,466.29999999701977,507743.90000000224,8004,WL,C,8.0
4,16.84500002861023,learn,43154.99997138977,Wed Sep 25 2024 09:17:18 GMT-0500 (Central Daylight Time),508360.30000000075,A,ca,I,a,132,1,616.3999999985099,507743.90000000224,8004,WL,C,8.0
4,17.027999877929688,learn,42972.00012207031,Wed Sep 25 2024 09:17:18 GMT-0500 (Central Daylight Time),508543.5,A,cam,I,m,165,1,799.5999999977648,507743.90000000224,8004,WL,C,8.0
4,17.26099991798401,learn,42739.00008201599,Wed Sep 25 2024 09:17:18 GMT-0500 (Central Daylight Time),508776.80000000075,A,camp,I,p,222,1,1032.8999999985099,507743.90000000224,8004,WL,C,8.0
4,17.82800006866455,learn,42171.99993133545,Wed Sep 25 2024 09:17:18 GMT-0500 (Central Daylight Time),509343.40000000224,A,campenter,I,enter,549,1,1599.5,507743.90000000224,8004,WL,C,8.0
4,18.210999965667725,learn,41789.000034332275,Wed Sep 25 2024 09:17:18 GMT-0500 (Central Daylight Time),509726.40000000224,A,f,I,f,366,1,382.6000000014901,509343.80000000075,8004,WL,C,9.0
4,18.41100001335144,learn,41588.99998664856,Wed Sep 25 2024 09:17:18 GMT-0500 (Central Daylight Time),509926.5000000037,A,fl,I,l,183,1,582.7000000029802,509343.80000000075,8004,WL,C,9.0
4,18.740000009536743,learn,41259.99999046326,Wed Sep 25 2024 09:17:18 GMT-0500 (Central Daylight Time),510255.90000000224,A,fla,I,a,325,1,912.1000000014901,509343.80000000075,8004,WL,C,9.0
4,19.80999994277954,learn,40190.00005722046,Wed Sep 25 2024 09:17:18 GMT-0500 (Central Daylight Time),511325.90000000224,A,flag,I,g,1062,1,1982.1000000014901,509343.80000000075,8004,WL,C,9.0
4,20.927000045776367,learn,39072.99995422363,Wed Sep 25 2024 09:17:18 GMT-0500 (Central Daylight Time),512442.30000000075,A,flagenter,I,enter,1104,1,3098.5,509343.80000000075,8004,WL,C,9.0
4,21.359999895095825,learn,38640.000104904175,Wed Sep 25 2024 09:17:18 GMT-0500 (Central Daylight Time),512875.5000000037,A,l,I,l,427,1,432.80000000447035,512442.69999999925,8004,WL,C,10.0
4,21.526999950408936,learn,38473.000049591064,Wed Sep 25 2024 09:17:18 GMT-0500 (Central Daylight Time),513042.19999999925,A,le,I,e,146,1,599.5,512442.69999999925,8004,WL,C,10.0
4,21.64299988746643,learn,38357.00011253357,Wed Sep 25 2024 09:17:18 GMT-0500 (Central Daylight Time),513158.90000000224,A,let,I,t,100,1,716.2000000029802,512442.69999999925,8004,WL,C,10.0
4,21.842999935150146,learn,38157.00006484985,Wed Sep 25 2024 09:17:18 GMT-0500 (Central Daylight Time),513358.69999999925,A,lett,I,t,191,1,916.0,512442.69999999925,8004,WL,C,10.0
4,22.109999895095825,learn,37890.000104904175,Wed Sep 25 2024 09:17:18 GMT-0500 (Central Daylight Time),513625.09999999776,A,lette,I,e,247,1,1182.3999999985099,512442.69999999925,8004,WL,C,10.0
4,22.193000078201294,learn,37806.999921798706,Wed Sep 25 2024 09:17:18 GMT-0500 (Central Daylight Time),513708.59999999776,A,letter,I,r,77,1,1265.8999999985099,512442.69999999925,8004,WL,C,10.0
4,22.375999927520752,learn,37624.00007247925,Wed Sep 25 2024 09:17:18 GMT-0500 (Central Daylight Time),513891.80000000075,A,letterenter,I,enter,169,1,1449.1000000014901,512442.69999999925,8004,WL,C,10.0
4,22.625999927520752,learn,37374.00007247925,Wed Sep 25 2024 09:17:18 GMT-0500 (Central Daylight Time),514141.80000000075,A,c,I,c,234,1,249.70000000298023,513892.09999999776,8004,WL,C,11.0
4,22.825999975204468,learn,37174.00002479553,Wed Sep 25 2024 09:17:18 GMT-0500 (Central Daylight Time),514341.80000000075,A,co,I,o,192,1,449.70000000298023,513892.09999999776,8004,WL,C,11.0
4,23.14299988746643,learn,36857.00011253357,Wed Sep 25 2024 09:17:18 GMT-0500 (Central Daylight Time),514658.19999999925,A,cor,I,r,304,1,766.1000000014901,513892.09999999776,8004,WL,C,11.0
4,23.342999935150146,learn,36657.00006484985,Wed Sep 25 2024 09:17:18 GMT-0500 (Central Daylight Time),514858.19999999925,A,corn,I,n,187,1,966.1000000014901,513892.09999999776,8004,WL,C,11.0
4,23.825999975204468,learn,36174.00002479553,Wed Sep 25 2024 09:17:18 GMT-0500 (Central Daylight Time),515341.30000000075,A,cornenter,I,enter,467,1,1449.2000000029802,513892.09999999776,8004,WL,C,11.0
4,24.842000007629395,learn,35157.999992370605,Wed Sep 25 2024 09:17:18 GMT-0500 (Central Daylight Time),516357.80000000075,A,c,I,c,1000,1,1016.2000000029802,515341.59999999776,8004,WL,C,12.0
4,25.27500009536743,learn,34724.99990463257,Wed Sep 25 2024 09:17:18 GMT-0500 (Central Daylight Time),516790.90000000224,A,ca,I,a,416,1,1449.3000000044703,515341.59999999776,8004,WL,C,12.0
4,25.52500009536743,learn,34474.99990463257,Wed Sep 25 2024 09:17:18 GMT-0500 (Central Daylight Time),517040.80000000075,A,cat,I,t,239,1,1699.2000000029802,515341.59999999776,8004,WL,C,12.0
4,25.691999912261963,learn,34308.00008773804,Wed Sep 25 2024 09:17:18 GMT-0500 (Central Daylight Time),517207.40000000224,A,catt,I,t,157,1,1865.8000000044703,515341.59999999776,8004,WL,C,12.0
4,25.77500009536743,learn,34224.99990463257,Wed Sep 25 2024 09:17:18 GMT-0500 (Central Daylight Time),517290.69999999925,A,cattl,I,l,78,1,1949.1000000014901,515341.59999999776,8004,WL,C,12.0
4,25.924999952316284,learn,34075.000047683716,Wed Sep 25 2024 09:17:18 GMT-0500 (Central Daylight Time),517440.90000000224,A,cattle,I,e,131,1,2099.3000000044703,515341.59999999776,8004,WL,C,12.0
4,26.125,learn,33875.0,Wed Sep 25 2024 09:17:18 GMT-0500 (Central Daylight Time),517641.0000000037,A,cattleenter,I,enter,180,1,2299.4000000059605,515341.59999999776,8004,WL,C,12.0
4,26.45799994468689,learn,33542.00005531311,Wed Sep 25 2024 09:17:18 GMT-0500 (Central Daylight Time),517973.90000000224,A,n,I,n,325,1,332.70000000298023,517641.19999999925,8004,WL,C,13.0
4,26.741999864578247,learn,33258.00013542175,Wed Sep 25 2024 09:17:18 GMT-0500 (Central Daylight Time),518257.30000000075,A,na,I,a,264,1,616.1000000014901,517641.19999999925,8004,WL,C,13.0
4,26.924999952316284,learn,33075.000047683716,Wed Sep 25 2024 09:17:18 GMT-0500 (Central Daylight Time),518440.40000000224,A,nai,I,i,164,1,799.2000000029802,517641.19999999925,8004,WL,C,13.0
4,27.058000087738037,learn,32941.99991226196,Wed Sep 25 2024 09:17:18 GMT-0500 (Central Daylight Time),518573.80000000075,A,nail,I,l,117,1,932.6000000014901,517641.19999999925,8004,WL,C,13.0
4,27.45799994468689,learn,32542.00005531311,Wed Sep 25 2024 09:17:18 GMT-0500 (Central Daylight Time),518973.59999999776,A,nailenter,I,enter,392,1,1332.3999999985099,517641.19999999925,8004,WL,C,13.0
4,27.907999992370605,learn,32092.000007629395,Wed Sep 25 2024 09:17:18 GMT-0500 (Central Daylight Time),519423.69999999925,A,s,I,s,440,1,449.69999999552965,518974.0000000037,8004,WL,C,14.0
4,28.073999881744385,learn,31926.000118255615,Wed Sep 25 2024 09:17:18 GMT-0500 (Central Daylight Time),519590.0000000037,A,sh,I,h,150,1,616.0,518974.0000000037,8004,WL,C,14.0
4,28.174999952316284,learn,31825.000047683716,Wed Sep 25 2024 09:17:18 GMT-0500 (Central Daylight Time),519690.09999999776,A,sho,I,o,80,1,716.0999999940395,518974.0000000037,8004,WL,C,14.0
4,28.341000080108643,learn,31658.999919891357,Wed Sep 25 2024 09:17:18 GMT-0500 (Central Daylight Time),519856.80000000075,A,shor,I,r,156,1,882.7999999970198,518974.0000000037,8004,WL,C,14.0
4,28.47499990463257,learn,31525.00009536743,Wed Sep 25 2024 09:17:18 GMT-0500 (Central Daylight Time),519990.0000000037,A,shore,I,e,117,1,1016.0,518974.0000000037,8004,WL,C,14.0
4,28.891000032424927,learn,31108.999967575073,Wed Sep 25 2024 09:17:18 GMT-0500 (Central Daylight Time),520406.40000000224,A,shoreenter,I,enter,400,1,1432.3999999985099,518974.0000000037,8004,WL,C,14.0
4,29.256999969482422,learn,30743.000030517578,Wed Sep 25 2024 09:17:18 GMT-0500 (Central Daylight Time),520772.90000000224,A,b,I,b,352,1,366.20000000298023,520406.69999999925,8004,WL,C,15.0
4,29.374000072479248,learn,30625.999927520752,Wed Sep 25 2024 09:17:18 GMT-0500 (Central Daylight Time),520889.5000000037,A,bo,I,o,104,1,482.80000000447035,520406.69999999925,8004,WL,C,15.0
4,29.5239999294281,learn,30476.0000705719,Wed Sep 25 2024 09:17:18 GMT-0500 (Central Daylight Time),521039.59999999776,A,bod,I,d,132,1,632.8999999985099,520406.69999999925,8004,WL,C,15.0
4,29.69099998474121,learn,30309.00001525879,Wed Sep 25 2024 09:17:18 GMT-0500 (Central Daylight Time),521206.40000000224,A,body,I,y,158,1,799.7000000029802,520406.69999999925,8004,WL,C,15.0
4,29.94099998474121,learn,30059.00001525879,Wed Sep 25 2024 09:17:18 GMT-0500 (Central Daylight Time),521456.09999999776,A,bodyenter,I,enter,239,1,1049.3999999985099,520406.69999999925,8004,WL,C,15.0
5,1.4499998092651367,learn,60000.0,Wed Sep 25 2024 09:17:18 GMT-0500 (Central Daylight Time),589501.5999999978,A,t,I,t,1442,1,1449.5999999940395,588052.0000000037,8004,WL,C,1.0
5,1.6659998893737793,learn,60000.0,Wed Sep 25 2024 09:17:18 GMT-0500 (Central Daylight Time),589717.9000000022,A,to,I,o,200,1,1665.8999999985099,588052.0000000037,8004,WL,C,1.0
5,1.8659999370574951,learn,60000.0,Wed Sep 25 2024 09:17:18 GMT-0500 (Central Daylight Time),589918.0000000037,A,tow,I,w,184,1,1866.0,588052.0000000037,8004,WL,C,1.0
5,1.9659998416900635,learn,60000.0,Wed Sep 25 2024 09:17:18 GMT-0500 (Central Daylight Time),590018.0000000037,A,towe,I,e,87,1,1966.0,588052.0000000037,8004,WL,C,1.0
5,2.2009999752044678,learn,60000.0,Wed Sep 25 2024 09:17:18 GMT-0500 (Central Daylight Time),590252.3000000007,A,tower,I,r,228,1,2200.2999999970198,588052.0000000037,8004,WL,C,1.0
5,2.5159997940063477,learn,60000.0,Wed Sep 25 2024 09:17:18 GMT-0500 (Central Daylight Time),590568.0000000037,A,towerenter,I,enter,305,1,2516.0,588052.0000000037,8004,WL,C,1.0
5,2.865999937057495,learn,60000.0,Wed Sep 25 2024 09:17:18 GMT-0500 (Central Daylight Time),590917.6999999993,A,w,I,w,334,1,349.3999999985099,590568.3000000007,8004,WL,C,2.0
5,3.182999849319458,learn,60000.0,Wed Sep 25 2024 09:17:18 GMT-0500 (Central Daylight Time),591234.1999999993,A,wh,I,h,296,1,665.8999999985099,590568.3000000007,8004,WL,C,2.0
5,3.3329999446868896,learn,60000.0,Wed Sep 25 2024 09:17:18 GMT-0500 (Central Daylight Time),591384.1999999993,A,whe,I,e,140,1,815.8999999985099,590568.3000000007,8004,WL,C,2.0
5,3.482999801635742,learn,60000.0,Wed Sep 25 2024 09:17:18 GMT-0500 (Central Daylight Time),591534.3000000007,A,whea,I,a,133,1,966.0,590568.3000000007,8004,WL,C,2.0
5,3.6659998893737793,learn,60000.0,Wed Sep 25 2024 09:17:18 GMT-0500 (Central Daylight Time),591717.6999999993,A,wheat,I,t,167,1,1149.3999999985099,590568.3000000007,8004,WL,C,2.0
5,3.7829999923706055,learn,60000.0,Wed Sep 25 2024 09:17:18 GMT-0500 (Central Daylight Time),591834.1999999993,A,wheatenter,I,enter,112,1,1265.8999999985099,590568.3000000007,8004,WL,C,2.0
5,4.181999921798706,learn,60000.0,Wed Sep 25 2024 09:17:18 GMT-0500 (Central Daylight Time),592234.0000000037,A,q,I,q,380,1,399.6000000014901,591834.4000000022,8004,WL,C,3.0
5,4.348999977111816,learn,60000.0,Wed Sep 25 2024 09:17:18 GMT-0500 (Central Daylight Time),592400.5000000037,A,qu,I,u,156,1,566.1000000014901,591834.4000000022,8004,WL,C,3.0
5,4.5,learn,60000.0,Wed Sep 25 2024 09:17:18 GMT-0500 (Central Daylight Time),592551.5999999978,A,que,I,e,133,1,717.1999999955297,591834.4000000022,8004,WL,C,3.0
5,4.664999961853027,learn,60000.0,Wed Sep 25 2024 09:17:18 GMT-0500 (Central Daylight Time),592716.9000000022,A,quee,I,e,150,1,882.5,591834.4000000022,8004,WL,C,3.0
5,4.848999977111816,learn,60000.0,Wed Sep 25 2024 09:17:18 GMT-0500 (Central Daylight Time),592900.5000000037,A,queen,I,n,168,1,1066.1000000014901,591834.4000000022,8004,WL,C,3.0
5,5.098999977111816,learn,60000.0,Wed Sep 25 2024 09:17:18 GMT-0500 (Central Daylight Time),593150.3000000007,A,queenenter,I,enter,241,1,1315.8999999985099,591834.4000000022,8004,WL,C,3.0
5,5.315999984741211,learn,60000.0,Wed Sep 25 2024 09:17:18 GMT-0500 (Central Daylight Time),593367.0999999978,A,s,I,s,199,1,216.39999999850988,593150.6999999993,8004,WL,C,4.0
5,5.766999959945679,learn,60000.0,Wed Sep 25 2024 09:17:18 GMT-0500 (Central Daylight Time),593818.0999999978,A,su,I,u,439,1,667.3999999985099,593150.6999999993,8004,WL,C,4.0
5,5.931999921798706,learn,60000.0,Wed Sep 25 2024 09:17:18 GMT-0500 (Central Daylight Time),593983.4000000022,A,sug,I,g,147,1,832.7000000029802,593150.6999999993,8004,WL,C,4.0
5,6.2149999141693115,learn,60000.0,Wed Sep 25 2024 09:17:18 GMT-0500 (Central Daylight Time),594266.5999999978,A,suga,I,a,270,1,1115.8999999985099,593150.6999999993,8004,WL,C,4.0
5,6.48199987411499,learn,60000.0,Wed Sep 25 2024 09:17:18 GMT-0500 (Central Daylight Time),594533.0999999978,A,sugar,I,r,251,1,1382.3999999985099,593150.6999999993,8004,WL,C,4.0
5,6.648000001907349,learn,60000.0,Wed Sep 25 2024 09:17:18 GMT-0500 (Central Daylight Time),594699.9000000022,A,sugarenter,I,enter,152,1,1549.2000000029802,593150.6999999993,8004,WL,C,4.0
5,6.98199987411499,learn,60000.0,Wed Sep 25 2024 09:17:18 GMT-0500 (Central Daylight Time),595033.1999999993,A,h,I,h,322,1,333.0,594700.1999999993,8004,WL,C,5.0
5,7.115000009536743,learn,60000.0,Wed Sep 25 2024 09:17:18 GMT-0500 (Central Daylight Time),595166.3000000007,A,ho,I,o,125,1,466.1000000014901,594700.1999999993,8004,WL,C,5.0
5,7.515999794006348,learn,60000.0,Wed Sep 25 2024 09:17:18 GMT-0500 (Central Daylight Time),595567.4000000022,A,hoe,I,e,383,1,867.2000000029802,594700.1999999993,8004,WL,C,5.0
5,8.097999811172485,learn,60000.0,Wed Sep 25 2024 09:17:18 GMT-0500 (Central Daylight Time),596149.1999999993,A,ho,I,backspace,566,1,1449.0,594700.1999999993,8004,WL,C,5.0
5,8.413999795913696,learn,60000.0,Wed Sep 25 2024 09:17:18 GMT-0500 (Central Daylight Time),596466.0000000037,A,hom,I,m,297,1,1765.8000000044703,594700.1999999993,8004,WL,C,5.0
5,8.597999811172485,learn,60000.0,Wed Sep 25 2024 09:17:18 GMT-0500 (Central Daylight Time),596649.1999999993,A,home,I,e,172,1,1949.0,594700.1999999993,8004,WL,C,5.0
5,9.328999996185303,learn,60000.0,Wed Sep 25 2024 09:17:18 GMT-0500 (Central Daylight Time),597382.3000000007,A,homeb,I,b,725,1,2682.10000000149,594700.1999999993,8004,WL,C,5.0
5,10.128999948501587,learn,60000.0,Wed Sep 25 2024 09:17:18 GMT-0500 (Central Daylight Time),598181.9000000022,A,home,I,backspace,791,1,3481.7000000029802,594700.1999999993,8004,WL,C,5.0
5,11.644999980926514,learn,60000.0,Wed Sep 25 2024 09:17:18 GMT-0500 (Central Daylight Time),599698.0999999978,A,homeenter,I,enter,1512,1,4997.89999999851,594700.1999999993,8004,WL,C,5.0
5,12.544999837875366,learn,60000.0,Wed Sep 25 2024 09:17:18 GMT-0500 (Central Daylight Time),600598.0000000037,A,b,I,b,884,1,899.7000000029802,599698.3000000007,8004,WL,C,6.0
5,12.727999925613403,learn,60000.0,Wed Sep 25 2024 09:17:18 GMT-0500 (Central Daylight Time),600781.3000000007,A,bo,I,o,176,1,1083.0,599698.3000000007,8004,WL,C,6.0
5,13.061999797821045,learn,60000.0,Wed Sep 25 2024 09:17:18 GMT-0500 (Central Daylight Time),601114.5999999978,A,boy,I,y,312,1,1416.2999999970198,599698.3000000007,8004,WL,C,6.0
5,13.42799997329712,learn,60000.0,Wed Sep 25 2024 09:17:18 GMT-0500 (Central Daylight Time),601481.0000000037,A,boyenter,I,enter,347,1,1782.7000000029802,599698.3000000007,8004,WL,C,6.0
5,13.84499979019165,learn,60000.0,Wed Sep 25 2024 09:17:18 GMT-0500 (Central Daylight Time),601897.4000000022,A,d,I,d,397,1,416.1000000014901,601481.3000000007,8004,WL,C,7.0
5,14.210999965667725,learn,60000.0,Wed Sep 25 2024 09:17:18 GMT-0500 (Central Daylight Time),602264.0999999978,A,do,I,o,348,1,782.7999999970198,601481.3000000007,8004,WL,C,7.0
5,14.377999782562256,learn,60000.0,Wed Sep 25 2024 09:17:18 GMT-0500 (Central Daylight Time),602430.6999999993,A,doc,I,c,158,1,949.3999999985099,601481.3000000007,8004,WL,C,7.0
5,14.694000005722046,learn,60000.0,Wed Sep 25 2024 09:17:18 GMT-0500 (Central Daylight Time),602747.3000000007,A,doct,I,t,303,1,1266.0,601481.3000000007,8004,WL,C,7.0
5,14.893999814987183,learn,60000.0,Wed Sep 25 2024 09:17:18 GMT-0500 (Central Daylight Time),602947.0000000037,A,docto,I,o,194,1,1465.7000000029802,601481.3000000007,8004,WL,C,7.0
5,15.293999910354614,learn,60000.0,Wed Sep 25 2024 09:17:18 GMT-0500 (Central Daylight Time),603346.9000000022,A,doctor,I,r,394,1,1865.6000000014901,601481.3000000007,8004,WL,C,7.0
5,15.67799997329712,learn,60000.0,Wed Sep 25 2024 09:17:18 GMT-0500 (Central Daylight Time),603730.4000000022,A,doctorenter,I,enter,363,1,2249.10000000149,601481.3000000007,8004,WL,C,7.0
5,16.710999965667725,learn,60000.0,Wed Sep 25 2024 09:17:18 GMT-0500 (Central Daylight Time),604763.3000000007,A,c,I,c,1027,1,1032.7000000029802,603730.5999999978,8004,WL,C,8.0
5,16.893999814987183,learn,60000.0,Wed Sep 25 2024 09:17:18 GMT-0500 (Central Daylight Time),604946.6999999993,A,ca,I,a,170,1,1216.1000000014901,603730.5999999978,8004,WL,C,8.0
5,16.97699999809265,learn,60000.0,Wed Sep 25 2024 09:17:18 GMT-0500 (Central Daylight Time),605030.0999999978,A,cam,I,m,67,1,1299.5,603730.5999999978,8004,WL,C,8.0
5,17.24399995803833,learn,60000.0,Wed Sep 25 2024 09:17:18 GMT-0500 (Central Daylight Time),605296.4000000022,A,camp,I,p,248,1,1565.8000000044703,603730.5999999978,8004,WL,C,8.0
5,17.626999855041504,learn,60000.0,Wed Sep 25 2024 09:17:18 GMT-0500 (Central Daylight Time),605679.9000000022,A,campenter,I,enter,365,1,1949.3000000044703,603730.5999999978,8004,WL,C,8.0
5,17.944000005722046,learn,60000.0,Wed Sep 25 2024 09:17:18 GMT-0500 (Central Daylight Time),605996.3000000007,A,f,I,f,310,1,316.0,605680.3000000007,8004,WL,C,9.0
5,18.0939998626709,learn,60000.0,Wed Sep 25 2024 09:17:18 GMT-0500 (Central Daylight Time),606146.4000000022,A,fl,I,l,137,1,466.1000000014901,605680.3000000007,8004,WL,C,9.0
5,18.22699999809265,learn,60000.0,Wed Sep 25 2024 09:17:18 GMT-0500 (Central Daylight Time),606279.5000000037,A,fla,I,a,123,1,599.2000000029802,605680.3000000007,8004,WL,C,9.0
5,18.526999950408936,learn,60000.0,Wed Sep 25 2024 09:17:18 GMT-0500 (Central Daylight Time),606579.5000000037,A,flag,I,g,294,1,899.2000000029802,605680.3000000007,8004,WL,C,9.0
5,20.675999879837036,learn,60000.0,Wed Sep 25 2024 09:17:18 GMT-0500 (Central Daylight Time),608728.5999999978,A,flagenter,I,enter,2138,1,3048.2999999970198,605680.3000000007,8004,WL,C,9.0
5,21.825999975204468,learn,60000.0,Wed Sep 25 2024 09:17:18 GMT-0500 (Central Daylight Time),609878.5000000037,A,l,I,l,1141,1,1149.5,608729.0000000037,8004,WL,C,10.0
5,21.941999912261963,learn,60000.0,Wed Sep 25 2024 09:17:18 GMT-0500 (Central Daylight Time),609994.8000000007,A,le,I,e,103,1,1265.7999999970198,608729.0000000037,8004,WL,C,10.0
5,22.05900001525879,learn,60000.0,Wed Sep 25 2024 09:17:18 GMT-0500 (Central Daylight Time),610111.8000000007,A,let,I,t,99,1,1382.7999999970198,608729.0000000037,8004,WL,C,10.0
5,22.22499990463257,learn,60000.0,Wed Sep 25 2024 09:17:18 GMT-0500 (Central Daylight Time),610278.1999999993,A,lett,I,t,158,1,1549.1999999955297,608729.0000000037,8004,WL,C,10.0
5,22.408999919891357,learn,60000.0,Wed Sep 25 2024 09:17:18 GMT-0500 (Central Daylight Time),610461.5000000037,A,lette,I,e,168,1,1732.5,608729.0000000037,8004,WL,C,10.0
5,22.54199981689453,learn,60000.0,Wed Sep 25 2024 09:17:18 GMT-0500 (Central Daylight Time),610594.9000000022,A,letter,I,r,120,1,1865.8999999985099,608729.0000000037,8004,WL,C,10.0
5,22.72599983215332,learn,60000.0,Wed Sep 25 2024 09:17:18 GMT-0500 (Central Daylight Time),610779.1999999993,A,letterenter,I,enter,171,1,2050.1999999955297,608729.0000000037,8004,WL,C,10.0
5,22.90999984741211,learn,60000.0,Wed Sep 25 2024 09:17:18 GMT-0500 (Central Daylight Time),610962.5999999978,A,c,I,c,170,1,183.19999999552965,610779.4000000022,8004,WL,C,11.0
5,23.074999809265137,learn,60000.0,Wed Sep 25 2024 09:17:18 GMT-0500 (Central Daylight Time),611128.1999999993,A,co,I,o,147,1,348.79999999701977,610779.4000000022,8004,WL,C,11.0
5,23.274999856948853,learn,60000.0,Wed Sep 25 2024 09:17:18 GMT-0500 (Central Daylight Time),611328.0999999978,A,cor,I,r,190,1,548.6999999955297,610779.4000000022,8004,WL,C,11.0
5,23.491999864578247,learn,60000.0,Wed Sep 25 2024 09:17:18 GMT-0500 (Central Daylight Time),611544.5000000037,A,corn,I,n,198,1,765.1000000014901,610779.4000000022,8004,WL,C,11.0
5,25.390999794006348,learn,60000.0,Wed Sep 25 2024 09:17:18 GMT-0500 (Central Daylight Time),613443.9000000022,A,cornenter,I,enter,1885,1,2664.5,610779.4000000022,8004,WL,C,11.0
5,26.04099988937378,learn,60000.0,Wed Sep 25 2024 09:17:18 GMT-0500 (Central Daylight Time),614093.6999999993,A,n,I,n,642,1,649.3999999985099,613444.3000000007,8004,WL,C,12.0
5,26.19099998474121,learn,60000.0,Wed Sep 25 2024 09:17:18 GMT-0500 (Central Daylight Time),614243.6999999993,A,na,I,a,144,1,799.3999999985099,613444.3000000007,8004,WL,C,12.0
5,26.37399983406067,learn,60000.0,Wed Sep 25 2024 09:17:18 GMT-0500 (Central Daylight Time),614426.9000000022,A,nai,I,i,178,1,982.6000000014901,613444.3000000007,8004,WL,C,12.0
5,26.45699977874756,learn,60000.0,Wed Sep 25 2024 09:17:18 GMT-0500 (Central Daylight Time),614510.3000000007,A,nail,I,l,75,1,1066.0,613444.3000000007,8004,WL,C,12.0
5,26.95699977874756,learn,60000.0,Wed Sep 25 2024 09:17:18 GMT-0500 (Central Daylight Time),615010.1999999993,A,nailenter,I,enter,480,1,1565.8999999985099,613444.3000000007,8004,WL,C,12.0
5,27.35699987411499,learn,60000.0,Wed Sep 25 2024 09:17:18 GMT-0500 (Central Daylight Time),615410.0999999978,A,c,I,c,380,1,399.59999999403954,615010.5000000037,8004,WL,C,13.0
5,27.506999969482422,learn,60000.0,Wed Sep 25 2024 09:17:18 GMT-0500 (Central Daylight Time),615560.0000000037,A,ca,I,a,132,1,549.5,615010.5000000037,8004,WL,C,13.0
5,27.673999786376953,learn,60000.0,Wed Sep 25 2024 09:17:18 GMT-0500 (Central Daylight Time),615726.5999999978,A,cat,I,t,150,1,716.0999999940395,615010.5000000037,8004,WL,C,13.0
5,27.85699987411499,learn,60000.0,Wed Sep 25 2024 09:17:18 GMT-0500 (Central Daylight Time),615910.0000000037,A,catt,I,t,167,1,899.5,615010.5000000037,8004,WL,C,13.0
5,28.0239999294281,learn,60000.0,Wed Sep 25 2024 09:17:18 GMT-0500 (Central Daylight Time),616076.4000000022,A,cattl,I,l,152,1,1065.8999999985099,615010.5000000037,8004,WL,C,13.0
5,28.306999921798706,learn,60000.0,Wed Sep 25 2024 09:17:18 GMT-0500 (Central Daylight Time),616359.8000000007,A,cattle,I,e,274,1,1349.2999999970198,615010.5000000037,8004,WL,C,13.0
5,28.639999866485596,learn,60000.0,Wed Sep 25 2024 09:17:18 GMT-0500 (Central Daylight Time),616693.0000000037,A,cattleenter,I,enter,326,1,1682.5,615010.5000000037,8004,WL,C,13.0
5,29.872999906539917,learn,60000.0,Wed Sep 25 2024 09:17:18 GMT-0500 (Central Daylight Time),617926.0999999978,A,s,I,s,1216,1,1232.7999999970198,616693.3000000007,8004,WL,C,14.0
5,30.00599980354309,learn,60000.0,Wed Sep 25 2024 09:17:18 GMT-0500 (Central Daylight Time),618059.0999999978,A,sh,I,h,119,1,1365.7999999970198,616693.3000000007,8004,WL,C,14.0
5,30.08999991416931,learn,60000.0,Wed Sep 25 2024 09:17:18 GMT-0500 (Central Daylight Time),618142.4000000022,A,sho,I,o,74,1,1449.1000000014901,616693.3000000007,8004,WL,C,14.0
5,30.240000009536743,learn,60000.0,Wed Sep 25 2024 09:17:18 GMT-0500 (Central Daylight Time),618292.4000000022,A,shor,I,r,135,1,1599.1000000014901,616693.3000000007,8004,WL,C,14.0
5,30.322999954223633,learn,60000.0,Wed Sep 25 2024 09:17:18 GMT-0500 (Central Daylight Time),618376.0999999978,A,shore,I,e,65,1,1682.7999999970198,616693.3000000007,8004,WL,C,14.0
5,30.539999961853027,learn,60000.0,Wed Sep 25 2024 09:17:18 GMT-0500 (Central Daylight Time),618592.5999999978,A,shoreenter,I,enter,198,1,1899.2999999970198,616693.3000000007,8004,WL,C,14.0
5,31.12399983406067,learn,60000.0,Wed Sep 25 2024 09:17:18 GMT-0500 (Central Daylight Time),619176.6999999993,A,b,I,b,573,1,583.7999999970198,618592.9000000022,8004,WL,C,15.0
5,31.25599980354309,learn,60000.0,Wed Sep 25 2024 09:17:18 GMT-0500 (Central Daylight Time),619308.9000000022,A,bo,I,o,125,1,716.0,618592.9000000022,8004,WL,C,15.0
5,31.372999906539917,learn,60000.0,Wed Sep 25 2024 09:17:18 GMT-0500 (Central Daylight Time),619425.5999999978,A,bod,I,d,105,1,832.6999999955297,618592.9000000022,8004,WL,C,15.0
5,31.52300000190735,learn,60000.0,Wed Sep 25 2024 09:17:18 GMT-0500 (Central Daylight Time),619575.5000000037,A,body,I,y,140,1,982.6000000014901,618592.9000000022,8004,WL,C,15.0
5,31.75599980354309,learn,60000.0,Wed Sep 25 2024 09:17:18 GMT-0500 (Central Daylight Time),619808.5999999978,A,bodyenter,I,enter,214,1,1215.6999999955297,618592.9000000022,8004,WL,C,15.0
6,0.7999999523162842,distr,59200.000047683716,Wed Sep 25 2024 09:17:18 GMT-0500 (Central Daylight Time),694085.3000000007,B,s,I,s,785,1,799.7999999970198,693285.5000000037,8004,WL,C,1.0
6,0.9500000476837158,distr,59049.999952316284,Wed Sep 25 2024 09:17:18 GMT-0500 (Central Daylight Time),694235.0999999978,B,sk,I,k,136,1,949.5999999940395,693285.5000000037,8004,WL,C,1.0
6,1.2839999198913574,distr,58716.00008010864,Wed Sep 25 2024 09:17:18 GMT-0500 (Central Daylight Time),694568.5999999978,B,sky,I,y,314,1,1283.0999999940395,693285.5000000037,8004,WL,C,1.0
6,1.5839998722076416,distr,58416.00012779236,Wed Sep 25 2024 09:17:18 GMT-0500 (Central Daylight Time),694869.0000000037,B,skyenter,I,enter,293,1,1583.5,693285.5000000037,8004,WL,C,1.0
6,2.066999912261963,distr,57933.00008773804,Wed Sep 25 2024 09:17:18 GMT-0500 (Central Daylight Time),695351.9000000022,B,d,I,d,464,1,482.5,694869.4000000022,8004,WL,C,2.0
6,2.315999984741211,distr,57684.00001525879,Wed Sep 25 2024 09:17:18 GMT-0500 (Central Daylight Time),695601.1999999993,B,do,I,o,238,1,731.7999999970198,694869.4000000022,8004,WL,C,2.0
6,2.6499998569488525,distr,57350.00014305115,Wed Sep 25 2024 09:17:18 GMT-0500 (Central Daylight Time),695934.8000000007,B,dol,I,l,325,1,1065.3999999985099,694869.4000000022,8004,WL,C,2.0
6,2.8499999046325684,distr,57150.00009536743,Wed Sep 25 2024 09:17:18 GMT-0500 (Central Daylight Time),696134.6999999993,B,doll,I,l,191,1,1265.2999999970198,694869.4000000022,8004,WL,C,2.0
6,3.132999897003174,distr,56867.000102996826,Wed Sep 25 2024 09:17:18 GMT-0500 (Central Daylight Time),696417.9000000022,B,dolla,I,a,271,1,1548.5,694869.4000000022,8004,WL,C,2.0
6,3.2330000400543213,distr,56766.99995994568,Wed Sep 25 2024 09:17:18 GMT-0500 (Central Daylight Time),696518.0000000037,B,dollar,I,r,92,1,1648.6000000014901,694869.4000000022,8004,WL,C,2.0
6,3.7159998416900635,distr,56284.00015830994,Wed Sep 25 2024 09:17:18 GMT-0500 (Central Daylight Time),697001.0999999978,B,dollarv,I,v,472,1,2131.6999999955297,694869.4000000022,8004,WL,C,2.0
6,3.9830000400543213,distr,56016.99995994568,Wed Sep 25 2024 09:17:18 GMT-0500 (Central Daylight Time),697267.5999999978,B,dollarva,I,a,260,1,2398.1999999955297,694869.4000000022,8004,WL,C,2.0
6,4.415999889373779,distr,55584.00011062622,Wed Sep 25 2024 09:17:18 GMT-0500 (Central Daylight Time),697701.0000000037,B,dollarv,I,backspace,426,1,2831.60000000149,694869.4000000022,8004,WL,C,2.0
6,4.631999969482422,distr,55368.00003051758,Wed Sep 25 2024 09:17:18 GMT-0500 (Central Daylight Time),697917.5000000037,B,dollar,I,backspace,209,1,3048.10000000149,694869.4000000022,8004,WL,C,2.0
6,4.948999881744385,distr,55051.000118255615,Wed Sep 25 2024 09:17:18 GMT-0500 (Central Daylight Time),698234.0999999978,B,dollarenter,I,enter,304,1,3364.6999999955297,694869.4000000022,8004,WL,C,2.0
6,5.5320000648498535,distr,54467.99993515015,Wed Sep 25 2024 09:17:18 GMT-0500 (Central Daylight Time),698816.8000000007,B,v,I,v,572,1,582.3999999985099,698234.4000000022,8004,WL,C,3.0
6,5.799000024795532,distr,54200.99997520447,Wed Sep 25 2024 09:17:18 GMT-0500 (Central Daylight Time),699083.8000000007,B,va,I,a,253,1,849.3999999985099,698234.4000000022,8004,WL,C,3.0
6,5.948999881744385,distr,54051.000118255615,Wed Sep 25 2024 09:17:18 GMT-0500 (Central Daylight Time),699234.4000000022,B,val,I,l,146,1,1000.0,698234.4000000022,8004,WL,C,3.0
6,6.131999969482422,distr,53868.00003051758,Wed Sep 25 2024 09:17:18 GMT-0500 (Central Daylight Time),699416.8000000007,B,vall,I,l,171,1,1182.3999999985099,698234.4000000022,8004,WL,C,3.0
6,6.382999897003174,distr,53617.000102996826,Wed Sep 25 2024 09:17:18 GMT-0500 (Central Daylight Time),699668.1999999993,B,valle,I,e,237,1,1433.7999999970198,698234.4000000022,8004,WL,C,3.0
6,6.5320000648498535,distr,53467.99993515015,Wed Sep 25 2024 09:17:18 GMT-0500 (Central Daylight Time),699816.9000000022,B,valley,I,y,138,1,1582.5,698234.4000000022,8004,WL,C,3.0
6,7.148000001907349,distr,52851.99999809265,Wed Sep 25 2024 09:17:18 GMT-0500 (Central Daylight Time),700433.4000000022,B,valleyenter,I,enter,597,1,2199.0,698234.4000000022,8004,WL,C,3.0
6,8.664000034332275,distr,51335.999965667725,Wed Sep 25 2024 09:17:18 GMT-0500 (Central Daylight Time),701949.4000000022,B,h,I,h,1501,1,1515.7000000029802,700433.6999999993,8004,WL,C,4.0
6,8.848000049591064,distr,51151.999950408936,Wed Sep 25 2024 09:17:18 GMT-0500 (Central Daylight Time),702132.8000000007,B,ha,I,a,176,1,1699.1000000014901,700433.6999999993,8004,WL,C,4.0
6,9.047999858856201,distr,50952.0001411438,Wed Sep 25 2024 09:17:18 GMT-0500 (Central Daylight Time),702332.6999999993,B,hal,I,l,193,1,1899.0,700433.6999999993,8004,WL,C,4.0
6,9.280999898910522,distr,50719.00010108948,Wed Sep 25 2024 09:17:18 GMT-0500 (Central Daylight Time),702565.9000000022,B,hall,I,l,225,1,2132.2000000029802,700433.6999999993,8004,WL,C,4.0
6,10.13100004196167,distr,49868.99995803833,Wed Sep 25 2024 09:17:18 GMT-0500 (Central Daylight Time),703415.6999999993,B,hallenter,I,enter,840,1,2982.0,700433.6999999993,8004,WL,C,4.0
6,10.69700002670288,distr,49302.99997329712,Wed Sep 25 2024 09:17:18 GMT-0500 (Central Daylight Time),703982.0999999978,B,w,I,w,558,1,566.0,703416.0999999978,8004,WL,C,5.0
6,10.829999923706055,distr,49170.000076293945,Wed Sep 25 2024 09:17:18 GMT-0500 (Central Daylight Time),704115.4000000022,B,wi,I,i,120,1,699.3000000044703,703416.0999999978,8004,WL,C,5.0
6,11.063999891281128,distr,48936.00010871887,Wed Sep 25 2024 09:17:18 GMT-0500 (Central Daylight Time),704348.8000000007,B,win,I,n,218,1,932.7000000029802,703416.0999999978,8004,WL,C,5.0
6,11.263999938964844,distr,48736.000061035156,Wed Sep 25 2024 09:17:18 GMT-0500 (Central Daylight Time),704548.9000000022,B,wint,I,t,193,1,1132.8000000044703,703416.0999999978,8004,WL,C,5.0
6,11.52999997138977,distr,48470.00002861023,Wed Sep 25 2024 09:17:18 GMT-0500 (Central Daylight Time),704815.0999999978,B,winte,I,e,249,1,1399.0,703416.0999999978,8004,WL,C,5.0
6,11.680000066757202,distr,48319.9999332428,Wed Sep 25 2024 09:17:18 GMT-0500 (Central Daylight Time),704965.0999999978,B,winter,I,r,135,1,1549.0,703416.0999999978,8004,WL,C,5.0
6,11.930000066757202,distr,48069.9999332428,Wed Sep 25 2024 09:17:18 GMT-0500 (Central Daylight Time),705215.0000000037,B,winterenter,I,enter,241,1,1798.9000000059605,703416.0999999978,8004,WL,C,5.0
6,12.414000034332275,distr,47585.999965667725,Wed Sep 25 2024 09:17:18 GMT-0500 (Central Daylight Time),705699.5000000037,B,c,I,c,471,1,484.20000000298023,705215.3000000007,8004,WL,C,6.0
6,12.596999883651733,distr,47403.00011634827,Wed Sep 25 2024 09:17:18 GMT-0500 (Central Daylight Time),705881.5000000037,B,ch,I,h,162,1,666.2000000029802,705215.3000000007,8004,WL,C,6.0
6,12.69599986076355,distr,47304.00013923645,Wed Sep 25 2024 09:17:18 GMT-0500 (Central Daylight Time),705981.4000000022,B,chr,I,r,84,1,766.1000000014901,705215.3000000007,8004,WL,C,6.0
6,12.812999963760376,distr,47187.000036239624,Wed Sep 25 2024 09:17:18 GMT-0500 (Central Daylight Time),706098.0000000037,B,chri,I,i,104,1,882.7000000029802,705215.3000000007,8004,WL,C,6.0
6,12.930000066757202,distr,47069.9999332428,Wed Sep 25 2024 09:17:18 GMT-0500 (Central Daylight Time),706214.9000000022,B,chris,I,s,100,1,999.6000000014901,705215.3000000007,8004,WL,C,6.0
6,13.047999858856201,distr,46952.0001411438,Wed Sep 25 2024 09:17:18 GMT-0500 (Central Daylight Time),706332.6999999993,B,christ,I,t,111,1,1117.3999999985099,705215.3000000007,8004,WL,C,6.0
6,13.579999923706055,distr,46420.000076293945,Wed Sep 25 2024 09:17:18 GMT-0500 (Central Daylight Time),706864.5999999978,B,christm,I,m,513,1,1649.2999999970198,705215.3000000007,8004,WL,C,6.0
6,13.878999948501587,distr,46121.00005149841,Wed Sep 25 2024 09:17:18 GMT-0500 (Central Daylight Time),707164.5000000037,B,christma,I,a,285,1,1949.2000000029802,705215.3000000007,8004,WL,C,6.0
6,14.562999963760376,distr,45437.000036239624,Wed Sep 25 2024 09:17:18 GMT-0500 (Central Daylight Time),707847.8000000007,B,christmas,I,s,673,1,2632.5,705215.3000000007,8004,WL,C,6.0
6,15.01199984550476,distr,44988.00015449524,Wed Sep 25 2024 09:17:18 GMT-0500 (Central Daylight Time),708297.4000000022,B,christmasenter,I,enter,430,1,3082.10000000149,705215.3000000007,8004,WL,C,6.0
6,15.44700002670288,distr,44552.99997329712,Wed Sep 25 2024 09:17:18 GMT-0500 (Central Daylight Time),708731.5999999978,B,d,I,d,428,1,433.8999999985099,708297.6999999993,8004,WL,C,7.0
6,15.628999948501587,distr,44371.00005149841,Wed Sep 25 2024 09:17:18 GMT-0500 (Central Daylight Time),708914.1999999993,B,di,I,i,162,1,616.5,708297.6999999993,8004,WL,C,7.0
6,15.728999853134155,distr,44271.000146865845,Wed Sep 25 2024 09:17:18 GMT-0500 (Central Daylight Time),709013.9000000022,B,dia,I,a,91,1,716.2000000029802,708297.6999999993,8004,WL,C,7.0
6,15.928999900817871,distr,44071.00009918213,Wed Sep 25 2024 09:17:18 GMT-0500 (Central Daylight Time),709213.8000000007,B,diam,I,m,192,1,916.1000000014901,708297.6999999993,8004,WL,C,7.0
6,16.078999996185303,distr,43921.0000038147,Wed Sep 25 2024 09:17:18 GMT-0500 (Central Daylight Time),709364.0000000037,B,diamo,I,o,144,1,1066.3000000044703,708297.6999999993,8004,WL,C,7.0
6,16.27900004386902,distr,43720.99995613098,Wed Sep 25 2024 09:17:18 GMT-0500 (Central Daylight Time),709563.9000000022,B,diamon,I,n,186,1,1266.2000000029802,708297.6999999993,8004,WL,C,7.0
6,17.194999933242798,distr,42805.0000667572,Wed Sep 25 2024 09:17:18 GMT-0500 (Central Daylight Time),710480.0000000037,B,diamond,I,d,906,1,2182.3000000044703,708297.6999999993,8004,WL,C,7.0
6,17.57800006866455,distr,42421.99993133545,Wed Sep 25 2024 09:17:18 GMT-0500 (Central Daylight Time),710863.4000000022,B,diamondenter,I,enter,374,1,2565.7000000029802,708297.6999999993,8004,WL,C,7.0
6,18.044999837875366,distr,41955.000162124634,Wed Sep 25 2024 09:17:18 GMT-0500 (Central Daylight Time),711329.9000000022,B,m,I,m,447,1,466.20000000298023,710863.6999999993,8004,WL,C,8.0
6,18.194999933242798,distr,41805.0000667572,Wed Sep 25 2024 09:17:18 GMT-0500 (Central Daylight Time),711479.9000000022,B,me,I,e,132,1,616.2000000029802,710863.6999999993,8004,WL,C,8.0
6,18.310999870300293,distr,41689.00012969971,Wed Sep 25 2024 09:17:18 GMT-0500 (Central Daylight Time),711596.4000000022,B,mea,I,a,102,1,732.7000000029802,710863.6999999993,8004,WL,C,8.0
6,18.460999965667725,distr,41539.000034332275,Wed Sep 25 2024 09:17:18 GMT-0500 (Central Daylight Time),711746.1999999993,B,meat,I,t,145,1,882.5,710863.6999999993,8004,WL,C,8.0
6,18.76099991798401,distr,41239.00008201599,Wed Sep 25 2024 09:17:18 GMT-0500 (Central Daylight Time),712046.4000000022,B,meatenter,I,enter,292,1,1182.7000000029802,710863.6999999993,8004,WL,C,8.0
6,19.32800006866455,distr,40671.99993133545,Wed Sep 25 2024 09:17:18 GMT-0500 (Central Daylight Time),712612.9000000022,B,t,I,t,559,1,566.2000000029802,712046.6999999993,8004,WL,C,9.0
6,19.51099991798401,distr,40489.00008201599,Wed Sep 25 2024 09:17:18 GMT-0500 (Central Daylight Time),712795.9000000022,B,to,I,o,169,1,749.2000000029802,712046.6999999993,8004,WL,C,9.0
6,19.694000005722046,distr,40305.999994277954,Wed Sep 25 2024 09:17:18 GMT-0500 (Central Daylight Time),712979.5000000037,B,too,I,o,178,1,932.8000000044703,712046.6999999993,8004,WL,C,9.0
6,20.294999837875366,distr,39705.000162124634,Wed Sep 25 2024 09:17:18 GMT-0500 (Central Daylight Time),713580.1999999993,B,tool,I,l,594,1,1533.5,712046.6999999993,8004,WL,C,9.0
6,20.727999925613403,distr,39272.0000743866,Wed Sep 25 2024 09:17:18 GMT-0500 (Central Daylight Time),714012.5999999978,B,toolenter,I,enter,418,1,1965.8999999985099,712046.6999999993,8004,WL,C,9.0
6,22.89299988746643,distr,37107.00011253357,Wed Sep 25 2024 09:17:18 GMT-0500 (Central Daylight Time),716178.5000000037,B,m,I,m,2145,1,2165.60000000149,714012.9000000022,8004,WL,C,10.0
6,23.026999950408936,distr,36973.000049591064,Wed Sep 25 2024 09:17:18 GMT-0500 (Central Daylight Time),716311.9000000022,B,mo,I,o,123,1,2299.0,714012.9000000022,8004,WL,C,10.0
6,23.175999879837036,distr,36824.000120162964,Wed Sep 25 2024 09:17:18 GMT-0500 (Central Daylight Time),716461.3000000007,B,mot,I,t,134,1,2448.39999999851,714012.9000000022,8004,WL,C,10.0
6,23.30999994277954,distr,36690.00005722046,Wed Sep 25 2024 09:17:18 GMT-0500 (Central Daylight Time),716594.6999999993,B,moth,I,h,121,1,2581.7999999970198,714012.9000000022,8004,WL,C,10.0
6,23.442999839782715,distr,36557.000160217285,Wed Sep 25 2024 09:17:18 GMT-0500 (Central Daylight Time),716728.0000000037,B,mothe,I,e,115,1,2715.10000000149,714012.9000000022,8004,WL,C,10.0
6,23.575999975204468,distr,36424.00002479553,Wed Sep 25 2024 09:17:18 GMT-0500 (Central Daylight Time),716861.4000000022,B,mother,I,r,125,1,2848.5,714012.9000000022,8004,WL,C,10.0
6,23.776000022888184,distr,36223.99997711182,Wed Sep 25 2024 09:17:18 GMT-0500 (Central Daylight Time),717061.3000000007,B,motherenter,I,enter,184,1,3048.39999999851,714012.9000000022,8004,WL,C,10.0
6,25.97499990463257,distr,34025.00009536743,Wed Sep 25 2024 09:17:18 GMT-0500 (Central Daylight Time),719260.9000000022,B,enter,I,enter,2184,1,2199.3000000044703,717061.5999999978,8004,WL,C,11.0
6,26.407999992370605,distr,33592.000007629395,Wed Sep 25 2024 09:17:18 GMT-0500 (Central Daylight Time),719694.0999999978,B,enter,I,enter,417,1,432.8999999985099,719261.1999999993,8004,WL,C,12.0
6,26.69099998474121,distr,33309.00001525879,Wed Sep 25 2024 09:17:18 GMT-0500 (Central Daylight Time),719977.1999999993,B,enter,I,enter,264,1,282.79999999701977,719694.4000000022,8004,WL,C,13.0
6,27.090999841690063,distr,32909.00015830994,Wed Sep 25 2024 09:17:18 GMT-0500 (Central Daylight Time),720377.1999999993,B,enter,I,enter,381,1,399.69999999552965,719977.5000000037,8004,WL,C,14.0
6,27.5239999294281,distr,32476.0000705719,Wed Sep 25 2024 09:17:18 GMT-0500 (Central Daylight Time),720810.3000000007,B,enter,I,enter,413,1,432.79999999701977,720377.5000000037,8004,WL,C,15.0
7,0.5659999847412109,immed,59434.00001525879,Wed Sep 25 2024 09:17:18 GMT-0500 (Central Daylight Time),735339.0999999978,A,t,I,t,554,1,566.3999999985099,734772.6999999993,8004,WL,C,1.0
7,0.7990000247955322,immed,59200.99997520447,Wed Sep 25 2024 09:17:18 GMT-0500 (Central Daylight Time),735572.1999999993,A,to,I,o,226,1,799.5,734772.6999999993,8004,WL,C,1.0
7,0.9830000400543213,immed,59016.99995994568,Wed Sep 25 2024 09:17:18 GMT-0500 (Central Daylight Time),735755.6999999993,A,tow,I,w,170,1,983.0,734772.6999999993,8004,WL,C,1.0
7,1.065999984741211,immed,58934.00001525879,Wed Sep 25 2024 09:17:18 GMT-0500 (Central Daylight Time),735838.9000000022,A,towe,I,e,74,1,1066.2000000029802,734772.6999999993,8004,WL,C,1.0
7,1.2160000801086426,immed,58783.99991989136,Wed Sep 25 2024 09:17:18 GMT-0500 (Central Daylight Time),735989.0000000037,A,tower,I,r,135,1,1216.3000000044703,734772.6999999993,8004,WL,C,1.0
7,1.5490000247955322,immed,58450.99997520447,Wed Sep 25 2024 09:17:18 GMT-0500 (Central Daylight Time),736322.0999999978,A,towerenter,I,enter,312,1,1549.3999999985099,734772.6999999993,8004,WL,C,1.0
7,2.115999937057495,immed,57884.000062942505,Wed Sep 25 2024 09:17:18 GMT-0500 (Central Daylight Time),736888.5000000037,A,w,I,w,548,1,566.1000000014901,736322.4000000022,8004,WL,C,2.0
7,2.2820000648498535,immed,57717.99993515015,Wed Sep 25 2024 09:17:18 GMT-0500 (Central Daylight Time),737055.0000000037,A,wh,I,h,157,1,732.6000000014901,736322.4000000022,8004,WL,C,2.0
7,2.4149999618530273,immed,57585.00003814697,Wed Sep 25 2024 09:17:18 GMT-0500 (Central Daylight Time),737188.3000000007,A,whe,I,e,119,1,865.8999999985099,736322.4000000022,8004,WL,C,2.0
7,2.5490000247955322,immed,57450.99997520447,Wed Sep 25 2024 09:17:18 GMT-0500 (Central Daylight Time),737321.9000000022,A,whea,I,a,113,1,999.5,736322.4000000022,8004,WL,C,2.0
7,2.700000047683716,immed,57299.999952316284,Wed Sep 25 2024 09:17:18 GMT-0500 (Central Daylight Time),737472.8000000007,A,wheat,I,t,132,1,1150.3999999985099,736322.4000000022,8004,WL,C,2.0
7,2.8489999771118164,immed,57151.00002288818,Wed Sep 25 2024 09:17:18 GMT-0500 (Central Daylight Time),737621.6999999993,A,wheatenter,I,enter,141,1,1299.2999999970198,736322.4000000022,8004,WL,C,2.0
7,3.1649999618530273,immed,56835.00003814697,Wed Sep 25 2024 09:17:18 GMT-0500 (Central Daylight Time),737938.0999999978,A,q,I,q,304,1,316.19999999552965,737621.9000000022,8004,WL,C,3.0
7,3.381999969482422,immed,56618.00003051758,Wed Sep 25 2024 09:17:18 GMT-0500 (Central Daylight Time),738154.9000000022,A,qu,I,u,203,1,533.0,737621.9000000022,8004,WL,C,3.0
7,3.5320000648498535,immed,56467.99993515015,Wed Sep 25 2024 09:17:18 GMT-0500 (Central Daylight Time),738304.8000000007,A,que,I,e,131,1,682.8999999985099,737621.9000000022,8004,WL,C,3.0
7,3.997999906539917,immed,56002.00009346008,Wed Sep 25 2024 09:17:18 GMT-0500 (Central Daylight Time),738771.3000000007,A,quee,I,e,453,1,1149.3999999985099,737621.9000000022,8004,WL,C,3.0
7,4.098999977111816,immed,55901.00002288818,Wed Sep 25 2024 09:17:18 GMT-0500 (Central Daylight Time),738871.4000000022,A,queen,I,n,82,1,1249.5,737621.9000000022,8004,WL,C,3.0
7,4.315000057220459,immed,55684.99994277954,Wed Sep 25 2024 09:17:18 GMT-0500 (Central Daylight Time),739087.9000000022,A,queenenter,I,enter,198,1,1466.0,737621.9000000022,8004,WL,C,3.0
7,4.447999954223633,immed,55552.00004577637,Wed Sep 25 2024 09:17:18 GMT-0500 (Central Daylight Time),739221.1999999993,A,s,I,s,125,1,133.0,739088.1999999993,8004,WL,C,4.0
7,4.580999851226807,immed,55419.00014877319,Wed Sep 25 2024 09:17:18 GMT-0500 (Central Daylight Time),739354.1999999993,A,su,I,u,128,1,266.0,739088.1999999993,8004,WL,C,4.0
7,4.7820000648498535,immed,55217.99993515015,Wed Sep 25 2024 09:17:18 GMT-0500 (Central Daylight Time),739554.4000000022,A,sug,I,g,188,1,466.20000000298023,739088.1999999993,8004,WL,C,4.0
7,5.13100004196167,immed,54868.99995803833,Wed Sep 25 2024 09:17:18 GMT-0500 (Central Daylight Time),739904.3000000007,A,suga,I,a,331,1,816.1000000014901,739088.1999999993,8004,WL,C,4.0
7,5.180999994277954,immed,54819.000005722046,Wed Sep 25 2024 09:17:18 GMT-0500 (Central Daylight Time),739954.1999999993,A,sugar,I,r,45,1,866.0,739088.1999999993,8004,WL,C,4.0
7,5.398000001907349,immed,54601.99999809265,Wed Sep 25 2024 09:17:18 GMT-0500 (Central Daylight Time),740170.8000000007,A,sugarenter,I,enter,204,1,1082.6000000014901,739088.1999999993,8004,WL,C,4.0
7,5.648000001907349,immed,54351.99999809265,Wed Sep 25 2024 09:17:18 GMT-0500 (Central Daylight Time),740420.9000000022,A,h,I,h,243,1,249.80000000447035,740171.0999999978,8004,WL,C,5.0
7,5.797999858856201,immed,54202.0001411438,Wed Sep 25 2024 09:17:18 GMT-0500 (Central Daylight Time),740570.5999999978,A,ho,I,o,137,1,399.5,740171.0999999978,8004,WL,C,5.0
7,6.065000057220459,immed,53934.99994277954,Wed Sep 25 2024 09:17:18 GMT-0500 (Central Daylight Time),740837.5000000037,A,hom,I,m,251,1,666.4000000059605,740171.0999999978,8004,WL,C,5.0
7,6.46399998664856,immed,53536.00001335144,Wed Sep 25 2024 09:17:18 GMT-0500 (Central Daylight Time),741237.0999999978,A,home,I,e,384,1,1066.0,740171.0999999978,8004,WL,C,5.0
7,7.079999923706055,immed,52920.000076293945,Wed Sep 25 2024 09:17:18 GMT-0500 (Central Daylight Time),741853.1999999993,A,homeenter,I,enter,607,1,1682.1000000014901,740171.0999999978,8004,WL,C,5.0
7,7.613999843597412,immed,52386.00015640259,Wed Sep 25 2024 09:17:18 GMT-0500 (Central Daylight Time),742386.6999999993,A,b,I,b,528,1,533.1999999955297,741853.5000000037,8004,WL,C,6.0
7,7.746999979019165,immed,52253.000020980835,Wed Sep 25 2024 09:17:18 GMT-0500 (Central Daylight Time),742520.1999999993,A,bo,I,o,123,1,666.6999999955297,741853.5000000037,8004,WL,C,6.0
7,7.914000034332275,immed,52085.999965667725,Wed Sep 25 2024 09:17:18 GMT-0500 (Central Daylight Time),742686.5999999978,A,boy,I,y,158,1,833.0999999940395,741853.5000000037,8004,WL,C,6.0
7,8.21399998664856,immed,51786.00001335144,Wed Sep 25 2024 09:17:18 GMT-0500 (Central Daylight Time),742986.5999999978,A,boyenter,I,enter,286,1,1133.0999999940395,741853.5000000037,8004,WL,C,6.0
7,8.513999938964844,immed,51486.000061035156,Wed Sep 25 2024 09:17:18 GMT-0500 (Central Daylight Time),743286.5999999978,A,d,I,d,291,1,299.69999999552965,742986.9000000022,8004,WL,C,7.0
7,8.648000001907349,immed,51351.99999809265,Wed Sep 25 2024 09:17:18 GMT-0500 (Central Daylight Time),743420.5999999978,A,do,I,o,127,1,433.69999999552965,742986.9000000022,8004,WL,C,7.0
7,8.763000011444092,immed,51236.99998855591,Wed Sep 25 2024 09:17:18 GMT-0500 (Central Daylight Time),743536.3000000007,A,doc,I,c,97,1,549.3999999985099,742986.9000000022,8004,WL,C,7.0
7,8.94700002670288,immed,51052.99997329712,Wed Sep 25 2024 09:17:18 GMT-0500 (Central Daylight Time),743720.0000000037,A,doct,I,t,165,1,733.1000000014901,742986.9000000022,8004,WL,C,7.0
7,9.062999963760376,immed,50937.000036239624,Wed Sep 25 2024 09:17:18 GMT-0500 (Central Daylight Time),743836.0999999978,A,docto,I,o,102,1,849.1999999955297,742986.9000000022,8004,WL,C,7.0
7,9.19700002670288,immed,50802.99997329712,Wed Sep 25 2024 09:17:18 GMT-0500 (Central Daylight Time),743969.5999999978,A,doctor,I,r,114,1,982.6999999955297,742986.9000000022,8004,WL,C,7.0
7,9.77999997138977,immed,50220.00002861023,Wed Sep 25 2024 09:17:18 GMT-0500 (Central Daylight Time),744552.6999999993,A,doctorenter,I,enter,564,1,1565.7999999970198,742986.9000000022,8004,WL,C,7.0
7,9.963000059127808,immed,50036.99994087219,Wed Sep 25 2024 09:17:18 GMT-0500 (Central Daylight Time),744736.0000000037,A,c,I,c,173,1,182.90000000596046,744553.0999999978,8004,WL,C,8.0
7,10.079999923706055,immed,49920.000076293945,Wed Sep 25 2024 09:17:18 GMT-0500 (Central Daylight Time),744852.6999999993,A,ca,I,a,102,1,299.6000000014901,744553.0999999978,8004,WL,C,8.0
7,10.263000011444092,immed,49736.99998855591,Wed Sep 25 2024 09:17:18 GMT-0500 (Central Daylight Time),745036.0000000037,A,cam,I,m,177,1,482.90000000596046,744553.0999999978,8004,WL,C,8.0
7,10.546000003814697,immed,49453.9999961853,Wed Sep 25 2024 09:17:18 GMT-0500 (Central Daylight Time),745319.3000000007,A,camp,I,p,274,1,766.2000000029802,744553.0999999978,8004,WL,C,8.0
7,10.940999984741211,immed,49059.00001525879,Wed Sep 25 2024 09:17:18 GMT-0500 (Central Daylight Time),745714.3000000007,A,campenter,I,enter,391,1,1161.2000000029802,744553.0999999978,8004,WL,C,8.0
7,11.147000074386597,immed,48852.9999256134,Wed Sep 25 2024 09:17:18 GMT-0500 (Central Daylight Time),745920.0999999978,A,f,I,f,187,1,205.39999999850988,745714.6999999993,8004,WL,C,9.0
7,11.246000051498413,immed,48753.99994850159,Wed Sep 25 2024 09:17:18 GMT-0500 (Central Daylight Time),746018.6999999993,A,fl,I,l,93,1,304.0,745714.6999999993,8004,WL,C,9.0
7,11.36299991607666,immed,48637.00008392334,Wed Sep 25 2024 09:17:18 GMT-0500 (Central Daylight Time),746135.6999999993,A,fla,I,a,107,1,421.0,745714.6999999993,8004,WL,C,9.0
7,11.546000003814697,immed,48453.9999961853,Wed Sep 25 2024 09:17:18 GMT-0500 (Central Daylight Time),746319.0000000037,A,flag,I,g,174,1,604.3000000044703,745714.6999999993,8004,WL,C,9.0
7,13.711999893188477,immed,46288.00010681152,Wed Sep 25 2024 09:17:18 GMT-0500 (Central Daylight Time),748485.0000000037,A,flagenter,I,enter,2151,1,2770.3000000044703,745714.6999999993,8004,WL,C,9.0
7,14.494999885559082,immed,45505.00011444092,Wed Sep 25 2024 09:17:18 GMT-0500 (Central Daylight Time),749268.1999999993,A,l,I,l,777,1,782.8999999985099,748485.3000000007,8004,WL,C,10.0
7,14.611999988555908,immed,45388.00001144409,Wed Sep 25 2024 09:17:18 GMT-0500 (Central Daylight Time),749384.6999999993,A,le,I,e,106,1,899.3999999985099,748485.3000000007,8004,WL,C,10.0
7,14.694999933242798,immed,45305.0000667572,Wed Sep 25 2024 09:17:18 GMT-0500 (Central Daylight Time),749468.0000000037,A,let,I,t,69,1,982.7000000029802,748485.3000000007,8004,WL,C,10.0
7,14.861999988555908,immed,45138.00001144409,Wed Sep 25 2024 09:17:18 GMT-0500 (Central Daylight Time),749634.4000000022,A,lett,I,t,146,1,1149.1000000014901,748485.3000000007,8004,WL,C,10.0
7,14.977999925613403,immed,45022.0000743866,Wed Sep 25 2024 09:17:18 GMT-0500 (Central Daylight Time),749751.0999999978,A,lette,I,e,100,1,1265.7999999970198,748485.3000000007,8004,WL,C,10.0
7,15.444999933242798,immed,44555.0000667572,Wed Sep 25 2024 09:17:18 GMT-0500 (Central Daylight Time),750217.6999999993,A,letter,I,r,455,1,1732.3999999985099,748485.3000000007,8004,WL,C,10.0
7,15.628000020980835,immed,44371.999979019165,Wed Sep 25 2024 09:17:18 GMT-0500 (Central Daylight Time),750401.0000000037,A,letterenter,I,enter,172,1,1915.7000000029802,748485.3000000007,8004,WL,C,10.0
7,15.994999885559082,immed,44005.00011444092,Wed Sep 25 2024 09:17:18 GMT-0500 (Central Daylight Time),750767.5000000037,A,c,I,c,349,1,366.20000000298023,750401.3000000007,8004,WL,C,11.0
7,16.128999948501587,immed,43871.00005149841,Wed Sep 25 2024 09:17:18 GMT-0500 (Central Daylight Time),750901.6999999993,A,co,I,o,118,1,500.3999999985099,750401.3000000007,8004,WL,C,11.0
7,16.277999877929688,immed,43722.00012207031,Wed Sep 25 2024 09:17:18 GMT-0500 (Central Daylight Time),751050.8000000007,A,cor,I,r,136,1,649.5,750401.3000000007,8004,WL,C,11.0
7,16.460999965667725,immed,43539.000034332275,Wed Sep 25 2024 09:17:18 GMT-0500 (Central Daylight Time),751234.4000000022,A,corn,I,n,179,1,833.1000000014901,750401.3000000007,8004,WL,C,11.0
7,16.777999877929688,immed,43222.00012207031,Wed Sep 25 2024 09:17:18 GMT-0500 (Central Daylight Time),751550.5999999978,A,cornenter,I,enter,300,1,1149.2999999970198,750401.3000000007,8004,WL,C,11.0
7,17.060999870300293,immed,42939.00012969971,Wed Sep 25 2024 09:17:18 GMT-0500 (Central Daylight Time),751833.9000000022,A,n,I,n,271,1,283.1000000014901,751550.8000000007,8004,WL,C,12.0
