block_c,block_dur,condition,countdown,datetime,endtime,list,multichar_response,project,response,response_time,session_number,start_end,starttime,subject_id,task,task_vers,trial
,,,,Fri Nov 22 2024 15:38:13 GMT-0600 (Central Standard Time),,,,I,space,419,2,,,8004,WL,A,
prac,,0,,Fri Nov 22 2024 15:38:13 GMT-0600 (Central Standard Time),,NA,b,I,b,8696,2,,,8004,WL,A,1.0
prac,,0,,Fri Nov 22 2024 15:38:13 GMT-0600 (Central Standard Time),,NA,bo,I,o,489,2,,,8004,WL,A,1.0
prac,,0,,Fri Nov 22 2024 15:38:13 GMT-0600 (Central Standard Time),,NA,boo,I,o,190,2,,,8004,WL,A,1.0
prac,,0,,Fri Nov 22 2024 15:38:13 GMT-0600 (Central Standard Time),,NA,boos,I,s,151,2,,,8004,WL,A,1.0
prac,,0,,Fri Nov 22 2024 15:38:13 GMT-0600 (Central Standard Time),,NA,boost,I,t,144,2,,,8004,WL,A,1.0
prac,,0,,Fri Nov 22 2024 15:38:13 GMT-0600 (Central Standard Time),,NA,boostenter,I,enter,2898,2,,,8004,WL,A,1.0
1,0.8999998569488525,learn,59100.00014305115,Fri Nov 22 2024 15:38:13 GMT-0600 (Central Standard Time),142802.5,A,b,I,b,886,2,899.5,141903.0,8004,WL,A,1.0
1,1.2330000400543213,learn,58766.99995994568,Fri Nov 22 2024 15:38:13 GMT-0600 (Central Standard Time),143135.70000000298,A,bo,I,o,322,2,1232.7000000029802,141903.0,8004,WL,A,1.0
1,1.4659998416900635,learn,58534.00015830994,Fri Nov 22 2024 15:38:13 GMT-0600 (Central Standard Time),143368.79999999702,A,boo,I,o,213,2,1465.7999999970198,141903.0,8004,WL,A,1.0
1,1.815999984741211,learn,58184.00001525879,Fri Nov 22 2024 15:38:13 GMT-0600 (Central Standard Time),143718.6000000015,A,book,I,k,332,2,1815.6000000014901,141903.0,8004,WL,A,1.0
1,2.365999937057495,learn,57634.000062942505,Fri Nov 22 2024 15:38:13 GMT-0600 (Central Standard Time),144268.5,A,bookenter,I,enter,542,2,2365.5,141903.0,8004,WL,A,1.0
1,3.0160000324249268,learn,56983.99996757507,Fri Nov 22 2024 15:38:13 GMT-0600 (Central Standard Time),144918.29999999702,A,f,I,f,631,2,649.1999999955297,144269.1000000015,8004,WL,A,2.0
1,3.2319998741149902,learn,56768.00012588501,Fri Nov 22 2024 15:38:13 GMT-0600 (Central Standard Time),145134.79999999702,A,fl,I,l,206,2,865.6999999955297,144269.1000000015,8004,WL,A,2.0
1,3.81499981880188,learn,56185.00018119812,Fri Nov 22 2024 15:38:13 GMT-0600 (Central Standard Time),145717.8999999985,A,flo,I,o,574,2,1448.7999999970198,144269.1000000015,8004,WL,A,2.0
1,4.131999969482422,learn,55868.00003051758,Fri Nov 22 2024 15:38:13 GMT-0600 (Central Standard Time),146034.79999999702,A,flow,I,w,295,2,1765.6999999955297,144269.1000000015,8004,WL,A,2.0
1,4.23199987411499,learn,55768.00012588501,Fri Nov 22 2024 15:38:13 GMT-0600 (Central Standard Time),146134.5,A,flowe,I,e,90,2,1865.3999999985099,144269.1000000015,8004,WL,A,2.0
1,4.398999929428101,learn,55601.0000705719,Fri Nov 22 2024 15:38:13 GMT-0600 (Central Standard Time),146301.29999999702,A,flower,I,r,150,2,2032.1999999955297,144269.1000000015,8004,WL,A,2.0
1,4.681999921798706,learn,55318.000078201294,Fri Nov 22 2024 15:38:13 GMT-0600 (Central Standard Time),146584.3999999985,A,flowerenter,I,enter,263,2,2315.2999999970198,144269.1000000015,8004,WL,A,2.0
1,5.164999961853027,learn,54835.00003814697,Fri Nov 22 2024 15:38:13 GMT-0600 (Central Standard Time),147067.8999999985,A,r,I,r,468,2,482.8999999985099,146585.0,8004,WL,A,3.0
1,6.398000001907349,learn,53601.99999809265,Fri Nov 22 2024 15:38:13 GMT-0600 (Central Standard Time),148300.79999999702,A,ru,I,u,1217,2,1715.7999999970198,146585.0,8004,WL,A,3.0
1,6.7149999141693115,learn,53285.00008583069,Fri Nov 22 2024 15:38:13 GMT-0600 (Central Standard Time),148617.29999999702,A,rug,I,g,304,2,2032.2999999970198,146585.0,8004,WL,A,3.0
1,7.263999938964844,learn,52736.000061035156,Fri Nov 22 2024 15:38:13 GMT-0600 (Central Standard Time),149167.0,A,rugt,I,t,531,2,2582.0,146585.0,8004,WL,A,3.0
1,8.580999851226807,learn,51419.00014877319,Fri Nov 22 2024 15:38:13 GMT-0600 (Central Standard Time),150483.29999999702,A,rug,I,backspace,1310,2,3898.2999999970198,146585.0,8004,WL,A,3.0
1,9.329999923706055,learn,50670.000076293945,Fri Nov 22 2024 15:38:13 GMT-0600 (Central Standard Time),151232.8999999985,A,rugenter,I,enter,730,2,4647.89999999851,146585.0,8004,WL,A,3.0
1,10.396999835968018,learn,49603.00016403198,Fri Nov 22 2024 15:38:13 GMT-0600 (Central Standard Time),152299.29999999702,A,t,I,t,1052,2,1065.8999999985099,151233.3999999985,8004,WL,A,4.0
1,10.679999828338623,learn,49320.00017166138,Fri Nov 22 2024 15:38:13 GMT-0600 (Central Standard Time),152582.8999999985,A,tr,I,r,266,2,1349.5,151233.3999999985,8004,WL,A,4.0
1,10.77999997138977,learn,49220.00002861023,Fri Nov 22 2024 15:38:13 GMT-0600 (Central Standard Time),152682.79999999702,A,tra,I,a,86,2,1449.3999999985099,151233.3999999985,8004,WL,A,4.0
1,10.980000019073486,learn,49019.999980926514,Fri Nov 22 2024 15:38:13 GMT-0600 (Central Standard Time),152882.29999999702,A,trai,I,i,194,2,1648.8999999985099,151233.3999999985,8004,WL,A,4.0
1,11.379999876022339,learn,48620.00012397766,Fri Nov 22 2024 15:38:13 GMT-0600 (Central Standard Time),153282.20000000298,A,train,I,n,395,2,2048.8000000044703,151233.3999999985,8004,WL,A,4.0
1,12.428999900817871,learn,47571.00009918213,Fri Nov 22 2024 15:38:13 GMT-0600 (Central Standard Time),154332.1000000015,A,trainenter,I,enter,1035,2,3098.7000000029802,151233.3999999985,8004,WL,A,4.0
1,14.461999893188477,learn,45538.00010681152,Fri Nov 22 2024 15:38:13 GMT-0600 (Central Standard Time),156364.8999999985,A,m,I,m,2016,2,2032.5,154332.3999999985,8004,WL,A,5.0
1,14.611999988555908,learn,45388.00001144409,Fri Nov 22 2024 15:38:13 GMT-0600 (Central Standard Time),156514.6000000015,A,me,I,e,144,2,2182.2000000029802,154332.3999999985,8004,WL,A,5.0
1,14.744999885559082,learn,45255.00011444092,Fri Nov 22 2024 15:38:13 GMT-0600 (Central Standard Time),156647.8999999985,A,mea,I,a,123,2,2315.5,154332.3999999985,8004,WL,A,5.0
1,14.994999885559082,learn,45005.00011444092,Fri Nov 22 2024 15:38:13 GMT-0600 (Central Standard Time),156898.20000000298,A,mead,I,d,245,2,2565.8000000044703,154332.3999999985,8004,WL,A,5.0
1,15.227999925613403,learn,44772.0000743866,Fri Nov 22 2024 15:38:13 GMT-0600 (Central Standard Time),157130.8999999985,A,meado,I,o,227,2,2798.5,154332.3999999985,8004,WL,A,5.0
1,15.527999877929688,learn,44472.00012207031,Fri Nov 22 2024 15:38:13 GMT-0600 (Central Standard Time),157431.0,A,meadow,I,w,291,2,3098.60000000149,154332.3999999985,8004,WL,A,5.0
1,15.812000036239624,learn,44187.999963760376,Fri Nov 22 2024 15:38:13 GMT-0600 (Central Standard Time),157714.29999999702,A,meadowenter,I,enter,262,2,3381.89999999851,154332.3999999985,8004,WL,A,5.0
1,17.644999980926514,learn,42355.000019073486,Fri Nov 22 2024 15:38:13 GMT-0600 (Central Standard Time),159547.29999999702,A,a,I,a,1818,2,1832.5999999940395,157714.70000000298,8004,WL,A,6.0
1,17.82699990272522,learn,42173.00009727478,Fri Nov 22 2024 15:38:13 GMT-0600 (Central Standard Time),159730.20000000298,A,ap,I,p,169,2,2015.5,157714.70000000298,8004,WL,A,6.0
1,18.026999950408936,learn,41973.000049591064,Fri Nov 22 2024 15:38:13 GMT-0600 (Central Standard Time),159930.0,A,app,I,p,195,2,2215.2999999970198,157714.70000000298,8004,WL,A,6.0
1,18.293999910354614,learn,41706.000089645386,Fri Nov 22 2024 15:38:13 GMT-0600 (Central Standard Time),160197.0,A,appl,I,l,250,2,2482.2999999970198,157714.70000000298,8004,WL,A,6.0
1,18.560999870300293,learn,41439.00012969971,Fri Nov 22 2024 15:38:13 GMT-0600 (Central Standard Time),160463.29999999702,A,apple,I,e,256,2,2748.5999999940395,157714.70000000298,8004,WL,A,6.0
1,18.74399995803833,learn,41256.00004196167,Fri Nov 22 2024 15:38:13 GMT-0600 (Central Standard Time),160646.79999999702,A,appleenter,I,enter,166,2,2932.0999999940395,157714.70000000298,8004,WL,A,6.0
1,18.99399995803833,learn,41006.00004196167,Fri Nov 22 2024 15:38:13 GMT-0600 (Central Standard Time),160896.70000000298,A,c,I,c,238,2,249.40000000596046,160647.29999999702,8004,WL,A,7.0
1,19.210999965667725,learn,40789.000034332275,Fri Nov 22 2024 15:38:13 GMT-0600 (Central Standard Time),161113.3999999985,A,ch,I,h,196,2,466.1000000014901,160647.29999999702,8004,WL,A,7.0
1,19.376999855041504,learn,40623.000144958496,Fri Nov 22 2024 15:38:13 GMT-0600 (Central Standard Time),161280.1000000015,A,chi,I,i,156,2,632.8000000044703,160647.29999999702,8004,WL,A,7.0
1,19.993000030517578,learn,40006.99996948242,Fri Nov 22 2024 15:38:13 GMT-0600 (Central Standard Time),161895.8999999985,A,chim,I,m,596,2,1248.6000000014901,160647.29999999702,8004,WL,A,7.0
1,20.427000045776367,learn,39572.99995422363,Fri Nov 22 2024 15:38:13 GMT-0600 (Central Standard Time),162329.5,A,chimn,I,n,421,2,1682.2000000029802,160647.29999999702,8004,WL,A,7.0
1,20.792999982833862,learn,39207.00001716614,Fri Nov 22 2024 15:38:13 GMT-0600 (Central Standard Time),162695.8999999985,A,chimne,I,e,348,2,2048.60000000149,160647.29999999702,8004,WL,A,7.0
1,21.009999990463257,learn,38990.00000953674,Fri Nov 22 2024 15:38:13 GMT-0600 (Central Standard Time),162912.79999999702,A,chimney,I,y,197,2,2265.5,160647.29999999702,8004,WL,A,7.0
1,21.359999895095825,learn,38640.000104904175,Fri Nov 22 2024 15:38:13 GMT-0600 (Central Standard Time),163262.5,A,chimneyenter,I,enter,341,2,2615.2000000029802,160647.29999999702,8004,WL,A,7.0
1,21.65999984741211,learn,38340.00015258789,Fri Nov 22 2024 15:38:13 GMT-0600 (Central Standard Time),163562.5,A,g,I,g,286,2,299.5,163263.0,8004,WL,A,8.0
1,21.842999935150146,learn,38157.00006484985,Fri Nov 22 2024 15:38:13 GMT-0600 (Central Standard Time),163745.70000000298,A,go,I,o,163,2,482.70000000298023,163263.0,8004,WL,A,8.0
1,22.092999935150146,learn,37907.00006484985,Fri Nov 22 2024 15:38:13 GMT-0600 (Central Standard Time),163995.6000000015,A,gol,I,l,236,2,732.6000000014901,163263.0,8004,WL,A,8.0
1,22.292999982833862,learn,37707.00001716614,Fri Nov 22 2024 15:38:13 GMT-0600 (Central Standard Time),164195.70000000298,A,gold,I,d,194,2,932.7000000029802,163263.0,8004,WL,A,8.0
1,22.608999967575073,learn,37391.00003242493,Fri Nov 22 2024 15:38:13 GMT-0600 (Central Standard Time),164512.0,A,goldenter,I,enter,306,2,1249.0,163263.0,8004,WL,A,8.0
1,25.657999992370605,learn,34342.000007629395,Fri Nov 22 2024 15:38:13 GMT-0600 (Central Standard Time),167561.20000000298,A,f,I,f,3029,2,3048.60000000149,164512.6000000015,8004,WL,A,9.0
1,25.807999849319458,learn,34192.00015068054,Fri Nov 22 2024 15:38:13 GMT-0600 (Central Standard Time),167711.1000000015,A,fl,I,l,140,2,3198.5,164512.6000000015,8004,WL,A,9.0
1,26.10800004005432,learn,33891.99995994568,Fri Nov 22 2024 15:38:13 GMT-0600 (Central Standard Time),168011.1000000015,A,flo,I,o,286,2,3498.5,164512.6000000015,8004,WL,A,9.0
1,26.191999912261963,learn,33808.00008773804,Fri Nov 22 2024 15:38:13 GMT-0600 (Central Standard Time),168094.29999999702,A,flow,I,w,66,2,3581.6999999955297,164512.6000000015,8004,WL,A,9.0
1,26.258999824523926,learn,33741.000175476074,Fri Nov 22 2024 15:38:13 GMT-0600 (Central Standard Time),168161.29999999702,A,flowe,I,e,47,2,3648.6999999955297,164512.6000000015,8004,WL,A,9.0
1,26.35800004005432,learn,33641.99995994568,Fri Nov 22 2024 15:38:13 GMT-0600 (Central Standard Time),168260.70000000298,A,flower,I,r,92,2,3748.10000000149,164512.6000000015,8004,WL,A,9.0
1,26.507999897003174,learn,33492.000102996826,Fri Nov 22 2024 15:38:13 GMT-0600 (Central Standard Time),168410.70000000298,A,flowerenter,I,enter,145,2,3898.10000000149,164512.6000000015,8004,WL,A,9.0
1,31.322999954223633,learn,28677.000045776367,Fri Nov 22 2024 15:38:13 GMT-0600 (Central Standard Time),173226.20000000298,A,enter,I,enter,4811,2,4815.10000000149,168411.1000000015,8004,WL,A,10.0
1,31.77300000190735,learn,28226.99999809265,Fri Nov 22 2024 15:38:13 GMT-0600 (Central Standard Time),173675.8999999985,A,enter,I,enter,443,2,449.5,173226.3999999985,8004,WL,A,11.0
1,32.24000000953674,learn,27759.999990463257,Fri Nov 22 2024 15:38:13 GMT-0600 (Central Standard Time),174142.5,A,enter,I,enter,449,2,466.0,173676.5,8004,WL,A,12.0
1,32.555999994277954,learn,27444.000005722046,Fri Nov 22 2024 15:38:13 GMT-0600 (Central Standard Time),174458.79999999702,A,enter,I,enter,311,2,315.8999999985099,174142.8999999985,8004,WL,A,13.0
1,32.95700001716614,learn,27042.999982833862,Fri Nov 22 2024 15:38:13 GMT-0600 (Central Standard Time),174860.1000000015,A,enter,I,enter,395,2,401.1000000014901,174459.0,8004,WL,A,14.0
1,33.48399996757507,learn,26516.000032424927,Fri Nov 22 2024 15:38:13 GMT-0600 (Central Standard Time),175386.79999999702,A,enter,I,enter,521,2,526.3999999985099,174860.3999999985,8004,WL,A,15.0
2,0.747999906539917,learn,59252.00009346008,Fri Nov 22 2024 15:38:13 GMT-0600 (Central Standard Time),267013.6000000015,A,f,I,f,733,2,748.6000000014901,266265.0,8004,WL,A,1.0
2,0.997999906539917,learn,59002.00009346008,Fri Nov 22 2024 15:38:13 GMT-0600 (Central Standard Time),267263.299999997,A,fi,I,i,240,2,998.2999999970198,266265.0,8004,WL,A,1.0
2,1.4649999141693115,learn,58535.00008583069,Fri Nov 22 2024 15:38:13 GMT-0600 (Central Standard Time),267729.8999999985,A,fin,I,n,454,2,1464.8999999985099,266265.0,8004,WL,A,1.0
2,1.8650000095367432,learn,58134.99999046326,Fri Nov 22 2024 15:38:13 GMT-0600 (Central Standard Time),268129.8999999985,A,fing,I,g,379,2,1864.8999999985099,266265.0,8004,WL,A,1.0
2,2.2149999141693115,learn,57785.00008583069,Fri Nov 22 2024 15:38:13 GMT-0600 (Central Standard Time),268479.799999997,A,finge,I,e,331,2,2214.7999999970198,266265.0,8004,WL,A,1.0
2,2.38100004196167,learn,57618.99995803833,Fri Nov 22 2024 15:38:13 GMT-0600 (Central Standard Time),268646.3999999985,A,finger,I,r,157,2,2381.39999999851,266265.0,8004,WL,A,1.0
2,3.697000026702881,learn,56302.99997329712,Fri Nov 22 2024 15:38:13 GMT-0600 (Central Standard Time),269962.6000000015,A,fingerenter,I,enter,1295,2,3697.60000000149,266265.0,8004,WL,A,1.0
2,5.496999979019165,learn,54503.000020980835,Fri Nov 22 2024 15:38:13 GMT-0600 (Central Standard Time),271762.0,A,b,I,b,1787,2,1799.0,269963.0,8004,WL,A,2.0
2,5.829999923706055,learn,54170.000076293945,Fri Nov 22 2024 15:38:13 GMT-0600 (Central Standard Time),272095.3999999985,A,bo,I,o,323,2,2132.39999999851,269963.0,8004,WL,A,2.0
2,6.046999931335449,learn,53953.00006866455,Fri Nov 22 2024 15:38:13 GMT-0600 (Central Standard Time),272311.799999997,A,boo,I,o,198,2,2348.7999999970198,269963.0,8004,WL,A,2.0
2,6.513000011444092,learn,53486.99998855591,Fri Nov 22 2024 15:38:13 GMT-0600 (Central Standard Time),272778.3999999985,A,book,I,k,445,2,2815.39999999851,269963.0,8004,WL,A,2.0
2,6.8459999561309814,learn,53154.00004386902,Fri Nov 22 2024 15:38:13 GMT-0600 (Central Standard Time),273111.5,A,bookenter,I,enter,323,2,3148.5,269963.0,8004,WL,A,2.0
2,7.246000051498413,learn,52753.99994850159,Fri Nov 22 2024 15:38:13 GMT-0600 (Central Standard Time),273511.5,A,f,I,f,390,2,399.6000000014901,273111.8999999985,8004,WL,A,3.0
2,7.44599986076355,learn,52554.00013923645,Fri Nov 22 2024 15:38:13 GMT-0600 (Central Standard Time),273711.299999997,A,fl,I,l,190,2,599.3999999985099,273111.8999999985,8004,WL,A,3.0
2,7.796999931335449,learn,52203.00006866455,Fri Nov 22 2024 15:38:13 GMT-0600 (Central Standard Time),274062.5,A,flo,I,o,342,2,950.6000000014901,273111.8999999985,8004,WL,A,3.0
2,8.412999868392944,learn,51587.000131607056,Fri Nov 22 2024 15:38:13 GMT-0600 (Central Standard Time),274678.0,A,flow,I,w,598,2,1566.1000000014901,273111.8999999985,8004,WL,A,3.0
2,8.613999843597412,learn,51386.00015640259,Fri Nov 22 2024 15:38:13 GMT-0600 (Central Standard Time),274878.799999997,A,flowe,I,e,192,2,1766.8999999985099,273111.8999999985,8004,WL,A,3.0
2,8.828999996185303,learn,51171.0000038147,Fri Nov 22 2024 15:38:13 GMT-0600 (Central Standard Time),275094.1000000015,A,flower,I,r,206,2,1982.2000000029802,273111.8999999985,8004,WL,A,3.0
2,9.44599986076355,learn,50554.00013923645,Fri Nov 22 2024 15:38:13 GMT-0600 (Central Standard Time),275710.799999997,A,flowerenter,I,enter,599,2,2598.89999999851,273111.8999999985,8004,WL,A,3.0
2,9.812000036239624,learn,50187.999963760376,Fri Nov 22 2024 15:38:13 GMT-0600 (Central Standard Time),276077.5,A,m,I,m,351,2,366.3999999985099,275711.1000000015,8004,WL,A,4.0
2,9.94599986076355,learn,50054.00013923645,Fri Nov 22 2024 15:38:13 GMT-0600 (Central Standard Time),276211.299999997,A,me,I,e,120,2,500.19999999552965,275711.1000000015,8004,WL,A,4.0
2,10.078999996185303,learn,49921.0000038147,Fri Nov 22 2024 15:38:13 GMT-0600 (Central Standard Time),276343.8999999985,A,mea,I,a,114,2,632.7999999970198,275711.1000000015,8004,WL,A,4.0
2,10.312000036239624,learn,49687.999963760376,Fri Nov 22 2024 15:38:13 GMT-0600 (Central Standard Time),276577.0,A,mead,I,d,221,2,865.8999999985099,275711.1000000015,8004,WL,A,4.0
2,10.562000036239624,learn,49437.999963760376,Fri Nov 22 2024 15:38:13 GMT-0600 (Central Standard Time),276827.1000000015,A,meado,I,o,236,2,1116.0,275711.1000000015,8004,WL,A,4.0
2,10.828999996185303,learn,49171.0000038147,Fri Nov 22 2024 15:38:13 GMT-0600 (Central Standard Time),277093.6000000015,A,meadow,I,w,251,2,1382.5,275711.1000000015,8004,WL,A,4.0
2,10.994999885559082,learn,49005.00011444092,Fri Nov 22 2024 15:38:13 GMT-0600 (Central Standard Time),277260.299999997,A,meadowenter,I,enter,160,2,1549.1999999955297,275711.1000000015,8004,WL,A,4.0
2,11.812000036239624,learn,48187.999963760376,Fri Nov 22 2024 15:38:13 GMT-0600 (Central Standard Time),278076.700000003,A,r,I,r,801,2,816.1000000014901,277260.6000000015,8004,WL,A,5.0
2,12.67799997329712,learn,47322.00002670288,Fri Nov 22 2024 15:38:13 GMT-0600 (Central Standard Time),278943.200000003,A,ru,I,u,856,2,1682.6000000014901,277260.6000000015,8004,WL,A,5.0
2,12.928999900817871,learn,47071.00009918213,Fri Nov 22 2024 15:38:13 GMT-0600 (Central Standard Time),279194.299999997,A,rug,I,g,238,2,1933.6999999955297,277260.6000000015,8004,WL,A,5.0
2,13.16100001335144,learn,46838.99998664856,Fri Nov 22 2024 15:38:13 GMT-0600 (Central Standard Time),279426.200000003,A,rugenter,I,enter,227,2,2165.60000000149,277260.6000000015,8004,WL,A,5.0
2,14.49399995803833,learn,45506.00004196167,Fri Nov 22 2024 15:38:13 GMT-0600 (Central Standard Time),280759.1000000015,A,s,I,s,1315,2,1332.6000000014901,279426.5,8004,WL,A,6.0
2,14.843999862670898,learn,45156.0001373291,Fri Nov 22 2024 15:38:13 GMT-0600 (Central Standard Time),281109.1000000015,A,sa,I,a,334,2,1682.6000000014901,279426.5,8004,WL,A,6.0
2,15.010999917984009,learn,44989.00008201599,Fri Nov 22 2024 15:38:13 GMT-0600 (Central Standard Time),281275.799999997,A,sal,I,l,160,2,1849.2999999970198,279426.5,8004,WL,A,6.0
2,15.927000045776367,learn,44072.99995422363,Fri Nov 22 2024 15:38:13 GMT-0600 (Central Standard Time),282191.700000003,A,salt,I,t,897,2,2765.2000000029802,279426.5,8004,WL,A,6.0
2,16.39400005340576,learn,43605.99994659424,Fri Nov 22 2024 15:38:13 GMT-0600 (Central Standard Time),282658.799999997,A,saltenter,I,enter,445,2,3232.2999999970198,279426.5,8004,WL,A,6.0
2,16.792999982833862,learn,43207.00001716614,Fri Nov 22 2024 15:38:13 GMT-0600 (Central Standard Time),283058.299999997,A,h,I,h,387,2,399.19999999552965,282659.1000000015,8004,WL,A,7.0
2,16.993000030517578,learn,43006.99996948242,Fri Nov 22 2024 15:38:13 GMT-0600 (Central Standard Time),283258.6000000015,A,ha,I,a,179,2,599.5,282659.1000000015,8004,WL,A,7.0
2,17.14299988746643,learn,42857.00011253357,Fri Nov 22 2024 15:38:13 GMT-0600 (Central Standard Time),283408.200000003,A,har,I,r,139,2,749.1000000014901,282659.1000000015,8004,WL,A,7.0
2,17.342999935150146,learn,42657.00006484985,Fri Nov 22 2024 15:38:13 GMT-0600 (Central Standard Time),283608.200000003,A,harp,I,p,189,2,949.1000000014901,282659.1000000015,8004,WL,A,7.0
2,18.009000062942505,learn,41990.999937057495,Fri Nov 22 2024 15:38:13 GMT-0600 (Central Standard Time),284274.5,A,harpenter,I,enter,661,2,1615.3999999985099,282659.1000000015,8004,WL,A,7.0
2,19.108999967575073,learn,40891.00003242493,Fri Nov 22 2024 15:38:13 GMT-0600 (Central Standard Time),285374.3999999985,A,a,I,a,1083,2,1099.6000000014901,284274.799999997,8004,WL,A,8.0
2,19.292999982833862,learn,40707.00001716614,Fri Nov 22 2024 15:38:13 GMT-0600 (Central Standard Time),285557.8999999985,A,ap,I,p,167,2,1283.1000000014901,284274.799999997,8004,WL,A,8.0
2,19.493000030517578,learn,40506.99996948242,Fri Nov 22 2024 15:38:13 GMT-0600 (Central Standard Time),285757.700000003,A,app,I,p,191,2,1482.9000000059605,284274.799999997,8004,WL,A,8.0
2,19.80900001525879,learn,40190.99998474121,Fri Nov 22 2024 15:38:13 GMT-0600 (Central Standard Time),286074.200000003,A,appl,I,l,295,2,1799.4000000059605,284274.799999997,8004,WL,A,8.0
2,20.092000007629395,learn,39907.999992370605,Fri Nov 22 2024 15:38:13 GMT-0600 (Central Standard Time),286357.299999997,A,apple,I,e,275,2,2082.5,284274.799999997,8004,WL,A,8.0
2,20.276000022888184,learn,39723.99997711182,Fri Nov 22 2024 15:38:13 GMT-0600 (Central Standard Time),286540.799999997,A,appleenter,I,enter,176,2,2266.0,284274.799999997,8004,WL,A,8.0
2,20.625,learn,39375.0,Fri Nov 22 2024 15:38:13 GMT-0600 (Central Standard Time),286890.3999999985,A,c,I,c,344,2,349.29999999701977,286541.1000000015,8004,WL,A,9.0
2,20.741999864578247,learn,39258.00013542175,Fri Nov 22 2024 15:38:13 GMT-0600 (Central Standard Time),287007.1000000015,A,ch,I,h,107,2,466.0,286541.1000000015,8004,WL,A,9.0
2,20.875,learn,39125.0,Fri Nov 22 2024 15:38:13 GMT-0600 (Central Standard Time),287140.5,A,chi,I,i,126,2,599.3999999985099,286541.1000000015,8004,WL,A,9.0
2,21.22499990463257,learn,38775.00009536743,Fri Nov 22 2024 15:38:13 GMT-0600 (Central Standard Time),287490.3999999985,A,chim,I,m,329,2,949.2999999970198,286541.1000000015,8004,WL,A,9.0
2,21.807999849319458,learn,38192.00015068054,Fri Nov 22 2024 15:38:13 GMT-0600 (Central Standard Time),288073.5,A,chimn,I,n,571,2,1532.3999999985099,286541.1000000015,8004,WL,A,9.0
2,22.024999856948853,learn,37975.00014305115,Fri Nov 22 2024 15:38:13 GMT-0600 (Central Standard Time),288290.200000003,A,chimne,I,e,204,2,1749.1000000014901,286541.1000000015,8004,WL,A,9.0
2,22.22499990463257,learn,37775.00009536743,Fri Nov 22 2024 15:38:13 GMT-0600 (Central Standard Time),288490.0,A,chimney,I,y,187,2,1948.8999999985099,286541.1000000015,8004,WL,A,9.0
2,22.507999897003174,learn,37492.000102996826,Fri Nov 22 2024 15:38:13 GMT-0600 (Central Standard Time),288773.299999997,A,chimneyenter,I,enter,275,2,2232.1999999955297,286541.1000000015,8004,WL,A,9.0
2,22.825000047683716,learn,37174.999952316284,Fri Nov 22 2024 15:38:13 GMT-0600 (Central Standard Time),289089.8999999985,A,r,I,r,304,2,316.19999999552965,288773.700000003,8004,WL,A,10.0
2,23.20899987220764,learn,36791.00012779236,Fri Nov 22 2024 15:38:13 GMT-0600 (Central Standard Time),289473.8999999985,A,ra,I,a,380,2,700.1999999955297,288773.700000003,8004,WL,A,10.0
2,23.340999841690063,learn,36659.00015830994,Fri Nov 22 2024 15:38:13 GMT-0600 (Central Standard Time),289606.299999997,A,rat,I,t,116,2,832.5999999940395,288773.700000003,8004,WL,A,10.0
2,23.507999897003174,learn,36492.000102996826,Fri Nov 22 2024 15:38:13 GMT-0600 (Central Standard Time),289773.0,A,ratt,I,t,159,2,999.2999999970198,288773.700000003,8004,WL,A,10.0
2,23.641000032424927,learn,36358.99996757507,Fri Nov 22 2024 15:38:13 GMT-0600 (Central Standard Time),289906.1000000015,A,rattl,I,l,121,2,1132.3999999985099,288773.700000003,8004,WL,A,10.0
2,23.69099998474121,learn,36309.00001525879,Fri Nov 22 2024 15:38:13 GMT-0600 (Central Standard Time),289956.1000000015,A,rattle,I,e,43,2,1182.3999999985099,288773.700000003,8004,WL,A,10.0
2,24.424000024795532,learn,35575.99997520447,Fri Nov 22 2024 15:38:13 GMT-0600 (Central Standard Time),290689.3999999985,A,rattleenter,I,enter,721,2,1915.6999999955297,288773.700000003,8004,WL,A,10.0
2,25.090999841690063,learn,34909.00015830994,Fri Nov 22 2024 15:38:13 GMT-0600 (Central Standard Time),291355.8999999985,A,g,I,g,660,2,666.2999999970198,290689.6000000015,8004,WL,A,11.0
2,25.256999969482422,learn,34743.00003051758,Fri Nov 22 2024 15:38:13 GMT-0600 (Central Standard Time),291522.299999997,A,go,I,o,146,2,832.6999999955297,290689.6000000015,8004,WL,A,11.0
2,25.44099998474121,learn,34559.00001525879,Fri Nov 22 2024 15:38:13 GMT-0600 (Central Standard Time),291706.0,A,gol,I,l,163,2,1016.3999999985099,290689.6000000015,8004,WL,A,11.0
2,25.83999991416931,learn,34160.00008583069,Fri Nov 22 2024 15:38:13 GMT-0600 (Central Standard Time),292105.6000000015,A,gold,I,d,387,2,1416.0,290689.6000000015,8004,WL,A,11.0
2,27.139999866485596,learn,32860.000133514404,Fri Nov 22 2024 15:38:13 GMT-0600 (Central Standard Time),293405.299999997,A,goldenter,I,enter,1292,2,2715.6999999955297,290689.6000000015,8004,WL,A,11.0
2,38.486000061035156,learn,21513.999938964844,Fri Nov 22 2024 15:38:13 GMT-0600 (Central Standard Time),304751.6000000015,A,enter,I,enter,11328,2,11346.0,293405.6000000015,8004,WL,A,12.0
2,38.90299987792969,learn,21097.000122070312,Fri Nov 22 2024 15:38:13 GMT-0600 (Central Standard Time),305168.0,A,enter,I,enter,406,2,416.1000000014901,304751.8999999985,8004,WL,A,13.0
2,39.26900005340576,learn,20730.99994659424,Fri Nov 22 2024 15:38:13 GMT-0600 (Central Standard Time),305534.700000003,A,enter,I,enter,350,2,366.5,305168.200000003,8004,WL,A,14.0
2,39.7189998626709,learn,20281.0001373291,Fri Nov 22 2024 15:38:13 GMT-0600 (Central Standard Time),305984.6000000015,A,enter,I,enter,431,2,449.5,305535.1000000015,8004,WL,A,15.0
3,0.7649998664855957,learn,59235.000133514404,Fri Nov 22 2024 15:38:13 GMT-0600 (Central Standard Time),373063.5,A,b,I,b,748,2,765.1000000014901,372298.3999999985,8004,WL,A,1.0
3,1.0479998588562012,learn,58952.0001411438,Fri Nov 22 2024 15:38:13 GMT-0600 (Central Standard Time),373346.8999999985,A,bo,I,o,269,2,1048.5,372298.3999999985,8004,WL,A,1.0
3,1.247999906539917,learn,58752.00009346008,Fri Nov 22 2024 15:38:13 GMT-0600 (Central Standard Time),373546.6000000015,A,boo,I,o,178,2,1248.2000000029802,372298.3999999985,8004,WL,A,1.0
3,1.6979999542236328,learn,58302.00004577637,Fri Nov 22 2024 15:38:13 GMT-0600 (Central Standard Time),373996.6000000015,A,book,I,k,443,2,1698.2000000029802,372298.3999999985,8004,WL,A,1.0
3,2.0320000648498535,learn,57967.99993515015,Fri Nov 22 2024 15:38:13 GMT-0600 (Central Standard Time),374330.1000000015,A,bookenter,I,enter,313,2,2031.7000000029802,372298.3999999985,8004,WL,A,1.0
3,2.5309998989105225,learn,57469.00010108948,Fri Nov 22 2024 15:38:13 GMT-0600 (Central Standard Time),374829.700000003,A,f,I,f,492,2,499.30000000447035,374330.3999999985,8004,WL,A,2.0
3,2.7309999465942383,learn,57269.00005340576,Fri Nov 22 2024 15:38:13 GMT-0600 (Central Standard Time),375029.6000000015,A,fl,I,l,192,2,699.2000000029802,374330.3999999985,8004,WL,A,2.0
3,2.9809999465942383,learn,57019.00005340576,Fri Nov 22 2024 15:38:13 GMT-0600 (Central Standard Time),375279.5,A,flo,I,o,232,2,949.1000000014901,374330.3999999985,8004,WL,A,2.0
3,3.2139999866485596,learn,56786.00001335144,Fri Nov 22 2024 15:38:13 GMT-0600 (Central Standard Time),375512.8999999985,A,flow,I,w,214,2,1182.5,374330.3999999985,8004,WL,A,2.0
3,3.313999891281128,learn,56686.00010871887,Fri Nov 22 2024 15:38:13 GMT-0600 (Central Standard Time),375612.8999999985,A,flowe,I,e,84,2,1282.5,374330.3999999985,8004,WL,A,2.0
3,3.547999858856201,learn,56452.0001411438,Fri Nov 22 2024 15:38:13 GMT-0600 (Central Standard Time),375846.1000000015,A,flower,I,r,224,2,1515.7000000029802,374330.3999999985,8004,WL,A,2.0
3,5.379999876022339,learn,54620.00012397766,Fri Nov 22 2024 15:38:13 GMT-0600 (Central Standard Time),377678.700000003,A,flowerenter,I,enter,1823,2,3348.3000000044703,374330.3999999985,8004,WL,A,2.0
3,6.263000011444092,learn,53736.99998855591,Fri Nov 22 2024 15:38:13 GMT-0600 (Central Standard Time),378562.0,A,t,I,t,871,2,883.1000000014901,377678.8999999985,8004,WL,A,3.0
3,6.546999931335449,learn,53453.00006866455,Fri Nov 22 2024 15:38:13 GMT-0600 (Central Standard Time),378845.1000000015,A,tr,I,r,267,2,1166.2000000029802,377678.8999999985,8004,WL,A,3.0
3,6.763000011444092,learn,53236.99998855591,Fri Nov 22 2024 15:38:13 GMT-0600 (Central Standard Time),379061.799999997,A,tra,I,a,208,2,1382.8999999985099,377678.8999999985,8004,WL,A,3.0
3,7.013000011444092,learn,52986.99998855591,Fri Nov 22 2024 15:38:13 GMT-0600 (Central Standard Time),379311.3999999985,A,trai,I,i,240,2,1632.5,377678.8999999985,8004,WL,A,3.0
3,7.412999868392944,learn,52587.000131607056,Fri Nov 22 2024 15:38:13 GMT-0600 (Central Standard Time),379711.5,A,train,I,n,382,2,2032.6000000014901,377678.8999999985,8004,WL,A,3.0
3,7.8459999561309814,learn,52154.00004386902,Fri Nov 22 2024 15:38:13 GMT-0600 (Central Standard Time),380144.700000003,A,traing,I,g,422,2,2465.8000000044703,377678.8999999985,8004,WL,A,3.0
3,8.845999956130981,learn,51154.00004386902,Fri Nov 22 2024 15:38:13 GMT-0600 (Central Standard Time),381144.200000003,A,train,I,backspace,981,2,3465.3000000044703,377678.8999999985,8004,WL,A,3.0
3,9.128999948501587,learn,50871.00005149841,Fri Nov 22 2024 15:38:13 GMT-0600 (Central Standard Time),381427.6000000015,A,trainenter,I,enter,269,2,3748.7000000029802,377678.8999999985,8004,WL,A,3.0
3,10.228999853134155,learn,49771.000146865845,Fri Nov 22 2024 15:38:13 GMT-0600 (Central Standard Time),382527.200000003,A,r,I,r,1090,2,1099.3000000044703,381427.8999999985,8004,WL,A,4.0
3,11.111999988555908,learn,48888.00001144409,Fri Nov 22 2024 15:38:13 GMT-0600 (Central Standard Time),383410.6000000015,A,ru,I,u,870,2,1982.7000000029802,381427.8999999985,8004,WL,A,4.0
3,11.444999933242798,learn,48555.0000667572,Fri Nov 22 2024 15:38:13 GMT-0600 (Central Standard Time),383743.6000000015,A,rug,I,g,315,2,2315.7000000029802,381427.8999999985,8004,WL,A,4.0
3,12.128000020980835,learn,47871.999979019165,Fri Nov 22 2024 15:38:13 GMT-0600 (Central Standard Time),384426.5,A,rugenter,I,enter,678,2,2998.60000000149,381427.8999999985,8004,WL,A,4.0
3,13.010999917984009,learn,46989.00008201599,Fri Nov 22 2024 15:38:13 GMT-0600 (Central Standard Time),385309.799999997,A,m,I,m,867,2,883.0,384426.799999997,8004,WL,A,5.0
3,13.17799997329712,learn,46822.00002670288,Fri Nov 22 2024 15:38:13 GMT-0600 (Central Standard Time),385476.299999997,A,me,I,e,160,2,1049.5,384426.799999997,8004,WL,A,5.0
3,13.32800006866455,learn,46671.99993133545,Fri Nov 22 2024 15:38:13 GMT-0600 (Central Standard Time),385626.3999999985,A,mea,I,a,137,2,1199.6000000014901,384426.799999997,8004,WL,A,5.0
3,13.694000005722046,learn,46305.999994277954,Fri Nov 22 2024 15:38:13 GMT-0600 (Central Standard Time),385993.0,A,mead,I,d,347,2,1566.2000000029802,384426.799999997,8004,WL,A,5.0
3,14.010999917984009,learn,45989.00008201599,Fri Nov 22 2024 15:38:13 GMT-0600 (Central Standard Time),386309.5,A,meado,I,o,300,2,1882.7000000029802,384426.799999997,8004,WL,A,5.0
3,14.194000005722046,learn,45805.999994277954,Fri Nov 22 2024 15:38:13 GMT-0600 (Central Standard Time),386492.799999997,A,meadow,I,w,168,2,2066.0,384426.799999997,8004,WL,A,5.0
3,14.444000005722046,learn,45555.999994277954,Fri Nov 22 2024 15:38:13 GMT-0600 (Central Standard Time),386742.6000000015,A,meadowenter,I,enter,241,2,2315.8000000044703,384426.799999997,8004,WL,A,5.0
3,15.776999950408936,learn,44223.000049591064,Fri Nov 22 2024 15:38:13 GMT-0600 (Central Standard Time),388075.5,A,h,I,h,1319,2,1332.6000000014901,386742.8999999985,8004,WL,A,6.0
3,15.976999998092651,learn,44023.00000190735,Fri Nov 22 2024 15:38:13 GMT-0600 (Central Standard Time),388275.3999999985,A,ha,I,a,194,2,1532.5,386742.8999999985,8004,WL,A,6.0
3,16.194000005722046,learn,43805.999994277954,Fri Nov 22 2024 15:38:13 GMT-0600 (Central Standard Time),388492.200000003,A,hap,I,p,210,2,1749.3000000044703,386742.8999999985,8004,WL,A,6.0
3,16.759999990463257,learn,43240.00000953674,Fri Nov 22 2024 15:38:13 GMT-0600 (Central Standard Time),389058.299999997,A,ha,I,backspace,561,2,2315.39999999851,386742.8999999985,8004,WL,A,6.0
3,16.960000038146973,learn,43039.99996185303,Fri Nov 22 2024 15:38:13 GMT-0600 (Central Standard Time),389258.3999999985,A,har,I,r,195,2,2515.5,386742.8999999985,8004,WL,A,6.0
3,18.05999994277954,learn,41940.00005722046,Fri Nov 22 2024 15:38:13 GMT-0600 (Central Standard Time),390358.299999997,A,harp,I,p,1091,2,3615.39999999851,386742.8999999985,8004,WL,A,6.0
3,18.359999895095825,learn,41640.000104904175,Fri Nov 22 2024 15:38:13 GMT-0600 (Central Standard Time),390658.1000000015,A,harpenter,I,enter,279,2,3915.2000000029802,386742.8999999985,8004,WL,A,6.0
3,19.175999879837036,learn,40824.000120162964,Fri Nov 22 2024 15:38:13 GMT-0600 (Central Standard Time),391474.299999997,A,s,I,s,811,2,815.7999999970198,390658.5,8004,WL,A,7.0
3,19.54200005531311,learn,40457.99994468689,Fri Nov 22 2024 15:38:13 GMT-0600 (Central Standard Time),391841.0,A,sa,I,a,355,2,1182.5,390658.5,8004,WL,A,7.0
3,19.776000022888184,learn,40223.99997711182,Fri Nov 22 2024 15:38:13 GMT-0600 (Central Standard Time),392074.3999999985,A,sal,I,l,212,2,1415.8999999985099,390658.5,8004,WL,A,7.0
3,20.075999975204468,learn,39924.00002479553,Fri Nov 22 2024 15:38:13 GMT-0600 (Central Standard Time),392374.1000000015,A,salt,I,t,291,2,1715.6000000014901,390658.5,8004,WL,A,7.0
3,20.408999919891357,learn,39591.00008010864,Fri Nov 22 2024 15:38:13 GMT-0600 (Central Standard Time),392707.200000003,A,saltenter,I,enter,319,2,2048.7000000029802,390658.5,8004,WL,A,7.0
3,21.042999982833862,learn,38957.00001716614,Fri Nov 22 2024 15:38:13 GMT-0600 (Central Standard Time),393341.3999999985,A,b,I,b,626,2,633.8999999985099,392707.5,8004,WL,A,8.0
3,21.191999912261963,learn,38808.00008773804,Fri Nov 22 2024 15:38:13 GMT-0600 (Central Standard Time),393490.5,A,bu,I,u,136,2,783.0,392707.5,8004,WL,A,8.0
3,21.491999864578247,learn,38508.00013542175,Fri Nov 22 2024 15:38:13 GMT-0600 (Central Standard Time),393790.3999999985,A,but,I,t,283,2,1082.8999999985099,392707.5,8004,WL,A,8.0
3,22.191999912261963,learn,37808.00008773804,Fri Nov 22 2024 15:38:13 GMT-0600 (Central Standard Time),394490.1000000015,A,butt,I,t,695,2,1782.6000000014901,392707.5,8004,WL,A,8.0
3,22.325000047683716,learn,37674.999952316284,Fri Nov 22 2024 15:38:13 GMT-0600 (Central Standard Time),394623.299999997,A,butto,I,o,116,2,1915.7999999970198,392707.5,8004,WL,A,8.0
3,22.524999856948853,learn,37475.00014305115,Fri Nov 22 2024 15:38:13 GMT-0600 (Central Standard Time),394823.5,A,button,I,n,182,2,2116.0,392707.5,8004,WL,A,8.0
3,22.907999992370605,learn,37092.000007629395,Fri Nov 22 2024 15:38:13 GMT-0600 (Central Standard Time),395206.700000003,A,buttonenter,I,enter,366,2,2499.2000000029802,392707.5,8004,WL,A,8.0
3,23.240999937057495,learn,36759.000062942505,Fri Nov 22 2024 15:38:13 GMT-0600 (Central Standard Time),395539.8999999985,A,l,I,l,319,2,332.8999999985099,395207.0,8004,WL,A,9.0
3,23.47499990463257,learn,36525.00009536743,Fri Nov 22 2024 15:38:13 GMT-0600 (Central Standard Time),395773.1000000015,A,lo,I,o,226,2,566.1000000014901,395207.0,8004,WL,A,9.0
3,23.823999881744385,learn,36176.000118255615,Fri Nov 22 2024 15:38:13 GMT-0600 (Central Standard Time),396122.799999997,A,log,I,g,344,2,915.7999999970198,395207.0,8004,WL,A,9.0
3,25.2739999294281,learn,34726.0000705719,Fri Nov 22 2024 15:38:13 GMT-0600 (Central Standard Time),397572.5,A,logenter,I,enter,1435,2,2365.5,395207.0,8004,WL,A,9.0
3,25.774999856948853,learn,34225.00014305115,Fri Nov 22 2024 15:38:13 GMT-0600 (Central Standard Time),398073.6000000015,A,k,I,k,481,2,500.8999999985099,397572.700000003,8004,WL,A,10.0
3,26.08999991416931,learn,33910.00008583069,Fri Nov 22 2024 15:38:13 GMT-0600 (Central Standard Time),398389.0,A,ke,I,e,308,2,816.2999999970198,397572.700000003,8004,WL,A,10.0
3,26.323999881744385,learn,33676.000118255615,Fri Nov 22 2024 15:38:13 GMT-0600 (Central Standard Time),398622.299999997,A,key,I,y,225,2,1049.5999999940395,397572.700000003,8004,WL,A,10.0
3,26.789999961853027,learn,33210.00003814697,Fri Nov 22 2024 15:38:13 GMT-0600 (Central Standard Time),399088.799999997,A,keyenter,I,enter,455,2,1516.0999999940395,397572.700000003,8004,WL,A,10.0
3,28.223000049591064,learn,31776.999950408936,Fri Nov 22 2024 15:38:13 GMT-0600 (Central Standard Time),400521.700000003,A,g,I,g,1421,2,1432.7000000029802,399089.0,8004,WL,A,11.0
3,28.389999866485596,learn,31610.000133514404,Fri Nov 22 2024 15:38:13 GMT-0600 (Central Standard Time),400688.200000003,A,go,I,o,148,2,1599.2000000029802,399089.0,8004,WL,A,11.0
3,28.622999906539917,learn,31377.000093460083,Fri Nov 22 2024 15:38:13 GMT-0600 (Central Standard Time),400921.5,A,gol,I,l,221,2,1832.5,399089.0,8004,WL,A,11.0
3,29.455999851226807,learn,30544.000148773193,Fri Nov 22 2024 15:38:13 GMT-0600 (Central Standard Time),401754.6000000015,A,gold,I,d,828,2,2665.60000000149,399089.0,8004,WL,A,11.0
3,29.655999898910522,learn,30344.000101089478,Fri Nov 22 2024 15:38:13 GMT-0600 (Central Standard Time),401954.5,A,goldenter,I,enter,187,2,2865.5,399089.0,8004,WL,A,11.0
3,30.155999898910522,learn,29844.000101089478,Fri Nov 22 2024 15:38:13 GMT-0600 (Central Standard Time),402454.299999997,A,a,I,a,491,2,499.5,401954.799999997,8004,WL,A,12.0
3,30.50499987602234,learn,29495.00012397766,Fri Nov 22 2024 15:38:13 GMT-0600 (Central Standard Time),402803.8999999985,A,ap,I,p,343,2,849.1000000014901,401954.799999997,8004,WL,A,12.0
3,30.75600004196167,learn,29243.99995803833,Fri Nov 22 2024 15:38:13 GMT-0600 (Central Standard Time),403054.0,A,app,I,p,233,2,1099.2000000029802,401954.799999997,8004,WL,A,12.0
3,31.039000034332275,learn,28960.999965667725,Fri Nov 22 2024 15:38:13 GMT-0600 (Central Standard Time),403337.3999999985,A,appl,I,l,263,2,1382.6000000014901,401954.799999997,8004,WL,A,12.0
3,31.238999843597412,learn,28761.000156402588,Fri Nov 22 2024 15:38:13 GMT-0600 (Central Standard Time),403537.6000000015,A,apple,I,e,180,2,1582.8000000044703,401954.799999997,8004,WL,A,12.0
3,31.42199993133545,learn,28578.00006866455,Fri Nov 22 2024 15:38:13 GMT-0600 (Central Standard Time),403720.5,A,appleenter,I,enter,164,2,1765.7000000029802,401954.799999997,8004,WL,A,12.0
3,31.740000009536743,learn,28259.999990463257,Fri Nov 22 2024 15:38:13 GMT-0600 (Central Standard Time),404038.5,A,c,I,c,309,2,317.6000000014901,403720.8999999985,8004,WL,A,13.0
3,31.971999883651733,learn,28028.000116348267,Fri Nov 22 2024 15:38:13 GMT-0600 (Central Standard Time),404270.6000000015,A,ch,I,h,223,2,549.7000000029802,403720.8999999985,8004,WL,A,13.0
3,32.15499997138977,learn,27845.00002861023,Fri Nov 22 2024 15:38:13 GMT-0600 (Central Standard Time),404453.700000003,A,chi,I,i,175,2,732.8000000044703,403720.8999999985,8004,WL,A,13.0
3,32.50499987602234,learn,27495.00012397766,Fri Nov 22 2024 15:38:13 GMT-0600 (Central Standard Time),404803.3999999985,A,chim,I,m,344,2,1082.5,403720.8999999985,8004,WL,A,13.0
3,32.97199988365173,learn,27028.000116348267,Fri Nov 22 2024 15:38:13 GMT-0600 (Central Standard Time),405270.1000000015,A,chimn,I,n,458,2,1549.2000000029802,403720.8999999985,8004,WL,A,13.0
3,33.270999908447266,learn,26729.000091552734,Fri Nov 22 2024 15:38:13 GMT-0600 (Central Standard Time),405570.0,A,chimne,I,e,287,2,1849.1000000014901,403720.8999999985,8004,WL,A,13.0
3,33.48799991607666,learn,26512.00008392334,Fri Nov 22 2024 15:38:13 GMT-0600 (Central Standard Time),405786.5,A,chimney,I,y,211,2,2065.60000000149,403720.8999999985,8004,WL,A,13.0
3,35.48699998855591,learn,24513.00001144409,Fri Nov 22 2024 15:38:13 GMT-0600 (Central Standard Time),407785.8999999985,A,chimneyenter,I,enter,1987,2,4065.0,403720.8999999985,8004,WL,A,13.0
3,39.61999988555908,learn,20380.000114440918,Fri Nov 22 2024 15:38:13 GMT-0600 (Central Standard Time),411918.200000003,A,r,I,r,4123,2,4132.0,407786.200000003,8004,WL,A,14.0
3,40.069000005722046,learn,19930.999994277954,Fri Nov 22 2024 15:38:13 GMT-0600 (Central Standard Time),412368.0,A,ra,I,a,431,2,4581.79999999702,407786.200000003,8004,WL,A,14.0
3,40.4689998626709,learn,19531.0001373291,Fri Nov 22 2024 15:38:13 GMT-0600 (Central Standard Time),412767.8999999985,A,rat,I,t,382,2,4981.69999999553,407786.200000003,8004,WL,A,14.0
3,40.736000061035156,learn,19263.999938964844,Fri Nov 22 2024 15:38:13 GMT-0600 (Central Standard Time),413034.3999999985,A,ratl,I,l,254,2,5248.19999999553,407786.200000003,8004,WL,A,14.0
3,41.45199990272522,learn,18548.00009727478,Fri Nov 22 2024 15:38:13 GMT-0600 (Central Standard Time),413750.8999999985,A,ratlt,I,t,699,2,5964.69999999553,407786.200000003,8004,WL,A,14.0
3,41.918999910354614,learn,18081.000089645386,Fri Nov 22 2024 15:38:13 GMT-0600 (Central Standard Time),414217.3999999985,A,ratl,I,backspace,446,2,6431.19999999553,407786.200000003,8004,WL,A,14.0
3,42.151999950408936,learn,17848.000049591064,Fri Nov 22 2024 15:38:13 GMT-0600 (Central Standard Time),414450.700000003,A,rat,I,backspace,213,2,6664.5,407786.200000003,8004,WL,A,14.0
3,42.401999950408936,learn,17598.000049591064,Fri Nov 22 2024 15:38:13 GMT-0600 (Central Standard Time),414700.6000000015,A,ratt,I,t,243,2,6914.39999999851,407786.200000003,8004,WL,A,14.0
3,43.18499994277954,learn,16815.00005722046,Fri Nov 22 2024 15:38:13 GMT-0600 (Central Standard Time),415483.799999997,A,rattl,I,l,769,2,7697.5999999940395,407786.200000003,8004,WL,A,14.0
3,43.319000005722046,learn,16680.999994277954,Fri Nov 22 2024 15:38:13 GMT-0600 (Central Standard Time),415617.1000000015,A,rattle,I,e,122,2,7830.89999999851,407786.200000003,8004,WL,A,14.0
3,43.484999895095825,learn,16515.000104904175,Fri Nov 22 2024 15:38:13 GMT-0600 (Central Standard Time),415783.5,A,rattleenter,I,enter,149,2,7997.29999999702,407786.200000003,8004,WL,A,14.0
3,44.33399987220764,learn,15666.000127792358,Fri Nov 22 2024 15:38:13 GMT-0600 (Central Standard Time),416633.1000000015,A,g,I,g,830,2,849.3999999985099,415783.700000003,8004,WL,A,15.0
3,44.41799998283386,learn,15582.000017166138,Fri Nov 22 2024 15:38:13 GMT-0600 (Central Standard Time),416716.3999999985,A,go,I,o,76,2,932.6999999955297,415783.700000003,8004,WL,A,15.0
3,44.6010000705719,learn,15398.9999294281,Fri Nov 22 2024 15:38:13 GMT-0600 (Central Standard Time),416900.0,A,gol,I,l,177,2,1116.2999999970198,415783.700000003,8004,WL,A,15.0
3,44.71799993515015,learn,15282.000064849854,Fri Nov 22 2024 15:38:13 GMT-0600 (Central Standard Time),417016.3999999985,A,gold,I,d,98,2,1232.6999999955297,415783.700000003,8004,WL,A,15.0
3,44.884000062942505,learn,15115.999937057495,Fri Nov 22 2024 15:38:13 GMT-0600 (Central Standard Time),417183.200000003,A,goldenter,I,enter,149,2,1399.5,415783.700000003,8004,WL,A,15.0
4,0.7660000324249268,learn,59233.99996757507,Fri Nov 22 2024 15:38:13 GMT-0600 (Central Standard Time),483978.8999999985,A,b,I,b,754,2,766.1999999955297,483212.700000003,8004,WL,A,1.0
4,1.0989999771118164,learn,58901.00002288818,Fri Nov 22 2024 15:38:13 GMT-0600 (Central Standard Time),484312.1000000015,A,bo,I,o,323,2,1099.3999999985099,483212.700000003,8004,WL,A,1.0
4,1.315999984741211,learn,58684.00001525879,Fri Nov 22 2024 15:38:13 GMT-0600 (Central Standard Time),484528.700000003,A,boo,I,o,198,2,1316.0,483212.700000003,8004,WL,A,1.0
4,1.6659998893737793,learn,58334.00011062622,Fri Nov 22 2024 15:38:13 GMT-0600 (Central Standard Time),484878.5,A,book,I,k,341,2,1665.7999999970198,483212.700000003,8004,WL,A,1.0
4,2.2149999141693115,learn,57785.00008583069,Fri Nov 22 2024 15:38:13 GMT-0600 (Central Standard Time),485428.299999997,A,bookenter,I,enter,535,2,2215.5999999940395,483212.700000003,8004,WL,A,1.0
4,3.247999906539917,learn,56752.00009346008,Fri Nov 22 2024 15:38:13 GMT-0600 (Central Standard Time),486461.299999997,A,f,I,f,1017,2,1032.6999999955297,485428.6000000015,8004,WL,A,2.0
4,3.447999954223633,learn,56552.00004577637,Fri Nov 22 2024 15:38:13 GMT-0600 (Central Standard Time),486661.3999999985,A,fl,I,l,184,2,1232.7999999970198,485428.6000000015,8004,WL,A,2.0
4,3.747999906539917,learn,56252.00009346008,Fri Nov 22 2024 15:38:13 GMT-0600 (Central Standard Time),486961.299999997,A,flo,I,o,280,2,1532.6999999955297,485428.6000000015,8004,WL,A,2.0
4,3.9649999141693115,learn,56035.00008583069,Fri Nov 22 2024 15:38:13 GMT-0600 (Central Standard Time),487177.8999999985,A,flow,I,w,204,2,1749.2999999970198,485428.6000000015,8004,WL,A,2.0
4,4.097999811172485,learn,55902.000188827515,Fri Nov 22 2024 15:38:13 GMT-0600 (Central Standard Time),487311.200000003,A,flowe,I,e,116,2,1882.6000000014901,485428.6000000015,8004,WL,A,2.0
4,4.264999866485596,learn,55735.000133514404,Fri Nov 22 2024 15:38:13 GMT-0600 (Central Standard Time),487477.799999997,A,flower,I,r,158,2,2049.1999999955297,485428.6000000015,8004,WL,A,2.0
4,5.164999961853027,learn,54835.00003814697,Fri Nov 22 2024 15:38:13 GMT-0600 (Central Standard Time),488377.5,A,flowerenter,I,enter,880,2,2948.89999999851,485428.6000000015,8004,WL,A,2.0
4,5.863999843597412,learn,54136.00015640259,Fri Nov 22 2024 15:38:13 GMT-0600 (Central Standard Time),489077.200000003,A,t,I,t,684,2,699.5,488377.700000003,8004,WL,A,3.0
4,6.097999811172485,learn,53902.000188827515,Fri Nov 22 2024 15:38:13 GMT-0600 (Central Standard Time),489310.5,A,tr,I,r,224,2,932.7999999970198,488377.700000003,8004,WL,A,3.0
4,6.21399998664856,learn,53786.00001335144,Fri Nov 22 2024 15:38:13 GMT-0600 (Central Standard Time),489427.1000000015,A,tra,I,a,103,2,1049.3999999985099,488377.700000003,8004,WL,A,3.0
4,6.447000026702881,learn,53552.99997329712,Fri Nov 22 2024 15:38:13 GMT-0600 (Central Standard Time),489660.299999997,A,trai,I,i,218,2,1282.5999999940395,488377.700000003,8004,WL,A,3.0
4,6.847999811172485,learn,53152.000188827515,Fri Nov 22 2024 15:38:13 GMT-0600 (Central Standard Time),490060.3999999985,A,train,I,n,393,2,1682.6999999955297,488377.700000003,8004,WL,A,3.0
4,7.380999803543091,learn,52619.00019645691,Fri Nov 22 2024 15:38:13 GMT-0600 (Central Standard Time),490593.5,A,trainenter,I,enter,513,2,2215.7999999970198,488377.700000003,8004,WL,A,3.0
4,7.71399998664856,learn,52286.00001335144,Fri Nov 22 2024 15:38:13 GMT-0600 (Central Standard Time),490926.6000000015,A,r,I,r,324,2,332.8999999985099,490593.700000003,8004,WL,A,4.0
4,8.513999938964844,learn,51486.000061035156,Fri Nov 22 2024 15:38:13 GMT-0600 (Central Standard Time),491726.3999999985,A,ru,I,u,791,2,1132.6999999955297,490593.700000003,8004,WL,A,4.0
4,8.829999923706055,learn,51170.000076293945,Fri Nov 22 2024 15:38:13 GMT-0600 (Central Standard Time),492043.1000000015,A,rug,I,g,303,2,1449.3999999985099,490593.700000003,8004,WL,A,4.0
4,11.995999813079834,learn,48004.000186920166,Fri Nov 22 2024 15:38:13 GMT-0600 (Central Standard Time),495208.6000000015,A,rugenter,I,enter,3155,2,4614.89999999851,490593.700000003,8004,WL,A,4.0
4,12.52999997138977,learn,47470.00002861023,Fri Nov 22 2024 15:38:13 GMT-0600 (Central Standard Time),495742.700000003,A,m,I,m,525,2,533.8000000044703,495208.8999999985,8004,WL,A,5.0
4,12.661999940872192,learn,47338.00005912781,Fri Nov 22 2024 15:38:13 GMT-0600 (Central Standard Time),495874.8999999985,A,me,I,e,127,2,666.0,495208.8999999985,8004,WL,A,5.0
4,12.794999837875366,learn,47205.000162124634,Fri Nov 22 2024 15:38:13 GMT-0600 (Central Standard Time),496008.299999997,A,mea,I,a,114,2,799.3999999985099,495208.8999999985,8004,WL,A,5.0
4,12.994999885559082,learn,47005.00011444092,Fri Nov 22 2024 15:38:13 GMT-0600 (Central Standard Time),496208.200000003,A,mead,I,d,181,2,999.3000000044703,495208.8999999985,8004,WL,A,5.0
4,13.411999940872192,learn,46588.00005912781,Fri Nov 22 2024 15:38:13 GMT-0600 (Central Standard Time),496625.0,A,meado,I,o,397,2,1416.1000000014901,495208.8999999985,8004,WL,A,5.0
4,13.562000036239624,learn,46437.999963760376,Fri Nov 22 2024 15:38:13 GMT-0600 (Central Standard Time),496774.799999997,A,meadow,I,w,140,2,1565.8999999985099,495208.8999999985,8004,WL,A,5.0
4,13.812999963760376,learn,46187.000036239624,Fri Nov 22 2024 15:38:13 GMT-0600 (Central Standard Time),497026.0,A,meadowenter,I,enter,247,2,1817.1000000014901,495208.8999999985,8004,WL,A,5.0
4,14.644999980926514,learn,45355.000019073486,Fri Nov 22 2024 15:38:13 GMT-0600 (Central Standard Time),497857.8999999985,A,h,I,h,820,2,831.5,497026.3999999985,8004,WL,A,6.0
4,14.827999830245972,learn,45172.00016975403,Fri Nov 22 2024 15:38:13 GMT-0600 (Central Standard Time),498041.0,A,ha,I,a,171,2,1014.6000000014901,497026.3999999985,8004,WL,A,6.0
4,15.062000036239624,learn,44937.999963760376,Fri Nov 22 2024 15:38:13 GMT-0600 (Central Standard Time),498274.5,A,har,I,r,229,2,1248.1000000014901,497026.3999999985,8004,WL,A,6.0
4,15.378000020980835,learn,44621.999979019165,Fri Nov 22 2024 15:38:13 GMT-0600 (Central Standard Time),498591.0,A,harp,I,p,307,2,1564.6000000014901,497026.3999999985,8004,WL,A,6.0
4,16.643999814987183,learn,43356.00018501282,Fri Nov 22 2024 15:38:13 GMT-0600 (Central Standard Time),499857.200000003,A,harpenter,I,enter,1255,2,2830.8000000044703,497026.3999999985,8004,WL,A,6.0
4,17.210999965667725,learn,42789.000034332275,Fri Nov 22 2024 15:38:13 GMT-0600 (Central Standard Time),500423.799999997,A,s,I,s,548,2,566.1999999955297,499857.6000000015,8004,WL,A,7.0
4,17.376999855041504,learn,42623.000144958496,Fri Nov 22 2024 15:38:13 GMT-0600 (Central Standard Time),500590.299999997,A,sa,I,a,150,2,732.6999999955297,499857.6000000015,8004,WL,A,7.0
4,17.49399995803833,learn,42506.00004196167,Fri Nov 22 2024 15:38:13 GMT-0600 (Central Standard Time),500706.799999997,A,sal,I,l,112,2,849.1999999955297,499857.6000000015,8004,WL,A,7.0
4,17.82699990272522,learn,42173.00009727478,Fri Nov 22 2024 15:38:13 GMT-0600 (Central Standard Time),501040.200000003,A,salt,I,t,315,2,1182.6000000014901,499857.6000000015,8004,WL,A,7.0
4,18.143999814987183,learn,41856.00018501282,Fri Nov 22 2024 15:38:13 GMT-0600 (Central Standard Time),501356.700000003,A,saltenter,I,enter,301,2,1499.1000000014901,499857.6000000015,8004,WL,A,7.0
4,19.15999984741211,learn,40840.00015258789,Fri Nov 22 2024 15:38:13 GMT-0600 (Central Standard Time),502373.200000003,A,f,I,f,1009,2,1016.1000000014901,501357.1000000015,8004,WL,A,8.0
4,19.32699990272522,learn,40673.00009727478,Fri Nov 22 2024 15:38:13 GMT-0600 (Central Standard Time),502539.700000003,A,fi,I,i,152,2,1182.6000000014901,501357.1000000015,8004,WL,A,8.0
4,19.493000030517578,learn,40506.99996948242,Fri Nov 22 2024 15:38:13 GMT-0600 (Central Standard Time),502706.299999997,A,fin,I,n,162,2,1349.1999999955297,501357.1000000015,8004,WL,A,8.0
4,19.676999807357788,learn,40323.00019264221,Fri Nov 22 2024 15:38:13 GMT-0600 (Central Standard Time),502889.6000000015,A,fing,I,g,164,2,1532.5,501357.1000000015,8004,WL,A,8.0
4,20.109999895095825,learn,39890.000104904175,Fri Nov 22 2024 15:38:13 GMT-0600 (Central Standard Time),503322.700000003,A,finge,I,e,420,2,1965.6000000014901,501357.1000000015,8004,WL,A,8.0
4,20.259999990463257,learn,39740.00000953674,Fri Nov 22 2024 15:38:13 GMT-0600 (Central Standard Time),503472.700000003,A,finger,I,r,131,2,2115.60000000149,501357.1000000015,8004,WL,A,8.0
4,20.825999975204468,learn,39174.00002479553,Fri Nov 22 2024 15:38:13 GMT-0600 (Central Standard Time),504039.200000003,A,fingerenter,I,enter,557,2,2682.10000000149,501357.1000000015,8004,WL,A,8.0
4,21.109999895095825,learn,38890.000104904175,Fri Nov 22 2024 15:38:13 GMT-0600 (Central Standard Time),504322.5,A,a,I,a,270,2,283.0,504039.5,8004,WL,A,9.0
4,21.47599983215332,learn,38524.00016784668,Fri Nov 22 2024 15:38:13 GMT-0600 (Central Standard Time),504689.200000003,A,ap,I,p,346,2,649.7000000029802,504039.5,8004,WL,A,9.0
4,21.82099986076355,learn,38179.00013923645,Fri Nov 22 2024 15:38:13 GMT-0600 (Central Standard Time),505033.8999999985,A,app,I,p,322,2,994.3999999985099,504039.5,8004,WL,A,9.0
4,21.993000030517578,learn,38006.99996948242,Fri Nov 22 2024 15:38:13 GMT-0600 (Central Standard Time),505205.6000000015,A,appl,I,l,163,2,1166.1000000014901,504039.5,8004,WL,A,9.0
4,22.608999967575073,learn,37391.00003242493,Fri Nov 22 2024 15:38:13 GMT-0600 (Central Standard Time),505821.6000000015,A,apple,I,e,608,2,1782.1000000014901,504039.5,8004,WL,A,9.0
4,22.79199981689453,learn,37208.00018310547,Fri Nov 22 2024 15:38:13 GMT-0600 (Central Standard Time),506005.0,A,appleenter,I,enter,168,2,1965.5,504039.5,8004,WL,A,9.0
4,23.024999856948853,learn,36975.00014305115,Fri Nov 22 2024 15:38:13 GMT-0600 (Central Standard Time),506238.1000000015,A,c,I,c,217,2,232.89999999850988,506005.200000003,8004,WL,A,10.0
4,23.158999919891357,learn,36841.00008010864,Fri Nov 22 2024 15:38:13 GMT-0600 (Central Standard Time),506371.3999999985,A,ch,I,h,118,2,366.19999999552965,506005.200000003,8004,WL,A,10.0
4,23.325999975204468,learn,36674.00002479553,Fri Nov 22 2024 15:38:13 GMT-0600 (Central Standard Time),506538.3999999985,A,chi,I,i,146,2,533.1999999955297,506005.200000003,8004,WL,A,10.0
4,23.774999856948853,learn,36225.00014305115,Fri Nov 22 2024 15:38:13 GMT-0600 (Central Standard Time),506988.299999997,A,chim,I,m,435,2,983.0999999940395,506005.200000003,8004,WL,A,10.0
4,24.29199981689453,learn,35708.00018310547,Fri Nov 22 2024 15:38:13 GMT-0600 (Central Standard Time),507505.0,A,chimn,I,n,505,2,1499.7999999970198,506005.200000003,8004,WL,A,10.0
4,24.508999824523926,learn,35491.000175476074,Fri Nov 22 2024 15:38:13 GMT-0600 (Central Standard Time),507721.3999999985,A,chimne,I,e,204,2,1716.1999999955297,506005.200000003,8004,WL,A,10.0
4,24.72499990463257,learn,35275.00009536743,Fri Nov 22 2024 15:38:13 GMT-0600 (Central Standard Time),507938.0,A,chimney,I,y,196,2,1932.7999999970198,506005.200000003,8004,WL,A,10.0
4,24.97499990463257,learn,35025.00009536743,Fri Nov 22 2024 15:38:13 GMT-0600 (Central Standard Time),508187.8999999985,A,chimneyenter,I,enter,244,2,2182.6999999955297,506005.200000003,8004,WL,A,10.0
4,25.274999856948853,learn,34725.00014305115,Fri Nov 22 2024 15:38:13 GMT-0600 (Central Standard Time),508487.799999997,A,b,I,b,290,2,299.5,508188.299999997,8004,WL,A,11.0
4,25.45799994468689,learn,34542.00005531311,Fri Nov 22 2024 15:38:13 GMT-0600 (Central Standard Time),508671.1000000015,A,bu,I,u,174,2,482.80000000447035,508188.299999997,8004,WL,A,11.0
4,25.641000032424927,learn,34358.99996757507,Fri Nov 22 2024 15:38:13 GMT-0600 (Central Standard Time),508854.3999999985,A,but,I,t,167,2,666.1000000014901,508188.299999997,8004,WL,A,11.0
4,25.774999856948853,learn,34225.00014305115,Fri Nov 22 2024 15:38:13 GMT-0600 (Central Standard Time),508987.6000000015,A,butt,I,t,119,2,799.3000000044703,508188.299999997,8004,WL,A,11.0
4,26.024999856948853,learn,33975.00014305115,Fri Nov 22 2024 15:38:13 GMT-0600 (Central Standard Time),509237.6000000015,A,butto,I,o,234,2,1049.3000000044703,508188.299999997,8004,WL,A,11.0
4,26.557999849319458,learn,33442.00015068054,Fri Nov 22 2024 15:38:13 GMT-0600 (Central Standard Time),509770.700000003,A,button,I,n,528,2,1582.4000000059605,508188.299999997,8004,WL,A,11.0
4,28.240999937057495,learn,31759.000062942505,Fri Nov 22 2024 15:38:13 GMT-0600 (Central Standard Time),511453.700000003,A,buttonenter,I,enter,1675,2,3265.4000000059605,508188.299999997,8004,WL,A,11.0
4,29.18999981880188,learn,30810.00018119812,Fri Nov 22 2024 15:38:13 GMT-0600 (Central Standard Time),512403.299999997,A,g,I,g,936,2,949.1999999955297,511454.1000000015,8004,WL,A,12.0
4,29.473999977111816,learn,30526.000022888184,Fri Nov 22 2024 15:38:13 GMT-0600 (Central Standard Time),512686.5,A,go,I,o,274,2,1232.3999999985099,511454.1000000015,8004,WL,A,12.0
4,29.723999977111816,learn,30276.000022888184,Fri Nov 22 2024 15:38:13 GMT-0600 (Central Standard Time),512936.3999999985,A,gol,I,l,231,2,1482.2999999970198,511454.1000000015,8004,WL,A,12.0
4,29.957000017166138,learn,30042.999982833862,Fri Nov 22 2024 15:38:13 GMT-0600 (Central Standard Time),513169.799999997,A,gold,I,d,221,2,1715.6999999955297,511454.1000000015,8004,WL,A,12.0
4,30.18999981880188,learn,29810.00018119812,Fri Nov 22 2024 15:38:13 GMT-0600 (Central Standard Time),513402.799999997,A,goldenter,I,enter,220,2,1948.6999999955297,511454.1000000015,8004,WL,A,12.0
4,30.639999866485596,learn,29360.000133514404,Fri Nov 22 2024 15:38:13 GMT-0600 (Central Standard Time),513852.8999999985,A,r,I,r,435,2,449.69999999552965,513403.200000003,8004,WL,A,13.0
4,30.85699987411499,learn,29143.00012588501,Fri Nov 22 2024 15:38:13 GMT-0600 (Central Standard Time),514069.3999999985,A,ra,I,a,201,2,666.1999999955297,513403.200000003,8004,WL,A,13.0
4,31.139999866485596,learn,28860.000133514404,Fri Nov 22 2024 15:38:13 GMT-0600 (Central Standard Time),514352.6000000015,A,rat,I,t,264,2,949.3999999985099,513403.200000003,8004,WL,A,13.0
4,31.305999994277954,learn,28694.000005722046,Fri Nov 22 2024 15:38:13 GMT-0600 (Central Standard Time),514519.200000003,A,ratt,I,t,149,2,1116.0,513403.200000003,8004,WL,A,13.0
4,31.472999811172485,learn,28527.000188827515,Fri Nov 22 2024 15:38:13 GMT-0600 (Central Standard Time),514686.0,A,rattl,I,l,158,2,1282.7999999970198,513403.200000003,8004,WL,A,13.0
4,32.83899998664856,learn,27161.00001335144,Fri Nov 22 2024 15:38:13 GMT-0600 (Central Standard Time),516052.1000000015,A,rattle,I,e,1360,2,2648.89999999851,513403.200000003,8004,WL,A,13.0
4,33.65599989891052,learn,26344.000101089478,Fri Nov 22 2024 15:38:13 GMT-0600 (Central Standard Time),516868.5,A,rattleenter,I,enter,809,2,3465.2999999970198,513403.200000003,8004,WL,A,13.0
4,40.169999837875366,learn,19830.000162124634,Fri Nov 22 2024 15:38:13 GMT-0600 (Central Standard Time),523383.1000000015,A,b,I,b,6505,2,6514.30000000447,516868.799999997,8004,WL,A,14.0
4,40.38699984550476,learn,19613.00015449524,Fri Nov 22 2024 15:38:13 GMT-0600 (Central Standard Time),523599.700000003,A,bu,I,u,198,2,6730.9000000059605,516868.799999997,8004,WL,A,14.0
4,40.63699984550476,learn,19363.00015449524,Fri Nov 22 2024 15:38:13 GMT-0600 (Central Standard Time),523849.6000000015,A,but,I,t,230,2,6980.80000000447,516868.799999997,8004,WL,A,14.0
4,40.82099986076355,learn,19179.00013923645,Fri Nov 22 2024 15:38:13 GMT-0600 (Central Standard Time),524034.1000000015,A,butt,I,t,172,2,7165.30000000447,516868.799999997,8004,WL,A,14.0
4,40.919999837875366,learn,19080.000162124634,Fri Nov 22 2024 15:38:13 GMT-0600 (Central Standard Time),524133.200000003,A,butto,I,o,83,2,7264.4000000059605,516868.799999997,8004,WL,A,14.0
4,41.169999837875366,learn,18830.000162124634,Fri Nov 22 2024 15:38:13 GMT-0600 (Central Standard Time),524382.8999999985,A,button,I,n,233,2,7514.10000000149,516868.799999997,8004,WL,A,14.0
4,41.5699999332428,learn,18430.000066757202,Fri Nov 22 2024 15:38:13 GMT-0600 (Central Standard Time),524782.6000000015,A,buttonenter,I,enter,390,2,7913.80000000447,516868.799999997,8004,WL,A,14.0
4,46.01799988746643,learn,13982.00011253357,Fri Nov 22 2024 15:38:13 GMT-0600 (Central Standard Time),529231.299999997,A,enter,I,enter,4439,2,4448.39999999851,524782.8999999985,8004,WL,A,15.0
5,0.9839999675750732,learn,60000.0,Fri Nov 22 2024 15:38:13 GMT-0600 (Central Standard Time),594477.700000003,A,b,I,b,976,2,983.1000000014901,593494.6000000015,8004,WL,A,1.0
5,1.2999999523162842,learn,60000.0,Fri Nov 22 2024 15:38:13 GMT-0600 (Central Standard Time),594794.3999999985,A,bu,I,u,304,2,1299.7999999970198,593494.6000000015,8004,WL,A,1.0
5,1.5339999198913574,learn,60000.0,Fri Nov 22 2024 15:38:13 GMT-0600 (Central Standard Time),595028.3999999985,A,but,I,t,227,2,1533.7999999970198,593494.6000000015,8004,WL,A,1.0
5,1.7000000476837158,learn,60000.0,Fri Nov 22 2024 15:38:13 GMT-0600 (Central Standard Time),595194.299999997,A,butt,I,t,161,2,1699.6999999955297,593494.6000000015,8004,WL,A,1.0
5,1.816999912261963,learn,60000.0,Fri Nov 22 2024 15:38:13 GMT-0600 (Central Standard Time),595311.3999999985,A,butto,I,o,107,2,1816.7999999970198,593494.6000000015,8004,WL,A,1.0
5,1.9670000076293945,learn,60000.0,Fri Nov 22 2024 15:38:13 GMT-0600 (Central Standard Time),595460.799999997,A,button,I,n,142,2,1966.1999999955297,593494.6000000015,8004,WL,A,1.0
5,2.25,learn,60000.0,Fri Nov 22 2024 15:38:13 GMT-0600 (Central Standard Time),595743.799999997,A,buttonenter,I,enter,273,2,2249.1999999955297,593494.6000000015,8004,WL,A,1.0
5,2.5160000324249268,learn,60000.0,Fri Nov 22 2024 15:38:13 GMT-0600 (Central Standard Time),596010.3999999985,A,l,I,l,254,2,266.19999999552965,595744.200000003,8004,WL,A,2.0
5,2.7160000801086426,learn,60000.0,Fri Nov 22 2024 15:38:13 GMT-0600 (Central Standard Time),596210.200000003,A,lo,I,o,195,2,466.0,595744.200000003,8004,WL,A,2.0
5,2.9000000953674316,learn,60000.0,Fri Nov 22 2024 15:38:13 GMT-0600 (Central Standard Time),596393.6000000015,A,log,I,g,171,2,649.3999999985099,595744.200000003,8004,WL,A,2.0
5,3.1489999294281006,learn,60000.0,Fri Nov 22 2024 15:38:13 GMT-0600 (Central Standard Time),596643.299999997,A,logenter,I,enter,244,2,899.0999999940395,595744.200000003,8004,WL,A,2.0
5,3.515000104904175,learn,60000.0,Fri Nov 22 2024 15:38:13 GMT-0600 (Central Standard Time),597010.1000000015,A,k,I,k,354,2,366.5,596643.6000000015,8004,WL,A,3.0
5,3.7820000648498535,learn,60000.0,Fri Nov 22 2024 15:38:13 GMT-0600 (Central Standard Time),597276.700000003,A,ky,I,y,259,2,633.1000000014901,596643.6000000015,8004,WL,A,3.0
5,4.699000120162964,learn,60000.0,Fri Nov 22 2024 15:38:13 GMT-0600 (Central Standard Time),598193.299999997,A,k,I,backspace,897,2,1549.6999999955297,596643.6000000015,8004,WL,A,3.0
5,5.2149999141693115,learn,60000.0,Fri Nov 22 2024 15:38:13 GMT-0600 (Central Standard Time),598709.5,A,ke,I,e,500,2,2065.89999999851,596643.6000000015,8004,WL,A,3.0
5,5.6600000858306885,learn,60000.0,Fri Nov 22 2024 15:38:13 GMT-0600 (Central Standard Time),599154.5,A,key,I,y,293,2,2510.89999999851,596643.6000000015,8004,WL,A,3.0
5,6.13100004196167,learn,60000.0,Fri Nov 22 2024 15:38:13 GMT-0600 (Central Standard Time),599626.0,A,keyenter,I,enter,459,2,2982.39999999851,596643.6000000015,8004,WL,A,3.0
5,6.565000057220459,learn,60000.0,Fri Nov 22 2024 15:38:13 GMT-0600 (Central Standard Time),600060.1000000015,A,g,I,g,428,2,433.80000000447035,599626.299999997,8004,WL,A,4.0
5,6.680999994277954,learn,60000.0,Fri Nov 22 2024 15:38:13 GMT-0600 (Central Standard Time),600176.1000000015,A,go,I,o,98,2,549.8000000044703,599626.299999997,8004,WL,A,4.0
5,6.88100004196167,learn,60000.0,Fri Nov 22 2024 15:38:13 GMT-0600 (Central Standard Time),600375.700000003,A,gol,I,l,190,2,749.4000000059605,599626.299999997,8004,WL,A,4.0
5,7.015000104904175,learn,60000.0,Fri Nov 22 2024 15:38:13 GMT-0600 (Central Standard Time),600510.200000003,A,gold,I,d,118,2,883.9000000059605,599626.299999997,8004,WL,A,4.0
5,7.513999938964844,learn,60000.0,Fri Nov 22 2024 15:38:13 GMT-0600 (Central Standard Time),601008.799999997,A,goldenter,I,enter,479,2,1382.5,599626.299999997,8004,WL,A,4.0
5,7.897000074386597,learn,60000.0,Fri Nov 22 2024 15:38:13 GMT-0600 (Central Standard Time),601392.200000003,A,r,I,r,372,2,383.1000000014901,601009.1000000015,8004,WL,A,5.0
5,8.114000082015991,learn,60000.0,Fri Nov 22 2024 15:38:13 GMT-0600 (Central Standard Time),601608.8999999985,A,ra,I,a,205,2,599.7999999970198,601009.1000000015,8004,WL,A,5.0
5,8.364000082015991,learn,60000.0,Fri Nov 22 2024 15:38:13 GMT-0600 (Central Standard Time),601858.6000000015,A,rat,I,t,237,2,849.5,601009.1000000015,8004,WL,A,5.0
5,8.513999938964844,learn,60000.0,Fri Nov 22 2024 15:38:13 GMT-0600 (Central Standard Time),602008.5,A,ratt,I,t,131,2,999.3999999985099,601009.1000000015,8004,WL,A,5.0
5,8.647000074386597,learn,60000.0,Fri Nov 22 2024 15:38:13 GMT-0600 (Central Standard Time),602141.799999997,A,rattl,I,l,125,2,1132.6999999955297,601009.1000000015,8004,WL,A,5.0
5,8.763999938964844,learn,60000.0,Fri Nov 22 2024 15:38:13 GMT-0600 (Central Standard Time),602258.3999999985,A,rattle,I,e,104,2,1249.2999999970198,601009.1000000015,8004,WL,A,5.0
5,8.94700002670288,learn,60000.0,Fri Nov 22 2024 15:38:13 GMT-0600 (Central Standard Time),602441.799999997,A,rattleenter,I,enter,171,2,1432.6999999955297,601009.1000000015,8004,WL,A,5.0
5,10.263000011444092,learn,60000.0,Fri Nov 22 2024 15:38:13 GMT-0600 (Central Standard Time),603758.0,A,b,I,b,1308,2,1315.8999999985099,602442.1000000015,8004,WL,A,6.0
5,10.430000066757202,learn,60000.0,Fri Nov 22 2024 15:38:13 GMT-0600 (Central Standard Time),603924.700000003,A,bo,I,o,160,2,1482.6000000014901,602442.1000000015,8004,WL,A,6.0
5,10.597000122070312,learn,60000.0,Fri Nov 22 2024 15:38:13 GMT-0600 (Central Standard Time),604091.3999999985,A,boo,I,o,153,2,1649.2999999970198,602442.1000000015,8004,WL,A,6.0
5,10.86299991607666,learn,60000.0,Fri Nov 22 2024 15:38:13 GMT-0600 (Central Standard Time),604357.8999999985,A,book,I,k,258,2,1915.7999999970198,602442.1000000015,8004,WL,A,6.0
5,11.145999908447266,learn,60000.0,Fri Nov 22 2024 15:38:13 GMT-0600 (Central Standard Time),604641.1000000015,A,bookenter,I,enter,272,2,2199.0,602442.1000000015,8004,WL,A,6.0
5,11.579999923706055,learn,60000.0,Fri Nov 22 2024 15:38:13 GMT-0600 (Central Standard Time),605074.299999997,A,s,I,s,428,2,432.79999999701977,604641.5,8004,WL,A,7.0
5,12.196000099182129,learn,60000.0,Fri Nov 22 2024 15:38:13 GMT-0600 (Central Standard Time),605690.799999997,A,sf,I,f,595,2,1049.2999999970198,604641.5,8004,WL,A,7.0
5,12.796000003814697,learn,60000.0,Fri Nov 22 2024 15:38:13 GMT-0600 (Central Standard Time),606290.6000000015,A,s,I,backspace,595,2,1649.1000000014901,604641.5,8004,WL,A,7.0
5,12.963000059127808,learn,60000.0,Fri Nov 22 2024 15:38:13 GMT-0600 (Central Standard Time),606457.299999997,A,,I,backspace,155,2,1815.7999999970198,604641.5,8004,WL,A,7.0
5,13.34500002861023,learn,60000.0,Fri Nov 22 2024 15:38:13 GMT-0600 (Central Standard Time),606840.200000003,A,f,I,f,365,2,2198.7000000029802,604641.5,8004,WL,A,7.0
5,13.529000043869019,learn,60000.0,Fri Nov 22 2024 15:38:13 GMT-0600 (Central Standard Time),607023.6000000015,A,fl,I,l,166,2,2382.10000000149,604641.5,8004,WL,A,7.0
5,13.729000091552734,learn,60000.0,Fri Nov 22 2024 15:38:13 GMT-0600 (Central Standard Time),607223.6000000015,A,flo,I,o,190,2,2582.10000000149,604641.5,8004,WL,A,7.0
5,13.861999988555908,learn,60000.0,Fri Nov 22 2024 15:38:13 GMT-0600 (Central Standard Time),607356.6000000015,A,flow,I,w,118,2,2715.10000000149,604641.5,8004,WL,A,7.0
5,13.946000099182129,learn,60000.0,Fri Nov 22 2024 15:38:13 GMT-0600 (Central Standard Time),607440.299999997,A,flowe,I,e,73,2,2798.7999999970198,604641.5,8004,WL,A,7.0
5,14.145999908447266,learn,60000.0,Fri Nov 22 2024 15:38:13 GMT-0600 (Central Standard Time),607640.299999997,A,flower,I,r,182,2,2998.7999999970198,604641.5,8004,WL,A,7.0
5,14.712000131607056,learn,60000.0,Fri Nov 22 2024 15:38:13 GMT-0600 (Central Standard Time),608206.5,A,flowerenter,I,enter,549,2,3565.0,604641.5,8004,WL,A,7.0
5,14.944999933242798,learn,60000.0,Fri Nov 22 2024 15:38:13 GMT-0600 (Central Standard Time),608439.8999999985,A,t,I,t,215,2,232.79999999701977,608207.1000000015,8004,WL,A,8.0
5,15.144999980926514,learn,60000.0,Fri Nov 22 2024 15:38:13 GMT-0600 (Central Standard Time),608639.700000003,A,tr,I,r,190,2,432.6000000014901,608207.1000000015,8004,WL,A,8.0
5,15.32800006866455,learn,60000.0,Fri Nov 22 2024 15:38:13 GMT-0600 (Central Standard Time),608822.8999999985,A,tra,I,a,174,2,615.7999999970198,608207.1000000015,8004,WL,A,8.0
5,15.477999925613403,learn,60000.0,Fri Nov 22 2024 15:38:13 GMT-0600 (Central Standard Time),608973.200000003,A,trai,I,i,143,2,766.1000000014901,608207.1000000015,8004,WL,A,8.0
5,15.962000131607056,learn,60000.0,Fri Nov 22 2024 15:38:13 GMT-0600 (Central Standard Time),609456.299999997,A,train,I,n,464,2,1249.1999999955297,608207.1000000015,8004,WL,A,8.0
5,16.91100001335144,learn,60000.0,Fri Nov 22 2024 15:38:13 GMT-0600 (Central Standard Time),610406.0,A,trainenter,I,enter,933,2,2198.89999999851,608207.1000000015,8004,WL,A,8.0
5,17.41100001335144,learn,60000.0,Fri Nov 22 2024 15:38:13 GMT-0600 (Central Standard Time),610905.799999997,A,r,I,r,479,2,499.59999999403954,610406.200000003,8004,WL,A,9.0
5,17.561000108718872,learn,60000.0,Fri Nov 22 2024 15:38:13 GMT-0600 (Central Standard Time),611055.799999997,A,ru,I,u,132,2,649.5999999940395,610406.200000003,8004,WL,A,9.0
5,17.82800006866455,learn,60000.0,Fri Nov 22 2024 15:38:13 GMT-0600 (Central Standard Time),611322.299999997,A,rug,I,g,254,2,916.0999999940395,610406.200000003,8004,WL,A,9.0
5,18.01099991798401,learn,60000.0,Fri Nov 22 2024 15:38:13 GMT-0600 (Central Standard Time),611505.5,A,rugenter,I,enter,163,2,1099.2999999970198,610406.200000003,8004,WL,A,9.0
5,18.24399995803833,learn,60000.0,Fri Nov 22 2024 15:38:13 GMT-0600 (Central Standard Time),611738.700000003,A,m,I,m,228,2,232.90000000596046,611505.799999997,8004,WL,A,10.0
5,18.32800006866455,learn,60000.0,Fri Nov 22 2024 15:38:13 GMT-0600 (Central Standard Time),611822.3999999985,A,me,I,e,75,2,316.6000000014901,611505.799999997,8004,WL,A,10.0
5,18.444000005722046,learn,60000.0,Fri Nov 22 2024 15:38:13 GMT-0600 (Central Standard Time),611938.8999999985,A,mea,I,a,103,2,433.1000000014901,611505.799999997,8004,WL,A,10.0
5,18.64400005340576,learn,60000.0,Fri Nov 22 2024 15:38:13 GMT-0600 (Central Standard Time),612138.700000003,A,mead,I,d,178,2,632.9000000059605,611505.799999997,8004,WL,A,10.0
5,18.82699990272522,learn,60000.0,Fri Nov 22 2024 15:38:13 GMT-0600 (Central Standard Time),612322.0,A,meado,I,o,171,2,816.2000000029802,611505.799999997,8004,WL,A,10.0
5,19.776999950408936,learn,60000.0,Fri Nov 22 2024 15:38:13 GMT-0600 (Central Standard Time),613271.799999997,A,meadow,I,w,932,2,1766.0,611505.799999997,8004,WL,A,10.0
5,20.24399995803833,learn,60000.0,Fri Nov 22 2024 15:38:13 GMT-0600 (Central Standard Time),613738.3999999985,A,meadowenter,I,enter,462,2,2232.60000000149,611505.799999997,8004,WL,A,10.0
5,20.526999950408936,learn,60000.0,Fri Nov 22 2024 15:38:13 GMT-0600 (Central Standard Time),614021.6000000015,A,h,I,h,268,2,282.8999999985099,613738.700000003,8004,WL,A,11.0
5,20.693000078201294,learn,60000.0,Fri Nov 22 2024 15:38:13 GMT-0600 (Central Standard Time),614188.1000000015,A,ha,I,a,160,2,449.3999999985099,613738.700000003,8004,WL,A,11.0
5,21.377000093460083,learn,60000.0,Fri Nov 22 2024 15:38:13 GMT-0600 (Central Standard Time),614871.3999999985,A,har,I,r,665,2,1132.6999999955297,613738.700000003,8004,WL,A,11.0
5,21.66000008583069,learn,60000.0,Fri Nov 22 2024 15:38:13 GMT-0600 (Central Standard Time),615154.5,A,harp,I,p,278,2,1415.7999999970198,613738.700000003,8004,WL,A,11.0
5,22.2260000705719,learn,60000.0,Fri Nov 22 2024 15:38:13 GMT-0600 (Central Standard Time),615720.8999999985,A,harpenter,I,enter,547,2,1982.1999999955297,613738.700000003,8004,WL,A,11.0
5,22.41000008583069,learn,60000.0,Fri Nov 22 2024 15:38:13 GMT-0600 (Central Standard Time),615904.200000003,A,s,I,s,165,2,182.90000000596046,615721.299999997,8004,WL,A,12.0
5,22.710000038146973,learn,60000.0,Fri Nov 22 2024 15:38:13 GMT-0600 (Central Standard Time),616204.299999997,A,sa,I,a,293,2,483.0,615721.299999997,8004,WL,A,12.0
5,22.960000038146973,learn,60000.0,Fri Nov 22 2024 15:38:13 GMT-0600 (Central Standard Time),616454.200000003,A,sal,I,l,233,2,732.9000000059605,615721.299999997,8004,WL,A,12.0
5,23.14300012588501,learn,60000.0,Fri Nov 22 2024 15:38:13 GMT-0600 (Central Standard Time),616637.299999997,A,sale,I,e,167,2,916.0,615721.299999997,8004,WL,A,12.0
5,23.358999967575073,learn,60000.0,Fri Nov 22 2024 15:38:13 GMT-0600 (Central Standard Time),616854.0,A,saleenter,I,enter,200,2,1132.7000000029802,615721.299999997,8004,WL,A,12.0
5,24.64199995994568,learn,60000.0,Fri Nov 22 2024 15:38:13 GMT-0600 (Central Standard Time),618136.8999999985,A,s,I,s,1264,2,1282.6000000014901,616854.299999997,8004,WL,A,13.0
5,24.858999967575073,learn,60000.0,Fri Nov 22 2024 15:38:13 GMT-0600 (Central Standard Time),618353.5,A,sa,I,a,205,2,1499.2000000029802,616854.299999997,8004,WL,A,13.0
5,25.14199995994568,learn,60000.0,Fri Nov 22 2024 15:38:13 GMT-0600 (Central Standard Time),618636.5,A,sal,I,l,276,2,1782.2000000029802,616854.299999997,8004,WL,A,13.0
5,26.19099998474121,learn,60000.0,Fri Nov 22 2024 15:38:13 GMT-0600 (Central Standard Time),619686.200000003,A,sa,I,backspace,1033,2,2831.9000000059605,616854.299999997,8004,WL,A,13.0
5,26.657999992370605,learn,60000.0,Fri Nov 22 2024 15:38:13 GMT-0600 (Central Standard Time),620153.0,A,s,I,backspace,456,2,3298.7000000029802,616854.299999997,8004,WL,A,13.0
5,27.058000087738037,learn,60000.0,Fri Nov 22 2024 15:38:13 GMT-0600 (Central Standard Time),620552.799999997,A,,I,backspace,381,2,3698.5,616854.299999997,8004,WL,A,13.0
5,28.44099998474121,learn,60000.0,Fri Nov 22 2024 15:38:13 GMT-0600 (Central Standard Time),621935.6000000015,A,f,I,f,1373,2,5081.30000000447,616854.299999997,8004,WL,A,13.0
5,28.5239999294281,learn,60000.0,Fri Nov 22 2024 15:38:13 GMT-0600 (Central Standard Time),622019.1000000015,A,fi,I,i,70,2,5164.80000000447,616854.299999997,8004,WL,A,13.0
5,28.707000017166138,learn,60000.0,Fri Nov 22 2024 15:38:13 GMT-0600 (Central Standard Time),622202.1000000015,A,fin,I,n,170,2,5347.80000000447,616854.299999997,8004,WL,A,13.0
5,28.85700011253357,learn,60000.0,Fri Nov 22 2024 15:38:13 GMT-0600 (Central Standard Time),622352.1000000015,A,fing,I,g,139,2,5497.80000000447,616854.299999997,8004,WL,A,13.0
5,29.07100009918213,learn,60000.0,Fri Nov 22 2024 15:38:13 GMT-0600 (Central Standard Time),622565.799999997,A,finge,I,e,208,2,5711.5,616854.299999997,8004,WL,A,13.0
5,29.217999935150146,learn,60000.0,Fri Nov 22 2024 15:38:13 GMT-0600 (Central Standard Time),622712.700000003,A,finger,I,r,32,2,5858.4000000059605,616854.299999997,8004,WL,A,13.0
5,29.556999921798706,learn,60000.0,Fri Nov 22 2024 15:38:13 GMT-0600 (Central Standard Time),623052.0,A,fingerenter,I,enter,325,2,6197.70000000298,616854.299999997,8004,WL,A,13.0
5,29.907000064849854,learn,60000.0,Fri Nov 22 2024 15:38:13 GMT-0600 (Central Standard Time),623401.6000000015,A,a,I,a,338,2,349.30000000447035,623052.299999997,8004,WL,A,14.0
5,30.074000120162964,learn,60000.0,Fri Nov 22 2024 15:38:13 GMT-0600 (Central Standard Time),623568.5,A,ap,I,p,148,2,516.2000000029802,623052.299999997,8004,WL,A,14.0
5,30.256999969482422,learn,60000.0,Fri Nov 22 2024 15:38:13 GMT-0600 (Central Standard Time),623751.3999999985,A,app,I,p,173,2,699.1000000014901,623052.299999997,8004,WL,A,14.0
5,30.473999977111816,learn,60000.0,Fri Nov 22 2024 15:38:13 GMT-0600 (Central Standard Time),623968.3999999985,A,appl,I,l,198,2,916.1000000014901,623052.299999997,8004,WL,A,14.0
5,30.907000064849854,learn,60000.0,Fri Nov 22 2024 15:38:13 GMT-0600 (Central Standard Time),624401.5,A,apple,I,e,413,2,1349.2000000029802,623052.299999997,8004,WL,A,14.0
5,31.125,learn,60000.0,Fri Nov 22 2024 15:38:13 GMT-0600 (Central Standard Time),624619.8999999985,A,appleenter,I,enter,196,2,1567.6000000014901,623052.299999997,8004,WL,A,14.0
5,31.457000017166138,learn,60000.0,Fri Nov 22 2024 15:38:13 GMT-0600 (Central Standard Time),624951.200000003,A,c,I,c,314,2,330.80000000447035,624620.3999999985,8004,WL,A,15.0
5,31.6560001373291,learn,60000.0,Fri Nov 22 2024 15:38:13 GMT-0600 (Central Standard Time),625151.200000003,A,ch,I,h,190,2,530.8000000044703,624620.3999999985,8004,WL,A,15.0
5,31.822999954223633,learn,60000.0,Fri Nov 22 2024 15:38:13 GMT-0600 (Central Standard Time),625318.200000003,A,chi,I,i,150,2,697.8000000044703,624620.3999999985,8004,WL,A,15.0
5,32.140000104904175,learn,60000.0,Fri Nov 22 2024 15:38:13 GMT-0600 (Central Standard Time),625634.3999999985,A,chim,I,m,311,2,1014.0,624620.3999999985,8004,WL,A,15.0
5,32.44000005722046,learn,60000.0,Fri Nov 22 2024 15:38:13 GMT-0600 (Central Standard Time),625934.200000003,A,chimn,I,n,291,2,1313.8000000044703,624620.3999999985,8004,WL,A,15.0
5,32.62299990653992,learn,60000.0,Fri Nov 22 2024 15:38:13 GMT-0600 (Central Standard Time),626117.700000003,A,chimne,I,e,175,2,1497.3000000044703,624620.3999999985,8004,WL,A,15.0
5,32.87299990653992,learn,60000.0,Fri Nov 22 2024 15:38:13 GMT-0600 (Central Standard Time),626367.700000003,A,chimney,I,y,240,2,1747.3000000044703,624620.3999999985,8004,WL,A,15.0
5,33.206000089645386,learn,60000.0,Fri Nov 22 2024 15:38:13 GMT-0600 (Central Standard Time),626701.0,A,chimneyenter,I,enter,318,2,2080.60000000149,624620.3999999985,8004,WL,A,15.0
6,0.46700000762939453,distr,59532.999992370605,Fri Nov 22 2024 15:38:13 GMT-0600 (Central Standard Time),692597.0,B,b,I,b,452,2,466.20000000298023,692130.799999997,8004,WL,A,1.0
6,0.7330000400543213,distr,59266.99995994568,Fri Nov 22 2024 15:38:13 GMT-0600 (Central Standard Time),692863.3999999985,B,bo,I,o,248,2,732.6000000014901,692130.799999997,8004,WL,A,1.0
6,1.1610000133514404,distr,58838.99998664856,Fri Nov 22 2024 15:38:13 GMT-0600 (Central Standard Time),693291.3999999985,B,bow,I,w,286,2,1160.6000000014901,692130.799999997,8004,WL,A,1.0
6,1.2019999027252197,distr,58798.00009727478,Fri Nov 22 2024 15:38:13 GMT-0600 (Central Standard Time),693331.700000003,B,bowl,I,l,18,2,1200.9000000059605,692130.799999997,8004,WL,A,1.0
6,1.6659998893737793,distr,58334.00011062622,Fri Nov 22 2024 15:38:13 GMT-0600 (Central Standard Time),693796.3999999985,B,bowlenter,I,enter,450,2,1665.6000000014901,692130.799999997,8004,WL,A,1.0
6,2.0160000324249268,distr,57983.99996757507,Fri Nov 22 2024 15:38:13 GMT-0600 (Central Standard Time),694146.5,B,d,I,d,329,2,349.70000000298023,693796.799999997,8004,WL,A,2.0
6,2.2990000247955322,distr,57700.99997520447,Fri Nov 22 2024 15:38:13 GMT-0600 (Central Standard Time),694429.5,B,da,I,a,267,2,632.7000000029802,693796.799999997,8004,WL,A,2.0
6,2.5989999771118164,distr,57401.00002288818,Fri Nov 22 2024 15:38:13 GMT-0600 (Central Standard Time),694729.5,B,daw,I,w,280,2,932.7000000029802,693796.799999997,8004,WL,A,2.0
6,2.8329999446868896,distr,57167.00005531311,Fri Nov 22 2024 15:38:13 GMT-0600 (Central Standard Time),694962.799999997,B,dawn,I,n,220,2,1166.0,693796.799999997,8004,WL,A,2.0
6,3.1659998893737793,distr,56834.00011062622,Fri Nov 22 2024 15:38:13 GMT-0600 (Central Standard Time),695296.1000000015,B,dawnenter,I,enter,314,2,1499.3000000044703,693796.799999997,8004,WL,A,2.0
6,3.6989998817443848,distr,56301.000118255615,Fri Nov 22 2024 15:38:13 GMT-0600 (Central Standard Time),695829.299999997,B,j,I,j,518,2,532.8999999985099,695296.3999999985,8004,WL,A,3.0
6,3.9819998741149902,distr,56018.00012588501,Fri Nov 22 2024 15:38:13 GMT-0600 (Central Standard Time),696112.299999997,B,ju,I,u,264,2,815.8999999985099,695296.3999999985,8004,WL,A,3.0
6,4.23199987411499,distr,55768.00012588501,Fri Nov 22 2024 15:38:13 GMT-0600 (Central Standard Time),696362.200000003,B,jud,I,d,245,2,1065.8000000044703,695296.3999999985,8004,WL,A,3.0
6,4.681999921798706,distr,55318.000078201294,Fri Nov 22 2024 15:38:13 GMT-0600 (Central Standard Time),696812.3999999985,B,judg,I,g,435,2,1516.0,695296.3999999985,8004,WL,A,3.0
6,5.014999866485596,distr,54985.000133514404,Fri Nov 22 2024 15:38:13 GMT-0600 (Central Standard Time),697145.3999999985,B,judge,I,e,321,2,1849.0,695296.3999999985,8004,WL,A,3.0
6,5.414999961853027,distr,54585.00003814697,Fri Nov 22 2024 15:38:13 GMT-0600 (Central Standard Time),697545.200000003,B,judgeenter,I,enter,388,2,2248.8000000044703,695296.3999999985,8004,WL,A,3.0
6,5.914999961853027,distr,54085.00003814697,Fri Nov 22 2024 15:38:13 GMT-0600 (Central Standard Time),698045.1000000015,B,g,I,g,493,2,499.70000000298023,697545.3999999985,8004,WL,A,4.0
6,6.164999961853027,distr,53835.00003814697,Fri Nov 22 2024 15:38:13 GMT-0600 (Central Standard Time),698295.1000000015,B,gr,I,r,241,2,749.7000000029802,697545.3999999985,8004,WL,A,4.0
6,6.431999921798706,distr,53568.000078201294,Fri Nov 22 2024 15:38:13 GMT-0600 (Central Standard Time),698561.799999997,B,gra,I,a,254,2,1016.3999999985099,697545.3999999985,8004,WL,A,4.0
6,6.582000017166138,distr,53417.99998283386,Fri Nov 22 2024 15:38:13 GMT-0600 (Central Standard Time),698711.6000000015,B,gran,I,n,140,2,1166.2000000029802,697545.3999999985,8004,WL,A,4.0
6,6.865000009536743,distr,53134.99999046326,Fri Nov 22 2024 15:38:13 GMT-0600 (Central Standard Time),698994.6000000015,B,grant,I,t,278,2,1449.2000000029802,697545.3999999985,8004,WL,A,4.0
6,7.080999851226807,distr,52919.00014877319,Fri Nov 22 2024 15:38:13 GMT-0600 (Central Standard Time),699211.3999999985,B,grantenter,I,enter,203,2,1666.0,697545.3999999985,8004,WL,A,4.0
6,7.4649999141693115,distr,52535.00008583069,Fri Nov 22 2024 15:38:13 GMT-0600 (Central Standard Time),699594.6000000015,B,i,I,i,370,2,382.8999999985099,699211.700000003,8004,WL,A,5.0
6,7.697999954223633,distr,52302.00004577637,Fri Nov 22 2024 15:38:13 GMT-0600 (Central Standard Time),699827.799999997,B,in,I,n,219,2,616.0999999940395,699211.700000003,8004,WL,A,5.0
6,8.047999858856201,distr,51952.0001411438,Fri Nov 22 2024 15:38:13 GMT-0600 (Central Standard Time),700177.700000003,B,ins,I,s,330,2,966.0,699211.700000003,8004,WL,A,5.0
6,8.263999938964844,distr,51736.000061035156,Fri Nov 22 2024 15:38:13 GMT-0600 (Central Standard Time),700394.299999997,B,insp,I,p,212,2,1182.5999999940395,699211.700000003,8004,WL,A,5.0
6,8.46399998664856,distr,51536.00001335144,Fri Nov 22 2024 15:38:13 GMT-0600 (Central Standard Time),700594.299999997,B,inspe,I,e,195,2,1382.5999999940395,699211.700000003,8004,WL,A,5.0
6,8.79699993133545,distr,51203.00006866455,Fri Nov 22 2024 15:38:13 GMT-0600 (Central Standard Time),700927.3999999985,B,inspec,I,c,315,2,1715.6999999955297,699211.700000003,8004,WL,A,5.0
6,9.664000034332275,distr,50335.999965667725,Fri Nov 22 2024 15:38:13 GMT-0600 (Central Standard Time),701794.200000003,B,inspe,I,backspace,846,2,2582.5,699211.700000003,8004,WL,A,5.0
6,9.88100004196167,distr,50118.99995803833,Fri Nov 22 2024 15:38:13 GMT-0600 (Central Standard Time),702010.799999997,B,insp,I,backspace,195,2,2799.0999999940395,699211.700000003,8004,WL,A,5.0
6,10.096999883651733,distr,49903.00011634827,Fri Nov 22 2024 15:38:13 GMT-0600 (Central Standard Time),702226.8999999985,B,ins,I,backspace,211,2,3015.1999999955297,699211.700000003,8004,WL,A,5.0
6,10.613999843597412,distr,49386.00015640259,Fri Nov 22 2024 15:38:13 GMT-0600 (Central Standard Time),702743.700000003,B,inse,I,e,507,2,3532.0,699211.700000003,8004,WL,A,5.0
6,10.980000019073486,distr,49019.999980926514,Fri Nov 22 2024 15:38:13 GMT-0600 (Central Standard Time),703110.299999997,B,insec,I,c,358,2,3898.5999999940395,699211.700000003,8004,WL,A,5.0
6,11.27999997138977,distr,48720.00002861023,Fri Nov 22 2024 15:38:13 GMT-0600 (Central Standard Time),703410.299999997,B,insect,I,t,279,2,4198.5999999940395,699211.700000003,8004,WL,A,5.0
6,11.94599986076355,distr,48054.00013923645,Fri Nov 22 2024 15:38:13 GMT-0600 (Central Standard Time),704076.6000000015,B,insects,I,s,651,2,4864.89999999851,699211.700000003,8004,WL,A,5.0
6,12.978999853134155,distr,47021.000146865845,Fri Nov 22 2024 15:38:13 GMT-0600 (Central Standard Time),705109.6000000015,B,insect,I,backspace,1025,2,5897.89999999851,699211.700000003,8004,WL,A,5.0
6,13.279000043869019,distr,46720.99995613098,Fri Nov 22 2024 15:38:13 GMT-0600 (Central Standard Time),705409.5,B,insectenter,I,enter,280,2,6197.79999999702,699211.700000003,8004,WL,A,5.0
6,13.812999963760376,distr,46187.000036239624,Fri Nov 22 2024 15:38:13 GMT-0600 (Central Standard Time),705942.6000000015,B,p,I,p,516,2,532.7000000029802,705409.8999999985,8004,WL,A,6.0
6,14.079999923706055,distr,45920.000076293945,Fri Nov 22 2024 15:38:13 GMT-0600 (Central Standard Time),706209.6000000015,B,po,I,o,255,2,799.7000000029802,705409.8999999985,8004,WL,A,6.0
6,14.279000043869019,distr,45720.99995613098,Fri Nov 22 2024 15:38:13 GMT-0600 (Central Standard Time),706409.200000003,B,poo,I,o,180,2,999.3000000044703,705409.8999999985,8004,WL,A,6.0
6,14.529000043869019,distr,45470.99995613098,Fri Nov 22 2024 15:38:13 GMT-0600 (Central Standard Time),706658.8999999985,B,pool,I,l,244,2,1249.0,705409.8999999985,8004,WL,A,6.0
6,14.878999948501587,distr,45121.00005149841,Fri Nov 22 2024 15:38:13 GMT-0600 (Central Standard Time),707009.1000000015,B,poolenter,I,enter,339,2,1599.2000000029802,705409.8999999985,8004,WL,A,6.0
6,16.144999980926514,distr,43855.000019073486,Fri Nov 22 2024 15:38:13 GMT-0600 (Central Standard Time),708275.200000003,B,b,I,b,1253,2,1265.8000000044703,707009.3999999985,8004,WL,A,7.0
6,16.34500002861023,distr,43654.99997138977,Fri Nov 22 2024 15:38:13 GMT-0600 (Central Standard Time),708475.3999999985,B,bo,I,o,186,2,1466.0,707009.3999999985,8004,WL,A,7.0
6,16.711999893188477,distr,43288.00010681152,Fri Nov 22 2024 15:38:13 GMT-0600 (Central Standard Time),708841.700000003,B,bow,I,w,346,2,1832.3000000044703,707009.3999999985,8004,WL,A,7.0
6,17.295000076293945,distr,42704.999923706055,Fri Nov 22 2024 15:38:13 GMT-0600 (Central Standard Time),709425.0,B,bo,I,backspace,572,2,2415.60000000149,707009.3999999985,8004,WL,A,7.0
6,17.545000076293945,distr,42454.999923706055,Fri Nov 22 2024 15:38:13 GMT-0600 (Central Standard Time),709674.799999997,B,b,I,backspace,237,2,2665.39999999851,707009.3999999985,8004,WL,A,7.0
6,17.744999885559082,distr,42255.00011444092,Fri Nov 22 2024 15:38:13 GMT-0600 (Central Standard Time),709874.700000003,B,,I,backspace,195,2,2865.3000000044703,707009.3999999985,8004,WL,A,7.0
6,18.66100001335144,distr,41338.99998664856,Fri Nov 22 2024 15:38:13 GMT-0600 (Central Standard Time),710791.1000000015,B,c,I,c,907,2,3781.7000000029802,707009.3999999985,8004,WL,A,7.0
6,18.861000061035156,distr,41138.999938964844,Fri Nov 22 2024 15:38:13 GMT-0600 (Central Standard Time),710991.1000000015,B,co,I,o,183,2,3981.7000000029802,707009.3999999985,8004,WL,A,7.0
6,18.944000005722046,distr,41055.999994277954,Fri Nov 22 2024 15:38:13 GMT-0600 (Central Standard Time),711074.3999999985,B,cou,I,u,70,2,4065.0,707009.3999999985,8004,WL,A,7.0
6,19.295000076293945,distr,40704.999923706055,Fri Nov 22 2024 15:38:13 GMT-0600 (Central Standard Time),711425.1000000015,B,coun,I,n,331,2,4415.70000000298,707009.3999999985,8004,WL,A,7.0
6,19.560999870300293,distr,40439.00012969971,Fri Nov 22 2024 15:38:13 GMT-0600 (Central Standard Time),711690.700000003,B,count,I,t,260,2,4681.30000000447,707009.3999999985,8004,WL,A,7.0
6,20.060999870300293,distr,39939.00012969971,Fri Nov 22 2024 15:38:13 GMT-0600 (Central Standard Time),712190.6000000015,B,county,I,y,483,2,5181.20000000298,707009.3999999985,8004,WL,A,7.0
6,20.65999984741211,distr,39340.00015258789,Fri Nov 22 2024 15:38:13 GMT-0600 (Central Standard Time),712790.3999999985,B,countyenter,I,enter,583,2,5781.0,707009.3999999985,8004,WL,A,7.0
6,23.875999927520752,distr,36124.00007247925,Fri Nov 22 2024 15:38:13 GMT-0600 (Central Standard Time),716006.3999999985,B,s,I,s,3199,2,3215.60000000149,712790.799999997,8004,WL,A,8.0
6,24.009000062942505,distr,35990.999937057495,Fri Nov 22 2024 15:38:13 GMT-0600 (Central Standard Time),716139.299999997,B,sh,I,h,119,2,3348.5,712790.799999997,8004,WL,A,8.0
6,24.375,distr,35625.0,Fri Nov 22 2024 15:38:13 GMT-0600 (Central Standard Time),716506.1000000015,B,she,I,e,354,2,3715.3000000044703,712790.799999997,8004,WL,A,8.0
6,24.700999975204468,distr,35299.00002479553,Fri Nov 22 2024 15:38:13 GMT-0600 (Central Standard Time),716832.3999999985,B,shee,I,e,322,2,4041.60000000149,712790.799999997,8004,WL,A,8.0
6,24.875,distr,35125.0,Fri Nov 22 2024 15:38:13 GMT-0600 (Central Standard Time),717005.8999999985,B,sheep,I,p,165,2,4215.10000000149,712790.799999997,8004,WL,A,8.0
6,25.240999937057495,distr,34759.000062942505,Fri Nov 22 2024 15:38:13 GMT-0600 (Central Standard Time),717372.3999999985,B,sheepenter,I,enter,360,2,4581.60000000149,712790.799999997,8004,WL,A,8.0
6,25.625,distr,34375.0,Fri Nov 22 2024 15:38:13 GMT-0600 (Central Standard Time),717756.5,B,s,I,s,377,2,383.8999999985099,717372.6000000015,8004,WL,A,9.0
6,25.907999992370605,distr,34092.000007629395,Fri Nov 22 2024 15:38:13 GMT-0600 (Central Standard Time),718039.0,B,se,I,e,265,2,666.3999999985099,717372.6000000015,8004,WL,A,9.0
6,26.073999881744385,distr,33926.000118255615,Fri Nov 22 2024 15:38:13 GMT-0600 (Central Standard Time),718205.6000000015,B,see,I,e,151,2,833.0,717372.6000000015,8004,WL,A,9.0
6,26.259000062942505,distr,33740.999937057495,Fri Nov 22 2024 15:38:13 GMT-0600 (Central Standard Time),718390.1000000015,B,seed,I,d,176,2,1017.5,717372.6000000015,8004,WL,A,9.0
6,26.54099988937378,distr,33459.00011062622,Fri Nov 22 2024 15:38:13 GMT-0600 (Central Standard Time),718672.1000000015,B,seedenter,I,enter,263,2,1299.5,717372.6000000015,8004,WL,A,9.0
6,29.555999994277954,distr,30444.000005722046,Fri Nov 22 2024 15:38:13 GMT-0600 (Central Standard Time),721687.6000000015,B,enter,I,enter,3006,2,3015.2000000029802,718672.3999999985,8004,WL,A,10.0
6,29.822999954223633,distr,30177.000045776367,Fri Nov 22 2024 15:38:13 GMT-0600 (Central Standard Time),721954.299999997,B,enter,I,enter,254,2,266.29999999701977,721688.0,8004,WL,A,11.0
6,30.055999994277954,distr,29944.000005722046,Fri Nov 22 2024 15:38:13 GMT-0600 (Central Standard Time),722187.700000003,B,enter,I,enter,227,2,233.0,721954.700000003,8004,WL,A,12.0
6,30.622999906539917,distr,29377.000093460083,Fri Nov 22 2024 15:38:13 GMT-0600 (Central Standard Time),722754.1000000015,B,enter,I,enter,546,2,566.1000000014901,722188.0,8004,WL,A,13.0
6,31.039000034332275,distr,28960.999965667725,Fri Nov 22 2024 15:38:13 GMT-0600 (Central Standard Time),723170.6000000015,B,enter,I,enter,404,2,416.20000000298023,722754.3999999985,8004,WL,A,14.0
6,31.688999891281128,distr,28311.000108718872,Fri Nov 22 2024 15:38:13 GMT-0600 (Central Standard Time),723820.700000003,B,enter,I,enter,635,2,649.7000000029802,723171.0,8004,WL,A,15.0
7,6.398000001907349,immed,53601.99999809265,Fri Nov 22 2024 15:38:13 GMT-0600 (Central Standard Time),731184.700000003,A,s,I,s,6388,2,6398.0,724786.700000003,8004,WL,A,1.0
7,6.5980000495910645,immed,53401.999950408936,Fri Nov 22 2024 15:38:13 GMT-0600 (Central Standard Time),731384.700000003,A,sh,I,h,180,2,6598.0,724786.700000003,8004,WL,A,1.0
7,6.832000017166138,immed,53167.99998283386,Fri Nov 22 2024 15:38:13 GMT-0600 (Central Standard Time),731618.200000003,A,she,I,e,213,2,6831.5,724786.700000003,8004,WL,A,1.0
7,7.015000104904175,immed,52984.999895095825,Fri Nov 22 2024 15:38:13 GMT-0600 (Central Standard Time),731801.200000003,A,shee,I,e,171,2,7014.5,724786.700000003,8004,WL,A,1.0
7,7.197999954223633,immed,52802.00004577637,Fri Nov 22 2024 15:38:13 GMT-0600 (Central Standard Time),731984.6000000015,A,sheep,I,p,163,2,7197.89999999851,724786.700000003,8004,WL,A,1.0
7,7.831000089645386,immed,52168.999910354614,Fri Nov 22 2024 15:38:13 GMT-0600 (Central Standard Time),732617.700000003,A,sheepenter,I,enter,613,2,7831.0,724786.700000003,8004,WL,A,1.0
7,8.681999921798706,immed,51318.000078201294,Fri Nov 22 2024 15:38:13 GMT-0600 (Central Standard Time),733468.5,A,s,I,s,844,2,850.5,732618.0,8004,WL,A,2.0
7,8.980999946594238,immed,51019.00005340576,Fri Nov 22 2024 15:38:13 GMT-0600 (Central Standard Time),733767.6000000015,A,se,I,e,281,2,1149.6000000014901,732618.0,8004,WL,A,2.0
7,9.21399998664856,immed,50786.00001335144,Fri Nov 22 2024 15:38:13 GMT-0600 (Central Standard Time),734000.3999999985,A,see,I,e,214,2,1382.3999999985099,732618.0,8004,WL,A,2.0
7,9.397000074386597,immed,50602.9999256134,Fri Nov 22 2024 15:38:13 GMT-0600 (Central Standard Time),734183.799999997,A,seed,I,d,165,2,1565.7999999970198,732618.0,8004,WL,A,2.0
7,9.596999883651733,immed,50403.00011634827,Fri Nov 22 2024 15:38:13 GMT-0600 (Central Standard Time),734383.799999997,A,seedenter,I,enter,181,2,1765.7999999970198,732618.0,8004,WL,A,2.0
7,14.779000043869019,immed,45220.99995613098,Fri Nov 22 2024 15:38:13 GMT-0600 (Central Standard Time),739565.5,A,b,I,b,5166,2,5181.39999999851,734384.1000000015,8004,WL,A,3.0
7,14.961999893188477,immed,45038.00010681152,Fri Nov 22 2024 15:38:13 GMT-0600 (Central Standard Time),739748.700000003,A,bo,I,o,176,2,5364.60000000149,734384.1000000015,8004,WL,A,3.0
7,15.078999996185303,immed,44921.0000038147,Fri Nov 22 2024 15:38:13 GMT-0600 (Central Standard Time),739865.6000000015,A,bow,I,w,105,2,5481.5,734384.1000000015,8004,WL,A,3.0
7,15.229000091552734,immed,44770.999908447266,Fri Nov 22 2024 15:38:13 GMT-0600 (Central Standard Time),740015.3999999985,A,bowl,I,l,140,2,5631.29999999702,734384.1000000015,8004,WL,A,3.0
7,15.575000047683716,immed,44424.999952316284,Fri Nov 22 2024 15:38:13 GMT-0600 (Central Standard Time),740361.200000003,A,bowlenter,I,enter,341,2,5977.10000000149,734384.1000000015,8004,WL,A,3.0
7,15.812000036239624,immed,44187.999963760376,Fri Nov 22 2024 15:38:13 GMT-0600 (Central Standard Time),740598.799999997,A,d,I,d,220,2,237.29999999701977,740361.5,8004,WL,A,4.0
7,16.09500002861023,immed,43904.99997138977,Fri Nov 22 2024 15:38:13 GMT-0600 (Central Standard Time),740881.700000003,A,da,I,a,271,2,520.2000000029802,740361.5,8004,WL,A,4.0
7,16.295000076293945,immed,43704.999923706055,Fri Nov 22 2024 15:38:13 GMT-0600 (Central Standard Time),741081.6000000015,A,daw,I,w,188,2,720.1000000014901,740361.5,8004,WL,A,4.0
7,16.494999885559082,immed,43505.00011444092,Fri Nov 22 2024 15:38:13 GMT-0600 (Central Standard Time),741281.6000000015,A,dawn,I,n,180,2,920.1000000014901,740361.5,8004,WL,A,4.0
7,16.795000076293945,immed,43204.999923706055,Fri Nov 22 2024 15:38:13 GMT-0600 (Central Standard Time),741581.6000000015,A,dawnenter,I,enter,291,2,1220.1000000014901,740361.5,8004,WL,A,4.0
7,17.111999988555908,immed,42888.00001144409,Fri Nov 22 2024 15:38:13 GMT-0600 (Central Standard Time),741898.200000003,A,j,I,j,312,2,316.20000000298023,741582.0,8004,WL,A,5.0
7,17.378000020980835,immed,42621.999979019165,Fri Nov 22 2024 15:38:13 GMT-0600 (Central Standard Time),742164.700000003,A,ju,I,u,260,2,582.7000000029802,741582.0,8004,WL,A,5.0
7,17.57800006866455,immed,42421.99993133545,Fri Nov 22 2024 15:38:13 GMT-0600 (Central Standard Time),742364.700000003,A,jud,I,d,193,2,782.7000000029802,741582.0,8004,WL,A,5.0
7,17.894999980926514,immed,42105.000019073486,Fri Nov 22 2024 15:38:13 GMT-0600 (Central Standard Time),742681.299999997,A,judg,I,g,305,2,1099.2999999970198,741582.0,8004,WL,A,5.0
7,18.128000020980835,immed,41871.999979019165,Fri Nov 22 2024 15:38:13 GMT-0600 (Central Standard Time),742914.5,A,judge,I,e,220,2,1332.5,741582.0,8004,WL,A,5.0
7,18.394999980926514,immed,41605.000019073486,Fri Nov 22 2024 15:38:13 GMT-0600 (Central Standard Time),743181.1000000015,A,judgeenter,I,enter,251,2,1599.1000000014901,741582.0,8004,WL,A,5.0
7,20.01099991798401,immed,39989.00008201599,Fri Nov 22 2024 15:38:13 GMT-0600 (Central Standard Time),744797.200000003,A,g,I,g,1609,2,1615.8000000044703,743181.3999999985,8004,WL,A,6.0
7,20.210999965667725,immed,39789.000034332275,Fri Nov 22 2024 15:38:13 GMT-0600 (Central Standard Time),744997.1000000015,A,gr,I,r,184,2,1815.7000000029802,743181.3999999985,8004,WL,A,6.0
7,20.310999870300293,immed,39689.00012969971,Fri Nov 22 2024 15:38:13 GMT-0600 (Central Standard Time),745096.8999999985,A,gra,I,a,81,2,1915.5,743181.3999999985,8004,WL,A,6.0
7,20.460999965667725,immed,39539.000034332275,Fri Nov 22 2024 15:38:13 GMT-0600 (Central Standard Time),745247.0,A,gran,I,n,133,2,2065.60000000149,743181.3999999985,8004,WL,A,6.0
7,20.57699990272522,immed,39423.00009727478,Fri Nov 22 2024 15:38:13 GMT-0600 (Central Standard Time),745363.799999997,A,grant,I,t,102,2,2182.39999999851,743181.3999999985,8004,WL,A,6.0
7,20.759999990463257,immed,39240.00000953674,Fri Nov 22 2024 15:38:13 GMT-0600 (Central Standard Time),745546.799999997,A,grantenter,I,enter,178,2,2365.39999999851,743181.3999999985,8004,WL,A,6.0
7,21.094000101089478,immed,38905.99989891052,Fri Nov 22 2024 15:38:13 GMT-0600 (Central Standard Time),745880.299999997,A,i,I,i,323,2,333.19999999552965,745547.1000000015,8004,WL,A,7.0
7,21.32699990272522,immed,38673.00009727478,Fri Nov 22 2024 15:38:13 GMT-0600 (Central Standard Time),746113.3999999985,A,in,I,n,221,2,566.2999999970198,745547.1000000015,8004,WL,A,7.0
7,21.509999990463257,immed,38490.00000953674,Fri Nov 22 2024 15:38:13 GMT-0600 (Central Standard Time),746296.6000000015,A,ins,I,s,164,2,749.5,745547.1000000015,8004,WL,A,7.0
7,21.844000101089478,immed,38155.99989891052,Fri Nov 22 2024 15:38:13 GMT-0600 (Central Standard Time),746629.799999997,A,inse,I,e,317,2,1082.6999999955297,745547.1000000015,8004,WL,A,7.0
7,22.177000045776367,immed,37822.99995422363,Fri Nov 22 2024 15:38:13 GMT-0600 (Central Standard Time),746963.200000003,A,insec,I,c,320,2,1416.1000000014901,745547.1000000015,8004,WL,A,7.0
7,22.609999895095825,immed,37390.000104904175,Fri Nov 22 2024 15:38:13 GMT-0600 (Central Standard Time),747396.3999999985,A,insect,I,t,426,2,1849.2999999970198,745547.1000000015,8004,WL,A,7.0
7,22.960000038146973,immed,37039.99996185303,Fri Nov 22 2024 15:38:13 GMT-0600 (Central Standard Time),747746.299999997,A,insectenter,I,enter,337,2,2199.1999999955297,745547.1000000015,8004,WL,A,7.0
7,28.29200005531311,immed,31707.99994468689,Fri Nov 22 2024 15:38:13 GMT-0600 (Central Standard Time),753077.8999999985,A,enter,I,enter,5323,2,5331.29999999702,747746.6000000015,8004,WL,A,8.0
7,29.141000032424927,immed,30858.999967575073,Fri Nov 22 2024 15:38:13 GMT-0600 (Central Standard Time),753927.6000000015,A,enter,I,enter,832,2,849.3000000044703,753078.299999997,8004,WL,A,9.0
7,29.7739999294281,immed,30226.0000705719,Fri Nov 22 2024 15:38:13 GMT-0600 (Central Standard Time),754560.799999997,A,enter,I,enter,622,2,632.7999999970198,753928.0,8004,WL,A,10.0
7,30.323999881744385,immed,29676.000118255615,Fri Nov 22 2024 15:38:13 GMT-0600 (Central Standard Time),755110.5,A,enter,I,enter,533,2,549.3999999985099,754561.1000000015,8004,WL,A,11.0
7,30.756999969482422,immed,29243.000030517578,Fri Nov 22 2024 15:38:13 GMT-0600 (Central Standard Time),755543.799999997,A,enter,I,enter,415,2,433.0,755110.799999997,8004,WL,A,12.0
7,31.223999977111816,immed,28776.000022888184,Fri Nov 22 2024 15:38:13 GMT-0600 (Central Standard Time),756010.6000000015,A,enter,I,enter,446,2,466.5,755544.1000000015,8004,WL,A,13.0
7,31.992000102996826,immed,28007.999897003174,Fri Nov 22 2024 15:38:13 GMT-0600 (Central Standard Time),756777.8999999985,A,enter,I,enter,755,2,767.0,756010.8999999985,8004,WL,A,14.0
7,33.0239999294281,immed,26976.0000705719,Fri Nov 22 2024 15:38:13 GMT-0600 (Central Standard Time),757809.8999999985,A,enter,I,enter,1020,2,1031.6999999955297,756778.200000003,8004,WL,A,15.0
