block_c,block_dur,condition,countdown,datetime,endtime,list,multichar_response,project,response,response_time,session_number,start_end,starttime,subject_id,task,task_vers,trial
,,,,Tue Mar 11 2025 16:39:35 GMT-0500 (Central Daylight Time),,,,I,space,399,3,,,8004,WL,B,
prac,,0,,Tue Mar 11 2025 16:39:35 GMT-0500 (Central Daylight Time),,NA,b,I,b,5835,3,,,8004,WL,B,1.0
prac,,0,,Tue Mar 11 2025 16:39:35 GMT-0500 (Central Daylight Time),,NA,bo,I,o,1656,3,,,8004,WL,B,1.0
prac,,0,,Tue Mar 11 2025 16:39:35 GMT-0500 (Central Daylight Time),,NA,boo,I,o,229,3,,,8004,WL,B,1.0
prac,,0,,Tue Mar 11 2025 16:39:35 GMT-0500 (Central Daylight Time),,NA,boos,I,s,164,3,,,8004,WL,B,1.0
prac,,0,,Tue Mar 11 2025 16:39:35 GMT-0500 (Central Daylight Time),,NA,boost,I,t,174,3,,,8004,WL,B,1.0
prac,,0,,Tue Mar 11 2025 16:39:35 GMT-0500 (Central Daylight Time),,NA,boostenter,I,enter,2030,3,,,8004,WL,B,1.0
1,0.6169998645782471,learn,59383.00013542175,Tue Mar 11 2025 16:39:35 GMT-0500 (Central Daylight Time),129789.0,A,s,I,s,608,3,616.2999999970198,129172.70000000298,8004,WL,B,1.0
1,0.934999942779541,learn,59065.00005722046,Tue Mar 11 2025 16:39:35 GMT-0500 (Central Daylight Time),130106.60000000149,A,st,I,t,303,3,933.8999999985099,129172.70000000298,8004,WL,B,1.0
1,1.3499999046325684,learn,58650.00009536743,Tue Mar 11 2025 16:39:35 GMT-0500 (Central Daylight Time),130521.89999999851,A,str,I,r,393,3,1349.1999999955297,129172.70000000298,8004,WL,B,1.0
1,1.682999849319458,learn,58317.00015068054,Tue Mar 11 2025 16:39:35 GMT-0500 (Central Daylight Time),130855.10000000149,A,stre,I,e,314,3,1682.3999999985099,129172.70000000298,8004,WL,B,1.0
1,2.0149998664855957,learn,57985.000133514404,Tue Mar 11 2025 16:39:35 GMT-0500 (Central Daylight Time),131187.1000000015,A,stree,I,e,181,3,2014.3999999985099,129172.70000000298,8004,WL,B,1.0
1,2.0329999923706055,learn,57967.000007629395,Tue Mar 11 2025 16:39:35 GMT-0500 (Central Daylight Time),131204.70000000298,A,street,I,t,9,3,2032.0,129172.70000000298,8004,WL,B,1.0
1,2.6669998168945312,learn,57333.00018310547,Tue Mar 11 2025 16:39:35 GMT-0500 (Central Daylight Time),131838.3999999985,A,streetenter,I,enter,622,3,2665.6999999955297,129172.70000000298,8004,WL,B,1.0
1,3.7159998416900635,learn,56284.00015830994,Tue Mar 11 2025 16:39:35 GMT-0500 (Central Daylight Time),132887.8999999985,A,g,I,g,1030,3,1048.8999999985099,131839.0,8004,WL,B,2.0
1,3.9489998817443848,learn,56051.000118255615,Tue Mar 11 2025 16:39:35 GMT-0500 (Central Daylight Time),133121.1000000015,A,gr,I,r,213,3,1282.1000000014901,131839.0,8004,WL,B,2.0
1,4.0329999923706055,learn,55967.000007629395,Tue Mar 11 2025 16:39:35 GMT-0500 (Central Daylight Time),133204.5,A,gra,I,a,77,3,1365.5,131839.0,8004,WL,B,2.0
1,4.148999929428101,learn,55851.0000705719,Tue Mar 11 2025 16:39:35 GMT-0500 (Central Daylight Time),133321.20000000298,A,gras,I,s,104,3,1482.2000000029802,131839.0,8004,WL,B,2.0
1,4.381999969482422,learn,55618.00003051758,Tue Mar 11 2025 16:39:35 GMT-0500 (Central Daylight Time),133554.29999999702,A,grass,I,s,211,3,1715.2999999970198,131839.0,8004,WL,B,2.0
1,4.598999977111816,learn,55401.00002288818,Tue Mar 11 2025 16:39:35 GMT-0500 (Central Daylight Time),133770.79999999702,A,grassenter,I,enter,211,3,1931.7999999970198,131839.0,8004,WL,B,2.0
1,5.531999826431274,learn,54468.000173568726,Tue Mar 11 2025 16:39:35 GMT-0500 (Central Daylight Time),134703.8999999985,A,a,I,a,922,3,932.7999999970198,133771.1000000015,8004,WL,B,3.0
1,5.764999866485596,learn,54235.000133514404,Tue Mar 11 2025 16:39:35 GMT-0500 (Central Daylight Time),134937.3999999985,A,ar,I,r,213,3,1166.2999999970198,133771.1000000015,8004,WL,B,3.0
1,6.347999811172485,learn,53652.000188827515,Tue Mar 11 2025 16:39:35 GMT-0500 (Central Daylight Time),135520.3999999985,A,arm,I,m,563,3,1749.2999999970198,133771.1000000015,8004,WL,B,3.0
1,6.947999954223633,learn,53052.00004577637,Tue Mar 11 2025 16:39:35 GMT-0500 (Central Daylight Time),136120.29999999702,A,armenter,I,enter,588,3,2349.1999999955297,133771.1000000015,8004,WL,B,3.0
1,8.930999994277954,learn,51069.000005722046,Tue Mar 11 2025 16:39:35 GMT-0500 (Central Daylight Time),138102.79999999702,A,s,I,s,1974,3,1982.0999999940395,136120.70000000298,8004,WL,B,4.0
1,9.13100004196167,learn,50868.99995803833,Tue Mar 11 2025 16:39:35 GMT-0500 (Central Daylight Time),138302.8999999985,A,st,I,t,189,3,2182.1999999955297,136120.70000000298,8004,WL,B,4.0
1,9.447999954223633,learn,50552.00004577637,Tue Mar 11 2025 16:39:35 GMT-0500 (Central Daylight Time),138619.3999999985,A,sta,I,a,302,3,2498.6999999955297,136120.70000000298,8004,WL,B,4.0
1,9.530999898910522,learn,50469.00010108948,Tue Mar 11 2025 16:39:35 GMT-0500 (Central Daylight Time),138702.8999999985,A,star,I,r,65,3,2582.1999999955297,136120.70000000298,8004,WL,B,4.0
1,9.88100004196167,learn,50118.99995803833,Tue Mar 11 2025 16:39:35 GMT-0500 (Central Daylight Time),139052.6000000015,A,starenter,I,enter,342,3,2931.89999999851,136120.70000000298,8004,WL,B,4.0
1,10.313999891281128,learn,49686.00010871887,Tue Mar 11 2025 16:39:35 GMT-0500 (Central Daylight Time),139485.8999999985,A,w,I,w,425,3,432.79999999701977,139053.1000000015,8004,WL,B,5.0
1,10.480000019073486,learn,49519.999980926514,Tue Mar 11 2025 16:39:35 GMT-0500 (Central Daylight Time),139652.1000000015,A,wi,I,i,159,3,599.0,139053.1000000015,8004,WL,B,5.0
1,10.646999835968018,learn,49353.00016403198,Tue Mar 11 2025 16:39:35 GMT-0500 (Central Daylight Time),139818.8999999985,A,wif,I,f,146,3,765.7999999970198,139053.1000000015,8004,WL,B,5.0
1,10.830999851226807,learn,49169.00014877319,Tue Mar 11 2025 16:39:35 GMT-0500 (Central Daylight Time),140002.6000000015,A,wife,I,e,178,3,949.5,139053.1000000015,8004,WL,B,5.0
1,12.02999997138977,learn,47970.00002861023,Tue Mar 11 2025 16:39:35 GMT-0500 (Central Daylight Time),141201.8999999985,A,wifeenter,I,enter,1186,3,2148.7999999970198,139053.1000000015,8004,WL,B,5.0
1,14.046000003814697,learn,45953.9999961853,Tue Mar 11 2025 16:39:35 GMT-0500 (Central Daylight Time),143218.20000000298,A,c,I,c,1994,3,2015.9000000059605,141202.29999999702,8004,WL,B,6.0
1,14.146999835968018,learn,45853.00016403198,Tue Mar 11 2025 16:39:35 GMT-0500 (Central Daylight Time),143318.8999999985,A,cl,I,l,83,3,2116.60000000149,141202.29999999702,8004,WL,B,6.0
1,14.328999996185303,learn,45671.0000038147,Tue Mar 11 2025 16:39:35 GMT-0500 (Central Daylight Time),143501.20000000298,A,clo,I,o,174,3,2298.9000000059605,141202.29999999702,8004,WL,B,6.0
1,14.44599986076355,learn,45554.00013923645,Tue Mar 11 2025 16:39:35 GMT-0500 (Central Daylight Time),143617.8999999985,A,cloc,I,c,104,3,2415.60000000149,141202.29999999702,8004,WL,B,6.0
1,14.578999996185303,learn,45421.0000038147,Tue Mar 11 2025 16:39:35 GMT-0500 (Central Daylight Time),143751.20000000298,A,clock,I,k,115,3,2548.9000000059605,141202.29999999702,8004,WL,B,6.0
1,14.878999948501587,learn,45121.00005149841,Tue Mar 11 2025 16:39:35 GMT-0500 (Central Daylight Time),144051.29999999702,A,clockenter,I,enter,287,3,2849.0,141202.29999999702,8004,WL,B,6.0
1,16.578999996185303,learn,43421.0000038147,Tue Mar 11 2025 16:39:35 GMT-0500 (Central Daylight Time),145750.6000000015,A,p,I,p,1681,3,1698.8999999985099,144051.70000000298,8004,WL,B,7.0
1,16.744999885559082,learn,43255.00011444092,Tue Mar 11 2025 16:39:35 GMT-0500 (Central Daylight Time),145917.20000000298,A,pu,I,u,149,3,1865.5,144051.70000000298,8004,WL,B,7.0
1,17.244999885559082,learn,42755.00011444092,Tue Mar 11 2025 16:39:35 GMT-0500 (Central Daylight Time),146416.8999999985,A,pup,I,p,488,3,2365.1999999955297,144051.70000000298,8004,WL,B,7.0
1,17.777999877929688,learn,42222.00012207031,Tue Mar 11 2025 16:39:35 GMT-0500 (Central Daylight Time),146950.29999999702,A,pupi,I,i,516,3,2898.5999999940395,144051.70000000298,8004,WL,B,7.0
1,18.01199984550476,learn,41988.00015449524,Tue Mar 11 2025 16:39:35 GMT-0500 (Central Daylight Time),147183.6000000015,A,pupil,I,l,223,3,3131.89999999851,144051.70000000298,8004,WL,B,7.0
1,18.444999933242798,learn,41555.0000667572,Tue Mar 11 2025 16:39:35 GMT-0500 (Central Daylight Time),147616.6000000015,A,pupilenter,I,enter,414,3,3564.89999999851,144051.70000000298,8004,WL,B,7.0
1,24.227999925613403,learn,35772.0000743866,Tue Mar 11 2025 16:39:35 GMT-0500 (Central Daylight Time),153399.3999999985,A,c,I,c,5773,3,5782.39999999851,147617.0,8004,WL,B,8.0
1,24.460000038146973,learn,35539.99996185303,Tue Mar 11 2025 16:39:35 GMT-0500 (Central Daylight Time),153631.5,A,ca,I,a,213,3,6014.5,147617.0,8004,WL,B,8.0
1,24.792999982833862,learn,35207.00001716614,Tue Mar 11 2025 16:39:35 GMT-0500 (Central Daylight Time),153964.6000000015,A,cab,I,b,318,3,6347.60000000149,147617.0,8004,WL,B,8.0
1,24.942999839782715,learn,35057.000160217285,Tue Mar 11 2025 16:39:35 GMT-0500 (Central Daylight Time),154114.6000000015,A,cabi,I,i,137,3,6497.60000000149,147617.0,8004,WL,B,8.0
1,25.258999824523926,learn,34741.000175476074,Tue Mar 11 2025 16:39:35 GMT-0500 (Central Daylight Time),154431.29999999702,A,cabin,I,n,307,3,6814.29999999702,147617.0,8004,WL,B,8.0
1,25.608999967575073,learn,34391.00003242493,Tue Mar 11 2025 16:39:35 GMT-0500 (Central Daylight Time),154780.70000000298,A,cabinenter,I,enter,334,3,7163.70000000298,147617.0,8004,WL,B,8.0
1,31.007999897003174,learn,28992.000102996826,Tue Mar 11 2025 16:39:35 GMT-0500 (Central Daylight Time),160179.3999999985,A,enter,I,enter,5382,3,5398.39999999851,154781.0,8004,WL,B,9.0
1,31.94099998474121,learn,28059.00001525879,Tue Mar 11 2025 16:39:35 GMT-0500 (Central Daylight Time),161112.29999999702,A,enter,I,enter,921,3,932.3999999985099,160179.8999999985,8004,WL,B,10.0
1,32.556999921798706,learn,27443.000078201294,Tue Mar 11 2025 16:39:35 GMT-0500 (Central Daylight Time),161728.70000000298,A,enter,I,enter,604,3,615.8000000044703,161112.8999999985,8004,WL,B,11.0
1,32.99000000953674,learn,27009.999990463257,Tue Mar 11 2025 16:39:35 GMT-0500 (Central Daylight Time),162162.1000000015,A,enter,I,enter,420,3,432.8999999985099,161729.20000000298,8004,WL,B,12.0
1,33.35699987411499,learn,26643.00012588501,Tue Mar 11 2025 16:39:35 GMT-0500 (Central Daylight Time),162528.5,A,enter,I,enter,355,3,365.8999999985099,162162.6000000015,8004,WL,B,13.0
1,33.906999826431274,learn,26093.000173568726,Tue Mar 11 2025 16:39:35 GMT-0500 (Central Daylight Time),163078.3999999985,A,enter,I,enter,542,3,549.5,162528.8999999985,8004,WL,B,14.0
1,34.4229998588562,learn,25577.0001411438,Tue Mar 11 2025 16:39:35 GMT-0500 (Central Daylight Time),163594.79999999702,A,enter,I,enter,511,3,515.8999999985099,163078.8999999985,8004,WL,B,15.0
2,0.5339999198913574,learn,59466.00008010864,Tue Mar 11 2025 16:39:35 GMT-0500 (Central Daylight Time),229691.0,A,s,I,s,521,3,533.1000000014901,229157.8999999985,8004,WL,B,1.0
2,0.8340001106262207,learn,59165.99988937378,Tue Mar 11 2025 16:39:35 GMT-0500 (Central Daylight Time),229990.79999999702,A,st,I,t,290,3,832.8999999985099,229157.8999999985,8004,WL,B,1.0
2,1.1670000553131104,learn,58832.99994468689,Tue Mar 11 2025 16:39:35 GMT-0500 (Central Daylight Time),230323.8999999985,A,str,I,r,319,3,1166.0,229157.8999999985,8004,WL,B,1.0
2,1.4500000476837158,learn,58549.999952316284,Tue Mar 11 2025 16:39:35 GMT-0500 (Central Daylight Time),230607.5,A,stre,I,e,265,3,1449.6000000014901,229157.8999999985,8004,WL,B,1.0
2,1.6670000553131104,learn,58332.99994468689,Tue Mar 11 2025 16:39:35 GMT-0500 (Central Daylight Time),230823.79999999702,A,stree,I,e,198,3,1665.8999999985099,229157.8999999985,8004,WL,B,1.0
2,2.0169999599456787,learn,57983.00004005432,Tue Mar 11 2025 16:39:35 GMT-0500 (Central Daylight Time),231173.70000000298,A,street,I,t,333,3,2015.8000000044703,229157.8999999985,8004,WL,B,1.0
2,2.365999937057495,learn,57634.000062942505,Tue Mar 11 2025 16:39:35 GMT-0500 (Central Daylight Time),231523.6000000015,A,streetenter,I,enter,335,3,2365.7000000029802,229157.8999999985,8004,WL,B,1.0
2,2.8329999446868896,learn,57167.00005531311,Tue Mar 11 2025 16:39:35 GMT-0500 (Central Daylight Time),231990.29999999702,A,g,I,g,450,3,466.29999999701977,231524.0,8004,WL,B,2.0
2,3.133000135421753,learn,56866.99986457825,Tue Mar 11 2025 16:39:35 GMT-0500 (Central Daylight Time),232290.0,A,gr,I,r,288,3,766.0,231524.0,8004,WL,B,2.0
2,3.433000087738037,learn,56566.99991226196,Tue Mar 11 2025 16:39:35 GMT-0500 (Central Daylight Time),232590.0,A,gra,I,a,283,3,1066.0,231524.0,8004,WL,B,2.0
2,4.065999984741211,learn,55934.00001525879,Tue Mar 11 2025 16:39:35 GMT-0500 (Central Daylight Time),233223.1000000015,A,gras,I,s,615,3,1699.1000000014901,231524.0,8004,WL,B,2.0
2,4.348999977111816,learn,55651.00002288818,Tue Mar 11 2025 16:39:35 GMT-0500 (Central Daylight Time),233506.5,A,grass,I,s,263,3,1982.5,231524.0,8004,WL,B,2.0
2,4.549000024795532,learn,55450.99997520447,Tue Mar 11 2025 16:39:35 GMT-0500 (Central Daylight Time),233706.3999999985,A,grassenter,I,enter,186,3,2182.39999999851,231524.0,8004,WL,B,2.0
2,6.697999954223633,learn,53302.00004577637,Tue Mar 11 2025 16:39:35 GMT-0500 (Central Daylight Time),235855.6000000015,A,d,I,d,2139,3,2148.8000000044703,233706.79999999702,8004,WL,B,3.0
2,7.29800009727478,learn,52701.99990272522,Tue Mar 11 2025 16:39:35 GMT-0500 (Central Daylight Time),236455.20000000298,A,do,I,o,590,3,2748.4000000059605,233706.79999999702,8004,WL,B,3.0
2,7.515000104904175,learn,52484.999895095825,Tue Mar 11 2025 16:39:35 GMT-0500 (Central Daylight Time),236672.1000000015,A,doo,I,o,198,3,2965.3000000044703,233706.79999999702,8004,WL,B,3.0
2,7.79800009727478,learn,52201.99990272522,Tue Mar 11 2025 16:39:35 GMT-0500 (Central Daylight Time),236955.5,A,door,I,r,269,3,3248.7000000029802,233706.79999999702,8004,WL,B,3.0
2,8.414000034332275,learn,51585.999965667725,Tue Mar 11 2025 16:39:35 GMT-0500 (Central Daylight Time),237571.70000000298,A,doorenter,I,enter,602,3,3864.9000000059605,233706.79999999702,8004,WL,B,3.0
2,8.79699993133545,learn,51203.00006866455,Tue Mar 11 2025 16:39:35 GMT-0500 (Central Daylight Time),237954.8999999985,A,a,I,a,369,3,382.8999999985099,237572.0,8004,WL,B,4.0
2,9.147000074386597,learn,50852.9999256134,Tue Mar 11 2025 16:39:35 GMT-0500 (Central Daylight Time),238304.8999999985,A,ar,I,r,330,3,732.8999999985099,237572.0,8004,WL,B,4.0
2,9.680999994277954,learn,50319.000005722046,Tue Mar 11 2025 16:39:35 GMT-0500 (Central Daylight Time),238838.1000000015,A,arm,I,m,526,3,1266.1000000014901,237572.0,8004,WL,B,4.0
2,10.680000066757202,learn,49319.9999332428,Tue Mar 11 2025 16:39:35 GMT-0500 (Central Daylight Time),239837.5,A,armenter,I,enter,991,3,2265.5,237572.0,8004,WL,B,4.0
2,11.579999923706055,learn,48420.000076293945,Tue Mar 11 2025 16:39:35 GMT-0500 (Central Daylight Time),240737.5,A,s,I,s,888,3,899.6000000014901,239837.8999999985,8004,WL,B,5.0
2,11.746999979019165,learn,48253.000020980835,Tue Mar 11 2025 16:39:35 GMT-0500 (Central Daylight Time),240904.1000000015,A,st,I,t,148,3,1066.2000000029802,239837.8999999985,8004,WL,B,5.0
2,11.897000074386597,learn,48102.9999256134,Tue Mar 11 2025 16:39:35 GMT-0500 (Central Daylight Time),241054.0,A,sta,I,a,141,3,1216.1000000014901,239837.8999999985,8004,WL,B,5.0
2,12.11299991607666,learn,47887.00008392334,Tue Mar 11 2025 16:39:35 GMT-0500 (Central Daylight Time),241270.70000000298,A,star,I,r,207,3,1432.8000000044703,239837.8999999985,8004,WL,B,5.0
2,12.480000019073486,learn,47519.999980926514,Tue Mar 11 2025 16:39:35 GMT-0500 (Central Daylight Time),241637.1000000015,A,starenter,I,enter,350,3,1799.2000000029802,239837.8999999985,8004,WL,B,5.0
2,13.029000043869019,learn,46970.99995613098,Tue Mar 11 2025 16:39:35 GMT-0500 (Central Daylight Time),242186.8999999985,A,w,I,w,545,3,549.3999999985099,241637.5,8004,WL,B,6.0
2,13.279000043869019,learn,46720.99995613098,Tue Mar 11 2025 16:39:35 GMT-0500 (Central Daylight Time),242436.70000000298,A,wi,I,i,242,3,799.2000000029802,241637.5,8004,WL,B,6.0
2,13.446000099182129,learn,46553.99990081787,Tue Mar 11 2025 16:39:35 GMT-0500 (Central Daylight Time),242603.29999999702,A,wif,I,f,161,3,965.7999999970198,241637.5,8004,WL,B,6.0
2,13.646000146865845,learn,46353.999853134155,Tue Mar 11 2025 16:39:35 GMT-0500 (Central Daylight Time),242803.20000000298,A,wife,I,e,194,3,1165.7000000029802,241637.5,8004,WL,B,6.0
2,13.963000059127808,learn,46036.99994087219,Tue Mar 11 2025 16:39:35 GMT-0500 (Central Daylight Time),243120.0,A,wifeenter,I,enter,298,3,1482.5,241637.5,8004,WL,B,6.0
2,16.144999980926514,learn,43855.000019073486,Tue Mar 11 2025 16:39:35 GMT-0500 (Central Daylight Time),245302.70000000298,A,w,I,w,2173,3,2182.4000000059605,243120.29999999702,8004,WL,B,7.0
2,16.36299991607666,learn,43637.00008392334,Tue Mar 11 2025 16:39:35 GMT-0500 (Central Daylight Time),245520.5,A,wi,I,i,199,3,2400.2000000029802,243120.29999999702,8004,WL,B,7.0
2,16.611999988555908,learn,43388.00001144409,Tue Mar 11 2025 16:39:35 GMT-0500 (Central Daylight Time),245769.29999999702,A,win,I,n,229,3,2649.0,243120.29999999702,8004,WL,B,7.0
2,16.861999988555908,learn,43138.00001144409,Tue Mar 11 2025 16:39:35 GMT-0500 (Central Daylight Time),246019.1000000015,A,wind,I,d,244,3,2898.8000000044703,243120.29999999702,8004,WL,B,7.0
2,17.32800006866455,learn,42671.99993133545,Tue Mar 11 2025 16:39:35 GMT-0500 (Central Daylight Time),246485.5,A,windo,I,o,459,3,3365.2000000029802,243120.29999999702,8004,WL,B,7.0
2,17.67799997329712,learn,42322.00002670288,Tue Mar 11 2025 16:39:35 GMT-0500 (Central Daylight Time),246835.6000000015,A,window,I,w,337,3,3715.3000000044703,243120.29999999702,8004,WL,B,7.0
2,17.944999933242798,learn,42055.0000667572,Tue Mar 11 2025 16:39:35 GMT-0500 (Central Daylight Time),247102.20000000298,A,windowenter,I,enter,257,3,3981.9000000059605,243120.29999999702,8004,WL,B,7.0
2,18.311000108718872,learn,41688.99989128113,Tue Mar 11 2025 16:39:35 GMT-0500 (Central Daylight Time),247468.70000000298,A,c,I,c,352,3,366.1000000014901,247102.6000000015,8004,WL,B,8.0
2,18.66100001335144,learn,41338.99998664856,Tue Mar 11 2025 16:39:35 GMT-0500 (Central Daylight Time),247818.5,A,ci,I,i,330,3,715.8999999985099,247102.6000000015,8004,WL,B,8.0
2,18.92799997329712,learn,41072.00002670288,Tue Mar 11 2025 16:39:35 GMT-0500 (Central Daylight Time),248085.20000000298,A,cit,I,t,252,3,982.6000000014901,247102.6000000015,8004,WL,B,8.0
2,19.960999965667725,learn,40039.000034332275,Tue Mar 11 2025 16:39:35 GMT-0500 (Central Daylight Time),249118.1000000015,A,city,I,y,1017,3,2015.5,247102.6000000015,8004,WL,B,8.0
2,20.960000038146973,learn,39039.99996185303,Tue Mar 11 2025 16:39:35 GMT-0500 (Central Daylight Time),250117.70000000298,A,cityenter,I,enter,992,3,3015.10000000149,247102.6000000015,8004,WL,B,8.0
2,22.592999935150146,learn,37407.00006484985,Tue Mar 11 2025 16:39:35 GMT-0500 (Central Daylight Time),251750.6000000015,A,c,I,c,1617,3,1632.6000000014901,250118.0,8004,WL,B,9.0
2,22.825999975204468,learn,37174.00002479553,Tue Mar 11 2025 16:39:35 GMT-0500 (Central Daylight Time),251983.8999999985,A,ca,I,a,216,3,1865.8999999985099,250118.0,8004,WL,B,9.0
2,23.176000118255615,learn,36823.999881744385,Tue Mar 11 2025 16:39:35 GMT-0500 (Central Daylight Time),252333.70000000298,A,cab,I,b,342,3,2215.7000000029802,250118.0,8004,WL,B,9.0
2,23.30999994277954,learn,36690.00005722046,Tue Mar 11 2025 16:39:35 GMT-0500 (Central Daylight Time),252467.0,A,cabi,I,i,127,3,2349.0,250118.0,8004,WL,B,9.0
2,23.658999919891357,learn,36341.00008010864,Tue Mar 11 2025 16:39:35 GMT-0500 (Central Daylight Time),252817.0,A,cabin,I,n,338,3,2699.0,250118.0,8004,WL,B,9.0
2,23.993000030517578,learn,36006.99996948242,Tue Mar 11 2025 16:39:35 GMT-0500 (Central Daylight Time),253150.20000000298,A,cabinenter,I,enter,317,3,3032.2000000029802,250118.0,8004,WL,B,9.0
2,24.625999927520752,learn,35374.00007247925,Tue Mar 11 2025 16:39:35 GMT-0500 (Central Daylight Time),253783.70000000298,A,l,I,l,624,3,633.2000000029802,253150.5,8004,WL,B,10.0
2,24.80900001525879,learn,35190.99998474121,Tue Mar 11 2025 16:39:35 GMT-0500 (Central Daylight Time),253966.70000000298,A,la,I,a,166,3,816.2000000029802,253150.5,8004,WL,B,10.0
2,24.9760000705719,learn,35023.9999294281,Tue Mar 11 2025 16:39:35 GMT-0500 (Central Daylight Time),254133.3999999985,A,lak,I,k,159,3,982.8999999985099,253150.5,8004,WL,B,10.0
2,25.242000102996826,learn,34757.999897003174,Tue Mar 11 2025 16:39:35 GMT-0500 (Central Daylight Time),254399.8999999985,A,lake,I,e,256,3,1249.3999999985099,253150.5,8004,WL,B,10.0
2,25.45900011062622,learn,34540.99988937378,Tue Mar 11 2025 16:39:35 GMT-0500 (Central Daylight Time),254616.5,A,lakeenter,I,enter,197,3,1466.0,253150.5,8004,WL,B,10.0
2,25.924999952316284,learn,34075.000047683716,Tue Mar 11 2025 16:39:35 GMT-0500 (Central Daylight Time),255082.8999999985,A,p,I,p,446,3,466.0,254616.8999999985,8004,WL,B,11.0
2,26.108999967575073,learn,33891.00003242493,Tue Mar 11 2025 16:39:35 GMT-0500 (Central Daylight Time),255266.3999999985,A,pi,I,i,170,3,649.5,254616.8999999985,8004,WL,B,11.0
2,26.325000047683716,learn,33674.999952316284,Tue Mar 11 2025 16:39:35 GMT-0500 (Central Daylight Time),255482.70000000298,A,pip,I,p,211,3,865.8000000044703,254616.8999999985,8004,WL,B,11.0
2,27.375,learn,32625.0,Tue Mar 11 2025 16:39:35 GMT-0500 (Central Daylight Time),256532.5,A,pipe,I,e,1035,3,1915.6000000014901,254616.8999999985,8004,WL,B,11.0
2,27.79200005531311,learn,32207.99994468689,Tue Mar 11 2025 16:39:35 GMT-0500 (Central Daylight Time),256949.0,A,pipeenter,I,enter,401,3,2332.10000000149,254616.8999999985,8004,WL,B,11.0
2,28.591000080108643,learn,31408.999919891357,Tue Mar 11 2025 16:39:35 GMT-0500 (Central Daylight Time),257748.79999999702,A,f,I,f,792,3,799.2999999970198,256949.5,8004,WL,B,12.0
2,28.758000135421753,learn,31241.999864578247,Tue Mar 11 2025 16:39:35 GMT-0500 (Central Daylight Time),257915.1000000015,A,fi,I,i,162,3,965.6000000014901,256949.5,8004,WL,B,12.0
2,28.891000032424927,learn,31108.999967575073,Tue Mar 11 2025 16:39:35 GMT-0500 (Central Daylight Time),258048.6000000015,A,fir,I,r,122,3,1099.1000000014901,256949.5,8004,WL,B,12.0
2,29.008000135421753,learn,30991.999864578247,Tue Mar 11 2025 16:39:35 GMT-0500 (Central Daylight Time),258165.3999999985,A,fire,I,e,101,3,1215.8999999985099,256949.5,8004,WL,B,12.0
2,29.591000080108643,learn,30408.999919891357,Tue Mar 11 2025 16:39:35 GMT-0500 (Central Daylight Time),258748.70000000298,A,fireenter,I,enter,568,3,1799.2000000029802,256949.5,8004,WL,B,12.0
2,30.056999921798706,learn,29943.000078201294,Tue Mar 11 2025 16:39:35 GMT-0500 (Central Daylight Time),259215.0,A,c,I,c,449,3,466.0,258749.0,8004,WL,B,13.0
2,30.19099998474121,learn,29809.00001525879,Tue Mar 11 2025 16:39:35 GMT-0500 (Central Daylight Time),259348.29999999702,A,cl,I,l,127,3,599.2999999970198,258749.0,8004,WL,B,13.0
2,30.44099998474121,learn,29559.00001525879,Tue Mar 11 2025 16:39:35 GMT-0500 (Central Daylight Time),259598.29999999702,A,clo,I,o,233,3,849.2999999970198,258749.0,8004,WL,B,13.0
2,30.60700011253357,learn,29392.99988746643,Tue Mar 11 2025 16:39:35 GMT-0500 (Central Daylight Time),259764.70000000298,A,cloc,I,c,151,3,1015.7000000029802,258749.0,8004,WL,B,13.0
2,30.924000024795532,learn,29075.999975204468,Tue Mar 11 2025 16:39:35 GMT-0500 (Central Daylight Time),260081.29999999702,A,clock,I,k,305,3,1332.2999999970198,258749.0,8004,WL,B,13.0
2,31.390000104904175,learn,28609.999895095825,Tue Mar 11 2025 16:39:35 GMT-0500 (Central Daylight Time),260547.8999999985,A,clockenter,I,enter,452,3,1798.8999999985099,258749.0,8004,WL,B,13.0
2,35.23900008201599,learn,24760.99991798401,Tue Mar 11 2025 16:39:35 GMT-0500 (Central Daylight Time),264396.700000003,A,k,I,k,3833,3,3848.4000000059605,260548.29999999702,8004,WL,B,14.0
2,35.289000034332275,learn,24710.999965667725,Tue Mar 11 2025 16:39:35 GMT-0500 (Central Daylight Time),264446.6000000015,A,ks,I,s,32,3,3898.3000000044703,260548.29999999702,8004,WL,B,14.0
2,36.039000034332275,learn,23960.999965667725,Tue Mar 11 2025 16:39:35 GMT-0500 (Central Daylight Time),265196.700000003,A,k,I,backspace,735,3,4648.4000000059605,260548.29999999702,8004,WL,B,14.0
2,36.2720000743866,learn,23727.999925613403,Tue Mar 11 2025 16:39:35 GMT-0500 (Central Daylight Time),265429.6000000015,A,,I,backspace,217,3,4881.30000000447,260548.29999999702,8004,WL,B,14.0
2,36.72200012207031,learn,23277.999877929688,Tue Mar 11 2025 16:39:35 GMT-0500 (Central Daylight Time),265879.299999997,A,s,I,s,432,3,5331.0,260548.29999999702,8004,WL,B,14.0
2,36.93900012969971,learn,23060.999870300293,Tue Mar 11 2025 16:39:35 GMT-0500 (Central Daylight Time),266096.1000000015,A,sk,I,k,198,3,5547.80000000447,260548.29999999702,8004,WL,B,14.0
2,37.23900008201599,learn,22760.99991798401,Tue Mar 11 2025 16:39:35 GMT-0500 (Central Daylight Time),266396.200000003,A,ski,I,i,293,3,5847.9000000059605,260548.29999999702,8004,WL,B,14.0
2,38.07200002670288,learn,21927.99997329712,Tue Mar 11 2025 16:39:35 GMT-0500 (Central Daylight Time),267229.200000003,A,skin,I,n,818,3,6680.9000000059605,260548.29999999702,8004,WL,B,14.0
2,39.58800005912781,learn,20411.999940872192,Tue Mar 11 2025 16:39:35 GMT-0500 (Central Daylight Time),268745.3999999985,A,skinenter,I,enter,1496,3,8197.10000000149,260548.29999999702,8004,WL,B,14.0
2,41.104000091552734,learn,18895.999908447266,Tue Mar 11 2025 16:39:35 GMT-0500 (Central Daylight Time),270261.6000000015,A,enter,I,enter,1500,3,1515.8999999985099,268745.700000003,8004,WL,B,15.0
3,1.8330001831054688,learn,58166.99981689453,Tue Mar 11 2025 16:39:35 GMT-0500 (Central Daylight Time),337007.200000003,A,s,I,s,1823,3,1832.4000000059605,335174.799999997,8004,WL,B,1.0
3,2.0989999771118164,learn,57901.00002288818,Tue Mar 11 2025 16:39:35 GMT-0500 (Central Daylight Time),337273.700000003,A,st,I,t,253,3,2098.9000000059605,335174.799999997,8004,WL,B,1.0
3,2.383000135421753,learn,57616.99986457825,Tue Mar 11 2025 16:39:35 GMT-0500 (Central Daylight Time),337557.299999997,A,str,I,r,268,3,2382.5,335174.799999997,8004,WL,B,1.0
3,2.682000160217285,learn,57317.999839782715,Tue Mar 11 2025 16:39:35 GMT-0500 (Central Daylight Time),337857.1000000015,A,stre,I,e,288,3,2682.3000000044703,335174.799999997,8004,WL,B,1.0
3,2.8990001678466797,learn,57100.99983215332,Tue Mar 11 2025 16:39:35 GMT-0500 (Central Daylight Time),338073.6000000015,A,stree,I,e,204,3,2898.8000000044703,335174.799999997,8004,WL,B,1.0
3,3.2320001125335693,learn,56767.99988746643,Tue Mar 11 2025 16:39:35 GMT-0500 (Central Daylight Time),338406.700000003,A,street,I,t,317,3,3231.9000000059605,335174.799999997,8004,WL,B,1.0
3,3.5989999771118164,learn,56401.00002288818,Tue Mar 11 2025 16:39:35 GMT-0500 (Central Daylight Time),338773.5,A,streetenter,I,enter,360,3,3598.7000000029802,335174.799999997,8004,WL,B,1.0
3,4.049000024795532,learn,55950.99997520447,Tue Mar 11 2025 16:39:35 GMT-0500 (Central Daylight Time),339223.5,A,g,I,g,441,3,449.70000000298023,338773.799999997,8004,WL,B,2.0
3,4.2820000648498535,learn,55717.99993515015,Tue Mar 11 2025 16:39:35 GMT-0500 (Central Daylight Time),339456.3999999985,A,gr,I,r,222,3,682.6000000014901,338773.799999997,8004,WL,B,2.0
3,4.381999969482422,learn,55618.00003051758,Tue Mar 11 2025 16:39:35 GMT-0500 (Central Daylight Time),339556.5,A,gra,I,a,93,3,782.7000000029802,338773.799999997,8004,WL,B,2.0
3,4.498000144958496,learn,55501.999855041504,Tue Mar 11 2025 16:39:35 GMT-0500 (Central Daylight Time),339673.200000003,A,gras,I,s,97,3,899.4000000059605,338773.799999997,8004,WL,B,2.0
3,4.748000144958496,learn,55251.999855041504,Tue Mar 11 2025 16:39:35 GMT-0500 (Central Daylight Time),339922.8999999985,A,grass,I,s,229,3,1149.1000000014901,338773.799999997,8004,WL,B,2.0
3,5.465000152587891,learn,54534.99984741211,Tue Mar 11 2025 16:39:35 GMT-0500 (Central Daylight Time),340639.6000000015,A,grassenter,I,enter,706,3,1865.8000000044703,338773.799999997,8004,WL,B,2.0
3,6.38100004196167,learn,53618.99995803833,Tue Mar 11 2025 16:39:35 GMT-0500 (Central Daylight Time),341555.8999999985,A,d,I,d,909,3,916.0,340639.8999999985,8004,WL,B,3.0
3,6.63100004196167,learn,53368.99995803833,Tue Mar 11 2025 16:39:35 GMT-0500 (Central Daylight Time),341805.700000003,A,do,I,o,242,3,1165.8000000044703,340639.8999999985,8004,WL,B,3.0
3,6.79800009727478,learn,53201.99990272522,Tue Mar 11 2025 16:39:35 GMT-0500 (Central Daylight Time),341972.3999999985,A,doo,I,o,152,3,1332.5,340639.8999999985,8004,WL,B,3.0
3,6.898000001907349,learn,53101.99999809265,Tue Mar 11 2025 16:39:35 GMT-0500 (Central Daylight Time),342072.6000000015,A,door,I,r,89,3,1432.7000000029802,340639.8999999985,8004,WL,B,3.0
3,7.13100004196167,learn,52868.99995803833,Tue Mar 11 2025 16:39:35 GMT-0500 (Central Daylight Time),342305.799999997,A,doorenter,I,enter,213,3,1665.8999999985099,340639.8999999985,8004,WL,B,3.0
3,7.46399998664856,learn,52536.00001335144,Tue Mar 11 2025 16:39:35 GMT-0500 (Central Daylight Time),342639.1000000015,A,a,I,a,316,3,333.0,342306.1000000015,8004,WL,B,4.0
3,7.63100004196167,learn,52368.99995803833,Tue Mar 11 2025 16:39:35 GMT-0500 (Central Daylight Time),342805.3999999985,A,ar,I,r,150,3,499.29999999701977,342306.1000000015,8004,WL,B,4.0
3,8.21399998664856,learn,51786.00001335144,Tue Mar 11 2025 16:39:35 GMT-0500 (Central Daylight Time),343388.6000000015,A,arm,I,m,576,3,1082.5,342306.1000000015,8004,WL,B,4.0
3,8.581000089645386,learn,51418.999910354614,Tue Mar 11 2025 16:39:35 GMT-0500 (Central Daylight Time),343755.200000003,A,armenter,I,enter,353,3,1449.1000000014901,342306.1000000015,8004,WL,B,4.0
3,8.980000019073486,learn,51019.999980926514,Tue Mar 11 2025 16:39:35 GMT-0500 (Central Daylight Time),344155.0,A,w,I,w,395,3,399.3999999985099,343755.6000000015,8004,WL,B,5.0
3,10.347000122070312,learn,49652.99987792969,Tue Mar 11 2025 16:39:35 GMT-0500 (Central Daylight Time),345521.299999997,A,wi,I,i,1355,3,1765.6999999955297,343755.6000000015,8004,WL,B,5.0
3,10.430000066757202,learn,49569.9999332428,Tue Mar 11 2025 16:39:35 GMT-0500 (Central Daylight Time),345604.6000000015,A,wif,I,f,76,3,1849.0,343755.6000000015,8004,WL,B,5.0
3,10.814000129699707,learn,49185.99987030029,Tue Mar 11 2025 16:39:35 GMT-0500 (Central Daylight Time),345989.0,A,wife,I,e,378,3,2233.39999999851,343755.6000000015,8004,WL,B,5.0
3,10.930000066757202,learn,49069.9999332428,Tue Mar 11 2025 16:39:35 GMT-0500 (Central Daylight Time),346104.799999997,A,wifeenter,I,enter,104,3,2349.1999999955297,343755.6000000015,8004,WL,B,5.0
3,11.21399998664856,learn,48786.00001335144,Tue Mar 11 2025 16:39:35 GMT-0500 (Central Daylight Time),346388.700000003,A,s,I,s,269,3,283.70000000298023,346105.0,8004,WL,B,6.0
3,11.413000106811523,learn,48586.99989318848,Tue Mar 11 2025 16:39:35 GMT-0500 (Central Daylight Time),346587.799999997,A,st,I,t,184,3,482.79999999701977,346105.0,8004,WL,B,6.0
3,11.663000106811523,learn,48336.99989318848,Tue Mar 11 2025 16:39:35 GMT-0500 (Central Daylight Time),346837.5,A,sta,I,a,233,3,732.5,346105.0,8004,WL,B,6.0
3,11.828999996185303,learn,48171.0000038147,Tue Mar 11 2025 16:39:35 GMT-0500 (Central Daylight Time),347004.200000003,A,star,I,r,152,3,899.2000000029802,346105.0,8004,WL,B,6.0
3,12.11300015449524,learn,47886.99984550476,Tue Mar 11 2025 16:39:35 GMT-0500 (Central Daylight Time),347287.6000000015,A,starenter,I,enter,265,3,1182.6000000014901,346105.0,8004,WL,B,6.0
3,12.828999996185303,learn,47171.0000038147,Tue Mar 11 2025 16:39:35 GMT-0500 (Central Daylight Time),348003.799999997,A,w,I,w,702,3,715.8999999985099,347287.8999999985,8004,WL,B,7.0
3,12.996000051498413,learn,47003.99994850159,Tue Mar 11 2025 16:39:35 GMT-0500 (Central Daylight Time),348170.6000000015,A,wi,I,i,162,3,882.7000000029802,347287.8999999985,8004,WL,B,7.0
3,13.296000003814697,learn,46703.9999961853,Tue Mar 11 2025 16:39:35 GMT-0500 (Central Daylight Time),348470.3999999985,A,win,I,n,283,3,1182.5,347287.8999999985,8004,WL,B,7.0
3,13.496000051498413,learn,46503.99994850159,Tue Mar 11 2025 16:39:35 GMT-0500 (Central Daylight Time),348670.3999999985,A,wind,I,d,191,3,1382.5,347287.8999999985,8004,WL,B,7.0
3,13.695000171661377,learn,46304.99982833862,Tue Mar 11 2025 16:39:35 GMT-0500 (Central Daylight Time),348870.200000003,A,windo,I,o,191,3,1582.3000000044703,347287.8999999985,8004,WL,B,7.0
3,14.01200008392334,learn,45987.99991607666,Tue Mar 11 2025 16:39:35 GMT-0500 (Central Daylight Time),349186.8999999985,A,window,I,w,312,3,1899.0,347287.8999999985,8004,WL,B,7.0
3,14.195000171661377,learn,45804.99982833862,Tue Mar 11 2025 16:39:35 GMT-0500 (Central Daylight Time),349370.200000003,A,windowenter,I,enter,171,3,2082.3000000044703,347287.8999999985,8004,WL,B,7.0
3,14.67900013923645,learn,45320.99986076355,Tue Mar 11 2025 16:39:35 GMT-0500 (Central Daylight Time),349853.3999999985,A,c,I,c,467,3,483.0,349370.3999999985,8004,WL,B,8.0
3,14.92900013923645,learn,45070.99986076355,Tue Mar 11 2025 16:39:35 GMT-0500 (Central Daylight Time),350103.200000003,A,ci,I,i,232,3,732.8000000044703,349370.3999999985,8004,WL,B,8.0
3,15.245000123977661,learn,44754.99987602234,Tue Mar 11 2025 16:39:35 GMT-0500 (Central Daylight Time),350419.700000003,A,cit,I,t,302,3,1049.3000000044703,349370.3999999985,8004,WL,B,8.0
3,15.478000164031982,learn,44521.99983596802,Tue Mar 11 2025 16:39:35 GMT-0500 (Central Daylight Time),350653.1000000015,A,city,I,y,217,3,1282.7000000029802,349370.3999999985,8004,WL,B,8.0
3,16.511000156402588,learn,43488.99984359741,Tue Mar 11 2025 16:39:35 GMT-0500 (Central Daylight Time),351686.0,A,cityenter,I,enter,1016,3,2315.60000000149,349370.3999999985,8004,WL,B,8.0
3,19.844000101089478,learn,40155.99989891052,Tue Mar 11 2025 16:39:35 GMT-0500 (Central Daylight Time),355018.3999999985,A,p,I,p,3311,3,3332.10000000149,351686.299999997,8004,WL,B,9.0
3,20.06000018119812,learn,39939.99981880188,Tue Mar 11 2025 16:39:35 GMT-0500 (Central Daylight Time),355234.700000003,A,pu,I,u,203,3,3548.4000000059605,351686.299999997,8004,WL,B,9.0
3,20.693000078201294,learn,39306.999921798706,Tue Mar 11 2025 16:39:35 GMT-0500 (Central Daylight Time),355868.1000000015,A,pup,I,p,619,3,4181.80000000447,351686.299999997,8004,WL,B,9.0
3,20.993000030517578,learn,39006.99996948242,Tue Mar 11 2025 16:39:35 GMT-0500 (Central Daylight Time),356168.0,A,pupi,I,i,289,3,4481.70000000298,351686.299999997,8004,WL,B,9.0
3,21.177000045776367,learn,38822.99995422363,Tue Mar 11 2025 16:39:35 GMT-0500 (Central Daylight Time),356351.299999997,A,pupil,I,l,174,3,4665.0,351686.299999997,8004,WL,B,9.0
3,21.7260000705719,learn,38273.9999294281,Tue Mar 11 2025 16:39:35 GMT-0500 (Central Daylight Time),356901.200000003,A,pupilenter,I,enter,543,3,5214.9000000059605,351686.299999997,8004,WL,B,9.0
3,22.343000173568726,learn,37656.999826431274,Tue Mar 11 2025 16:39:35 GMT-0500 (Central Daylight Time),357517.6000000015,A,c,I,c,600,3,616.2000000029802,356901.3999999985,8004,WL,B,10.0
3,22.593000173568726,learn,37406.999826431274,Tue Mar 11 2025 16:39:35 GMT-0500 (Central Daylight Time),357767.6000000015,A,ca,I,a,240,3,866.2000000029802,356901.3999999985,8004,WL,B,10.0
3,22.909000158309937,learn,37090.99984169006,Tue Mar 11 2025 16:39:35 GMT-0500 (Central Daylight Time),358084.200000003,A,cab,I,b,310,3,1182.8000000044703,356901.3999999985,8004,WL,B,10.0
3,23.193000078201294,learn,36806.999921798706,Tue Mar 11 2025 16:39:35 GMT-0500 (Central Daylight Time),358367.6000000015,A,cabi,I,i,265,3,1466.2000000029802,356901.3999999985,8004,WL,B,10.0
3,23.64199995994568,learn,36358.00004005432,Tue Mar 11 2025 16:39:35 GMT-0500 (Central Daylight Time),358817.200000003,A,cabin,I,n,438,3,1915.8000000044703,356901.3999999985,8004,WL,B,10.0
3,24.174999952316284,learn,35825.000047683716,Tue Mar 11 2025 16:39:35 GMT-0500 (Central Daylight Time),359350.299999997,A,cabinenter,I,enter,524,3,2448.89999999851,356901.3999999985,8004,WL,B,10.0
3,25.407999992370605,learn,34592.000007629395,Tue Mar 11 2025 16:39:35 GMT-0500 (Central Daylight Time),360583.3999999985,A,l,I,l,1223,3,1232.6999999955297,359350.700000003,8004,WL,B,11.0
3,25.54200005531311,learn,34457.99994468689,Tue Mar 11 2025 16:39:35 GMT-0500 (Central Daylight Time),360717.3999999985,A,la,I,a,127,3,1366.6999999955297,359350.700000003,8004,WL,B,11.0
3,25.70800018310547,learn,34291.99981689453,Tue Mar 11 2025 16:39:35 GMT-0500 (Central Daylight Time),360883.3999999985,A,lak,I,k,152,3,1532.6999999955297,359350.700000003,8004,WL,B,11.0
3,26.02500009536743,learn,33974.99990463257,Tue Mar 11 2025 16:39:35 GMT-0500 (Central Daylight Time),361199.6000000015,A,lake,I,e,298,3,1848.8999999985099,359350.700000003,8004,WL,B,11.0
3,26.325999975204468,learn,33674.00002479553,Tue Mar 11 2025 16:39:35 GMT-0500 (Central Daylight Time),361500.700000003,A,lakeenter,I,enter,294,3,2150.0,359350.700000003,8004,WL,B,11.0
3,26.907999992370605,learn,33092.000007629395,Tue Mar 11 2025 16:39:35 GMT-0500 (Central Daylight Time),362083.0,A,c,I,c,570,3,581.8999999985099,361501.1000000015,8004,WL,B,12.0
3,26.991000175476074,learn,33008.999824523926,Tue Mar 11 2025 16:39:35 GMT-0500 (Central Daylight Time),362166.1000000015,A,cl,I,l,75,3,665.0,361501.1000000015,8004,WL,B,12.0
3,27.223999977111816,learn,32776.00002288818,Tue Mar 11 2025 16:39:35 GMT-0500 (Central Daylight Time),362399.3999999985,A,clo,I,o,224,3,898.2999999970198,361501.1000000015,8004,WL,B,12.0
3,27.35800004005432,learn,32641.99995994568,Tue Mar 11 2025 16:39:35 GMT-0500 (Central Daylight Time),362532.5,A,cloc,I,c,118,3,1031.3999999985099,361501.1000000015,8004,WL,B,12.0
3,27.574000120162964,learn,32425.999879837036,Tue Mar 11 2025 16:39:35 GMT-0500 (Central Daylight Time),362749.3999999985,A,clock,I,k,209,3,1248.2999999970198,361501.1000000015,8004,WL,B,12.0
3,28.10800004005432,learn,31891.99995994568,Tue Mar 11 2025 16:39:35 GMT-0500 (Central Daylight Time),363282.6000000015,A,clockenter,I,enter,512,3,1781.5,361501.1000000015,8004,WL,B,12.0
3,28.574000120162964,learn,31425.999879837036,Tue Mar 11 2025 16:39:35 GMT-0500 (Central Daylight Time),363748.8999999985,A,f,I,f,451,3,465.8999999985099,363283.0,8004,WL,B,13.0
3,28.890000104904175,learn,31109.999895095825,Tue Mar 11 2025 16:39:35 GMT-0500 (Central Daylight Time),364065.3999999985,A,fi,I,i,296,3,782.3999999985099,363283.0,8004,WL,B,13.0
3,29.09000015258789,learn,30909.99984741211,Tue Mar 11 2025 16:39:35 GMT-0500 (Central Daylight Time),364265.3999999985,A,fir,I,r,180,3,982.3999999985099,363283.0,8004,WL,B,13.0
3,29.289999961853027,learn,30710.000038146973,Tue Mar 11 2025 16:39:35 GMT-0500 (Central Daylight Time),364465.5,A,fire,I,e,189,3,1182.5,363283.0,8004,WL,B,13.0
3,29.657999992370605,learn,30342.000007629395,Tue Mar 11 2025 16:39:35 GMT-0500 (Central Daylight Time),364833.1000000015,A,fireenter,I,enter,357,3,1550.1000000014901,363283.0,8004,WL,B,13.0
3,32.85600018501282,learn,27143.999814987183,Tue Mar 11 2025 16:39:35 GMT-0500 (Central Daylight Time),368030.8999999985,A,s,I,s,3180,3,3197.5,364833.3999999985,8004,WL,B,14.0
3,33.10800004005432,learn,26891.99995994568,Tue Mar 11 2025 16:39:35 GMT-0500 (Central Daylight Time),368282.799999997,A,sk,I,k,239,3,3449.39999999851,364833.3999999985,8004,WL,B,14.0
3,33.47200012207031,learn,26527.999877929688,Tue Mar 11 2025 16:39:35 GMT-0500 (Central Daylight Time),368647.3999999985,A,ski,I,i,355,3,3814.0,364833.3999999985,8004,WL,B,14.0
3,34.07200002670288,learn,25927.99997329712,Tue Mar 11 2025 16:39:35 GMT-0500 (Central Daylight Time),369247.200000003,A,skin,I,n,582,3,4413.80000000447,364833.3999999985,8004,WL,B,14.0
3,34.8050000667572,learn,25194.999933242798,Tue Mar 11 2025 16:39:35 GMT-0500 (Central Daylight Time),369980.299999997,A,skinenter,I,enter,727,3,5146.89999999851,364833.3999999985,8004,WL,B,14.0
3,42.087000131607056,learn,17912.999868392944,Tue Mar 11 2025 16:39:35 GMT-0500 (Central Daylight Time),377261.5,A,f,I,f,7274,3,7281.0,369980.5,8004,WL,B,15.0
3,42.38700008392334,learn,17612.99991607666,Tue Mar 11 2025 16:39:35 GMT-0500 (Central Daylight Time),377562.200000003,A,fi,I,i,280,3,7581.70000000298,369980.5,8004,WL,B,15.0
3,42.503000020980835,learn,17496.999979019165,Tue Mar 11 2025 16:39:35 GMT-0500 (Central Daylight Time),377677.8999999985,A,fir,I,r,99,3,7697.39999999851,369980.5,8004,WL,B,15.0
3,42.60300016403198,learn,17396.999835968018,Tue Mar 11 2025 16:39:35 GMT-0500 (Central Daylight Time),377777.799999997,A,fire,I,e,87,3,7797.29999999702,369980.5,8004,WL,B,15.0
3,42.837000131607056,learn,17162.999868392944,Tue Mar 11 2025 16:39:35 GMT-0500 (Central Daylight Time),378012.3999999985,A,fireenter,I,enter,219,3,8031.89999999851,369980.5,8004,WL,B,15.0
4,0.5,learn,59500.0,Tue Mar 11 2025 16:39:35 GMT-0500 (Central Daylight Time),446573.1000000015,A,s,I,s,485,3,499.5,446073.6000000015,8004,WL,B,1.0
4,0.8159999847412109,learn,59184.00001525879,Tue Mar 11 2025 16:39:35 GMT-0500 (Central Daylight Time),446889.700000003,A,st,I,t,296,3,816.1000000014901,446073.6000000015,8004,WL,B,1.0
4,1.067000150680542,learn,58932.99984931946,Tue Mar 11 2025 16:39:35 GMT-0500 (Central Daylight Time),447140.5,A,str,I,r,242,3,1066.8999999985099,446073.6000000015,8004,WL,B,1.0
4,1.317000150680542,learn,58682.99984931946,Tue Mar 11 2025 16:39:35 GMT-0500 (Central Daylight Time),447389.799999997,A,stre,I,e,241,3,1316.1999999955297,446073.6000000015,8004,WL,B,1.0
4,1.5329999923706055,learn,58467.000007629395,Tue Mar 11 2025 16:39:35 GMT-0500 (Central Daylight Time),447605.8999999985,A,stree,I,e,209,3,1532.2999999970198,446073.6000000015,8004,WL,B,1.0
4,1.8489999771118164,learn,58151.00002288818,Tue Mar 11 2025 16:39:35 GMT-0500 (Central Daylight Time),447922.700000003,A,street,I,t,295,3,1849.1000000014901,446073.6000000015,8004,WL,B,1.0
4,2.2160000801086426,learn,57783.99991989136,Tue Mar 11 2025 16:39:35 GMT-0500 (Central Daylight Time),448289.1000000015,A,streetenter,I,enter,356,3,2215.5,446073.6000000015,8004,WL,B,1.0
4,2.5989999771118164,learn,57401.00002288818,Tue Mar 11 2025 16:39:35 GMT-0500 (Central Daylight Time),448672.200000003,A,g,I,g,372,3,382.70000000298023,448289.5,8004,WL,B,2.0
4,2.881999969482422,learn,57118.00003051758,Tue Mar 11 2025 16:39:35 GMT-0500 (Central Daylight Time),448955.3999999985,A,gr,I,r,276,3,665.8999999985099,448289.5,8004,WL,B,2.0
4,3.0160000324249268,learn,56983.99996757507,Tue Mar 11 2025 16:39:35 GMT-0500 (Central Daylight Time),449088.8999999985,A,gra,I,a,123,3,799.3999999985099,448289.5,8004,WL,B,2.0
4,3.249000072479248,learn,56750.99992752075,Tue Mar 11 2025 16:39:35 GMT-0500 (Central Daylight Time),449322.6000000015,A,gras,I,s,212,3,1033.1000000014901,448289.5,8004,WL,B,2.0
4,3.5490000247955322,learn,56450.99997520447,Tue Mar 11 2025 16:39:35 GMT-0500 (Central Daylight Time),449622.0,A,grass,I,s,292,3,1332.5,448289.5,8004,WL,B,2.0
4,3.8990001678466797,learn,56100.99983215332,Tue Mar 11 2025 16:39:35 GMT-0500 (Central Daylight Time),449971.8999999985,A,grassenter,I,enter,336,3,1682.3999999985099,448289.5,8004,WL,B,2.0
4,4.2820000648498535,learn,55717.99993515015,Tue Mar 11 2025 16:39:35 GMT-0500 (Central Daylight Time),450355.1000000015,A,d,I,d,362,3,382.8999999985099,449972.200000003,8004,WL,B,3.0
4,4.465000152587891,learn,55534.99984741211,Tue Mar 11 2025 16:39:35 GMT-0500 (Central Daylight Time),450538.6000000015,A,do,I,o,170,3,566.3999999985099,449972.200000003,8004,WL,B,3.0
4,4.631999969482422,learn,55368.00003051758,Tue Mar 11 2025 16:39:35 GMT-0500 (Central Daylight Time),450705.200000003,A,doo,I,o,147,3,733.0,449972.200000003,8004,WL,B,3.0
4,4.982000112533569,learn,55017.99988746643,Tue Mar 11 2025 16:39:35 GMT-0500 (Central Daylight Time),451054.8999999985,A,door,I,r,340,3,1082.6999999955297,449972.200000003,8004,WL,B,3.0
4,5.2820000648498535,learn,54717.99993515015,Tue Mar 11 2025 16:39:35 GMT-0500 (Central Daylight Time),451354.8999999985,A,doorenter,I,enter,280,3,1382.6999999955297,449972.200000003,8004,WL,B,3.0
4,5.716000080108643,learn,54283.99991989136,Tue Mar 11 2025 16:39:35 GMT-0500 (Central Daylight Time),451789.0,A,a,I,a,427,3,433.79999999701977,451355.200000003,8004,WL,B,4.0
4,5.981000185012817,learn,54018.99981498718,Tue Mar 11 2025 16:39:35 GMT-0500 (Central Daylight Time),452054.700000003,A,ar,I,r,256,3,699.5,451355.200000003,8004,WL,B,4.0
4,6.281000137329102,learn,53718.9998626709,Tue Mar 11 2025 16:39:35 GMT-0500 (Central Daylight Time),452354.200000003,A,arm,I,m,287,3,999.0,451355.200000003,8004,WL,B,4.0
4,6.63100004196167,learn,53368.99995803833,Tue Mar 11 2025 16:39:35 GMT-0500 (Central Daylight Time),452704.200000003,A,armenter,I,enter,331,3,1349.0,451355.200000003,8004,WL,B,4.0
4,7.164000034332275,learn,52835.999965667725,Tue Mar 11 2025 16:39:35 GMT-0500 (Central Daylight Time),453237.6000000015,A,s,I,s,518,3,533.1000000014901,452704.5,8004,WL,B,5.0
4,7.398000001907349,learn,52601.99999809265,Tue Mar 11 2025 16:39:35 GMT-0500 (Central Daylight Time),453470.799999997,A,st,I,t,216,3,766.2999999970198,452704.5,8004,WL,B,5.0
4,7.71399998664856,learn,52286.00001335144,Tue Mar 11 2025 16:39:35 GMT-0500 (Central Daylight Time),453787.299999997,A,sta,I,a,303,3,1082.7999999970198,452704.5,8004,WL,B,5.0
4,8.097000122070312,learn,51902.99987792969,Tue Mar 11 2025 16:39:35 GMT-0500 (Central Daylight Time),454170.700000003,A,star,I,r,363,3,1466.2000000029802,452704.5,8004,WL,B,5.0
4,8.44700002670288,learn,51552.99997329712,Tue Mar 11 2025 16:39:35 GMT-0500 (Central Daylight Time),454520.3999999985,A,starenter,I,enter,330,3,1815.8999999985099,452704.5,8004,WL,B,5.0
4,8.71399998664856,learn,51286.00001335144,Tue Mar 11 2025 16:39:35 GMT-0500 (Central Daylight Time),454787.1000000015,A,w,I,w,261,3,266.3999999985099,454520.700000003,8004,WL,B,6.0
4,8.914000034332275,learn,51085.999965667725,Tue Mar 11 2025 16:39:35 GMT-0500 (Central Daylight Time),454986.8999999985,A,wi,I,i,194,3,466.19999999552965,454520.700000003,8004,WL,B,6.0
4,9.180000066757202,learn,50819.9999332428,Tue Mar 11 2025 16:39:35 GMT-0500 (Central Daylight Time),455253.5,A,wif,I,f,260,3,732.7999999970198,454520.700000003,8004,WL,B,6.0
4,10.330000162124634,learn,49669.999837875366,Tue Mar 11 2025 16:39:35 GMT-0500 (Central Daylight Time),456403.3999999985,A,wife,I,e,1137,3,1882.6999999955297,454520.700000003,8004,WL,B,6.0
4,10.880000114440918,learn,49119.99988555908,Tue Mar 11 2025 16:39:35 GMT-0500 (Central Daylight Time),456953.1000000015,A,wifeenter,I,enter,538,3,2432.39999999851,454520.700000003,8004,WL,B,6.0
4,11.196000099182129,learn,48803.99990081787,Tue Mar 11 2025 16:39:35 GMT-0500 (Central Daylight Time),457269.700000003,A,w,I,w,309,3,316.40000000596046,456953.299999997,8004,WL,B,7.0
4,11.330000162124634,learn,48669.999837875366,Tue Mar 11 2025 16:39:35 GMT-0500 (Central Daylight Time),457403.1000000015,A,wi,I,i,129,3,449.80000000447035,456953.299999997,8004,WL,B,7.0
4,11.597000122070312,learn,48402.99987792969,Tue Mar 11 2025 16:39:35 GMT-0500 (Central Daylight Time),457669.700000003,A,win,I,n,250,3,716.4000000059605,456953.299999997,8004,WL,B,7.0
4,11.77999997138977,learn,48220.00002861023,Tue Mar 11 2025 16:39:35 GMT-0500 (Central Daylight Time),457852.799999997,A,wind,I,d,167,3,899.5,456953.299999997,8004,WL,B,7.0
4,12.013000011444092,learn,47986.99998855591,Tue Mar 11 2025 16:39:35 GMT-0500 (Central Daylight Time),458086.1000000015,A,windo,I,o,217,3,1132.8000000044703,456953.299999997,8004,WL,B,7.0
4,12.578999996185303,learn,47421.0000038147,Tue Mar 11 2025 16:39:35 GMT-0500 (Central Daylight Time),458652.700000003,A,window,I,w,559,3,1699.4000000059605,456953.299999997,8004,WL,B,7.0
4,13.095999956130981,learn,46904.00004386902,Tue Mar 11 2025 16:39:35 GMT-0500 (Central Daylight Time),459169.0,A,windowenter,I,enter,505,3,2215.7000000029802,456953.299999997,8004,WL,B,7.0
4,13.529000043869019,learn,46470.99995613098,Tue Mar 11 2025 16:39:35 GMT-0500 (Central Daylight Time),459602.1000000015,A,c,I,c,421,3,432.80000000447035,459169.299999997,8004,WL,B,8.0
4,13.746000051498413,learn,46253.99994850159,Tue Mar 11 2025 16:39:35 GMT-0500 (Central Daylight Time),459819.0,A,ci,I,i,203,3,649.7000000029802,459169.299999997,8004,WL,B,8.0
4,14.111999988555908,learn,45888.00001144409,Tue Mar 11 2025 16:39:35 GMT-0500 (Central Daylight Time),460185.6000000015,A,cit,I,t,346,3,1016.3000000044703,459169.299999997,8004,WL,B,8.0
4,14.378999948501587,learn,45621.00005149841,Tue Mar 11 2025 16:39:35 GMT-0500 (Central Daylight Time),460452.200000003,A,city,I,y,252,3,1282.9000000059605,459169.299999997,8004,WL,B,8.0
4,15.712000131607056,learn,44287.999868392944,Tue Mar 11 2025 16:39:35 GMT-0500 (Central Daylight Time),461784.8999999985,A,cityenter,I,enter,1313,3,2615.60000000149,459169.299999997,8004,WL,B,8.0
4,19.194000005722046,learn,40805.999994277954,Tue Mar 11 2025 16:39:35 GMT-0500 (Central Daylight Time),465267.200000003,A,p,I,p,3477,3,3481.9000000059605,461785.299999997,8004,WL,B,9.0
4,19.444000005722046,learn,40555.999994277954,Tue Mar 11 2025 16:39:35 GMT-0500 (Central Daylight Time),465517.1000000015,A,pu,I,u,235,3,3731.8000000044703,461785.299999997,8004,WL,B,9.0
4,19.944000005722046,learn,40055.999994277954,Tue Mar 11 2025 16:39:35 GMT-0500 (Central Daylight Time),466016.8999999985,A,pup,I,p,488,3,4231.60000000149,461785.299999997,8004,WL,B,9.0
4,20.177000045776367,learn,39822.99995422363,Tue Mar 11 2025 16:39:35 GMT-0500 (Central Daylight Time),466250.299999997,A,pupi,I,i,221,3,4465.0,461785.299999997,8004,WL,B,9.0
4,20.427000045776367,learn,39572.99995422363,Tue Mar 11 2025 16:39:35 GMT-0500 (Central Daylight Time),466500.200000003,A,pupil,I,l,236,3,4714.9000000059605,461785.299999997,8004,WL,B,9.0
4,20.860000133514404,learn,39139.999866485596,Tue Mar 11 2025 16:39:35 GMT-0500 (Central Daylight Time),466933.3999999985,A,pupilenter,I,enter,425,3,5148.10000000149,461785.299999997,8004,WL,B,9.0
4,21.31000018119812,learn,38689.99981880188,Tue Mar 11 2025 16:39:35 GMT-0500 (Central Daylight Time),467383.299999997,A,c,I,c,441,3,449.59999999403954,466933.700000003,8004,WL,B,10.0
4,21.62600016593933,learn,38373.99983406067,Tue Mar 11 2025 16:39:35 GMT-0500 (Central Daylight Time),467699.6000000015,A,ca,I,a,303,3,765.8999999985099,466933.700000003,8004,WL,B,10.0
4,21.91000008583069,learn,38089.99991416931,Tue Mar 11 2025 16:39:35 GMT-0500 (Central Daylight Time),467983.1000000015,A,cab,I,b,267,3,1049.3999999985099,466933.700000003,8004,WL,B,10.0
4,22.06000018119812,learn,37939.99981880188,Tue Mar 11 2025 16:39:35 GMT-0500 (Central Daylight Time),468133.0,A,cabi,I,i,135,3,1199.2999999970198,466933.700000003,8004,WL,B,10.0
4,22.443000078201294,learn,37556.999921798706,Tue Mar 11 2025 16:39:35 GMT-0500 (Central Daylight Time),468516.1000000015,A,cabin,I,n,376,3,1582.3999999985099,466933.700000003,8004,WL,B,10.0
4,23.943000078201294,learn,36056.999921798706,Tue Mar 11 2025 16:39:35 GMT-0500 (Central Daylight Time),470015.799999997,A,cabinenter,I,enter,1489,3,3082.0999999940395,466933.700000003,8004,WL,B,10.0
4,24.62600016593933,learn,35373.99983406067,Tue Mar 11 2025 16:39:35 GMT-0500 (Central Daylight Time),470698.799999997,A,l,I,l,671,3,682.5999999940395,470016.200000003,8004,WL,B,11.0
4,24.842000007629395,learn,35157.999992370605,Tue Mar 11 2025 16:39:35 GMT-0500 (Central Daylight Time),470915.5,A,la,I,a,202,3,899.2999999970198,470016.200000003,8004,WL,B,11.0
4,25.108999967575073,learn,34891.00003242493,Tue Mar 11 2025 16:39:35 GMT-0500 (Central Daylight Time),471181.8999999985,A,lak,I,k,258,3,1165.6999999955297,470016.200000003,8004,WL,B,11.0
4,25.608999967575073,learn,34391.00003242493,Tue Mar 11 2025 16:39:35 GMT-0500 (Central Daylight Time),471681.8999999985,A,lake,I,e,489,3,1665.6999999955297,470016.200000003,8004,WL,B,11.0
4,26.174999952316284,learn,33825.000047683716,Tue Mar 11 2025 16:39:35 GMT-0500 (Central Daylight Time),472248.3999999985,A,lakeenter,I,enter,556,3,2232.1999999955297,470016.200000003,8004,WL,B,11.0
4,26.625,learn,33375.0,Tue Mar 11 2025 16:39:35 GMT-0500 (Central Daylight Time),472698.1000000015,A,p,I,p,429,3,449.3999999985099,472248.700000003,8004,WL,B,12.0
4,26.89199995994568,learn,33108.00004005432,Tue Mar 11 2025 16:39:35 GMT-0500 (Central Daylight Time),472964.799999997,A,pi,I,i,252,3,716.0999999940395,472248.700000003,8004,WL,B,12.0
4,27.174999952316284,learn,32825.000047683716,Tue Mar 11 2025 16:39:35 GMT-0500 (Central Daylight Time),473247.8999999985,A,pip,I,p,264,3,999.1999999955297,472248.700000003,8004,WL,B,12.0
4,27.641000032424927,learn,32358.999967575073,Tue Mar 11 2025 16:39:35 GMT-0500 (Central Daylight Time),473714.5,A,pipe,I,e,446,3,1465.7999999970198,472248.700000003,8004,WL,B,12.0
4,27.891000032424927,learn,32108.999967575073,Tue Mar 11 2025 16:39:35 GMT-0500 (Central Daylight Time),473964.3999999985,A,pipeenter,I,enter,243,3,1715.6999999955297,472248.700000003,8004,WL,B,12.0
4,28.324000120162964,learn,31675.999879837036,Tue Mar 11 2025 16:39:35 GMT-0500 (Central Daylight Time),474397.3999999985,A,s,I,s,424,3,432.6000000014901,473964.799999997,8004,WL,B,13.0
4,28.491000175476074,learn,31508.999824523926,Tue Mar 11 2025 16:39:35 GMT-0500 (Central Daylight Time),474564.0,A,sk,I,k,161,3,599.2000000029802,473964.799999997,8004,WL,B,13.0
4,28.824000120162964,learn,31175.999879837036,Tue Mar 11 2025 16:39:35 GMT-0500 (Central Daylight Time),474897.5,A,ski,I,i,313,3,932.7000000029802,473964.799999997,8004,WL,B,13.0
4,29.124000072479248,learn,30875.999927520752,Tue Mar 11 2025 16:39:35 GMT-0500 (Central Daylight Time),475197.5,A,skin,I,n,292,3,1232.7000000029802,473964.799999997,8004,WL,B,13.0
4,29.54100012779236,learn,30458.99987220764,Tue Mar 11 2025 16:39:35 GMT-0500 (Central Daylight Time),475614.1000000015,A,skinenter,I,enter,408,3,1649.3000000044703,473964.799999997,8004,WL,B,13.0
4,30.34000015258789,learn,29659.99984741211,Tue Mar 11 2025 16:39:35 GMT-0500 (Central Daylight Time),476413.6000000015,A,f,I,f,791,3,799.2000000029802,475614.3999999985,8004,WL,B,14.0
4,30.591000080108643,learn,29408.999919891357,Tue Mar 11 2025 16:39:35 GMT-0500 (Central Daylight Time),476663.700000003,A,fi,I,i,241,3,1049.3000000044703,475614.3999999985,8004,WL,B,14.0
4,30.84000015258789,learn,29159.99984741211,Tue Mar 11 2025 16:39:35 GMT-0500 (Central Daylight Time),476913.5,A,fir,I,r,230,3,1299.1000000014901,475614.3999999985,8004,WL,B,14.0
4,31.072999954223633,learn,28927.000045776367,Tue Mar 11 2025 16:39:35 GMT-0500 (Central Daylight Time),477146.799999997,A,fire,I,e,228,3,1532.3999999985099,475614.3999999985,8004,WL,B,14.0
4,31.373000144958496,learn,28626.999855041504,Tue Mar 11 2025 16:39:35 GMT-0500 (Central Daylight Time),477446.6000000015,A,fireenter,I,enter,291,3,1832.2000000029802,475614.3999999985,8004,WL,B,14.0
4,31.67300009727478,learn,28326.99990272522,Tue Mar 11 2025 16:39:35 GMT-0500 (Central Daylight Time),477746.700000003,A,c,I,c,295,3,299.80000000447035,477446.8999999985,8004,WL,B,15.0
4,31.84000015258789,learn,28159.99984741211,Tue Mar 11 2025 16:39:35 GMT-0500 (Central Daylight Time),477913.5,A,cl,I,l,146,3,466.6000000014901,477446.8999999985,8004,WL,B,15.0
4,32.09000015258789,learn,27909.99984741211,Tue Mar 11 2025 16:39:35 GMT-0500 (Central Daylight Time),478163.0,A,clo,I,o,229,3,716.1000000014901,477446.8999999985,8004,WL,B,15.0
4,32.241000175476074,learn,27758.999824523926,Tue Mar 11 2025 16:39:35 GMT-0500 (Central Daylight Time),478314.1000000015,A,cloc,I,c,130,3,867.2000000029802,477446.8999999985,8004,WL,B,15.0
4,32.42300009727478,learn,27576.99990272522,Tue Mar 11 2025 16:39:35 GMT-0500 (Central Daylight Time),478496.3999999985,A,clock,I,k,163,3,1049.5,477446.8999999985,8004,WL,B,15.0
4,33.25600004196167,learn,26743.99995803833,Tue Mar 11 2025 16:39:35 GMT-0500 (Central Daylight Time),479329.5,A,clockenter,I,enter,813,3,1882.6000000014901,477446.8999999985,8004,WL,B,15.0
5,1.249000072479248,learn,60000.0,Tue Mar 11 2025 16:39:35 GMT-0500 (Central Daylight Time),548108.200000003,A,s,I,s,1244,3,1249.7000000029802,546858.5,8004,WL,B,1.0
5,1.5329999923706055,learn,60000.0,Tue Mar 11 2025 16:39:35 GMT-0500 (Central Daylight Time),548391.3999999985,A,st,I,t,265,3,1532.8999999985099,546858.5,8004,WL,B,1.0
5,1.815999984741211,learn,60000.0,Tue Mar 11 2025 16:39:35 GMT-0500 (Central Daylight Time),548674.6000000015,A,str,I,r,261,3,1816.1000000014901,546858.5,8004,WL,B,1.0
5,1.999000072479248,learn,60000.0,Tue Mar 11 2025 16:39:35 GMT-0500 (Central Daylight Time),548857.700000003,A,stre,I,e,163,3,1999.2000000029802,546858.5,8004,WL,B,1.0
5,2.2160000801086426,learn,60000.0,Tue Mar 11 2025 16:39:35 GMT-0500 (Central Daylight Time),549074.3999999985,A,stree,I,e,196,3,2215.89999999851,546858.5,8004,WL,B,1.0
5,2.315999984741211,learn,60000.0,Tue Mar 11 2025 16:39:35 GMT-0500 (Central Daylight Time),549174.200000003,A,street,I,t,83,3,2315.7000000029802,546858.5,8004,WL,B,1.0
5,2.6989998817443848,learn,60000.0,Tue Mar 11 2025 16:39:35 GMT-0500 (Central Daylight Time),549557.3999999985,A,streetenter,I,enter,367,3,2698.89999999851,546858.5,8004,WL,B,1.0
5,3.0320000648498535,learn,60000.0,Tue Mar 11 2025 16:39:35 GMT-0500 (Central Daylight Time),549890.799999997,A,g,I,g,328,3,333.0,549557.799999997,8004,WL,B,2.0
5,3.2820000648498535,learn,60000.0,Tue Mar 11 2025 16:39:35 GMT-0500 (Central Daylight Time),550140.700000003,A,gr,I,r,236,3,582.9000000059605,549557.799999997,8004,WL,B,2.0
5,3.431999921798706,learn,60000.0,Tue Mar 11 2025 16:39:35 GMT-0500 (Central Daylight Time),550290.6000000015,A,gra,I,a,137,3,732.8000000044703,549557.799999997,8004,WL,B,2.0
5,3.631999969482422,learn,60000.0,Tue Mar 11 2025 16:39:35 GMT-0500 (Central Daylight Time),550490.6000000015,A,gras,I,s,179,3,932.8000000044703,549557.799999997,8004,WL,B,2.0
5,4.065000057220459,learn,60000.0,Tue Mar 11 2025 16:39:35 GMT-0500 (Central Daylight Time),550923.700000003,A,grass,I,s,420,3,1365.9000000059605,549557.799999997,8004,WL,B,2.0
5,4.315000057220459,learn,60000.0,Tue Mar 11 2025 16:39:35 GMT-0500 (Central Daylight Time),551173.6000000015,A,grassenter,I,enter,243,3,1615.8000000044703,549557.799999997,8004,WL,B,2.0
5,4.747999906539917,learn,60000.0,Tue Mar 11 2025 16:39:35 GMT-0500 (Central Daylight Time),551606.700000003,A,d,I,d,416,3,432.80000000447035,551173.8999999985,8004,WL,B,3.0
5,4.948999881744385,learn,60000.0,Tue Mar 11 2025 16:39:35 GMT-0500 (Central Daylight Time),551807.799999997,A,do,I,o,190,3,633.8999999985099,551173.8999999985,8004,WL,B,3.0
5,5.13100004196167,learn,60000.0,Tue Mar 11 2025 16:39:35 GMT-0500 (Central Daylight Time),551989.8999999985,A,doo,I,o,166,3,816.0,551173.8999999985,8004,WL,B,3.0
5,5.247999906539917,learn,60000.0,Tue Mar 11 2025 16:39:35 GMT-0500 (Central Daylight Time),552106.6000000015,A,door,I,r,103,3,932.7000000029802,551173.8999999985,8004,WL,B,3.0
5,5.447999954223633,learn,60000.0,Tue Mar 11 2025 16:39:35 GMT-0500 (Central Daylight Time),552306.799999997,A,doorenter,I,enter,179,3,1132.8999999985099,551173.8999999985,8004,WL,B,3.0
5,5.764999866485596,learn,60000.0,Tue Mar 11 2025 16:39:35 GMT-0500 (Central Daylight Time),552623.200000003,A,a,I,a,300,3,316.1000000014901,552307.1000000015,8004,WL,B,4.0
5,6.0309998989105225,learn,60000.0,Tue Mar 11 2025 16:39:35 GMT-0500 (Central Daylight Time),552889.8999999985,A,ar,I,r,255,3,582.7999999970198,552307.1000000015,8004,WL,B,4.0
5,6.29800009727478,learn,60000.0,Tue Mar 11 2025 16:39:35 GMT-0500 (Central Daylight Time),553156.299999997,A,arm,I,m,259,3,849.1999999955297,552307.1000000015,8004,WL,B,4.0
5,6.664000034332275,learn,60000.0,Tue Mar 11 2025 16:39:35 GMT-0500 (Central Daylight Time),553523.1000000015,A,armenter,I,enter,362,3,1216.0,552307.1000000015,8004,WL,B,4.0
5,7.2809998989105225,learn,60000.0,Tue Mar 11 2025 16:39:35 GMT-0500 (Central Daylight Time),554139.299999997,A,s,I,s,612,3,615.8999999985099,553523.3999999985,8004,WL,B,5.0
5,7.46399998664856,learn,60000.0,Tue Mar 11 2025 16:39:35 GMT-0500 (Central Daylight Time),554322.5,A,st,I,t,170,3,799.1000000014901,553523.3999999985,8004,WL,B,5.0
5,7.71399998664856,learn,60000.0,Tue Mar 11 2025 16:39:35 GMT-0500 (Central Daylight Time),554572.6000000015,A,sta,I,a,236,3,1049.2000000029802,553523.3999999985,8004,WL,B,5.0
5,7.958999872207642,learn,60000.0,Tue Mar 11 2025 16:39:35 GMT-0500 (Central Daylight Time),554817.299999997,A,star,I,r,240,3,1293.8999999985099,553523.3999999985,8004,WL,B,5.0
5,8.105999946594238,learn,60000.0,Tue Mar 11 2025 16:39:35 GMT-0500 (Central Daylight Time),554964.200000003,A,starenter,I,enter,142,3,1440.8000000044703,553523.3999999985,8004,WL,B,5.0
5,8.414000034332275,learn,60000.0,Tue Mar 11 2025 16:39:35 GMT-0500 (Central Daylight Time),555272.5,A,w,I,w,298,3,308.0,554964.5,8004,WL,B,6.0
5,8.629999876022339,learn,60000.0,Tue Mar 11 2025 16:39:35 GMT-0500 (Central Daylight Time),555488.799999997,A,wi,I,i,206,3,524.2999999970198,554964.5,8004,WL,B,6.0
5,8.879999876022339,learn,60000.0,Tue Mar 11 2025 16:39:35 GMT-0500 (Central Daylight Time),555738.799999997,A,wif,I,f,236,3,774.2999999970198,554964.5,8004,WL,B,6.0
5,10.180000066757202,learn,60000.0,Tue Mar 11 2025 16:39:35 GMT-0500 (Central Daylight Time),557038.5,A,wife,I,e,1291,3,2074.0,554964.5,8004,WL,B,6.0
5,11.546000003814697,learn,60000.0,Tue Mar 11 2025 16:39:35 GMT-0500 (Central Daylight Time),558404.700000003,A,wifeenter,I,enter,1352,3,3440.2000000029802,554964.5,8004,WL,B,6.0
5,13.578999996185303,learn,60000.0,Tue Mar 11 2025 16:39:35 GMT-0500 (Central Daylight Time),560437.6000000015,A,w,I,w,2018,3,2032.5,558405.1000000015,8004,WL,B,7.0
5,13.711999893188477,learn,60000.0,Tue Mar 11 2025 16:39:35 GMT-0500 (Central Daylight Time),560570.6000000015,A,wi,I,i,120,3,2165.5,558405.1000000015,8004,WL,B,7.0
5,13.944999933242798,learn,60000.0,Tue Mar 11 2025 16:39:35 GMT-0500 (Central Daylight Time),560804.200000003,A,win,I,n,219,3,2399.10000000149,558405.1000000015,8004,WL,B,7.0
5,14.194999933242798,learn,60000.0,Tue Mar 11 2025 16:39:35 GMT-0500 (Central Daylight Time),561054.1000000015,A,wind,I,d,234,3,2649.0,558405.1000000015,8004,WL,B,7.0
5,14.378000020980835,learn,60000.0,Tue Mar 11 2025 16:39:35 GMT-0500 (Central Daylight Time),561237.1000000015,A,windo,I,o,175,3,2832.0,558405.1000000015,8004,WL,B,7.0
5,14.527999877929688,learn,60000.0,Tue Mar 11 2025 16:39:35 GMT-0500 (Central Daylight Time),561387.0,A,window,I,w,145,3,2981.89999999851,558405.1000000015,8004,WL,B,7.0
5,14.727999925613403,learn,60000.0,Tue Mar 11 2025 16:39:35 GMT-0500 (Central Daylight Time),561586.8999999985,A,windowenter,I,enter,187,3,3181.7999999970198,558405.1000000015,8004,WL,B,7.0
5,15.027999877929688,learn,60000.0,Tue Mar 11 2025 16:39:35 GMT-0500 (Central Daylight Time),561886.8999999985,A,c,I,c,291,3,299.6000000014901,561587.299999997,8004,WL,B,8.0
5,15.244999885559082,learn,60000.0,Tue Mar 11 2025 16:39:35 GMT-0500 (Central Daylight Time),562103.5,A,ci,I,i,198,3,516.2000000029802,561587.299999997,8004,WL,B,8.0
5,15.444999933242798,learn,60000.0,Tue Mar 11 2025 16:39:35 GMT-0500 (Central Daylight Time),562303.299999997,A,cit,I,t,190,3,716.0,561587.299999997,8004,WL,B,8.0
5,15.644999980926514,learn,60000.0,Tue Mar 11 2025 16:39:35 GMT-0500 (Central Daylight Time),562503.3999999985,A,city,I,y,190,3,916.1000000014901,561587.299999997,8004,WL,B,8.0
5,15.99399995803833,learn,60000.0,Tue Mar 11 2025 16:39:35 GMT-0500 (Central Daylight Time),562853.1000000015,A,cityenter,I,enter,342,3,1265.8000000044703,561587.299999997,8004,WL,B,8.0
5,16.543999910354614,learn,60000.0,Tue Mar 11 2025 16:39:35 GMT-0500 (Central Daylight Time),563402.799999997,A,p,I,p,545,3,549.3999999985099,562853.3999999985,8004,WL,B,9.0
5,16.92799997329712,learn,60000.0,Tue Mar 11 2025 16:39:35 GMT-0500 (Central Daylight Time),563786.299999997,A,pu,I,u,363,3,932.8999999985099,562853.3999999985,8004,WL,B,9.0
5,17.0939998626709,learn,60000.0,Tue Mar 11 2025 16:39:35 GMT-0500 (Central Daylight Time),563953.0,A,pup,I,p,147,3,1099.6000000014901,562853.3999999985,8004,WL,B,9.0
5,17.293999910354614,learn,60000.0,Tue Mar 11 2025 16:39:35 GMT-0500 (Central Daylight Time),564152.799999997,A,pupi,I,i,180,3,1299.3999999985099,562853.3999999985,8004,WL,B,9.0
5,17.5939998626709,learn,60000.0,Tue Mar 11 2025 16:39:35 GMT-0500 (Central Daylight Time),564453.0,A,pupil,I,l,285,3,1599.6000000014901,562853.3999999985,8004,WL,B,9.0
5,18.194000005722046,learn,60000.0,Tue Mar 11 2025 16:39:35 GMT-0500 (Central Daylight Time),565052.700000003,A,pupilenter,I,enter,593,3,2199.3000000044703,562853.3999999985,8004,WL,B,9.0
5,18.57699990272522,learn,60000.0,Tue Mar 11 2025 16:39:35 GMT-0500 (Central Daylight Time),565435.8999999985,A,c,I,c,370,3,382.8999999985099,565053.0,8004,WL,B,10.0
5,18.759999990463257,learn,60000.0,Tue Mar 11 2025 16:39:35 GMT-0500 (Central Daylight Time),565619.1000000015,A,ca,I,a,163,3,566.1000000014901,565053.0,8004,WL,B,10.0
5,19.043999910354614,learn,60000.0,Tue Mar 11 2025 16:39:35 GMT-0500 (Central Daylight Time),565902.5,A,cab,I,b,275,3,849.5,565053.0,8004,WL,B,10.0
5,19.22699999809265,learn,60000.0,Tue Mar 11 2025 16:39:35 GMT-0500 (Central Daylight Time),566085.6000000015,A,cabi,I,i,168,3,1032.6000000014901,565053.0,8004,WL,B,10.0
5,19.64299988746643,learn,60000.0,Tue Mar 11 2025 16:39:35 GMT-0500 (Central Daylight Time),566502.200000003,A,cabin,I,n,408,3,1449.2000000029802,565053.0,8004,WL,B,10.0
5,20.47699999809265,learn,60000.0,Tue Mar 11 2025 16:39:35 GMT-0500 (Central Daylight Time),567335.200000003,A,cabinenter,I,enter,816,3,2282.2000000029802,565053.0,8004,WL,B,10.0
5,20.960000038146973,learn,60000.0,Tue Mar 11 2025 16:39:35 GMT-0500 (Central Daylight Time),567818.3999999985,A,l,I,l,470,3,482.79999999701977,567335.6000000015,8004,WL,B,11.0
5,21.092999935150146,learn,60000.0,Tue Mar 11 2025 16:39:35 GMT-0500 (Central Daylight Time),567951.700000003,A,la,I,a,115,3,616.1000000014901,567335.6000000015,8004,WL,B,11.0
5,21.276000022888184,learn,60000.0,Tue Mar 11 2025 16:39:35 GMT-0500 (Central Daylight Time),568134.8999999985,A,lak,I,k,174,3,799.2999999970198,567335.6000000015,8004,WL,B,11.0
5,21.625999927520752,learn,60000.0,Tue Mar 11 2025 16:39:35 GMT-0500 (Central Daylight Time),568484.799999997,A,lake,I,e,342,3,1149.1999999955297,567335.6000000015,8004,WL,B,11.0
5,21.925999879837036,learn,60000.0,Tue Mar 11 2025 16:39:35 GMT-0500 (Central Daylight Time),568784.700000003,A,lakeenter,I,enter,281,3,1449.1000000014901,567335.6000000015,8004,WL,B,11.0
5,23.092000007629395,learn,60000.0,Tue Mar 11 2025 16:39:35 GMT-0500 (Central Daylight Time),569950.8999999985,A,p,I,p,1157,3,1165.8999999985099,568785.0,8004,WL,B,12.0
5,23.342000007629395,learn,60000.0,Tue Mar 11 2025 16:39:35 GMT-0500 (Central Daylight Time),570201.1000000015,A,pi,I,i,240,3,1416.1000000014901,568785.0,8004,WL,B,12.0
5,23.608999967575073,learn,60000.0,Tue Mar 11 2025 16:39:35 GMT-0500 (Central Daylight Time),570467.3999999985,A,pip,I,p,260,3,1682.3999999985099,568785.0,8004,WL,B,12.0
5,24.592000007629395,learn,60000.0,Tue Mar 11 2025 16:39:35 GMT-0500 (Central Daylight Time),571450.8999999985,A,pipe,I,e,979,3,2665.89999999851,568785.0,8004,WL,B,12.0
5,24.825000047683716,learn,60000.0,Tue Mar 11 2025 16:39:35 GMT-0500 (Central Daylight Time),571683.6000000015,A,pipeenter,I,enter,227,3,2898.60000000149,568785.0,8004,WL,B,12.0
5,25.491999864578247,learn,60000.0,Tue Mar 11 2025 16:39:35 GMT-0500 (Central Daylight Time),572350.299999997,A,s,I,s,659,3,666.5,571683.799999997,8004,WL,B,13.0
5,25.674999952316284,learn,60000.0,Tue Mar 11 2025 16:39:35 GMT-0500 (Central Daylight Time),572533.5,A,sk,I,k,167,3,849.7000000029802,571683.799999997,8004,WL,B,13.0
5,26.007999897003174,learn,60000.0,Tue Mar 11 2025 16:39:35 GMT-0500 (Central Daylight Time),572866.799999997,A,ski,I,i,321,3,1183.0,571683.799999997,8004,WL,B,13.0
5,26.45799994468689,learn,60000.0,Tue Mar 11 2025 16:39:35 GMT-0500 (Central Daylight Time),573316.700000003,A,skin,I,n,443,3,1632.9000000059605,571683.799999997,8004,WL,B,13.0
5,26.95799994468689,learn,60000.0,Tue Mar 11 2025 16:39:35 GMT-0500 (Central Daylight Time),573816.3999999985,A,skinenter,I,enter,482,3,2132.60000000149,571683.799999997,8004,WL,B,13.0
5,28.256999969482422,learn,60000.0,Tue Mar 11 2025 16:39:35 GMT-0500 (Central Daylight Time),575116.200000003,A,f,I,f,1293,3,1299.6000000014901,573816.6000000015,8004,WL,B,14.0
5,28.5239999294281,learn,60000.0,Tue Mar 11 2025 16:39:35 GMT-0500 (Central Daylight Time),575382.700000003,A,fi,I,i,258,3,1566.1000000014901,573816.6000000015,8004,WL,B,14.0
5,28.707000017166138,learn,60000.0,Tue Mar 11 2025 16:39:35 GMT-0500 (Central Daylight Time),575566.0,A,fir,I,r,175,3,1749.3999999985099,573816.6000000015,8004,WL,B,14.0
5,29.006999969482422,learn,60000.0,Tue Mar 11 2025 16:39:35 GMT-0500 (Central Daylight Time),575865.799999997,A,fire,I,e,279,3,2049.1999999955297,573816.6000000015,8004,WL,B,14.0
5,29.29099988937378,learn,60000.0,Tue Mar 11 2025 16:39:35 GMT-0500 (Central Daylight Time),576149.200000003,A,firec,I,c,275,3,2332.60000000149,573816.6000000015,8004,WL,B,14.0
5,29.424000024795532,learn,60000.0,Tue Mar 11 2025 16:39:35 GMT-0500 (Central Daylight Time),576282.5,A,firecl,I,l,120,3,2465.89999999851,573816.6000000015,8004,WL,B,14.0
5,29.674000024795532,learn,60000.0,Tue Mar 11 2025 16:39:35 GMT-0500 (Central Daylight Time),576532.3999999985,A,fireclo,I,o,243,3,2715.7999999970198,573816.6000000015,8004,WL,B,14.0
5,30.2739999294281,learn,60000.0,Tue Mar 11 2025 16:39:35 GMT-0500 (Central Daylight Time),577132.200000003,A,firecl,I,backspace,593,3,3315.60000000149,573816.6000000015,8004,WL,B,14.0
5,30.707000017166138,learn,60000.0,Tue Mar 11 2025 16:39:35 GMT-0500 (Central Daylight Time),577565.3999999985,A,firec,I,backspace,417,3,3748.7999999970198,573816.6000000015,8004,WL,B,14.0
5,30.973000049591064,learn,60000.0,Tue Mar 11 2025 16:39:35 GMT-0500 (Central Daylight Time),577831.700000003,A,fire,I,backspace,257,3,4015.10000000149,573816.6000000015,8004,WL,B,14.0
5,31.486000061035156,learn,60000.0,Tue Mar 11 2025 16:39:35 GMT-0500 (Central Daylight Time),578344.299999997,A,fireenter,I,enter,508,3,4527.69999999553,573816.6000000015,8004,WL,B,14.0
5,31.889999866485596,learn,60000.0,Tue Mar 11 2025 16:39:35 GMT-0500 (Central Daylight Time),578748.299999997,A,c,I,c,389,3,403.69999999552965,578344.6000000015,8004,WL,B,15.0
5,32.02300000190735,learn,60000.0,Tue Mar 11 2025 16:39:35 GMT-0500 (Central Daylight Time),578881.799999997,A,cl,I,l,122,3,537.1999999955297,578344.6000000015,8004,WL,B,15.0
5,32.24000000953674,learn,60000.0,Tue Mar 11 2025 16:39:35 GMT-0500 (Central Daylight Time),579098.299999997,A,clo,I,o,196,3,753.6999999955297,578344.6000000015,8004,WL,B,15.0
5,32.35599994659424,learn,60000.0,Tue Mar 11 2025 16:39:35 GMT-0500 (Central Daylight Time),579214.799999997,A,cloc,I,c,107,3,870.1999999955297,578344.6000000015,8004,WL,B,15.0
5,32.57299995422363,learn,60000.0,Tue Mar 11 2025 16:39:35 GMT-0500 (Central Daylight Time),579431.5,A,clock,I,k,207,3,1086.8999999985099,578344.6000000015,8004,WL,B,15.0
5,32.85599994659424,learn,60000.0,Tue Mar 11 2025 16:39:35 GMT-0500 (Central Daylight Time),579715.1000000015,A,clockenter,I,enter,262,3,1370.5,578344.6000000015,8004,WL,B,15.0
6,0.4830000400543213,distr,59516.99995994568,Tue Mar 11 2025 16:39:35 GMT-0500 (Central Daylight Time),652891.5,B,b,I,b,477,3,482.79999999701977,652408.700000003,8004,WL,B,1.0
6,0.75,distr,59250.0,Tue Mar 11 2025 16:39:35 GMT-0500 (Central Daylight Time),653158.5,B,ba,I,a,257,3,749.7999999970198,652408.700000003,8004,WL,B,1.0
6,0.9830000400543213,distr,59016.99995994568,Tue Mar 11 2025 16:39:35 GMT-0500 (Central Daylight Time),653391.6000000015,B,bab,I,b,223,3,982.8999999985099,652408.700000003,8004,WL,B,1.0
6,1.2160000801086426,distr,58783.99991989136,Tue Mar 11 2025 16:39:35 GMT-0500 (Central Daylight Time),653624.799999997,B,baby,I,y,222,3,1216.0999999940395,652408.700000003,8004,WL,B,1.0
6,1.815999984741211,distr,58184.00001525879,Tue Mar 11 2025 16:39:35 GMT-0500 (Central Daylight Time),654224.6000000015,B,babyenter,I,enter,582,3,1815.8999999985099,652408.700000003,8004,WL,B,1.0
6,2.4660000801086426,distr,57533.99991989136,Tue Mar 11 2025 16:39:35 GMT-0500 (Central Daylight Time),654874.3999999985,B,o,I,o,637,3,649.3999999985099,654225.0,8004,WL,B,2.0
6,2.6489999294281006,distr,57351.0000705719,Tue Mar 11 2025 16:39:35 GMT-0500 (Central Daylight Time),655057.700000003,B,oc,I,c,163,3,832.7000000029802,654225.0,8004,WL,B,2.0
6,3.0820000171661377,distr,56917.99998283386,Tue Mar 11 2025 16:39:35 GMT-0500 (Central Daylight Time),655490.8999999985,B,oce,I,e,421,3,1265.8999999985099,654225.0,8004,WL,B,2.0
6,3.2820000648498535,distr,56717.99993515015,Tue Mar 11 2025 16:39:35 GMT-0500 (Central Daylight Time),655691.0,B,ocea,I,a,186,3,1466.0,654225.0,8004,WL,B,2.0
6,3.681999921798706,distr,56318.000078201294,Tue Mar 11 2025 16:39:35 GMT-0500 (Central Daylight Time),656090.700000003,B,ocean,I,n,394,3,1865.7000000029802,654225.0,8004,WL,B,2.0
6,5.447999954223633,distr,54552.00004577637,Tue Mar 11 2025 16:39:35 GMT-0500 (Central Daylight Time),657856.700000003,B,oceanenter,I,enter,1755,3,3631.7000000029802,654225.0,8004,WL,B,2.0
6,6.0970001220703125,distr,53902.99987792969,Tue Mar 11 2025 16:39:35 GMT-0500 (Central Daylight Time),658506.3999999985,B,p,I,p,637,3,649.2999999970198,657857.1000000015,8004,WL,B,3.0
6,6.29800009727478,distr,53701.99990272522,Tue Mar 11 2025 16:39:35 GMT-0500 (Central Daylight Time),658706.6000000015,B,pa,I,a,188,3,849.5,657857.1000000015,8004,WL,B,3.0
6,6.480999946594238,distr,53519.00005340576,Tue Mar 11 2025 16:39:35 GMT-0500 (Central Daylight Time),658889.8999999985,B,pal,I,l,171,3,1032.7999999970198,657857.1000000015,8004,WL,B,3.0
6,6.614000082015991,distr,53385.99991798401,Tue Mar 11 2025 16:39:35 GMT-0500 (Central Daylight Time),659023.1000000015,B,pala,I,a,125,3,1166.0,657857.1000000015,8004,WL,B,3.0
6,7.013999938964844,distr,52986.000061035156,Tue Mar 11 2025 16:39:35 GMT-0500 (Central Daylight Time),659423.1000000015,B,palac,I,c,390,3,1566.0,657857.1000000015,8004,WL,B,3.0
6,7.3470001220703125,distr,52652.99987792969,Tue Mar 11 2025 16:39:35 GMT-0500 (Central Daylight Time),659756.3999999985,B,palace,I,e,318,3,1899.2999999970198,657857.1000000015,8004,WL,B,3.0
6,8.180000066757202,distr,51819.9999332428,Tue Mar 11 2025 16:39:35 GMT-0500 (Central Daylight Time),660589.299999997,B,palaceenter,I,enter,818,3,2732.1999999955297,657857.1000000015,8004,WL,B,3.0
6,8.980000019073486,distr,51019.999980926514,Tue Mar 11 2025 16:39:35 GMT-0500 (Central Daylight Time),661389.299999997,B,d,I,d,784,3,799.6999999955297,660589.6000000015,8004,WL,B,4.0
6,9.246999979019165,distr,50753.000020980835,Tue Mar 11 2025 16:39:35 GMT-0500 (Central Daylight Time),661655.700000003,B,dr,I,r,257,3,1066.1000000014901,660589.6000000015,8004,WL,B,4.0
6,9.413000106811523,distr,50586.99989318848,Tue Mar 11 2025 16:39:35 GMT-0500 (Central Daylight Time),661822.3999999985,B,dre,I,e,159,3,1232.7999999970198,660589.6000000015,8004,WL,B,4.0
6,9.847000122070312,distr,50152.99987792969,Tue Mar 11 2025 16:39:35 GMT-0500 (Central Daylight Time),662255.700000003,B,dres,I,s,415,3,1666.1000000014901,660589.6000000015,8004,WL,B,4.0
6,10.097000122070312,distr,49902.99987792969,Tue Mar 11 2025 16:39:35 GMT-0500 (Central Daylight Time),662505.700000003,B,dress,I,s,230,3,1916.1000000014901,660589.6000000015,8004,WL,B,4.0
6,10.430000066757202,distr,49569.9999332428,Tue Mar 11 2025 16:39:35 GMT-0500 (Central Daylight Time),662838.6000000015,B,dressenter,I,enter,324,3,2249.0,660589.6000000015,8004,WL,B,4.0
6,11.896000146865845,distr,48103.999853134155,Tue Mar 11 2025 16:39:35 GMT-0500 (Central Daylight Time),664304.700000003,B,l,I,l,1447,3,1465.8000000044703,662838.8999999985,8004,WL,B,5.0
6,12.230000019073486,distr,47769.999980926514,Tue Mar 11 2025 16:39:35 GMT-0500 (Central Daylight Time),664639.200000003,B,li,I,i,317,3,1800.3000000044703,662838.8999999985,8004,WL,B,5.0
6,12.345999956130981,distr,47654.00004386902,Tue Mar 11 2025 16:39:35 GMT-0500 (Central Daylight Time),664754.8999999985,B,lip,I,p,111,3,1916.0,662838.8999999985,8004,WL,B,5.0
6,13.161999940872192,distr,46838.00005912781,Tue Mar 11 2025 16:39:35 GMT-0500 (Central Daylight Time),665571.200000003,B,lipenter,I,enter,804,3,2732.3000000044703,662838.8999999985,8004,WL,B,5.0
6,13.59500002861023,distr,46404.99997138977,Tue Mar 11 2025 16:39:35 GMT-0500 (Central Daylight Time),666004.3999999985,B,b,I,b,419,3,432.79999999701977,665571.6000000015,8004,WL,B,6.0
6,13.911999940872192,distr,46088.00005912781,Tue Mar 11 2025 16:39:35 GMT-0500 (Central Daylight Time),666320.8999999985,B,ba,I,a,306,3,749.2999999970198,665571.6000000015,8004,WL,B,6.0
6,14.444999933242798,distr,45555.0000667572,Tue Mar 11 2025 16:39:35 GMT-0500 (Central Daylight Time),666854.0,B,bar,I,r,525,3,1282.3999999985099,665571.6000000015,8004,WL,B,6.0
6,15.045000076293945,distr,44954.999923706055,Tue Mar 11 2025 16:39:35 GMT-0500 (Central Daylight Time),667453.799999997,B,barenter,I,enter,583,3,1882.1999999955297,665571.6000000015,8004,WL,B,6.0
6,16.194000005722046,distr,43805.999994277954,Tue Mar 11 2025 16:39:35 GMT-0500 (Central Daylight Time),668603.299999997,B,c,I,c,1144,3,1149.2999999970198,667454.0,8004,WL,B,7.0
6,16.39400005340576,distr,43605.99994659424,Tue Mar 11 2025 16:39:35 GMT-0500 (Central Daylight Time),668803.1000000015,B,ce,I,e,187,3,1349.1000000014901,667454.0,8004,WL,B,7.0
6,16.543999910354614,distr,43456.000089645386,Tue Mar 11 2025 16:39:35 GMT-0500 (Central Daylight Time),668953.3999999985,B,cel,I,l,130,3,1499.3999999985099,667454.0,8004,WL,B,7.0
6,16.76099991798401,distr,43239.00008201599,Tue Mar 11 2025 16:39:35 GMT-0500 (Central Daylight Time),669170.1000000015,B,cell,I,l,196,3,1716.1000000014901,667454.0,8004,WL,B,7.0
6,17.111999988555908,distr,42888.00001144409,Tue Mar 11 2025 16:39:35 GMT-0500 (Central Daylight Time),669521.0,B,cellenter,I,enter,339,3,2067.0,667454.0,8004,WL,B,7.0
6,17.427000045776367,distr,42572.99995422363,Tue Mar 11 2025 16:39:35 GMT-0500 (Central Daylight Time),669836.6000000015,B,c,I,c,300,3,315.30000000447035,669521.299999997,8004,WL,B,8.0
6,17.543999910354614,distr,42456.000089645386,Tue Mar 11 2025 16:39:35 GMT-0500 (Central Daylight Time),669952.8999999985,B,co,I,o,105,3,431.6000000014901,669521.299999997,8004,WL,B,8.0
6,17.677000045776367,distr,42322.99995422363,Tue Mar 11 2025 16:39:35 GMT-0500 (Central Daylight Time),670086.5,B,coi,I,i,118,3,565.2000000029802,669521.299999997,8004,WL,B,8.0
6,17.944000005722046,distr,42055.999994277954,Tue Mar 11 2025 16:39:35 GMT-0500 (Central Daylight Time),670353.0,B,coin,I,n,247,3,831.7000000029802,669521.299999997,8004,WL,B,8.0
6,18.360000133514404,distr,41639.999866485596,Tue Mar 11 2025 16:39:35 GMT-0500 (Central Daylight Time),670769.6000000015,B,coinenter,I,enter,396,3,1248.3000000044703,669521.299999997,8004,WL,B,8.0
6,18.759999990463257,distr,41240.00000953674,Tue Mar 11 2025 16:39:35 GMT-0500 (Central Daylight Time),671169.5,B,s,I,s,381,3,399.6000000014901,670769.8999999985,8004,WL,B,9.0
6,18.927000045776367,distr,41072.99995422363,Tue Mar 11 2025 16:39:35 GMT-0500 (Central Daylight Time),671336.1000000015,B,st,I,t,156,3,566.2000000029802,670769.8999999985,8004,WL,B,9.0
6,19.110000133514404,distr,40889.999866485596,Tue Mar 11 2025 16:39:35 GMT-0500 (Central Daylight Time),671519.299999997,B,ste,I,e,166,3,749.3999999985099,670769.8999999985,8004,WL,B,9.0
6,19.41000008583069,distr,40589.99991416931,Tue Mar 11 2025 16:39:35 GMT-0500 (Central Daylight Time),671819.200000003,B,stea,I,a,279,3,1049.3000000044703,670769.8999999985,8004,WL,B,9.0
6,19.792999982833862,distr,40207.00001716614,Tue Mar 11 2025 16:39:35 GMT-0500 (Central Daylight Time),672202.5,B,steam,I,m,370,3,1432.6000000014901,670769.8999999985,8004,WL,B,9.0
6,20.693000078201294,distr,39306.999921798706,Tue Mar 11 2025 16:39:35 GMT-0500 (Central Daylight Time),673102.1000000015,B,steamenter,I,enter,884,3,2332.2000000029802,670769.8999999985,8004,WL,B,9.0
6,20.960000038146973,distr,39039.99996185303,Tue Mar 11 2025 16:39:35 GMT-0500 (Central Daylight Time),673368.700000003,B,v,I,v,248,3,266.40000000596046,673102.299999997,8004,WL,B,10.0
6,21.14300012588501,distr,38856.99987411499,Tue Mar 11 2025 16:39:35 GMT-0500 (Central Daylight Time),673551.799999997,B,vl,I,l,173,3,449.5,673102.299999997,8004,WL,B,10.0
6,21.360000133514404,distr,38639.999866485596,Tue Mar 11 2025 16:39:35 GMT-0500 (Central Daylight Time),673768.6000000015,B,vll,I,l,197,3,666.3000000044703,673102.299999997,8004,WL,B,10.0
6,21.460000038146973,distr,38539.99996185303,Tue Mar 11 2025 16:39:35 GMT-0500 (Central Daylight Time),673868.6000000015,B,vlla,I,a,85,3,766.3000000044703,673102.299999997,8004,WL,B,10.0
6,21.55999994277954,distr,38440.00005722046,Tue Mar 11 2025 16:39:35 GMT-0500 (Central Daylight Time),673968.6000000015,B,vllag,I,g,90,3,866.3000000044703,673102.299999997,8004,WL,B,10.0
6,21.9760000705719,distr,38023.9999294281,Tue Mar 11 2025 16:39:35 GMT-0500 (Central Daylight Time),674385.1000000015,B,vlla,I,backspace,397,3,1282.8000000044703,673102.299999997,8004,WL,B,10.0
6,22.176000118255615,distr,37823.999881744385,Tue Mar 11 2025 16:39:35 GMT-0500 (Central Daylight Time),674584.8999999985,B,vll,I,backspace,188,3,1482.6000000014901,673102.299999997,8004,WL,B,10.0
6,22.342000007629395,distr,37657.999992370605,Tue Mar 11 2025 16:39:35 GMT-0500 (Central Daylight Time),674751.5,B,vl,I,backspace,157,3,1649.2000000029802,673102.299999997,8004,WL,B,10.0
6,22.542999982833862,distr,37457.00001716614,Tue Mar 11 2025 16:39:35 GMT-0500 (Central Daylight Time),674951.700000003,B,v,I,backspace,191,3,1849.4000000059605,673102.299999997,8004,WL,B,10.0
6,23.276000022888184,distr,36723.99997711182,Tue Mar 11 2025 16:39:35 GMT-0500 (Central Daylight Time),675684.6000000015,B,vi,I,i,726,3,2582.3000000044703,673102.299999997,8004,WL,B,10.0
6,23.575000047683716,distr,36424.999952316284,Tue Mar 11 2025 16:39:35 GMT-0500 (Central Daylight Time),675984.3999999985,B,vil,I,l,281,3,2882.10000000149,673102.299999997,8004,WL,B,10.0
6,23.742000102996826,distr,36257.999897003174,Tue Mar 11 2025 16:39:35 GMT-0500 (Central Daylight Time),676151.200000003,B,vill,I,l,150,3,3048.9000000059605,673102.299999997,8004,WL,B,10.0
6,23.941999912261963,distr,36058.00008773804,Tue Mar 11 2025 16:39:35 GMT-0500 (Central Daylight Time),676351.1000000015,B,villa,I,a,191,3,3248.8000000044703,673102.299999997,8004,WL,B,10.0
6,24.174999952316284,distr,35825.000047683716,Tue Mar 11 2025 16:39:35 GMT-0500 (Central Daylight Time),676584.5,B,villag,I,g,215,3,3482.2000000029802,673102.299999997,8004,WL,B,10.0
6,24.625,distr,35375.0,Tue Mar 11 2025 16:39:35 GMT-0500 (Central Daylight Time),677034.1000000015,B,village,I,e,429,3,3931.8000000044703,673102.299999997,8004,WL,B,10.0
6,27.973999977111816,distr,32026.000022888184,Tue Mar 11 2025 16:39:35 GMT-0500 (Central Daylight Time),680383.3999999985,B,villageenter,I,enter,3332,3,7281.10000000149,673102.299999997,8004,WL,B,10.0
6,29.824000120162964,distr,30175.999879837036,Tue Mar 11 2025 16:39:35 GMT-0500 (Central Daylight Time),682232.700000003,B,enter,I,enter,1839,3,1849.1000000014901,680383.6000000015,8004,WL,B,11.0
6,30.240000009536743,distr,29759.999990463257,Tue Mar 11 2025 16:39:35 GMT-0500 (Central Daylight Time),682649.1000000015,B,enter,I,enter,397,3,416.1000000014901,682233.0,8004,WL,B,12.0
6,30.60700011253357,distr,29392.99988746643,Tue Mar 11 2025 16:39:35 GMT-0500 (Central Daylight Time),683015.6000000015,B,enter,I,enter,355,3,366.20000000298023,682649.3999999985,8004,WL,B,13.0
6,31.00600004196167,distr,28993.99995803833,Tue Mar 11 2025 16:39:35 GMT-0500 (Central Daylight Time),683415.3999999985,B,enter,I,enter,390,3,399.3999999985099,683016.0,8004,WL,B,14.0
6,31.58999991416931,distr,28410.00008583069,Tue Mar 11 2025 16:39:35 GMT-0500 (Central Daylight Time),683998.700000003,B,enter,I,enter,567,3,583.0,683415.700000003,8004,WL,B,15.0
7,7.531000137329102,immed,52468.9998626709,Tue Mar 11 2025 16:39:35 GMT-0500 (Central Daylight Time),692279.5,A,b,I,b,7514,3,7530.89999999851,684748.6000000015,8004,WL,B,1.0
7,7.815000057220459,immed,52184.99994277954,Tue Mar 11 2025 16:39:35 GMT-0500 (Central Daylight Time),692562.700000003,A,ba,I,a,261,3,7814.10000000149,684748.6000000015,8004,WL,B,1.0
7,7.947999954223633,immed,52052.00004577637,Tue Mar 11 2025 16:39:35 GMT-0500 (Central Daylight Time),692696.0,A,bab,I,b,123,3,7947.39999999851,684748.6000000015,8004,WL,B,1.0
7,8.29800009727478,immed,51701.99990272522,Tue Mar 11 2025 16:39:35 GMT-0500 (Central Daylight Time),693045.799999997,A,baby,I,y,341,3,8297.19999999553,684748.6000000015,8004,WL,B,1.0
7,8.730999946594238,immed,51269.00005340576,Tue Mar 11 2025 16:39:35 GMT-0500 (Central Daylight Time),693479.0,A,babyenter,I,enter,424,3,8730.39999999851,684748.6000000015,8004,WL,B,1.0
7,9.197999954223633,immed,50802.00004577637,Tue Mar 11 2025 16:39:35 GMT-0500 (Central Daylight Time),693945.6000000015,A,o,I,o,448,3,466.5,693479.1000000015,8004,WL,B,2.0
7,9.348000049591064,immed,50651.999950408936,Tue Mar 11 2025 16:39:35 GMT-0500 (Central Daylight Time),694095.6000000015,A,oc,I,c,133,3,616.5,693479.1000000015,8004,WL,B,2.0
7,9.564000129699707,immed,50435.99987030029,Tue Mar 11 2025 16:39:35 GMT-0500 (Central Daylight Time),694312.200000003,A,oce,I,e,199,3,833.1000000014901,693479.1000000015,8004,WL,B,2.0
7,9.781000137329102,immed,50218.9998626709,Tue Mar 11 2025 16:39:35 GMT-0500 (Central Daylight Time),694528.700000003,A,ocea,I,a,197,3,1049.6000000014901,693479.1000000015,8004,WL,B,2.0
7,10.013999938964844,immed,49986.000061035156,Tue Mar 11 2025 16:39:35 GMT-0500 (Central Daylight Time),694761.799999997,A,ocean,I,n,220,3,1282.6999999955297,693479.1000000015,8004,WL,B,2.0
7,10.52999997138977,immed,49470.00002861023,Tue Mar 11 2025 16:39:35 GMT-0500 (Central Daylight Time),695278.3999999985,A,oceanenter,I,enter,508,3,1799.2999999970198,693479.1000000015,8004,WL,B,2.0
7,10.86300015449524,immed,49136.99984550476,Tue Mar 11 2025 16:39:35 GMT-0500 (Central Daylight Time),695611.5,A,d,I,d,327,3,332.79999999701977,695278.700000003,8004,WL,B,3.0
7,11.097000122070312,immed,48902.99987792969,Tue Mar 11 2025 16:39:35 GMT-0500 (Central Daylight Time),695845.0,A,dr,I,r,218,3,566.2999999970198,695278.700000003,8004,WL,B,3.0
7,11.27999997138977,immed,48720.00002861023,Tue Mar 11 2025 16:39:35 GMT-0500 (Central Daylight Time),696028.5,A,dre,I,e,178,3,749.7999999970198,695278.700000003,8004,WL,B,3.0
7,11.42799997329712,immed,48572.00002670288,Tue Mar 11 2025 16:39:35 GMT-0500 (Central Daylight Time),696175.799999997,A,dres,I,s,143,3,897.0999999940395,695278.700000003,8004,WL,B,3.0
7,11.61300015449524,immed,48386.99984550476,Tue Mar 11 2025 16:39:35 GMT-0500 (Central Daylight Time),696361.3999999985,A,dress,I,s,166,3,1082.6999999955297,695278.700000003,8004,WL,B,3.0
7,11.812999963760376,immed,48187.000036239624,Tue Mar 11 2025 16:39:35 GMT-0500 (Central Daylight Time),696561.3999999985,A,dressenter,I,enter,180,3,1282.6999999955297,695278.700000003,8004,WL,B,3.0
7,12.27999997138977,immed,47720.00002861023,Tue Mar 11 2025 16:39:35 GMT-0500 (Central Daylight Time),697028.0,A,l,I,l,460,3,466.29999999701977,696561.700000003,8004,WL,B,4.0
7,12.463000059127808,immed,47536.99994087219,Tue Mar 11 2025 16:39:35 GMT-0500 (Central Daylight Time),697211.200000003,A,li,I,i,170,3,649.5,696561.700000003,8004,WL,B,4.0
7,12.69700002670288,immed,47302.99997329712,Tue Mar 11 2025 16:39:35 GMT-0500 (Central Daylight Time),697444.6000000015,A,lip,I,p,226,3,882.8999999985099,696561.700000003,8004,WL,B,4.0
7,15.411999940872192,immed,44588.00005912781,Tue Mar 11 2025 16:39:35 GMT-0500 (Central Daylight Time),700160.3999999985,A,lipenter,I,enter,2705,3,3598.6999999955297,696561.700000003,8004,WL,B,4.0
7,16.545000076293945,immed,43454.999923706055,Tue Mar 11 2025 16:39:35 GMT-0500 (Central Daylight Time),701293.3999999985,A,b,I,b,1125,3,1132.6999999955297,700160.700000003,8004,WL,B,5.0
7,16.778000116348267,immed,43221.99988365173,Tue Mar 11 2025 16:39:35 GMT-0500 (Central Daylight Time),701526.5,A,ba,I,a,217,3,1365.7999999970198,700160.700000003,8004,WL,B,5.0
7,17.062000036239624,immed,42937.999963760376,Tue Mar 11 2025 16:39:35 GMT-0500 (Central Daylight Time),701809.799999997,A,bar,I,r,263,3,1649.0999999940395,700160.700000003,8004,WL,B,5.0
7,17.66100001335144,immed,42338.99998664856,Tue Mar 11 2025 16:39:35 GMT-0500 (Central Daylight Time),702409.5,A,barenter,I,enter,580,3,2248.7999999970198,700160.700000003,8004,WL,B,5.0
7,18.644999980926514,immed,41355.000019073486,Tue Mar 11 2025 16:39:35 GMT-0500 (Central Daylight Time),703392.799999997,A,p,I,p,972,3,983.0,702409.799999997,8004,WL,B,6.0
7,18.761000156402588,immed,41238.99984359741,Tue Mar 11 2025 16:39:35 GMT-0500 (Central Daylight Time),703509.299999997,A,pa,I,a,110,3,1099.5,702409.799999997,8004,WL,B,6.0
7,18.91100001335144,immed,41088.99998664856,Tue Mar 11 2025 16:39:35 GMT-0500 (Central Daylight Time),703659.299999997,A,pal,I,l,137,3,1249.5,702409.799999997,8004,WL,B,6.0
7,18.99399995803833,immed,41006.00004196167,Tue Mar 11 2025 16:39:35 GMT-0500 (Central Daylight Time),703742.6000000015,A,pala,I,a,74,3,1332.8000000044703,702409.799999997,8004,WL,B,6.0
7,19.194000005722046,immed,40805.999994277954,Tue Mar 11 2025 16:39:35 GMT-0500 (Central Daylight Time),703942.5,A,palac,I,c,183,3,1532.7000000029802,702409.799999997,8004,WL,B,6.0
7,19.394999980926514,immed,40605.000019073486,Tue Mar 11 2025 16:39:35 GMT-0500 (Central Daylight Time),704142.6000000015,A,palace,I,e,192,3,1732.8000000044703,702409.799999997,8004,WL,B,6.0
7,19.761000156402588,immed,40238.99984359741,Tue Mar 11 2025 16:39:35 GMT-0500 (Central Daylight Time),704508.700000003,A,palaceenter,I,enter,359,3,2098.9000000059605,702409.799999997,8004,WL,B,6.0
7,21.259999990463257,immed,38740.00000953674,Tue Mar 11 2025 16:39:35 GMT-0500 (Central Daylight Time),706008.3999999985,A,s,I,s,1482,3,1499.3999999985099,704509.0,8004,WL,B,7.0
7,21.444000005722046,immed,38555.999994277954,Tue Mar 11 2025 16:39:35 GMT-0500 (Central Daylight Time),706191.6000000015,A,st,I,t,165,3,1682.6000000014901,704509.0,8004,WL,B,7.0
7,21.66000008583069,immed,38339.99991416931,Tue Mar 11 2025 16:39:35 GMT-0500 (Central Daylight Time),706408.3999999985,A,sto,I,o,197,3,1899.3999999985099,704509.0,8004,WL,B,7.0
7,21.759999990463257,immed,38240.00000953674,Tue Mar 11 2025 16:39:35 GMT-0500 (Central Daylight Time),706508.299999997,A,stor,I,r,85,3,1999.2999999970198,704509.0,8004,WL,B,7.0
7,21.99399995803833,immed,38006.00004196167,Tue Mar 11 2025 16:39:35 GMT-0500 (Central Daylight Time),706741.6000000015,A,storm,I,m,218,3,2232.60000000149,704509.0,8004,WL,B,7.0
7,22.360000133514404,immed,37639.999866485596,Tue Mar 11 2025 16:39:35 GMT-0500 (Central Daylight Time),707108.1000000015,A,stormenter,I,enter,360,3,2599.10000000149,704509.0,8004,WL,B,7.0
7,26.04200005531311,immed,33957.99994468689,Tue Mar 11 2025 16:39:35 GMT-0500 (Central Daylight Time),710790.299999997,A,c,I,c,3675,3,3681.89999999851,707108.3999999985,8004,WL,B,8.0
7,26.159000158309937,immed,33840.99984169006,Tue Mar 11 2025 16:39:35 GMT-0500 (Central Daylight Time),710907.0,A,co,I,o,104,3,3798.60000000149,707108.3999999985,8004,WL,B,8.0
7,26.259000062942505,immed,33740.999937057495,Tue Mar 11 2025 16:39:35 GMT-0500 (Central Daylight Time),711006.8999999985,A,coi,I,i,89,3,3898.5,707108.3999999985,8004,WL,B,8.0
7,26.45900011062622,immed,33540.99988937378,Tue Mar 11 2025 16:39:35 GMT-0500 (Central Daylight Time),711206.8999999985,A,coin,I,n,184,3,4098.5,707108.3999999985,8004,WL,B,8.0
7,26.70900011062622,immed,33290.99988937378,Tue Mar 11 2025 16:39:35 GMT-0500 (Central Daylight Time),711456.8999999985,A,coinenter,I,enter,231,3,4348.5,707108.3999999985,8004,WL,B,8.0
7,26.858999967575073,immed,33141.00003242493,Tue Mar 11 2025 16:39:35 GMT-0500 (Central Daylight Time),711606.799999997,A,s,I,s,141,3,149.59999999403954,711457.200000003,8004,WL,B,9.0
7,27.009000062942505,immed,32990.999937057495,Tue Mar 11 2025 16:39:35 GMT-0500 (Central Daylight Time),711756.799999997,A,st,I,t,143,3,299.59999999403954,711457.200000003,8004,WL,B,9.0
7,27.20900011062622,immed,32790.99988937378,Tue Mar 11 2025 16:39:35 GMT-0500 (Central Daylight Time),711956.700000003,A,ste,I,e,193,3,499.5,711457.200000003,8004,WL,B,9.0
7,27.409000158309937,immed,32590.999841690063,Tue Mar 11 2025 16:39:35 GMT-0500 (Central Daylight Time),712156.6000000015,A,stea,I,a,185,3,699.3999999985099,711457.200000003,8004,WL,B,9.0
7,27.64199995994568,immed,32358.00004005432,Tue Mar 11 2025 16:39:35 GMT-0500 (Central Daylight Time),712389.700000003,A,steam,I,m,225,3,932.5,711457.200000003,8004,WL,B,9.0
7,27.907999992370605,immed,32092.000007629395,Tue Mar 11 2025 16:39:35 GMT-0500 (Central Daylight Time),712656.5,A,steamenter,I,enter,247,3,1199.2999999970198,711457.200000003,8004,WL,B,9.0
7,28.04200005531311,immed,31957.99994468689,Tue Mar 11 2025 16:39:35 GMT-0500 (Central Daylight Time),712789.799999997,A,c,I,c,126,3,133.0,712656.799999997,8004,WL,B,10.0
7,28.20799994468689,immed,31792.00005531311,Tue Mar 11 2025 16:39:35 GMT-0500 (Central Daylight Time),712956.299999997,A,ce,I,e,160,3,299.5,712656.799999997,8004,WL,B,10.0
7,28.375,immed,31625.0,Tue Mar 11 2025 16:39:35 GMT-0500 (Central Daylight Time),713122.799999997,A,cel,I,l,161,3,466.0,712656.799999997,8004,WL,B,10.0
7,28.575000047683716,immed,31424.999952316284,Tue Mar 11 2025 16:39:35 GMT-0500 (Central Daylight Time),713322.8999999985,A,cell,I,l,195,3,666.1000000014901,712656.799999997,8004,WL,B,10.0
7,28.95799994468689,immed,31042.00005531311,Tue Mar 11 2025 16:39:35 GMT-0500 (Central Daylight Time),713706.1000000015,A,cellenter,I,enter,362,3,1049.3000000044703,712656.799999997,8004,WL,B,10.0
7,35.35599994659424,immed,24644.00005340576,Tue Mar 11 2025 16:39:35 GMT-0500 (Central Daylight Time),720104.0,A,enter,I,enter,6381,3,6397.60000000149,713706.3999999985,8004,WL,B,11.0
7,36.6560001373291,immed,23343.9998626709,Tue Mar 11 2025 16:39:35 GMT-0500 (Central Daylight Time),721403.799999997,A,enter,I,enter,1286,3,1299.2999999970198,720104.5,8004,WL,B,12.0
7,37.08899998664856,immed,22911.00001335144,Tue Mar 11 2025 16:39:35 GMT-0500 (Central Daylight Time),721837.200000003,A,enter,I,enter,419,3,433.1000000014901,721404.1000000015,8004,WL,B,13.0
7,38.03800010681152,immed,21961.999893188477,Tue Mar 11 2025 16:39:35 GMT-0500 (Central Daylight Time),722786.5,A,enter,I,enter,937,3,949.0,721837.5,8004,WL,B,14.0
7,39.1710000038147,immed,20828.999996185303,Tue Mar 11 2025 16:39:35 GMT-0500 (Central Daylight Time),723919.5,A,enter,I,enter,1116,3,1132.6000000014901,722786.8999999985,8004,WL,B,15.0
