Q,Q1,Q2,Q3,Q4,acc_sum,block,block_c,correct,correct_response,datetime,endtime,project,response,response_time,row_sel,session_number,squiggle1,squiggle1x,squiggle1y,squiggle2,squiggle2x,squiggle2y,squiggle3,squiggle3x,squiggle3y,squiggle4,squiggle4x,squiggle4y,start_end,starttime,subject_id,target_congruent,task,task_vers,testsquiggle,testsquigglex,testsquiggley,time_practice_delay,time_practice_fixation,time_practice_stimuli,time_practice_study,time_test_delay,time_test_fixation,time_test_stimuli,time_test_study,trial
1,1,0,0,0,0,prac,1,0,z,Mon Feb 17 2025 18:10:31 GMT-0600 (Central Standard Time),163118.7000000002,O,None,2012,1,1,116.bmp,-120,-120,117.bmp,120,-120,118.bmp,-120,120,119.bmp,120,120,10810.700000000186,152308.0,7049,yes,SM,A,116.bmp,-120,-120,154101,148072,156117,150086,,,,,1
3,0,0,1,0,0,prac,1,0,m,Mon Feb 17 2025 18:10:31 GMT-0600 (Central Standard Time),173182.10000000056,O,z,1236,2,1,120.bmp,-120,-120,121.bmp,120,-120,122.bmp,-120,120,123.bmp,120,120,10059.5,163122.60000000056,7049,no,SM,A,123.bmp,-120,120,164914,158887,166930,160899,,,,,2
4,0,0,0,1,1,prac,1,1,m,Mon Feb 17 2025 18:10:31 GMT-0600 (Central Standard Time),183428.90000000037,O,m,1420,3,1,124.bmp,-120,-120,125.bmp,120,-120,126.bmp,-120,120,127.bmp,120,120,10243.299999999814,173185.60000000056,7049,no,SM,A,124.bmp,120,120,174978,168950,176994,170963,,,,,3
2,0,1,0,0,2,prac,1,1,z,Mon Feb 17 2025 18:10:31 GMT-0600 (Central Standard Time),194125.40000000037,O,z,1877,4,1,128.bmp,-120,-120,129.bmp,120,-120,130.bmp,-120,120,131.bmp,120,120,10692.400000000373,183433.0,7049,yes,SM,A,129.bmp,120,-120,185225,179197,187241,181209,,,,,4
3,0,0,1,0,3,prac,1,1,z,Mon Feb 17 2025 18:10:31 GMT-0600 (Central Standard Time),204055.7999999998,O,z,1101,5,1,132.bmp,-120,-120,133.bmp,120,-120,134.bmp,-120,120,135.bmp,120,120,9927.099999999627,194128.7000000002,7049,yes,SM,A,134.bmp,-120,120,195921,189893,197937,191906,,,,,5
1,1,0,0,0,4,prac,1,1,m,Mon Feb 17 2025 18:10:31 GMT-0600 (Central Standard Time),214035.7000000002,O,m,1162,6,1,136.bmp,-120,-120,137.bmp,120,-120,138.bmp,-120,120,139.bmp,120,120,9976.700000000186,204059.0,7049,no,SM,A,139.bmp,-120,-120,205851,199823,207868,201836,,,,,6
2,0,1,0,0,5,prac,1,1,m,Mon Feb 17 2025 18:10:31 GMT-0600 (Central Standard Time),224465.90000000037,O,m,1606,7,1,140.bmp,-120,-120,141.bmp,120,-120,142.bmp,-120,120,143.bmp,120,120,10426.400000000373,214039.5,7049,no,SM,A,140.bmp,120,-120,215832,209804,217848,211816,,,,,7
4,0,0,0,1,5,prac,1,0,z,Mon Feb 17 2025 18:10:31 GMT-0600 (Central Standard Time),235046.0,O,m,1760,8,1,144.bmp,-120,-120,145.bmp,120,-120,146.bmp,-120,120,147.bmp,120,120,10576.399999999441,224469.60000000056,7049,yes,SM,A,147.bmp,120,120,226261,220234,228278,222246,,,,,8
4,0,0,0,1,1,test,1,1,m,Mon Feb 17 2025 18:10:31 GMT-0600 (Central Standard Time),263570.2999999998,O,m,1441,1,1,148.bmp,-120,-120,149.bmp,120,-120,150.bmp,-120,120,143.bmp,120,120,9494.599999999627,254075.7000000002,7049,no,SM,A,150.bmp,120,120,226261,220234,228278,222246,255869.0,249840.0,257885.0,251854.0,1
2,0,1,0,0,2,test,1,1,m,Mon Feb 17 2025 18:10:31 GMT-0600 (Central Standard Time),272784.10000000056,O,m,1160,2,1,101.bmp,-120,-120,102.bmp,120,-120,103.bmp,-120,120,104.bmp,120,120,9210.300000000745,263573.7999999998,7049,no,SM,A,103.bmp,120,-120,226261,220234,228278,222246,265366.0,259338.0,267382.0,261351.0,2
1,1,0,0,0,3,test,1,1,z,Mon Feb 17 2025 18:10:31 GMT-0600 (Central Standard Time),282547.7000000002,O,z,1706,3,1,105.bmp,-120,-120,106.bmp,120,-120,107.bmp,-120,120,108.bmp,120,120,9760.599999999627,272787.10000000056,7049,yes,SM,A,105.bmp,-120,-120,226261,220234,228278,222246,274580.0,268551.0,276596.0,270564.0,3
3,0,0,1,0,3,test,1,0,m,Mon Feb 17 2025 18:10:31 GMT-0600 (Central Standard Time),292328.2000000002,O,z,1726,4,1,109.bmp,-120,-120,110.bmp,120,-120,111.bmp,-120,120,112.bmp,120,120,9776.799999999814,282551.4000000004,7049,no,SM,A,109.bmp,-120,120,226261,220234,228278,222246,284343.0,278316.0,286360.0,280328.0,4
2,0,1,0,0,3,test,1,0,z,Mon Feb 17 2025 18:10:31 GMT-0600 (Central Standard Time),302391.5,O,None,2015,5,1,113.bmp,-120,-120,114.bmp,120,-120,115.bmp,-120,120,116.bmp,120,120,10059.299999999814,292332.2000000002,7049,yes,SM,A,114.bmp,120,-120,226261,220234,228278,222246,294123.0,288096.0,296140.0,290109.0,5
3,0,0,1,0,3,test,1,0,z,Mon Feb 17 2025 18:10:31 GMT-0600 (Central Standard Time),311905.2000000002,O,m,1451,6,1,117.bmp,-120,-120,118.bmp,120,-120,119.bmp,-120,120,120.bmp,120,120,9509.5,302395.7000000002,7049,yes,SM,A,119.bmp,-120,120,226261,220234,228278,222246,304187.0,298160.0,306203.0,300172.0,6
4,0,0,0,1,4,test,1,1,z,Mon Feb 17 2025 18:10:31 GMT-0600 (Central Standard Time),321368.7000000002,O,z,1409,7,1,121.bmp,-120,-120,122.bmp,120,-120,123.bmp,-120,120,124.bmp,120,120,9460.200000000186,311908.5,7049,yes,SM,A,124.bmp,120,120,226261,220234,228278,222246,313701.0,307673.0,315717.0,309686.0,7
2,0,1,0,0,4,test,1,0,m,Mon Feb 17 2025 18:10:31 GMT-0600 (Central Standard Time),331415.9000000004,O,None,2016,8,1,125.bmp,-120,-120,126.bmp,120,-120,127.bmp,-120,120,128.bmp,120,120,10043.5,321372.4000000004,7049,no,SM,A,125.bmp,120,-120,226261,220234,228278,222246,323158.0,317137.0,325164.0,319149.0,8
3,0,0,1,0,5,test,1,1,m,Mon Feb 17 2025 18:10:31 GMT-0600 (Central Standard Time),340712.7999999998,O,m,1234,9,1,129.bmp,-120,-120,130.bmp,120,-120,131.bmp,-120,120,132.bmp,120,120,9293.599999999627,331419.2000000002,7049,no,SM,A,130.bmp,-120,120,226261,220234,228278,222246,333211.0,327183.0,335228.0,329196.0,9
4,0,0,0,1,5,test,1,0,z,Mon Feb 17 2025 18:10:31 GMT-0600 (Central Standard Time),350626.2000000002,O,m,1865,10,1,137.bmp,-120,-120,138.bmp,120,-120,139.bmp,-120,120,140.bmp,120,120,9910.200000000186,340716.0,7049,yes,SM,A,140.bmp,120,120,226261,220234,228278,222246,342508.0,336480.0,344525.0,338493.0,10
3,0,0,1,0,6,test,1,1,z,Mon Feb 17 2025 18:10:31 GMT-0600 (Central Standard Time),360140.0,O,z,1464,11,1,133.bmp,-120,-120,134.bmp,120,-120,135.bmp,-120,120,136.bmp,120,120,9510.200000000186,350629.7999999998,7049,yes,SM,A,135.bmp,-120,120,226261,220234,228278,222246,352422.0,346394.0,354438.0,348407.0,11
2,0,1,0,0,7,test,1,1,m,Mon Feb 17 2025 18:10:31 GMT-0600 (Central Standard Time),369353.9000000004,O,m,1158,12,1,141.bmp,-120,-120,142.bmp,120,-120,143.bmp,-120,120,144.bmp,120,120,9210.600000000559,360143.2999999998,7049,no,SM,A,141.bmp,120,-120,226261,220234,228278,222246,361936.0,355907.0,363952.0,357920.0,12
3,0,0,1,0,8,test,1,1,m,Mon Feb 17 2025 18:10:31 GMT-0600 (Central Standard Time),378567.7000000002,O,m,1160,13,1,145.bmp,-120,-120,146.bmp,120,-120,147.bmp,-120,120,148.bmp,120,120,9210.400000000373,369357.2999999998,7049,no,SM,A,146.bmp,-120,120,226261,220234,228278,222246,371149.0,365122.0,373166.0,367134.0,13
1,1,0,0,0,9,test,1,1,z,Mon Feb 17 2025 18:10:31 GMT-0600 (Central Standard Time),387914.7000000002,O,z,1290,14,1,149.bmp,-120,-120,150.bmp,120,-120,104.bmp,-120,120,101.bmp,120,120,9343.599999999627,378571.10000000056,7049,yes,SM,A,149.bmp,-120,-120,226261,220234,228278,222246,380363.0,374335.0,382380.0,376348.0,14
4,0,0,0,1,9,test,1,0,m,Mon Feb 17 2025 18:10:31 GMT-0600 (Central Standard Time),397328.4000000004,O,z,1351,15,1,110.bmp,-120,-120,111.bmp,120,-120,112.bmp,-120,120,113.bmp,120,120,9410.200000000186,387918.2000000002,7049,no,SM,A,111.bmp,120,120,226261,220234,228278,222246,389710.0,383682.0,391727.0,385695.0,15
1,1,0,0,0,10,test,1,1,m,Mon Feb 17 2025 18:10:31 GMT-0600 (Central Standard Time),406675.60000000056,O,m,1289,16,1,102.bmp,-120,-120,103.bmp,120,-120,104.bmp,-120,120,105.bmp,120,120,9343.900000000373,397331.7000000002,7049,no,SM,A,105.bmp,-120,-120,226261,220234,228278,222246,399124.0,393096.0,401140.0,395109.0,16
3,0,0,1,0,11,test,1,1,m,Mon Feb 17 2025 18:10:31 GMT-0600 (Central Standard Time),415939.10000000056,O,m,1215,17,1,122.bmp,-120,-120,123.bmp,120,-120,124.bmp,-120,120,125.bmp,120,120,9260.0,406679.10000000056,7049,no,SM,A,122.bmp,-120,120,226261,220234,228278,222246,408471.0,402443.0,410487.0,404456.0,17
1,1,0,0,0,11,test,1,0,z,Mon Feb 17 2025 18:10:31 GMT-0600 (Central Standard Time),426002.9000000004,O,None,2016,18,1,106.bmp,-120,-120,107.bmp,120,-120,108.bmp,-120,120,109.bmp,120,120,10060.900000000373,415942.0,7049,yes,SM,A,106.bmp,-120,-120,226261,220234,228278,222246,417735.0,411706.0,419751.0,413720.0,18
2,0,1,0,0,11,test,1,0,z,Mon Feb 17 2025 18:10:31 GMT-0600 (Central Standard Time),434849.9000000004,O,m,791,19,1,126.bmp,-120,-120,127.bmp,120,-120,128.bmp,-120,120,129.bmp,120,120,8842.900000000373,426007.0,7049,yes,SM,A,127.bmp,120,-120,226261,220234,228278,222246,427798.0,421771.0,429815.0,423783.0,19
3,0,0,1,0,12,test,1,1,z,Mon Feb 17 2025 18:10:31 GMT-0600 (Central Standard Time),444380.2000000002,O,z,1472,20,1,130.bmp,-120,-120,131.bmp,120,-120,132.bmp,-120,120,133.bmp,120,120,9526.900000000373,434853.2999999998,7049,yes,SM,A,132.bmp,-120,120,226261,220234,228278,222246,436645.0,430617.0,438662.0,432631.0,20
1,1,0,0,0,12,test,1,0,m,Mon Feb 17 2025 18:10:31 GMT-0600 (Central Standard Time),453310.9000000004,O,z,870,21,1,114.bmp,-120,-120,115.bmp,120,-120,116.bmp,-120,120,117.bmp,120,120,8927.900000000373,444383.0,7049,no,SM,A,116.bmp,-120,-120,226261,220234,228278,222246,446176.0,440147.0,448192.0,442161.0,21
4,0,0,0,1,13,test,1,1,z,Mon Feb 17 2025 18:10:31 GMT-0600 (Central Standard Time),462608.0,O,z,1235,22,1,118.bmp,-120,-120,119.bmp,120,-120,120.bmp,-120,120,121.bmp,120,120,9294.099999999627,453313.9000000004,7049,yes,SM,A,121.bmp,120,120,226261,220234,228278,222246,455106.0,449078.0,457123.0,451091.0,22
1,1,0,0,0,14,test,1,1,m,Mon Feb 17 2025 18:10:31 GMT-0600 (Central Standard Time),472071.60000000056,O,m,1393,23,1,134.bmp,-120,-120,135.bmp,120,-120,136.bmp,-120,120,137.bmp,120,120,9460.5,462611.10000000056,7049,no,SM,A,137.bmp,-120,-120,226261,220234,228278,222246,464431.0,458375.0,466437.0,460388.0,23
2,0,1,0,0,15,test,1,1,z,Mon Feb 17 2025 18:10:31 GMT-0600 (Central Standard Time),481502.10000000056,O,z,1378,24,1,142.bmp,-120,-120,143.bmp,120,-120,144.bmp,-120,120,145.bmp,120,120,9427.100000000559,472075.0,7049,yes,SM,A,143.bmp,120,-120,226261,220234,228278,222246,473867.0,467839.0,475884.0,469852.0,24
4,0,0,0,1,16,test,1,1,m,Mon Feb 17 2025 18:10:31 GMT-0600 (Central Standard Time),491015.7000000002,O,m,1452,25,1,146.bmp,-120,-120,147.bmp,120,-120,148.bmp,-120,120,149.bmp,120,120,9510.700000000186,481505.0,7049,no,SM,A,148.bmp,120,120,226261,220234,228278,222246,483298.0,477269.0,485314.0,479282.0,25
1,1,0,0,0,17,test,1,1,z,Mon Feb 17 2025 18:10:31 GMT-0600 (Central Standard Time),500579.10000000056,O,z,1513,26,1,138.bmp,-120,-120,139.bmp,120,-120,140.bmp,-120,120,141.bmp,120,120,9560.100000000559,491019.0,7049,yes,SM,A,138.bmp,-120,-120,226261,220234,228278,222246,492811.0,486783.0,494829.0,488796.0,26
4,0,0,0,1,18,test,1,1,z,Mon Feb 17 2025 18:10:31 GMT-0600 (Central Standard Time),510476.2000000002,O,z,1839,27,1,150.bmp,-120,-120,111.bmp,120,-120,101.bmp,-120,120,102.bmp,120,120,9894.099999999627,500582.10000000056,7049,yes,SM,A,102.bmp,120,120,226261,220234,228278,222246,502375.0,496346.0,504391.0,498360.0,27
3,0,0,1,0,18,test,1,0,m,Mon Feb 17 2025 18:10:31 GMT-0600 (Central Standard Time),519673.4000000004,O,z,1133,28,1,103.bmp,-120,-120,104.bmp,120,-120,105.bmp,-120,120,106.bmp,120,120,9193.799999999814,510479.60000000056,7049,no,SM,A,103.bmp,-120,120,226261,220234,228278,222246,512272.0,506244.0,514289.0,508257.0,28
2,0,1,0,0,19,test,1,1,z,Mon Feb 17 2025 18:10:31 GMT-0600 (Central Standard Time),528637.1000000006,O,z,912,29,1,107.bmp,-120,-120,108.bmp,120,-120,109.bmp,-120,120,110.bmp,120,120,8960.400000000373,519676.7000000002,7049,yes,SM,A,108.bmp,120,-120,226261,220234,228278,222246,521469.0,515441.0,523486.0,517454.0,29
3,0,0,1,0,20,test,1,1,z,Mon Feb 17 2025 18:10:31 GMT-0600 (Central Standard Time),537934.5,O,z,1245,30,1,111.bmp,-120,-120,112.bmp,120,-120,113.bmp,-120,120,114.bmp,120,120,9294.099999999627,528640.4000000004,7049,yes,SM,A,113.bmp,-120,120,226261,220234,228278,222246,530433.0,524405.0,532449.0,526418.0,30
1,1,0,0,0,21,test,1,1,z,Mon Feb 17 2025 18:10:31 GMT-0600 (Central Standard Time),546915.0,O,z,924,31,1,115.bmp,-120,-120,116.bmp,120,-120,117.bmp,-120,120,118.bmp,120,120,8977.200000000186,537937.7999999998,7049,yes,SM,A,115.bmp,-120,-120,226261,220234,228278,222246,539730.0,533702.0,541746.0,535715.0,31
2,0,1,0,0,22,test,1,1,m,Mon Feb 17 2025 18:10:31 GMT-0600 (Central Standard Time),556162.1000000006,O,m,1199,32,1,119.bmp,-120,-120,120.bmp,120,-120,121.bmp,-120,120,122.bmp,120,120,9243.300000000745,546918.7999999998,7049,no,SM,A,119.bmp,120,-120,226261,220234,228278,222246,548710.0,542683.0,550727.0,544695.0,32
4,0,0,0,1,23,test,1,1,z,Mon Feb 17 2025 18:10:31 GMT-0600 (Central Standard Time),565475.7999999998,O,z,1264,33,1,131.bmp,-120,-120,132.bmp,120,-120,133.bmp,-120,120,134.bmp,120,120,9311.0,556164.7999999998,7049,yes,SM,A,134.bmp,120,120,226261,220234,228278,222246,557957.0,551929.0,559974.0,553942.0,33
2,0,1,0,0,24,test,1,1,z,Mon Feb 17 2025 18:10:31 GMT-0600 (Central Standard Time),574556.1000000006,O,z,1022,34,1,123.bmp,-120,-120,124.bmp,120,-120,125.bmp,-120,120,126.bmp,120,120,9077.200000000186,565478.9000000004,7049,yes,SM,A,124.bmp,120,-120,226261,220234,228278,222246,567271.0,561243.0,569287.0,563256.0,34
4,0,0,0,1,25,test,1,1,m,Mon Feb 17 2025 18:10:31 GMT-0600 (Central Standard Time),583670.0,O,m,1062,35,1,127.bmp,-120,-120,128.bmp,120,-120,129.bmp,-120,120,130.bmp,120,120,9110.399999999441,574559.6000000006,7049,no,SM,A,129.bmp,120,120,226261,220234,228278,222246,576352.0,570324.0,578368.0,572337.0,35
3,0,0,1,0,25,test,1,0,m,Mon Feb 17 2025 18:10:31 GMT-0600 (Central Standard Time),592950.2999999998,O,z,1228,36,1,135.bmp,-120,-120,136.bmp,120,-120,137.bmp,-120,120,138.bmp,120,120,9277.0,583673.2999999998,7049,no,SM,A,135.bmp,-120,120,226261,220234,228278,222246,585465.0,579437.0,587482.0,581450.0,36
1,1,0,0,0,25,test,1,0,m,Mon Feb 17 2025 18:10:31 GMT-0600 (Central Standard Time),603014.1000000006,O,None,2015,37,1,139.bmp,-120,-120,140.bmp,120,-120,141.bmp,-120,120,142.bmp,120,120,10060.5,592953.6000000006,7049,no,SM,A,140.bmp,-120,-120,226261,220234,228278,222246,594746.0,588718.0,596762.0,590731.0,37
2,0,1,0,0,26,test,1,1,m,Mon Feb 17 2025 18:10:31 GMT-0600 (Central Standard Time),612494.2999999998,O,m,1428,38,1,143.bmp,-120,-120,144.bmp,120,-120,145.bmp,-120,120,146.bmp,120,120,9477.400000000373,603016.8999999994,7049,no,SM,A,145.bmp,120,-120,226261,220234,228278,222246,604811.0,598781.0,606826.0,600794.0,38
4,0,0,0,1,27,test,1,1,z,Mon Feb 17 2025 18:10:31 GMT-0600 (Central Standard Time),621841.2999999998,O,z,1283,39,1,147.bmp,-120,-120,148.bmp,120,-120,149.bmp,-120,120,150.bmp,120,120,9344.0,612497.2999999998,7049,yes,SM,A,150.bmp,120,120,226261,220234,228278,222246,614290.0,608262.0,616307.0,610275.0,39
3,0,0,1,0,28,test,1,1,m,Mon Feb 17 2025 18:10:31 GMT-0600 (Central Standard Time),631238.2999999998,O,m,1336,40,1,104.bmp,-120,-120,105.bmp,120,-120,106.bmp,-120,120,107.bmp,120,120,9393.599999999627,621844.7000000002,7049,no,SM,A,105.bmp,-120,120,226261,220234,228278,222246,623637.0,617609.0,625654.0,619622.0,40
1,1,0,0,0,29,test,1,1,z,Mon Feb 17 2025 18:10:31 GMT-0600 (Central Standard Time),640302.2000000002,O,z,895,41,1,108.bmp,-120,-120,109.bmp,120,-120,110.bmp,-120,120,111.bmp,120,120,9060.900000000373,631241.2999999998,7049,yes,SM,A,108.bmp,-120,-120,226261,220234,228278,222246,633151.0,627006.0,635167.0,629150.0,41
4,0,0,0,1,30,test,1,1,z,Mon Feb 17 2025 18:10:31 GMT-0600 (Central Standard Time),649866.0000000009,O,z,1500,42,1,112.bmp,-120,-120,113.bmp,120,-120,114.bmp,-120,120,115.bmp,120,120,9560.700000001118,640305.2999999998,7049,yes,SM,A,115.bmp,120,120,226261,220234,228278,222246,642098.0,636070.0,644114.0,638083.0,42
1,1,0,0,0,31,test,1,1,z,Mon Feb 17 2025 18:10:31 GMT-0600 (Central Standard Time),659597.0000000009,O,z,1680,43,1,116.bmp,-120,-120,117.bmp,120,-120,118.bmp,-120,120,119.bmp,120,120,9728.0,649869.0000000009,7049,yes,SM,A,116.bmp,-120,-120,226261,220234,228278,222246,651662.0,645633.0,653678.0,647647.0,43
4,0,0,0,1,32,test,1,1,m,Mon Feb 17 2025 18:10:31 GMT-0600 (Central Standard Time),669410.8999999994,O,m,1749,44,1,104.bmp,-120,-120,101.bmp,120,-120,102.bmp,-120,120,103.bmp,120,120,9810.199999999255,659600.7000000002,7049,no,SM,A,104.bmp,120,120,226261,220234,228278,222246,661393.0,655365.0,663409.0,657376.0,44
1,1,0,0,0,33,test,1,1,m,Mon Feb 17 2025 18:10:31 GMT-0600 (Central Standard Time),678723.7000000002,O,m,1264,45,1,128.bmp,-120,-120,129.bmp,120,-120,130.bmp,-120,120,131.bmp,120,120,9308.400000000373,669415.2999999998,7049,no,SM,A,131.bmp,-120,-120,226261,220234,228278,222246,671205.0,665180.0,673222.0,667190.0,45
1,1,0,0,0,34,test,1,1,m,Mon Feb 17 2025 18:10:31 GMT-0600 (Central Standard Time),688187.0000000009,O,m,1414,46,1,120.bmp,-120,-120,121.bmp,120,-120,122.bmp,-120,120,123.bmp,120,120,9460.300000000745,678726.7000000002,7049,no,SM,A,121.bmp,-120,-120,226261,220234,228278,222246,680519.0,674491.0,682535.0,676504.0,46
3,0,0,1,0,35,test,1,1,z,Mon Feb 17 2025 18:10:31 GMT-0600 (Central Standard Time),697334.5000000009,O,z,1087,47,1,124.bmp,-120,-120,125.bmp,120,-120,126.bmp,-120,120,127.bmp,120,120,9144.5,688190.0000000009,7049,yes,SM,A,126.bmp,-120,120,226261,220234,228278,222246,689983.0,683954.0,691999.0,685968.0,47
3,0,0,1,0,36,test,1,1,z,Mon Feb 17 2025 18:10:31 GMT-0600 (Central Standard Time),706864.6000000006,O,z,1468,48,1,140.bmp,-120,-120,141.bmp,120,-120,142.bmp,-120,120,143.bmp,120,120,9527.400000000373,697337.2000000002,7049,yes,SM,A,142.bmp,-120,120,226261,220234,228278,222246,699130.0,693101.0,701146.0,695115.0,48
2,0,1,0,0,36,test,1,0,z,Mon Feb 17 2025 18:10:31 GMT-0600 (Central Standard Time),716028.2999999998,O,m,1113,49,1,136.bmp,-120,-120,137.bmp,120,-120,138.bmp,-120,120,139.bmp,120,120,9159.900000000373,706868.3999999994,7049,yes,SM,A,137.bmp,120,-120,226261,220234,228278,222246,708660.0,702633.0,710677.0,704645.0,49
3,0,0,1,0,37,test,1,1,m,Mon Feb 17 2025 18:10:31 GMT-0600 (Central Standard Time),725575.6000000006,O,m,1493,50,1,132.bmp,-120,-120,133.bmp,120,-120,134.bmp,-120,120,135.bmp,120,120,9544.599999999627,716031.0000000009,7049,no,SM,A,132.bmp,-120,120,226261,220234,228278,222246,717824.0,711795.0,719840.0,713809.0,50
2,0,1,0,0,37,test,1,0,z,Mon Feb 17 2025 18:10:31 GMT-0600 (Central Standard Time),735089.2999999998,O,m,1384,51,1,144.bmp,-120,-120,145.bmp,120,-120,146.bmp,-120,120,147.bmp,120,120,9510.799999998882,725578.5000000009,7049,yes,SM,A,145.bmp,120,-120,226261,220234,228278,222246,727438.0,721343.0,729454.0,723437.0,51
4,0,0,0,1,38,test,1,1,m,Mon Feb 17 2025 18:10:31 GMT-0600 (Central Standard Time),744569.5000000009,O,m,1425,52,1,148.bmp,-120,-120,149.bmp,120,-120,150.bmp,-120,120,131.bmp,120,120,9477.200000001118,735092.2999999998,7049,no,SM,A,148.bmp,120,120,226261,220234,228278,222246,736885.0,730857.0,738901.0,732869.0,52
3,0,0,1,0,39,test,1,1,z,Mon Feb 17 2025 18:10:31 GMT-0600 (Central Standard Time),754233.2000000002,O,z,1600,53,1,101.bmp,-120,-120,102.bmp,120,-120,103.bmp,-120,120,104.bmp,120,120,9660.300000000745,744572.8999999994,7049,yes,SM,A,103.bmp,-120,120,226261,220234,228278,222246,746365.0,740337.0,748382.0,742350.0,53
1,1,0,0,0,39,test,1,0,m,Mon Feb 17 2025 18:10:31 GMT-0600 (Central Standard Time),763513.8999999994,O,z,1217,54,1,105.bmp,-120,-120,106.bmp,120,-120,107.bmp,-120,120,108.bmp,120,120,9277.299999998882,754236.6000000006,7049,no,SM,A,107.bmp,-120,-120,226261,220234,228278,222246,756029.0,750001.0,758045.0,752013.0,54
4,0,0,0,1,40,test,1,1,z,Mon Feb 17 2025 18:10:31 GMT-0600 (Central Standard Time),773094.1000000006,O,z,1520,55,1,109.bmp,-120,-120,110.bmp,120,-120,111.bmp,-120,120,112.bmp,120,120,9577.200000001118,763516.8999999994,7049,yes,SM,A,112.bmp,120,120,226261,220234,228278,222246,765309.0,759281.0,767326.0,761294.0,55
2,0,1,0,0,41,test,1,1,m,Mon Feb 17 2025 18:10:31 GMT-0600 (Central Standard Time),783057.3999999994,O,m,1900,56,1,113.bmp,-120,-120,114.bmp,120,-120,115.bmp,-120,120,116.bmp,120,120,9960.0,773097.3999999994,7049,no,SM,A,113.bmp,120,-120,226261,220234,228278,222246,774890.0,768862.0,776906.0,770874.0,56
4,0,0,0,1,41,test,1,0,m,Mon Feb 17 2025 18:10:31 GMT-0600 (Central Standard Time),792321.3999999994,O,z,1208,57,1,117.bmp,-120,-120,118.bmp,120,-120,119.bmp,-120,120,120.bmp,120,120,9260.89999999851,783060.5000000009,7049,no,SM,A,118.bmp,120,120,226261,220234,228278,222246,784853.0,778825.0,786869.0,780838.0,57
3,0,0,1,0,42,test,1,1,z,Mon Feb 17 2025 18:10:31 GMT-0600 (Central Standard Time),801451.7999999998,O,z,1098,58,1,121.bmp,-120,-120,122.bmp,120,-120,123.bmp,-120,120,124.bmp,120,120,9127.5,792324.2999999998,7049,yes,SM,A,123.bmp,-120,120,226261,220234,228278,222246,794115.0,788089.0,796116.0,790102.0,58
2,0,1,0,0,43,test,1,1,m,Mon Feb 17 2025 18:10:31 GMT-0600 (Central Standard Time),810748.7999999998,O,m,1246,59,1,125.bmp,-120,-120,126.bmp,120,-120,127.bmp,-120,120,128.bmp,120,120,9294.0,801454.7999999998,7049,no,SM,A,128.bmp,120,-120,226261,220234,228278,222246,803247.0,797219.0,805264.0,799232.0,59
1,1,0,0,0,44,test,1,1,z,Mon Feb 17 2025 18:10:31 GMT-0600 (Central Standard Time),820096.0000000009,O,z,1285,60,1,129.bmp,-120,-120,130.bmp,120,-120,131.bmp,-120,120,132.bmp,120,120,9344.60000000149,810751.3999999994,7049,yes,SM,A,129.bmp,-120,-120,226261,220234,228278,222246,812545.0,806516.0,814561.0,808529.0,60
2,0,1,0,0,45,test,1,1,z,Mon Feb 17 2025 18:10:31 GMT-0600 (Central Standard Time),829759.7000000002,O,z,1602,61,1,133.bmp,-120,-120,134.bmp,120,-120,135.bmp,-120,120,136.bmp,120,120,9661.0,820098.7000000002,7049,yes,SM,A,134.bmp,120,-120,226261,220234,228278,222246,821892.0,815863.0,823908.0,817878.0,61
4,0,0,0,1,46,test,1,1,z,Mon Feb 17 2025 18:10:31 GMT-0600 (Central Standard Time),839423.3999999994,O,z,1603,62,1,141.bmp,-120,-120,142.bmp,120,-120,143.bmp,-120,120,144.bmp,120,120,9660.599999999627,829762.7999999998,7049,yes,SM,A,144.bmp,120,120,226261,220234,228278,222246,831555.0,825527.0,833571.0,827540.0,62
1,1,0,0,0,46,test,1,0,m,Mon Feb 17 2025 18:10:31 GMT-0600 (Central Standard Time),848553.7000000002,O,z,991,63,1,145.bmp,-120,-120,146.bmp,120,-120,147.bmp,-120,120,148.bmp,120,120,9127.5,839426.2000000002,7049,no,SM,A,145.bmp,-120,120,226261,220234,228278,222246,841313.0,835190.0,843319.0,837204.0,63
2,0,1,0,0,47,test,1,1,z,Mon Feb 17 2025 18:10:31 GMT-0600 (Central Standard Time),857967.2999999998,O,z,1352,64,1,149.bmp,-120,-120,150.bmp,120,-120,112.bmp,-120,120,101.bmp,120,120,9410.400000000373,848556.8999999994,7049,yes,SM,A,150.bmp,120,-120,226261,220234,228278,222246,850349.0,844321.0,852366.0,846334.0,64
4,0,0,0,1,48,test,1,1,m,Mon Feb 17 2025 18:10:31 GMT-0600 (Central Standard Time),867964.5000000009,O,m,1939,65,1,102.bmp,-120,-120,103.bmp,120,-120,104.bmp,-120,120,105.bmp,120,120,9994.10000000149,857970.3999999994,7049,no,SM,A,104.bmp,120,120,226261,220234,228278,222246,859763.0,853735.0,861779.0,855748.0,65
3,0,0,1,0,49,test,1,1,m,Mon Feb 17 2025 18:10:31 GMT-0600 (Central Standard Time),877878.1000000006,O,m,1862,66,1,106.bmp,-120,-120,107.bmp,120,-120,108.bmp,-120,120,109.bmp,120,120,9909.900000000373,867968.2000000002,7049,no,SM,A,109.bmp,-120,120,226261,220234,228278,222246,869760.0,863732.0,871776.0,865745.0,66
2,0,1,0,0,50,test,1,1,m,Mon Feb 17 2025 18:10:31 GMT-0600 (Central Standard Time),887458.1000000006,O,m,1524,67,1,137.bmp,-120,-120,138.bmp,120,-120,139.bmp,-120,120,140.bmp,120,120,9577.200000001118,877880.8999999994,7049,no,SM,A,139.bmp,120,-120,226261,220234,228278,222246,879673.0,873645.0,881690.0,875658.0,67
3,0,0,1,0,51,test,1,1,z,Mon Feb 17 2025 18:10:31 GMT-0600 (Central Standard Time),896755.3999999994,O,z,1240,68,1,110.bmp,-120,-120,111.bmp,120,-120,112.bmp,-120,120,113.bmp,120,120,9294.199999999255,887461.2000000002,7049,yes,SM,A,112.bmp,-120,120,226261,220234,228278,222246,889254.0,883225.0,891270.0,885239.0,68
1,1,0,0,0,52,test,1,1,m,Mon Feb 17 2025 18:10:31 GMT-0600 (Central Standard Time),906235.3999999994,O,m,1423,69,1,114.bmp,-120,-120,115.bmp,120,-120,116.bmp,-120,120,117.bmp,120,120,9476.699999999255,896758.7000000002,7049,no,SM,A,115.bmp,-120,-120,226261,220234,228278,222246,898551.0,892523.0,900567.0,894536.0,69
2,0,1,0,0,53,test,1,1,m,Mon Feb 17 2025 18:10:31 GMT-0600 (Central Standard Time),915975.5000000009,O,m,1691,70,1,118.bmp,-120,-120,119.bmp,120,-120,120.bmp,-120,120,121.bmp,120,120,9737.10000000149,906238.3999999994,7049,no,SM,A,120.bmp,120,-120,226261,220234,228278,222246,908031.0,902003.0,910048.0,904016.0,70
4,0,0,0,1,54,test,1,1,z,Mon Feb 17 2025 18:10:31 GMT-0600 (Central Standard Time),925646.2000000002,O,z,1628,71,1,122.bmp,-120,-120,123.bmp,120,-120,124.bmp,-120,120,125.bmp,120,120,9667.400000000373,915978.7999999998,7049,yes,SM,A,125.bmp,120,120,226261,220234,228278,222246,917762.0,911743.0,919778.0,913746.0,71
1,1,0,0,0,55,test,1,1,z,Mon Feb 17 2025 18:10:31 GMT-0600 (Central Standard Time),934909.7999999998,O,z,1204,72,1,126.bmp,-120,-120,127.bmp,120,-120,128.bmp,-120,120,129.bmp,120,120,9260.799999998882,925649.0000000009,7049,yes,SM,A,126.bmp,-120,-120,226261,220234,228278,222246,927442.0,921413.0,929457.0,923427.0,72
2,0,1,0,0,56,test,1,1,z,Mon Feb 17 2025 18:10:31 GMT-0600 (Central Standard Time),944490.0000000009,O,z,1532,73,1,130.bmp,-120,-120,131.bmp,120,-120,132.bmp,-120,120,133.bmp,120,120,9577.60000000149,934912.3999999994,7049,yes,SM,A,131.bmp,120,-120,226261,220234,228278,222246,936705.0,930677.0,938722.0,932690.0,73
4,0,0,0,1,56,test,1,0,m,Mon Feb 17 2025 18:10:31 GMT-0600 (Central Standard Time),954553.5000000009,O,None,2015,74,1,134.bmp,-120,-120,135.bmp,120,-120,136.bmp,-120,120,137.bmp,120,120,10060.5,944493.0000000009,7049,no,SM,A,136.bmp,120,120,226261,220234,228278,222246,946286.0,940257.0,948302.0,942270.0,74
2,0,1,0,0,56,test,1,0,m,Mon Feb 17 2025 18:10:31 GMT-0600 (Central Standard Time),963967.2999999998,O,z,1352,75,1,138.bmp,-120,-120,139.bmp,120,-120,140.bmp,-120,120,141.bmp,120,120,9410.299999998882,954557.0000000009,7049,no,SM,A,141.bmp,120,-120,226261,220234,228278,222246,956349.0,950321.0,958366.0,952334.0,75
1,1,0,0,0,57,test,1,1,z,Mon Feb 17 2025 18:10:31 GMT-0600 (Central Standard Time),972731.2999999998,O,z,707,76,1,142.bmp,-120,-120,143.bmp,120,-120,144.bmp,-120,120,145.bmp,120,120,8760.900000000373,963970.3999999994,7049,yes,SM,A,142.bmp,-120,-120,226261,220234,228278,222246,965763.0,959735.0,967779.0,961748.0,76
3,0,0,1,0,58,test,1,1,z,Mon Feb 17 2025 18:10:31 GMT-0600 (Central Standard Time),982045.1000000006,O,z,1263,77,1,150.bmp,-120,-120,111.bmp,120,-120,101.bmp,-120,120,102.bmp,120,120,9309.200000001118,972735.8999999994,7049,yes,SM,A,101.bmp,-120,120,226261,220234,228278,222246,974527.0,968500.0,976543.0,970512.0,77
1,1,0,0,0,58,test,1,0,m,Mon Feb 17 2025 18:10:31 GMT-0600 (Central Standard Time),992108.7000000002,O,None,2016,78,1,146.bmp,-120,-120,147.bmp,120,-120,148.bmp,-120,120,149.bmp,120,120,10060.300000000745,982048.3999999994,7049,no,SM,A,147.bmp,-120,-120,226261,220234,228278,222246,983841.0,977813.0,985857.0,979826.0,78
4,0,0,0,1,58,test,1,0,m,Mon Feb 17 2025 18:10:31 GMT-0600 (Central Standard Time),1001639.1000000006,O,z,1469,79,1,107.bmp,-120,-120,108.bmp,120,-120,109.bmp,-120,120,110.bmp,120,120,9526.300000000745,992112.7999999998,7049,no,SM,A,107.bmp,120,120,226261,220234,228278,222246,993904.0,987877.0,995921.0,989889.0,79
3,0,0,1,0,59,test,1,1,m,Mon Feb 17 2025 18:10:31 GMT-0600 (Central Standard Time),1010852.8999999994,O,m,1163,80,1,103.bmp,-120,-120,104.bmp,120,-120,105.bmp,-120,120,106.bmp,120,120,9210.5,1001642.3999999994,7049,no,SM,A,106.bmp,-120,120,226261,220234,228278,222246,1003434.0,997407.0,1005451.0,999420.0,80
