block_c,block_dur,condition,countdown,datetime,endtime,list,multichar_response,project,response,response_time,session_number,start_end,starttime,subject_id,task,task_vers,trial
,,,,Mon Apr 07 2025 09:46:12 GMT-0500 (Central Daylight Time),,,,O,space,747,1,,,7118,WL,A,
prac,,0,,Mon Apr 07 2025 09:46:12 GMT-0500 (Central Daylight Time),,NA,b,O,b,4421,1,,,7118,WL,A,1.0
prac,,0,,Mon Apr 07 2025 09:46:12 GMT-0500 (Central Daylight Time),,NA,bo,O,o,148,1,,,7118,WL,A,1.0
prac,,0,,Mon Apr 07 2025 09:46:12 GMT-0500 (Central Daylight Time),,NA,boo,O,o,733,1,,,7118,WL,A,1.0
prac,,0,,Mon Apr 07 2025 09:46:12 GMT-0500 (Central Daylight Time),,NA,boos,O,s,505,1,,,7118,WL,A,1.0
prac,,0,,Mon Apr 07 2025 09:46:12 GMT-0500 (Central Daylight Time),,NA,boost,O,t,310,1,,,7118,WL,A,1.0
prac,,0,,Mon Apr 07 2025 09:46:12 GMT-0500 (Central Daylight Time),,NA,boostenter,O,enter,370,1,,,7118,WL,A,1.0
1,15.26199984550476,learn,44738.00015449524,Mon Apr 07 2025 09:46:12 GMT-0500 (Central Daylight Time),137912.5,A,b,O,b,15220,1,15261.5,122651.0,7118,WL,A,1.0
1,15.562000036239624,learn,44437.999963760376,Mon Apr 07 2025 09:46:12 GMT-0500 (Central Daylight Time),138212.10000002384,A,bo,O,o,248,1,15561.100000023842,122651.0,7118,WL,A,1.0
1,15.694999933242798,learn,44305.0000667572,Mon Apr 07 2025 09:46:12 GMT-0500 (Central Daylight Time),138345.19999992847,A,boo,O,o,89,1,15694.199999928474,122651.0,7118,WL,A,1.0
1,16.411999940872192,learn,43588.00005912781,Mon Apr 07 2025 09:46:12 GMT-0500 (Central Daylight Time),139062.29999995232,A,book,O,k,690,1,16411.299999952316,122651.0,7118,WL,A,1.0
1,17.57699990272522,learn,42423.00009727478,Mon Apr 07 2025 09:46:12 GMT-0500 (Central Daylight Time),140226.79999995232,A,bookenter,O,enter,1129,1,17575.799999952316,122651.0,7118,WL,A,1.0
1,19.210999965667725,learn,40789.000034332275,Mon Apr 07 2025 09:46:12 GMT-0500 (Central Daylight Time),141860.60000002384,A,t,O,t,1618,1,1633.4000000953674,140227.19999992847,7118,WL,A,2.0
1,19.49399995803833,learn,40506.00004196167,Mon Apr 07 2025 09:46:12 GMT-0500 (Central Daylight Time),142143.79999995232,A,tr,O,r,256,1,1916.6000000238419,140227.19999992847,7118,WL,A,2.0
1,19.90999984741211,learn,40090.00015258789,Mon Apr 07 2025 09:46:12 GMT-0500 (Central Daylight Time),142560.39999997616,A,tra,O,a,372,1,2333.2000000476837,140227.19999992847,7118,WL,A,2.0
1,20.22699999809265,learn,39773.00000190735,Mon Apr 07 2025 09:46:12 GMT-0500 (Central Daylight Time),142877.0,A,trai,O,i,270,1,2649.8000000715256,140227.19999992847,7118,WL,A,2.0
1,20.444000005722046,learn,39555.999994277954,Mon Apr 07 2025 09:46:12 GMT-0500 (Central Daylight Time),143093.79999995232,A,train,O,n,192,1,2866.600000023842,140227.19999992847,7118,WL,A,2.0
1,21.375999927520752,learn,38624.00007247925,Mon Apr 07 2025 09:46:12 GMT-0500 (Central Daylight Time),144025.60000002384,A,trainenter,O,enter,882,1,3798.4000000953674,140227.19999992847,7118,WL,A,2.0
1,22.64299988746643,learn,37357.00011253357,Mon Apr 07 2025 09:46:12 GMT-0500 (Central Daylight Time),145292.89999997616,A,f,O,f,1244,1,1266.8999999761581,144026.0,7118,WL,A,3.0
1,22.80900001525879,learn,37190.99998474121,Mon Apr 07 2025 09:46:12 GMT-0500 (Central Daylight Time),145459.39999997616,A,fl,O,l,129,1,1433.3999999761581,144026.0,7118,WL,A,3.0
1,23.026000022888184,learn,36973.99997711182,Mon Apr 07 2025 09:46:12 GMT-0500 (Central Daylight Time),145676.19999992847,A,flo,O,o,185,1,1650.1999999284744,144026.0,7118,WL,A,3.0
1,23.425999879837036,learn,36574.000120162964,Mon Apr 07 2025 09:46:12 GMT-0500 (Central Daylight Time),146075.89999997616,A,floe,O,e,364,1,2049.899999976158,144026.0,7118,WL,A,3.0
1,24.158999919891357,learn,35841.00008010864,Mon Apr 07 2025 09:46:12 GMT-0500 (Central Daylight Time),146809.0,A,flo,O,backspace,700,1,2783.0,144026.0,7118,WL,A,3.0
1,24.741999864578247,learn,35258.00013542175,Mon Apr 07 2025 09:46:12 GMT-0500 (Central Daylight Time),147392.19999992847,A,flow,O,w,555,1,3366.1999999284744,144026.0,7118,WL,A,3.0
1,24.991999864578247,learn,35008.00013542175,Mon Apr 07 2025 09:46:12 GMT-0500 (Central Daylight Time),147642.0,A,flowe,O,e,217,1,3616.0,144026.0,7118,WL,A,3.0
1,25.191999912261963,learn,34808.00008773804,Mon Apr 07 2025 09:46:12 GMT-0500 (Central Daylight Time),147842.0,A,flower,O,r,158,1,3816.0,144026.0,7118,WL,A,3.0
1,26.007999897003174,learn,33992.000102996826,Mon Apr 07 2025 09:46:12 GMT-0500 (Central Daylight Time),148657.39999997616,A,flowerenter,O,enter,771,1,4631.399999976158,144026.0,7118,WL,A,3.0
1,27.174999952316284,learn,32825.000047683716,Mon Apr 07 2025 09:46:12 GMT-0500 (Central Daylight Time),149824.60000002384,A,m,O,m,1156,1,1166.8000000715256,148657.79999995232,7118,WL,A,4.0
1,27.54099988937378,learn,32459.00011062622,Mon Apr 07 2025 09:46:12 GMT-0500 (Central Daylight Time),150191.19999992847,A,me,O,e,325,1,1533.3999999761581,148657.79999995232,7118,WL,A,4.0
1,27.973999977111816,learn,32026.000022888184,Mon Apr 07 2025 09:46:12 GMT-0500 (Central Daylight Time),150624.39999997616,A,mea,O,a,402,1,1966.6000000238419,148657.79999995232,7118,WL,A,4.0
1,28.257999897003174,learn,31742.000102996826,Mon Apr 07 2025 09:46:12 GMT-0500 (Central Daylight Time),150907.89999997616,A,mead,O,d,242,1,2250.100000023842,148657.79999995232,7118,WL,A,4.0
1,28.69099998474121,learn,31309.00001525879,Mon Apr 07 2025 09:46:12 GMT-0500 (Central Daylight Time),151340.79999995232,A,meado,O,o,397,1,2683.0,148657.79999995232,7118,WL,A,4.0
1,30.223000049591064,learn,29776.999950408936,Mon Apr 07 2025 09:46:12 GMT-0500 (Central Daylight Time),152872.5,A,meadow,O,w,1495,1,4214.700000047684,148657.79999995232,7118,WL,A,4.0
1,31.25600004196167,learn,28743.99995803833,Mon Apr 07 2025 09:46:12 GMT-0500 (Central Daylight Time),153905.69999992847,A,meadowenter,O,enter,1011,1,5247.899999976158,148657.79999995232,7118,WL,A,4.0
1,32.12399983406067,learn,27876.00016593933,Mon Apr 07 2025 09:46:12 GMT-0500 (Central Daylight Time),154773.60000002384,A,k,O,k,860,1,867.6000000238419,153906.0,7118,WL,A,5.0
1,32.4229998588562,learn,27577.0001411438,Mon Apr 07 2025 09:46:12 GMT-0500 (Central Daylight Time),155073.0,A,ke,O,e,259,1,1167.0,153906.0,7118,WL,A,5.0
1,32.6729998588562,learn,27327.0001411438,Mon Apr 07 2025 09:46:12 GMT-0500 (Central Daylight Time),155322.79999995232,A,key,O,y,217,1,1416.7999999523163,153906.0,7118,WL,A,5.0
1,34.270999908447266,learn,25729.000091552734,Mon Apr 07 2025 09:46:12 GMT-0500 (Central Daylight Time),156921.29999995232,A,keyenter,O,enter,1557,1,3015.2999999523163,153906.0,7118,WL,A,5.0
1,52.24899983406067,learn,7751.000165939331,Mon Apr 07 2025 09:46:12 GMT-0500 (Central Daylight Time),174898.79999995232,A,enter,O,enter,17964,1,17977.199999928474,156921.60000002384,7118,WL,A,6.0
1,60.01600003242493,learn,-16.000032424926758,Mon Apr 07 2025 09:46:12 GMT-0500 (Central Daylight Time),182663.79999995232,A,None,O,None,7756,1,7764.699999928474,174899.10000002384,7118,WL,A,7.0
2,1.2829999923706055,learn,58717.000007629395,Mon Apr 07 2025 09:46:12 GMT-0500 (Central Daylight Time),251708.0,A,l,O,l,1249,1,1282.5,250425.5,7118,WL,A,1.0
2,1.4829998016357422,learn,58517.00019836426,Mon Apr 07 2025 09:46:12 GMT-0500 (Central Daylight Time),251908.29999995232,A,lo,O,o,154,1,1482.7999999523163,250425.5,7118,WL,A,1.0
2,2.065999984741211,learn,57934.00001525879,Mon Apr 07 2025 09:46:12 GMT-0500 (Central Daylight Time),252490.89999997616,A,log,O,g,548,1,2065.399999976158,250425.5,7118,WL,A,1.0
2,2.8309998512268066,learn,57169.00014877319,Mon Apr 07 2025 09:46:12 GMT-0500 (Central Daylight Time),253256.39999997616,A,logenter,O,enter,726,1,2830.899999976158,250425.5,7118,WL,A,1.0
2,3.4649999141693115,learn,56535.00008583069,Mon Apr 07 2025 09:46:12 GMT-0500 (Central Daylight Time),253890.19999992847,A,k,O,k,614,1,633.5,253256.69999992847,7118,WL,A,2.0
2,3.748999834060669,learn,56251.00016593933,Mon Apr 07 2025 09:46:12 GMT-0500 (Central Daylight Time),254173.79999995232,A,ke,O,e,255,1,917.1000000238419,253256.69999992847,7118,WL,A,2.0
2,4.115000009536743,learn,55884.99999046326,Mon Apr 07 2025 09:46:12 GMT-0500 (Central Daylight Time),254540.29999995232,A,key,O,y,334,1,1283.6000000238419,253256.69999992847,7118,WL,A,2.0
2,4.946999788284302,learn,55053.0002117157,Mon Apr 07 2025 09:46:12 GMT-0500 (Central Daylight Time),255372.19999992847,A,keyenter,O,enter,801,1,2115.5,253256.69999992847,7118,WL,A,2.0
2,5.797999858856201,learn,54202.0001411438,Mon Apr 07 2025 09:46:12 GMT-0500 (Central Daylight Time),256222.89999997616,A,r,O,r,834,1,850.3999999761581,255372.5,7118,WL,A,3.0
2,6.163999795913696,learn,53836.000204086304,Mon Apr 07 2025 09:46:12 GMT-0500 (Central Daylight Time),256589.69999992847,A,ra,O,a,339,1,1217.1999999284744,255372.5,7118,WL,A,3.0
2,6.630999803543091,learn,53369.00019645691,Mon Apr 07 2025 09:46:12 GMT-0500 (Central Daylight Time),257056.0,A,rat,O,t,437,1,1683.5,255372.5,7118,WL,A,3.0
2,6.747999906539917,learn,53252.00009346008,Mon Apr 07 2025 09:46:12 GMT-0500 (Central Daylight Time),257173.79999995232,A,ratt,O,t,92,1,1801.2999999523163,255372.5,7118,WL,A,3.0
2,6.946999788284302,learn,53053.0002117157,Mon Apr 07 2025 09:46:12 GMT-0500 (Central Daylight Time),257372.5,A,rattl,O,l,157,1,2000.0,255372.5,7118,WL,A,3.0
2,7.263000011444092,learn,52736.99998855591,Mon Apr 07 2025 09:46:12 GMT-0500 (Central Daylight Time),257688.29999995232,A,rattle,O,e,280,1,2315.7999999523163,255372.5,7118,WL,A,3.0
2,8.27899980545044,learn,51721.00019454956,Mon Apr 07 2025 09:46:12 GMT-0500 (Central Daylight Time),258704.60000002384,A,rattleenter,O,enter,995,1,3332.100000023842,255372.5,7118,WL,A,3.0
2,9.36299991607666,learn,50637.00008392334,Mon Apr 07 2025 09:46:12 GMT-0500 (Central Daylight Time),259788.5,A,b,O,b,1061,1,1083.6000000238419,258704.89999997616,7118,WL,A,4.0
2,9.579999923706055,learn,50420.000076293945,Mon Apr 07 2025 09:46:12 GMT-0500 (Central Daylight Time),260005.0,A,bo,O,o,185,1,1300.1000000238419,258704.89999997616,7118,WL,A,4.0
2,9.678999900817871,learn,50321.00009918213,Mon Apr 07 2025 09:46:12 GMT-0500 (Central Daylight Time),260104.10000002384,A,boo,O,o,68,1,1399.2000000476837,258704.89999997616,7118,WL,A,4.0
2,10.046000003814697,learn,49953.9999961853,Mon Apr 07 2025 09:46:12 GMT-0500 (Central Daylight Time),260471.69999992847,A,book,O,k,342,1,1766.7999999523163,258704.89999997616,7118,WL,A,4.0
2,10.428999900817871,learn,49571.00009918213,Mon Apr 07 2025 09:46:12 GMT-0500 (Central Daylight Time),260853.79999995232,A,bookenter,O,enter,345,1,2148.899999976158,258704.89999997616,7118,WL,A,4.0
2,11.763000011444092,learn,48236.99998855591,Mon Apr 07 2025 09:46:12 GMT-0500 (Central Daylight Time),262187.7999999523,A,a,O,a,1321,1,1333.6999999284744,260854.10000002384,7118,WL,A,5.0
2,12.228999853134155,learn,47771.000146865845,Mon Apr 07 2025 09:46:12 GMT-0500 (Central Daylight Time),262654.1999999285,A,ap,O,p,433,1,1800.0999999046326,260854.10000002384,7118,WL,A,5.0
2,12.361999988555908,learn,47638.00001144409,Mon Apr 07 2025 09:46:12 GMT-0500 (Central Daylight Time),262787.39999997616,A,app,O,p,99,1,1933.2999999523163,260854.10000002384,7118,WL,A,5.0
2,12.52899980545044,learn,47471.00019454956,Mon Apr 07 2025 09:46:12 GMT-0500 (Central Daylight Time),262954.1999999285,A,appl,O,l,130,1,2100.0999999046326,260854.10000002384,7118,WL,A,5.0
2,12.728999853134155,learn,47271.000146865845,Mon Apr 07 2025 09:46:12 GMT-0500 (Central Daylight Time),263154.10000002384,A,apple,O,e,169,1,2300.0,260854.10000002384,7118,WL,A,5.0
2,13.49399995803833,learn,46506.00004196167,Mon Apr 07 2025 09:46:12 GMT-0500 (Central Daylight Time),263919.39999997616,A,appleenter,O,enter,742,1,3065.2999999523163,260854.10000002384,7118,WL,A,5.0
2,14.561999797821045,learn,45438.000202178955,Mon Apr 07 2025 09:46:12 GMT-0500 (Central Daylight Time),264987.0,A,f,O,f,1046,1,1067.3000000715256,263919.6999999285,7118,WL,A,6.0
2,14.760999917984009,learn,45239.00008201599,Mon Apr 07 2025 09:46:12 GMT-0500 (Central Daylight Time),265186.5,A,fl,O,l,159,1,1266.8000000715256,263919.6999999285,7118,WL,A,6.0
2,14.92799997329712,learn,45072.00002670288,Mon Apr 07 2025 09:46:12 GMT-0500 (Central Daylight Time),265353.2999999523,A,flo,O,o,129,1,1433.6000000238419,263919.6999999285,7118,WL,A,6.0
2,15.294999837875366,learn,44705.000162124634,Mon Apr 07 2025 09:46:12 GMT-0500 (Central Daylight Time),265720.0,A,flow,O,w,338,1,1800.3000000715256,263919.6999999285,7118,WL,A,6.0
2,15.49399995803833,learn,44506.00004196167,Mon Apr 07 2025 09:46:12 GMT-0500 (Central Daylight Time),265920.1999999285,A,flowe,O,e,170,1,2000.5,263919.6999999285,7118,WL,A,6.0
2,15.67799997329712,learn,44322.00002670288,Mon Apr 07 2025 09:46:12 GMT-0500 (Central Daylight Time),266103.1999999285,A,flower,O,r,154,1,2183.5,263919.6999999285,7118,WL,A,6.0
2,16.426999807357788,learn,43573.00019264221,Mon Apr 07 2025 09:46:12 GMT-0500 (Central Daylight Time),266851.89999997616,A,flowerenter,O,enter,705,1,2932.2000000476837,263919.6999999285,7118,WL,A,6.0
2,16.944000005722046,learn,43055.999994277954,Mon Apr 07 2025 09:46:12 GMT-0500 (Central Daylight Time),267369.39999997616,A,m,O,m,499,1,517.2999999523163,266852.10000002384,7118,WL,A,7.0
2,17.24399995803833,learn,42756.00004196167,Mon Apr 07 2025 09:46:12 GMT-0500 (Central Daylight Time),267669.39999997616,A,me,O,e,257,1,817.2999999523163,266852.10000002384,7118,WL,A,7.0
2,17.49399995803833,learn,42506.00004196167,Mon Apr 07 2025 09:46:12 GMT-0500 (Central Daylight Time),267919.0,A,mea,O,a,212,1,1066.8999999761581,266852.10000002384,7118,WL,A,7.0
2,17.74399995803833,learn,42256.00004196167,Mon Apr 07 2025 09:46:12 GMT-0500 (Central Daylight Time),268168.7999999523,A,mead,O,d,215,1,1316.6999999284744,266852.10000002384,7118,WL,A,7.0
2,18.109999895095825,learn,41890.000104904175,Mon Apr 07 2025 09:46:12 GMT-0500 (Central Daylight Time),268535.39999997616,A,meado,O,o,334,1,1683.2999999523163,266852.10000002384,7118,WL,A,7.0
2,18.709999799728394,learn,41290.00020027161,Mon Apr 07 2025 09:46:12 GMT-0500 (Central Daylight Time),269135.1999999285,A,meadow,O,w,563,1,2283.0999999046326,266852.10000002384,7118,WL,A,7.0
2,19.241999864578247,learn,40758.00013542175,Mon Apr 07 2025 09:46:12 GMT-0500 (Central Daylight Time),269667.5,A,meadowenter,O,enter,489,1,2815.399999976158,266852.10000002384,7118,WL,A,7.0
2,20.109999895095825,learn,39890.000104904175,Mon Apr 07 2025 09:46:12 GMT-0500 (Central Daylight Time),270534.89999997616,A,t,O,t,859,1,867.1000000238419,269667.7999999523,7118,WL,A,8.0
2,20.30999994277954,learn,39690.00005722046,Mon Apr 07 2025 09:46:12 GMT-0500 (Central Daylight Time),270735.10000002384,A,tr,O,r,163,1,1067.3000000715256,269667.7999999523,7118,WL,A,8.0
2,20.825999975204468,learn,39174.00002479553,Mon Apr 07 2025 09:46:12 GMT-0500 (Central Daylight Time),271251.39999997616,A,tra,O,a,483,1,1583.6000000238419,269667.7999999523,7118,WL,A,8.0
2,21.07699990272522,learn,38923.00009727478,Mon Apr 07 2025 09:46:12 GMT-0500 (Central Daylight Time),271502.5,A,trai,O,i,226,1,1834.7000000476837,269667.7999999523,7118,WL,A,8.0
2,21.30899977684021,learn,38691.00022315979,Mon Apr 07 2025 09:46:12 GMT-0500 (Central Daylight Time),271734.0,A,train,O,n,204,1,2066.2000000476837,269667.7999999523,7118,WL,A,8.0
2,22.29099988937378,learn,37709.00011062622,Mon Apr 07 2025 09:46:12 GMT-0500 (Central Daylight Time),272716.60000002384,A,trainenter,O,enter,948,1,3048.8000000715256,269667.7999999523,7118,WL,A,8.0
2,28.640999794006348,learn,31359.000205993652,Mon Apr 07 2025 09:46:12 GMT-0500 (Central Daylight Time),279066.10000002384,A,m,O,m,6338,1,6349.200000047684,272716.89999997616,7118,WL,A,9.0
2,28.85699987411499,learn,31143.00012588501,Mon Apr 07 2025 09:46:12 GMT-0500 (Central Daylight Time),279282.39999997616,A,me,O,e,176,1,6565.5,272716.89999997616,7118,WL,A,9.0
2,29.289999961853027,learn,30710.000038146973,Mon Apr 07 2025 09:46:12 GMT-0500 (Central Daylight Time),279715.10000002384,A,mea,O,a,391,1,6998.200000047684,272716.89999997616,7118,WL,A,9.0
2,29.539999961853027,learn,30460.000038146973,Mon Apr 07 2025 09:46:12 GMT-0500 (Central Daylight Time),279965.39999997616,A,mead,O,d,229,1,7248.5,272716.89999997616,7118,WL,A,9.0
2,29.85599994659424,learn,30144.00005340576,Mon Apr 07 2025 09:46:12 GMT-0500 (Central Daylight Time),280281.60000002384,A,meado,O,o,294,1,7564.700000047684,272716.89999997616,7118,WL,A,9.0
2,30.289999961853027,learn,29710.000038146973,Mon Apr 07 2025 09:46:12 GMT-0500 (Central Daylight Time),280715.0,A,meadow,O,w,409,1,7998.100000023842,272716.89999997616,7118,WL,A,9.0
2,30.604999780654907,learn,29395.000219345093,Mon Apr 07 2025 09:46:12 GMT-0500 (Central Daylight Time),281030.60000002384,A,meadowenter,O,enter,288,1,8313.700000047684,272716.89999997616,7118,WL,A,9.0
2,60.014999866485596,learn,-14.999866485595703,Mon Apr 07 2025 09:46:12 GMT-0500 (Central Daylight Time),310438.7999999523,A,None,O,None,29401,1,29407.899999976158,281030.89999997616,7118,WL,A,10.0
3,3.3990001678466797,learn,56600.99983215332,Mon Apr 07 2025 09:46:12 GMT-0500 (Central Daylight Time),385497.5,A,r,O,r,3361,1,3398.7000000476837,382098.7999999523,7118,WL,A,1.0
3,3.932000160217285,learn,56067.999839782715,Mon Apr 07 2025 09:46:12 GMT-0500 (Central Daylight Time),386030.39999997616,A,ru,O,u,497,1,3931.600000023842,382098.7999999523,7118,WL,A,1.0
3,4.498000144958496,learn,55501.999855041504,Mon Apr 07 2025 09:46:12 GMT-0500 (Central Daylight Time),386596.89999997616,A,rug,O,g,532,1,4498.100000023842,382098.7999999523,7118,WL,A,1.0
3,5.031000137329102,learn,54968.9998626709,Mon Apr 07 2025 09:46:12 GMT-0500 (Central Daylight Time),387129.10000002384,A,rugenter,O,enter,493,1,5030.300000071526,382098.7999999523,7118,WL,A,1.0
3,6.680999994277954,learn,53319.000005722046,Mon Apr 07 2025 09:46:12 GMT-0500 (Central Daylight Time),388779.60000002384,A,h,O,h,1630,1,1650.2000000476837,387129.39999997616,7118,WL,A,2.0
3,6.930999994277954,learn,53069.000005722046,Mon Apr 07 2025 09:46:12 GMT-0500 (Central Daylight Time),389029.89999997616,A,ha,O,a,223,1,1900.5,387129.39999997616,7118,WL,A,2.0
3,7.281000137329102,learn,52718.9998626709,Mon Apr 07 2025 09:46:12 GMT-0500 (Central Daylight Time),389379.39999997616,A,har,O,r,308,1,2250.0,387129.39999997616,7118,WL,A,2.0
3,7.731000185012817,learn,52268.99981498718,Mon Apr 07 2025 09:46:12 GMT-0500 (Central Daylight Time),389829.1999999285,A,harp,O,p,415,1,2699.7999999523163,387129.39999997616,7118,WL,A,2.0
3,8.430000066757202,learn,51569.9999332428,Mon Apr 07 2025 09:46:12 GMT-0500 (Central Daylight Time),390528.89999997616,A,harpc,O,c,673,1,3399.5,387129.39999997616,7118,WL,A,2.0
3,8.680000066757202,learn,51319.9999332428,Mon Apr 07 2025 09:46:12 GMT-0500 (Central Daylight Time),390778.7999999523,A,harpch,O,h,218,1,3649.399999976158,387129.39999997616,7118,WL,A,2.0
3,9.130000114440918,learn,50869.99988555908,Mon Apr 07 2025 09:46:12 GMT-0500 (Central Daylight Time),391228.6999999285,A,harpchi,O,i,416,1,4099.299999952316,387129.39999997616,7118,WL,A,2.0
3,9.380000114440918,learn,50619.99988555908,Mon Apr 07 2025 09:46:12 GMT-0500 (Central Daylight Time),391478.60000002384,A,harpchim,O,m,214,1,4349.200000047684,387129.39999997616,7118,WL,A,2.0
3,9.746999979019165,learn,50253.000020980835,Mon Apr 07 2025 09:46:12 GMT-0500 (Central Daylight Time),391845.2999999523,A,harpchimn,O,n,336,1,4715.899999976158,387129.39999997616,7118,WL,A,2.0
3,10.09600019454956,learn,49903.99980545044,Mon Apr 07 2025 09:46:12 GMT-0500 (Central Daylight Time),392195.10000002384,A,harpchimne,O,e,308,1,5065.700000047684,387129.39999997616,7118,WL,A,2.0
3,10.413000106811523,learn,49586.99989318848,Mon Apr 07 2025 09:46:12 GMT-0500 (Central Daylight Time),392511.39999997616,A,harpchimney,O,y,292,1,5382.0,387129.39999997616,7118,WL,A,2.0
3,11.92900013923645,learn,48070.99986076355,Mon Apr 07 2025 09:46:12 GMT-0500 (Central Daylight Time),394027.89999997616,A,harpchimne,O,backspace,1473,1,6898.5,387129.39999997616,7118,WL,A,2.0
3,12.07800006866455,learn,47921.99993133545,Mon Apr 07 2025 09:46:12 GMT-0500 (Central Daylight Time),394177.0,A,harpchimn,O,backspace,116,1,7047.600000023842,387129.39999997616,7118,WL,A,2.0
3,12.211000204086304,learn,47788.999795913696,Mon Apr 07 2025 09:46:12 GMT-0500 (Central Daylight Time),394309.89999997616,A,harpchim,O,backspace,110,1,7180.5,387129.39999997616,7118,WL,A,2.0
3,12.34500002861023,learn,47654.99997138977,Mon Apr 07 2025 09:46:12 GMT-0500 (Central Daylight Time),394443.10000002384,A,harpchi,O,backspace,118,1,7313.700000047684,387129.39999997616,7118,WL,A,2.0
3,12.495000123977661,learn,47504.99987602234,Mon Apr 07 2025 09:46:12 GMT-0500 (Central Daylight Time),394593.6999999285,A,harpch,O,backspace,138,1,7464.299999952316,387129.39999997616,7118,WL,A,2.0
3,12.746000051498413,learn,47253.99994850159,Mon Apr 07 2025 09:46:12 GMT-0500 (Central Daylight Time),394844.1999999285,A,harpc,O,backspace,219,1,7714.799999952316,387129.39999997616,7118,WL,A,2.0
3,12.912000179290771,learn,47087.99982070923,Mon Apr 07 2025 09:46:12 GMT-0500 (Central Daylight Time),395010.89999997616,A,harp,O,backspace,124,1,7881.5,387129.39999997616,7118,WL,A,2.0
3,13.794000148773193,learn,46205.99985122681,Mon Apr 07 2025 09:46:12 GMT-0500 (Central Daylight Time),395892.7999999523,A,harpenter,O,enter,856,1,8763.399999976158,387129.39999997616,7118,WL,A,2.0
3,14.894999980926514,learn,45105.000019073486,Mon Apr 07 2025 09:46:12 GMT-0500 (Central Daylight Time),396993.6999999285,A,c,O,c,1082,1,1100.5999999046326,395893.10000002384,7118,WL,A,3.0
3,15.24400019645691,learn,44755.99980354309,Mon Apr 07 2025 09:46:12 GMT-0500 (Central Daylight Time),397342.60000002384,A,ch,O,h,324,1,1449.5,395893.10000002384,7118,WL,A,3.0
3,15.611000061035156,learn,44388.999938964844,Mon Apr 07 2025 09:46:12 GMT-0500 (Central Daylight Time),397709.7999999523,A,chi,O,i,356,1,1816.6999999284744,395893.10000002384,7118,WL,A,3.0
3,15.978000164031982,learn,44021.99983596802,Mon Apr 07 2025 09:46:12 GMT-0500 (Central Daylight Time),398076.1999999285,A,chim,O,m,334,1,2183.0999999046326,395893.10000002384,7118,WL,A,3.0
3,16.195000171661377,learn,43804.99982833862,Mon Apr 07 2025 09:46:12 GMT-0500 (Central Daylight Time),398293.2999999523,A,chimn,O,n,193,1,2400.1999999284744,395893.10000002384,7118,WL,A,3.0
3,16.528000116348267,learn,43471.99988365173,Mon Apr 07 2025 09:46:12 GMT-0500 (Central Daylight Time),398626.2999999523,A,chimne,O,e,299,1,2733.1999999284744,395893.10000002384,7118,WL,A,3.0
3,16.961000204086304,learn,43038.999795913696,Mon Apr 07 2025 09:46:12 GMT-0500 (Central Daylight Time),399059.5,A,chimney,O,y,401,1,3166.399999976158,395893.10000002384,7118,WL,A,3.0
3,18.009000062942505,learn,41990.999937057495,Mon Apr 07 2025 09:46:12 GMT-0500 (Central Daylight Time),400108.0,A,chimneyenter,O,enter,1016,1,4214.899999976158,395893.10000002384,7118,WL,A,3.0
3,21.4760000705719,learn,38523.9999294281,Mon Apr 07 2025 09:46:12 GMT-0500 (Central Daylight Time),403574.6999999285,A,g,O,g,3450,1,3466.2999999523163,400108.39999997616,7118,WL,A,4.0
3,21.676000118255615,learn,38323.999881744385,Mon Apr 07 2025 09:46:12 GMT-0500 (Central Daylight Time),403774.39999997616,A,go,O,o,171,1,3666.0,400108.39999997616,7118,WL,A,4.0
3,21.87600016593933,learn,38123.99983406067,Mon Apr 07 2025 09:46:12 GMT-0500 (Central Daylight Time),403974.60000002384,A,gol,O,l,168,1,3866.2000000476837,400108.39999997616,7118,WL,A,4.0
3,22.37600016593933,learn,37623.99983406067,Mon Apr 07 2025 09:46:12 GMT-0500 (Central Daylight Time),404474.60000002384,A,gold,O,d,460,1,4366.200000047684,400108.39999997616,7118,WL,A,4.0
3,22.758000135421753,learn,37241.99986457825,Mon Apr 07 2025 09:46:12 GMT-0500 (Central Daylight Time),404856.6999999285,A,goldenter,O,enter,351,1,4748.299999952316,400108.39999997616,7118,WL,A,4.0
3,23.30900001525879,learn,36690.99998474121,Mon Apr 07 2025 09:46:12 GMT-0500 (Central Daylight Time),405407.5,A,a,O,a,542,1,550.6000000238419,404856.89999997616,7118,WL,A,5.0
3,23.69099998474121,learn,36309.00001525879,Mon Apr 07 2025 09:46:12 GMT-0500 (Central Daylight Time),405790.0,A,ap,O,p,354,1,933.1000000238419,404856.89999997616,7118,WL,A,5.0
3,23.808000087738037,learn,36191.99991226196,Mon Apr 07 2025 09:46:12 GMT-0500 (Central Daylight Time),405906.6999999285,A,app,O,p,84,1,1049.7999999523163,404856.89999997616,7118,WL,A,5.0
3,24.009000062942505,learn,35990.999937057495,Mon Apr 07 2025 09:46:12 GMT-0500 (Central Daylight Time),406107.1999999285,A,appl,O,l,180,1,1250.2999999523163,404856.89999997616,7118,WL,A,5.0
3,24.225000143051147,learn,35774.99985694885,Mon Apr 07 2025 09:46:12 GMT-0500 (Central Daylight Time),406323.39999997616,A,apple,O,e,184,1,1466.5,404856.89999997616,7118,WL,A,5.0
3,25.207000017166138,learn,34792.99998283386,Mon Apr 07 2025 09:46:12 GMT-0500 (Central Daylight Time),407305.7999999523,A,appleenter,O,enter,954,1,2448.899999976158,404856.89999997616,7118,WL,A,5.0
3,25.975000143051147,learn,34024.99985694885,Mon Apr 07 2025 09:46:12 GMT-0500 (Central Daylight Time),408073.2999999523,A,k,O,k,749,1,767.1999999284744,407306.10000002384,7118,WL,A,6.0
3,26.258000135421753,learn,33741.99986457825,Mon Apr 07 2025 09:46:12 GMT-0500 (Central Daylight Time),408356.5,A,ke,O,e,250,1,1050.3999999761581,407306.10000002384,7118,WL,A,6.0
3,26.573000192642212,learn,33426.99980735779,Mon Apr 07 2025 09:46:12 GMT-0500 (Central Daylight Time),408671.7999999523,A,key,O,y,285,1,1365.6999999284744,407306.10000002384,7118,WL,A,6.0
3,27.641000032424927,learn,32358.999967575073,Mon Apr 07 2025 09:46:12 GMT-0500 (Central Daylight Time),409739.39999997616,A,keyf,O,f,1046,1,2433.2999999523163,407306.10000002384,7118,WL,A,6.0
3,27.874000072479248,learn,32125.999927520752,Mon Apr 07 2025 09:46:12 GMT-0500 (Central Daylight Time),409972.6999999285,A,keyfl,O,l,192,1,2666.5999999046326,407306.10000002384,7118,WL,A,6.0
3,28.04100012779236,learn,31958.99987220764,Mon Apr 07 2025 09:46:12 GMT-0500 (Central Daylight Time),410139.5,A,keyflo,O,o,125,1,2833.399999976158,407306.10000002384,7118,WL,A,6.0
3,28.391000032424927,learn,31608.999967575073,Mon Apr 07 2025 09:46:12 GMT-0500 (Central Daylight Time),410489.39999997616,A,keyflow,O,w,320,1,3183.2999999523163,407306.10000002384,7118,WL,A,6.0
3,28.59000015258789,learn,31409.99984741211,Mon Apr 07 2025 09:46:12 GMT-0500 (Central Daylight Time),410689.0,A,keyflowe,O,e,161,1,3382.899999976158,407306.10000002384,7118,WL,A,6.0
3,28.77400016784668,learn,31225.99983215332,Mon Apr 07 2025 09:46:12 GMT-0500 (Central Daylight Time),410872.39999997616,A,keyflower,O,r,155,1,3566.2999999523163,407306.10000002384,7118,WL,A,6.0
3,30.02300000190735,learn,29976.99999809265,Mon Apr 07 2025 09:46:12 GMT-0500 (Central Daylight Time),412121.89999997616,A,keyflowe,O,backspace,1220,1,4815.799999952316,407306.10000002384,7118,WL,A,6.0
3,30.207000017166138,learn,29792.999982833862,Mon Apr 07 2025 09:46:12 GMT-0500 (Central Daylight Time),412305.1999999285,A,keyflow,O,backspace,146,1,4999.099999904633,407306.10000002384,7118,WL,A,6.0
3,30.35700011253357,learn,29642.99988746643,Mon Apr 07 2025 09:46:12 GMT-0500 (Central Daylight Time),412455.2999999523,A,keyflo,O,backspace,114,1,5149.199999928474,407306.10000002384,7118,WL,A,6.0
3,30.539000034332275,learn,29460.999965667725,Mon Apr 07 2025 09:46:12 GMT-0500 (Central Daylight Time),412638.0,A,keyfl,O,backspace,154,1,5331.899999976158,407306.10000002384,7118,WL,A,6.0
3,30.706000089645386,learn,29293.999910354614,Mon Apr 07 2025 09:46:12 GMT-0500 (Central Daylight Time),412805.10000002384,A,keyf,O,backspace,125,1,5499.0,407306.10000002384,7118,WL,A,6.0
3,30.85700011253357,learn,29142.99988746643,Mon Apr 07 2025 09:46:12 GMT-0500 (Central Daylight Time),412955.1999999285,A,key,O,backspace,113,1,5649.099999904633,407306.10000002384,7118,WL,A,6.0
3,31.67200016975403,learn,28327.99983024597,Mon Apr 07 2025 09:46:12 GMT-0500 (Central Daylight Time),413770.5,A,keyenter,O,enter,779,1,6464.399999976158,407306.10000002384,7118,WL,A,6.0
3,32.88900017738342,learn,27110.999822616577,Mon Apr 07 2025 09:46:12 GMT-0500 (Central Daylight Time),414987.6999999285,A,f,O,f,1195,1,1216.8999999761581,413770.7999999523,7118,WL,A,7.0
3,33.121999979019165,learn,26878.000020980835,Mon Apr 07 2025 09:46:12 GMT-0500 (Central Daylight Time),415220.7999999523,A,fl,O,l,192,1,1450.0,413770.7999999523,7118,WL,A,7.0
3,33.2720000743866,learn,26727.999925613403,Mon Apr 07 2025 09:46:12 GMT-0500 (Central Daylight Time),415370.7999999523,A,flo,O,o,118,1,1600.0,413770.7999999523,7118,WL,A,7.0
3,33.5220000743866,learn,26477.999925613403,Mon Apr 07 2025 09:46:12 GMT-0500 (Central Daylight Time),415620.7999999523,A,flow,O,w,217,1,1850.0,413770.7999999523,7118,WL,A,7.0
3,33.72200012207031,learn,26277.999877929688,Mon Apr 07 2025 09:46:12 GMT-0500 (Central Daylight Time),415820.39999997616,A,flowe,O,e,167,1,2049.600000023842,413770.7999999523,7118,WL,A,7.0
3,33.88900017738342,learn,26110.999822616577,Mon Apr 07 2025 09:46:12 GMT-0500 (Central Daylight Time),415987.39999997616,A,flower,O,r,136,1,2216.600000023842,413770.7999999523,7118,WL,A,7.0
3,34.97100019454956,learn,25028.99980545044,Mon Apr 07 2025 09:46:12 GMT-0500 (Central Daylight Time),417069.1999999285,A,flowerenter,O,enter,1052,1,3298.399999976158,413770.7999999523,7118,WL,A,7.0
3,35.72100019454956,learn,24278.99980545044,Mon Apr 07 2025 09:46:12 GMT-0500 (Central Daylight Time),417820.0,A,m,O,m,737,1,750.5,417069.5,7118,WL,A,8.0
3,36.021000146865845,learn,23978.999853134155,Mon Apr 07 2025 09:46:12 GMT-0500 (Central Daylight Time),418119.89999997616,A,me,O,e,271,1,1050.3999999761581,417069.5,7118,WL,A,8.0
3,36.35600018501282,learn,23643.999814987183,Mon Apr 07 2025 09:46:12 GMT-0500 (Central Daylight Time),418453.0,A,mea,O,a,290,1,1383.5,417069.5,7118,WL,A,8.0
3,36.973000049591064,learn,23026.999950408936,Mon Apr 07 2025 09:46:12 GMT-0500 (Central Daylight Time),419069.5,A,mead,O,d,581,1,2000.0,417069.5,7118,WL,A,8.0
3,37.34000015258789,learn,22659.99984741211,Mon Apr 07 2025 09:46:12 GMT-0500 (Central Daylight Time),419436.39999997616,A,meado,O,o,326,1,2366.899999976158,417069.5,7118,WL,A,8.0
3,37.75600004196167,learn,22243.99995803833,Mon Apr 07 2025 09:46:12 GMT-0500 (Central Daylight Time),419852.6999999285,A,meadow,O,w,380,1,2783.1999999284744,417069.5,7118,WL,A,8.0
3,38.40499997138977,learn,21595.00002861023,Mon Apr 07 2025 09:46:12 GMT-0500 (Central Daylight Time),420501.5,A,meadowenter,O,enter,624,1,3432.0,417069.5,7118,WL,A,8.0
3,39.25500011444092,learn,20744.999885559082,Mon Apr 07 2025 09:46:12 GMT-0500 (Central Daylight Time),421352.1999999285,A,t,O,t,833,1,850.5,420501.6999999285,7118,WL,A,9.0
3,39.50500011444092,learn,20494.999885559082,Mon Apr 07 2025 09:46:12 GMT-0500 (Central Daylight Time),421602.0,A,tr,O,r,221,1,1100.3000000715256,420501.6999999285,7118,WL,A,9.0
3,41.08800005912781,learn,18911.999940872192,Mon Apr 07 2025 09:46:12 GMT-0500 (Central Daylight Time),423185.0,A,tra,O,a,1546,1,2683.3000000715256,420501.6999999285,7118,WL,A,9.0
3,41.254000186920166,learn,18745.999813079834,Mon Apr 07 2025 09:46:12 GMT-0500 (Central Daylight Time),423351.2999999523,A,trai,O,i,138,1,2849.600000023842,420501.6999999285,7118,WL,A,9.0
3,41.771000146865845,learn,18228.999853134155,Mon Apr 07 2025 09:46:12 GMT-0500 (Central Daylight Time),423867.89999997616,A,train,O,n,484,1,3366.2000000476837,420501.6999999285,7118,WL,A,9.0
3,42.90300011634827,learn,17096.999883651733,Mon Apr 07 2025 09:46:12 GMT-0500 (Central Daylight Time),425000.0,A,trainenter,O,enter,1103,1,4498.300000071526,420501.6999999285,7118,WL,A,9.0
3,43.754000186920166,learn,16245.999813079834,Mon Apr 07 2025 09:46:12 GMT-0500 (Central Daylight Time),425850.6999999285,A,a,O,a,839,1,850.5,425000.1999999285,7118,WL,A,10.0
3,44.12000012397766,learn,15879.999876022339,Mon Apr 07 2025 09:46:12 GMT-0500 (Central Daylight Time),426216.89999997616,A,ap,O,p,338,1,1216.7000000476837,425000.1999999285,7118,WL,A,10.0
3,44.22000002861023,learn,15779.99997138977,Mon Apr 07 2025 09:46:12 GMT-0500 (Central Daylight Time),426316.2999999523,A,app,O,p,79,1,1316.1000000238419,425000.1999999285,7118,WL,A,10.0
3,44.754000186920166,learn,15245.999813079834,Mon Apr 07 2025 09:46:12 GMT-0500 (Central Daylight Time),426850.39999997616,A,appl,O,l,508,1,1850.2000000476837,425000.1999999285,7118,WL,A,10.0
3,44.9539999961853,learn,15046.000003814697,Mon Apr 07 2025 09:46:12 GMT-0500 (Central Daylight Time),427050.5,A,apple,O,e,160,1,2050.3000000715256,425000.1999999285,7118,WL,A,10.0
3,46.235000133514404,learn,13764.999866485596,Mon Apr 07 2025 09:46:12 GMT-0500 (Central Daylight Time),428332.1999999285,A,appleenter,O,enter,1242,1,3332.0,425000.1999999285,7118,WL,A,10.0
3,47.10300016403198,learn,12896.999835968018,Mon Apr 07 2025 09:46:12 GMT-0500 (Central Daylight Time),429199.5,A,g,O,g,859,1,867.0,428332.5,7118,WL,A,11.0
3,47.45300006866455,learn,12546.99993133545,Mon Apr 07 2025 09:46:12 GMT-0500 (Central Daylight Time),429549.7999999523,A,go,O,o,323,1,1217.2999999523163,428332.5,7118,WL,A,11.0
3,47.65300011634827,learn,12346.999883651733,Mon Apr 07 2025 09:46:12 GMT-0500 (Central Daylight Time),429749.89999997616,A,gol,O,l,176,1,1417.3999999761581,428332.5,7118,WL,A,11.0
3,47.93600010871887,learn,12063.999891281128,Mon Apr 07 2025 09:46:12 GMT-0500 (Central Daylight Time),430032.6999999285,A,gold,O,d,255,1,1700.1999999284744,428332.5,7118,WL,A,11.0
3,48.58500003814697,learn,11414.999961853027,Mon Apr 07 2025 09:46:12 GMT-0500 (Central Daylight Time),430681.5,A,goldenter,O,enter,617,1,2349.0,428332.5,7118,WL,A,11.0
3,55.5,learn,4500.0,Mon Apr 07 2025 09:46:12 GMT-0500 (Central Daylight Time),437596.89999997616,A,r,O,r,6902,1,6915.100000023842,430681.7999999523,7118,WL,A,12.0
3,55.91600012779236,learn,4083.9998722076416,Mon Apr 07 2025 09:46:12 GMT-0500 (Central Daylight Time),438013.2999999523,A,ra,O,a,382,1,7331.5,430681.7999999523,7118,WL,A,12.0
3,56.85000014305115,learn,3149.9998569488525,Mon Apr 07 2025 09:46:12 GMT-0500 (Central Daylight Time),438946.2999999523,A,rat,O,t,901,1,8264.5,430681.7999999523,7118,WL,A,12.0
3,56.99900007247925,learn,3000.999927520752,Mon Apr 07 2025 09:46:12 GMT-0500 (Central Daylight Time),439096.2999999523,A,ratt,O,t,121,1,8414.5,430681.7999999523,7118,WL,A,12.0
3,57.366000175476074,learn,2633.999824523926,Mon Apr 07 2025 09:46:12 GMT-0500 (Central Daylight Time),439462.89999997616,A,rattl,O,l,331,1,8781.100000023842,430681.7999999523,7118,WL,A,12.0
3,57.58200001716614,learn,2417.9999828338623,Mon Apr 07 2025 09:46:12 GMT-0500 (Central Daylight Time),439679.2999999523,A,rattle,O,e,186,1,8997.5,430681.7999999523,7118,WL,A,12.0
3,58.598000049591064,learn,1401.9999504089355,Mon Apr 07 2025 09:46:12 GMT-0500 (Central Daylight Time),440694.89999997616,A,rattleenter,O,enter,980,1,10013.100000023842,430681.7999999523,7118,WL,A,12.0
3,60.015000104904175,learn,-15.000104904174805,Mon Apr 07 2025 09:46:12 GMT-0500 (Central Daylight Time),442111.89999997616,A,None,O,None,1409,1,1416.7999999523163,440695.10000002384,7118,WL,A,13.0
4,1.1670000553131104,learn,58832.99994468689,Mon Apr 07 2025 09:46:12 GMT-0500 (Central Daylight Time),522452.7999999523,A,s,O,s,1143,1,1166.6000000238419,521286.1999999285,7118,WL,A,1.0
4,1.249000072479248,learn,58750.99992752075,Mon Apr 07 2025 09:46:12 GMT-0500 (Central Daylight Time),522534.89999997616,A,sa,O,a,46,1,1248.7000000476837,521286.1999999285,7118,WL,A,1.0
4,1.5990002155303955,learn,58400.999784469604,Mon Apr 07 2025 09:46:12 GMT-0500 (Central Daylight Time),522885.39999997616,A,sal,O,l,328,1,1599.2000000476837,521286.1999999285,7118,WL,A,1.0
4,1.9490001201629639,learn,58050.999879837036,Mon Apr 07 2025 09:46:12 GMT-0500 (Central Daylight Time),523235.5,A,salt,O,t,309,1,1949.3000000715256,521286.1999999285,7118,WL,A,1.0
4,2.265000104904175,learn,57734.999895095825,Mon Apr 07 2025 09:46:12 GMT-0500 (Central Daylight Time),523551.0,A,saltenter,O,enter,290,1,2264.8000000715256,521286.1999999285,7118,WL,A,1.0
4,3.3990001678466797,learn,56600.99983215332,Mon Apr 07 2025 09:46:12 GMT-0500 (Central Daylight Time),524684.7999999523,A,b,O,b,1120,1,1133.6000000238419,523551.1999999285,7118,WL,A,2.0
4,3.749000072479248,learn,56250.99992752075,Mon Apr 07 2025 09:46:12 GMT-0500 (Central Daylight Time),525034.7999999523,A,bu,O,u,309,1,1483.6000000238419,523551.1999999285,7118,WL,A,2.0
4,4.182000160217285,learn,55817.999839782715,Mon Apr 07 2025 09:46:12 GMT-0500 (Central Daylight Time),525468.0,A,but,O,t,392,1,1916.8000000715256,523551.1999999285,7118,WL,A,2.0
4,4.29800009727478,learn,55701.99990272522,Mon Apr 07 2025 09:46:12 GMT-0500 (Central Daylight Time),525583.6999999285,A,butt,O,t,86,1,2032.5,523551.1999999285,7118,WL,A,2.0
4,4.5320000648498535,learn,55467.99993515015,Mon Apr 07 2025 09:46:12 GMT-0500 (Central Daylight Time),525817.7999999523,A,butto,O,o,214,1,2266.600000023842,523551.1999999285,7118,WL,A,2.0
4,4.732000112533569,learn,55267.99988746643,Mon Apr 07 2025 09:46:12 GMT-0500 (Central Daylight Time),526018.0,A,button,O,n,173,1,2466.8000000715256,523551.1999999285,7118,WL,A,2.0
4,5.281000137329102,learn,54718.9998626709,Mon Apr 07 2025 09:46:12 GMT-0500 (Central Daylight Time),526566.6999999285,A,buttonenter,O,enter,519,1,3015.5,523551.1999999285,7118,WL,A,2.0
4,6.498000144958496,learn,53501.999855041504,Mon Apr 07 2025 09:46:12 GMT-0500 (Central Daylight Time),527783.8999999762,A,r,O,r,1200,1,1217.0,526566.8999999762,7118,WL,A,3.0
4,6.748000144958496,learn,53251.999855041504,Mon Apr 07 2025 09:46:12 GMT-0500 (Central Daylight Time),528033.8999999762,A,ra,O,a,212,1,1467.0,526566.8999999762,7118,WL,A,3.0
4,6.998000144958496,learn,53001.999855041504,Mon Apr 07 2025 09:46:12 GMT-0500 (Central Daylight Time),528283.7999999523,A,rat,O,t,216,1,1716.8999999761581,526566.8999999762,7118,WL,A,3.0
4,7.114000082015991,learn,52885.99991798401,Mon Apr 07 2025 09:46:12 GMT-0500 (Central Daylight Time),528400.3999999762,A,ratt,O,t,86,1,1833.5,526566.8999999762,7118,WL,A,3.0
4,7.581000089645386,learn,52418.999910354614,Mon Apr 07 2025 09:46:12 GMT-0500 (Central Daylight Time),528867.0,A,rattl,O,l,441,1,2300.100000023842,526566.8999999762,7118,WL,A,3.0
4,8.231000185012817,learn,51768.99981498718,Mon Apr 07 2025 09:46:12 GMT-0500 (Central Daylight Time),529516.7999999523,A,rattle,O,e,608,1,2949.899999976158,526566.8999999762,7118,WL,A,3.0
4,9.462000131607056,learn,50537.999868392944,Mon Apr 07 2025 09:46:12 GMT-0500 (Central Daylight Time),530748.6000000238,A,rattleenter,O,enter,1205,1,4181.700000047684,526566.8999999762,7118,WL,A,3.0
4,10.847000122070312,learn,49152.99987792969,Mon Apr 07 2025 09:46:12 GMT-0500 (Central Daylight Time),532132.6999999285,A,g,O,g,1362,1,1383.7999999523163,530748.8999999762,7118,WL,A,4.0
4,11.046000003814697,learn,48953.9999961853,Mon Apr 07 2025 09:46:12 GMT-0500 (Central Daylight Time),532332.5,A,go,O,o,167,1,1583.6000000238419,530748.8999999762,7118,WL,A,4.0
4,11.229000091552734,learn,48770.999908447266,Mon Apr 07 2025 09:46:12 GMT-0500 (Central Daylight Time),532515.5,A,gol,O,l,157,1,1766.6000000238419,530748.8999999762,7118,WL,A,4.0
4,11.480000019073486,learn,48519.999980926514,Mon Apr 07 2025 09:46:12 GMT-0500 (Central Daylight Time),532765.7999999523,A,gold,O,d,224,1,2016.8999999761581,530748.8999999762,7118,WL,A,4.0
4,13.045000076293945,learn,46954.999923706055,Mon Apr 07 2025 09:46:12 GMT-0500 (Central Daylight Time),534330.6999999285,A,goldenter,O,enter,1524,1,3581.7999999523163,530748.8999999762,7118,WL,A,4.0
4,13.879000186920166,learn,46120.999813079834,Mon Apr 07 2025 09:46:12 GMT-0500 (Central Daylight Time),535164.6999999285,A,k,O,k,812,1,833.6999999284744,534331.0,7118,WL,A,5.0
4,14.062000036239624,learn,45937.999963760376,Mon Apr 07 2025 09:46:12 GMT-0500 (Central Daylight Time),535348.0,A,ke,O,e,143,1,1017.0,534331.0,7118,WL,A,5.0
4,14.444000005722046,learn,45555.999994277954,Mon Apr 07 2025 09:46:12 GMT-0500 (Central Daylight Time),535730.5,A,key,O,y,351,1,1399.5,534331.0,7118,WL,A,5.0
4,14.978000164031982,learn,45021.99983596802,Mon Apr 07 2025 09:46:12 GMT-0500 (Central Daylight Time),536263.6999999285,A,keyenter,O,enter,517,1,1932.6999999284744,534331.0,7118,WL,A,5.0
4,15.561000108718872,learn,44438.99989128113,Mon Apr 07 2025 09:46:12 GMT-0500 (Central Daylight Time),536847.3999999762,A,a,O,a,575,1,583.3999999761581,536264.0,7118,WL,A,6.0
4,15.895000219345093,learn,44104.99978065491,Mon Apr 07 2025 09:46:12 GMT-0500 (Central Daylight Time),537180.6000000238,A,ap,O,p,299,1,916.6000000238419,536264.0,7118,WL,A,6.0
4,16.011000156402588,learn,43988.99984359741,Mon Apr 07 2025 09:46:12 GMT-0500 (Central Daylight Time),537297.1999999285,A,app,O,p,87,1,1033.1999999284744,536264.0,7118,WL,A,6.0
4,16.211000204086304,learn,43788.999795913696,Mon Apr 07 2025 09:46:12 GMT-0500 (Central Daylight Time),537497.3999999762,A,appl,O,l,162,1,1233.3999999761581,536264.0,7118,WL,A,6.0
4,16.445000171661377,learn,43554.99982833862,Mon Apr 07 2025 09:46:12 GMT-0500 (Central Daylight Time),537731.1000000238,A,apple,O,e,194,1,1467.1000000238419,536264.0,7118,WL,A,6.0
4,16.860000133514404,learn,43139.999866485596,Mon Apr 07 2025 09:46:12 GMT-0500 (Central Daylight Time),538146.1999999285,A,appleenter,O,enter,374,1,1882.1999999284744,536264.0,7118,WL,A,6.0
4,20.9280002117157,learn,39071.9997882843,Mon Apr 07 2025 09:46:12 GMT-0500 (Central Daylight Time),542212.5,A,t,O,t,4052,1,4066.0,538146.5,7118,WL,A,7.0
4,21.49500012397766,learn,38504.99987602234,Mon Apr 07 2025 09:46:12 GMT-0500 (Central Daylight Time),542779.0,A,tr,O,r,527,1,4632.5,538146.5,7118,WL,A,7.0
4,21.878000020980835,learn,38121.999979019165,Mon Apr 07 2025 09:46:12 GMT-0500 (Central Daylight Time),543162.0,A,tra,O,a,351,1,5015.5,538146.5,7118,WL,A,7.0
4,22.16200017929077,learn,37837.99982070923,Mon Apr 07 2025 09:46:12 GMT-0500 (Central Daylight Time),543445.8999999762,A,trai,O,i,256,1,5299.399999976158,538146.5,7118,WL,A,7.0
4,22.361000061035156,learn,37638.999938964844,Mon Apr 07 2025 09:46:12 GMT-0500 (Central Daylight Time),543645.3999999762,A,train,O,n,158,1,5498.899999976158,538146.5,7118,WL,A,7.0
4,22.91000008583069,learn,37089.99991416931,Mon Apr 07 2025 09:46:12 GMT-0500 (Central Daylight Time),544194.1000000238,A,trainenter,O,enter,509,1,6047.600000023842,538146.5,7118,WL,A,7.0
4,23.461000204086304,learn,36538.999795913696,Mon Apr 07 2025 09:46:12 GMT-0500 (Central Daylight Time),544745.1999999285,A,b,O,b,533,1,550.7999999523163,544194.3999999762,7118,WL,A,8.0
4,24.009999990463257,learn,35990.00000953674,Mon Apr 07 2025 09:46:12 GMT-0500 (Central Daylight Time),545294.5,A,bi,O,i,522,1,1100.1000000238419,544194.3999999762,7118,WL,A,8.0
4,24.859000205993652,learn,35140.99979400635,Mon Apr 07 2025 09:46:12 GMT-0500 (Central Daylight Time),546143.7999999523,A,b,O,backspace,811,1,1949.3999999761581,544194.3999999762,7118,WL,A,8.0
4,25.743000030517578,learn,34256.99996948242,Mon Apr 07 2025 09:46:12 GMT-0500 (Central Daylight Time),547027.6999999285,A,bo,O,o,857,1,2833.2999999523163,544194.3999999762,7118,WL,A,8.0
4,25.826000213623047,learn,34173.99978637695,Mon Apr 07 2025 09:46:12 GMT-0500 (Central Daylight Time),547110.0,A,boo,O,o,54,1,2915.600000023842,544194.3999999762,7118,WL,A,8.0
4,26.81000018119812,learn,33189.99981880188,Mon Apr 07 2025 09:46:12 GMT-0500 (Central Daylight Time),548094.2999999523,A,book,O,k,964,1,3899.899999976158,544194.3999999762,7118,WL,A,8.0
4,28.008000135421753,learn,31991.999864578247,Mon Apr 07 2025 09:46:12 GMT-0500 (Central Daylight Time),549292.5,A,bookenter,O,enter,1161,1,5098.100000023842,544194.3999999762,7118,WL,A,8.0
4,28.926000118255615,learn,31073.999881744385,Mon Apr 07 2025 09:46:12 GMT-0500 (Central Daylight Time),550209.8999999762,A,f,O,f,898,1,917.1000000238419,549292.7999999523,7118,WL,A,9.0
4,29.52500009536743,learn,30474.99990463257,Mon Apr 07 2025 09:46:12 GMT-0500 (Central Daylight Time),550809.7999999523,A,fl,O,l,569,1,1517.0,549292.7999999523,7118,WL,A,9.0
4,30.04200005531311,learn,29957.99994468689,Mon Apr 07 2025 09:46:12 GMT-0500 (Central Daylight Time),551326.2999999523,A,flo,O,o,494,1,2033.5,549292.7999999523,7118,WL,A,9.0
4,30.45800018310547,learn,29541.99981689453,Mon Apr 07 2025 09:46:12 GMT-0500 (Central Daylight Time),551742.2999999523,A,flow,O,w,390,1,2449.5,549292.7999999523,7118,WL,A,9.0
4,30.642000198364258,learn,29357.999801635742,Mon Apr 07 2025 09:46:12 GMT-0500 (Central Daylight Time),551926.1000000238,A,flowe,O,e,158,1,2633.3000000715256,549292.7999999523,7118,WL,A,9.0
4,30.825000047683716,learn,29174.999952316284,Mon Apr 07 2025 09:46:12 GMT-0500 (Central Daylight Time),552109.1999999285,A,flower,O,r,149,1,2816.399999976158,549292.7999999523,7118,WL,A,9.0
4,31.69000005722046,learn,28309.99994277954,Mon Apr 07 2025 09:46:12 GMT-0500 (Central Daylight Time),552974.6000000238,A,flowerenter,O,enter,837,1,3681.8000000715256,549292.7999999523,7118,WL,A,9.0
4,32.52400016784668,learn,27475.99983215332,Mon Apr 07 2025 09:46:12 GMT-0500 (Central Daylight Time),553808.5,A,m,O,m,824,1,833.7000000476837,552974.7999999523,7118,WL,A,10.0
4,32.79100012779236,learn,27208.99987220764,Mon Apr 07 2025 09:46:12 GMT-0500 (Central Daylight Time),554075.2999999523,A,me,O,e,227,1,1100.5,552974.7999999523,7118,WL,A,10.0
4,33.09100008010864,learn,26908.999919891357,Mon Apr 07 2025 09:46:12 GMT-0500 (Central Daylight Time),554375.2999999523,A,mea,O,a,268,1,1400.5,552974.7999999523,7118,WL,A,10.0
4,33.37400007247925,learn,26625.999927520752,Mon Apr 07 2025 09:46:12 GMT-0500 (Central Daylight Time),554658.5,A,mead,O,d,254,1,1683.7000000476837,552974.7999999523,7118,WL,A,10.0
4,33.790000200271606,learn,26209.999799728394,Mon Apr 07 2025 09:46:12 GMT-0500 (Central Daylight Time),555074.6999999285,A,meado,O,o,384,1,2099.899999976158,552974.7999999523,7118,WL,A,10.0
4,34.20700001716614,learn,25792.999982833862,Mon Apr 07 2025 09:46:12 GMT-0500 (Central Daylight Time),555491.5,A,meadow,O,w,386,1,2516.7000000476837,552974.7999999523,7118,WL,A,10.0
4,35.622000217437744,learn,24377.999782562256,Mon Apr 07 2025 09:46:12 GMT-0500 (Central Daylight Time),556906.6999999285,A,meadowenter,O,enter,1383,1,3931.899999976158,552974.7999999523,7118,WL,A,10.0
4,36.4060001373291,learn,23593.9998626709,Mon Apr 07 2025 09:46:12 GMT-0500 (Central Daylight Time),557690.7999999523,A,a,O,a,764,1,783.7999999523163,556907.0,7118,WL,A,11.0
4,36.706000089645386,learn,23293.999910354614,Mon Apr 07 2025 09:46:12 GMT-0500 (Central Daylight Time),557990.6999999285,A,ap,O,p,265,1,1083.6999999284744,556907.0,7118,WL,A,11.0
4,36.8050000667572,learn,23194.999933242798,Mon Apr 07 2025 09:46:12 GMT-0500 (Central Daylight Time),558089.6000000238,A,app,O,p,67,1,1182.6000000238419,556907.0,7118,WL,A,11.0
4,37.00600004196167,learn,22993.99995803833,Mon Apr 07 2025 09:46:12 GMT-0500 (Central Daylight Time),558290.3999999762,A,appl,O,l,184,1,1383.3999999761581,556907.0,7118,WL,A,11.0
4,37.474000215530396,learn,22525.999784469604,Mon Apr 07 2025 09:46:12 GMT-0500 (Central Daylight Time),558757.8999999762,A,apple,O,e,442,1,1850.8999999761581,556907.0,7118,WL,A,11.0
4,38.955000162124634,learn,21044.999837875366,Mon Apr 07 2025 09:46:12 GMT-0500 (Central Daylight Time),560238.8999999762,A,appleenter,O,enter,1458,1,3331.899999976158,556907.0,7118,WL,A,11.0
4,40.28800010681152,learn,19711.999893188477,Mon Apr 07 2025 09:46:12 GMT-0500 (Central Daylight Time),561572.1000000238,A,r,O,r,1312,1,1333.0,560239.1000000238,7118,WL,A,12.0
4,40.63800001144409,learn,19361.99998855591,Mon Apr 07 2025 09:46:12 GMT-0500 (Central Daylight Time),561922.6000000238,A,ra,O,a,323,1,1683.5,560239.1000000238,7118,WL,A,12.0
4,41.05400013923645,learn,18945.99986076355,Mon Apr 07 2025 09:46:12 GMT-0500 (Central Daylight Time),562338.6000000238,A,rat,O,t,374,1,2099.5,560239.1000000238,7118,WL,A,12.0
4,41.188000202178955,learn,18811.999797821045,Mon Apr 07 2025 09:46:12 GMT-0500 (Central Daylight Time),562472.1000000238,A,ratt,O,t,115,1,2233.0,560239.1000000238,7118,WL,A,12.0
4,41.38800001144409,learn,18611.99998855591,Mon Apr 07 2025 09:46:12 GMT-0500 (Central Daylight Time),562672.2999999523,A,rattl,O,l,179,1,2433.1999999284744,560239.1000000238,7118,WL,A,12.0
4,41.65500020980835,learn,18344.99979019165,Mon Apr 07 2025 09:46:12 GMT-0500 (Central Daylight Time),562939.1999999285,A,rattle,O,e,236,1,2700.0999999046326,560239.1000000238,7118,WL,A,12.0
4,43.07000017166138,learn,16929.999828338623,Mon Apr 07 2025 09:46:12 GMT-0500 (Central Daylight Time),564354.1000000238,A,rattleenter,O,enter,1374,1,4115.0,560239.1000000238,7118,WL,A,12.0
4,47.5530002117157,learn,12446.999788284302,Mon Apr 07 2025 09:46:12 GMT-0500 (Central Daylight Time),568837.1000000238,A,t,O,t,4468,1,4482.600000023842,564354.5,7118,WL,A,13.0
4,47.76900005340576,learn,12230.999946594238,Mon Apr 07 2025 09:46:12 GMT-0500 (Central Daylight Time),569053.3999999762,A,tr,O,r,194,1,4698.899999976158,564354.5,7118,WL,A,13.0
4,48.21900010108948,learn,11780.999898910522,Mon Apr 07 2025 09:46:12 GMT-0500 (Central Daylight Time),569503.5,A,tra,O,a,423,1,5149.0,564354.5,7118,WL,A,13.0
4,48.55200004577637,learn,11447.999954223633,Mon Apr 07 2025 09:46:12 GMT-0500 (Central Daylight Time),569836.7999999523,A,trai,O,i,300,1,5482.299999952316,564354.5,7118,WL,A,13.0
4,48.76900005340576,learn,11230.999946594238,Mon Apr 07 2025 09:46:12 GMT-0500 (Central Daylight Time),570053.5,A,train,O,n,174,1,5699.0,564354.5,7118,WL,A,13.0
4,50.11800003051758,learn,9881.999969482422,Mon Apr 07 2025 09:46:12 GMT-0500 (Central Daylight Time),571401.8999999762,A,trainenter,O,enter,1307,1,7047.399999976158,564354.5,7118,WL,A,13.0
4,60.015000104904175,learn,-15.000104904174805,Mon Apr 07 2025 09:46:12 GMT-0500 (Central Daylight Time),581299.6999999285,A,None,O,None,9891,1,9897.5,571402.1999999285,7118,WL,A,14.0
5,1.1660001277923584,learn,60000.0,Mon Apr 07 2025 09:46:12 GMT-0500 (Central Daylight Time),650777.1000000238,A,g,O,g,1140,1,1166.0,649611.1000000238,7118,WL,A,1.0
5,1.5,learn,60000.0,Mon Apr 07 2025 09:46:12 GMT-0500 (Central Daylight Time),651110.6000000238,A,go,O,o,305,1,1499.5,649611.1000000238,7118,WL,A,1.0
5,1.684000015258789,learn,60000.0,Mon Apr 07 2025 09:46:12 GMT-0500 (Central Daylight Time),651294.1000000238,A,gol,O,l,156,1,1683.0,649611.1000000238,7118,WL,A,1.0
5,1.9490001201629639,learn,60000.0,Mon Apr 07 2025 09:46:12 GMT-0500 (Central Daylight Time),651559.6999999285,A,gold,O,d,237,1,1948.5999999046326,649611.1000000238,7118,WL,A,1.0
5,2.248000144958496,learn,60000.0,Mon Apr 07 2025 09:46:12 GMT-0500 (Central Daylight Time),651858.8999999762,A,goldenter,O,enter,270,1,2247.7999999523163,649611.1000000238,7118,WL,A,1.0
5,3.4160001277923584,learn,60000.0,Mon Apr 07 2025 09:46:12 GMT-0500 (Central Daylight Time),653026.1999999285,A,c,O,c,1156,1,1166.8999999761581,651859.2999999523,7118,WL,A,2.0
5,3.931999921798706,learn,60000.0,Mon Apr 07 2025 09:46:12 GMT-0500 (Central Daylight Time),653542.3999999762,A,ch,O,h,489,1,1683.1000000238419,651859.2999999523,7118,WL,A,2.0
5,4.398999929428101,learn,60000.0,Mon Apr 07 2025 09:46:12 GMT-0500 (Central Daylight Time),654009.1999999285,A,chi,O,i,438,1,2149.899999976158,651859.2999999523,7118,WL,A,2.0
5,4.664999961853027,learn,60000.0,Mon Apr 07 2025 09:46:12 GMT-0500 (Central Daylight Time),654275.6999999285,A,chim,O,m,241,1,2416.399999976158,651859.2999999523,7118,WL,A,2.0
5,5.315999984741211,learn,60000.0,Mon Apr 07 2025 09:46:12 GMT-0500 (Central Daylight Time),654926.5,A,chimn,O,n,627,1,3067.2000000476837,651859.2999999523,7118,WL,A,2.0
5,5.631999969482422,learn,60000.0,Mon Apr 07 2025 09:46:12 GMT-0500 (Central Daylight Time),655242.1000000238,A,chimne,O,e,277,1,3382.8000000715256,651859.2999999523,7118,WL,A,2.0
5,6.013999938964844,learn,60000.0,Mon Apr 07 2025 09:46:12 GMT-0500 (Central Daylight Time),655624.7999999523,A,chimney,O,y,345,1,3765.5,651859.2999999523,7118,WL,A,2.0
5,6.397000074386597,learn,60000.0,Mon Apr 07 2025 09:46:12 GMT-0500 (Central Daylight Time),656007.6000000238,A,chimneyenter,O,enter,365,1,4148.300000071526,651859.2999999523,7118,WL,A,2.0
5,7.332000017166138,learn,60000.0,Mon Apr 07 2025 09:46:12 GMT-0500 (Central Daylight Time),656942.2999999523,A,r,O,r,927,1,934.5,656007.7999999523,7118,WL,A,3.0
5,7.648000001907349,learn,60000.0,Mon Apr 07 2025 09:46:12 GMT-0500 (Central Daylight Time),657258.6999999285,A,ra,O,a,278,1,1250.8999999761581,656007.7999999523,7118,WL,A,3.0
5,8.581000089645386,learn,60000.0,Mon Apr 07 2025 09:46:12 GMT-0500 (Central Daylight Time),658191.1999999285,A,rat,O,t,897,1,2183.399999976158,656007.7999999523,7118,WL,A,3.0
5,8.730000019073486,learn,60000.0,Mon Apr 07 2025 09:46:12 GMT-0500 (Central Daylight Time),658340.2999999523,A,ratt,O,t,115,1,2332.5,656007.7999999523,7118,WL,A,3.0
5,9.266000032424927,learn,60000.0,Mon Apr 07 2025 09:46:12 GMT-0500 (Central Daylight Time),658874.2999999523,A,rattl,O,l,510,1,2866.5,656007.7999999523,7118,WL,A,3.0
5,9.431999921798706,learn,60000.0,Mon Apr 07 2025 09:46:12 GMT-0500 (Central Daylight Time),659041.1000000238,A,rattle,O,e,129,1,3033.3000000715256,656007.7999999523,7118,WL,A,3.0
5,10.248000144958496,learn,60000.0,Mon Apr 07 2025 09:46:12 GMT-0500 (Central Daylight Time),659856.1999999285,A,rattleenter,O,enter,785,1,3848.399999976158,656007.7999999523,7118,WL,A,3.0
5,11.065000057220459,learn,60000.0,Mon Apr 07 2025 09:46:12 GMT-0500 (Central Daylight Time),660673.6000000238,A,f,O,f,799,1,817.1000000238419,659856.5,7118,WL,A,4.0
5,11.29800009727478,learn,60000.0,Mon Apr 07 2025 09:46:12 GMT-0500 (Central Daylight Time),660907.0,A,fi,O,i,194,1,1050.5,659856.5,7118,WL,A,4.0
5,11.515000104904175,learn,60000.0,Mon Apr 07 2025 09:46:12 GMT-0500 (Central Daylight Time),661123.6000000238,A,fin,O,n,176,1,1267.1000000238419,659856.5,7118,WL,A,4.0
5,12.414000034332275,learn,60000.0,Mon Apr 07 2025 09:46:12 GMT-0500 (Central Daylight Time),662023.0,A,fing,O,g,871,1,2166.5,659856.5,7118,WL,A,4.0
5,12.71399998664856,learn,60000.0,Mon Apr 07 2025 09:46:12 GMT-0500 (Central Daylight Time),662323.0,A,finge,O,e,257,1,2466.5,659856.5,7118,WL,A,4.0
5,12.814000129699707,learn,60000.0,Mon Apr 07 2025 09:46:12 GMT-0500 (Central Daylight Time),662422.2999999523,A,finger,O,r,72,1,2565.7999999523163,659856.5,7118,WL,A,4.0
5,13.730000019073486,learn,60000.0,Mon Apr 07 2025 09:46:12 GMT-0500 (Central Daylight Time),663338.3999999762,A,fingerenter,O,enter,892,1,3481.899999976158,659856.5,7118,WL,A,4.0
5,14.52999997138977,learn,60000.0,Mon Apr 07 2025 09:46:12 GMT-0500 (Central Daylight Time),664139.1000000238,A,b,O,b,780,1,800.5,663338.6000000238,7118,WL,A,5.0
5,14.897000074386597,learn,60000.0,Mon Apr 07 2025 09:46:12 GMT-0500 (Central Daylight Time),664505.6999999285,A,bu,O,u,335,1,1167.0999999046326,663338.6000000238,7118,WL,A,5.0
5,15.21399998664856,learn,60000.0,Mon Apr 07 2025 09:46:12 GMT-0500 (Central Daylight Time),664822.2999999523,A,bur,O,r,286,1,1483.6999999284744,663338.6000000238,7118,WL,A,5.0
5,15.880000114440918,learn,60000.0,Mon Apr 07 2025 09:46:12 GMT-0500 (Central Daylight Time),665488.8999999762,A,bu,O,backspace,636,1,2150.2999999523163,663338.6000000238,7118,WL,A,5.0
5,16.213000059127808,learn,60000.0,Mon Apr 07 2025 09:46:12 GMT-0500 (Central Daylight Time),665822.1000000238,A,but,O,t,305,1,2483.5,663338.6000000238,7118,WL,A,5.0
5,16.36299991607666,learn,60000.0,Mon Apr 07 2025 09:46:12 GMT-0500 (Central Daylight Time),665971.6000000238,A,butt,O,t,120,1,2633.0,663338.6000000238,7118,WL,A,5.0
5,16.578999996185303,learn,60000.0,Mon Apr 07 2025 09:46:12 GMT-0500 (Central Daylight Time),666187.7999999523,A,butto,O,o,185,1,2849.1999999284744,663338.6000000238,7118,WL,A,5.0
5,16.829999923706055,learn,60000.0,Mon Apr 07 2025 09:46:12 GMT-0500 (Central Daylight Time),666438.2999999523,A,button,O,n,232,1,3099.6999999284744,663338.6000000238,7118,WL,A,5.0
5,17.49500012397766,learn,60000.0,Mon Apr 07 2025 09:46:12 GMT-0500 (Central Daylight Time),667103.8999999762,A,buttonenter,O,enter,636,1,3765.2999999523163,663338.6000000238,7118,WL,A,5.0
5,18.246000051498413,learn,60000.0,Mon Apr 07 2025 09:46:12 GMT-0500 (Central Daylight Time),667854.5,A,a,O,a,735,1,750.3999999761581,667104.1000000238,7118,WL,A,6.0
5,18.578999996185303,learn,60000.0,Mon Apr 07 2025 09:46:12 GMT-0500 (Central Daylight Time),668187.6999999285,A,ap,O,p,299,1,1083.5999999046326,667104.1000000238,7118,WL,A,6.0
5,18.694999933242798,learn,60000.0,Mon Apr 07 2025 09:46:12 GMT-0500 (Central Daylight Time),668304.0,A,app,O,p,87,1,1199.8999999761581,667104.1000000238,7118,WL,A,6.0
5,18.878999948501587,learn,60000.0,Mon Apr 07 2025 09:46:12 GMT-0500 (Central Daylight Time),668487.2999999523,A,appl,O,l,164,1,1383.1999999284744,667104.1000000238,7118,WL,A,6.0
5,19.161999940872192,learn,60000.0,Mon Apr 07 2025 09:46:12 GMT-0500 (Central Daylight Time),668771.0,A,apple,O,e,245,1,1666.8999999761581,667104.1000000238,7118,WL,A,6.0
5,19.51099991798401,learn,60000.0,Mon Apr 07 2025 09:46:12 GMT-0500 (Central Daylight Time),669120.0,A,appleenter,O,enter,310,1,2015.8999999761581,667104.1000000238,7118,WL,A,6.0
5,20.795000076293945,learn,60000.0,Mon Apr 07 2025 09:46:12 GMT-0500 (Central Daylight Time),670404.0,A,s,O,s,1263,1,1283.8000000715256,669120.1999999285,7118,WL,A,7.0
5,20.873000144958496,learn,60000.0,Mon Apr 07 2025 09:46:12 GMT-0500 (Central Daylight Time),670481.5,A,sa,O,a,31,1,1361.3000000715256,669120.1999999285,7118,WL,A,7.0
5,21.09500002861023,learn,60000.0,Mon Apr 07 2025 09:46:12 GMT-0500 (Central Daylight Time),670703.5,A,sal,O,l,206,1,1583.3000000715256,669120.1999999285,7118,WL,A,7.0
5,21.477999925613403,learn,60000.0,Mon Apr 07 2025 09:46:12 GMT-0500 (Central Daylight Time),671087.0,A,salt,O,t,353,1,1966.8000000715256,669120.1999999285,7118,WL,A,7.0
5,21.8270001411438,learn,60000.0,Mon Apr 07 2025 09:46:12 GMT-0500 (Central Daylight Time),671435.6999999285,A,saltenter,O,enter,314,1,2315.5,669120.1999999285,7118,WL,A,7.0
5,22.844000101089478,learn,60000.0,Mon Apr 07 2025 09:46:12 GMT-0500 (Central Daylight Time),672453.1000000238,A,g,O,g,995,1,1017.1000000238419,671436.0,7118,WL,A,8.0
5,23.061000108718872,learn,60000.0,Mon Apr 07 2025 09:46:12 GMT-0500 (Central Daylight Time),672669.6000000238,A,go,O,o,185,1,1233.6000000238419,671436.0,7118,WL,A,8.0
5,23.24399995803833,learn,60000.0,Mon Apr 07 2025 09:46:12 GMT-0500 (Central Daylight Time),672852.7999999523,A,gol,O,l,153,1,1416.7999999523163,671436.0,7118,WL,A,8.0
5,23.594000101089478,learn,60000.0,Mon Apr 07 2025 09:46:12 GMT-0500 (Central Daylight Time),673202.7999999523,A,gold,O,d,318,1,1766.7999999523163,671436.0,7118,WL,A,8.0
5,24.176000118255615,learn,60000.0,Mon Apr 07 2025 09:46:12 GMT-0500 (Central Daylight Time),673785.0,A,goldenter,O,enter,554,1,2349.0,671436.0,7118,WL,A,8.0
5,24.89400005340576,learn,60000.0,Mon Apr 07 2025 09:46:12 GMT-0500 (Central Daylight Time),674502.2999999523,A,k,O,k,710,1,717.1000000238419,673785.1999999285,7118,WL,A,9.0
5,25.22699999809265,learn,60000.0,Mon Apr 07 2025 09:46:12 GMT-0500 (Central Daylight Time),674836.1000000238,A,ke,O,e,292,1,1050.9000000953674,673785.1999999285,7118,WL,A,9.0
5,25.694000005722046,learn,60000.0,Mon Apr 07 2025 09:46:12 GMT-0500 (Central Daylight Time),675302.3999999762,A,key,O,y,439,1,1517.2000000476837,673785.1999999285,7118,WL,A,9.0
5,26.108999967575073,learn,60000.0,Mon Apr 07 2025 09:46:12 GMT-0500 (Central Daylight Time),675717.6999999285,A,keyenter,O,enter,382,1,1932.5,673785.1999999285,7118,WL,A,9.0
5,26.658999919891357,learn,60000.0,Mon Apr 07 2025 09:46:12 GMT-0500 (Central Daylight Time),676268.2999999523,A,l,O,l,529,1,550.2999999523163,675718.0,7118,WL,A,10.0
5,26.875999927520752,learn,60000.0,Mon Apr 07 2025 09:46:12 GMT-0500 (Central Daylight Time),676485.1000000238,A,lo,O,o,176,1,767.1000000238419,675718.0,7118,WL,A,10.0
5,27.858999967575073,learn,60000.0,Mon Apr 07 2025 09:46:12 GMT-0500 (Central Daylight Time),677468.1999999285,A,log,O,g,943,1,1750.1999999284744,675718.0,7118,WL,A,10.0
5,28.740999937057495,learn,60000.0,Mon Apr 07 2025 09:46:12 GMT-0500 (Central Daylight Time),678350.1999999285,A,logenter,O,enter,847,1,2632.1999999284744,675718.0,7118,WL,A,10.0
5,29.674999952316284,learn,60000.0,Mon Apr 07 2025 09:46:12 GMT-0500 (Central Daylight Time),679284.1999999285,A,c,O,c,921,1,933.6999999284744,678350.5,7118,WL,A,11.0
5,30.02500009536743,learn,60000.0,Mon Apr 07 2025 09:46:12 GMT-0500 (Central Daylight Time),679634.1999999285,A,ch,O,h,312,1,1283.6999999284744,678350.5,7118,WL,A,11.0
5,30.408999919891357,learn,60000.0,Mon Apr 07 2025 09:46:12 GMT-0500 (Central Daylight Time),680017.1999999285,A,chi,O,i,354,1,1666.6999999284744,678350.5,7118,WL,A,11.0
5,30.70799994468689,learn,60000.0,Mon Apr 07 2025 09:46:12 GMT-0500 (Central Daylight Time),680317.1999999285,A,chim,O,m,263,1,1966.6999999284744,678350.5,7118,WL,A,11.0
5,31.27500009536743,learn,60000.0,Mon Apr 07 2025 09:46:12 GMT-0500 (Central Daylight Time),680883.7999999523,A,chimn,O,n,532,1,2533.2999999523163,678350.5,7118,WL,A,11.0
5,31.641000032424927,learn,60000.0,Mon Apr 07 2025 09:46:12 GMT-0500 (Central Daylight Time),681250.1999999285,A,chimne,O,e,338,1,2899.6999999284744,678350.5,7118,WL,A,11.0
5,31.990999937057495,learn,60000.0,Mon Apr 07 2025 09:46:12 GMT-0500 (Central Daylight Time),681600.1999999285,A,chimney,O,y,320,1,3249.6999999284744,678350.5,7118,WL,A,11.0
5,32.40700006484985,learn,60000.0,Mon Apr 07 2025 09:46:12 GMT-0500 (Central Daylight Time),682015.6999999285,A,chimneyenter,O,enter,380,1,3665.1999999284744,678350.5,7118,WL,A,11.0
5,33.30800008773804,learn,60000.0,Mon Apr 07 2025 09:46:12 GMT-0500 (Central Daylight Time),682916.3999999762,A,b,O,b,887,1,900.5,682015.8999999762,7118,WL,A,12.0
5,33.67400002479553,learn,60000.0,Mon Apr 07 2025 09:46:12 GMT-0500 (Central Daylight Time),683283.0,A,bo,O,o,328,1,1267.1000000238419,682015.8999999762,7118,WL,A,12.0
5,33.79100012779236,learn,60000.0,Mon Apr 07 2025 09:46:12 GMT-0500 (Central Daylight Time),683399.2999999523,A,boo,O,o,83,1,1383.3999999761581,682015.8999999762,7118,WL,A,12.0
5,34.49000000953674,learn,60000.0,Mon Apr 07 2025 09:46:12 GMT-0500 (Central Daylight Time),684099.2999999523,A,book,O,k,673,1,2083.399999976158,682015.8999999762,7118,WL,A,12.0
5,35.23900008201599,learn,60000.0,Mon Apr 07 2025 09:46:12 GMT-0500 (Central Daylight Time),684848.1000000238,A,bookenter,O,enter,717,1,2832.2000000476837,682015.8999999762,7118,WL,A,12.0
5,36.78999996185303,learn,60000.0,Mon Apr 07 2025 09:46:12 GMT-0500 (Central Daylight Time),686398.6000000238,A,f,O,f,1535,1,1550.2000000476837,684848.3999999762,7118,WL,A,13.0
5,36.99000000953674,learn,60000.0,Mon Apr 07 2025 09:46:12 GMT-0500 (Central Daylight Time),686598.3999999762,A,fl,O,l,165,1,1750.0,684848.3999999762,7118,WL,A,13.0
5,37.20700001716614,learn,60000.0,Mon Apr 07 2025 09:46:12 GMT-0500 (Central Daylight Time),686815.2999999523,A,flo,O,o,182,1,1966.8999999761581,684848.3999999762,7118,WL,A,13.0
5,37.65700006484985,learn,60000.0,Mon Apr 07 2025 09:46:12 GMT-0500 (Central Daylight Time),687265.5,A,flow,O,w,419,1,2417.100000023842,684848.3999999762,7118,WL,A,13.0
5,37.92300009727478,learn,60000.0,Mon Apr 07 2025 09:46:12 GMT-0500 (Central Daylight Time),687531.5,A,flowe,O,e,233,1,2683.100000023842,684848.3999999762,7118,WL,A,13.0
5,38.121999979019165,learn,60000.0,Mon Apr 07 2025 09:46:12 GMT-0500 (Central Daylight Time),687731.0,A,flower,O,r,168,1,2882.600000023842,684848.3999999762,7118,WL,A,13.0
5,38.53800010681152,learn,60000.0,Mon Apr 07 2025 09:46:12 GMT-0500 (Central Daylight Time),688146.8999999762,A,flowerenter,O,enter,389,1,3298.5,684848.3999999762,7118,WL,A,13.0
5,40.4060001373291,learn,60000.0,Mon Apr 07 2025 09:46:12 GMT-0500 (Central Daylight Time),690014.6999999285,A,m,O,m,1861,1,1867.5,688147.1999999285,7118,WL,A,14.0
5,40.704999923706055,learn,60000.0,Mon Apr 07 2025 09:46:12 GMT-0500 (Central Daylight Time),690313.6999999285,A,me,O,e,269,1,2166.5,688147.1999999285,7118,WL,A,14.0
5,40.98799991607666,learn,60000.0,Mon Apr 07 2025 09:46:12 GMT-0500 (Central Daylight Time),690597.1000000238,A,mea,O,a,241,1,2449.9000000953674,688147.1999999285,7118,WL,A,14.0
5,41.204999923706055,learn,60000.0,Mon Apr 07 2025 09:46:12 GMT-0500 (Central Daylight Time),690814.2999999523,A,mead,O,d,192,1,2667.100000023842,688147.1999999285,7118,WL,A,14.0
5,41.605000019073486,learn,60000.0,Mon Apr 07 2025 09:46:12 GMT-0500 (Central Daylight Time),691213.6000000238,A,meado,O,o,369,1,3066.4000000953674,688147.1999999285,7118,WL,A,14.0
5,42.13800001144409,learn,60000.0,Mon Apr 07 2025 09:46:12 GMT-0500 (Central Daylight Time),691746.7999999523,A,meadow,O,w,494,1,3599.600000023842,688147.1999999285,7118,WL,A,14.0
5,42.670000076293945,learn,60000.0,Mon Apr 07 2025 09:46:12 GMT-0500 (Central Daylight Time),692278.8999999762,A,meadowenter,O,enter,504,1,4131.700000047684,688147.1999999285,7118,WL,A,14.0
5,44.587000131607056,learn,60000.0,Mon Apr 07 2025 09:46:12 GMT-0500 (Central Daylight Time),694195.7999999523,A,t,O,t,1904,1,1916.6999999284744,692279.1000000238,7118,WL,A,15.0
5,45.2039999961853,learn,60000.0,Mon Apr 07 2025 09:46:12 GMT-0500 (Central Daylight Time),694812.6000000238,A,tr,O,r,583,1,2533.5,692279.1000000238,7118,WL,A,15.0
5,45.604000091552734,learn,60000.0,Mon Apr 07 2025 09:46:12 GMT-0500 (Central Daylight Time),695212.3999999762,A,tra,O,a,357,1,2933.2999999523163,692279.1000000238,7118,WL,A,15.0
5,45.937000036239624,learn,60000.0,Mon Apr 07 2025 09:46:12 GMT-0500 (Central Daylight Time),695545.3999999762,A,trai,O,i,311,1,3266.2999999523163,692279.1000000238,7118,WL,A,15.0
5,46.170000076293945,learn,60000.0,Mon Apr 07 2025 09:46:12 GMT-0500 (Central Daylight Time),695778.5,A,train,O,n,202,1,3499.399999976158,692279.1000000238,7118,WL,A,15.0
5,46.66900014877319,learn,60000.0,Mon Apr 07 2025 09:46:12 GMT-0500 (Central Daylight Time),696277.6000000238,A,trainenter,O,enter,473,1,3998.5,692279.1000000238,7118,WL,A,15.0
6,1.0829999446868896,distr,58917.00005531311,Mon Apr 07 2025 09:46:12 GMT-0500 (Central Daylight Time),770121.1999999285,B,p,O,p,1056,1,1082.7999999523163,769038.3999999762,7118,WL,A,1.0
6,1.4830000400543213,distr,58516.99995994568,Mon Apr 07 2025 09:46:12 GMT-0500 (Central Daylight Time),770521.1000000238,B,pe,O,e,362,1,1482.7000000476837,769038.3999999762,7118,WL,A,1.0
6,1.8329999446868896,distr,58167.00005531311,Mon Apr 07 2025 09:46:12 GMT-0500 (Central Daylight Time),770870.8999999762,B,pea,O,a,316,1,1832.5,769038.3999999762,7118,WL,A,1.0
6,2.3489999771118164,distr,57651.00002288818,Mon Apr 07 2025 09:46:12 GMT-0500 (Central Daylight Time),771387.2999999523,B,peac,O,c,482,1,2348.899999976158,769038.3999999762,7118,WL,A,1.0
6,2.9149999618530273,distr,57085.00003814697,Mon Apr 07 2025 09:46:12 GMT-0500 (Central Daylight Time),771953.1000000238,B,peach,O,h,527,1,2914.7000000476837,769038.3999999762,7118,WL,A,1.0
6,3.748000144958496,distr,56251.999855041504,Mon Apr 07 2025 09:46:12 GMT-0500 (Central Daylight Time),772785.8999999762,B,peachenter,O,enter,800,1,3747.5,769038.3999999762,7118,WL,A,1.0
6,4.515000104904175,distr,55484.999895095825,Mon Apr 07 2025 09:46:12 GMT-0500 (Central Daylight Time),773553.2999999523,B,c,O,c,749,1,767.1999999284744,772786.1000000238,7118,WL,A,2.0
6,4.865000009536743,distr,55134.99999046326,Mon Apr 07 2025 09:46:12 GMT-0500 (Central Daylight Time),773903.1999999285,B,ch,O,h,317,1,1117.0999999046326,772786.1000000238,7118,WL,A,2.0
6,5.0980000495910645,distr,54901.999950408936,Mon Apr 07 2025 09:46:12 GMT-0500 (Central Daylight Time),774136.5,B,cha,O,a,197,1,1350.3999999761581,772786.1000000238,7118,WL,A,2.0
6,5.498000144958496,distr,54501.999855041504,Mon Apr 07 2025 09:46:12 GMT-0500 (Central Daylight Time),774536.2999999523,B,chai,O,i,371,1,1750.1999999284744,772786.1000000238,7118,WL,A,2.0
6,5.898000001907349,distr,54101.99999809265,Mon Apr 07 2025 09:46:12 GMT-0500 (Central Daylight Time),774935.7999999523,B,chair,O,r,372,1,2149.6999999284744,772786.1000000238,7118,WL,A,2.0
6,6.397000074386597,distr,53602.9999256134,Mon Apr 07 2025 09:46:12 GMT-0500 (Central Daylight Time),775435.0,B,chairenter,O,enter,470,1,2648.899999976158,772786.1000000238,7118,WL,A,2.0
6,7.781000137329102,distr,52218.9998626709,Mon Apr 07 2025 09:46:12 GMT-0500 (Central Daylight Time),776819.0,B,b,O,b,1363,1,1383.7000000476837,775435.2999999523,7118,WL,A,3.0
6,8.064000129699707,distr,51935.99987030029,Mon Apr 07 2025 09:46:12 GMT-0500 (Central Daylight Time),777102.5,B,bo,O,o,257,1,1667.2000000476837,775435.2999999523,7118,WL,A,3.0
6,8.630000114440918,distr,51369.99988555908,Mon Apr 07 2025 09:46:12 GMT-0500 (Central Daylight Time),777668.3999999762,B,bow,O,w,526,1,2233.100000023842,775435.2999999523,7118,WL,A,3.0
6,8.86300015449524,distr,51136.99984550476,Mon Apr 07 2025 09:46:12 GMT-0500 (Central Daylight Time),777901.0,B,bowl,O,l,197,1,2465.7000000476837,775435.2999999523,7118,WL,A,3.0
6,9.378999948501587,distr,50621.00005149841,Mon Apr 07 2025 09:46:12 GMT-0500 (Central Daylight Time),778417.3999999762,B,bowlenter,O,enter,501,1,2982.100000023842,775435.2999999523,7118,WL,A,3.0
6,60.01600003242493,distr,-16.000032424926758,Mon Apr 07 2025 09:46:12 GMT-0500 (Central Daylight Time),829052.0,B,None,O,None,50628,1,50634.5,778417.5,7118,WL,A,4.0
7,20.144999980926514,immed,39855.000019073486,Mon Apr 07 2025 09:46:12 GMT-0500 (Central Daylight Time),857492.5,A,a,O,a,20104,1,20142.600000023842,837349.8999999762,7118,WL,A,1.0
7,20.544000148773193,immed,39455.99985122681,Mon Apr 07 2025 09:46:12 GMT-0500 (Central Daylight Time),857892.1000000238,A,ap,O,p,369,1,20542.200000047684,837349.8999999762,7118,WL,A,1.0
7,20.67799997329712,immed,39322.00002670288,Mon Apr 07 2025 09:46:12 GMT-0500 (Central Daylight Time),858025.1999999285,A,app,O,p,98,1,20675.299999952316,837349.8999999762,7118,WL,A,1.0
7,20.861000061035156,immed,39138.999938964844,Mon Apr 07 2025 09:46:12 GMT-0500 (Central Daylight Time),858208.7999999523,A,appl,O,l,155,1,20858.899999976158,837349.8999999762,7118,WL,A,1.0
7,21.094000101089478,immed,38905.99989891052,Mon Apr 07 2025 09:46:12 GMT-0500 (Central Daylight Time),858442.0,A,apple,O,e,203,1,21092.100000023842,837349.8999999762,7118,WL,A,1.0
7,21.509999990463257,immed,38490.00000953674,Mon Apr 07 2025 09:46:12 GMT-0500 (Central Daylight Time),858857.6000000238,A,appleenter,O,enter,377,1,21507.700000047684,837349.8999999762,7118,WL,A,1.0
7,22.294000148773193,immed,37705.99985122681,Mon Apr 07 2025 09:46:12 GMT-0500 (Central Daylight Time),859641.6999999285,A,s,O,s,774,1,783.8999999761581,858857.7999999523,7118,WL,A,2.0
7,22.37600016593933,immed,37623.99983406067,Mon Apr 07 2025 09:46:12 GMT-0500 (Central Daylight Time),859724.0,A,sa,O,a,41,1,866.2000000476837,858857.7999999523,7118,WL,A,2.0
7,22.944000005722046,immed,37055.999994277954,Mon Apr 07 2025 09:46:12 GMT-0500 (Central Daylight Time),860291.3999999762,A,sal,O,l,551,1,1433.6000000238419,858857.7999999523,7118,WL,A,2.0
7,23.22699999809265,immed,36773.00000190735,Mon Apr 07 2025 09:46:12 GMT-0500 (Central Daylight Time),860574.6000000238,A,salt,O,t,255,1,1716.8000000715256,858857.7999999523,7118,WL,A,2.0
7,23.542999982833862,immed,36457.00001716614,Mon Apr 07 2025 09:46:12 GMT-0500 (Central Daylight Time),860890.2999999523,A,saltenter,O,enter,283,1,2032.5,858857.7999999523,7118,WL,A,2.0
7,24.110000133514404,immed,35889.999866485596,Mon Apr 07 2025 09:46:12 GMT-0500 (Central Daylight Time),861457.7999999523,A,k,O,k,548,1,567.1999999284744,860890.6000000238,7118,WL,A,3.0
7,24.41000008583069,immed,35589.99991416931,Mon Apr 07 2025 09:46:12 GMT-0500 (Central Daylight Time),861757.6000000238,A,ke,O,e,256,1,867.0,860890.6000000238,7118,WL,A,3.0
7,24.743000030517578,immed,35256.99996948242,Mon Apr 07 2025 09:46:12 GMT-0500 (Central Daylight Time),862090.6999999285,A,key,O,y,298,1,1200.0999999046326,860890.6000000238,7118,WL,A,3.0
7,25.325000047683716,immed,34674.999952316284,Mon Apr 07 2025 09:46:12 GMT-0500 (Central Daylight Time),862673.0,A,keyenter,O,enter,552,1,1782.3999999761581,860890.6000000238,7118,WL,A,3.0
7,26.30900001525879,immed,33690.99998474121,Mon Apr 07 2025 09:46:12 GMT-0500 (Central Daylight Time),863657.1000000238,A,g,O,g,974,1,983.9000000953674,862673.1999999285,7118,WL,A,4.0
7,26.55900001525879,immed,33440.99998474121,Mon Apr 07 2025 09:46:12 GMT-0500 (Central Daylight Time),863907.0,A,go,O,o,211,1,1233.8000000715256,862673.1999999285,7118,WL,A,4.0
7,26.7260000705719,immed,33273.9999294281,Mon Apr 07 2025 09:46:12 GMT-0500 (Central Daylight Time),864073.6000000238,A,gol,O,l,135,1,1400.4000000953674,862673.1999999285,7118,WL,A,4.0
7,27.092000007629395,immed,32907.999992370605,Mon Apr 07 2025 09:46:12 GMT-0500 (Central Daylight Time),864440.1000000238,A,gold,O,d,331,1,1766.9000000953674,862673.1999999285,7118,WL,A,4.0
7,27.39199995994568,immed,32608.00004005432,Mon Apr 07 2025 09:46:12 GMT-0500 (Central Daylight Time),864739.1000000238,A,goldenter,O,enter,259,1,2065.9000000953674,862673.1999999285,7118,WL,A,4.0
7,27.95900011062622,immed,32040.99988937378,Mon Apr 07 2025 09:46:12 GMT-0500 (Central Daylight Time),865306.6000000238,A,t,O,t,556,1,567.3000000715256,864739.2999999523,7118,WL,A,5.0
7,28.175000190734863,immed,31824.999809265137,Mon Apr 07 2025 09:46:12 GMT-0500 (Central Daylight Time),865522.8999999762,A,tr,O,r,186,1,783.6000000238419,864739.2999999523,7118,WL,A,5.0
7,28.592000007629395,immed,31407.999992370605,Mon Apr 07 2025 09:46:12 GMT-0500 (Central Daylight Time),865939.6999999285,A,tra,O,a,377,1,1200.3999999761581,864739.2999999523,7118,WL,A,5.0
7,28.907999992370605,immed,31092.000007629395,Mon Apr 07 2025 09:46:12 GMT-0500 (Central Daylight Time),866256.0,A,trai,O,i,278,1,1516.7000000476837,864739.2999999523,7118,WL,A,5.0
7,29.125,immed,30875.0,Mon Apr 07 2025 09:46:12 GMT-0500 (Central Daylight Time),866472.8999999762,A,train,O,n,181,1,1733.6000000238419,864739.2999999523,7118,WL,A,5.0
7,29.624000072479248,immed,30375.999927520752,Mon Apr 07 2025 09:46:12 GMT-0500 (Central Daylight Time),866971.6000000238,A,trainenter,O,enter,465,1,2232.3000000715256,864739.2999999523,7118,WL,A,5.0
7,29.992000102996826,immed,30007.999897003174,Mon Apr 07 2025 09:46:12 GMT-0500 (Central Daylight Time),867339.2999999523,A,m,O,m,347,1,367.5,866971.7999999523,7118,WL,A,6.0
7,30.259000062942505,immed,29740.999937057495,Mon Apr 07 2025 09:46:12 GMT-0500 (Central Daylight Time),867606.3999999762,A,me,O,e,240,1,634.6000000238419,866971.7999999523,7118,WL,A,6.0
7,30.52500009536743,immed,29474.99990463257,Mon Apr 07 2025 09:46:12 GMT-0500 (Central Daylight Time),867872.2999999523,A,mea,O,a,233,1,900.5,866971.7999999523,7118,WL,A,6.0
7,30.841000080108643,immed,29158.999919891357,Mon Apr 07 2025 09:46:12 GMT-0500 (Central Daylight Time),868189.1000000238,A,mead,O,d,277,1,1217.3000000715256,866971.7999999523,7118,WL,A,6.0
7,31.141000032424927,immed,28858.999967575073,Mon Apr 07 2025 09:46:12 GMT-0500 (Central Daylight Time),868488.6000000238,A,meado,O,o,270,1,1516.8000000715256,866971.7999999523,7118,WL,A,6.0
7,31.973999977111816,immed,28026.000022888184,Mon Apr 07 2025 09:46:12 GMT-0500 (Central Daylight Time),869321.8999999762,A,meadow,O,w,794,1,2350.100000023842,866971.7999999523,7118,WL,A,6.0
7,32.890000104904175,immed,27109.999895095825,Mon Apr 07 2025 09:46:12 GMT-0500 (Central Daylight Time),870237.2999999523,A,meadowenter,O,enter,881,1,3265.5,866971.7999999523,7118,WL,A,6.0
7,33.78999996185303,immed,26210.000038146973,Mon Apr 07 2025 09:46:12 GMT-0500 (Central Daylight Time),871137.6000000238,A,l,O,l,890,1,900.0,870237.6000000238,7118,WL,A,7.0
7,33.95700001716614,immed,26042.999982833862,Mon Apr 07 2025 09:46:12 GMT-0500 (Central Daylight Time),871304.5,A,lo,O,o,130,1,1066.8999999761581,870237.6000000238,7118,WL,A,7.0
7,34.307000160217285,immed,25692.999839782715,Mon Apr 07 2025 09:46:12 GMT-0500 (Central Daylight Time),871654.3999999762,A,log,O,g,315,1,1416.7999999523163,870237.6000000238,7118,WL,A,7.0
7,35.28999996185303,immed,24710.000038146973,Mon Apr 07 2025 09:46:12 GMT-0500 (Central Daylight Time),872637.6000000238,A,logr,O,r,952,1,2400.0,870237.6000000238,7118,WL,A,7.0
7,35.50600004196167,immed,24493.99995803833,Mon Apr 07 2025 09:46:12 GMT-0500 (Central Daylight Time),872854.1000000238,A,logra,O,a,173,1,2616.5,870237.6000000238,7118,WL,A,7.0
7,35.75600004196167,immed,24243.99995803833,Mon Apr 07 2025 09:46:12 GMT-0500 (Central Daylight Time),873103.6999999285,A,lograt,O,t,224,1,2866.0999999046326,870237.6000000238,7118,WL,A,7.0
7,35.890000104904175,immed,24109.999895095825,Mon Apr 07 2025 09:46:12 GMT-0500 (Central Daylight Time),873238.0,A,logratt,O,t,107,1,3000.399999976158,870237.6000000238,7118,WL,A,7.0
7,36.373000144958496,immed,23626.999855041504,Mon Apr 07 2025 09:46:12 GMT-0500 (Central Daylight Time),873720.1999999285,A,lograttl,O,l,454,1,3482.5999999046326,870237.6000000238,7118,WL,A,7.0
7,36.75600004196167,immed,23243.99995803833,Mon Apr 07 2025 09:46:12 GMT-0500 (Central Daylight Time),874103.6000000238,A,lograttle,O,e,348,1,3866.0,870237.6000000238,7118,WL,A,7.0
7,37.871999979019165,immed,22128.000020980835,Mon Apr 07 2025 09:46:12 GMT-0500 (Central Daylight Time),875219.8999999762,A,lograttl,O,backspace,1085,1,4982.299999952316,870237.6000000238,7118,WL,A,7.0
7,38.0220000743866,immed,21977.999925613403,Mon Apr 07 2025 09:46:12 GMT-0500 (Central Daylight Time),875369.7999999523,A,logratt,O,backspace,113,1,5132.199999928474,870237.6000000238,7118,WL,A,7.0
7,38.1560001373291,immed,21843.9998626709,Mon Apr 07 2025 09:46:12 GMT-0500 (Central Daylight Time),875503.1999999285,A,lograt,O,backspace,99,1,5265.599999904633,870237.6000000238,7118,WL,A,7.0
7,38.289000034332275,immed,21710.999965667725,Mon Apr 07 2025 09:46:12 GMT-0500 (Central Daylight Time),875636.5,A,logra,O,backspace,101,1,5398.899999976158,870237.6000000238,7118,WL,A,7.0
7,38.42200016975403,immed,21577.99983024597,Mon Apr 07 2025 09:46:12 GMT-0500 (Central Daylight Time),875769.3999999762,A,logr,O,backspace,103,1,5531.799999952316,870237.6000000238,7118,WL,A,7.0
7,38.67200016975403,immed,21327.99983024597,Mon Apr 07 2025 09:46:12 GMT-0500 (Central Daylight Time),876019.6000000238,A,log,O,backspace,216,1,5782.0,870237.6000000238,7118,WL,A,7.0
7,39.47100019454956,immed,20528.99980545044,Mon Apr 07 2025 09:46:12 GMT-0500 (Central Daylight Time),876818.1999999285,A,logenter,O,enter,767,1,6580.599999904633,870237.6000000238,7118,WL,A,7.0
7,40.455000162124634,immed,19544.999837875366,Mon Apr 07 2025 09:46:12 GMT-0500 (Central Daylight Time),877802.5,A,r,O,r,964,1,984.0,876818.5,7118,WL,A,8.0
7,40.771000146865845,immed,19228.999853134155,Mon Apr 07 2025 09:46:12 GMT-0500 (Central Daylight Time),878118.6999999285,A,ra,O,a,291,1,1300.1999999284744,876818.5,7118,WL,A,8.0
7,41.23800015449524,immed,18761.99984550476,Mon Apr 07 2025 09:46:12 GMT-0500 (Central Daylight Time),878585.1999999285,A,rat,O,t,428,1,1766.6999999284744,876818.5,7118,WL,A,8.0
7,41.354000091552734,immed,18645.999908447266,Mon Apr 07 2025 09:46:12 GMT-0500 (Central Daylight Time),878701.8999999762,A,ratt,O,t,91,1,1883.3999999761581,876818.5,7118,WL,A,8.0
7,41.53800010681152,immed,18461.999893188477,Mon Apr 07 2025 09:46:12 GMT-0500 (Central Daylight Time),878885.7999999523,A,rattl,O,l,141,1,2067.2999999523163,876818.5,7118,WL,A,8.0
7,41.83800005912781,immed,18161.999940872192,Mon Apr 07 2025 09:46:12 GMT-0500 (Central Daylight Time),879185.2999999523,A,rattle,O,e,273,1,2366.7999999523163,876818.5,7118,WL,A,8.0
7,42.15400004386902,immed,17845.99995613098,Mon Apr 07 2025 09:46:12 GMT-0500 (Central Daylight Time),879501.7999999523,A,rattleenter,O,enter,293,1,2683.2999999523163,876818.5,7118,WL,A,8.0
7,42.519999980926514,immed,17480.000019073486,Mon Apr 07 2025 09:46:12 GMT-0500 (Central Daylight Time),879868.1000000238,A,a,O,a,353,1,366.0,879502.1000000238,7118,WL,A,9.0
7,42.837000131607056,immed,17162.999868392944,Mon Apr 07 2025 09:46:12 GMT-0500 (Central Daylight Time),880184.6000000238,A,ap,O,p,288,1,682.5,879502.1000000238,7118,WL,A,9.0
7,42.9539999961853,immed,17046.000003814697,Mon Apr 07 2025 09:46:12 GMT-0500 (Central Daylight Time),880302.0,A,app,O,p,91,1,799.8999999761581,879502.1000000238,7118,WL,A,9.0
7,43.2039999961853,immed,16796.000003814697,Mon Apr 07 2025 09:46:12 GMT-0500 (Central Daylight Time),880551.2999999523,A,appl,O,l,222,1,1049.1999999284744,879502.1000000238,7118,WL,A,9.0
7,44.38700008392334,immed,15612.99991607666,Mon Apr 07 2025 09:46:12 GMT-0500 (Central Daylight Time),881734.3999999762,A,apple,O,e,1157,1,2232.2999999523163,879502.1000000238,7118,WL,A,9.0
7,44.819000005722046,immed,15180.999994277954,Mon Apr 07 2025 09:46:12 GMT-0500 (Central Daylight Time),882166.5,A,appleenter,O,enter,407,1,2664.399999976158,879502.1000000238,7118,WL,A,9.0
7,46.753000020980835,immed,13246.999979019165,Mon Apr 07 2025 09:46:12 GMT-0500 (Central Daylight Time),884100.5,A,f,O,f,1920,1,1933.7000000476837,882166.7999999523,7118,WL,A,10.0
7,46.93600010871887,immed,13063.999891281128,Mon Apr 07 2025 09:46:12 GMT-0500 (Central Daylight Time),884283.1000000238,A,fl,O,l,143,1,2116.3000000715256,882166.7999999523,7118,WL,A,10.0
7,47.10300016403198,immed,12896.999835968018,Mon Apr 07 2025 09:46:12 GMT-0500 (Central Daylight Time),884450.1999999285,A,flo,O,o,138,1,2283.399999976158,882166.7999999523,7118,WL,A,10.0
7,47.50200009346008,immed,12497.999906539917,Mon Apr 07 2025 09:46:12 GMT-0500 (Central Daylight Time),884849.8999999762,A,flow,O,w,370,1,2683.100000023842,882166.7999999523,7118,WL,A,10.0
7,47.7020001411438,immed,12297.999858856201,Mon Apr 07 2025 09:46:12 GMT-0500 (Central Daylight Time),885049.7999999523,A,flowe,O,e,162,1,2883.0,882166.7999999523,7118,WL,A,10.0
7,47.902000188827515,immed,12097.999811172485,Mon Apr 07 2025 09:46:12 GMT-0500 (Central Daylight Time),885249.7999999523,A,flower,O,r,168,1,3083.0,882166.7999999523,7118,WL,A,10.0
7,48.218000173568726,immed,11781.999826431274,Mon Apr 07 2025 09:46:12 GMT-0500 (Central Daylight Time),885565.5,A,flowerenter,O,enter,294,1,3398.7000000476837,882166.7999999523,7118,WL,A,10.0
7,49.16900014877319,immed,10830.999851226807,Mon Apr 07 2025 09:46:12 GMT-0500 (Central Daylight Time),886516.2999999523,A,b,O,b,937,1,950.6000000238419,885565.6999999285,7118,WL,A,11.0
7,49.41799998283386,immed,10582.000017166138,Mon Apr 07 2025 09:46:12 GMT-0500 (Central Daylight Time),886766.0,A,bo,O,o,214,1,1200.3000000715256,885565.6999999285,7118,WL,A,11.0
7,49.551000118255615,immed,10448.999881744385,Mon Apr 07 2025 09:46:12 GMT-0500 (Central Daylight Time),886898.3999999762,A,boo,O,o,93,1,1332.7000000476837,885565.6999999285,7118,WL,A,11.0
7,49.78500008583069,immed,10214.999914169312,Mon Apr 07 2025 09:46:12 GMT-0500 (Central Daylight Time),887132.8999999762,A,book,O,k,219,1,1567.2000000476837,885565.6999999285,7118,WL,A,11.0
7,50.48399996757507,immed,9516.000032424927,Mon Apr 07 2025 09:46:12 GMT-0500 (Central Daylight Time),887831.5,A,bookenter,O,enter,671,1,2265.8000000715256,885565.6999999285,7118,WL,A,11.0
7,57.38300013542175,immed,2616.999864578247,Mon Apr 07 2025 09:46:12 GMT-0500 (Central Daylight Time),894730.1000000238,A,c,O,c,6879,1,6898.300000071526,887831.7999999523,7118,WL,A,12.0
7,57.66600012779236,immed,2333.9998722076416,Mon Apr 07 2025 09:46:12 GMT-0500 (Central Daylight Time),895013.1999999285,A,ch,O,h,249,1,7181.399999976158,887831.7999999523,7118,WL,A,12.0
7,58.098999977111816,immed,1901.0000228881836,Mon Apr 07 2025 09:46:12 GMT-0500 (Central Daylight Time),895446.7999999523,A,chi,O,i,398,1,7615.0,887831.7999999523,7118,WL,A,12.0
7,58.29900002479553,immed,1700.9999752044678,Mon Apr 07 2025 09:46:12 GMT-0500 (Central Daylight Time),895646.6000000238,A,chim,O,m,164,1,7814.800000071526,887831.7999999523,7118,WL,A,12.0
7,58.64900016784668,immed,1350.9998321533203,Mon Apr 07 2025 09:46:12 GMT-0500 (Central Daylight Time),895996.3999999762,A,chimn,O,n,317,1,8164.600000023842,887831.7999999523,7118,WL,A,12.0
7,59.015000104904175,immed,984.9998950958252,Mon Apr 07 2025 09:46:12 GMT-0500 (Central Daylight Time),896362.8999999762,A,chimne,O,e,336,1,8531.100000023842,887831.7999999523,7118,WL,A,12.0
7,59.36500000953674,immed,634.9999904632568,Mon Apr 07 2025 09:46:12 GMT-0500 (Central Daylight Time),896712.7999999523,A,chimney,O,y,321,1,8881.0,887831.7999999523,7118,WL,A,12.0
7,60.03200006484985,immed,-32.000064849853516,Mon Apr 07 2025 09:46:12 GMT-0500 (Central Daylight Time),897379.5,A,chimneyNone,O,None,640,1,9547.700000047684,887831.7999999523,7118,WL,A,12.0
