acc_sum,block_c,block_dur,condition,correct,correct_response,countdown,datetime,endtime,project,response,response_time,response_time_test1_response,response_time_test2_response,row_sel,same,session_number,start_end,starttime,stim1,stim2,subject_id,task,task_vers,time_test1,time_test2,trial
1,1,0.0,prac,1,z,30000.0,Fri Oct 04 2024 10:37:38 GMT-0500 (Central Daylight Time),46616.89999999851,I,z,1459,,,3,yes,1,3107.5,43509.39999999851,practrial3.png,practrial3.png,8003,PC,A,,,1
2,1,0.0,prac,1,z,30000.0,Fri Oct 04 2024 10:37:38 GMT-0500 (Central Daylight Time),49120.5,I,z,979,,,1,yes,1,2498.0,46622.5,practrial1.png,practrial1.png,8003,PC,A,,,2
3,1,0.0,prac,1,m,30000.0,Fri Oct 04 2024 10:37:38 GMT-0500 (Central Daylight Time),52436.20000000298,I,m,1781,,,6,no,1,3312.0,49124.20000000298,practrial6.png,practrial6b.png,8003,PC,A,,,3
4,1,0.0,prac,1,m,30000.0,Fri Oct 04 2024 10:37:38 GMT-0500 (Central Daylight Time),54902.10000000149,I,m,945,,,2,no,1,2461.89999999851,52440.20000000298,practrial2.png,practrial2b.png,8003,PC,A,,,4
4,1,0.0,prac,0,z,30000.0,Fri Oct 04 2024 10:37:38 GMT-0500 (Central Daylight Time),57702.39999999851,I,m,1272,,,5,yes,1,2796.5999999940395,54905.80000000447,practrial5.png,practrial5.png,8003,PC,A,,,5
5,1,0.0,prac,1,m,30000.0,Fri Oct 04 2024 10:37:38 GMT-0500 (Central Daylight Time),60483.80000000447,I,m,1254,,,4,no,1,2777.2000000029802,57706.60000000149,practrial4.png,practrial4b.png,8003,PC,A,,,6
1,1,1.4160001277923584,test,1,z,28583.99987220764,Fri Oct 04 2024 10:37:38 GMT-0500 (Central Daylight Time),80544.10000000149,I,z,1407,1407,,1,yes,1,1413.7999999970198,79130.30000000447,test1trial1.png,test1trial1.png,8003,PC,A,76920,,1
2,1,2.3320000171661377,test,1,m,27667.999982833862,Fri Oct 04 2024 10:37:38 GMT-0500 (Central Daylight Time),81460.5,I,m,902,902,,2,no,1,913.3999999985099,80547.10000000149,test1trial2.png,test1trial2b.png,8003,PC,A,78337,,2
2,1,3.315000057220459,test,0,z,26684.99994277954,Fri Oct 04 2024 10:37:38 GMT-0500 (Central Daylight Time),82443.30000000447,I,m,978,978,,3,yes,1,979.8000000044703,81463.5,test1trial3.png,test1trial3.png,8003,PC,A,79253,,3
3,1,5.466000080108643,test,1,m,24533.999919891357,Fri Oct 04 2024 10:37:38 GMT-0500 (Central Daylight Time),84593.89999999851,I,m,2138,2138,,4,no,1,2147.6999999955297,82446.20000000298,test1trial4.png,test1trial4b.png,8003,PC,A,80236,,4
4,1,6.864000082015991,test,1,z,23135.99991798401,Fri Oct 04 2024 10:37:38 GMT-0500 (Central Daylight Time),85992.20000000298,I,z,1388,1388,,5,yes,1,1395.2000000029802,84597.0,test1trial5.png,test1trial5.png,8003,PC,A,82387,,5
5,1,7.864000082015991,test,1,m,22135.99991798401,Fri Oct 04 2024 10:37:38 GMT-0500 (Central Daylight Time),86991.89999999851,I,m,982,982,,6,no,1,996.6999999955297,85995.20000000298,test1trial6.png,test1trial6b.png,8003,PC,A,83785,,6
6,1,8.79699993133545,test,1,z,21203.00006866455,Fri Oct 04 2024 10:37:38 GMT-0500 (Central Daylight Time),87925.0,I,z,919,919,,7,yes,1,930.1999999955297,86994.80000000447,test1trial7.png,test1trial7.png,8003,PC,A,84784,,7
7,1,10.180000066757202,test,1,m,19819.999933242798,Fri Oct 04 2024 10:37:38 GMT-0500 (Central Daylight Time),89307.89999999851,I,m,1368,1368,,8,no,1,1380.0999999940395,87927.80000000447,test1trial8.png,test1trial8b.png,8003,PC,A,85718,,8
8,1,11.546000003814697,test,1,z,18453.999996185303,Fri Oct 04 2024 10:37:38 GMT-0500 (Central Daylight Time),90674.10000000149,I,z,1347,1347,,9,yes,1,1363.3999999985099,89310.70000000298,test1trial9.png,test1trial9.png,8003,PC,A,87100,,9
9,1,12.611999988555908,test,1,m,17388.00001144409,Fri Oct 04 2024 10:37:38 GMT-0500 (Central Daylight Time),91740.60000000149,I,m,1052,1052,,10,no,1,1063.7999999970198,90676.80000000447,test1trial10.png,test1trial10b.png,8003,PC,A,88467,,10
10,1,13.694999933242798,test,1,z,16305.000066757202,Fri Oct 04 2024 10:37:38 GMT-0500 (Central Daylight Time),92823.5,I,z,1065,1065,,11,yes,1,1079.8999999985099,91743.60000000149,test1trial11.png,test1trial11.png,8003,PC,A,89533,,11
10,1,14.92799997329712,test,0,m,15072.00002670288,Fri Oct 04 2024 10:37:38 GMT-0500 (Central Daylight Time),94056.39999999851,I,z,1215,1215,,12,no,1,1230.1999999955297,92826.20000000298,test1trial12.png,test1trial12b.png,8003,PC,A,90616,,12
11,1,16.061000108718872,test,1,m,13938.999891281128,Fri Oct 04 2024 10:37:38 GMT-0500 (Central Daylight Time),95189.5,I,m,1118,1118,,13,no,1,1130.1999999955297,94059.30000000447,test1trial13.png,test1trial13b.png,8003,PC,A,91849,,13
11,1,17.24399995803833,test,0,m,12756.00004196167,Fri Oct 04 2024 10:37:38 GMT-0500 (Central Daylight Time),96372.5,I,z,1177,1177,,14,no,1,1180.1999999955297,95192.30000000447,test1trial14.png,test1trial14b.png,8003,PC,A,92982,,14
12,1,18.24399995803833,test,1,z,11756.00004196167,Fri Oct 04 2024 10:37:38 GMT-0500 (Central Daylight Time),97372.0,I,z,994,994,,15,yes,1,996.8999999985099,96375.10000000149,test1trial15.png,test1trial15.png,8003,PC,A,94165,,15
13,1,19.55999994277954,test,1,m,10440.000057220459,Fri Oct 04 2024 10:37:38 GMT-0500 (Central Daylight Time),98688.5,I,m,1306,1306,,16,no,1,1313.6999999955297,97374.80000000447,test1trial16.png,test1trial16b.png,8003,PC,A,95164,,16
14,1,20.72699999809265,test,1,z,9273.000001907349,Fri Oct 04 2024 10:37:38 GMT-0500 (Central Daylight Time),99854.70000000298,I,z,1158,1158,,17,yes,1,1163.3999999985099,98691.30000000447,test1trial17.png,test1trial17.png,8003,PC,A,96481,,17
15,1,21.743000030517578,test,1,m,8256.999969482422,Fri Oct 04 2024 10:37:38 GMT-0500 (Central Daylight Time),100871.0,I,m,1008,1008,,18,no,1,1013.6999999955297,99857.30000000447,test1trial18.png,test1trial18b.png,8003,PC,A,97647,,18
16,1,23.30900001525879,test,1,m,6690.999984741211,Fri Oct 04 2024 10:37:38 GMT-0500 (Central Daylight Time),102437.10000000149,I,m,1559,1559,,19,no,1,1562.6000000014901,100874.5,test1trial19.png,test1trial19b.png,8003,PC,A,98664,,19
17,1,24.30900001525879,test,1,z,5690.999984741211,Fri Oct 04 2024 10:37:38 GMT-0500 (Central Daylight Time),103436.89999999851,I,z,992,992,,20,yes,1,996.2999999970198,102440.60000000149,test1trial20.png,test1trial20.png,8003,PC,A,100230,,20
18,1,25.39199995994568,test,1,z,4608.000040054321,Fri Oct 04 2024 10:37:38 GMT-0500 (Central Daylight Time),104519.80000000447,I,z,1074,1074,,21,yes,1,1080.1000000014901,103439.70000000298,test1trial21.png,test1trial21.png,8003,PC,A,101229,,21
19,1,26.575000047683716,test,1,z,3424.999952316284,Fri Oct 04 2024 10:37:38 GMT-0500 (Central Daylight Time),105702.80000000447,I,z,1167,1167,,22,yes,1,1180.3000000044703,104522.5,test1trial22.png,test1trial22.png,8003,PC,A,102312,,22
20,1,27.558000087738037,test,1,z,2441.999912261963,Fri Oct 04 2024 10:37:38 GMT-0500 (Central Daylight Time),106686.0,I,z,968,968,,23,yes,1,980.1999999955297,105705.80000000447,test1trial23.png,test1trial23.png,8003,PC,A,103495,,23
21,1,28.674000024795532,test,1,z,1325.9999752044678,Fri Oct 04 2024 10:37:38 GMT-0500 (Central Daylight Time),107802.20000000298,I,z,1113,1113,,24,yes,1,1113.6000000014901,106688.60000000149,test1trial24.png,test1trial24.png,8003,PC,A,104478,,24
22,1,29.789999961853027,test,1,m,210.00003814697266,Fri Oct 04 2024 10:37:38 GMT-0500 (Central Daylight Time),108918.39999999851,I,m,1109,1109,,25,no,1,1113.6999999955297,107804.70000000298,test1trial25.png,test1trial25b.png,8003,PC,A,105594,,25
22,1,30.008000135421753,test,0,m,-8.00013542175293,Fri Oct 04 2024 10:37:38 GMT-0500 (Central Daylight Time),109136.39999999851,I,None,214,214,,26,no,1,215.19999999552965,108921.20000000298,test1trial26.png,test1trial26b.png,8003,PC,A,106711,,26
1,2,1.1500000953674316,test,1,m,28849.99990463257,Fri Oct 04 2024 10:37:38 GMT-0500 (Central Daylight Time),122098.0,I,m,1130,,1130.0,1,no,1,13176.79999999702,108921.20000000298,test2trial1.png,test2trial1b.png,8003,PC,A,,118740.0,1
2,2,2.5160000324249268,test,1,m,27483.999967575073,Fri Oct 04 2024 10:37:38 GMT-0500 (Central Daylight Time),123463.89999999851,I,m,1348,,1348.0,2,no,1,14542.69999999553,108921.20000000298,test2trial2.png,test2trial2b.png,8003,PC,A,,119890.0,2
3,2,3.4830000400543213,test,1,z,26516.99995994568,Fri Oct 04 2024 10:37:38 GMT-0500 (Central Daylight Time),124430.30000000447,I,z,951,,951.0,3,yes,1,15509.10000000149,108921.20000000298,test2trial3.png,test2trial3.png,8003,PC,A,,121256.0,3
4,2,4.482000112533569,test,1,z,25517.99988746643,Fri Oct 04 2024 10:37:38 GMT-0500 (Central Daylight Time),125429.89999999851,I,z,984,,984.0,4,yes,1,16508.69999999553,108921.20000000298,test2trial4.png,test2trial4.png,8003,PC,A,,122223.0,4
5,2,5.732000112533569,test,1,z,24267.99988746643,Fri Oct 04 2024 10:37:38 GMT-0500 (Central Daylight Time),126679.60000000149,I,z,1233,,1233.0,5,yes,1,17758.39999999851,108921.20000000298,test2trial5.png,test2trial5.png,8003,PC,A,,123222.0,5
6,2,7.115000009536743,test,1,z,22884.999990463257,Fri Oct 04 2024 10:37:38 GMT-0500 (Central Daylight Time),128062.30000000447,I,z,1367,,1367.0,6,yes,1,19141.10000000149,108921.20000000298,test2trial6.png,test2trial6.png,8003,PC,A,,124472.0,6
7,2,8.314000129699707,test,1,m,21685.999870300293,Fri Oct 04 2024 10:37:38 GMT-0500 (Central Daylight Time),129262.0,I,m,1192,,1192.0,7,no,1,20340.79999999702,108921.20000000298,test2trial7.png,test2trial7b.png,8003,PC,A,,125855.0,7
7,2,9.230999946594238,test,0,m,20769.00005340576,Fri Oct 04 2024 10:37:38 GMT-0500 (Central Daylight Time),130178.20000000298,I,z,904,,904.0,8,no,1,21257.0,108921.20000000298,test2trial8.png,test2trial8b.png,8003,PC,A,,127055.0,8
8,2,10.930000066757202,test,1,z,19069.999933242798,Fri Oct 04 2024 10:37:38 GMT-0500 (Central Daylight Time),131877.80000000447,I,z,1684,,1684.0,9,yes,1,22956.60000000149,108921.20000000298,test2trial9.png,test2trial9.png,8003,PC,A,,127971.0,9
8,2,12.414000034332275,test,0,z,17585.999965667725,Fri Oct 04 2024 10:37:38 GMT-0500 (Central Daylight Time),133362.0,I,m,1464,,1464.0,10,yes,1,24440.79999999702,108921.20000000298,test2trial10.png,test2trial10.png,8003,PC,A,,129670.0,10
9,2,13.828999996185303,test,1,m,16171.000003814697,Fri Oct 04 2024 10:37:38 GMT-0500 (Central Daylight Time),134777.0,I,m,1396,,1396.0,11,no,1,25855.79999999702,108921.20000000298,test2trial11.png,test2trial11b.png,8003,PC,A,,131154.0,11
10,2,15.161999940872192,test,1,m,14838.000059127808,Fri Oct 04 2024 10:37:38 GMT-0500 (Central Daylight Time),136109.8999999985,I,m,1325,,1325.0,12,no,1,27188.69999999553,108921.20000000298,test2trial12.png,test2trial12b.png,8003,PC,A,,132569.0,12
11,2,16.278000116348267,test,1,z,13721.999883651733,Fri Oct 04 2024 10:37:38 GMT-0500 (Central Daylight Time),137226.1000000015,I,z,1105,,1105.0,13,yes,1,28304.89999999851,108921.20000000298,test2trial13.png,test2trial13.png,8003,PC,A,,133902.0,13
11,2,18.811000108718872,test,0,m,11188.999891281128,Fri Oct 04 2024 10:37:38 GMT-0500 (Central Daylight Time),139758.70000000298,I,z,2525,,2525.0,14,no,1,30837.5,108921.20000000298,test2trial14.png,test2trial14b.png,8003,PC,A,,135018.0,14
12,2,20.859999895095825,test,1,m,9140.000104904175,Fri Oct 04 2024 10:37:38 GMT-0500 (Central Daylight Time),141808.0,I,m,2032,,2032.0,15,no,1,32886.79999999702,108921.20000000298,test2trial15.png,test2trial15b.png,8003,PC,A,,137551.0,15
12,2,22.14300012588501,test,0,m,7856.99987411499,Fri Oct 04 2024 10:37:38 GMT-0500 (Central Daylight Time),143090.8999999985,I,z,1279,,1279.0,16,no,1,34169.69999999553,108921.20000000298,test2trial16.png,test2trial16b.png,8003,PC,A,,139600.0,16
13,2,23.592999935150146,test,1,z,6407.0000648498535,Fri Oct 04 2024 10:37:38 GMT-0500 (Central Daylight Time),144540.70000000298,I,z,1444,,1444.0,17,yes,1,35619.5,108921.20000000298,test2trial17.png,test2trial17.png,8003,PC,A,,140883.0,17
14,2,24.426000118255615,test,1,z,5573.999881744385,Fri Oct 04 2024 10:37:38 GMT-0500 (Central Daylight Time),145373.80000000447,I,z,826,,826.0,18,yes,1,36452.60000000149,108921.20000000298,test2trial18.png,test2trial18.png,8003,PC,A,,142333.0,18
15,2,26.492000102996826,test,1,z,3507.999897003174,Fri Oct 04 2024 10:37:38 GMT-0500 (Central Daylight Time),147439.6000000015,I,z,2048,,2048.0,19,yes,1,38518.39999999851,108921.20000000298,test2trial19.png,test2trial19.png,8003,PC,A,,143166.0,19
16,2,28.94099998474121,test,1,z,1059.000015258789,Fri Oct 04 2024 10:37:38 GMT-0500 (Central Daylight Time),149889.1000000015,I,z,2437,,2437.0,20,yes,1,40967.89999999851,108921.20000000298,test2trial20.png,test2trial20.png,8003,PC,A,,145234.0,20
16,2,30.007999897003174,test,0,z,-7.999897003173828,Fri Oct 04 2024 10:37:38 GMT-0500 (Central Daylight Time),150955.5,I,None,1063,,1063.0,21,yes,1,42034.29999999702,108921.20000000298,test2trial21.png,test2trial21.png,8003,PC,A,,147681.0,21
