block_c,block_dur,condition,countdown,datetime,endtime,list,multichar_response,project,response,response_time,session_number,start_end,starttime,subject_id,task,task_vers,trial
,,,,Tue Apr 29 2025 11:06:44 GMT-0400 (Eastern Daylight Time),,,,I,space,176,1,,,9015,WL,B,
prac,,0,,Tue Apr 29 2025 11:06:44 GMT-0400 (Eastern Daylight Time),,NA,b,I,b,3375,1,,,9015,WL,B,1.0
prac,,0,,Tue Apr 29 2025 11:06:44 GMT-0400 (Eastern Daylight Time),,NA,bo,I,o,150,1,,,9015,WL,B,1.0
prac,,0,,Tue Apr 29 2025 11:06:44 GMT-0400 (Eastern Daylight Time),,NA,boo,I,o,106,1,,,9015,WL,B,1.0
prac,,0,,Tue Apr 29 2025 11:06:44 GMT-0400 (Eastern Daylight Time),,NA,boos,I,s,147,1,,,9015,WL,B,1.0
prac,,0,,Tue Apr 29 2025 11:06:44 GMT-0400 (Eastern Daylight Time),,NA,boost,I,t,102,1,,,9015,WL,B,1.0
prac,,0,,Tue Apr 29 2025 11:06:44 GMT-0400 (Eastern Daylight Time),,NA,boostenter,I,enter,1016,1,,,9015,WL,B,1.0
1,3.1500000953674316,learn,56849.99990463257,Tue Apr 29 2025 11:06:44 GMT-0400 (Eastern Daylight Time),116596.80000019073,A,p,I,p,3133,1,3149.5,113447.30000019073,9015,WL,B,1.0
1,3.3340001106262207,learn,56665.99988937378,Tue Apr 29 2025 11:06:44 GMT-0400 (Eastern Daylight Time),116780.19999980927,A,pi,I,i,161,1,3332.8999996185303,113447.30000019073,9015,WL,B,1.0
1,3.4000000953674316,learn,56599.99990463257,Tue Apr 29 2025 11:06:44 GMT-0400 (Eastern Daylight Time),116846.19999980927,A,pip,I,p,39,1,3398.8999996185303,113447.30000019073,9015,WL,B,1.0
1,4.150000095367432,learn,55849.99990463257,Tue Apr 29 2025 11:06:44 GMT-0400 (Eastern Daylight Time),117596.4000005722,A,pipe,I,e,728,1,4149.10000038147,113447.30000019073,9015,WL,B,1.0
1,4.75,learn,55250.0,Tue Apr 29 2025 11:06:44 GMT-0400 (Eastern Daylight Time),118196.30000019073,A,pipeenter,I,enter,583,1,4749.0,113447.30000019073,9015,WL,B,1.0
1,5.834000110626221,learn,54165.99988937378,Tue Apr 29 2025 11:06:44 GMT-0400 (Eastern Daylight Time),119280.30000019073,A,g,I,g,1075,1,1083.5,118196.80000019073,9015,WL,B,2.0
1,6.0329999923706055,learn,53967.000007629395,Tue Apr 29 2025 11:06:44 GMT-0400 (Eastern Daylight Time),119479.80000019073,A,gr,I,r,181,1,1283.0,118196.80000019073,9015,WL,B,2.0
1,6.2829999923706055,learn,53717.000007629395,Tue Apr 29 2025 11:06:44 GMT-0400 (Eastern Daylight Time),119729.80000019073,A,gra,I,a,232,1,1533.0,118196.80000019073,9015,WL,B,2.0
1,6.5,learn,53500.0,Tue Apr 29 2025 11:06:44 GMT-0400 (Eastern Daylight Time),119946.60000038147,A,gras,I,s,194,1,1749.8000001907349,118196.80000019073,9015,WL,B,2.0
1,6.634000062942505,learn,53365.999937057495,Tue Apr 29 2025 11:06:44 GMT-0400 (Eastern Daylight Time),120080.30000019073,A,grass,I,s,115,1,1883.5,118196.80000019073,9015,WL,B,2.0
1,6.8500001430511475,learn,53149.99985694885,Tue Apr 29 2025 11:06:44 GMT-0400 (Eastern Daylight Time),120296.19999980927,A,grassenter,I,enter,197,1,2099.3999996185303,118196.80000019073,9015,WL,B,2.0
1,7.617000102996826,learn,52382.999897003174,Tue Apr 29 2025 11:06:44 GMT-0400 (Eastern Daylight Time),121063.19999980927,A,w,I,w,751,1,766.5,120296.69999980927,9015,WL,B,3.0
1,7.883000135421753,learn,52116.99986457825,Tue Apr 29 2025 11:06:44 GMT-0400 (Eastern Daylight Time),121329.9000005722,A,wi,I,i,253,1,1033.2000007629395,120296.69999980927,9015,WL,B,3.0
1,8.049999952316284,learn,51950.000047683716,Tue Apr 29 2025 11:06:44 GMT-0400 (Eastern Daylight Time),121496.69999980927,A,wif,I,f,148,1,1200.0,120296.69999980927,9015,WL,B,3.0
1,8.233999967575073,learn,51766.00003242493,Tue Apr 29 2025 11:06:44 GMT-0400 (Eastern Daylight Time),121680.19999980927,A,wife,I,e,170,1,1383.5,120296.69999980927,9015,WL,B,3.0
1,8.466000080108643,learn,51533.99991989136,Tue Apr 29 2025 11:06:44 GMT-0400 (Eastern Daylight Time),121912.69999980927,A,wifeenter,I,enter,204,1,1616.0,120296.69999980927,9015,WL,B,3.0
1,9.549999952316284,learn,50450.000047683716,Tue Apr 29 2025 11:06:44 GMT-0400 (Eastern Daylight Time),122996.5,A,p,I,p,1071,1,1083.1999998092651,121913.30000019073,9015,WL,B,4.0
1,9.833000183105469,learn,50166.99981689453,Tue Apr 29 2025 11:06:44 GMT-0400 (Eastern Daylight Time),123280.0,A,pu,I,u,258,1,1366.6999998092651,121913.30000019073,9015,WL,B,4.0
1,9.950000047683716,learn,50049.999952316284,Tue Apr 29 2025 11:06:44 GMT-0400 (Eastern Daylight Time),123396.5,A,pup,I,p,101,1,1483.1999998092651,121913.30000019073,9015,WL,B,4.0
1,10.16700005531311,learn,49832.99994468689,Tue Apr 29 2025 11:06:44 GMT-0400 (Eastern Daylight Time),123613.30000019073,A,pupi,I,i,184,1,1700.0,121913.30000019073,9015,WL,B,4.0
1,10.350000143051147,learn,49649.99985694885,Tue Apr 29 2025 11:06:44 GMT-0400 (Eastern Daylight Time),123796.4000005722,A,pupil,I,l,167,1,1883.1000003814697,121913.30000019073,9015,WL,B,4.0
1,10.633000135421753,learn,49366.99986457825,Tue Apr 29 2025 11:06:44 GMT-0400 (Eastern Daylight Time),124079.4000005722,A,pupilenter,I,enter,271,1,2166.1000003814697,121913.30000019073,9015,WL,B,4.0
1,11.549999952316284,learn,48450.000047683716,Tue Apr 29 2025 11:06:44 GMT-0400 (Eastern Daylight Time),124996.5,A,s,I,s,904,1,916.5999994277954,124079.9000005722,9015,WL,B,5.0
1,11.683000087738037,learn,48316.99991226196,Tue Apr 29 2025 11:06:44 GMT-0400 (Eastern Daylight Time),125129.9000005722,A,st,I,t,112,1,1050.0,124079.9000005722,9015,WL,B,5.0
1,11.850000143051147,learn,48149.99985694885,Tue Apr 29 2025 11:06:44 GMT-0400 (Eastern Daylight Time),125296.60000038147,A,str,I,r,129,1,1216.6999998092651,124079.9000005722,9015,WL,B,5.0
1,11.900000095367432,learn,48099.99990463257,Tue Apr 29 2025 11:06:44 GMT-0400 (Eastern Daylight Time),125346.5,A,stre,I,e,36,1,1266.5999994277954,124079.9000005722,9015,WL,B,5.0
1,12.067000150680542,learn,47932.99984931946,Tue Apr 29 2025 11:06:44 GMT-0400 (Eastern Daylight Time),125513.30000019073,A,stree,I,e,140,1,1433.3999996185303,124079.9000005722,9015,WL,B,5.0
1,12.150000095367432,learn,47849.99990463257,Tue Apr 29 2025 11:06:44 GMT-0400 (Eastern Daylight Time),125596.10000038147,A,street,I,t,49,1,1516.1999998092651,124079.9000005722,9015,WL,B,5.0
1,12.466000080108643,learn,47533.99991989136,Tue Apr 29 2025 11:06:44 GMT-0400 (Eastern Daylight Time),125912.4000005722,A,streetenter,I,enter,300,1,1832.5,124079.9000005722,9015,WL,B,5.0
1,12.967000007629395,learn,47032.999992370605,Tue Apr 29 2025 11:06:44 GMT-0400 (Eastern Daylight Time),126413.19999980927,A,g,I,g,480,1,500.3999996185303,125912.80000019073,9015,WL,B,6.0
1,13.183000087738037,learn,46816.99991226196,Tue Apr 29 2025 11:06:44 GMT-0400 (Eastern Daylight Time),126629.19999980927,A,gr,I,r,200,1,716.3999996185303,125912.80000019073,9015,WL,B,6.0
1,13.333000183105469,learn,46666.99981689453,Tue Apr 29 2025 11:06:44 GMT-0400 (Eastern Daylight Time),126780.0,A,gra,I,a,130,1,867.1999998092651,125912.80000019073,9015,WL,B,6.0
1,13.467000007629395,learn,46532.999992370605,Tue Apr 29 2025 11:06:44 GMT-0400 (Eastern Daylight Time),126913.19999980927,A,gras,I,s,121,1,1000.3999996185303,125912.80000019073,9015,WL,B,6.0
1,13.600000143051147,learn,46399.99985694885,Tue Apr 29 2025 11:06:44 GMT-0400 (Eastern Daylight Time),127046.60000038147,A,grass,I,s,117,1,1133.8000001907349,125912.80000019073,9015,WL,B,6.0
1,14.782999992370605,learn,45217.000007629395,Tue Apr 29 2025 11:06:44 GMT-0400 (Eastern Daylight Time),128229.4000005722,A,grassenter,I,enter,1163,1,2316.6000003814697,125912.80000019073,9015,WL,B,6.0
1,15.383000135421753,learn,44616.99986457825,Tue Apr 29 2025 11:06:44 GMT-0400 (Eastern Daylight Time),128829.80000019073,A,a,I,a,579,1,600.0,128229.80000019073,9015,WL,B,7.0
1,15.600000143051147,learn,44399.99985694885,Tue Apr 29 2025 11:06:44 GMT-0400 (Eastern Daylight Time),129046.60000038147,A,ar,I,r,198,1,816.8000001907349,128229.80000019073,9015,WL,B,7.0
1,15.883000135421753,learn,44116.99986457825,Tue Apr 29 2025 11:06:44 GMT-0400 (Eastern Daylight Time),129329.69999980927,A,arm,I,m,263,1,1099.8999996185303,128229.80000019073,9015,WL,B,7.0
1,16.933000087738037,learn,43066.99991226196,Tue Apr 29 2025 11:06:44 GMT-0400 (Eastern Daylight Time),130379.30000019073,A,armenter,I,enter,1028,1,2149.5,128229.80000019073,9015,WL,B,7.0
1,19.850000143051147,learn,40149.99985694885,Tue Apr 29 2025 11:06:44 GMT-0400 (Eastern Daylight Time),133296.80000019073,A,c,I,c,2893,1,2917.0,130379.80000019073,9015,WL,B,8.0
1,20.0,learn,40000.0,Tue Apr 29 2025 11:06:44 GMT-0400 (Eastern Daylight Time),133446.5,A,ci,I,i,133,1,3066.699999809265,130379.80000019073,9015,WL,B,8.0
1,20.200000047683716,learn,39799.999952316284,Tue Apr 29 2025 11:06:44 GMT-0400 (Eastern Daylight Time),133646.19999980927,A,cit,I,t,175,1,3266.3999996185303,130379.80000019073,9015,WL,B,8.0
1,20.282999992370605,learn,39717.000007629395,Tue Apr 29 2025 11:06:44 GMT-0400 (Eastern Daylight Time),133729.69999980927,A,city,I,y,75,1,3349.8999996185303,130379.80000019073,9015,WL,B,8.0
1,21.016000032424927,learn,38983.99996757507,Tue Apr 29 2025 11:06:44 GMT-0400 (Eastern Daylight Time),134462.5,A,cityenter,I,enter,701,1,4082.699999809265,130379.80000019073,9015,WL,B,8.0
1,23.23300004005432,learn,36766.99995994568,Tue Apr 29 2025 11:06:44 GMT-0400 (Eastern Daylight Time),136679.9000005722,A,d,I,d,2202,1,2216.800000190735,134463.10000038147,9015,WL,B,9.0
1,23.383000135421753,learn,36616.99986457825,Tue Apr 29 2025 11:06:44 GMT-0400 (Eastern Daylight Time),136829.80000019073,A,do,I,o,126,1,2366.699999809265,134463.10000038147,9015,WL,B,9.0
1,23.532999992370605,learn,36467.000007629395,Tue Apr 29 2025 11:06:44 GMT-0400 (Eastern Daylight Time),136979.80000019073,A,doo,I,o,128,1,2516.699999809265,134463.10000038147,9015,WL,B,9.0
1,23.65000009536743,learn,36349.99990463257,Tue Apr 29 2025 11:06:44 GMT-0400 (Eastern Daylight Time),137096.60000038147,A,door,I,r,98,1,2633.5,134463.10000038147,9015,WL,B,9.0
1,24.0,learn,36000.0,Tue Apr 29 2025 11:06:44 GMT-0400 (Eastern Daylight Time),137446.19999980927,A,doorenter,I,enter,325,1,2983.0999994277954,134463.10000038147,9015,WL,B,9.0
1,60.01699995994568,learn,-16.99995994567871,Tue Apr 29 2025 11:06:44 GMT-0400 (Eastern Daylight Time),173463.4000005722,A,None,I,None,36009,1,36016.70000076294,137446.69999980927,9015,WL,B,10.0
2,2.0830001831054688,learn,57916.99981689453,Tue Apr 29 2025 11:06:44 GMT-0400 (Eastern Daylight Time),249296.60000038147,A,g,I,g,2057,1,2083.0,247213.60000038147,9015,WL,B,1.0
2,2.3500001430511475,learn,57649.99985694885,Tue Apr 29 2025 11:06:44 GMT-0400 (Eastern Daylight Time),249562.9000005722,A,gr,I,r,243,1,2349.300000190735,247213.60000038147,9015,WL,B,1.0
2,2.499000072479248,learn,57500.99992752075,Tue Apr 29 2025 11:06:44 GMT-0400 (Eastern Daylight Time),249712.60000038147,A,gra,I,a,139,1,2499.0,247213.60000038147,9015,WL,B,1.0
2,2.7160000801086426,learn,57283.99991989136,Tue Apr 29 2025 11:06:44 GMT-0400 (Eastern Daylight Time),249929.80000019073,A,gras,I,s,188,1,2716.199999809265,247213.60000038147,9015,WL,B,1.0
2,2.883000135421753,learn,57116.99986457825,Tue Apr 29 2025 11:06:44 GMT-0400 (Eastern Daylight Time),250096.4000005722,A,grass,I,s,138,1,2882.800000190735,247213.60000038147,9015,WL,B,1.0
2,3.2660000324249268,learn,56733.99996757507,Tue Apr 29 2025 11:06:44 GMT-0400 (Eastern Daylight Time),250479.19999980927,A,grassenter,I,enter,348,1,3265.5999994277954,247213.60000038147,9015,WL,B,1.0
2,3.5830001831054688,learn,56416.99981689453,Tue Apr 29 2025 11:06:44 GMT-0400 (Eastern Daylight Time),250796.30000019073,A,w,I,w,296,1,316.6000003814697,250479.69999980927,9015,WL,B,2.0
2,3.7160000801086426,learn,56283.99991989136,Tue Apr 29 2025 11:06:44 GMT-0400 (Eastern Daylight Time),250929.60000038147,A,wi,I,i,120,1,449.9000005722046,250479.69999980927,9015,WL,B,2.0
2,3.950000047683716,learn,56049.999952316284,Tue Apr 29 2025 11:06:44 GMT-0400 (Eastern Daylight Time),251163.30000019073,A,win,I,n,212,1,683.6000003814697,250479.69999980927,9015,WL,B,2.0
2,3.999000072479248,learn,56000.99992752075,Tue Apr 29 2025 11:06:44 GMT-0400 (Eastern Daylight Time),251212.80000019073,A,wind,I,d,17,1,733.1000003814697,250479.69999980927,9015,WL,B,2.0
2,4.216000080108643,learn,55783.99991989136,Tue Apr 29 2025 11:06:44 GMT-0400 (Eastern Daylight Time),251429.69999980927,A,windo,I,o,199,1,950.0,250479.69999980927,9015,WL,B,2.0
2,4.2829999923706055,learn,55717.000007629395,Tue Apr 29 2025 11:06:44 GMT-0400 (Eastern Daylight Time),251496.4000005722,A,window,I,w,49,1,1016.7000007629395,250479.69999980927,9015,WL,B,2.0
2,5.116000175476074,learn,54883.999824523926,Tue Apr 29 2025 11:06:44 GMT-0400 (Eastern Daylight Time),252329.30000019073,A,windowenter,I,enter,806,1,1849.6000003814697,250479.69999980927,9015,WL,B,2.0
2,5.5329999923706055,learn,54467.000007629395,Tue Apr 29 2025 11:06:44 GMT-0400 (Eastern Daylight Time),252746.4000005722,A,l,I,l,400,1,416.80000019073486,252329.60000038147,9015,WL,B,3.0
2,5.666000127792358,learn,54333.99987220764,Tue Apr 29 2025 11:06:44 GMT-0400 (Eastern Daylight Time),252879.60000038147,A,la,I,a,105,1,550.0,252329.60000038147,9015,WL,B,3.0
2,5.81600022315979,learn,54183.99977684021,Tue Apr 29 2025 11:06:44 GMT-0400 (Eastern Daylight Time),253029.5,A,lak,I,k,134,1,699.8999996185303,252329.60000038147,9015,WL,B,3.0
2,5.933000087738037,learn,54066.99991226196,Tue Apr 29 2025 11:06:44 GMT-0400 (Eastern Daylight Time),253146.4000005722,A,lake,I,e,93,1,816.8000001907349,252329.60000038147,9015,WL,B,3.0
2,6.266000032424927,learn,53733.99996757507,Tue Apr 29 2025 11:06:44 GMT-0400 (Eastern Daylight Time),253479.30000019073,A,lakeenter,I,enter,314,1,1149.6999998092651,252329.60000038147,9015,WL,B,3.0
2,6.633000135421753,learn,53366.99986457825,Tue Apr 29 2025 11:06:44 GMT-0400 (Eastern Daylight Time),253846.4000005722,A,s,I,s,352,1,366.70000076293945,253479.69999980927,9015,WL,B,4.0
2,6.833000183105469,learn,53166.99981689453,Tue Apr 29 2025 11:06:44 GMT-0400 (Eastern Daylight Time),254046.5,A,st,I,t,175,1,566.8000001907349,253479.69999980927,9015,WL,B,4.0
2,7.0,learn,53000.0,Tue Apr 29 2025 11:06:44 GMT-0400 (Eastern Daylight Time),254213.10000038147,A,str,I,r,144,1,733.4000005722046,253479.69999980927,9015,WL,B,4.0
2,7.06600022315979,learn,52933.99977684021,Tue Apr 29 2025 11:06:44 GMT-0400 (Eastern Daylight Time),254279.4000005722,A,stre,I,e,48,1,799.7000007629395,253479.69999980927,9015,WL,B,4.0
2,7.233000040054321,learn,52766.99995994568,Tue Apr 29 2025 11:06:44 GMT-0400 (Eastern Daylight Time),254446.30000019073,A,stree,I,e,139,1,966.6000003814697,253479.69999980927,9015,WL,B,4.0
2,7.31600022315979,learn,52683.99977684021,Tue Apr 29 2025 11:06:44 GMT-0400 (Eastern Daylight Time),254529.69999980927,A,street,I,t,72,1,1050.0,253479.69999980927,9015,WL,B,4.0
2,7.766000032424927,learn,52233.99996757507,Tue Apr 29 2025 11:06:44 GMT-0400 (Eastern Daylight Time),254979.19999980927,A,streetenter,I,enter,435,1,1499.5,253479.69999980927,9015,WL,B,4.0
2,8.032000064849854,learn,51967.99993515015,Tue Apr 29 2025 11:06:44 GMT-0400 (Eastern Daylight Time),255245.80000019073,A,a,I,a,245,1,266.19999980926514,254979.60000038147,9015,WL,B,5.0
2,8.333000183105469,learn,51666.99981689453,Tue Apr 29 2025 11:06:44 GMT-0400 (Eastern Daylight Time),255546.5,A,ar,I,r,283,1,566.8999996185303,254979.60000038147,9015,WL,B,5.0
2,8.700000047683716,learn,51299.999952316284,Tue Apr 29 2025 11:06:44 GMT-0400 (Eastern Daylight Time),255913.0,A,arm,I,m,346,1,933.3999996185303,254979.60000038147,9015,WL,B,5.0
2,8.966000080108643,learn,51033.99991989136,Tue Apr 29 2025 11:06:44 GMT-0400 (Eastern Daylight Time),256179.19999980927,A,armenter,I,enter,252,1,1199.5999994277954,254979.60000038147,9015,WL,B,5.0
2,9.200000047683716,learn,50799.999952316284,Tue Apr 29 2025 11:06:44 GMT-0400 (Eastern Daylight Time),256413.30000019073,A,w,I,w,213,1,233.60000038146973,256179.69999980927,9015,WL,B,6.0
2,9.433000087738037,learn,50566.99991226196,Tue Apr 29 2025 11:06:44 GMT-0400 (Eastern Daylight Time),256646.4000005722,A,wi,I,i,218,1,466.70000076293945,256179.69999980927,9015,WL,B,6.0
2,9.633000135421753,learn,50366.99986457825,Tue Apr 29 2025 11:06:44 GMT-0400 (Eastern Daylight Time),256846.4000005722,A,wif,I,f,174,1,666.7000007629395,256179.69999980927,9015,WL,B,6.0
2,9.81600022315979,learn,50183.99977684021,Tue Apr 29 2025 11:06:44 GMT-0400 (Eastern Daylight Time),257029.60000038147,A,wife,I,e,168,1,849.9000005722046,256179.69999980927,9015,WL,B,6.0
2,10.199000120162964,learn,49800.999879837036,Tue Apr 29 2025 11:06:44 GMT-0400 (Eastern Daylight Time),257412.5,A,wifeenter,I,enter,359,1,1232.8000001907349,256179.69999980927,9015,WL,B,6.0
2,10.550000190734863,learn,49449.99980926514,Tue Apr 29 2025 11:06:44 GMT-0400 (Eastern Daylight Time),257763.0,A,p,I,p,340,1,350.0999994277954,257412.9000005722,9015,WL,B,7.0
2,10.766000032424927,learn,49233.99996757507,Tue Apr 29 2025 11:06:44 GMT-0400 (Eastern Daylight Time),257979.60000038147,A,pi,I,i,192,1,566.6999998092651,257412.9000005722,9015,WL,B,7.0
2,10.950000047683716,learn,49049.999952316284,Tue Apr 29 2025 11:06:44 GMT-0400 (Eastern Daylight Time),258163.0,A,pip,I,p,169,1,750.0999994277954,257412.9000005722,9015,WL,B,7.0
2,11.06600022315979,learn,48933.99977684021,Tue Apr 29 2025 11:06:44 GMT-0400 (Eastern Daylight Time),258279.60000038147,A,pipe,I,e,98,1,866.6999998092651,257412.9000005722,9015,WL,B,7.0
2,11.366000175476074,learn,48633.999824523926,Tue Apr 29 2025 11:06:44 GMT-0400 (Eastern Daylight Time),258579.19999980927,A,pipeenter,I,enter,285,1,1166.2999992370605,257412.9000005722,9015,WL,B,7.0
2,12.166000127792358,learn,47833.99987220764,Tue Apr 29 2025 11:06:44 GMT-0400 (Eastern Daylight Time),259379.80000019073,A,s,I,s,789,1,800.1999998092651,258579.60000038147,9015,WL,B,8.0
2,12.366000175476074,learn,47633.999824523926,Tue Apr 29 2025 11:06:44 GMT-0400 (Eastern Daylight Time),259579.5,A,st,I,t,178,1,999.8999996185303,258579.60000038147,9015,WL,B,8.0
2,12.532999992370605,learn,47467.000007629395,Tue Apr 29 2025 11:06:44 GMT-0400 (Eastern Daylight Time),259746.30000019073,A,sta,I,a,154,1,1166.6999998092651,258579.60000038147,9015,WL,B,8.0
2,12.633000135421753,learn,47366.99986457825,Tue Apr 29 2025 11:06:44 GMT-0400 (Eastern Daylight Time),259846.30000019073,A,star,I,r,75,1,1266.6999998092651,258579.60000038147,9015,WL,B,8.0
2,14.81600022315979,learn,45183.99977684021,Tue Apr 29 2025 11:06:44 GMT-0400 (Eastern Daylight Time),262029.10000038147,A,starenter,I,enter,2158,1,3449.5,258579.60000038147,9015,WL,B,8.0
2,16.66600012779236,learn,43333.99987220764,Tue Apr 29 2025 11:06:44 GMT-0400 (Eastern Daylight Time),263879.69999980927,A,s,I,s,1835,1,1850.2999992370605,262029.4000005722,9015,WL,B,9.0
2,16.766000032424927,learn,43233.99996757507,Tue Apr 29 2025 11:06:44 GMT-0400 (Eastern Daylight Time),263979.60000038147,A,st,I,t,78,1,1950.1999998092651,262029.4000005722,9015,WL,B,9.0
2,16.933000087738037,learn,43066.99991226196,Tue Apr 29 2025 11:06:44 GMT-0400 (Eastern Daylight Time),264146.19999980927,A,str,I,r,153,1,2116.7999992370605,262029.4000005722,9015,WL,B,9.0
2,17.032999992370605,learn,42967.000007629395,Tue Apr 29 2025 11:06:44 GMT-0400 (Eastern Daylight Time),264246.30000019073,A,stre,I,e,83,1,2216.8999996185303,262029.4000005722,9015,WL,B,9.0
2,17.200000047683716,learn,42799.999952316284,Tue Apr 29 2025 11:06:44 GMT-0400 (Eastern Daylight Time),264413.0,A,stree,I,e,143,1,2383.5999994277954,262029.4000005722,9015,WL,B,9.0
2,17.284000158309937,learn,42715.99984169006,Tue Apr 29 2025 11:06:44 GMT-0400 (Eastern Daylight Time),264496.9000005722,A,street,I,t,64,1,2467.5,262029.4000005722,9015,WL,B,9.0
2,18.299000024795532,learn,41700.99997520447,Tue Apr 29 2025 11:06:44 GMT-0400 (Eastern Daylight Time),265512.60000038147,A,streetenter,I,enter,998,1,3483.199999809265,262029.4000005722,9015,WL,B,9.0
2,19.116000175476074,learn,40883.999824523926,Tue Apr 29 2025 11:06:44 GMT-0400 (Eastern Daylight Time),266329.69999980927,A,a,I,a,801,1,816.7999992370605,265512.9000005722,9015,WL,B,10.0
2,19.48300004005432,learn,40516.99995994568,Tue Apr 29 2025 11:06:44 GMT-0400 (Eastern Daylight Time),266696.30000019073,A,ar,I,r,346,1,1183.3999996185303,265512.9000005722,9015,WL,B,10.0
2,19.600000143051147,learn,40399.99985694885,Tue Apr 29 2025 11:06:44 GMT-0400 (Eastern Daylight Time),266813.0,A,arm,I,m,93,1,1300.0999994277954,265512.9000005722,9015,WL,B,10.0
2,19.91600012779236,learn,40083.99987220764,Tue Apr 29 2025 11:06:44 GMT-0400 (Eastern Daylight Time),267129.19999980927,A,armenter,I,enter,288,1,1616.2999992370605,265512.9000005722,9015,WL,B,10.0
2,28.65000009536743,learn,31349.99990463257,Tue Apr 29 2025 11:06:44 GMT-0400 (Eastern Daylight Time),275863.19999980927,A,p,I,p,8720,1,8733.599999427795,267129.60000038147,9015,WL,B,11.0
2,28.89900016784668,learn,31100.99983215332,Tue Apr 29 2025 11:06:44 GMT-0400 (Eastern Daylight Time),276112.69999980927,A,pu,I,u,235,1,8983.099999427795,267129.60000038147,9015,WL,B,11.0
2,29.082000017166138,learn,30917.999982833862,Tue Apr 29 2025 11:06:44 GMT-0400 (Eastern Daylight Time),276295.80000019073,A,pup,I,p,165,1,9166.199999809265,267129.60000038147,9015,WL,B,11.0
2,29.299000024795532,learn,30700.999975204468,Tue Apr 29 2025 11:06:44 GMT-0400 (Eastern Daylight Time),276512.80000019073,A,pupi,I,i,208,1,9383.199999809265,267129.60000038147,9015,WL,B,11.0
2,29.56600022315979,learn,30433.99977684021,Tue Apr 29 2025 11:06:44 GMT-0400 (Eastern Daylight Time),276779.60000038147,A,pupil,I,l,246,1,9650.0,267129.60000038147,9015,WL,B,11.0
2,30.099000215530396,learn,29900.999784469604,Tue Apr 29 2025 11:06:44 GMT-0400 (Eastern Daylight Time),277312.4000005722,A,pupilenter,I,enter,522,1,10182.800000190735,267129.60000038147,9015,WL,B,11.0
2,36.099000215530396,learn,23900.999784469604,Tue Apr 29 2025 11:06:44 GMT-0400 (Eastern Daylight Time),283312.80000019073,A,s,I,s,5991,1,6000.0,277312.80000019073,9015,WL,B,12.0
2,36.18300008773804,learn,23816.999912261963,Tue Apr 29 2025 11:06:44 GMT-0400 (Eastern Daylight Time),283396.30000019073,A,sk,I,k,69,1,6083.5,277312.80000019073,9015,WL,B,12.0
2,36.39900016784668,learn,23600.99983215332,Tue Apr 29 2025 11:06:44 GMT-0400 (Eastern Daylight Time),283612.9000005722,A,ski,I,i,188,1,6300.10000038147,277312.80000019073,9015,WL,B,12.0
2,36.48200011253357,learn,23517.99988746643,Tue Apr 29 2025 11:06:44 GMT-0400 (Eastern Daylight Time),283695.69999980927,A,skin,I,n,65,1,6382.89999961853,277312.80000019073,9015,WL,B,12.0
2,36.89900016784668,learn,23100.99983215332,Tue Apr 29 2025 11:06:44 GMT-0400 (Eastern Daylight Time),284112.4000005722,A,skinenter,I,enter,408,1,6799.60000038147,277312.80000019073,9015,WL,B,12.0
2,44.949000120162964,learn,15050.999879837036,Tue Apr 29 2025 11:06:44 GMT-0400 (Eastern Daylight Time),292162.80000019073,A,c,I,c,8040,1,8049.89999961853,284112.9000005722,9015,WL,B,13.0
2,45.23300004005432,learn,14766.999959945679,Tue Apr 29 2025 11:06:44 GMT-0400 (Eastern Daylight Time),292446.30000019073,A,ci,I,i,259,1,8333.39999961853,284112.9000005722,9015,WL,B,13.0
2,45.41600012779236,learn,14583.999872207642,Tue Apr 29 2025 11:06:44 GMT-0400 (Eastern Daylight Time),292629.60000038147,A,cit,I,t,167,1,8516.699999809265,284112.9000005722,9015,WL,B,13.0
2,45.51600003242493,learn,14483.999967575073,Tue Apr 29 2025 11:06:44 GMT-0400 (Eastern Daylight Time),292729.4000005722,A,city,I,y,78,1,8616.5,284112.9000005722,9015,WL,B,13.0
2,45.91600012779236,learn,14083.999872207642,Tue Apr 29 2025 11:06:44 GMT-0400 (Eastern Daylight Time),293129.0,A,cityenter,I,enter,373,1,9016.099999427795,284112.9000005722,9015,WL,B,13.0
2,60.01600003242493,learn,-16.000032424926758,Tue Apr 29 2025 11:06:44 GMT-0400 (Eastern Daylight Time),307229.69999980927,A,None,I,None,14093,1,14100.199999809265,293129.5,9015,WL,B,14.0
3,0.8329999446868896,learn,59167.00005531311,Tue Apr 29 2025 11:06:44 GMT-0400 (Eastern Daylight Time),377112.69999980927,A,c,I,c,814,1,833.0999994277954,376279.60000038147,9015,WL,B,1.0
3,1.0329999923706055,learn,58967.000007629395,Tue Apr 29 2025 11:06:44 GMT-0400 (Eastern Daylight Time),377312.60000038147,A,cl,I,l,188,1,1033.0,376279.60000038147,9015,WL,B,1.0
3,1.25,learn,58750.0,Tue Apr 29 2025 11:06:44 GMT-0400 (Eastern Daylight Time),377529.4000005722,A,clo,I,o,188,1,1249.8000001907349,376279.60000038147,9015,WL,B,1.0
3,1.3999998569488525,learn,58600.00014305115,Tue Apr 29 2025 11:06:44 GMT-0400 (Eastern Daylight Time),377679.5,A,cloc,I,c,124,1,1399.8999996185303,376279.60000038147,9015,WL,B,1.0
3,1.4829998016357422,learn,58517.00019836426,Tue Apr 29 2025 11:06:44 GMT-0400 (Eastern Daylight Time),377762.69999980927,A,clock,I,k,70,1,1483.0999994277954,376279.60000038147,9015,WL,B,1.0
3,2.2659997940063477,learn,57734.00020599365,Tue Apr 29 2025 11:06:44 GMT-0400 (Eastern Daylight Time),378545.69999980927,A,clockenter,I,enter,764,1,2266.0999994277954,376279.60000038147,9015,WL,B,1.0
3,2.75,learn,57250.0,Tue Apr 29 2025 11:06:44 GMT-0400 (Eastern Daylight Time),379029.60000038147,A,c,I,c,470,1,483.5,378546.10000038147,9015,WL,B,2.0
3,3.0,learn,57000.0,Tue Apr 29 2025 11:06:44 GMT-0400 (Eastern Daylight Time),379279.5,A,ca,I,a,224,1,733.3999996185303,378546.10000038147,9015,WL,B,2.0
3,3.116999864578247,learn,56883.00013542175,Tue Apr 29 2025 11:06:44 GMT-0400 (Eastern Daylight Time),379396.19999980927,A,cab,I,b,95,1,850.0999994277954,378546.10000038147,9015,WL,B,2.0
3,3.3999998569488525,learn,56600.00014305115,Tue Apr 29 2025 11:06:44 GMT-0400 (Eastern Daylight Time),379679.9000005722,A,cabi,I,i,273,1,1133.8000001907349,378546.10000038147,9015,WL,B,2.0
3,3.566999912261963,learn,56433.00008773804,Tue Apr 29 2025 11:06:44 GMT-0400 (Eastern Daylight Time),379846.19999980927,A,cabin,I,n,150,1,1300.0999994277954,378546.10000038147,9015,WL,B,2.0
3,3.9159998893737793,learn,56084.00011062622,Tue Apr 29 2025 11:06:44 GMT-0400 (Eastern Daylight Time),380195.69999980927,A,cabinenter,I,enter,334,1,1649.5999994277954,378546.10000038147,9015,WL,B,2.0
3,4.182999849319458,learn,55817.00015068054,Tue Apr 29 2025 11:06:44 GMT-0400 (Eastern Daylight Time),380462.10000038147,A,f,I,f,243,1,266.0,380196.10000038147,9015,WL,B,3.0
3,4.298999786376953,learn,55701.00021362305,Tue Apr 29 2025 11:06:44 GMT-0400 (Eastern Daylight Time),380578.69999980927,A,fi,I,i,105,1,382.5999994277954,380196.10000038147,9015,WL,B,3.0
3,4.799999952316284,learn,55200.000047683716,Tue Apr 29 2025 11:06:44 GMT-0400 (Eastern Daylight Time),381079.4000005722,A,fie,I,e,485,1,883.3000001907349,380196.10000038147,9015,WL,B,3.0
3,5.199999809265137,learn,54800.00019073486,Tue Apr 29 2025 11:06:44 GMT-0400 (Eastern Daylight Time),381479.0,A,fieenter,I,enter,382,1,1282.8999996185303,380196.10000038147,9015,WL,B,3.0
3,7.799999952316284,learn,52200.000047683716,Tue Apr 29 2025 11:06:44 GMT-0400 (Eastern Daylight Time),384079.69999980927,A,w,I,w,2577,1,2600.2999992370605,381479.4000005722,9015,WL,B,4.0
3,7.932999849319458,learn,52067.00015068054,Tue Apr 29 2025 11:06:44 GMT-0400 (Eastern Daylight Time),384212.80000019073,A,wi,I,i,117,1,2733.3999996185303,381479.4000005722,9015,WL,B,4.0
3,8.049999952316284,learn,51950.000047683716,Tue Apr 29 2025 11:06:44 GMT-0400 (Eastern Daylight Time),384329.60000038147,A,wif,I,f,96,1,2850.199999809265,381479.4000005722,9015,WL,B,4.0
3,8.366999864578247,learn,51633.00013542175,Tue Apr 29 2025 11:06:44 GMT-0400 (Eastern Daylight Time),384646.30000019073,A,wife,I,e,298,1,3166.8999996185303,381479.4000005722,9015,WL,B,4.0
3,9.0,learn,51000.0,Tue Apr 29 2025 11:06:44 GMT-0400 (Eastern Daylight Time),385278.9000005722,A,wifeenter,I,enter,607,1,3799.5,381479.4000005722,9015,WL,B,4.0
3,10.132999897003174,learn,49867.000102996826,Tue Apr 29 2025 11:06:44 GMT-0400 (Eastern Daylight Time),386412.9000005722,A,f,I,f,1114,1,1133.6000003814697,385279.30000019073,9015,WL,B,5.0
3,10.616999864578247,learn,49383.00013542175,Tue Apr 29 2025 11:06:44 GMT-0400 (Eastern Daylight Time),386896.0,A,,I,backspace,473,1,1616.6999998092651,385279.30000019073,9015,WL,B,5.0
3,10.849999904632568,learn,49150.00009536743,Tue Apr 29 2025 11:06:44 GMT-0400 (Eastern Daylight Time),387129.5,A,g,I,g,213,1,1850.1999998092651,385279.30000019073,9015,WL,B,5.0
3,11.132999897003174,learn,48867.000102996826,Tue Apr 29 2025 11:06:44 GMT-0400 (Eastern Daylight Time),387412.9000005722,A,gr,I,r,267,1,2133.6000003814697,385279.30000019073,9015,WL,B,5.0
3,11.33299994468689,learn,48667.00005531311,Tue Apr 29 2025 11:06:44 GMT-0400 (Eastern Daylight Time),387612.69999980927,A,gra,I,a,174,1,2333.3999996185303,385279.30000019073,9015,WL,B,5.0
3,11.516999959945679,learn,48483.00004005432,Tue Apr 29 2025 11:06:44 GMT-0400 (Eastern Daylight Time),387796.19999980927,A,gras,I,s,160,1,2516.8999996185303,385279.30000019073,9015,WL,B,5.0
3,11.649999856948853,learn,48350.00014305115,Tue Apr 29 2025 11:06:44 GMT-0400 (Eastern Daylight Time),387929.30000019073,A,grass,I,s,113,1,2650.0,385279.30000019073,9015,WL,B,5.0
3,12.516999959945679,learn,47483.00004005432,Tue Apr 29 2025 11:06:44 GMT-0400 (Eastern Daylight Time),388796.80000019073,A,grassenter,I,enter,844,1,3517.5,385279.30000019073,9015,WL,B,5.0
3,12.732999801635742,learn,47267.00019836426,Tue Apr 29 2025 11:06:44 GMT-0400 (Eastern Daylight Time),389012.9000005722,A,w,I,w,202,1,215.60000038146973,388797.30000019073,9015,WL,B,6.0
3,12.966999769210815,learn,47033.000230789185,Tue Apr 29 2025 11:06:44 GMT-0400 (Eastern Daylight Time),389246.0,A,wi,I,i,208,1,448.69999980926514,388797.30000019073,9015,WL,B,6.0
3,13.166999816894531,learn,46833.00018310547,Tue Apr 29 2025 11:06:44 GMT-0400 (Eastern Daylight Time),389446.10000038147,A,win,I,n,183,1,648.8000001907349,388797.30000019073,9015,WL,B,6.0
3,13.282999992370605,learn,46717.000007629395,Tue Apr 29 2025 11:06:44 GMT-0400 (Eastern Daylight Time),389562.60000038147,A,wind,I,d,95,1,765.3000001907349,388797.30000019073,9015,WL,B,6.0
3,13.5,learn,46500.0,Tue Apr 29 2025 11:06:44 GMT-0400 (Eastern Daylight Time),389779.5,A,windo,I,o,195,1,982.1999998092651,388797.30000019073,9015,WL,B,6.0
3,13.565999984741211,learn,46434.00001525879,Tue Apr 29 2025 11:06:44 GMT-0400 (Eastern Daylight Time),389845.9000005722,A,window,I,w,49,1,1048.6000003814697,388797.30000019073,9015,WL,B,6.0
3,13.865999937057495,learn,46134.000062942505,Tue Apr 29 2025 11:06:44 GMT-0400 (Eastern Daylight Time),390145.69999980927,A,windowenter,I,enter,285,1,1348.3999996185303,388797.30000019073,9015,WL,B,6.0
3,14.75,learn,45250.0,Tue Apr 29 2025 11:06:44 GMT-0400 (Eastern Daylight Time),391029.5,A,d,I,d,870,1,883.5,390146.0,9015,WL,B,7.0
3,14.899999856948853,learn,45100.00014305115,Tue Apr 29 2025 11:06:44 GMT-0400 (Eastern Daylight Time),391179.60000038147,A,do,I,o,128,1,1033.6000003814697,390146.0,9015,WL,B,7.0
3,15.016999959945679,learn,44983.00004005432,Tue Apr 29 2025 11:06:44 GMT-0400 (Eastern Daylight Time),391296.10000038147,A,doo,I,o,98,1,1150.1000003814697,390146.0,9015,WL,B,7.0
3,15.099999904632568,learn,44900.00009536743,Tue Apr 29 2025 11:06:44 GMT-0400 (Eastern Daylight Time),391379.30000019073,A,door,I,r,62,1,1233.3000001907349,390146.0,9015,WL,B,7.0
3,15.482999801635742,learn,44517.00019836426,Tue Apr 29 2025 11:06:44 GMT-0400 (Eastern Daylight Time),391762.4000005722,A,doorenter,I,enter,368,1,1616.4000005722046,390146.0,9015,WL,B,7.0
3,16.09999990463257,learn,43900.00009536743,Tue Apr 29 2025 11:06:44 GMT-0400 (Eastern Daylight Time),392379.4000005722,A,a,I,a,598,1,616.7000007629395,391762.69999980927,9015,WL,B,8.0
3,16.316999912261963,learn,43683.00008773804,Tue Apr 29 2025 11:06:44 GMT-0400 (Eastern Daylight Time),392596.19999980927,A,ar,I,r,201,1,833.5,391762.69999980927,9015,WL,B,8.0
3,16.382999897003174,learn,43617.000102996826,Tue Apr 29 2025 11:06:44 GMT-0400 (Eastern Daylight Time),392662.80000019073,A,arm,I,m,47,1,900.1000003814697,391762.69999980927,9015,WL,B,8.0
3,17.049999952316284,learn,42950.000047683716,Tue Apr 29 2025 11:06:44 GMT-0400 (Eastern Daylight Time),393328.9000005722,A,armenter,I,enter,648,1,1566.2000007629395,391762.69999980927,9015,WL,B,8.0
3,20.899999856948853,learn,39100.00014305115,Tue Apr 29 2025 11:06:44 GMT-0400 (Eastern Daylight Time),397179.60000038147,A,c,I,c,3832,1,3850.199999809265,393329.4000005722,9015,WL,B,9.0
3,21.09999990463257,learn,38900.00009536743,Tue Apr 29 2025 11:06:44 GMT-0400 (Eastern Daylight Time),397379.5,A,ci,I,i,183,1,4050.0999994277954,393329.4000005722,9015,WL,B,9.0
3,21.33299994468689,learn,38667.00005531311,Tue Apr 29 2025 11:06:44 GMT-0400 (Eastern Daylight Time),397612.80000019073,A,cit,I,t,210,1,4283.39999961853,393329.4000005722,9015,WL,B,9.0
3,21.3989999294281,learn,38601.0000705719,Tue Apr 29 2025 11:06:44 GMT-0400 (Eastern Daylight Time),397679.0,A,city,I,y,40,1,4349.599999427795,393329.4000005722,9015,WL,B,9.0
3,21.732999801635742,learn,38267.00019836426,Tue Apr 29 2025 11:06:44 GMT-0400 (Eastern Daylight Time),398012.30000019073,A,cityenter,I,enter,311,1,4682.89999961853,393329.4000005722,9015,WL,B,9.0
3,22.08299994468689,learn,37917.00005531311,Tue Apr 29 2025 11:06:44 GMT-0400 (Eastern Daylight Time),398362.9000005722,A,p,I,p,332,1,350.20000076293945,398012.69999980927,9015,WL,B,10.0
3,22.366999864578247,learn,37633.00013542175,Tue Apr 29 2025 11:06:44 GMT-0400 (Eastern Daylight Time),398646.4000005722,A,pu,I,u,266,1,633.7000007629395,398012.69999980927,9015,WL,B,10.0
3,23.032999992370605,learn,36967.000007629395,Tue Apr 29 2025 11:06:44 GMT-0400 (Eastern Daylight Time),399312.4000005722,A,pup,I,p,654,1,1299.7000007629395,398012.69999980927,9015,WL,B,10.0
3,23.299999952316284,learn,36700.000047683716,Tue Apr 29 2025 11:06:44 GMT-0400 (Eastern Daylight Time),399579.4000005722,A,pupi,I,i,245,1,1566.7000007629395,398012.69999980927,9015,WL,B,10.0
3,23.482999801635742,learn,36517.00019836426,Tue Apr 29 2025 11:06:44 GMT-0400 (Eastern Daylight Time),399762.80000019073,A,pupil,I,l,169,1,1750.1000003814697,398012.69999980927,9015,WL,B,10.0
3,23.765999794006348,learn,36234.00020599365,Tue Apr 29 2025 11:06:44 GMT-0400 (Eastern Daylight Time),400045.60000038147,A,pupilenter,I,enter,250,1,2032.9000005722046,398012.69999980927,9015,WL,B,10.0
3,24.132999897003174,learn,35867.000102996826,Tue Apr 29 2025 11:06:44 GMT-0400 (Eastern Daylight Time),400412.80000019073,A,p,I,p,347,1,366.8999996185303,400045.9000005722,9015,WL,B,11.0
3,24.366999864578247,learn,35633.00013542175,Tue Apr 29 2025 11:06:44 GMT-0400 (Eastern Daylight Time),400646.10000038147,A,pi,I,i,217,1,600.1999998092651,400045.9000005722,9015,WL,B,11.0
3,24.59999990463257,learn,35400.00009536743,Tue Apr 29 2025 11:06:44 GMT-0400 (Eastern Daylight Time),400879.30000019073,A,pip,I,p,199,1,833.3999996185303,400045.9000005722,9015,WL,B,11.0
3,24.899999856948853,learn,35100.00014305115,Tue Apr 29 2025 11:06:44 GMT-0400 (Eastern Daylight Time),401179.30000019073,A,pipe,I,e,278,1,1133.3999996185303,400045.9000005722,9015,WL,B,11.0
3,25.199999809265137,learn,34800.00019073486,Tue Apr 29 2025 11:06:44 GMT-0400 (Eastern Daylight Time),401479.0,A,pipeenter,I,enter,279,1,1433.0999994277954,400045.9000005722,9015,WL,B,11.0
3,27.232999801635742,learn,32767.000198364258,Tue Apr 29 2025 11:06:44 GMT-0400 (Eastern Daylight Time),403512.80000019073,A,s,I,s,2017,1,2033.5,401479.30000019073,9015,WL,B,12.0
3,27.366999864578247,learn,32633.000135421753,Tue Apr 29 2025 11:06:44 GMT-0400 (Eastern Daylight Time),403646.19999980927,A,sk,I,k,109,1,2166.8999996185303,401479.30000019073,9015,WL,B,12.0
3,27.549999952316284,learn,32450.000047683716,Tue Apr 29 2025 11:06:44 GMT-0400 (Eastern Daylight Time),403829.30000019073,A,ski,I,i,159,1,2350.0,401479.30000019073,9015,WL,B,12.0
3,27.699999809265137,learn,32300.000190734863,Tue Apr 29 2025 11:06:44 GMT-0400 (Eastern Daylight Time),403979.4000005722,A,skin,I,n,127,1,2500.1000003814697,401479.30000019073,9015,WL,B,12.0
3,27.982999801635742,learn,32017.000198364258,Tue Apr 29 2025 11:06:44 GMT-0400 (Eastern Daylight Time),404262.4000005722,A,skinenter,I,enter,261,1,2783.1000003814697,401479.30000019073,9015,WL,B,12.0
3,33.51699995994568,learn,26483.00004005432,Tue Apr 29 2025 11:06:44 GMT-0400 (Eastern Daylight Time),409796.19999980927,A,f,I,f,5522,1,5533.5,404262.69999980927,9015,WL,B,13.0
3,33.598999977111816,learn,26401.000022888184,Tue Apr 29 2025 11:06:44 GMT-0400 (Eastern Daylight Time),409878.9000005722,A,fi,I,i,64,1,5616.200000762939,404262.69999980927,9015,WL,B,13.0
3,33.75,learn,26250.0,Tue Apr 29 2025 11:06:44 GMT-0400 (Eastern Daylight Time),410029.30000019073,A,fir,I,r,129,1,5766.60000038147,404262.69999980927,9015,WL,B,13.0
3,33.89999985694885,learn,26100.000143051147,Tue Apr 29 2025 11:06:44 GMT-0400 (Eastern Daylight Time),410179.4000005722,A,fire,I,e,127,1,5916.700000762939,404262.69999980927,9015,WL,B,13.0
3,34.1489999294281,learn,25851.0000705719,Tue Apr 29 2025 11:06:44 GMT-0400 (Eastern Daylight Time),410429.0,A,fireenter,I,enter,226,1,6166.300000190735,404262.69999980927,9015,WL,B,13.0
3,43.61699986457825,learn,16383.000135421753,Tue Apr 29 2025 11:06:44 GMT-0400 (Eastern Daylight Time),419896.19999980927,A,s,I,s,9452,1,9466.89999961853,410429.30000019073,9015,WL,B,14.0
3,43.75,learn,16250.0,Tue Apr 29 2025 11:06:44 GMT-0400 (Eastern Daylight Time),420029.4000005722,A,st,I,t,107,1,9600.10000038147,410429.30000019073,9015,WL,B,14.0
3,44.0,learn,16000.0,Tue Apr 29 2025 11:06:44 GMT-0400 (Eastern Daylight Time),420279.30000019073,A,str,I,r,223,1,9850.0,410429.30000019073,9015,WL,B,14.0
3,44.19999980926514,learn,15800.000190734863,Tue Apr 29 2025 11:06:44 GMT-0400 (Eastern Daylight Time),420479.5,A,stre,I,e,189,1,10050.199999809265,410429.30000019073,9015,WL,B,14.0
3,44.34999990463257,learn,15650.000095367432,Tue Apr 29 2025 11:06:44 GMT-0400 (Eastern Daylight Time),420629.30000019073,A,stree,I,e,125,1,10200.0,410429.30000019073,9015,WL,B,14.0
3,44.41699981689453,learn,15583.000183105469,Tue Apr 29 2025 11:06:44 GMT-0400 (Eastern Daylight Time),420696.10000038147,A,street,I,t,48,1,10266.800000190735,410429.30000019073,9015,WL,B,14.0
3,44.782999992370605,learn,15217.000007629395,Tue Apr 29 2025 11:06:44 GMT-0400 (Eastern Daylight Time),421062.30000019073,A,streetenter,I,enter,341,1,10633.0,410429.30000019073,9015,WL,B,14.0
3,49.68299984931946,learn,10317.000150680542,Tue Apr 29 2025 11:06:44 GMT-0400 (Eastern Daylight Time),425962.9000005722,A,c,I,c,4882,1,4900.200000762939,421062.69999980927,9015,WL,B,15.0
3,49.799999952316284,learn,10200.000047683716,Tue Apr 29 2025 11:06:44 GMT-0400 (Eastern Daylight Time),426079.5,A,cl,I,l,106,1,5016.800000190735,421062.69999980927,9015,WL,B,15.0
3,50.0,learn,10000.0,Tue Apr 29 2025 11:06:44 GMT-0400 (Eastern Daylight Time),426279.4000005722,A,clo,I,o,180,1,5216.700000762939,421062.69999980927,9015,WL,B,15.0
3,50.132999897003174,learn,9867.000102996826,Tue Apr 29 2025 11:06:44 GMT-0400 (Eastern Daylight Time),426412.80000019073,A,cloc,I,c,110,1,5350.10000038147,421062.69999980927,9015,WL,B,15.0
3,50.198999881744385,learn,9801.000118255615,Tue Apr 29 2025 11:06:44 GMT-0400 (Eastern Daylight Time),426478.80000019073,A,clock,I,k,33,1,5416.10000038147,421062.69999980927,9015,WL,B,15.0
3,50.84999990463257,learn,9150.000095367432,Tue Apr 29 2025 11:06:44 GMT-0400 (Eastern Daylight Time),427129.0,A,clockenter,I,enter,634,1,6066.300000190735,421062.69999980927,9015,WL,B,15.0
4,1.2000000476837158,learn,58799.999952316284,Tue Apr 29 2025 11:06:44 GMT-0400 (Eastern Daylight Time),498579.60000038147,A,s,I,s,1187,1,1200.0,497379.60000038147,9015,WL,B,1.0
4,1.2999999523162842,learn,58700.000047683716,Tue Apr 29 2025 11:06:44 GMT-0400 (Eastern Daylight Time),498679.19999980927,A,st,I,t,80,1,1299.5999994277954,497379.60000038147,9015,WL,B,1.0
4,1.5169999599456787,learn,58483.00004005432,Tue Apr 29 2025 11:06:44 GMT-0400 (Eastern Daylight Time),498896.19999980927,A,str,I,r,183,1,1516.5999994277954,497379.60000038147,9015,WL,B,1.0
4,1.616999864578247,learn,58383.00013542175,Tue Apr 29 2025 11:06:44 GMT-0400 (Eastern Daylight Time),498996.10000038147,A,stre,I,e,82,1,1616.5,497379.60000038147,9015,WL,B,1.0
4,1.7829999923706055,learn,58217.000007629395,Tue Apr 29 2025 11:06:44 GMT-0400 (Eastern Daylight Time),499162.69999980927,A,stree,I,e,137,1,1783.0999994277954,497379.60000038147,9015,WL,B,1.0
4,1.8659999370574951,learn,58134.000062942505,Tue Apr 29 2025 11:06:44 GMT-0400 (Eastern Daylight Time),499245.80000019073,A,street,I,t,59,1,1866.1999998092651,497379.60000038147,9015,WL,B,1.0
4,2.365999937057495,learn,57634.000062942505,Tue Apr 29 2025 11:06:44 GMT-0400 (Eastern Daylight Time),499745.60000038147,A,streetenter,I,enter,488,1,2366.0,497379.60000038147,9015,WL,B,1.0
4,2.799999952316284,learn,57200.000047683716,Tue Apr 29 2025 11:06:44 GMT-0400 (Eastern Daylight Time),500179.10000038147,A,g,I,g,422,1,433.19999980926514,499745.9000005722,9015,WL,B,2.0
4,3.0160000324249268,learn,56983.99996757507,Tue Apr 29 2025 11:06:44 GMT-0400 (Eastern Daylight Time),500395.10000038147,A,gr,I,r,194,1,649.1999998092651,499745.9000005722,9015,WL,B,2.0
4,3.2990000247955322,learn,56700.99997520447,Tue Apr 29 2025 11:06:44 GMT-0400 (Eastern Daylight Time),500678.80000019073,A,gra,I,a,268,1,932.8999996185303,499745.9000005722,9015,WL,B,2.0
4,3.5169999599456787,learn,56483.00004005432,Tue Apr 29 2025 11:06:44 GMT-0400 (Eastern Daylight Time),500895.9000005722,A,gras,I,s,193,1,1150.0,499745.9000005722,9015,WL,B,2.0
4,3.683000087738037,learn,56316.99991226196,Tue Apr 29 2025 11:06:44 GMT-0400 (Eastern Daylight Time),501062.60000038147,A,grass,I,s,149,1,1316.6999998092651,499745.9000005722,9015,WL,B,2.0
4,4.848999977111816,learn,55151.00002288818,Tue Apr 29 2025 11:06:44 GMT-0400 (Eastern Daylight Time),502228.80000019073,A,grassenter,I,enter,1147,1,2482.8999996185303,499745.9000005722,9015,WL,B,2.0
4,5.933000087738037,learn,54066.99991226196,Tue Apr 29 2025 11:06:44 GMT-0400 (Eastern Daylight Time),503312.5,A,s,I,s,1075,1,1083.3000001907349,502229.19999980927,9015,WL,B,3.0
4,6.099999904632568,learn,53900.00009536743,Tue Apr 29 2025 11:06:44 GMT-0400 (Eastern Daylight Time),503479.30000019073,A,sk,I,k,149,1,1250.1000003814697,502229.19999980927,9015,WL,B,3.0
4,6.299999952316284,learn,53700.000047683716,Tue Apr 29 2025 11:06:44 GMT-0400 (Eastern Daylight Time),503679.69999980927,A,ski,I,i,182,1,1450.5,502229.19999980927,9015,WL,B,3.0
4,6.450000047683716,learn,53549.999952316284,Tue Apr 29 2025 11:06:44 GMT-0400 (Eastern Daylight Time),503829.30000019073,A,skin,I,n,134,1,1600.1000003814697,502229.19999980927,9015,WL,B,3.0
4,6.700999975204468,learn,53299.00002479553,Tue Apr 29 2025 11:06:44 GMT-0400 (Eastern Daylight Time),504080.0,A,skinenter,I,enter,224,1,1850.8000001907349,502229.19999980927,9015,WL,B,3.0
4,7.116999864578247,learn,52883.00013542175,Tue Apr 29 2025 11:06:44 GMT-0400 (Eastern Daylight Time),504496.10000038147,A,w,I,w,393,1,415.80000019073486,504080.30000019073,9015,WL,B,4.0
4,7.266999959945679,learn,52733.00004005432,Tue Apr 29 2025 11:06:44 GMT-0400 (Eastern Daylight Time),504646.0,A,wi,I,i,133,1,565.6999998092651,504080.30000019073,9015,WL,B,4.0
4,7.466000080108643,learn,52533.99991989136,Tue Apr 29 2025 11:06:44 GMT-0400 (Eastern Daylight Time),504845.80000019073,A,wif,I,f,168,1,765.5,504080.30000019073,9015,WL,B,4.0
4,7.650000095367432,learn,52349.99990463257,Tue Apr 29 2025 11:06:44 GMT-0400 (Eastern Daylight Time),505029.4000005722,A,wife,I,e,168,1,949.1000003814697,504080.30000019073,9015,WL,B,4.0
4,8.032999992370605,learn,51967.000007629395,Tue Apr 29 2025 11:06:44 GMT-0400 (Eastern Daylight Time),505412.10000038147,A,wifeenter,I,enter,358,1,1331.8000001907349,504080.30000019073,9015,WL,B,4.0
4,8.5,learn,51500.0,Tue Apr 29 2025 11:06:44 GMT-0400 (Eastern Daylight Time),505879.19999980927,A,a,I,a,452,1,466.5999994277954,505412.60000038147,9015,WL,B,5.0
4,8.816999912261963,learn,51183.00008773804,Tue Apr 29 2025 11:06:44 GMT-0400 (Eastern Daylight Time),506196.0,A,ar,I,r,303,1,783.3999996185303,505412.60000038147,9015,WL,B,5.0
4,9.115999937057495,learn,50884.000062942505,Tue Apr 29 2025 11:06:44 GMT-0400 (Eastern Daylight Time),506495.60000038147,A,arm,I,m,289,1,1083.0,505412.60000038147,9015,WL,B,5.0
4,9.3989999294281,learn,50601.0000705719,Tue Apr 29 2025 11:06:44 GMT-0400 (Eastern Daylight Time),506778.80000019073,A,armenter,I,enter,259,1,1366.1999998092651,505412.60000038147,9015,WL,B,5.0
4,9.700000047683716,learn,50299.999952316284,Tue Apr 29 2025 11:06:44 GMT-0400 (Eastern Daylight Time),507079.30000019073,A,c,I,c,285,1,300.1000003814697,506779.19999980927,9015,WL,B,6.0
4,9.849999904632568,learn,50150.00009536743,Tue Apr 29 2025 11:06:44 GMT-0400 (Eastern Daylight Time),507229.4000005722,A,cl,I,l,126,1,450.20000076293945,506779.19999980927,9015,WL,B,6.0
4,10.032999992370605,learn,49967.000007629395,Tue Apr 29 2025 11:06:44 GMT-0400 (Eastern Daylight Time),507412.69999980927,A,clo,I,o,162,1,633.5,506779.19999980927,9015,WL,B,6.0
4,10.233000040054321,learn,49766.99995994568,Tue Apr 29 2025 11:06:44 GMT-0400 (Eastern Daylight Time),507612.60000038147,A,cloc,I,c,169,1,833.4000005722046,506779.19999980927,9015,WL,B,6.0
4,10.315999984741211,learn,49684.00001525879,Tue Apr 29 2025 11:06:44 GMT-0400 (Eastern Daylight Time),507695.30000019073,A,clock,I,k,64,1,916.1000003814697,506779.19999980927,9015,WL,B,6.0
4,10.882999897003174,learn,49117.000102996826,Tue Apr 29 2025 11:06:44 GMT-0400 (Eastern Daylight Time),508262.19999980927,A,clockenter,I,enter,551,1,1483.0,506779.19999980927,9015,WL,B,6.0
4,11.632999897003174,learn,48367.000102996826,Tue Apr 29 2025 11:06:44 GMT-0400 (Eastern Daylight Time),509012.69999980927,A,c,I,c,738,1,750.0999994277954,508262.60000038147,9015,WL,B,7.0
4,11.882999897003174,learn,48117.000102996826,Tue Apr 29 2025 11:06:44 GMT-0400 (Eastern Daylight Time),509262.69999980927,A,ca,I,a,225,1,1000.0999994277954,508262.60000038147,9015,WL,B,7.0
4,11.933000087738037,learn,48066.99991226196,Tue Apr 29 2025 11:06:44 GMT-0400 (Eastern Daylight Time),509312.30000019073,A,cab,I,b,29,1,1049.6999998092651,508262.60000038147,9015,WL,B,7.0
4,12.183000087738037,learn,47816.99991226196,Tue Apr 29 2025 11:06:44 GMT-0400 (Eastern Daylight Time),509562.69999980927,A,cabi,I,i,232,1,1300.0999994277954,508262.60000038147,9015,WL,B,7.0
4,12.382999897003174,learn,47617.000102996826,Tue Apr 29 2025 11:06:44 GMT-0400 (Eastern Daylight Time),509762.69999980927,A,cabin,I,n,179,1,1500.0999994277954,508262.60000038147,9015,WL,B,7.0
4,12.683000087738037,learn,47316.99991226196,Tue Apr 29 2025 11:06:44 GMT-0400 (Eastern Daylight Time),510062.19999980927,A,cabinenter,I,enter,273,1,1799.5999994277954,508262.60000038147,9015,WL,B,7.0
4,13.0,learn,47000.0,Tue Apr 29 2025 11:06:44 GMT-0400 (Eastern Daylight Time),510379.19999980927,A,p,I,p,298,1,316.69999980926514,510062.5,9015,WL,B,8.0
4,13.200000047683716,learn,46799.999952316284,Tue Apr 29 2025 11:06:44 GMT-0400 (Eastern Daylight Time),510579.30000019073,A,pi,I,i,186,1,516.8000001907349,510062.5,9015,WL,B,8.0
4,13.282999992370605,learn,46717.000007629395,Tue Apr 29 2025 11:06:44 GMT-0400 (Eastern Daylight Time),510662.19999980927,A,pip,I,p,56,1,599.6999998092651,510062.5,9015,WL,B,8.0
4,13.83299994468689,learn,46167.00005531311,Tue Apr 29 2025 11:06:44 GMT-0400 (Eastern Daylight Time),511212.69999980927,A,pipe,I,e,526,1,1150.1999998092651,510062.5,9015,WL,B,8.0
4,14.483000040054321,learn,45516.99995994568,Tue Apr 29 2025 11:06:44 GMT-0400 (Eastern Daylight Time),511862.19999980927,A,pipeenter,I,enter,629,1,1799.6999998092651,510062.5,9015,WL,B,8.0
4,15.25,learn,44750.0,Tue Apr 29 2025 11:06:44 GMT-0400 (Eastern Daylight Time),512629.4000005722,A,s,I,s,754,1,766.8000001907349,511862.60000038147,9015,WL,B,9.0
4,15.433000087738037,learn,44566.99991226196,Tue Apr 29 2025 11:06:44 GMT-0400 (Eastern Daylight Time),512812.60000038147,A,st,I,t,159,1,950.0,511862.60000038147,9015,WL,B,9.0
4,15.599999904632568,learn,44400.00009536743,Tue Apr 29 2025 11:06:44 GMT-0400 (Eastern Daylight Time),512979.19999980927,A,sta,I,a,151,1,1116.5999994277954,511862.60000038147,9015,WL,B,9.0
4,15.700000047683716,learn,44299.999952316284,Tue Apr 29 2025 11:06:44 GMT-0400 (Eastern Daylight Time),513079.10000038147,A,star,I,r,82,1,1216.5,511862.60000038147,9015,WL,B,9.0
4,16.200000047683716,learn,43799.999952316284,Tue Apr 29 2025 11:06:44 GMT-0400 (Eastern Daylight Time),513579.9000005722,A,starenter,I,enter,478,1,1717.3000001907349,511862.60000038147,9015,WL,B,9.0
4,18.365999937057495,learn,41634.000062942505,Tue Apr 29 2025 11:06:44 GMT-0400 (Eastern Daylight Time),515745.80000019073,A,l,I,l,2156,1,2165.3999996185303,513580.4000005722,9015,WL,B,10.0
4,18.48300004005432,learn,41516.99995994568,Tue Apr 29 2025 11:06:44 GMT-0400 (Eastern Daylight Time),515862.69999980927,A,la,I,a,100,1,2282.2999992370605,513580.4000005722,9015,WL,B,10.0
4,18.65000009536743,learn,41349.99990463257,Tue Apr 29 2025 11:06:44 GMT-0400 (Eastern Daylight Time),516029.10000038147,A,lak,I,k,142,1,2448.699999809265,513580.4000005722,9015,WL,B,10.0
4,18.73300004005432,learn,41266.99995994568,Tue Apr 29 2025 11:06:44 GMT-0400 (Eastern Daylight Time),516112.10000038147,A,lake,I,e,70,1,2531.699999809265,513580.4000005722,9015,WL,B,10.0
4,19.16599988937378,learn,40834.00011062622,Tue Apr 29 2025 11:06:44 GMT-0400 (Eastern Daylight Time),516545.5,A,lakeenter,I,enter,417,1,2965.0999994277954,513580.4000005722,9015,WL,B,10.0
4,22.467000007629395,learn,37532.999992370605,Tue Apr 29 2025 11:06:44 GMT-0400 (Eastern Daylight Time),519846.10000038147,A,p,I,p,3286,1,3300.199999809265,516545.9000005722,9015,WL,B,11.0
4,22.65000009536743,learn,37349.99990463257,Tue Apr 29 2025 11:06:44 GMT-0400 (Eastern Daylight Time),520029.4000005722,A,pu,I,u,158,1,3483.5,516545.9000005722,9015,WL,B,11.0
4,22.782999992370605,learn,37217.000007629395,Tue Apr 29 2025 11:06:44 GMT-0400 (Eastern Daylight Time),520162.60000038147,A,pui,I,i,119,1,3616.699999809265,516545.9000005722,9015,WL,B,11.0
4,23.0,learn,37000.0,Tue Apr 29 2025 11:06:44 GMT-0400 (Eastern Daylight Time),520379.19999980927,A,puip,I,p,186,1,3833.2999992370605,516545.9000005722,9015,WL,B,11.0
4,23.217000007629395,learn,36782.999992370605,Tue Apr 29 2025 11:06:44 GMT-0400 (Eastern Daylight Time),520596.0,A,puipl,I,l,201,1,4050.0999994277954,516545.9000005722,9015,WL,B,11.0
4,23.382999897003174,learn,36617.000102996826,Tue Apr 29 2025 11:06:44 GMT-0400 (Eastern Daylight Time),520762.60000038147,A,puiple,I,e,137,1,4216.699999809265,516545.9000005722,9015,WL,B,11.0
4,24.282999992370605,learn,35717.000007629395,Tue Apr 29 2025 11:06:44 GMT-0400 (Eastern Daylight Time),521662.69999980927,A,puipl,I,backspace,874,1,5116.799999237061,516545.9000005722,9015,WL,B,11.0
4,24.433000087738037,learn,35566.99991226196,Tue Apr 29 2025 11:06:44 GMT-0400 (Eastern Daylight Time),521812.60000038147,A,puip,I,backspace,134,1,5266.699999809265,516545.9000005722,9015,WL,B,11.0
4,24.56599998474121,learn,35434.00001525879,Tue Apr 29 2025 11:06:44 GMT-0400 (Eastern Daylight Time),521945.9000005722,A,pui,I,backspace,110,1,5400.0,516545.9000005722,9015,WL,B,11.0
4,24.73300004005432,learn,35266.99995994568,Tue Apr 29 2025 11:06:44 GMT-0400 (Eastern Daylight Time),522112.4000005722,A,pu,I,backspace,154,1,5566.5,516545.9000005722,9015,WL,B,11.0
4,25.58299994468689,learn,34417.00005531311,Tue Apr 29 2025 11:06:44 GMT-0400 (Eastern Daylight Time),522962.60000038147,A,pup,I,p,836,1,6416.699999809265,516545.9000005722,9015,WL,B,11.0
4,25.865999937057495,learn,34134.000062942505,Tue Apr 29 2025 11:06:44 GMT-0400 (Eastern Daylight Time),523245.9000005722,A,pupi,I,i,258,1,6700.0,516545.9000005722,9015,WL,B,11.0
4,25.90000009536743,learn,34099.99990463257,Tue Apr 29 2025 11:06:44 GMT-0400 (Eastern Daylight Time),523279.0,A,pupil,I,l,22,1,6733.099999427795,516545.9000005722,9015,WL,B,11.0
4,26.48300004005432,learn,33516.99995994568,Tue Apr 29 2025 11:06:44 GMT-0400 (Eastern Daylight Time),523862.10000038147,A,pupilenter,I,enter,568,1,7316.199999809265,516545.9000005722,9015,WL,B,11.0
4,30.132999897003174,learn,29867.000102996826,Tue Apr 29 2025 11:06:44 GMT-0400 (Eastern Daylight Time),527512.6999998093,A,d,I,d,3634,1,3650.199999809265,523862.5,9015,WL,B,12.0
4,30.23300004005432,learn,29766.99995994568,Tue Apr 29 2025 11:06:44 GMT-0400 (Eastern Daylight Time),527612.6999998093,A,do,I,o,76,1,3750.199999809265,523862.5,9015,WL,B,12.0
4,30.365999937057495,learn,29634.000062942505,Tue Apr 29 2025 11:06:44 GMT-0400 (Eastern Daylight Time),527745.9000005722,A,doo,I,o,120,1,3883.4000005722046,523862.5,9015,WL,B,12.0
4,30.467000007629395,learn,29532.999992370605,Tue Apr 29 2025 11:06:44 GMT-0400 (Eastern Daylight Time),527846.0,A,door,I,r,75,1,3983.5,523862.5,9015,WL,B,12.0
4,30.83299994468689,learn,29167.00005531311,Tue Apr 29 2025 11:06:44 GMT-0400 (Eastern Daylight Time),528212.1999998093,A,doorenter,I,enter,350,1,4349.699999809265,523862.5,9015,WL,B,12.0
4,34.40000009536743,learn,25599.99990463257,Tue Apr 29 2025 11:06:44 GMT-0400 (Eastern Daylight Time),531779.4000005722,A,c,I,c,3556,1,3566.9000005722046,528212.5,9015,WL,B,13.0
4,34.51600003242493,learn,25483.999967575073,Tue Apr 29 2025 11:06:44 GMT-0400 (Eastern Daylight Time),531895.8000001907,A,ci,I,i,89,1,3683.300000190735,528212.5,9015,WL,B,13.0
4,34.73300004005432,learn,25266.99995994568,Tue Apr 29 2025 11:06:44 GMT-0400 (Eastern Daylight Time),532112.4000005722,A,cit,I,t,197,1,3899.9000005722046,528212.5,9015,WL,B,13.0
4,34.81599998474121,learn,25184.00001525879,Tue Apr 29 2025 11:06:44 GMT-0400 (Eastern Daylight Time),532195.6999998093,A,city,I,y,68,1,3983.199999809265,528212.5,9015,WL,B,13.0
4,35.198999881744385,learn,24801.000118255615,Tue Apr 29 2025 11:06:44 GMT-0400 (Eastern Daylight Time),532578.8000001907,A,cityenter,I,enter,369,1,4366.300000190735,528212.5,9015,WL,B,13.0
4,37.66700005531311,learn,22332.99994468689,Tue Apr 29 2025 11:06:44 GMT-0400 (Eastern Daylight Time),535046.0,A,g,I,g,2453,1,2466.800000190735,532579.1999998093,9015,WL,B,14.0
4,37.90000009536743,learn,22099.99990463257,Tue Apr 29 2025 11:06:44 GMT-0400 (Eastern Daylight Time),535279.1999998093,A,gr,I,r,206,1,2700.0,532579.1999998093,9015,WL,B,14.0
4,38.032999992370605,learn,21967.000007629395,Tue Apr 29 2025 11:06:44 GMT-0400 (Eastern Daylight Time),535412.6000003815,A,gra,I,a,116,1,2833.4000005722046,532579.1999998093,9015,WL,B,14.0
4,38.615999937057495,learn,21384.000062942505,Tue Apr 29 2025 11:06:44 GMT-0400 (Eastern Daylight Time),535995.9000005722,A,gras,I,s,553,1,3416.7000007629395,532579.1999998093,9015,WL,B,14.0
4,38.76600003242493,learn,21233.999967575073,Tue Apr 29 2025 11:06:44 GMT-0400 (Eastern Daylight Time),536145.6999998093,A,grass,I,s,139,1,3566.5,532579.1999998093,9015,WL,B,14.0
4,40.549999952316284,learn,19450.000047683716,Tue Apr 29 2025 11:06:44 GMT-0400 (Eastern Daylight Time),537929.1999998093,A,gras,I,backspace,1754,1,5350.0,532579.1999998093,9015,WL,B,14.0
4,40.799999952316284,learn,19200.000047683716,Tue Apr 29 2025 11:06:44 GMT-0400 (Eastern Daylight Time),538179.1000003815,A,gra,I,backspace,238,1,5599.900000572205,532579.1999998093,9015,WL,B,14.0
4,41.134000062942505,learn,18865.999937057495,Tue Apr 29 2025 11:06:44 GMT-0400 (Eastern Daylight Time),538513.5,A,gr,I,backspace,322,1,5934.300000190735,532579.1999998093,9015,WL,B,14.0
4,43.09999990463257,learn,16900.00009536743,Tue Apr 29 2025 11:06:44 GMT-0400 (Eastern Daylight Time),540479.3000001907,A,g,I,backspace,1940,1,7900.10000038147,532579.1999998093,9015,WL,B,14.0
4,43.51600003242493,learn,16483.999967575073,Tue Apr 29 2025 11:06:44 GMT-0400 (Eastern Daylight Time),540895.9000005722,A,,I,backspace,406,1,8316.70000076294,532579.1999998093,9015,WL,B,14.0
4,50.18300008773804,learn,9816.999912261963,Tue Apr 29 2025 11:06:44 GMT-0400 (Eastern Daylight Time),547562.5,A,f,I,f,6645,1,14983.300000190735,532579.1999998093,9015,WL,B,14.0
4,50.34999990463257,learn,9650.000095367432,Tue Apr 29 2025 11:06:44 GMT-0400 (Eastern Daylight Time),547729.1999998093,A,fi,I,i,152,1,15150.0,532579.1999998093,9015,WL,B,14.0
4,50.46600008010864,learn,9533.999919891357,Tue Apr 29 2025 11:06:44 GMT-0400 (Eastern Daylight Time),547845.5,A,fir,I,r,99,1,15266.300000190735,532579.1999998093,9015,WL,B,14.0
4,50.65000009536743,learn,9349.999904632568,Tue Apr 29 2025 11:06:44 GMT-0400 (Eastern Daylight Time),548029.3000001907,A,fire,I,e,160,1,15450.10000038147,532579.1999998093,9015,WL,B,14.0
4,50.865999937057495,learn,9134.000062942505,Tue Apr 29 2025 11:06:44 GMT-0400 (Eastern Daylight Time),548245.5,A,fireenter,I,enter,193,1,15666.300000190735,532579.1999998093,9015,WL,B,14.0
4,54.06599998474121,learn,5934.000015258789,Tue Apr 29 2025 11:06:44 GMT-0400 (Eastern Daylight Time),551445.4000005722,A,enter,I,enter,3186,1,3199.5,548245.9000005722,9015,WL,B,15.0
5,1.4500000476837158,learn,60000.0,Tue Apr 29 2025 11:06:44 GMT-0400 (Eastern Daylight Time),621312.3000001907,A,g,I,g,1439,1,1449.5,619862.8000001907,9015,WL,B,1.0
5,1.7170000076293945,learn,60000.0,Tue Apr 29 2025 11:06:44 GMT-0400 (Eastern Daylight Time),621579.3000001907,A,gr,I,r,243,1,1716.5,619862.8000001907,9015,WL,B,1.0
5,1.8829998970031738,learn,60000.0,Tue Apr 29 2025 11:06:44 GMT-0400 (Eastern Daylight Time),621745.6999998093,A,gra,I,a,145,1,1882.8999996185303,619862.8000001907,9015,WL,B,1.0
5,2.0829999446868896,learn,60000.0,Tue Apr 29 2025 11:06:44 GMT-0400 (Eastern Daylight Time),621945.1999998093,A,gras,I,s,179,1,2082.3999996185303,619862.8000001907,9015,WL,B,1.0
5,2.2829999923706055,learn,60000.0,Tue Apr 29 2025 11:06:44 GMT-0400 (Eastern Daylight Time),622145.6000003815,A,grass,I,s,189,1,2282.800000190735,619862.8000001907,9015,WL,B,1.0
5,2.7159998416900635,learn,60000.0,Tue Apr 29 2025 11:06:44 GMT-0400 (Eastern Daylight Time),622578.6000003815,A,grassenter,I,enter,413,1,2715.800000190735,619862.8000001907,9015,WL,B,1.0
5,3.3499999046325684,learn,60000.0,Tue Apr 29 2025 11:06:44 GMT-0400 (Eastern Daylight Time),623212.6000003815,A,s,I,s,613,1,633.6999998092651,622578.9000005722,9015,WL,B,2.0
5,3.4670000076293945,learn,60000.0,Tue Apr 29 2025 11:06:44 GMT-0400 (Eastern Daylight Time),623329.1000003815,A,st,I,t,105,1,750.1999998092651,622578.9000005722,9015,WL,B,2.0
5,3.6670000553131104,learn,60000.0,Tue Apr 29 2025 11:06:44 GMT-0400 (Eastern Daylight Time),623529.0,A,str,I,r,179,1,950.0999994277954,622578.9000005722,9015,WL,B,2.0
5,3.7829999923706055,learn,60000.0,Tue Apr 29 2025 11:06:44 GMT-0400 (Eastern Daylight Time),623645.8000001907,A,stre,I,e,93,1,1066.8999996185303,622578.9000005722,9015,WL,B,2.0
5,3.950000047683716,learn,60000.0,Tue Apr 29 2025 11:06:44 GMT-0400 (Eastern Daylight Time),623812.5,A,stree,I,e,144,1,1233.5999994277954,622578.9000005722,9015,WL,B,2.0
5,4.016000032424927,learn,60000.0,Tue Apr 29 2025 11:06:44 GMT-0400 (Eastern Daylight Time),623878.9000005722,A,street,I,t,49,1,1300.0,622578.9000005722,9015,WL,B,2.0
5,4.75,learn,60000.0,Tue Apr 29 2025 11:06:44 GMT-0400 (Eastern Daylight Time),624612.0,A,streetenter,I,enter,714,1,2033.0999994277954,622578.9000005722,9015,WL,B,2.0
5,5.299999952316284,learn,60000.0,Tue Apr 29 2025 11:06:44 GMT-0400 (Eastern Daylight Time),625162.6000003815,A,d,I,d,532,1,550.3000001907349,624612.3000001907,9015,WL,B,3.0
5,5.516999959945679,learn,60000.0,Tue Apr 29 2025 11:06:44 GMT-0400 (Eastern Daylight Time),625379.3000001907,A,do,I,o,201,1,767.0,624612.3000001907,9015,WL,B,3.0
5,5.66700005531311,learn,60000.0,Tue Apr 29 2025 11:06:44 GMT-0400 (Eastern Daylight Time),625529.1000003815,A,doo,I,o,121,1,916.8000001907349,624612.3000001907,9015,WL,B,3.0
5,5.7829999923706055,learn,60000.0,Tue Apr 29 2025 11:06:44 GMT-0400 (Eastern Daylight Time),625645.6000003815,A,door,I,r,84,1,1033.3000001907349,624612.3000001907,9015,WL,B,3.0
5,6.065999984741211,learn,60000.0,Tue Apr 29 2025 11:06:44 GMT-0400 (Eastern Daylight Time),625928.6000003815,A,doorenter,I,enter,255,1,1316.3000001907349,624612.3000001907,9015,WL,B,3.0
5,6.299999952316284,learn,60000.0,Tue Apr 29 2025 11:06:44 GMT-0400 (Eastern Daylight Time),626162.5,A,a,I,a,224,1,233.5999994277954,625928.9000005722,9015,WL,B,4.0
5,6.632999897003174,learn,60000.0,Tue Apr 29 2025 11:06:44 GMT-0400 (Eastern Daylight Time),626495.6999998093,A,ar,I,r,307,1,566.7999992370605,625928.9000005722,9015,WL,B,4.0
5,6.865999937057495,learn,60000.0,Tue Apr 29 2025 11:06:44 GMT-0400 (Eastern Daylight Time),626728.9000005722,A,arm,I,m,214,1,800.0,625928.9000005722,9015,WL,B,4.0
5,7.932999849319458,learn,60000.0,Tue Apr 29 2025 11:06:44 GMT-0400 (Eastern Daylight Time),627795.9000005722,A,armw,I,w,1044,1,1867.0,625928.9000005722,9015,WL,B,4.0
5,8.132999897003174,learn,60000.0,Tue Apr 29 2025 11:06:44 GMT-0400 (Eastern Daylight Time),627995.9000005722,A,armwi,I,i,175,1,2067.0,625928.9000005722,9015,WL,B,4.0
5,8.299999952316284,learn,60000.0,Tue Apr 29 2025 11:06:44 GMT-0400 (Eastern Daylight Time),628162.5,A,armwif,I,f,153,1,2233.5999994277954,625928.9000005722,9015,WL,B,4.0
5,8.5,learn,60000.0,Tue Apr 29 2025 11:06:44 GMT-0400 (Eastern Daylight Time),628362.4000005722,A,armwife,I,e,178,1,2433.5,625928.9000005722,9015,WL,B,4.0
5,8.700000047683716,learn,60000.0,Tue Apr 29 2025 11:06:44 GMT-0400 (Eastern Daylight Time),628562.1000003815,A,armwifeenter,I,enter,184,1,2633.199999809265,625928.9000005722,9015,WL,B,4.0
5,9.434000015258789,learn,60000.0,Tue Apr 29 2025 11:06:44 GMT-0400 (Eastern Daylight Time),629296.0,A,s,I,s,710,1,733.5,628562.5,9015,WL,B,5.0
5,9.566999912261963,learn,60000.0,Tue Apr 29 2025 11:06:44 GMT-0400 (Eastern Daylight Time),629429.1000003815,A,st,I,t,117,1,866.6000003814697,628562.5,9015,WL,B,5.0
5,9.932999849319458,learn,60000.0,Tue Apr 29 2025 11:06:44 GMT-0400 (Eastern Daylight Time),629795.8000001907,A,sta,I,a,344,1,1233.3000001907349,628562.5,9015,WL,B,5.0
5,10.049999952316284,learn,60000.0,Tue Apr 29 2025 11:06:44 GMT-0400 (Eastern Daylight Time),629912.5,A,star,I,r,97,1,1350.0,628562.5,9015,WL,B,5.0
5,10.432999849319458,learn,60000.0,Tue Apr 29 2025 11:06:44 GMT-0400 (Eastern Daylight Time),630295.5,A,starenter,I,enter,356,1,1733.0,628562.5,9015,WL,B,5.0
5,10.967000007629395,learn,60000.0,Tue Apr 29 2025 11:06:44 GMT-0400 (Eastern Daylight Time),630829.1000003815,A,l,I,l,513,1,533.3000001907349,630295.8000001907,9015,WL,B,6.0
5,11.049999952316284,learn,60000.0,Tue Apr 29 2025 11:06:44 GMT-0400 (Eastern Daylight Time),630912.9000005722,A,la,I,a,69,1,617.1000003814697,630295.8000001907,9015,WL,B,6.0
5,11.266000032424927,learn,60000.0,Tue Apr 29 2025 11:06:44 GMT-0400 (Eastern Daylight Time),631128.9000005722,A,lak,I,k,196,1,833.1000003814697,630295.8000001907,9015,WL,B,6.0
5,11.349999904632568,learn,60000.0,Tue Apr 29 2025 11:06:44 GMT-0400 (Eastern Daylight Time),631212.0,A,lake,I,e,51,1,916.1999998092651,630295.8000001907,9015,WL,B,6.0
5,11.848999977111816,learn,60000.0,Tue Apr 29 2025 11:06:44 GMT-0400 (Eastern Daylight Time),631711.9000005722,A,lakeenter,I,enter,491,1,1416.1000003814697,630295.8000001907,9015,WL,B,6.0
5,12.349999904632568,learn,60000.0,Tue Apr 29 2025 11:06:44 GMT-0400 (Eastern Daylight Time),632212.5,A,w,I,w,488,1,500.19999980926514,631712.3000001907,9015,WL,B,7.0
5,12.532999992370605,learn,60000.0,Tue Apr 29 2025 11:06:44 GMT-0400 (Eastern Daylight Time),632395.9000005722,A,wi,I,i,160,1,683.6000003814697,631712.3000001907,9015,WL,B,7.0
5,12.766999959945679,learn,60000.0,Tue Apr 29 2025 11:06:44 GMT-0400 (Eastern Daylight Time),632629.0,A,win,I,n,211,1,916.6999998092651,631712.3000001907,9015,WL,B,7.0
5,12.882999897003174,learn,60000.0,Tue Apr 29 2025 11:06:44 GMT-0400 (Eastern Daylight Time),632745.9000005722,A,wind,I,d,97,1,1033.6000003814697,631712.3000001907,9015,WL,B,7.0
5,13.049999952316284,learn,60000.0,Tue Apr 29 2025 11:06:44 GMT-0400 (Eastern Daylight Time),632912.1999998093,A,windo,I,o,154,1,1199.8999996185303,631712.3000001907,9015,WL,B,7.0
5,13.16700005531311,learn,60000.0,Tue Apr 29 2025 11:06:44 GMT-0400 (Eastern Daylight Time),633029.0,A,window,I,w,93,1,1316.6999998092651,631712.3000001907,9015,WL,B,7.0
5,13.66599988937378,learn,60000.0,Tue Apr 29 2025 11:06:44 GMT-0400 (Eastern Daylight Time),633528.5,A,windowenter,I,enter,479,1,1816.1999998092651,631712.3000001907,9015,WL,B,7.0
5,15.217000007629395,learn,60000.0,Tue Apr 29 2025 11:06:44 GMT-0400 (Eastern Daylight Time),635079.1999998093,A,f,I,f,1536,1,1550.3999996185303,633528.8000001907,9015,WL,B,8.0
5,15.316999912261963,learn,60000.0,Tue Apr 29 2025 11:06:44 GMT-0400 (Eastern Daylight Time),635179.0,A,fi,I,i,79,1,1650.1999998092651,633528.8000001907,9015,WL,B,8.0
5,15.432999849319458,learn,60000.0,Tue Apr 29 2025 11:06:44 GMT-0400 (Eastern Daylight Time),635295.6999998093,A,fir,I,r,107,1,1766.8999996185303,633528.8000001907,9015,WL,B,8.0
5,15.616999864578247,learn,60000.0,Tue Apr 29 2025 11:06:44 GMT-0400 (Eastern Daylight Time),635479.1000003815,A,fire,I,e,165,1,1950.3000001907349,633528.8000001907,9015,WL,B,8.0
5,15.848999977111816,learn,60000.0,Tue Apr 29 2025 11:06:44 GMT-0400 (Eastern Daylight Time),635711.9000005722,A,fireenter,I,enter,221,1,2183.1000003814697,633528.8000001907,9015,WL,B,8.0
5,16.23300004005432,learn,60000.0,Tue Apr 29 2025 11:06:44 GMT-0400 (Eastern Daylight Time),636095.6999998093,A,c,I,c,360,1,383.3999996185303,635712.3000001907,9015,WL,B,9.0
5,16.432999849319458,learn,60000.0,Tue Apr 29 2025 11:06:44 GMT-0400 (Eastern Daylight Time),636295.8000001907,A,ca,I,a,182,1,583.5,635712.3000001907,9015,WL,B,9.0
5,16.532999992370605,learn,60000.0,Tue Apr 29 2025 11:06:44 GMT-0400 (Eastern Daylight Time),636395.6999998093,A,cab,I,b,70,1,683.3999996185303,635712.3000001907,9015,WL,B,9.0
5,16.73300004005432,learn,60000.0,Tue Apr 29 2025 11:06:44 GMT-0400 (Eastern Daylight Time),636595.8000001907,A,cabi,I,i,178,1,883.5,635712.3000001907,9015,WL,B,9.0
5,17.01699995994568,learn,60000.0,Tue Apr 29 2025 11:06:44 GMT-0400 (Eastern Daylight Time),636879.0,A,cabin,I,n,256,1,1166.6999998092651,635712.3000001907,9015,WL,B,9.0
5,17.715999841690063,learn,60000.0,Tue Apr 29 2025 11:06:44 GMT-0400 (Eastern Daylight Time),637578.6999998093,A,cabinenter,I,enter,678,1,1866.3999996185303,635712.3000001907,9015,WL,B,9.0
5,19.799999952316284,learn,60000.0,Tue Apr 29 2025 11:06:44 GMT-0400 (Eastern Daylight Time),639662.5,A,p,I,p,2062,1,2083.5,637579.0,9015,WL,B,10.0
5,20.032999992370605,learn,60000.0,Tue Apr 29 2025 11:06:44 GMT-0400 (Eastern Daylight Time),639895.8000001907,A,pi,I,i,215,1,2316.800000190735,637579.0,9015,WL,B,10.0
5,20.23300004005432,learn,60000.0,Tue Apr 29 2025 11:06:44 GMT-0400 (Eastern Daylight Time),640095.6999998093,A,pip,I,p,173,1,2516.699999809265,637579.0,9015,WL,B,10.0
5,20.41700005531311,learn,60000.0,Tue Apr 29 2025 11:06:44 GMT-0400 (Eastern Daylight Time),640279.1999998093,A,pipe,I,e,166,1,2700.199999809265,637579.0,9015,WL,B,10.0
5,20.682999849319458,learn,60000.0,Tue Apr 29 2025 11:06:44 GMT-0400 (Eastern Daylight Time),640545.3000001907,A,pipeenter,I,enter,245,1,2966.300000190735,637579.0,9015,WL,B,10.0
5,21.049999952316284,learn,60000.0,Tue Apr 29 2025 11:06:44 GMT-0400 (Eastern Daylight Time),640912.3000001907,A,p,I,p,359,1,366.6000003814697,640545.6999998093,9015,WL,B,11.0
5,21.282999992370605,learn,60000.0,Tue Apr 29 2025 11:06:44 GMT-0400 (Eastern Daylight Time),641145.8000001907,A,pu,I,u,213,1,600.1000003814697,640545.6999998093,9015,WL,B,11.0
5,21.382999897003174,learn,60000.0,Tue Apr 29 2025 11:06:44 GMT-0400 (Eastern Daylight Time),641245.6999998093,A,pup,I,p,76,1,700.0,640545.6999998093,9015,WL,B,11.0
5,21.59999990463257,learn,60000.0,Tue Apr 29 2025 11:06:44 GMT-0400 (Eastern Daylight Time),641462.5,A,pupi,I,i,200,1,916.8000001907349,640545.6999998093,9015,WL,B,11.0
5,21.866999864578247,learn,60000.0,Tue Apr 29 2025 11:06:44 GMT-0400 (Eastern Daylight Time),641729.0,A,pupil,I,l,246,1,1183.3000001907349,640545.6999998093,9015,WL,B,11.0
5,22.73300004005432,learn,60000.0,Tue Apr 29 2025 11:06:44 GMT-0400 (Eastern Daylight Time),642595.4000005722,A,pupilenter,I,enter,850,1,2049.7000007629395,640545.6999998093,9015,WL,B,11.0
5,23.549999952316284,learn,60000.0,Tue Apr 29 2025 11:06:44 GMT-0400 (Eastern Daylight Time),643412.4000005722,A,c,I,c,804,1,816.7000007629395,642595.6999998093,9015,WL,B,12.0
5,23.649999856948853,learn,60000.0,Tue Apr 29 2025 11:06:44 GMT-0400 (Eastern Daylight Time),643512.5,A,cl,I,l,80,1,916.8000001907349,642595.6999998093,9015,WL,B,12.0
5,23.84999990463257,learn,60000.0,Tue Apr 29 2025 11:06:44 GMT-0400 (Eastern Daylight Time),643712.0,A,clo,I,o,180,1,1116.3000001907349,642595.6999998093,9015,WL,B,12.0
5,24.149999856948853,learn,60000.0,Tue Apr 29 2025 11:06:44 GMT-0400 (Eastern Daylight Time),644012.6000003815,A,cloc,I,c,269,1,1416.9000005722046,642595.6999998093,9015,WL,B,12.0
5,24.217000007629395,learn,60000.0,Tue Apr 29 2025 11:06:44 GMT-0400 (Eastern Daylight Time),644079.1000003815,A,clock,I,k,42,1,1483.4000005722046,642595.6999998093,9015,WL,B,12.0
5,25.049000024795532,learn,60000.0,Tue Apr 29 2025 11:06:44 GMT-0400 (Eastern Daylight Time),644911.9000005722,A,clockenter,I,enter,814,1,2316.2000007629395,642595.6999998093,9015,WL,B,12.0
5,28.182999849319458,learn,60000.0,Tue Apr 29 2025 11:06:44 GMT-0400 (Eastern Daylight Time),648045.6999998093,A,c,I,c,3112,1,3133.5,644912.1999998093,9015,WL,B,13.0
5,28.382999897003174,learn,60000.0,Tue Apr 29 2025 11:06:44 GMT-0400 (Eastern Daylight Time),648245.8000001907,A,ci,I,i,184,1,3333.6000003814697,644912.1999998093,9015,WL,B,13.0
5,28.682999849319458,learn,60000.0,Tue Apr 29 2025 11:06:44 GMT-0400 (Eastern Daylight Time),648546.0,A,cit,I,t,279,1,3633.800000190735,644912.1999998093,9015,WL,B,13.0
5,28.75,learn,60000.0,Tue Apr 29 2025 11:06:44 GMT-0400 (Eastern Daylight Time),648612.1000003815,A,city,I,y,50,1,3699.9000005722046,644912.1999998093,9015,WL,B,13.0
5,29.200000047683716,learn,60000.0,Tue Apr 29 2025 11:06:44 GMT-0400 (Eastern Daylight Time),649061.9000005722,A,cityenter,I,enter,430,1,4149.700000762939,644912.1999998093,9015,WL,B,13.0
5,42.717000007629395,learn,60000.0,Tue Apr 29 2025 11:06:44 GMT-0400 (Eastern Daylight Time),662579.1000003815,A,s,I,s,13506,1,13516.699999809265,649062.4000005722,9015,WL,B,14.0
5,43.08299994468689,learn,60000.0,Tue Apr 29 2025 11:06:44 GMT-0400 (Eastern Daylight Time),662945.8000001907,A,sk,I,k,354,1,13883.39999961853,649062.4000005722,9015,WL,B,14.0
5,43.26699995994568,learn,60000.0,Tue Apr 29 2025 11:06:44 GMT-0400 (Eastern Daylight Time),663129.1999998093,A,ski,I,i,164,1,14066.79999923706,649062.4000005722,9015,WL,B,14.0
5,43.5,learn,60000.0,Tue Apr 29 2025 11:06:44 GMT-0400 (Eastern Daylight Time),663362.5,A,skin,I,n,220,1,14300.099999427795,649062.4000005722,9015,WL,B,14.0
5,43.83399987220764,learn,60000.0,Tue Apr 29 2025 11:06:44 GMT-0400 (Eastern Daylight Time),663696.1999998093,A,skinenter,I,enter,313,1,14633.79999923706,649062.4000005722,9015,WL,B,14.0
5,103.84999990463257,learn,60000.0,Tue Apr 29 2025 11:06:44 GMT-0400 (Eastern Daylight Time),723712.6000003815,A,None,I,None,60009,1,60016.0,663696.6000003815,9015,WL,B,15.0
6,1.4670000076293945,distr,58532.999992370605,Tue Apr 29 2025 11:06:44 GMT-0400 (Eastern Daylight Time),799212.3000001907,B,b,I,b,1445,1,1466.6000003814697,797745.6999998093,9015,WL,B,1.0
6,1.567000150680542,distr,58432.99984931946,Tue Apr 29 2025 11:06:44 GMT-0400 (Eastern Daylight Time),799312.1000003815,B,ba,I,a,89,1,1566.4000005722046,797745.6999998093,9015,WL,B,1.0
6,1.6500000953674316,distr,58349.99990463257,Tue Apr 29 2025 11:06:44 GMT-0400 (Eastern Daylight Time),799395.6000003815,B,bab,I,b,68,1,1649.9000005722046,797745.6999998093,9015,WL,B,1.0
6,1.9170000553131104,distr,58082.99994468689,Tue Apr 29 2025 11:06:44 GMT-0400 (Eastern Daylight Time),799662.3000001907,B,baby,I,y,240,1,1916.6000003814697,797745.6999998093,9015,WL,B,1.0
6,2.9660000801086426,distr,57033.99991989136,Tue Apr 29 2025 11:06:44 GMT-0400 (Eastern Daylight Time),800711.8000001907,B,babyenter,I,enter,1031,1,2966.1000003814697,797745.6999998093,9015,WL,B,1.0
6,3.6500000953674316,distr,56349.99990463257,Tue Apr 29 2025 11:06:44 GMT-0400 (Eastern Daylight Time),801395.5,B,o,I,o,672,1,683.3999996185303,800712.1000003815,9015,WL,B,2.0
6,3.8500001430511475,distr,56149.99985694885,Tue Apr 29 2025 11:06:44 GMT-0400 (Eastern Daylight Time),801595.6000003815,B,oc,I,c,177,1,883.5,800712.1000003815,9015,WL,B,2.0
6,4.049999952316284,distr,55950.000047683716,Tue Apr 29 2025 11:06:44 GMT-0400 (Eastern Daylight Time),801795.6000003815,B,oce,I,e,186,1,1083.5,800712.1000003815,9015,WL,B,2.0
6,4.317000150680542,distr,55682.99984931946,Tue Apr 29 2025 11:06:44 GMT-0400 (Eastern Daylight Time),802062.1999998093,B,ocea,I,a,241,1,1350.0999994277954,800712.1000003815,9015,WL,B,2.0
6,4.383000135421753,distr,55616.99986457825,Tue Apr 29 2025 11:06:44 GMT-0400 (Eastern Daylight Time),802128.6000003815,B,ocean,I,n,55,1,1416.5,800712.1000003815,9015,WL,B,2.0
6,4.650000095367432,distr,55349.99990463257,Tue Apr 29 2025 11:06:44 GMT-0400 (Eastern Daylight Time),802395.1000003815,B,oceanenter,I,enter,244,1,1683.0,800712.1000003815,9015,WL,B,2.0
6,4.950000047683716,distr,55049.999952316284,Tue Apr 29 2025 11:06:44 GMT-0400 (Eastern Daylight Time),802695.6000003815,B,b,I,b,285,1,300.19999980926514,802395.4000005722,9015,WL,B,3.0
6,5.1000001430511475,distr,54899.99985694885,Tue Apr 29 2025 11:06:44 GMT-0400 (Eastern Daylight Time),802845.5,B,ba,I,a,125,1,450.0999994277954,802395.4000005722,9015,WL,B,3.0
6,5.299999952316284,distr,54700.000047683716,Tue Apr 29 2025 11:06:44 GMT-0400 (Eastern Daylight Time),803045.5,B,bar,I,r,184,1,650.0999994277954,802395.4000005722,9015,WL,B,3.0
6,5.666000127792358,distr,54333.99987220764,Tue Apr 29 2025 11:06:44 GMT-0400 (Eastern Daylight Time),803411.8000001907,B,barenter,I,enter,350,1,1016.3999996185303,802395.4000005722,9015,WL,B,3.0
6,5.983000040054321,distr,54016.99995994568,Tue Apr 29 2025 11:06:44 GMT-0400 (Eastern Daylight Time),803728.9000005722,B,p,I,p,308,1,316.80000019073486,803412.1000003815,9015,WL,B,4.0
6,6.1000001430511475,distr,53899.99985694885,Tue Apr 29 2025 11:06:44 GMT-0400 (Eastern Daylight Time),803845.6000003815,B,pa,I,a,99,1,433.5,803412.1000003815,9015,WL,B,4.0
6,6.383000135421753,distr,53616.99986457825,Tue Apr 29 2025 11:06:44 GMT-0400 (Eastern Daylight Time),804128.6999998093,B,paa,I,a,264,1,716.5999994277954,803412.1000003815,9015,WL,B,4.0
6,7.266999959945679,distr,52733.00004005432,Tue Apr 29 2025 11:06:44 GMT-0400 (Eastern Daylight Time),805012.3000001907,B,pa,I,backspace,869,1,1600.1999998092651,803412.1000003815,9015,WL,B,4.0
6,7.983000040054321,distr,52016.99995994568,Tue Apr 29 2025 11:06:44 GMT-0400 (Eastern Daylight Time),805728.9000005722,B,pal,I,l,702,1,2316.800000190735,803412.1000003815,9015,WL,B,4.0
6,8.067000150680542,distr,51932.99984931946,Tue Apr 29 2025 11:06:44 GMT-0400 (Eastern Daylight Time),805812.3000001907,B,pala,I,a,69,1,2400.199999809265,803412.1000003815,9015,WL,B,4.0
6,8.266999959945679,distr,51733.00004005432,Tue Apr 29 2025 11:06:44 GMT-0400 (Eastern Daylight Time),806012.3000001907,B,palac,I,c,176,1,2600.199999809265,803412.1000003815,9015,WL,B,4.0
6,8.483000040054321,distr,51516.99995994568,Tue Apr 29 2025 11:06:44 GMT-0400 (Eastern Daylight Time),806228.9000005722,B,palace,I,e,191,1,2816.800000190735,803412.1000003815,9015,WL,B,4.0
6,8.683000087738037,distr,51316.99991226196,Tue Apr 29 2025 11:06:44 GMT-0400 (Eastern Daylight Time),806428.3000001907,B,palaceenter,I,enter,175,1,3016.199999809265,803412.1000003815,9015,WL,B,4.0
6,8.865999937057495,distr,51134.000062942505,Tue Apr 29 2025 11:06:44 GMT-0400 (Eastern Daylight Time),806611.8000001907,B,a,I,a,171,1,183.10000038146973,806428.6999998093,9015,WL,B,5.0
6,9.134000062942505,distr,50865.999937057495,Tue Apr 29 2025 11:06:44 GMT-0400 (Eastern Daylight Time),806879.0,B,ar,I,r,241,1,450.30000019073486,806428.6999998093,9015,WL,B,5.0
6,9.66700005531311,distr,50332.99994468689,Tue Apr 29 2025 11:06:44 GMT-0400 (Eastern Daylight Time),807412.3000001907,B,arm,I,m,515,1,983.6000003814697,806428.6999998093,9015,WL,B,5.0
6,9.733000040054321,distr,50266.99995994568,Tue Apr 29 2025 11:06:44 GMT-0400 (Eastern Daylight Time),807478.6000003815,B,army,I,y,48,1,1049.9000005722046,806428.6999998093,9015,WL,B,5.0
6,10.883000135421753,distr,49116.99986457825,Tue Apr 29 2025 11:06:44 GMT-0400 (Eastern Daylight Time),808628.4000005722,B,armyenter,I,enter,1131,1,2199.7000007629395,806428.6999998093,9015,WL,B,5.0
6,14.799999952316284,distr,45200.000047683716,Tue Apr 29 2025 11:06:44 GMT-0400 (Eastern Daylight Time),812545.6000003815,B,l,I,l,3908,1,3916.9000005722046,808628.6999998093,9015,WL,B,6.0
6,15.049999952316284,distr,44950.000047683716,Tue Apr 29 2025 11:06:44 GMT-0400 (Eastern Daylight Time),812795.5,B,li,I,i,225,1,4166.800000190735,808628.6999998093,9015,WL,B,6.0
6,15.133000135421753,distr,44866.99986457825,Tue Apr 29 2025 11:06:44 GMT-0400 (Eastern Daylight Time),812878.1999998093,B,lip,I,p,58,1,4249.5,808628.6999998093,9015,WL,B,6.0
6,15.700000047683716,distr,44299.999952316284,Tue Apr 29 2025 11:06:44 GMT-0400 (Eastern Daylight Time),813445.1000003815,B,lipenter,I,enter,552,1,4816.400000572205,808628.6999998093,9015,WL,B,6.0
6,26.0,distr,34000.0,Tue Apr 29 2025 11:06:44 GMT-0400 (Eastern Daylight Time),823745.5,B,c,I,c,10291,1,10300.0,813445.5,9015,WL,B,7.0
6,26.384000062942505,distr,33615.999937057495,Tue Apr 29 2025 11:06:44 GMT-0400 (Eastern Daylight Time),824129.0,B,co,I,o,371,1,10683.5,813445.5,9015,WL,B,7.0
6,26.58299994468689,distr,33417.00005531311,Tue Apr 29 2025 11:06:44 GMT-0400 (Eastern Daylight Time),824328.8000001907,B,coi,I,i,181,1,10883.300000190735,813445.5,9015,WL,B,7.0
6,26.850000143051147,distr,33149.99985694885,Tue Apr 29 2025 11:06:44 GMT-0400 (Eastern Daylight Time),824595.6000003815,B,coin,I,n,250,1,11150.10000038147,813445.5,9015,WL,B,7.0
6,27.216000080108643,distr,32783.99991989136,Tue Apr 29 2025 11:06:44 GMT-0400 (Eastern Daylight Time),824961.6999998093,B,coinenter,I,enter,352,1,11516.199999809265,813445.5,9015,WL,B,7.0
6,40.43300008773804,distr,19566.999912261963,Tue Apr 29 2025 11:06:44 GMT-0400 (Eastern Daylight Time),838178.8000001907,B,a,I,a,13206,1,13216.800000190735,824962.0,9015,WL,B,8.0
6,40.98300004005432,distr,19016.99995994568,Tue Apr 29 2025 11:06:44 GMT-0400 (Eastern Daylight Time),838728.6999998093,B,ar,I,r,527,1,13766.699999809265,824962.0,9015,WL,B,8.0
6,41.18300008773804,distr,18816.999912261963,Tue Apr 29 2025 11:06:44 GMT-0400 (Eastern Daylight Time),838928.8000001907,B,arm,I,m,188,1,13966.800000190735,824962.0,9015,WL,B,8.0
6,41.31599998474121,distr,18684.00001525879,Tue Apr 29 2025 11:06:44 GMT-0400 (Eastern Daylight Time),839061.6000003815,B,army,I,y,115,1,14099.60000038147,824962.0,9015,WL,B,8.0
6,41.60000014305115,distr,18399.999856948853,Tue Apr 29 2025 11:06:44 GMT-0400 (Eastern Daylight Time),839345.0,B,armyenter,I,enter,273,1,14383.0,824962.0,9015,WL,B,8.0
6,60.01699995994568,distr,-16.99995994567871,Tue Apr 29 2025 11:06:44 GMT-0400 (Eastern Daylight Time),857762.1999998093,B,None,I,None,18410,1,18416.79999923706,839345.4000005722,9015,WL,B,9.0
7,2.8010001182556152,immed,57198.999881744385,Tue Apr 29 2025 11:06:44 GMT-0400 (Eastern Daylight Time),870312.1999998093,A,d,I,d,2782,1,2799.7999992370605,867512.4000005722,9015,WL,B,1.0
7,3.0339999198913574,immed,56966.00008010864,Tue Apr 29 2025 11:06:44 GMT-0400 (Eastern Daylight Time),870545.4000005722,A,do,I,o,219,1,3033.0,867512.4000005722,9015,WL,B,1.0
7,3.184000015258789,immed,56815.99998474121,Tue Apr 29 2025 11:06:44 GMT-0400 (Eastern Daylight Time),870695.5,A,doo,I,o,131,1,3183.0999994277954,867512.4000005722,9015,WL,B,1.0
7,3.2839999198913574,immed,56716.00008010864,Tue Apr 29 2025 11:06:44 GMT-0400 (Eastern Daylight Time),870795.4000005722,A,door,I,r,77,1,3283.0,867512.4000005722,9015,WL,B,1.0
7,3.7680001258850098,immed,56231.99987411499,Tue Apr 29 2025 11:06:44 GMT-0400 (Eastern Daylight Time),871279.5,A,doorenter,I,enter,458,1,3767.0999994277954,867512.4000005722,9015,WL,B,1.0
7,4.483999967575073,immed,55516.00003242493,Tue Apr 29 2025 11:06:44 GMT-0400 (Eastern Daylight Time),871995.1000003815,A,g,I,g,695,1,715.3000001907349,871279.8000001907,9015,WL,B,2.0
7,4.91700005531311,immed,55082.99994468689,Tue Apr 29 2025 11:06:44 GMT-0400 (Eastern Daylight Time),872428.8000001907,A,gr,I,r,410,1,1149.0,871279.8000001907,9015,WL,B,2.0
7,5.101000070571899,immed,54898.9999294281,Tue Apr 29 2025 11:06:44 GMT-0400 (Eastern Daylight Time),872612.1000003815,A,gra,I,a,169,1,1332.3000001907349,871279.8000001907,9015,WL,B,2.0
7,5.316999912261963,immed,54683.00008773804,Tue Apr 29 2025 11:06:44 GMT-0400 (Eastern Daylight Time),872828.6999998093,A,gras,I,s,190,1,1548.8999996185303,871279.8000001907,9015,WL,B,2.0
7,5.483999967575073,immed,54516.00003242493,Tue Apr 29 2025 11:06:44 GMT-0400 (Eastern Daylight Time),872995.6000003815,A,grass,I,s,151,1,1715.8000001907349,871279.8000001907,9015,WL,B,2.0
7,6.0,immed,54000.0,Tue Apr 29 2025 11:06:44 GMT-0400 (Eastern Daylight Time),873511.6000003815,A,grassenter,I,enter,494,1,2231.800000190735,871279.8000001907,9015,WL,B,2.0
7,7.316999912261963,immed,52683.00008773804,Tue Apr 29 2025 11:06:44 GMT-0400 (Eastern Daylight Time),874828.8000001907,A,s,I,s,1297,1,1316.8000001907349,873512.0,9015,WL,B,3.0
7,7.41700005531311,immed,52582.99994468689,Tue Apr 29 2025 11:06:44 GMT-0400 (Eastern Daylight Time),874928.6999998093,A,st,I,t,88,1,1416.6999998092651,873512.0,9015,WL,B,3.0
7,7.617000102996826,immed,52382.999897003174,Tue Apr 29 2025 11:06:44 GMT-0400 (Eastern Daylight Time),875128.8000001907,A,str,I,r,180,1,1616.8000001907349,873512.0,9015,WL,B,3.0
7,7.766999959945679,immed,52233.00004005432,Tue Apr 29 2025 11:06:44 GMT-0400 (Eastern Daylight Time),875278.6999998093,A,stre,I,e,116,1,1766.6999998092651,873512.0,9015,WL,B,3.0
7,7.9670000076293945,immed,52032.999992370605,Tue Apr 29 2025 11:06:44 GMT-0400 (Eastern Daylight Time),875478.8000001907,A,stree,I,e,183,1,1966.8000001907349,873512.0,9015,WL,B,3.0
7,8.032999992370605,immed,51967.000007629395,Tue Apr 29 2025 11:06:44 GMT-0400 (Eastern Daylight Time),875544.8000001907,A,street,I,t,38,1,2032.8000001907349,873512.0,9015,WL,B,3.0
7,8.849999904632568,immed,51150.00009536743,Tue Apr 29 2025 11:06:44 GMT-0400 (Eastern Daylight Time),876361.6999998093,A,streetenter,I,enter,796,1,2849.699999809265,873512.0,9015,WL,B,3.0
7,10.200000047683716,immed,49799.999952316284,Tue Apr 29 2025 11:06:44 GMT-0400 (Eastern Daylight Time),877711.6999998093,A,w,I,w,1343,1,1349.6999998092651,876362.0,9015,WL,B,4.0
7,10.316999912261963,immed,49683.00008773804,Tue Apr 29 2025 11:06:44 GMT-0400 (Eastern Daylight Time),877828.8000001907,A,wi,I,i,103,1,1466.8000001907349,876362.0,9015,WL,B,4.0
7,10.549999952316284,immed,49450.000047683716,Tue Apr 29 2025 11:06:44 GMT-0400 (Eastern Daylight Time),878061.6000003815,A,win,I,n,199,1,1699.6000003814697,876362.0,9015,WL,B,4.0
7,10.599999904632568,immed,49400.00009536743,Tue Apr 29 2025 11:06:44 GMT-0400 (Eastern Daylight Time),878111.6999998093,A,wind,I,d,40,1,1749.6999998092651,876362.0,9015,WL,B,4.0
7,10.783999919891357,immed,49216.00008010864,Tue Apr 29 2025 11:06:44 GMT-0400 (Eastern Daylight Time),878295.4000005722,A,windo,I,o,168,1,1933.4000005722046,876362.0,9015,WL,B,4.0
7,10.884000062942505,immed,49115.999937057495,Tue Apr 29 2025 11:06:44 GMT-0400 (Eastern Daylight Time),878395.4000005722,A,window,I,w,68,1,2033.4000005722046,876362.0,9015,WL,B,4.0
7,11.184000015258789,immed,48815.99998474121,Tue Apr 29 2025 11:06:44 GMT-0400 (Eastern Daylight Time),878694.9000005722,A,windowenter,I,enter,280,1,2332.9000005722046,876362.0,9015,WL,B,4.0
7,11.400000095367432,immed,48599.99990463257,Tue Apr 29 2025 11:06:44 GMT-0400 (Eastern Daylight Time),878911.6999998093,A,c,I,c,210,1,216.39999961853027,878695.3000001907,9015,WL,B,5.0
7,11.634000062942505,immed,48365.999937057495,Tue Apr 29 2025 11:06:44 GMT-0400 (Eastern Daylight Time),879145.4000005722,A,ca,I,a,213,1,450.1000003814697,878695.3000001907,9015,WL,B,5.0
7,11.750999927520752,immed,48249.00007247925,Tue Apr 29 2025 11:06:44 GMT-0400 (Eastern Daylight Time),879262.1999998093,A,cab,I,b,90,1,566.8999996185303,878695.3000001907,9015,WL,B,5.0
7,11.91700005531311,immed,48082.99994468689,Tue Apr 29 2025 11:06:44 GMT-0400 (Eastern Daylight Time),879428.6999998093,A,cabi,I,i,152,1,733.3999996185303,878695.3000001907,9015,WL,B,5.0
7,12.134000062942505,immed,47865.999937057495,Tue Apr 29 2025 11:06:44 GMT-0400 (Eastern Daylight Time),879645.5,A,cabin,I,n,192,1,950.1999998092651,878695.3000001907,9015,WL,B,5.0
7,12.483999967575073,immed,47516.00003242493,Tue Apr 29 2025 11:06:44 GMT-0400 (Eastern Daylight Time),879995.0,A,cabinenter,I,enter,326,1,1299.6999998092651,878695.3000001907,9015,WL,B,5.0
7,12.783999919891357,immed,47216.00008010864,Tue Apr 29 2025 11:06:44 GMT-0400 (Eastern Daylight Time),880295.6000003815,A,f,I,f,285,1,300.30000019073486,879995.3000001907,9015,WL,B,6.0
7,12.967000007629395,immed,47032.999992370605,Tue Apr 29 2025 11:06:44 GMT-0400 (Eastern Daylight Time),880478.8000001907,A,fi,I,i,156,1,483.5,879995.3000001907,9015,WL,B,6.0
7,13.066999912261963,immed,46933.00008773804,Tue Apr 29 2025 11:06:44 GMT-0400 (Eastern Daylight Time),880578.6999998093,A,fir,I,r,85,1,583.3999996185303,879995.3000001907,9015,WL,B,6.0
7,13.266999959945679,immed,46733.00004005432,Tue Apr 29 2025 11:06:44 GMT-0400 (Eastern Daylight Time),880778.6999998093,A,fire,I,e,171,1,783.3999996185303,879995.3000001907,9015,WL,B,6.0
7,14.299999952316284,immed,45700.000047683716,Tue Apr 29 2025 11:06:44 GMT-0400 (Eastern Daylight Time),881811.6999998093,A,fireenter,I,enter,1010,1,1816.3999996185303,879995.3000001907,9015,WL,B,6.0
7,14.8510000705719,immed,45148.9999294281,Tue Apr 29 2025 11:06:44 GMT-0400 (Eastern Daylight Time),882362.1000003815,A,l,I,l,532,1,550.1000003814697,881812.0,9015,WL,B,7.0
7,14.967000007629395,immed,45032.999992370605,Tue Apr 29 2025 11:06:44 GMT-0400 (Eastern Daylight Time),882478.6999998093,A,la,I,a,92,1,666.6999998092651,881812.0,9015,WL,B,7.0
7,15.134000062942505,immed,44865.999937057495,Tue Apr 29 2025 11:06:44 GMT-0400 (Eastern Daylight Time),882645.5,A,lak,I,k,149,1,833.5,881812.0,9015,WL,B,7.0
7,15.233000040054321,immed,44766.99995994568,Tue Apr 29 2025 11:06:44 GMT-0400 (Eastern Daylight Time),882744.8000001907,A,lake,I,e,70,1,932.8000001907349,881812.0,9015,WL,B,7.0
7,15.634000062942505,immed,44365.999937057495,Tue Apr 29 2025 11:06:44 GMT-0400 (Eastern Daylight Time),883145.0,A,lakeenter,I,enter,382,1,1333.0,881812.0,9015,WL,B,7.0
7,16.250999927520752,immed,43749.00007247925,Tue Apr 29 2025 11:06:44 GMT-0400 (Eastern Daylight Time),883762.1000003815,A,a,I,a,607,1,616.8000001907349,883145.3000001907,9015,WL,B,8.0
7,16.566999912261963,immed,43433.00008773804,Tue Apr 29 2025 11:06:44 GMT-0400 (Eastern Daylight Time),884078.6000003815,A,ar,I,r,290,1,933.3000001907349,883145.3000001907,9015,WL,B,8.0
7,16.816999912261963,immed,43183.00008773804,Tue Apr 29 2025 11:06:44 GMT-0400 (Eastern Daylight Time),884328.8000001907,A,arm,I,m,230,1,1183.5,883145.3000001907,9015,WL,B,8.0
7,17.117000102996826,immed,42882.999897003174,Tue Apr 29 2025 11:06:44 GMT-0400 (Eastern Daylight Time),884628.3000001907,A,armenter,I,enter,284,1,1483.0,883145.3000001907,9015,WL,B,8.0
7,18.58400011062622,immed,41415.99988937378,Tue Apr 29 2025 11:06:44 GMT-0400 (Eastern Daylight Time),886095.1999998093,A,s,I,s,1459,1,1466.5,884628.6999998093,9015,WL,B,9.0
7,18.816999912261963,immed,41183.00008773804,Tue Apr 29 2025 11:06:44 GMT-0400 (Eastern Daylight Time),886328.6999998093,A,st,I,t,213,1,1700.0,884628.6999998093,9015,WL,B,9.0
7,18.983999967575073,immed,41016.00003242493,Tue Apr 29 2025 11:06:44 GMT-0400 (Eastern Daylight Time),886495.3000001907,A,sta,I,a,149,1,1866.6000003814697,884628.6999998093,9015,WL,B,9.0
7,19.066999912261963,immed,40933.00008773804,Tue Apr 29 2025 11:06:44 GMT-0400 (Eastern Daylight Time),886578.8000001907,A,star,I,r,71,1,1950.1000003814697,884628.6999998093,9015,WL,B,9.0
7,19.483999967575073,immed,40516.00003242493,Tue Apr 29 2025 11:06:44 GMT-0400 (Eastern Daylight Time),886995.0,A,starenter,I,enter,392,1,2366.300000190735,884628.6999998093,9015,WL,B,9.0
7,19.93400001525879,immed,40065.99998474121,Tue Apr 29 2025 11:06:44 GMT-0400 (Eastern Daylight Time),887445.5,A,w,I,w,437,1,450.0999994277954,886995.4000005722,9015,WL,B,10.0
7,20.1010000705719,immed,39898.9999294281,Tue Apr 29 2025 11:06:44 GMT-0400 (Eastern Daylight Time),887612.1000003815,A,wi,I,i,141,1,616.6999998092651,886995.4000005722,9015,WL,B,10.0
7,20.3510000705719,immed,39648.9999294281,Tue Apr 29 2025 11:06:44 GMT-0400 (Eastern Daylight Time),887862.0,A,wif,I,f,233,1,866.5999994277954,886995.4000005722,9015,WL,B,10.0
7,20.551000118255615,immed,39448.999881744385,Tue Apr 29 2025 11:06:44 GMT-0400 (Eastern Daylight Time),888062.1999998093,A,wife,I,e,174,1,1066.7999992370605,886995.4000005722,9015,WL,B,10.0
7,20.967000007629395,immed,39032.999992370605,Tue Apr 29 2025 11:06:44 GMT-0400 (Eastern Daylight Time),888478.4000005722,A,wifeenter,I,enter,404,1,1483.0,886995.4000005722,9015,WL,B,10.0
7,22.033999919891357,immed,37966.00008010864,Tue Apr 29 2025 11:06:44 GMT-0400 (Eastern Daylight Time),889545.3000001907,A,a,I,a,1050,1,1066.6000003814697,888478.6999998093,9015,WL,B,11.0
7,22.316999912261963,immed,37683.00008773804,Tue Apr 29 2025 11:06:44 GMT-0400 (Eastern Daylight Time),889828.4000005722,A,ar,I,r,268,1,1349.7000007629395,888478.6999998093,9015,WL,B,11.0
7,22.59999990463257,immed,37400.00009536743,Tue Apr 29 2025 11:06:44 GMT-0400 (Eastern Daylight Time),890111.6999998093,A,arm,I,m,272,1,1633.0,888478.6999998093,9015,WL,B,11.0
7,23.032999992370605,immed,36967.000007629395,Tue Apr 29 2025 11:06:44 GMT-0400 (Eastern Daylight Time),890544.9000005722,A,armenter,I,enter,413,1,2066.2000007629395,888478.6999998093,9015,WL,B,11.0
7,23.533999919891357,immed,36466.00008010864,Tue Apr 29 2025 11:06:44 GMT-0400 (Eastern Daylight Time),891045.4000005722,A,p,I,p,486,1,500.1000003814697,890545.3000001907,9015,WL,B,12.0
7,23.782999992370605,immed,36217.000007629395,Tue Apr 29 2025 11:06:44 GMT-0400 (Eastern Daylight Time),891294.5,A,pu,I,u,239,1,749.1999998092651,890545.3000001907,9015,WL,B,12.0
7,24.066999912261963,immed,35933.00008773804,Tue Apr 29 2025 11:06:44 GMT-0400 (Eastern Daylight Time),891578.1999998093,A,pup,I,p,264,1,1032.8999996185303,890545.3000001907,9015,WL,B,12.0
7,24.299999952316284,immed,35700.000047683716,Tue Apr 29 2025 11:06:44 GMT-0400 (Eastern Daylight Time),891811.4000005722,A,pupi,I,i,221,1,1266.1000003814697,890545.3000001907,9015,WL,B,12.0
7,24.51699995994568,immed,35483.00004005432,Tue Apr 29 2025 11:06:44 GMT-0400 (Eastern Daylight Time),892028.5,A,pupil,I,l,196,1,1483.1999998092651,890545.3000001907,9015,WL,B,12.0
7,24.782999992370605,immed,35217.000007629395,Tue Apr 29 2025 11:06:44 GMT-0400 (Eastern Daylight Time),892294.8000001907,A,pupilenter,I,enter,246,1,1749.5,890545.3000001907,9015,WL,B,12.0
7,25.09999990463257,immed,34900.00009536743,Tue Apr 29 2025 11:06:44 GMT-0400 (Eastern Daylight Time),892611.3000001907,A,p,I,p,305,1,316.19999980926514,892295.1000003815,9015,WL,B,13.0
7,25.34999990463257,immed,34650.00009536743,Tue Apr 29 2025 11:06:44 GMT-0400 (Eastern Daylight Time),892861.4000005722,A,pi,I,i,228,1,566.3000001907349,892295.1000003815,9015,WL,B,13.0
7,25.58299994468689,immed,34417.00005531311,Tue Apr 29 2025 11:06:44 GMT-0400 (Eastern Daylight Time),893094.6999998093,A,pip,I,p,217,1,799.5999994277954,892295.1000003815,9015,WL,B,13.0
7,25.799999952316284,immed,34200.000047683716,Tue Apr 29 2025 11:06:44 GMT-0400 (Eastern Daylight Time),893311.3000001907,A,pipe,I,e,206,1,1016.1999998092651,892295.1000003815,9015,WL,B,13.0
7,26.282999992370605,immed,33717.000007629395,Tue Apr 29 2025 11:06:44 GMT-0400 (Eastern Daylight Time),893794.8000001907,A,pipeenter,I,enter,471,1,1499.6999998092651,892295.1000003815,9015,WL,B,13.0
7,30.59999990463257,immed,29400.00009536743,Tue Apr 29 2025 11:06:44 GMT-0400 (Eastern Daylight Time),898111.6000003815,A,s,I,s,4307,1,4316.5,893795.1000003815,9015,WL,B,14.0
7,30.700999975204468,immed,29299.000024795532,Tue Apr 29 2025 11:06:44 GMT-0400 (Eastern Daylight Time),898212.0,A,sk,I,k,89,1,4416.89999961853,893795.1000003815,9015,WL,B,14.0
7,30.91700005531311,immed,29082.99994468689,Tue Apr 29 2025 11:06:44 GMT-0400 (Eastern Daylight Time),898428.6000003815,A,ski,I,i,186,1,4633.5,893795.1000003815,9015,WL,B,14.0
7,31.08400011062622,immed,28915.99988937378,Tue Apr 29 2025 11:06:44 GMT-0400 (Eastern Daylight Time),898595.0,A,skin,I,n,151,1,4799.89999961853,893795.1000003815,9015,WL,B,14.0
7,31.41700005531311,immed,28582.99994468689,Tue Apr 29 2025 11:06:44 GMT-0400 (Eastern Daylight Time),898928.1999998093,A,skinenter,I,enter,323,1,5133.099999427795,893795.1000003815,9015,WL,B,14.0
7,32.20199990272522,immed,27798.00009727478,Tue Apr 29 2025 11:06:44 GMT-0400 (Eastern Daylight Time),899713.1999998093,A,c,I,c,776,1,784.5999994277954,898928.6000003815,9015,WL,B,15.0
7,32.41700005531311,immed,27582.99994468689,Tue Apr 29 2025 11:06:44 GMT-0400 (Eastern Daylight Time),899928.8000001907,A,ci,I,i,196,1,1000.1999998092651,898928.6000003815,9015,WL,B,15.0
7,32.651000022888184,immed,27348.999977111816,Tue Apr 29 2025 11:06:44 GMT-0400 (Eastern Daylight Time),900162.1000003815,A,cit,I,t,221,1,1233.5,898928.6000003815,9015,WL,B,15.0
7,32.73399996757507,immed,27266.000032424927,Tue Apr 29 2025 11:06:44 GMT-0400 (Eastern Daylight Time),900245.1000003815,A,city,I,y,57,1,1316.5,898928.6000003815,9015,WL,B,15.0
7,33.53399991989136,immed,26466.000080108643,Tue Apr 29 2025 11:06:44 GMT-0400 (Eastern Daylight Time),901045.0,A,cityenter,I,enter,784,1,2116.3999996185303,898928.6000003815,9015,WL,B,15.0
