acc_sum,block_c,block_dur,condition,correct,correct_response,countdown,datetime,endtime,project,response,response_time,response_time_test1_response,response_time_test2_response,row_sel,same,session_number,start_end,starttime,stim1,stim2,subject_id,task,task_vers,time_test1,time_test2,trial
1,1,0.0,prac,1,m,30000.0,Thu Jan 23 2025 15:49:47 GMT-0600 (Central Standard Time),27281.89999999851,I,m,940,,,1,no,1,2461.89999999851,24820.0,RNV,FNV,8017,LC,A,,,1
1,1,0.0,prac,0,z,30000.0,Thu Jan 23 2025 15:49:47 GMT-0600 (Central Standard Time),30413.89999999851,I,m,1601,,,6,yes,1,3127.7999999970198,27286.10000000149,CSDBFPHXZ,CSDBFPHXZ,8017,LC,A,,,2
2,1,0.0,prac,1,z,30000.0,Thu Jan 23 2025 15:49:47 GMT-0600 (Central Standard Time),33030.20000000298,I,z,1078,,,4,yes,1,2612.5,30417.70000000298,RSM,RSM,8017,LC,A,,,3
3,1,0.0,prac,1,m,30000.0,Thu Jan 23 2025 15:49:47 GMT-0600 (Central Standard Time),35812.70000000298,I,m,1253,,,3,no,1,2777.7000000029802,33035.0,QHZXPC,QHZWPC,8017,LC,A,,,4
4,1,0.0,prac,1,z,30000.0,Thu Jan 23 2025 15:49:47 GMT-0600 (Central Standard Time),38711.70000000298,I,z,1375,,,2,yes,1,2895.0,35816.70000000298,NBGFSM,NBGFSM,8017,LC,A,,,5
5,1,0.0,prac,1,m,30000.0,Thu Jan 23 2025 15:49:47 GMT-0600 (Central Standard Time),41560.89999999851,I,m,1323,,,5,no,1,2844.10000000149,38716.79999999702,LNDPRSKQB,LNDPRSJQB,8017,LC,A,,,6
1,1,1.0829999446868896,test,1,m,28917.00005531311,Thu Jan 23 2025 15:49:47 GMT-0600 (Central Standard Time),49291.60000000149,I,m,1069,1069,,1,no,1,1080.1000000014901,48211.5,HCF,RCF,8017,LC,A,46801,,1
2,1,3.0329999923706055,test,1,m,26967.000007629395,Thu Jan 23 2025 15:49:47 GMT-0600 (Central Standard Time),51241.10000000149,I,m,1929,1929,,2,no,1,1945.8999999985099,49295.20000000298,QTPRJX,QTPNJX,8017,LC,A,47885,,2
3,1,5.514999866485596,test,1,m,24485.000133514404,Thu Jan 23 2025 15:49:47 GMT-0600 (Central Standard Time),53723.5,I,m,2467,2467,,3,no,1,2479.2000000029802,51244.29999999702,MZDYGVGKQ,MZDYGLBKQ,8017,LC,A,49835,,3
4,1,6.447999954223633,test,1,m,23552.000045776367,Thu Jan 23 2025 15:49:47 GMT-0600 (Central Standard Time),54656.79999999702,I,m,913,913,,4,no,1,930.0999999940395,53726.70000000298,FQTNMK,JQTNMK,8017,LC,A,52317,,4
5,1,7.497999906539917,test,1,z,22502.000093460083,Thu Jan 23 2025 15:49:47 GMT-0600 (Central Standard Time),55706.20000000298,I,z,1028,1028,,5,yes,1,1046.4000000059605,54659.79999999702,CLJ,CLJ,8017,LC,A,53250,,5
6,1,9.11299991607666,test,1,m,20887.00008392334,Thu Jan 23 2025 15:49:47 GMT-0600 (Central Standard Time),57322.10000000149,I,m,1611,1611,,6,no,1,1612.8999999985099,55709.20000000298,JGDMNSVPW,JGZMNSVPW,8017,LC,A,54299,,6
6,1,12.095999956130981,test,0,z,17904.00004386902,Thu Jan 23 2025 15:49:47 GMT-0600 (Central Standard Time),60304.89999999851,I,m,2970,2970,,7,yes,1,2979.39999999851,57325.5,FPTVHKCBJ,FPTVHKCBJ,8017,LC,A,55915,,7
7,1,13.062999963760376,test,1,m,16937.000036239624,Thu Jan 23 2025 15:49:47 GMT-0600 (Central Standard Time),61272.39999999851,I,m,948,948,,8,no,1,964.3999999985099,60308.0,XRPZBS,ZRPBDH,8017,LC,A,58898,,8
8,1,14.027999877929688,test,1,m,15972.000122070312,Thu Jan 23 2025 15:49:47 GMT-0600 (Central Standard Time),62237.39999999851,I,m,957,957,,9,no,1,961.7999999970198,61275.60000000149,ZSQ,ZSP,8017,LC,A,59865,,9
9,1,15.944000005722046,test,1,z,14055.999994277954,Thu Jan 23 2025 15:49:47 GMT-0600 (Central Standard Time),64153.5,I,z,1903,1903,,10,yes,1,1912.7999999970198,62240.70000000298,MPZRXL,MPZRXL,8017,LC,A,60831,,10
10,1,16.944000005722046,test,1,m,13055.999994277954,Thu Jan 23 2025 15:49:47 GMT-0600 (Central Standard Time),65153.29999999702,I,m,979,979,,11,no,1,996.7999999970198,64156.5,KJH,KRH,8017,LC,A,62747,,11
10,1,18.51099991798401,test,0,z,11489.000082015991,Thu Jan 23 2025 15:49:47 GMT-0600 (Central Standard Time),66719.70000000298,I,m,1548,1548,,12,yes,1,1563.3000000044703,65156.39999999851,SMNHVTFCB,SMNHVTFCB,8017,LC,A,63746,,12
11,1,20.7260000705719,test,1,z,9273.9999294281,Thu Jan 23 2025 15:49:47 GMT-0600 (Central Standard Time),68935.39999999851,I,z,2197,2197,,13,yes,1,2212.7999999970198,66722.60000000149,KJWTQF,KJWTQF,8017,LC,A,65313,,13
12,1,24.741999864578247,test,1,z,5258.000135421753,Thu Jan 23 2025 15:49:47 GMT-0600 (Central Standard Time),72950.89999999851,I,z,4005,4005,,14,yes,1,4012.39999999851,68938.5,CHDKQGLMB,CHDKQGLMB,8017,LC,A,67529,,14
13,1,25.491999864578247,test,1,z,4508.000135421753,Thu Jan 23 2025 15:49:47 GMT-0600 (Central Standard Time),73700.60000000149,I,z,734,734,,15,yes,1,746.3000000044703,72954.29999999702,GHQ,GHQ,8017,LC,A,71544,,15
14,1,27.257999897003174,test,1,z,2742.000102996826,Thu Jan 23 2025 15:49:47 GMT-0600 (Central Standard Time),75466.60000000149,I,z,1760,1760,,16,yes,1,1762.8000000044703,73703.79999999702,GFVMRH,GFVMRH,8017,LC,A,72294,,16
15,1,28.22499990463257,test,1,z,1775.0000953674316,Thu Jan 23 2025 15:49:47 GMT-0600 (Central Standard Time),76434.0,I,z,954,954,,17,yes,1,964.2000000029802,75469.79999999702,RSM,RSM,8017,LC,A,74060,,17
16,1,29.573999881744385,test,1,m,426.00011825561523,Thu Jan 23 2025 15:49:47 GMT-0600 (Central Standard Time),77782.70000000298,I,m,1338,1338,,18,no,1,1345.2000000029802,76437.5,BSRJTRMLG,BSFJTRMLG,8017,LC,A,75028,,18
16,1,30.006999969482422,test,0,z,-6.999969482421875,Thu Jan 23 2025 15:49:47 GMT-0600 (Central Standard Time),78216.0,I,None,428,428,,19,yes,1,430.20000000298023,77785.79999999702,NBGFSM,NBGFSM,8017,LC,A,76376,,19
1,2,2.9830000400543213,test,1,z,27016.99995994568,Thu Jan 23 2025 15:49:47 GMT-0600 (Central Standard Time),90278.89999999851,I,z,2973,,2973.0,1,yes,1,12493.10000000149,77785.79999999702,PRDBZTYFN,PRDBZTYFN,8017,LC,A,,85889.0,1
2,2,5.381999969482422,test,1,m,24618.000030517578,Thu Jan 23 2025 15:49:47 GMT-0600 (Central Standard Time),92677.89999999851,I,m,2382,,2382.0,2,no,1,14892.10000000149,77785.79999999702,NCWJDZ,NCMJDZ,8017,LC,A,,88872.0,2
3,2,6.79800009727478,test,1,m,23201.99990272522,Thu Jan 23 2025 15:49:47 GMT-0600 (Central Standard Time),94094.10000000149,I,m,1399,,1399.0,3,no,1,16308.30000000447,77785.79999999702,KHW,KBW,8017,LC,A,,91271.0,3
4,2,8.664000034332275,test,1,m,21335.999965667725,Thu Jan 23 2025 15:49:47 GMT-0600 (Central Standard Time),95960.0,I,m,1847,,1847.0,4,no,1,18174.20000000298,77785.79999999702,ZRBGMF,ZRBCMF,8017,LC,A,,92687.0,4
5,2,9.496999979019165,test,1,m,20503.000020980835,Thu Jan 23 2025 15:49:47 GMT-0600 (Central Standard Time),96793.29999999702,I,m,821,,821.0,5,no,1,19007.5,77785.79999999702,BTH,BYH,8017,LC,A,,94553.0,5
5,2,12.263000011444092,test,0,z,17736.99998855591,Thu Jan 23 2025 15:49:47 GMT-0600 (Central Standard Time),99559.10000000149,I,m,2748,,2748.0,6,yes,1,21773.30000000447,77785.79999999702,XWKQRYCNZ,XWKQRYCNZ,8017,LC,A,,95386.0,6
6,2,15.828999996185303,test,1,z,14171.000003814697,Thu Jan 23 2025 15:49:47 GMT-0600 (Central Standard Time),103124.70000000298,I,z,3558,,3558.0,7,yes,1,25338.90000000596,77785.79999999702,HNPDLK,HNPDLK,8017,LC,A,,98152.0,7
7,2,18.778000116348267,test,1,m,11221.999883651733,Thu Jan 23 2025 15:49:47 GMT-0600 (Central Standard Time),106073.79999999702,I,m,2936,,2936.0,8,no,1,28288.0,77785.79999999702,WMQTRSGLZ,WMQTRZGLZ,8017,LC,A,,101718.0,8
8,2,19.710999965667725,test,1,z,10289.000034332275,Thu Jan 23 2025 15:49:47 GMT-0600 (Central Standard Time),107007.10000000149,I,z,924,,924.0,9,yes,1,29221.30000000447,77785.79999999702,JPN,JPN,8017,LC,A,,104666.0,9
9,2,20.81000018119812,test,1,m,9189.99981880188,Thu Jan 23 2025 15:49:47 GMT-0600 (Central Standard Time),108106.5,I,m,1079,,1079.0,10,no,1,30320.70000000298,77785.79999999702,QLXSVT,QLNSVT,8017,LC,A,,105600.0,10
9,2,24.759000062942505,test,0,z,5240.999937057495,Thu Jan 23 2025 15:49:47 GMT-0600 (Central Standard Time),112055.10000000149,I,m,3939,,3939.0,11,yes,1,34269.30000000447,77785.79999999702,YXHKZVFPB,YXHKZVFPD,8017,LC,A,,106699.0,11
10,2,25.80900001525879,test,1,z,4190.999984741211,Thu Jan 23 2025 15:49:47 GMT-0600 (Central Standard Time),113104.89999999851,I,z,1030,,1030.0,12,yes,1,35319.10000000149,77785.79999999702,RJZ,RJZ,8017,LC,A,,110648.0,12
11,2,28.758000135421753,test,1,z,1241.999864578247,Thu Jan 23 2025 15:49:47 GMT-0600 (Central Standard Time),116053.89999999851,I,z,2940,,2940.0,13,yes,1,38268.10000000149,77785.79999999702,CLNPZD,CLNPZD,8017,LC,A,,111698.0,13
11,2,30.008000135421753,test,0,m,-8.00013542175293,Thu Jan 23 2025 15:49:47 GMT-0600 (Central Standard Time),117303.70000000298,I,None,1245,,1245.0,14,no,1,39517.90000000596,77785.79999999702,DCBPFHXYJ,DCBPFHLYJ,8017,LC,A,,114647.0,14
