Number,acc_sum,block,block_c,block_cond,con_img,correct,correct_response,datetime,endtime,jitter,project,response,response_time,row_sel,session_number,start_end,starttime,subject_id,task,task_vers,trial
9,0,prac,1,A,circle.png,0,m,Fri Apr 11 2025 09:13:20 GMT-0400 (Eastern Daylight Time),65624.69999980927,1500,I,None,1512,8,1,3789.199999809265,61835.5,9011,NTS,A,1
8,1,prac,1,A,circle.png,1,m,Fri Apr 11 2025 09:13:20 GMT-0400 (Eastern Daylight Time),68674.60000038147,1600,I,m,661,7,1,3038.4000005722046,65636.19999980927,9011,NTS,A,2
6,2,prac,1,A,circle.png,1,m,Fri Apr 11 2025 09:13:20 GMT-0400 (Eastern Daylight Time),71941.4000005722,1900,I,m,576,5,1,3254.9000005722046,68686.5,9011,NTS,A,3
2,3,prac,1,A,circle.png,1,z,Fri Apr 11 2025 09:13:20 GMT-0400 (Eastern Daylight Time),75274.69999980927,2000,I,z,538,2,1,3320.3999996185303,71954.30000019073,9011,NTS,A,4
1,4,prac,1,A,circle.png,1,z,Fri Apr 11 2025 09:13:20 GMT-0400 (Eastern Daylight Time),77558.10000038147,1000,I,z,489,1,1,2271.800000190735,75286.30000019073,9011,NTS,A,5
1,5,prac,1,A,circle.png,1,z,Fri Apr 11 2025 09:13:20 GMT-0400 (Eastern Daylight Time),79841.30000019073,1000,I,z,497,1,1,2272.6000003814697,77568.69999980927,9011,NTS,A,6
3,6,prac,1,A,circle.png,1,z,Fri Apr 11 2025 09:13:20 GMT-0400 (Eastern Daylight Time),82491.30000019073,1200,I,z,654,3,1,2637.699999809265,79853.60000038147,9011,NTS,A,7
6,7,prac,1,A,circle.png,1,m,Fri Apr 11 2025 09:13:20 GMT-0400 (Eastern Daylight Time),85691.4000005722,1900,I,m,504,5,1,3188.300000190735,82503.10000038147,9011,NTS,A,8
4,8,prac,1,A,circle.png,1,z,Fri Apr 11 2025 09:13:20 GMT-0400 (Eastern Daylight Time),88441.5,1400,I,z,556,4,1,2737.0,85704.5,9011,NTS,A,9
7,9,prac,1,A,circle.png,1,m,Fri Apr 11 2025 09:13:20 GMT-0400 (Eastern Daylight Time),91541.4000005722,1700,I,m,610,6,1,3089.0,88452.4000005722,9011,NTS,A,10
9,10,prac,1,A,circle.png,1,m,Fri Apr 11 2025 09:13:20 GMT-0400 (Eastern Daylight Time),94974.80000019073,1500,I,m,1134,8,1,3421.800000190735,91553.0,9011,NTS,A,11
2,11,prac,1,A,circle.png,1,z,Fri Apr 11 2025 09:13:20 GMT-0400 (Eastern Daylight Time),98241.30000019073,2000,I,z,481,2,1,3255.800000190735,94985.5,9011,NTS,A,12
6,1,prac,1,B,triangle.png,1,m,Fri Apr 11 2025 09:13:20 GMT-0400 (Eastern Daylight Time),138341.10000038147,1000,I,m,677,5,1,2457.699999809265,135883.4000005722,9011,NTS,A,1
1,2,prac,1,B,triangle.png,1,z,Fri Apr 11 2025 09:13:20 GMT-0400 (Eastern Daylight Time),141691.19999980927,1900,I,z,655,1,1,3339.5999994277954,138351.60000038147,9011,NTS,A,2
4,3,prac,1,B,triangle.png,1,m,Fri Apr 11 2025 09:13:20 GMT-0400 (Eastern Daylight Time),144407.9000005722,1500,I,m,424,4,1,2705.7000007629395,141702.19999980927,9011,NTS,A,3
3,4,prac,1,B,triangle.png,1,z,Fri Apr 11 2025 09:13:20 GMT-0400 (Eastern Daylight Time),147307.60000038147,1600,I,z,504,3,1,2888.1000003814697,144419.5,9011,NTS,A,4
8,5,prac,1,B,triangle.png,1,m,Fri Apr 11 2025 09:13:20 GMT-0400 (Eastern Daylight Time),149774.5,1200,I,m,468,7,1,2453.300000190735,147321.19999980927,9011,NTS,A,5
7,6,prac,1,B,triangle.png,1,z,Fri Apr 11 2025 09:13:20 GMT-0400 (Eastern Daylight Time),153091.19999980927,2000,I,z,530,6,1,3305.699999809265,149785.5,9011,NTS,A,6
1,7,prac,1,B,triangle.png,1,z,Fri Apr 11 2025 09:13:20 GMT-0400 (Eastern Daylight Time),156391.10000038147,1900,I,z,609,1,1,3289.1000003814697,153102.0,9011,NTS,A,7
9,8,prac,1,B,triangle.png,1,z,Fri Apr 11 2025 09:13:20 GMT-0400 (Eastern Daylight Time),159041.10000038147,1400,I,z,449,8,1,2639.1000003814697,156402.0,9011,NTS,A,8
2,9,prac,1,B,triangle.png,1,m,Fri Apr 11 2025 09:13:20 GMT-0400 (Eastern Daylight Time),162241.19999980927,1700,I,m,699,2,1,3189.0,159052.19999980927,9011,NTS,A,9
3,10,prac,1,B,triangle.png,1,z,Fri Apr 11 2025 09:13:20 GMT-0400 (Eastern Daylight Time),165091.0,1600,I,z,463,3,1,2840.0,162251.0,9011,NTS,A,10
2,11,prac,1,B,triangle.png,1,m,Fri Apr 11 2025 09:13:20 GMT-0400 (Eastern Daylight Time),168124.30000019073,1700,I,m,537,2,1,3022.3999996185303,165101.9000005722,9011,NTS,A,11
9,11,prac,1,B,triangle.png,0,z,Fri Apr 11 2025 09:13:20 GMT-0400 (Eastern Daylight Time),170857.80000019073,1400,I,m,539,8,1,2720.8999996185303,168136.9000005722,9011,NTS,A,12
1,1,test,1,A,circle.png,1,z,Fri Apr 11 2025 09:13:20 GMT-0400 (Eastern Daylight Time),194341.30000019073,1000,I,z,728,1,1,1740.1000003814697,192601.19999980927,9011,NTS,A,1
9,2,test,1,A,circle.png,1,m,Fri Apr 11 2025 09:13:20 GMT-0400 (Eastern Daylight Time),196674.5,1500,I,m,798,8,1,2324.199999809265,194350.30000019073,9011,NTS,A,2
1,3,test,1,A,circle.png,1,z,Fri Apr 11 2025 09:13:20 GMT-0400 (Eastern Daylight Time),198357.60000038147,1000,I,z,661,1,1,1674.1999998092651,196683.4000005722,9011,NTS,A,3
4,4,test,1,A,circle.png,1,z,Fri Apr 11 2025 09:13:20 GMT-0400 (Eastern Daylight Time),200307.5,1400,I,z,530,4,1,1939.6999998092651,198367.80000019073,9011,NTS,A,4
2,5,test,1,A,circle.png,1,z,Fri Apr 11 2025 09:13:20 GMT-0400 (Eastern Daylight Time),202924.4000005722,2000,I,z,586,2,1,2607.800000190735,200316.60000038147,9011,NTS,A,5
7,6,test,1,A,circle.png,1,m,Fri Apr 11 2025 09:13:20 GMT-0400 (Eastern Daylight Time),205191.0,1700,I,m,543,6,1,2258.0,202933.0,9011,NTS,A,6
6,7,test,1,A,circle.png,1,m,Fri Apr 11 2025 09:13:20 GMT-0400 (Eastern Daylight Time),208007.60000038147,1900,I,m,891,5,1,2809.6000003814697,205198.0,9011,NTS,A,7
6,8,test,1,A,circle.png,1,m,Fri Apr 11 2025 09:13:20 GMT-0400 (Eastern Daylight Time),210591.0,1900,I,m,652,5,1,2574.0,208017.0,9011,NTS,A,8
3,9,test,1,A,circle.png,1,z,Fri Apr 11 2025 09:13:20 GMT-0400 (Eastern Daylight Time),212357.4000005722,1200,I,z,542,3,1,1755.3000001907349,210602.10000038147,9011,NTS,A,9
9,10,test,1,A,circle.png,1,m,Fri Apr 11 2025 09:13:20 GMT-0400 (Eastern Daylight Time),214441.0,1500,I,m,558,8,1,2076.0999994277954,212364.9000005722,9011,NTS,A,10
6,11,test,1,A,circle.png,1,m,Fri Apr 11 2025 09:13:20 GMT-0400 (Eastern Daylight Time),217724.4000005722,1900,I,m,1353,5,1,3273.6000003814697,214450.80000019073,9011,NTS,A,11
6,12,test,1,A,circle.png,1,m,Fri Apr 11 2025 09:13:20 GMT-0400 (Eastern Daylight Time),220257.60000038147,1900,I,m,599,5,1,2522.5,217735.10000038147,9011,NTS,A,12
9,13,test,1,A,circle.png,1,m,Fri Apr 11 2025 09:13:20 GMT-0400 (Eastern Daylight Time),222524.30000019073,1500,I,m,738,8,1,2256.3999996185303,220267.9000005722,9011,NTS,A,13
8,14,test,1,A,circle.png,1,m,Fri Apr 11 2025 09:13:20 GMT-0400 (Eastern Daylight Time),224841.0,1600,I,m,691,7,1,2308.0999994277954,222532.9000005722,9011,NTS,A,14
4,15,test,1,A,circle.png,1,z,Fri Apr 11 2025 09:13:20 GMT-0400 (Eastern Daylight Time),226907.60000038147,1400,I,z,639,4,1,2057.300000190735,224850.30000019073,9011,NTS,A,15
2,16,test,1,A,circle.png,1,z,Fri Apr 11 2025 09:13:20 GMT-0400 (Eastern Daylight Time),229741.10000038147,2000,I,z,802,2,1,2824.800000190735,226916.30000019073,9011,NTS,A,16
2,17,test,1,A,circle.png,1,z,Fri Apr 11 2025 09:13:20 GMT-0400 (Eastern Daylight Time),232541.0,2000,I,z,770,2,1,2789.300000190735,229751.69999980927,9011,NTS,A,17
3,18,test,1,A,circle.png,1,z,Fri Apr 11 2025 09:13:20 GMT-0400 (Eastern Daylight Time),234707.4000005722,1200,I,z,946,3,1,2158.4000005722046,232549.0,9011,NTS,A,18
8,19,test,1,A,circle.png,1,m,Fri Apr 11 2025 09:13:20 GMT-0400 (Eastern Daylight Time),236857.60000038147,1600,I,m,524,7,1,2141.300000190735,234716.30000019073,9011,NTS,A,19
1,20,test,1,A,circle.png,1,z,Fri Apr 11 2025 09:13:20 GMT-0400 (Eastern Daylight Time),238457.80000019073,1000,I,z,572,1,1,1591.6000003814697,236866.19999980927,9011,NTS,A,20
3,21,test,1,A,circle.png,1,z,Fri Apr 11 2025 09:13:20 GMT-0400 (Eastern Daylight Time),240290.69999980927,1200,I,z,614,3,1,1824.0999994277954,238466.60000038147,9011,NTS,A,21
1,22,test,1,A,circle.png,1,z,Fri Apr 11 2025 09:13:20 GMT-0400 (Eastern Daylight Time),241857.60000038147,1000,I,z,531,1,1,1558.9000005722046,240298.69999980927,9011,NTS,A,22
4,23,test,1,A,circle.png,1,z,Fri Apr 11 2025 09:13:20 GMT-0400 (Eastern Daylight Time),243807.60000038147,1400,I,z,518,4,1,1941.6999998092651,241865.9000005722,9011,NTS,A,23
7,24,test,1,A,circle.png,1,m,Fri Apr 11 2025 09:13:20 GMT-0400 (Eastern Daylight Time),246240.9000005722,1700,I,m,698,6,1,2424.9000005722046,243816.0,9011,NTS,A,24
3,1,test,1,B,triangle.png,1,z,Fri Apr 11 2025 09:13:20 GMT-0400 (Eastern Daylight Time),260291.4000005722,2000,I,z,1131,11,1,3142.800000190735,257148.60000038147,9011,NTS,A,1
1,2,test,1,B,triangle.png,1,z,Fri Apr 11 2025 09:13:20 GMT-0400 (Eastern Daylight Time),262708.4000005722,1900,I,z,497,1,1,2410.800000190735,260297.60000038147,9011,NTS,A,2
4,3,test,1,B,triangle.png,1,m,Fri Apr 11 2025 09:13:20 GMT-0400 (Eastern Daylight Time),264674.5,1500,I,m,448,4,1,1957.3999996185303,262717.10000038147,9011,NTS,A,3
7,4,test,1,B,triangle.png,1,z,Fri Apr 11 2025 09:13:20 GMT-0400 (Eastern Daylight Time),267324.4000005722,2000,I,z,622,6,1,2640.5,264683.9000005722,9011,NTS,A,4
3,5,test,1,B,triangle.png,1,z,Fri Apr 11 2025 09:13:20 GMT-0400 (Eastern Daylight Time),269474.5,1600,I,z,532,3,1,2141.199999809265,267333.30000019073,9011,NTS,A,5
1,6,test,1,B,triangle.png,1,z,Fri Apr 11 2025 09:13:20 GMT-0400 (Eastern Daylight Time),271424.30000019073,1400,I,z,518,9,1,1942.3999996185303,269481.9000005722,9011,NTS,A,6
6,7,test,1,B,triangle.png,1,m,Fri Apr 11 2025 09:13:20 GMT-0400 (Eastern Daylight Time),273507.30000019073,1500,I,m,564,13,1,2074.3999996185303,271432.9000005722,9011,NTS,A,7
4,8,test,1,B,triangle.png,1,m,Fri Apr 11 2025 09:13:20 GMT-0400 (Eastern Daylight Time),275640.80000019073,1500,I,m,608,4,1,2125.6000003814697,273515.19999980927,9011,NTS,A,8
3,9,test,1,B,triangle.png,1,z,Fri Apr 11 2025 09:13:20 GMT-0400 (Eastern Daylight Time),278540.80000019073,1600,I,z,1271,3,1,2890.800000190735,275650.0,9011,NTS,A,9
9,10,test,1,B,triangle.png,1,z,Fri Apr 11 2025 09:13:20 GMT-0400 (Eastern Daylight Time),280524.19999980927,1400,I,z,555,8,1,1974.1999998092651,278550.0,9011,NTS,A,10
9,11,test,1,B,triangle.png,1,z,Fri Apr 11 2025 09:13:20 GMT-0400 (Eastern Daylight Time),283491.0,1900,I,z,1048,16,1,2958.699999809265,280532.30000019073,9011,NTS,A,11
6,12,test,1,B,triangle.png,1,m,Fri Apr 11 2025 09:13:20 GMT-0400 (Eastern Daylight Time),285073.4000005722,1000,I,m,564,5,1,1573.6000003814697,283499.80000019073,9011,NTS,A,12
2,13,test,1,B,triangle.png,1,m,Fri Apr 11 2025 09:13:20 GMT-0400 (Eastern Daylight Time),287574.30000019073,1700,I,m,778,2,1,2495.1000003814697,285079.19999980927,9011,NTS,A,13
8,14,test,1,B,triangle.png,1,m,Fri Apr 11 2025 09:13:20 GMT-0400 (Eastern Daylight Time),289240.69999980927,1200,I,m,442,7,1,1657.5999994277954,287583.10000038147,9011,NTS,A,14
6,15,test,1,B,triangle.png,1,m,Fri Apr 11 2025 09:13:20 GMT-0400 (Eastern Daylight Time),290907.60000038147,1000,I,m,640,5,1,1659.1000003814697,289248.5,9011,NTS,A,15
2,16,test,1,B,triangle.png,1,m,Fri Apr 11 2025 09:13:20 GMT-0400 (Eastern Daylight Time),293290.9000005722,1700,I,m,657,2,1,2374.800000190735,290916.10000038147,9011,NTS,A,16
2,17,test,1,B,triangle.png,1,m,Fri Apr 11 2025 09:13:20 GMT-0400 (Eastern Daylight Time),294974.10000038147,1200,I,m,453,10,1,1673.5,293300.60000038147,9011,NTS,A,17
7,18,test,1,B,triangle.png,1,z,Fri Apr 11 2025 09:13:20 GMT-0400 (Eastern Daylight Time),297074.5,1600,I,z,482,14,1,2092.800000190735,294981.69999980927,9011,NTS,A,18
4,19,test,1,B,triangle.png,1,m,Fri Apr 11 2025 09:13:20 GMT-0400 (Eastern Daylight Time),298723.9000005722,1000,I,m,630,12,1,1639.4000005722046,297084.5,9011,NTS,A,19
9,20,test,1,B,triangle.png,1,z,Fri Apr 11 2025 09:13:20 GMT-0400 (Eastern Daylight Time),301257.5,1900,I,z,608,16,1,2524.199999809265,298733.30000019073,9011,NTS,A,20
9,21,test,1,B,triangle.png,1,z,Fri Apr 11 2025 09:13:20 GMT-0400 (Eastern Daylight Time),303474.10000038147,1400,I,z,783,8,1,2207.9000005722046,301266.19999980927,9011,NTS,A,21
8,22,test,1,B,triangle.png,1,m,Fri Apr 11 2025 09:13:20 GMT-0400 (Eastern Daylight Time),305790.9000005722,1700,I,m,586,15,1,2309.5,303481.4000005722,9011,NTS,A,22
1,23,test,1,B,triangle.png,1,z,Fri Apr 11 2025 09:13:20 GMT-0400 (Eastern Daylight Time),307957.60000038147,1400,I,z,745,9,1,2157.300000190735,305800.30000019073,9011,NTS,A,23
1,24,test,1,B,triangle.png,1,z,Fri Apr 11 2025 09:13:20 GMT-0400 (Eastern Daylight Time),310357.5,1900,I,z,479,1,1,2391.0999994277954,307966.4000005722,9011,NTS,A,24
1,1,prac,1,C,circle.png,1,z,Fri Apr 11 2025 09:13:20 GMT-0400 (Eastern Daylight Time),360507.5,1700,I,z,921,1,1,3407.5,357100.0,9011,NTS,A,1
7,1,prac,1,C,triangle.png,0,z,Fri Apr 11 2025 09:13:20 GMT-0400 (Eastern Daylight Time),364007.30000019073,1200,I,None,1516,6,1,3488.800000190735,360518.5,9011,NTS,A,2
9,2,prac,1,C,circle.png,1,m,Fri Apr 11 2025 09:13:20 GMT-0400 (Eastern Daylight Time),368140.9000005722,1900,I,m,1436,8,1,4122.200000762939,364018.69999980927,9011,NTS,A,3
7,3,prac,1,C,triangle.png,1,z,Fri Apr 11 2025 09:13:20 GMT-0400 (Eastern Daylight Time),370824.30000019073,1200,I,z,691,6,1,2672.5,368151.80000019073,9011,NTS,A,4
3,4,prac,1,C,triangle.png,1,z,Fri Apr 11 2025 09:13:20 GMT-0400 (Eastern Daylight Time),374390.9000005722,1500,I,z,1276,3,1,3556.2000007629395,370834.69999980927,9011,NTS,A,5
4,5,prac,1,C,circle.png,1,z,Fri Apr 11 2025 09:13:20 GMT-0400 (Eastern Daylight Time),376957.69999980927,1000,I,z,769,4,1,2556.0999994277954,374401.60000038147,9011,NTS,A,6
8,6,prac,1,C,triangle.png,1,m,Fri Apr 11 2025 09:13:20 GMT-0400 (Eastern Daylight Time),379957.4000005722,1400,I,m,811,7,1,2988.1000003814697,376969.30000019073,9011,NTS,A,7
2,6,prac,1,C,triangle.png,0,m,Fri Apr 11 2025 09:13:20 GMT-0400 (Eastern Daylight Time),383040.80000019073,1600,I,z,699,2,1,3072.0,379968.80000019073,9011,NTS,A,8
6,7,prac,1,C,circle.png,1,m,Fri Apr 11 2025 09:13:20 GMT-0400 (Eastern Daylight Time),386774.19999980927,2000,I,m,943,5,1,3722.7999992370605,383051.4000005722,9011,NTS,A,9
6,8,prac,1,C,circle.png,1,m,Fri Apr 11 2025 09:13:20 GMT-0400 (Eastern Daylight Time),390440.69999980927,2000,I,m,874,5,1,3656.5,386784.19999980927,9011,NTS,A,10
8,8,prac,1,C,triangle.png,0,m,Fri Apr 11 2025 09:13:20 GMT-0400 (Eastern Daylight Time),394140.80000019073,1400,I,None,1516,7,1,3690.0,390450.80000019073,9011,NTS,A,11
3,9,prac,1,C,triangle.png,1,z,Fri Apr 11 2025 09:13:20 GMT-0400 (Eastern Daylight Time),397440.80000019073,1500,I,z,1000,3,1,3289.300000190735,394151.5,9011,NTS,A,12
6,1,test,1,C,circle.png,1,m,Fri Apr 11 2025 09:13:20 GMT-0400 (Eastern Daylight Time),426707.30000019073,1900,I,m,713,5,1,2622.3999996185303,424084.9000005722,9011,NTS,A,1
1,2,test,1,C,circle.png,1,z,Fri Apr 11 2025 09:13:20 GMT-0400 (Eastern Daylight Time),429124.0,1000,I,z,1397,1,1,2407.0999994277954,426716.9000005722,9011,NTS,A,2
8,3,test,1,C,triangle.png,1,m,Fri Apr 11 2025 09:13:20 GMT-0400 (Eastern Daylight Time),431674.10000038147,1600,I,m,923,7,1,2539.9000005722046,429134.19999980927,9011,NTS,A,3
9,4,test,1,C,circle.png,1,m,Fri Apr 11 2025 09:13:20 GMT-0400 (Eastern Daylight Time),434124.60000038147,1500,I,m,922,8,1,2441.4000005722046,431683.19999980927,9011,NTS,A,4
8,5,test,1,C,circle.png,1,m,Fri Apr 11 2025 09:13:20 GMT-0400 (Eastern Daylight Time),436140.60000038147,1200,I,m,788,15,1,2010.3000001907349,434130.30000019073,9011,NTS,A,5
6,6,test,1,C,triangle.png,1,m,Fri Apr 11 2025 09:13:20 GMT-0400 (Eastern Daylight Time),438057.19999980927,1000,I,m,892,13,1,1906.5999994277954,436150.60000038147,9011,NTS,A,6
1,7,test,1,C,triangle.png,1,z,Fri Apr 11 2025 09:13:20 GMT-0400 (Eastern Daylight Time),440724.0,1900,I,z,747,17,1,2657.5999994277954,438066.4000005722,9011,NTS,A,7
8,8,test,1,C,triangle.png,1,m,Fri Apr 11 2025 09:13:20 GMT-0400 (Eastern Daylight Time),443024.0,1600,I,m,668,23,1,2290.8999996185303,440733.10000038147,9011,NTS,A,8
3,9,test,1,C,circle.png,1,z,Fri Apr 11 2025 09:13:20 GMT-0400 (Eastern Daylight Time),445556.60000038147,1600,I,z,913,11,1,2521.6000003814697,443035.0,9011,NTS,A,9
3,10,test,1,C,circle.png,1,z,Fri Apr 11 2025 09:13:20 GMT-0400 (Eastern Daylight Time),448040.69999980927,1600,I,z,859,19,1,2478.5,445562.19999980927,9011,NTS,A,10
2,11,test,1,C,circle.png,1,z,Fri Apr 11 2025 09:13:20 GMT-0400 (Eastern Daylight Time),450540.5,1700,I,z,771,18,1,2491.199999809265,448049.30000019073,9011,NTS,A,11
2,12,test,1,C,circle.png,1,z,Fri Apr 11 2025 09:13:20 GMT-0400 (Eastern Daylight Time),452890.69999980927,1700,I,z,623,10,1,2339.5999994277954,450551.10000038147,9011,NTS,A,12
6,13,test,1,C,circle.png,1,m,Fri Apr 11 2025 09:13:20 GMT-0400 (Eastern Daylight Time),455524.0,1900,I,m,713,21,1,2624.199999809265,452899.80000019073,9011,NTS,A,13
7,14,test,1,C,triangle.png,1,z,Fri Apr 11 2025 09:13:20 GMT-0400 (Eastern Daylight Time),458140.60000038147,1700,I,z,888,6,1,2607.5,455533.10000038147,9011,NTS,A,14
9,15,test,1,C,triangle.png,1,z,Fri Apr 11 2025 09:13:20 GMT-0400 (Eastern Daylight Time),460257.4000005722,1400,I,z,683,16,1,2107.2000007629395,458150.19999980927,9011,NTS,A,15
4,16,test,1,C,triangle.png,1,m,Fri Apr 11 2025 09:13:20 GMT-0400 (Eastern Daylight Time),462707.0,1500,I,m,931,12,1,2441.3999996185303,460265.60000038147,9011,NTS,A,16
7,17,test,1,C,triangle.png,1,z,Fri Apr 11 2025 09:13:20 GMT-0400 (Eastern Daylight Time),465174.0,1700,I,z,745,22,1,2458.199999809265,462715.80000019073,9011,NTS,A,17
7,18,test,1,C,circle.png,1,m,Fri Apr 11 2025 09:13:20 GMT-0400 (Eastern Daylight Time),467940.60000038147,2000,I,m,745,14,1,2758.199999809265,465182.4000005722,9011,NTS,A,18
4,19,test,1,C,triangle.png,1,m,Fri Apr 11 2025 09:13:20 GMT-0400 (Eastern Daylight Time),470674.5,1500,I,m,1199,20,1,2709.800000190735,467964.69999980927,9011,NTS,A,19
9,20,test,1,C,circle.png,1,m,Fri Apr 11 2025 09:13:20 GMT-0400 (Eastern Daylight Time),473040.60000038147,1500,I,m,816,24,1,2351.5,470689.10000038147,9011,NTS,A,20
3,21,test,1,C,triangle.png,1,z,Fri Apr 11 2025 09:13:20 GMT-0400 (Eastern Daylight Time),475040.80000019073,1200,I,z,767,3,1,1991.3000001907349,473049.5,9011,NTS,A,21
4,21,test,1,C,circle.png,0,z,Fri Apr 11 2025 09:13:20 GMT-0400 (Eastern Daylight Time),477373.5,1400,I,m,902,4,1,2323.199999809265,475050.30000019073,9011,NTS,A,22
1,22,test,1,C,triangle.png,1,z,Fri Apr 11 2025 09:13:20 GMT-0400 (Eastern Daylight Time),480457.30000019073,1900,I,z,1158,9,1,3077.199999809265,477380.10000038147,9011,NTS,A,23
2,23,test,1,C,triangle.png,1,m,Fri Apr 11 2025 09:13:20 GMT-0400 (Eastern Daylight Time),483707.19999980927,2000,I,m,1223,2,1,3241.0999994277954,480466.10000038147,9011,NTS,A,24
3,1,test,2,C,circle.png,1,z,Fri Apr 11 2025 09:13:20 GMT-0400 (Eastern Daylight Time),496223.9000005722,1600,I,z,1418,11,1,3042.300000190735,493181.60000038147,9011,NTS,A,1
6,2,test,2,C,triangle.png,1,m,Fri Apr 11 2025 09:13:20 GMT-0400 (Eastern Daylight Time),498223.9000005722,1000,I,m,967,13,1,1989.7000007629395,496234.19999980927,9011,NTS,A,2
6,3,test,2,C,circle.png,1,m,Fri Apr 11 2025 09:13:20 GMT-0400 (Eastern Daylight Time),500940.60000038147,1900,I,m,788,5,1,2708.300000190735,498232.30000019073,9011,NTS,A,3
1,4,test,2,C,triangle.png,1,z,Fri Apr 11 2025 09:13:20 GMT-0400 (Eastern Daylight Time),503590.30000019073,1900,I,z,727,17,1,2640.800000190735,500949.5,9011,NTS,A,4
4,5,test,2,C,triangle.png,1,m,Fri Apr 11 2025 09:13:20 GMT-0400 (Eastern Daylight Time),505823.80000019073,1500,I,m,701,20,1,2224.5,503599.30000019073,9011,NTS,A,5
8,6,test,2,C,circle.png,1,m,Fri Apr 11 2025 09:13:20 GMT-0400 (Eastern Daylight Time),507673.80000019073,1200,I,m,625,23,1,1841.5,505832.30000019073,9011,NTS,A,6
8,7,test,2,C,triangle.png,1,m,Fri Apr 11 2025 09:13:20 GMT-0400 (Eastern Daylight Time),510473.80000019073,1600,I,m,1173,7,1,2790.800000190735,507683.0,9011,NTS,A,7
9,8,test,2,C,triangle.png,1,z,Fri Apr 11 2025 09:13:20 GMT-0400 (Eastern Daylight Time),512657.19999980927,1400,I,z,749,16,1,2174.0,510483.19999980927,9011,NTS,A,8
3,9,test,2,C,circle.png,1,z,Fri Apr 11 2025 09:13:20 GMT-0400 (Eastern Daylight Time),515173.9000005722,1600,I,z,895,19,1,2507.800000190735,512666.10000038147,9011,NTS,A,9
2,10,test,2,C,circle.png,1,z,Fri Apr 11 2025 09:13:20 GMT-0400 (Eastern Daylight Time),517506.80000019073,1700,I,z,613,18,1,2323.800000190735,515183.0,9011,NTS,A,10
9,11,test,2,C,circle.png,1,m,Fri Apr 11 2025 09:13:20 GMT-0400 (Eastern Daylight Time),519707.19999980927,1500,I,m,673,8,1,2194.699999809265,517512.5,9011,NTS,A,11
7,12,test,2,C,circle.png,1,m,Fri Apr 11 2025 09:13:20 GMT-0400 (Eastern Daylight Time),522907.30000019073,2000,I,m,1174,22,1,3188.199999809265,519719.10000038147,9011,NTS,A,12
3,13,test,2,C,triangle.png,1,z,Fri Apr 11 2025 09:13:20 GMT-0400 (Eastern Daylight Time),525123.8000001907,1200,I,z,996,3,1,2206.300000190735,522917.5,9011,NTS,A,13
7,14,test,2,C,circle.png,1,m,Fri Apr 11 2025 09:13:20 GMT-0400 (Eastern Daylight Time),527990.4000005722,2000,I,m,843,14,1,2856.0,525134.4000005722,9011,NTS,A,14
4,15,test,2,C,triangle.png,1,m,Fri Apr 11 2025 09:13:20 GMT-0400 (Eastern Daylight Time),530507.4000005722,1500,I,m,991,12,1,2505.6000003814697,528001.8000001907,9011,NTS,A,15
1,16,test,2,C,triangle.png,1,z,Fri Apr 11 2025 09:13:20 GMT-0400 (Eastern Daylight Time),533090.4000005722,1900,I,z,664,9,1,2574.300000190735,530516.1000003815,9011,NTS,A,16
4,16,test,2,C,circle.png,0,z,Fri Apr 11 2025 09:13:20 GMT-0400 (Eastern Daylight Time),535090.1999998093,1400,I,m,581,4,1,1992.6999998092651,533097.5,9011,NTS,A,17
8,17,test,2,C,circle.png,1,m,Fri Apr 11 2025 09:13:20 GMT-0400 (Eastern Daylight Time),536873.8000001907,1200,I,m,558,15,1,1774.5,535099.3000001907,9011,NTS,A,18
7,18,test,2,C,triangle.png,1,z,Fri Apr 11 2025 09:13:20 GMT-0400 (Eastern Daylight Time),540040.5,1700,I,z,1442,6,1,3157.0,536883.5,9011,NTS,A,19
2,19,test,2,C,circle.png,1,z,Fri Apr 11 2025 09:13:20 GMT-0400 (Eastern Daylight Time),542690.5,1700,I,z,932,10,1,2641.0,540049.5,9011,NTS,A,20
6,19,test,2,C,triangle.png,0,m,Fri Apr 11 2025 09:13:20 GMT-0400 (Eastern Daylight Time),545224.0,1000,I,None,1516,21,1,2525.300000190735,542698.6999998093,9011,NTS,A,21
2,20,test,2,C,triangle.png,1,m,Fri Apr 11 2025 09:13:20 GMT-0400 (Eastern Daylight Time),548207.1999998093,2000,I,m,953,2,1,2974.699999809265,545232.5,9011,NTS,A,22
9,21,test,2,C,triangle.png,1,z,Fri Apr 11 2025 09:13:20 GMT-0400 (Eastern Daylight Time),550573.8000001907,1400,I,z,936,24,1,2356.800000190735,548217.0,9011,NTS,A,23
1,22,test,2,C,circle.png,1,z,Fri Apr 11 2025 09:13:20 GMT-0400 (Eastern Daylight Time),552507.1999998093,1000,I,z,906,1,1,1924.0999994277954,550583.1000003815,9011,NTS,A,24
4,1,test,3,C,circle.png,1,z,Fri Apr 11 2025 09:13:20 GMT-0400 (Eastern Daylight Time),556274.3000001907,1400,I,z,866,20,1,2276.0,553998.3000001907,9011,NTS,A,1
3,2,test,3,C,triangle.png,1,z,Fri Apr 11 2025 09:13:20 GMT-0400 (Eastern Daylight Time),558524.0,1200,I,z,1021,3,1,2241.199999809265,556282.8000001907,9011,NTS,A,2
2,3,test,3,C,circle.png,1,z,Fri Apr 11 2025 09:13:20 GMT-0400 (Eastern Daylight Time),561240.4000005722,1700,I,z,991,10,1,2706.9000005722046,558533.5,9011,NTS,A,3
9,4,test,3,C,circle.png,1,m,Fri Apr 11 2025 09:13:20 GMT-0400 (Eastern Daylight Time),563490.1000003815,1500,I,m,732,24,1,2240.4000005722046,561249.6999998093,9011,NTS,A,4
7,5,test,3,C,circle.png,1,m,Fri Apr 11 2025 09:13:20 GMT-0400 (Eastern Daylight Time),566540.5,2000,I,m,1021,14,1,3043.0,563497.5,9011,NTS,A,5
8,6,test,3,C,triangle.png,1,m,Fri Apr 11 2025 09:13:20 GMT-0400 (Eastern Daylight Time),569223.9000005722,1600,I,m,1059,23,1,2674.0,566549.9000005722,9011,NTS,A,6
2,7,test,3,C,triangle.png,1,m,Fri Apr 11 2025 09:13:20 GMT-0400 (Eastern Daylight Time),572156.8000001907,2000,I,m,903,2,1,2924.1000003814697,569232.6999998093,9011,NTS,A,7
1,8,test,3,C,circle.png,1,z,Fri Apr 11 2025 09:13:20 GMT-0400 (Eastern Daylight Time),574357.3000001907,1000,I,z,1178,1,1,2195.300000190735,572162.0,9011,NTS,A,8
4,9,test,3,C,triangle.png,1,m,Fri Apr 11 2025 09:13:20 GMT-0400 (Eastern Daylight Time),577340.5,1500,I,m,1455,12,1,2974.0999994277954,574366.4000005722,9011,NTS,A,9
6,10,test,3,C,circle.png,1,m,Fri Apr 11 2025 09:13:20 GMT-0400 (Eastern Daylight Time),580273.9000005722,1900,I,m,1015,5,1,2924.0,577349.9000005722,9011,NTS,A,10
2,11,test,3,C,triangle.png,1,m,Fri Apr 11 2025 09:13:20 GMT-0400 (Eastern Daylight Time),583157.0,2000,I,m,862,18,1,2874.3999996185303,580282.6000003815,9011,NTS,A,11
9,12,test,3,C,triangle.png,1,z,Fri Apr 11 2025 09:13:20 GMT-0400 (Eastern Daylight Time),585190.6000003815,1400,I,z,610,16,1,2023.9000005722046,583166.6999998093,9011,NTS,A,12
6,13,test,3,C,triangle.png,1,m,Fri Apr 11 2025 09:13:20 GMT-0400 (Eastern Daylight Time),586990.4000005722,1000,I,m,769,13,1,1790.0,585200.4000005722,9011,NTS,A,13
1,14,test,3,C,circle.png,1,z,Fri Apr 11 2025 09:13:20 GMT-0400 (Eastern Daylight Time),588990.1000003815,1000,I,z,970,17,1,1990.0,587000.1000003815,9011,NTS,A,14
7,15,test,3,C,triangle.png,1,z,Fri Apr 11 2025 09:13:20 GMT-0400 (Eastern Daylight Time),591557.0,1700,I,z,845,6,1,2558.800000190735,588998.1999998093,9011,NTS,A,15
3,16,test,3,C,triangle.png,1,z,Fri Apr 11 2025 09:13:20 GMT-0400 (Eastern Daylight Time),593440.4000005722,1200,I,z,650,19,1,1874.5,591565.9000005722,9011,NTS,A,16
4,17,test,3,C,circle.png,1,z,Fri Apr 11 2025 09:13:20 GMT-0400 (Eastern Daylight Time),595673.9000005722,1400,I,z,807,4,1,2224.7000007629395,593449.1999998093,9011,NTS,A,17
1,18,test,3,C,triangle.png,1,z,Fri Apr 11 2025 09:13:20 GMT-0400 (Eastern Daylight Time),598257.1999998093,1900,I,z,649,9,1,2574.699999809265,595682.5,9011,NTS,A,18
9,19,test,3,C,circle.png,1,m,Fri Apr 11 2025 09:13:20 GMT-0400 (Eastern Daylight Time),600457.3000001907,1500,I,m,675,8,1,2191.1000003814697,598266.1999998093,9011,NTS,A,19
3,20,test,3,C,circle.png,1,z,Fri Apr 11 2025 09:13:20 GMT-0400 (Eastern Daylight Time),602907.0,1600,I,z,822,11,1,2441.199999809265,600465.8000001907,9011,NTS,A,20
8,21,test,3,C,triangle.png,1,m,Fri Apr 11 2025 09:13:20 GMT-0400 (Eastern Daylight Time),605390.4000005722,1600,I,m,852,7,1,2472.5,602917.9000005722,9011,NTS,A,21
7,22,test,3,C,triangle.png,1,z,Fri Apr 11 2025 09:13:20 GMT-0400 (Eastern Daylight Time),607873.6999998093,1700,I,z,749,22,1,2473.8999996185303,605399.8000001907,9011,NTS,A,22
8,23,test,3,C,circle.png,1,m,Fri Apr 11 2025 09:13:20 GMT-0400 (Eastern Daylight Time),609773.6999998093,1200,I,m,669,15,1,1890.6999998092651,607883.0,9011,NTS,A,23
6,24,test,3,C,circle.png,1,m,Fri Apr 11 2025 09:13:20 GMT-0400 (Eastern Daylight Time),612674.1999998093,1900,I,m,983,21,1,2890.0999994277954,609784.1000003815,9011,NTS,A,24
3,1,test,4,C,circle.png,1,z,Fri Apr 11 2025 09:13:20 GMT-0400 (Eastern Daylight Time),616540.6000003815,1600,I,z,671,11,1,2289.9000005722046,614250.6999998093,9011,NTS,A,1
8,2,test,4,C,circle.png,1,m,Fri Apr 11 2025 09:13:20 GMT-0400 (Eastern Daylight Time),619223.8000001907,1200,I,m,1459,15,1,2674.199999809265,616549.6000003815,9011,NTS,A,2
9,3,test,4,C,circle.png,1,m,Fri Apr 11 2025 09:13:20 GMT-0400 (Eastern Daylight Time),621240.3000001907,1500,I,m,491,24,1,2009.1999998092651,619231.1000003815,9011,NTS,A,3
2,3,test,4,C,triangle.png,0,m,Fri Apr 11 2025 09:13:20 GMT-0400 (Eastern Daylight Time),624057.0,2000,I,z,792,18,1,2807.8999996185303,621249.1000003815,9011,NTS,A,4
9,4,test,4,C,circle.png,1,m,Fri Apr 11 2025 09:13:20 GMT-0400 (Eastern Daylight Time),626456.9000005722,1500,I,m,874,8,1,2391.5,624065.4000005722,9011,NTS,A,5
8,5,test,4,C,triangle.png,1,m,Fri Apr 11 2025 09:13:20 GMT-0400 (Eastern Daylight Time),629090.1999998093,1600,I,m,1014,23,1,2624.5,626465.6999998093,9011,NTS,A,6
1,5,test,4,C,circle.png,0,z,Fri Apr 11 2025 09:13:20 GMT-0400 (Eastern Daylight Time),631623.6999998093,1000,I,None,1516,1,1,2524.2999992370605,629099.4000005722,9011,NTS,A,7
7,6,test,4,C,circle.png,1,m,Fri Apr 11 2025 09:13:20 GMT-0400 (Eastern Daylight Time),634890.4000005722,2000,I,m,1241,14,1,3259.1000003814697,631631.3000001907,9011,NTS,A,8
4,7,test,4,C,circle.png,1,z,Fri Apr 11 2025 09:13:20 GMT-0400 (Eastern Daylight Time),637106.6999998093,1400,I,z,797,4,1,2207.5999994277954,634899.1000003815,9011,NTS,A,9
3,8,test,4,C,triangle.png,1,z,Fri Apr 11 2025 09:13:20 GMT-0400 (Eastern Daylight Time),638957.0,1200,I,z,620,19,1,1841.3999996185303,637115.6000003815,9011,NTS,A,10
9,9,test,4,C,triangle.png,1,z,Fri Apr 11 2025 09:13:20 GMT-0400 (Eastern Daylight Time),641173.6000003815,1400,I,z,794,16,1,2205.9000005722046,638967.6999998093,9011,NTS,A,11
2,10,test,4,C,circle.png,1,z,Fri Apr 11 2025 09:13:20 GMT-0400 (Eastern Daylight Time),643707.0,1700,I,z,806,10,1,2523.199999809265,641183.8000001907,9011,NTS,A,12
1,11,test,4,C,triangle.png,1,z,Fri Apr 11 2025 09:13:20 GMT-0400 (Eastern Daylight Time),646540.3000001907,1900,I,z,905,9,1,2820.300000190735,643720.0,9011,NTS,A,13
6,12,test,4,C,circle.png,1,m,Fri Apr 11 2025 09:13:20 GMT-0400 (Eastern Daylight Time),649140.0,1900,I,m,678,21,1,2591.0999994277954,646548.9000005722,9011,NTS,A,14
7,13,test,4,C,triangle.png,1,z,Fri Apr 11 2025 09:13:20 GMT-0400 (Eastern Daylight Time),651490.1000003815,1700,I,z,631,6,1,2343.300000190735,649146.8000001907,9011,NTS,A,15
4,14,test,4,C,triangle.png,1,m,Fri Apr 11 2025 09:13:20 GMT-0400 (Eastern Daylight Time),653807.0,1500,I,m,785,12,1,2306.699999809265,651500.3000001907,9011,NTS,A,16
7,15,test,4,C,triangle.png,1,z,Fri Apr 11 2025 09:13:20 GMT-0400 (Eastern Daylight Time),656173.6000003815,1700,I,z,636,22,1,2357.199999809265,653816.4000005722,9011,NTS,A,17
2,15,test,4,C,triangle.png,0,m,Fri Apr 11 2025 09:13:20 GMT-0400 (Eastern Daylight Time),659707.1000003815,2000,I,None,1515,2,1,3522.4000005722046,656184.6999998093,9011,NTS,A,18
4,16,test,4,C,circle.png,1,z,Fri Apr 11 2025 09:13:20 GMT-0400 (Eastern Daylight Time),662007.1000003815,1400,I,z,876,20,1,2291.300000190735,659715.8000001907,9011,NTS,A,19
3,17,test,4,C,triangle.png,1,z,Fri Apr 11 2025 09:13:20 GMT-0400 (Eastern Daylight Time),664440.3000001907,1200,I,z,1208,3,1,2424.6000003814697,662015.6999998093,9011,NTS,A,20
8,18,test,4,C,triangle.png,1,m,Fri Apr 11 2025 09:13:20 GMT-0400 (Eastern Daylight Time),666740.1000003815,1600,I,m,680,7,1,2291.199999809265,664448.9000005722,9011,NTS,A,21
6,19,test,4,C,triangle.png,1,m,Fri Apr 11 2025 09:13:20 GMT-0400 (Eastern Daylight Time),668490.3000001907,1000,I,m,723,13,1,1741.5,666748.8000001907,9011,NTS,A,22
6,20,test,4,C,circle.png,1,m,Fri Apr 11 2025 09:13:20 GMT-0400 (Eastern Daylight Time),671106.5,1900,I,m,698,5,1,2607.800000190735,668498.6999998093,9011,NTS,A,23
1,21,test,4,C,circle.png,1,z,Fri Apr 11 2025 09:13:20 GMT-0400 (Eastern Daylight Time),672923.8000001907,1000,I,z,788,17,1,1808.6000003814697,671115.1999998093,9011,NTS,A,24
