acc_sum,block,block_c,change,condition,correct,correct_response,datetime,endtime,face,project,response,response_time,row_sel,session_number,start_end,starttime,subject_id,task,task_vers,trial
0,prac,1,,1-Back,,,Wed Apr 09 2025 12:10:12 GMT-0500 (Central Daylight Time),,005_o_f_d_a.png,I,space,7574,1,1,,,8023,VNB,B,0
0,prac,1,0.0,1-Back,0,m,Wed Apr 09 2025 12:10:12 GMT-0500 (Central Daylight Time),166211.40000000037,020_y_f_n_a.png,I,None,2014,2,1,2874.699999999255,163336.70000000112,8023,VNB,B,1
0,prac,1,0.0,1-Back,0,m,Wed Apr 09 2025 12:10:12 GMT-0500 (Central Daylight Time),169110.20000000112,007_m_m_h_a.png,I,None,2011,3,1,2893.300000000745,166216.90000000037,8023,VNB,B,2
0,prac,1,0.0,1-Back,0,m,Wed Apr 09 2025 12:10:12 GMT-0500 (Central Daylight Time),172009.40000000037,016_y_m_d_a.png,I,None,2009,4,1,2892.5999999996275,169116.80000000075,8023,VNB,B,3
0,prac,1,0.0,1-Back,0,m,Wed Apr 09 2025 12:10:12 GMT-0500 (Central Daylight Time),174892.09999999963,005_o_f_n_a.png,I,None,2002,5,1,2876.5999999996275,172015.5,8023,VNB,B,4
1,prac,1,1.0,1-Back,1,z,Wed Apr 09 2025 12:10:12 GMT-0500 (Central Daylight Time),177008.09999999963,016_y_m_n_a.png,I,z,1209,6,1,2109.39999999851,174898.70000000112,8023,VNB,B,5
2,prac,1,0.0,1-Back,1,m,Wed Apr 09 2025 12:10:12 GMT-0500 (Central Daylight Time),179707.20000000112,004_o_m_h_a.png,I,m,1826,7,1,2693.300000000745,177013.90000000037,8023,VNB,B,6
3,prac,1,0.0,1-Back,1,m,Wed Apr 09 2025 12:10:12 GMT-0500 (Central Daylight Time),181789.90000000037,011_m_f_d_a.png,I,m,1184,8,1,2075.300000000745,179714.59999999963,8023,VNB,B,7
4,prac,1,1.0,1-Back,1,z,Wed Apr 09 2025 12:10:12 GMT-0500 (Central Daylight Time),183972.59999999963,020_y_f_d_a.png,I,z,1310,9,1,2176.0,181796.59999999963,8023,VNB,B,8
5,prac,1,0.0,1-Back,1,m,Wed Apr 09 2025 12:10:12 GMT-0500 (Central Daylight Time),186488.30000000075,007_m_m_n_a.png,I,m,1622,10,1,2510.2000000011176,183978.09999999963,8023,VNB,B,9
6,prac,1,0.0,1-Back,1,m,Wed Apr 09 2025 12:10:12 GMT-0500 (Central Daylight Time),188787.90000000037,005_o_f_h_a.png,I,m,1416,11,1,2293.5999999996275,186494.30000000075,8023,VNB,B,10
7,prac,1,0.0,1-Back,1,m,Wed Apr 09 2025 12:10:12 GMT-0500 (Central Daylight Time),190487.09999999963,016_y_m_d_a.png,I,m,804,12,1,1693.699999999255,188793.40000000037,8023,VNB,B,11
0,test,1,0.0,1-Back,,,Wed Apr 09 2025 12:10:12 GMT-0500 (Central Daylight Time),190487.09999999963,020_y_f_d_a.png,I,space,6925,1,1,1693.699999999255,188793.40000000037,8023,VNB,B,0
1,test,1,0.0,1-Back,1,m,Wed Apr 09 2025 12:10:12 GMT-0500 (Central Daylight Time),209747.40000000037,011_m_f_n_a.png,I,m,898,2,1,1911.699999999255,207835.70000000112,8023,VNB,B,1
2,test,1,0.0,1-Back,1,m,Wed Apr 09 2025 12:10:12 GMT-0500 (Central Daylight Time),211730.70000000112,004_o_m_h_a.png,I,m,957,3,1,1979.5,209751.20000000112,8023,VNB,B,2
3,test,1,1.0,1-Back,1,z,Wed Apr 09 2025 12:10:12 GMT-0500 (Central Daylight Time),213446.59999999963,007_m_m_h_a.png,I,z,686,4,1,1711.7999999988824,211734.80000000075,8023,VNB,B,3
4,test,1,0.0,1-Back,1,m,Wed Apr 09 2025 12:10:12 GMT-0500 (Central Daylight Time),215346.0,005_o_f_n_a.png,I,m,866,5,1,1895.5,213450.5,8023,VNB,B,4
4,test,1,0.0,1-Back,0,m,Wed Apr 09 2025 12:10:12 GMT-0500 (Central Daylight Time),217855.90000000037,016_y_m_d_a.png,I,z,1475,6,1,2506.5,215349.40000000037,8023,VNB,B,5
4,test,1,1.0,1-Back,0,z,Wed Apr 09 2025 12:10:12 GMT-0500 (Central Daylight Time),220894.30000000075,011_m_f_d_a.png,I,None,2015,7,1,3034.0,217860.30000000075,8023,VNB,B,6
5,test,1,0.0,1-Back,1,m,Wed Apr 09 2025 12:10:12 GMT-0500 (Central Daylight Time),222827.20000000112,020_y_f_h_a.png,I,m,907,8,1,1929.5,220897.70000000112,8023,VNB,B,7
6,test,1,0.0,1-Back,1,m,Wed Apr 09 2025 12:10:12 GMT-0500 (Central Daylight Time),224743.0,004_o_m_n_a.png,I,m,894,9,1,1911.5,222831.5,8023,VNB,B,8
7,test,1,0.0,1-Back,1,m,Wed Apr 09 2025 12:10:12 GMT-0500 (Central Daylight Time),226675.70000000112,016_y_m_h_a.png,I,m,906,10,1,1928.5,224747.20000000112,8023,VNB,B,9
8,test,1,0.0,1-Back,1,m,Wed Apr 09 2025 12:10:12 GMT-0500 (Central Daylight Time),228675.20000000112,004_o_m_d_a.png,I,m,973,11,1,1996.0,226679.20000000112,8023,VNB,B,10
9,test,1,1.0,1-Back,1,z,Wed Apr 09 2025 12:10:12 GMT-0500 (Central Daylight Time),230641.09999999963,005_o_f_d_a.png,I,z,942,12,1,1961.8999999985099,228679.20000000112,8023,VNB,B,11
10,test,1,0.0,1-Back,1,m,Wed Apr 09 2025 12:10:12 GMT-0500 (Central Daylight Time),232607.40000000037,007_m_m_n_a.png,I,m,936,13,1,1962.199999999255,230645.20000000112,8023,VNB,B,12
11,test,1,1.0,1-Back,1,z,Wed Apr 09 2025 12:10:12 GMT-0500 (Central Daylight Time),234456.70000000112,020_y_f_n_a.png,I,z,818,14,1,1845.0,232611.70000000112,8023,VNB,B,13
12,test,1,0.0,1-Back,1,m,Wed Apr 09 2025 12:10:12 GMT-0500 (Central Daylight Time),236572.70000000112,011_m_f_h_a.png,I,m,1096,15,1,2111.9000000003725,234460.80000000075,8023,VNB,B,14
13,test,1,0.0,1-Back,1,m,Wed Apr 09 2025 12:10:12 GMT-0500 (Central Daylight Time),238488.59999999963,007_m_m_d_a.png,I,m,892,16,1,1911.699999999255,236576.90000000037,8023,VNB,B,15
13,test,1,0.0,1-Back,0,m,Wed Apr 09 2025 12:10:12 GMT-0500 (Central Daylight Time),241252.40000000037,016_y_m_n_a.png,I,z,1746,17,1,2760.300000000745,238492.09999999963,8023,VNB,B,16
13,test,1,0.0,1-Back,0,m,Wed Apr 09 2025 12:10:12 GMT-0500 (Central Daylight Time),244287.09999999963,005_o_f_h_a.png,I,None,2016,18,1,3030.699999999255,241256.40000000037,8023,VNB,B,17
0,test,2,0.0,1-Back,,,Wed Apr 09 2025 12:10:12 GMT-0500 (Central Daylight Time),244287.09999999963,016_y_m_n_a.png,I,space,3194,1,1,3030.699999999255,241256.40000000037,8023,VNB,B,0
1,test,2,0.0,1-Back,1,m,Wed Apr 09 2025 12:10:12 GMT-0500 (Central Daylight Time),251418.09999999963,020_y_f_h_a.png,I,m,891,2,1,1911.8999999985099,249506.20000000112,8023,VNB,B,1
2,test,2,1.0,1-Back,1,m,Wed Apr 09 2025 12:10:12 GMT-0500 (Central Daylight Time),253983.90000000037,004_o_m_n_a.png,I,m,1543,3,1,2561.4000000003725,251422.5,8023,VNB,B,2
3,test,2,0.0,1-Back,1,m,Wed Apr 09 2025 12:10:12 GMT-0500 (Central Daylight Time),256183.20000000112,011_m_f_d_a.png,I,m,1169,4,1,2195.2000000011176,253988.0,8023,VNB,B,3
4,test,2,0.0,1-Back,1,z,Wed Apr 09 2025 12:10:12 GMT-0500 (Central Daylight Time),258282.5,007_m_m_d_a.png,I,z,1073,5,1,2096.0,256186.5,8023,VNB,B,4
4,test,2,0.0,1-Back,0,m,Wed Apr 09 2025 12:10:12 GMT-0500 (Central Daylight Time),261315.0,016_y_m_h_a.png,I,None,2015,6,1,3029.4000000003725,258285.59999999963,8023,VNB,B,5
5,test,2,1.0,1-Back,1,z,Wed Apr 09 2025 12:10:12 GMT-0500 (Central Daylight Time),263064.4000000004,005_o_f_h_a.png,I,z,719,7,1,1745.0999999996275,261319.30000000075,8023,VNB,B,6
6,test,2,0.0,1-Back,1,m,Wed Apr 09 2025 12:10:12 GMT-0500 (Central Daylight Time),264922.0,011_m_f_n_a.png,I,m,841,8,1,1853.5,263068.5,8023,VNB,B,7
6,test,2,0.0,1-Back,0,m,Wed Apr 09 2025 12:10:12 GMT-0500 (Central Daylight Time),267196.30000000075,020_y_f_d_a.png,I,z,1263,9,1,2270.2000000011176,264926.0999999996,8023,VNB,B,8
6,test,2,0.0,1-Back,0,m,Wed Apr 09 2025 12:10:12 GMT-0500 (Central Daylight Time),270228.9000000004,007_m_m_n_a.png,I,None,2014,10,1,3028.199999999255,267200.7000000011,8023,VNB,B,9
7,test,2,1.0,1-Back,1,m,Wed Apr 09 2025 12:10:12 GMT-0500 (Central Daylight Time),272178.2000000011,011_m_f_h_a.png,I,m,916,11,1,1945.2000000011176,270233.0,8023,VNB,B,10
8,test,2,0.0,1-Back,1,z,Wed Apr 09 2025 12:10:12 GMT-0500 (Central Daylight Time),274111.0,004_o_m_h_a.png,I,z,903,12,1,1929.2999999988824,272181.7000000011,8023,VNB,B,11
9,test,2,0.0,1-Back,1,m,Wed Apr 09 2025 12:10:12 GMT-0500 (Central Daylight Time),276026.80000000075,016_y_m_d_a.png,I,m,898,13,1,1911.2000000011176,274115.5999999996,8023,VNB,B,12
10,test,2,0.0,1-Back,1,m,Wed Apr 09 2025 12:10:12 GMT-0500 (Central Daylight Time),278326.4000000004,005_o_f_n_a.png,I,m,1270,14,1,2296.300000000745,276030.0999999996,8023,VNB,B,13
11,test,2,0.0,1-Back,1,z,Wed Apr 09 2025 12:10:12 GMT-0500 (Central Daylight Time),280375.5999999996,020_y_f_n_a.png,I,z,1027,15,1,2044.8999999985099,278330.7000000011,8023,VNB,B,14
11,test,2,1.0,1-Back,0,m,Wed Apr 09 2025 12:10:12 GMT-0500 (Central Daylight Time),283408.0999999996,007_m_m_h_a.png,I,None,2014,16,1,3028.39999999851,280379.7000000011,8023,VNB,B,15
12,test,2,0.0,1-Back,1,m,Wed Apr 09 2025 12:10:12 GMT-0500 (Central Daylight Time),285307.30000000075,005_o_f_d_a.png,I,m,882,17,1,1895.0999999996275,283412.2000000011,8023,VNB,B,16
13,test,2,1.0,1-Back,1,z,Wed Apr 09 2025 12:10:12 GMT-0500 (Central Daylight Time),287390.0999999996,004_o_m_d_a.png,I,z,1054,18,1,2079.2999999988824,285310.80000000075,8023,VNB,B,17
0,test,3,1.0,1-Back,,,Wed Apr 09 2025 12:10:12 GMT-0500 (Central Daylight Time),287390.0999999996,005_o_f_h_a.png,I,space,4267,1,1,2079.2999999988824,285310.80000000075,8023,VNB,B,0
1,test,3,0.0,1-Back,1,m,Wed Apr 09 2025 12:10:12 GMT-0500 (Central Daylight Time),296104.0,011_m_f_d_a.png,I,m,1285,2,1,2311.5999999996275,293792.4000000004,8023,VNB,B,1
2,test,3,1.0,1-Back,1,m,Wed Apr 09 2025 12:10:12 GMT-0500 (Central Daylight Time),298570.2000000011,007_m_m_n_a.png,I,m,1441,3,1,2462.2000000011176,296108.0,8023,VNB,B,2
3,test,3,0.0,1-Back,1,z,Wed Apr 09 2025 12:10:12 GMT-0500 (Central Daylight Time),300586.5,005_o_f_n_a.png,I,z,991,4,1,2012.5,298574.0,8023,VNB,B,3
4,test,3,1.0,1-Back,1,m,Wed Apr 09 2025 12:10:12 GMT-0500 (Central Daylight Time),302851.7000000011,004_o_m_d_a.png,I,m,1248,5,1,2261.2000000011176,300590.5,8023,VNB,B,4
5,test,3,0.0,1-Back,1,m,Wed Apr 09 2025 12:10:12 GMT-0500 (Central Daylight Time),304901.0999999996,020_y_f_h_a.png,I,m,1021,6,1,2045.3999999985099,302855.7000000011,8023,VNB,B,5
6,test,3,0.0,1-Back,1,z,Wed Apr 09 2025 12:10:12 GMT-0500 (Central Daylight Time),306517.5,016_y_m_h_a.png,I,z,596,7,1,1612.5999999996275,304904.9000000004,8023,VNB,B,6
7,test,3,0.0,1-Back,1,m,Wed Apr 09 2025 12:10:12 GMT-0500 (Central Daylight Time),308716.7000000011,011_m_f_n_a.png,I,m,1180,8,1,2195.0,306521.7000000011,8023,VNB,B,7
8,test,3,0.0,1-Back,1,m,Wed Apr 09 2025 12:10:12 GMT-0500 (Central Daylight Time),311016.0999999996,020_y_f_d_a.png,I,m,1276,9,1,2295.5999999996275,308720.5,8023,VNB,B,8
9,test,3,1.0,1-Back,1,m,Wed Apr 09 2025 12:10:12 GMT-0500 (Central Daylight Time),313048.7000000011,004_o_m_n_a.png,I,m,1008,10,1,2028.1000000014901,311020.5999999996,8023,VNB,B,9
10,test,3,0.0,1-Back,1,m,Wed Apr 09 2025 12:10:12 GMT-0500 (Central Daylight Time),315231.30000000075,007_m_m_h_a.png,I,m,1152,11,1,2179.300000000745,313052.0,8023,VNB,B,10
11,test,3,0.0,1-Back,1,z,Wed Apr 09 2025 12:10:12 GMT-0500 (Central Daylight Time),316864.30000000075,011_m_f_h_a.png,I,z,602,12,1,1628.800000000745,315235.5,8023,VNB,B,11
11,test,3,1.0,1-Back,0,m,Wed Apr 09 2025 12:10:12 GMT-0500 (Central Daylight Time),319896.80000000075,005_o_f_d_a.png,I,None,2015,13,1,3028.2000000011176,316868.5999999996,8023,VNB,B,12
12,test,3,0.0,1-Back,1,z,Wed Apr 09 2025 12:10:12 GMT-0500 (Central Daylight Time),321913.30000000075,007_m_m_d_a.png,I,z,992,14,1,2012.2000000011176,319901.0999999996,8023,VNB,B,13
13,test,3,0.0,1-Back,1,m,Wed Apr 09 2025 12:10:12 GMT-0500 (Central Daylight Time),324878.4000000004,016_y_m_n_a.png,I,m,1936,15,1,2961.4000000003725,321917.0,8023,VNB,B,14
14,test,3,1.0,1-Back,1,m,Wed Apr 09 2025 12:10:12 GMT-0500 (Central Daylight Time),326861.2000000011,004_o_m_h_a.png,I,m,963,16,1,1978.800000000745,324882.4000000004,8023,VNB,B,15
15,test,3,0.0,1-Back,1,m,Wed Apr 09 2025 12:10:12 GMT-0500 (Central Daylight Time),328743.80000000075,016_y_m_d_a.png,I,m,852,17,1,1879.0,326864.80000000075,8023,VNB,B,16
16,test,3,1.0,1-Back,1,m,Wed Apr 09 2025 12:10:12 GMT-0500 (Central Daylight Time),330827.0,020_y_f_n_a.png,I,m,1057,18,1,2079.0,328748.0,8023,VNB,B,17
0,test,4,1.0,1-Back,,,Wed Apr 09 2025 12:10:12 GMT-0500 (Central Daylight Time),330827.0,007_m_m_d_a.png,I,space,5350,1,1,2079.0,328748.0,8023,VNB,B,0
1,test,4,0.0,1-Back,1,z,Wed Apr 09 2025 12:10:12 GMT-0500 (Central Daylight Time),340290.5,004_o_m_d_a.png,I,z,1051,2,1,2079.0999999996275,338211.4000000004,8023,VNB,B,1
2,test,4,0.0,1-Back,1,m,Wed Apr 09 2025 12:10:12 GMT-0500 (Central Daylight Time),342039.7000000011,016_y_m_h_a.png,I,m,719,3,1,1745.5,340294.2000000011,8023,VNB,B,2
3,test,4,0.0,1-Back,1,m,Wed Apr 09 2025 12:10:12 GMT-0500 (Central Daylight Time),343989.2000000011,011_m_f_n_a.png,I,m,929,4,1,1945.5,342043.7000000011,8023,VNB,B,3
4,test,4,1.0,1-Back,1,m,Wed Apr 09 2025 12:10:12 GMT-0500 (Central Daylight Time),346071.80000000075,005_o_f_h_a.png,I,m,1052,5,1,2079.2000000011176,343992.5999999996,8023,VNB,B,4
5,test,4,0.0,1-Back,1,m,Wed Apr 09 2025 12:10:12 GMT-0500 (Central Daylight Time),348121.0999999996,007_m_m_n_a.png,I,m,1025,6,1,2046.0999999996275,346075.0,8023,VNB,B,5
6,test,4,0.0,1-Back,1,m,Wed Apr 09 2025 12:10:12 GMT-0500 (Central Daylight Time),350020.5999999996,016_y_m_d_a.png,I,m,872,7,1,1895.0,348125.5999999996,8023,VNB,B,6
6,test,4,1.0,1-Back,0,z,Wed Apr 09 2025 12:10:12 GMT-0500 (Central Daylight Time),352119.9000000004,020_y_f_d_a.png,I,m,1069,8,1,2094.800000000745,350025.0999999996,8023,VNB,B,7
6,test,4,0.0,1-Back,0,m,Wed Apr 09 2025 12:10:12 GMT-0500 (Central Daylight Time),355152.4000000004,011_m_f_h_a.png,I,None,2015,9,1,3027.300000000745,352125.0999999996,8023,VNB,B,8
7,test,4,0.0,1-Back,1,z,Wed Apr 09 2025 12:10:12 GMT-0500 (Central Daylight Time),356851.7000000011,004_o_m_h_a.png,I,z,680,10,1,1695.6000000014901,355156.0999999996,8023,VNB,B,9
8,test,4,1.0,1-Back,1,m,Wed Apr 09 2025 12:10:12 GMT-0500 (Central Daylight Time),359700.7000000011,005_o_f_n_a.png,I,m,1822,11,1,2845.60000000149,356855.0999999996,8023,VNB,B,10
8,test,4,0.0,1-Back,0,m,Wed Apr 09 2025 12:10:12 GMT-0500 (Central Daylight Time),361900.0,011_m_f_d_a.png,I,z,1181,12,1,2195.0,359705.0,8023,VNB,B,11
9,test,4,0.0,1-Back,1,m,Wed Apr 09 2025 12:10:12 GMT-0500 (Central Daylight Time),364532.5999999996,020_y_f_n_a.png,I,m,1613,13,1,2629.0,361903.5999999996,8023,VNB,B,12
10,test,4,0.0,1-Back,1,m,Wed Apr 09 2025 12:10:12 GMT-0500 (Central Daylight Time),366749.80000000075,005_o_f_d_a.png,I,m,1188,14,1,2213.800000000745,364536.0,8023,VNB,B,13
10,test,4,0.0,1-Back,0,m,Wed Apr 09 2025 12:10:12 GMT-0500 (Central Daylight Time),369781.0999999996,020_y_f_h_a.png,I,None,2015,15,1,3027.0999999996275,366754.0,8023,VNB,B,14
11,test,4,1.0,1-Back,1,z,Wed Apr 09 2025 12:10:12 GMT-0500 (Central Daylight Time),371430.7000000011,007_m_m_h_a.png,I,z,628,16,1,1645.7000000011176,369785.0,8023,VNB,B,15
11,test,4,0.0,1-Back,0,m,Wed Apr 09 2025 12:10:12 GMT-0500 (Central Daylight Time),374463.0,004_o_m_n_a.png,I,None,2016,17,1,3028.199999999255,371434.80000000075,8023,VNB,B,16
12,test,4,1.0,1-Back,1,z,Wed Apr 09 2025 12:10:12 GMT-0500 (Central Daylight Time),376745.5999999996,016_y_m_n_a.png,I,z,1250,18,1,2279.0999999996275,374466.5,8023,VNB,B,17
0,test,5,1.0,1-Back,,,Wed Apr 09 2025 12:10:12 GMT-0500 (Central Daylight Time),376745.5999999996,004_o_m_n_a.png,I,space,2576,1,1,2279.0999999996275,374466.5,8023,VNB,B,0
1,test,5,1.0,1-Back,1,m,Wed Apr 09 2025 12:10:12 GMT-0500 (Central Daylight Time),383626.5,005_o_f_h_a.png,I,m,1126,2,1,2278.2999999988824,381348.2000000011,8023,VNB,B,1
2,test,5,0.0,1-Back,1,m,Wed Apr 09 2025 12:10:12 GMT-0500 (Central Daylight Time),385676.0999999996,016_y_m_d_a.png,I,m,1022,3,1,2045.7999999988824,383630.30000000075,8023,VNB,B,2
3,test,5,0.0,1-Back,1,z,Wed Apr 09 2025 12:10:12 GMT-0500 (Central Daylight Time),387658.7000000011,004_o_m_d_a.png,I,z,957,4,1,1979.1000000014901,385679.5999999996,8023,VNB,B,3
4,test,5,0.0,1-Back,1,m,Wed Apr 09 2025 12:10:12 GMT-0500 (Central Daylight Time),389891.2000000011,011_m_f_h_a.png,I,m,1206,5,1,2228.300000000745,387662.9000000004,8023,VNB,B,4
5,test,5,0.0,1-Back,1,m,Wed Apr 09 2025 12:10:12 GMT-0500 (Central Daylight Time),391857.4000000004,020_y_f_n_a.png,I,m,942,6,1,1962.699999999255,389894.7000000011,8023,VNB,B,5
6,test,5,1.0,1-Back,1,z,Wed Apr 09 2025 12:10:12 GMT-0500 (Central Daylight Time),393690.2000000011,005_o_f_n_a.png,I,z,800,7,1,1828.6000000014901,391861.5999999996,8023,VNB,B,6
6,test,5,0.0,1-Back,0,m,Wed Apr 09 2025 12:10:12 GMT-0500 (Central Daylight Time),396722.80000000075,011_m_f_d_a.png,I,None,2016,8,1,3029.4000000003725,393693.4000000004,8023,VNB,B,7
7,test,5,0.0,1-Back,1,m,Wed Apr 09 2025 12:10:12 GMT-0500 (Central Daylight Time),399622.0,016_y_m_h_a.png,I,m,1871,9,1,2895.5,396726.5,8023,VNB,B,8
7,test,5,0.0,1-Back,0,m,Wed Apr 09 2025 12:10:12 GMT-0500 (Central Daylight Time),401854.30000000075,020_y_f_d_a.png,I,z,1204,10,1,2228.4000000003725,399625.9000000004,8023,VNB,B,9
8,test,5,0.0,1-Back,1,m,Wed Apr 09 2025 12:10:12 GMT-0500 (Central Daylight Time),404703.4000000004,007_m_m_n_a.png,I,m,1827,11,1,2845.5,401857.9000000004,8023,VNB,B,10
9,test,5,1.0,1-Back,1,z,Wed Apr 09 2025 12:10:12 GMT-0500 (Central Daylight Time),406686.0999999996,011_m_f_n_a.png,I,z,954,12,1,1979.3999999985099,404706.7000000011,8023,VNB,B,11
10,test,5,0.0,1-Back,1,m,Wed Apr 09 2025 12:10:12 GMT-0500 (Central Daylight Time),409385.5,004_o_m_h_a.png,I,m,1676,13,1,2696.199999999255,406689.30000000075,8023,VNB,B,12
11,test,5,0.0,1-Back,1,z,Wed Apr 09 2025 12:10:12 GMT-0500 (Central Daylight Time),410901.4000000004,007_m_m_h_a.png,I,z,488,14,1,1512.0,409389.4000000004,8023,VNB,B,13
11,test,5,1.0,1-Back,0,m,Wed Apr 09 2025 12:10:12 GMT-0500 (Central Daylight Time),413933.9000000004,005_o_f_d_a.png,I,None,2016,15,1,3028.9000000003725,410905.0,8023,VNB,B,14
12,test,5,0.0,1-Back,1,m,Wed Apr 09 2025 12:10:12 GMT-0500 (Central Daylight Time),416483.0,016_y_m_n_a.png,I,m,1531,16,1,2544.7999999988824,413938.2000000011,8023,VNB,B,15
13,test,5,0.0,1-Back,1,m,Wed Apr 09 2025 12:10:12 GMT-0500 (Central Daylight Time),418582.30000000075,020_y_f_h_a.png,I,m,1070,17,1,2096.5,416485.80000000075,8023,VNB,B,16
14,test,5,0.0,1-Back,1,m,Wed Apr 09 2025 12:10:12 GMT-0500 (Central Daylight Time),420748.30000000075,007_m_m_d_a.png,I,m,1147,18,1,2162.0999999996275,418586.2000000011,8023,VNB,B,17
0,prac,1,0.0,2-Back,,,Wed Apr 09 2025 12:10:12 GMT-0500 (Central Daylight Time),420748.30000000075,011_m_f_n_a.png,I,space,11111,1,1,2162.0999999996275,418586.2000000011,8023,VNB,B,0
0,prac,1,0.0,2-Back,,,Wed Apr 09 2025 12:10:12 GMT-0500 (Central Daylight Time),420748.30000000075,005_o_f_h_a.png,I,space,11111,2,1,2162.0999999996275,418586.2000000011,8023,VNB,B,0
0,prac,1,0.0,2-Back,0,m,Wed Apr 09 2025 12:10:12 GMT-0500 (Central Daylight Time),569302.0,004_o_m_d_a.png,I,None,2007,3,1,2859.5999999996275,566442.4000000004,8023,VNB,B,1
0,prac,1,1.0,2-Back,0,z,Wed Apr 09 2025 12:10:12 GMT-0500 (Central Daylight Time),572201.4000000004,007_m_m_h_a.png,I,None,2012,4,1,2894.199999999255,569307.2000000011,8023,VNB,B,2
0,prac,1,0.0,2-Back,0,m,Wed Apr 09 2025 12:10:12 GMT-0500 (Central Daylight Time),575083.8000000007,020_y_f_n_a.png,I,None,2015,5,1,2876.800000000745,572207.0,8023,VNB,B,3
0,prac,1,1.0,2-Back,0,z,Wed Apr 09 2025 12:10:12 GMT-0500 (Central Daylight Time),577949.5999999996,004_o_m_h_a.png,I,None,2005,6,1,2860.0999999996275,575089.5,8023,VNB,B,4
0,prac,1,1.0,2-Back,0,z,Wed Apr 09 2025 12:10:12 GMT-0500 (Central Daylight Time),580849.5999999996,016_y_m_n_a.png,I,None,2010,7,1,2894.39999999851,577955.2000000011,8023,VNB,B,5
0,prac,1,0.0,2-Back,0,m,Wed Apr 09 2025 12:10:12 GMT-0500 (Central Daylight Time),583747.7000000011,011_m_f_d_a.png,I,None,2017,8,1,2892.0,580855.7000000011,8023,VNB,B,6
0,prac,1,0.0,2-Back,0,m,Wed Apr 09 2025 12:10:12 GMT-0500 (Central Daylight Time),586646.7000000011,005_o_f_d_a.png,I,None,2015,9,1,2893.10000000149,583753.5999999996,8023,VNB,B,7
0,prac,1,0.0,2-Back,0,m,Wed Apr 09 2025 12:10:12 GMT-0500 (Central Daylight Time),589428.9000000004,007_m_m_h_a.png,I,None,2009,10,1,2775.800000000745,586653.0999999996,8023,VNB,B,8
0,prac,1,1.0,2-Back,0,z,Wed Apr 09 2025 12:10:12 GMT-0500 (Central Daylight Time),592311.4000000004,020_y_f_d_a.png,I,None,2015,11,1,2876.800000000745,589434.5999999996,8023,VNB,B,9
0,prac,1,0.0,2-Back,0,m,Wed Apr 09 2025 12:10:12 GMT-0500 (Central Daylight Time),595177.5,004_o_m_n_a.png,I,None,2004,12,1,2859.9000000003725,592317.5999999996,8023,VNB,B,10
0,prac,2,0.0,2-Back,,,Wed Apr 09 2025 12:10:12 GMT-0500 (Central Daylight Time),595177.5,011_m_f_n_a.png,I,a,29061,1,1,2859.9000000003725,592317.5999999996,8023,VNB,B,0
0,prac,2,0.0,2-Back,,,Wed Apr 09 2025 12:10:12 GMT-0500 (Central Daylight Time),595177.5,005_o_f_h_a.png,I,a,29061,2,1,2859.9000000003725,592317.5999999996,8023,VNB,B,0
1,prac,2,0.0,2-Back,1,m,Wed Apr 09 2025 12:10:12 GMT-0500 (Central Daylight Time),631366.0,004_o_m_d_a.png,I,m,993,3,1,1859.699999999255,629506.3000000007,8023,VNB,B,1
2,prac,2,1.0,2-Back,1,z,Wed Apr 09 2025 12:10:12 GMT-0500 (Central Daylight Time),632932.2000000011,007_m_m_h_a.png,I,z,677,4,1,1560.800000000745,631371.4000000004,8023,VNB,B,2
2,prac,2,0.0,2-Back,0,m,Wed Apr 09 2025 12:10:12 GMT-0500 (Central Daylight Time),635814.5999999996,020_y_f_n_a.png,I,None,2016,5,1,2877.39999999851,632937.2000000011,8023,VNB,B,3
3,prac,2,1.0,2-Back,1,z,Wed Apr 09 2025 12:10:12 GMT-0500 (Central Daylight Time),637947.4000000004,004_o_m_h_a.png,I,z,1271,6,1,2127.699999999255,635819.7000000011,8023,VNB,B,4
4,prac,2,1.0,2-Back,1,z,Wed Apr 09 2025 12:10:12 GMT-0500 (Central Daylight Time),639980.0999999996,016_y_m_n_a.png,I,z,1134,7,1,2027.3999999985099,637952.7000000011,8023,VNB,B,5
5,prac,2,0.0,2-Back,1,m,Wed Apr 09 2025 12:10:12 GMT-0500 (Central Daylight Time),641796.2000000011,011_m_f_d_a.png,I,m,934,8,1,1810.5,639985.7000000011,8023,VNB,B,6
5,prac,2,0.0,2-Back,0,m,Wed Apr 09 2025 12:10:12 GMT-0500 (Central Daylight Time),644678.5999999996,005_o_f_d_a.png,I,None,2002,9,1,2876.199999999255,641802.4000000004,8023,VNB,B,7
5,prac,2,0.0,2-Back,0,m,Wed Apr 09 2025 12:10:12 GMT-0500 (Central Daylight Time),647460.9000000004,007_m_m_h_a.png,I,None,2012,10,1,2777.9000000003725,644683.0,8023,VNB,B,8
6,prac,2,1.0,2-Back,1,z,Wed Apr 09 2025 12:10:12 GMT-0500 (Central Daylight Time),649677.0,020_y_f_d_a.png,I,z,1336,11,1,2211.0,647466.0,8023,VNB,B,9
6,prac,2,0.0,2-Back,0,m,Wed Apr 09 2025 12:10:12 GMT-0500 (Central Daylight Time),652542.5999999996,004_o_m_n_a.png,I,None,2005,12,1,2859.699999999255,649682.9000000004,8023,VNB,B,10
0,test,1,0.0,2-Back,,,Wed Apr 09 2025 12:10:12 GMT-0500 (Central Daylight Time),652542.5999999996,016_y_m_h_a.png,I,space,10561,1,1,2859.699999999255,649682.9000000004,8023,VNB,B,0
0,test,1,0.0,2-Back,,,Wed Apr 09 2025 12:10:12 GMT-0500 (Central Daylight Time),652542.5999999996,005_o_f_n_a.png,I,space,10561,2,1,2859.699999999255,649682.9000000004,8023,VNB,B,0
1,test,1,0.0,2-Back,1,z,Wed Apr 09 2025 12:10:12 GMT-0500 (Central Daylight Time),677584.9000000004,004_o_m_h_a.png,I,z,492,3,1,1512.4000000003725,676072.5,8023,VNB,B,1
2,test,1,0.0,2-Back,1,m,Wed Apr 09 2025 12:10:12 GMT-0500 (Central Daylight Time),679401.0,011_m_f_d_a.png,I,m,783,4,1,1812.2999999988824,677588.7000000011,8023,VNB,B,2
2,test,1,1.0,2-Back,0,m,Wed Apr 09 2025 12:10:12 GMT-0500 (Central Daylight Time),682349.9000000004,016_y_m_n_a.png,I,z,1921,5,1,2945.9000000003725,679404.0,8023,VNB,B,3
2,test,1,0.0,2-Back,0,z,Wed Apr 09 2025 12:10:12 GMT-0500 (Central Daylight Time),684965.5999999996,020_y_f_d_a.png,I,m,1596,6,1,2611.89999999851,682353.7000000011,8023,VNB,B,4
2,test,1,0.0,2-Back,0,m,Wed Apr 09 2025 12:10:12 GMT-0500 (Central Daylight Time),686815.3000000007,007_m_m_h_a.png,I,z,819,7,1,1846.300000000745,684969.0,8023,VNB,B,5
2,test,1,1.0,2-Back,0,m,Wed Apr 09 2025 12:10:12 GMT-0500 (Central Daylight Time),689131.3000000007,020_y_f_n_a.png,I,z,1283,8,1,2312.800000000745,686818.5,8023,VNB,B,6
3,test,1,0.0,2-Back,1,z,Wed Apr 09 2025 12:10:12 GMT-0500 (Central Daylight Time),691413.9000000004,005_o_f_h_a.png,I,z,1254,9,1,2278.9000000003725,689135.0,8023,VNB,B,7
3,test,1,0.0,2-Back,0,m,Wed Apr 09 2025 12:10:12 GMT-0500 (Central Daylight Time),694446.4000000004,004_o_m_d_a.png,I,None,2015,10,1,3028.5,691417.9000000004,8023,VNB,B,8
3,test,1,1.0,2-Back,0,m,Wed Apr 09 2025 12:10:12 GMT-0500 (Central Daylight Time),696462.4000000004,007_m_m_d_a.png,I,z,996,11,1,2012.4000000003725,694450.0,8023,VNB,B,9
4,test,1,0.0,2-Back,1,m,Wed Apr 09 2025 12:10:12 GMT-0500 (Central Daylight Time),699261.4000000004,011_m_f_n_a.png,I,m,1780,12,1,2795.5999999996275,696465.8000000007,8023,VNB,B,10
4,test,1,0.0,2-Back,0,m,Wed Apr 09 2025 12:10:12 GMT-0500 (Central Daylight Time),701294.3000000007,020_y_f_h_a.png,I,z,1011,13,1,2029.0,699265.3000000007,8023,VNB,B,11
4,test,1,0.0,2-Back,0,z,Wed Apr 09 2025 12:10:12 GMT-0500 (Central Daylight Time),704326.5999999996,007_m_m_n_a.png,I,None,2015,14,1,3028.699999999255,701297.9000000004,8023,VNB,B,12
5,test,1,0.0,2-Back,1,m,Wed Apr 09 2025 12:10:12 GMT-0500 (Central Daylight Time),706092.8000000007,016_y_m_d_a.png,I,m,740,15,1,1763.0999999996275,704329.7000000011,8023,VNB,B,13
5,test,1,1.0,2-Back,0,m,Wed Apr 09 2025 12:10:12 GMT-0500 (Central Daylight Time),708642.3000000007,011_m_f_h_a.png,I,z,1517,16,1,2545.800000000745,706096.5,8023,VNB,B,14
5,test,1,0.0,2-Back,0,z,Wed Apr 09 2025 12:10:12 GMT-0500 (Central Daylight Time),711608.8000000007,005_o_f_d_a.png,I,m,1943,17,1,2963.0,708645.8000000007,8023,VNB,B,15
5,test,1,0.0,2-Back,0,m,Wed Apr 09 2025 12:10:12 GMT-0500 (Central Daylight Time),714639.9000000004,004_o_m_n_a.png,I,None,2016,18,1,3027.5,711612.4000000004,8023,VNB,B,16
0,test,2,0.0,2-Back,,,Wed Apr 09 2025 12:10:12 GMT-0500 (Central Daylight Time),714639.9000000004,007_m_m_h_a.png,I,space,3410,1,1,3027.5,711612.4000000004,8023,VNB,B,0
0,test,2,0.0,2-Back,,,Wed Apr 09 2025 12:10:12 GMT-0500 (Central Daylight Time),714639.9000000004,020_y_f_n_a.png,I,space,3410,2,1,3027.5,711612.4000000004,8023,VNB,B,0
1,test,2,1.0,2-Back,1,z,Wed Apr 09 2025 12:10:12 GMT-0500 (Central Daylight Time),724920.0999999996,005_o_f_h_a.png,I,z,585,3,1,1612.2999999988824,723307.8000000007,8023,VNB,B,1
2,test,2,0.0,2-Back,1,m,Wed Apr 09 2025 12:10:12 GMT-0500 (Central Daylight Time),726869.4000000004,004_o_m_d_a.png,I,m,921,4,1,1945.0999999996275,724924.3000000007,8023,VNB,B,2
2,test,2,0.0,2-Back,0,m,Wed Apr 09 2025 12:10:12 GMT-0500 (Central Daylight Time),729618.9000000004,011_m_f_d_a.png,I,z,1733,5,1,2745.9000000003725,726873.0,8023,VNB,B,3
2,test,2,0.0,2-Back,0,m,Wed Apr 09 2025 12:10:12 GMT-0500 (Central Daylight Time),732651.0999999996,016_y_m_h_a.png,I,None,2016,6,1,3029.39999999851,729621.7000000011,8023,VNB,B,4
2,test,2,0.0,2-Back,0,m,Wed Apr 09 2025 12:10:12 GMT-0500 (Central Daylight Time),735683.0999999996,005_o_f_n_a.png,I,None,2015,7,1,3028.199999999255,732654.9000000004,8023,VNB,B,5
3,test,2,1.0,2-Back,1,z,Wed Apr 09 2025 12:10:12 GMT-0500 (Central Daylight Time),738482.8000000007,004_o_m_h_a.png,I,z,1775,8,1,2796.300000000745,735686.5,8023,VNB,B,6
4,test,2,0.0,2-Back,1,m,Wed Apr 09 2025 12:10:12 GMT-0500 (Central Daylight Time),741098.5999999996,020_y_f_d_a.png,I,m,1599,9,1,2612.0,738486.5999999996,8023,VNB,B,7
4,test,2,0.0,2-Back,0,m,Wed Apr 09 2025 12:10:12 GMT-0500 (Central Daylight Time),743397.8000000007,016_y_m_d_a.png,I,z,1271,10,1,2295.5999999996275,741102.2000000011,8023,VNB,B,8
4,test,2,0.0,2-Back,0,m,Wed Apr 09 2025 12:10:12 GMT-0500 (Central Daylight Time),746429.9000000004,007_m_m_n_a.png,I,None,2016,11,1,3028.5,743401.4000000004,8023,VNB,B,9
4,test,2,0.0,2-Back,0,m,Wed Apr 09 2025 12:10:12 GMT-0500 (Central Daylight Time),749462.3000000007,011_m_f_h_a.png,I,None,2015,12,1,3028.800000000745,746433.5,8023,VNB,B,10
4,test,2,1.0,2-Back,0,z,Wed Apr 09 2025 12:10:12 GMT-0500 (Central Daylight Time),752444.9000000004,004_o_m_n_a.png,I,m,1963,13,1,2978.5,749466.4000000004,8023,VNB,B,11
4,test,2,0.0,2-Back,0,m,Wed Apr 09 2025 12:10:12 GMT-0500 (Central Daylight Time),754577.2000000011,005_o_f_d_a.png,I,z,1100,14,1,2128.7000000011176,752448.5,8023,VNB,B,12
4,test,2,0.0,2-Back,0,m,Wed Apr 09 2025 12:10:12 GMT-0500 (Central Daylight Time),757609.8000000007,020_y_f_h_a.png,I,None,2016,15,1,3028.5,754581.3000000007,8023,VNB,B,13
4,test,2,0.0,2-Back,0,z,Wed Apr 09 2025 12:10:12 GMT-0500 (Central Daylight Time),759775.7000000011,007_m_m_d_a.png,I,m,1135,16,1,2162.60000000149,757613.0999999996,8023,VNB,B,14
4,test,2,0.0,2-Back,0,m,Wed Apr 09 2025 12:10:12 GMT-0500 (Central Daylight Time),762475.0,016_y_m_n_a.png,I,z,1682,17,1,2695.5,759779.5,8023,VNB,B,15
4,test,2,1.0,2-Back,0,m,Wed Apr 09 2025 12:10:12 GMT-0500 (Central Daylight Time),765058.7000000011,011_m_f_n_a.png,I,z,1566,18,1,2580.5,762478.2000000011,8023,VNB,B,16
0,test,3,1.0,2-Back,,,Wed Apr 09 2025 12:10:12 GMT-0500 (Central Daylight Time),765058.7000000011,004_o_m_n_a.png,I,space,6480,1,1,2580.5,762478.2000000011,8023,VNB,B,0
0,test,3,1.0,2-Back,,,Wed Apr 09 2025 12:10:12 GMT-0500 (Central Daylight Time),765058.7000000011,005_o_f_d_a.png,I,space,6480,2,1,2580.5,762478.2000000011,8023,VNB,B,0
1,test,3,0.0,2-Back,1,m,Wed Apr 09 2025 12:10:12 GMT-0500 (Central Daylight Time),778553.2000000011,020_y_f_h_a.png,I,m,943,3,1,1962.5,776590.7000000011,8023,VNB,B,1
2,test,3,0.0,2-Back,1,z,Wed Apr 09 2025 12:10:12 GMT-0500 (Central Daylight Time),780585.8000000007,011_m_f_d_a.png,I,z,1000,4,1,2028.4000000003725,778557.4000000004,8023,VNB,B,2
2,test,3,1.0,2-Back,0,m,Wed Apr 09 2025 12:10:12 GMT-0500 (Central Daylight Time),783618.5999999996,016_y_m_n_a.png,I,None,2016,5,1,3029.699999999255,780588.9000000004,8023,VNB,B,3
3,test,3,0.0,2-Back,1,m,Wed Apr 09 2025 12:10:12 GMT-0500 (Central Daylight Time),785567.8000000007,004_o_m_h_a.png,I,m,919,6,1,1946.4000000003725,783621.4000000004,8023,VNB,B,4
4,test,3,0.0,2-Back,1,z,Wed Apr 09 2025 12:10:12 GMT-0500 (Central Daylight Time),787950.5999999996,020_y_f_n_a.png,I,z,1354,7,1,2379.0999999996275,785571.5,8023,VNB,B,5
4,test,3,1.0,2-Back,0,m,Wed Apr 09 2025 12:10:12 GMT-0500 (Central Daylight Time),790983.0,007_m_m_d_a.png,I,None,2016,8,1,3028.4000000003725,787954.5999999996,8023,VNB,B,6
5,test,3,0.0,2-Back,1,m,Wed Apr 09 2025 12:10:12 GMT-0500 (Central Daylight Time),793531.9000000004,016_y_m_d_a.png,I,m,1523,9,1,2545.199999999255,790986.7000000011,8023,VNB,B,7
5,test,3,0.0,2-Back,0,m,Wed Apr 09 2025 12:10:12 GMT-0500 (Central Daylight Time),795914.4000000004,005_o_f_h_a.png,I,z,1349,10,1,2378.5,793535.9000000004,8023,VNB,B,8
5,test,3,1.0,2-Back,0,m,Wed Apr 09 2025 12:10:12 GMT-0500 (Central Daylight Time),798314.4000000004,011_m_f_n_a.png,I,z,1383,11,1,2395.9000000003725,795918.5,8023,VNB,B,9
5,test,3,1.0,2-Back,0,z,Wed Apr 09 2025 12:10:12 GMT-0500 (Central Daylight Time),801346.2000000011,007_m_m_h_a.png,I,None,2015,12,1,3028.800000000745,798317.4000000004,8023,VNB,B,10
5,test,3,0.0,2-Back,0,m,Wed Apr 09 2025 12:10:12 GMT-0500 (Central Daylight Time),804378.5999999996,020_y_f_d_a.png,I,None,2016,13,1,3029.39999999851,801349.2000000011,8023,VNB,B,11
5,test,3,0.0,2-Back,0,m,Wed Apr 09 2025 12:10:12 GMT-0500 (Central Daylight Time),806379.0,005_o_f_n_a.png,I,z,975,14,1,1996.4000000003725,804382.5999999996,8023,VNB,B,12
5,test,3,0.0,2-Back,0,z,Wed Apr 09 2025 12:10:12 GMT-0500 (Central Daylight Time),809410.4000000004,004_o_m_d_a.png,I,None,2015,15,1,3027.800000000745,806382.5999999996,8023,VNB,B,13
6,test,3,1.0,2-Back,1,m,Wed Apr 09 2025 12:10:12 GMT-0500 (Central Daylight Time),811976.3000000007,011_m_f_h_a.png,I,m,1536,16,1,2562.0,809414.3000000007,8023,VNB,B,14
6,test,3,0.0,2-Back,0,m,Wed Apr 09 2025 12:10:12 GMT-0500 (Central Daylight Time),814042.3000000007,007_m_m_n_a.png,I,z,1033,17,1,2061.800000000745,811980.5,8023,VNB,B,15
6,test,3,0.0,2-Back,0,z,Wed Apr 09 2025 12:10:12 GMT-0500 (Central Daylight Time),817074.5999999996,016_y_m_h_a.png,I,None,2016,18,1,3029.0999999996275,814045.5,8023,VNB,B,16
0,test,4,0.0,2-Back,,,Wed Apr 09 2025 12:10:12 GMT-0500 (Central Daylight Time),817074.5999999996,011_m_f_n_a.png,I,space,6495,1,1,3029.0999999996275,814045.5,8023,VNB,B,0
0,test,4,0.0,2-Back,,,Wed Apr 09 2025 12:10:12 GMT-0500 (Central Daylight Time),817074.5999999996,004_o_m_n_a.png,I,space,6495,2,1,3029.0999999996275,814045.5,8023,VNB,B,0
1,test,4,1.0,2-Back,1,m,Wed Apr 09 2025 12:10:12 GMT-0500 (Central Daylight Time),831186.9000000004,016_y_m_h_a.png,I,m,1366,3,1,2379.0999999996275,828807.8000000007,8023,VNB,B,1
1,test,4,1.0,2-Back,0,m,Wed Apr 09 2025 12:10:12 GMT-0500 (Central Daylight Time),833902.8000000007,005_o_f_d_a.png,I,z,1695,4,1,2712.5999999996275,831190.2000000011,8023,VNB,B,2
1,test,4,0.0,2-Back,0,z,Wed Apr 09 2025 12:10:12 GMT-0500 (Central Daylight Time),836935.0999999996,004_o_m_h_a.png,I,None,2016,5,1,3028.5,833906.5999999996,8023,VNB,B,3
2,test,4,0.0,2-Back,1,m,Wed Apr 09 2025 12:10:12 GMT-0500 (Central Daylight Time),839217.7000000011,007_m_m_n_a.png,I,m,1250,6,1,2278.800000000745,836938.9000000004,8023,VNB,B,4
2,test,4,0.0,2-Back,0,m,Wed Apr 09 2025 12:10:12 GMT-0500 (Central Daylight Time),842250.0999999996,011_m_f_d_a.png,I,None,2016,7,1,3028.5,839221.5999999996,8023,VNB,B,5
3,test,4,0.0,2-Back,1,z,Wed Apr 09 2025 12:10:12 GMT-0500 (Central Daylight Time),844782.5999999996,020_y_f_n_a.png,I,z,1511,8,1,2528.699999999255,842253.9000000004,8023,VNB,B,6
3,test,4,1.0,2-Back,0,m,Wed Apr 09 2025 12:10:12 GMT-0500 (Central Daylight Time),847815.0,005_o_f_h_a.png,I,None,2016,9,1,3029.2999999988824,844785.7000000011,8023,VNB,B,7
4,test,4,0.0,2-Back,1,m,Wed Apr 09 2025 12:10:12 GMT-0500 (Central Daylight Time),849031.2000000011,007_m_m_h_a.png,I,m,195,10,1,1212.5,847818.7000000011,8023,VNB,B,8
4,test,4,0.0,2-Back,0,m,Wed Apr 09 2025 12:10:12 GMT-0500 (Central Daylight Time),851430.5,020_y_f_d_a.png,I,z,1371,11,1,2395.5999999996275,849034.9000000004,8023,VNB,B,9
4,test,4,0.0,2-Back,0,m,Wed Apr 09 2025 12:10:12 GMT-0500 (Central Daylight Time),853563.3000000007,016_y_m_n_a.png,I,z,1107,12,1,2129.300000000745,851434.0,8023,VNB,B,10
4,test,4,0.0,2-Back,0,z,Wed Apr 09 2025 12:10:12 GMT-0500 (Central Daylight Time),856595.7000000011,004_o_m_d_a.png,I,None,2016,13,1,3028.4000000003725,853567.3000000007,8023,VNB,B,11
5,test,4,1.0,2-Back,1,m,Wed Apr 09 2025 12:10:12 GMT-0500 (Central Daylight Time),859161.7000000011,011_m_f_h_a.png,I,m,1534,14,1,2562.7000000011176,856599.0,8023,VNB,B,12
5,test,4,1.0,2-Back,0,m,Wed Apr 09 2025 12:10:12 GMT-0500 (Central Daylight Time),861160.8000000007,020_y_f_h_a.png,I,z,969,15,1,1995.5999999996275,859165.2000000011,8023,VNB,B,13
5,test,4,0.0,2-Back,0,m,Wed Apr 09 2025 12:10:12 GMT-0500 (Central Daylight Time),864193.3000000007,005_o_f_n_a.png,I,None,2015,16,1,3028.300000000745,861165.0,8023,VNB,B,14
6,test,4,0.0,2-Back,1,m,Wed Apr 09 2025 12:10:12 GMT-0500 (Central Daylight Time),866842.4000000004,016_y_m_d_a.png,I,m,1625,17,1,2646.0,864196.4000000004,8023,VNB,B,15
6,test,4,1.0,2-Back,0,m,Wed Apr 09 2025 12:10:12 GMT-0500 (Central Daylight Time),869875.0,007_m_m_d_a.png,I,None,2016,18,1,3029.199999999255,866845.8000000007,8023,VNB,B,16
0,test,5,1.0,2-Back,,,Wed Apr 09 2025 12:10:12 GMT-0500 (Central Daylight Time),869875.0,020_y_f_d_a.png,I,space,3951,1,1,3029.199999999255,866845.8000000007,8023,VNB,B,0
0,test,5,1.0,2-Back,,,Wed Apr 09 2025 12:10:12 GMT-0500 (Central Daylight Time),869875.0,005_o_f_h_a.png,I,space,3951,2,1,3029.199999999255,866845.8000000007,8023,VNB,B,0
1,test,5,1.0,2-Back,1,z,Wed Apr 09 2025 12:10:12 GMT-0500 (Central Daylight Time),881071.4000000004,004_o_m_d_a.png,I,z,970,3,1,1996.199999999255,879075.2000000011,8023,VNB,B,1
2,test,5,1.0,2-Back,1,m,Wed Apr 09 2025 12:10:12 GMT-0500 (Central Daylight Time),883220.7000000011,011_m_f_n_a.png,I,m,1131,4,1,2145.800000000745,881074.9000000004,8023,VNB,B,2
2,test,5,0.0,2-Back,0,m,Wed Apr 09 2025 12:10:12 GMT-0500 (Central Daylight Time),885069.9000000004,007_m_m_h_a.png,I,z,821,5,1,1845.300000000745,883224.5999999996,8023,VNB,B,3
2,test,5,0.0,2-Back,0,z,Wed Apr 09 2025 12:10:12 GMT-0500 (Central Daylight Time),888102.7000000011,020_y_f_n_a.png,I,None,2016,6,1,3029.300000000745,885073.4000000004,8023,VNB,B,4
2,test,5,0.0,2-Back,0,m,Wed Apr 09 2025 12:10:12 GMT-0500 (Central Daylight Time),890268.5,005_o_f_d_a.png,I,z,1140,7,1,2162.199999999255,888106.3000000007,8023,VNB,B,5
2,test,5,0.0,2-Back,0,m,Wed Apr 09 2025 12:10:12 GMT-0500 (Central Daylight Time),892151.2000000011,004_o_m_h_a.png,I,z,861,8,1,1879.800000000745,890271.4000000004,8023,VNB,B,6
2,test,5,1.0,2-Back,0,z,Wed Apr 09 2025 12:10:12 GMT-0500 (Central Daylight Time),895183.7000000011,011_m_f_d_a.png,I,None,2016,9,1,3028.800000000745,892154.9000000004,8023,VNB,B,7
3,test,5,0.0,2-Back,1,m,Wed Apr 09 2025 12:10:12 GMT-0500 (Central Daylight Time),897149.5999999996,016_y_m_n_a.png,I,m,938,10,1,1962.0999999996275,895187.5,8023,VNB,B,8
3,test,5,0.0,2-Back,0,m,Wed Apr 09 2025 12:10:12 GMT-0500 (Central Daylight Time),900245.0999999996,007_m_m_n_a.png,I,None,2079,11,1,3092.0,897153.0999999996,8023,VNB,B,9
4,test,5,0.0,2-Back,1,m,Wed Apr 09 2025 12:10:12 GMT-0500 (Central Daylight Time),902631.0,020_y_f_h_a.png,I,m,1353,12,1,2382.199999999255,900248.8000000007,8023,VNB,B,10
5,test,5,0.0,2-Back,1,m,Wed Apr 09 2025 12:10:12 GMT-0500 (Central Daylight Time),905163.5,016_y_m_d_a.png,I,m,1515,13,1,2529.2999999988824,902634.2000000011,8023,VNB,B,11
6,test,5,1.0,2-Back,1,z,Wed Apr 09 2025 12:10:12 GMT-0500 (Central Daylight Time),907163.0999999996,011_m_f_h_a.png,I,z,983,14,1,1996.2999999988824,905166.8000000007,8023,VNB,B,12
6,test,5,0.0,2-Back,0,m,Wed Apr 09 2025 12:10:12 GMT-0500 (Central Daylight Time),910195.8000000007,004_o_m_n_a.png,I,None,2016,15,1,3029.5,907166.3000000007,8023,VNB,B,13
6,test,5,0.0,2-Back,0,m,Wed Apr 09 2025 12:10:12 GMT-0500 (Central Daylight Time),912778.2000000011,007_m_m_d_a.png,I,z,1549,16,1,2579.5,910198.7000000011,8023,VNB,B,14
7,test,5,0.0,2-Back,1,z,Wed Apr 09 2025 12:10:12 GMT-0500 (Central Daylight Time),915010.7000000011,005_o_f_n_a.png,I,z,1216,17,1,2228.800000000745,912781.9000000004,8023,VNB,B,15
8,test,5,1.0,2-Back,1,m,Wed Apr 09 2025 12:10:12 GMT-0500 (Central Daylight Time),917160.0,016_y_m_h_a.png,I,m,1127,18,1,2146.0,915014.0,8023,VNB,B,16
