block_c,block_dur,condition,countdown,datetime,endtime,list,multichar_response,project,response,response_time,session_number,start_end,starttime,subject_id,task,task_vers,trial
,,,,Thu Feb 20 2025 09:13:34 GMT-0600 (Central Standard Time),,,,O,space,1770,1,,,7058,WL,B,
prac,,0,,Thu Feb 20 2025 09:13:34 GMT-0600 (Central Standard Time),,NA,b,O,b,2344,1,,,7058,WL,B,1.0
prac,,0,,Thu Feb 20 2025 09:13:34 GMT-0600 (Central Standard Time),,NA,bo,O,o,133,1,,,7058,WL,B,1.0
prac,,0,,Thu Feb 20 2025 09:13:34 GMT-0600 (Central Standard Time),,NA,boo,O,o,96,1,,,7058,WL,B,1.0
prac,,0,,Thu Feb 20 2025 09:13:34 GMT-0600 (Central Standard Time),,NA,boos,O,s,84,1,,,7058,WL,B,1.0
prac,,0,,Thu Feb 20 2025 09:13:34 GMT-0600 (Central Standard Time),,NA,boost,O,t,48,1,,,7058,WL,B,1.0
prac,,0,,Thu Feb 20 2025 09:13:34 GMT-0600 (Central Standard Time),,NA,boostenter,O,enter,1181,1,,,7058,WL,B,1.0
1,0.4830000400543213,learn,59516.99995994568,Thu Feb 20 2025 09:13:34 GMT-0600 (Central Standard Time),146497.5,A,s,O,s,469,1,483.0,146014.5,7058,WL,B,1.0
1,0.6000001430511475,learn,59399.99985694885,Thu Feb 20 2025 09:13:34 GMT-0600 (Central Standard Time),146614.09999999776,A,st,O,t,98,1,599.5999999977648,146014.5,7058,WL,B,1.0
1,0.7829999923706055,learn,59217.000007629395,Thu Feb 20 2025 09:13:34 GMT-0600 (Central Standard Time),146797.29999999702,A,str,O,r,173,1,782.7999999970198,146014.5,7058,WL,B,1.0
1,0.8329999446868896,learn,59167.00005531311,Thu Feb 20 2025 09:13:34 GMT-0600 (Central Standard Time),146847.5,A,stre,O,e,38,1,833.0,146014.5,7058,WL,B,1.0
1,1.0,learn,59000.0,Thu Feb 20 2025 09:13:34 GMT-0600 (Central Standard Time),147014.09999999776,A,stree,O,e,149,1,999.5999999977648,146014.5,7058,WL,B,1.0
1,1.0829999446868896,learn,58917.00005531311,Thu Feb 20 2025 09:13:34 GMT-0600 (Central Standard Time),147097.09999999776,A,street,O,t,70,1,1082.5999999977648,146014.5,7058,WL,B,1.0
1,1.25,learn,58750.0,Thu Feb 20 2025 09:13:34 GMT-0600 (Central Standard Time),147263.79999999702,A,streetenter,O,enter,146,1,1249.2999999970198,146014.5,7058,WL,B,1.0
1,1.500999927520752,learn,58499.00007247925,Thu Feb 20 2025 09:13:34 GMT-0600 (Central Standard Time),147514.79999999702,A,g,O,g,236,1,250.5,147264.29999999702,7058,WL,B,2.0
1,1.6660001277923584,learn,58333.99987220764,Thu Feb 20 2025 09:13:34 GMT-0600 (Central Standard Time),147680.19999999925,A,gr,O,r,145,1,415.9000000022352,147264.29999999702,7058,WL,B,2.0
1,1.75,learn,58250.0,Thu Feb 20 2025 09:13:34 GMT-0600 (Central Standard Time),147763.69999999925,A,gra,O,a,68,1,499.4000000022352,147264.29999999702,7058,WL,B,2.0
1,1.883000135421753,learn,58116.99986457825,Thu Feb 20 2025 09:13:34 GMT-0600 (Central Standard Time),147897.0,A,gras,O,s,111,1,632.7000000029802,147264.29999999702,7058,WL,B,2.0
1,2.0829999446868896,learn,57917.00005531311,Thu Feb 20 2025 09:13:34 GMT-0600 (Central Standard Time),148096.79999999702,A,grass,O,s,186,1,832.5,147264.29999999702,7058,WL,B,2.0
1,2.2330000400543213,learn,57766.99995994568,Thu Feb 20 2025 09:13:34 GMT-0600 (Central Standard Time),148247.09999999776,A,grassenter,O,enter,131,1,982.8000000007451,147264.29999999702,7058,WL,B,2.0
1,3.8989999294281006,learn,56101.0000705719,Thu Feb 20 2025 09:13:34 GMT-0600 (Central Standard Time),149913.09999999776,A,c,O,c,1653,1,1665.3999999985099,148247.69999999925,7058,WL,B,3.0
1,3.999000072479248,learn,56000.99992752075,Thu Feb 20 2025 09:13:34 GMT-0600 (Central Standard Time),150013.0,A,ca,O,a,83,1,1765.300000000745,148247.69999999925,7058,WL,B,3.0
1,4.098999977111816,learn,55901.00002288818,Thu Feb 20 2025 09:13:34 GMT-0600 (Central Standard Time),150112.8999999985,A,cab,O,b,86,1,1865.199999999255,148247.69999999925,7058,WL,B,3.0
1,4.2820000648498535,learn,55717.99993515015,Thu Feb 20 2025 09:13:34 GMT-0600 (Central Standard Time),150296.29999999702,A,cabi,O,i,163,1,2048.599999997765,148247.69999999925,7058,WL,B,3.0
1,4.315999984741211,learn,55684.00001525879,Thu Feb 20 2025 09:13:34 GMT-0600 (Central Standard Time),150329.79999999702,A,cabin,O,n,27,1,2082.099999997765,148247.69999999925,7058,WL,B,3.0
1,4.565000057220459,learn,55434.99994277954,Thu Feb 20 2025 09:13:34 GMT-0600 (Central Standard Time),150579.5,A,cabinenter,O,enter,235,1,2331.800000000745,148247.69999999925,7058,WL,B,3.0
1,4.748000144958496,learn,55251.999855041504,Thu Feb 20 2025 09:13:34 GMT-0600 (Central Standard Time),150762.59999999776,A,f,O,f,168,1,182.39999999850988,150580.19999999925,7058,WL,B,4.0
1,4.914999961853027,learn,55085.00003814697,Thu Feb 20 2025 09:13:34 GMT-0600 (Central Standard Time),150929.3999999985,A,fi,O,i,145,1,349.19999999925494,150580.19999999925,7058,WL,B,4.0
1,4.965000152587891,learn,55034.99984741211,Thu Feb 20 2025 09:13:34 GMT-0600 (Central Standard Time),150979.19999999925,A,fir,O,r,42,1,399.0,150580.19999999925,7058,WL,B,4.0
1,5.04800009727478,learn,54951.99990272522,Thu Feb 20 2025 09:13:34 GMT-0600 (Central Standard Time),151062.59999999776,A,fire,O,e,64,1,482.3999999985099,150580.19999999925,7058,WL,B,4.0
1,5.197999954223633,learn,54802.00004577637,Thu Feb 20 2025 09:13:34 GMT-0600 (Central Standard Time),151212.59999999776,A,fireenter,O,enter,141,1,632.3999999985099,150580.19999999925,7058,WL,B,4.0
1,5.498000144958496,learn,54501.999855041504,Thu Feb 20 2025 09:13:34 GMT-0600 (Central Standard Time),151512.3999999985,A,w,O,w,279,1,299.3999999985099,151213.0,7058,WL,B,5.0
1,5.697999954223633,learn,54302.00004577637,Thu Feb 20 2025 09:13:34 GMT-0600 (Central Standard Time),151712.59999999776,A,wf,O,f,179,1,499.5999999977648,151213.0,7058,WL,B,5.0
1,5.7820000648498535,learn,54217.99993515015,Thu Feb 20 2025 09:13:34 GMT-0600 (Central Standard Time),151795.69999999925,A,wfe,O,e,68,1,582.6999999992549,151213.0,7058,WL,B,5.0
1,5.88100004196167,learn,54118.99995803833,Thu Feb 20 2025 09:13:34 GMT-0600 (Central Standard Time),151895.59999999776,A,wfeenter,O,enter,88,1,682.5999999977648,151213.0,7058,WL,B,5.0
1,7.5980000495910645,learn,52401.999950408936,Thu Feb 20 2025 09:13:34 GMT-0600 (Central Standard Time),153611.8999999985,A,p,O,p,1700,1,1716.0,151895.8999999985,7058,WL,B,6.0
1,7.730999946594238,learn,52269.00005340576,Thu Feb 20 2025 09:13:34 GMT-0600 (Central Standard Time),153745.09999999776,A,pu,O,u,112,1,1849.199999999255,151895.8999999985,7058,WL,B,6.0
1,7.79800009727478,learn,52201.99990272522,Thu Feb 20 2025 09:13:34 GMT-0600 (Central Standard Time),153811.79999999702,A,pup,O,p,59,1,1915.8999999985099,151895.8999999985,7058,WL,B,6.0
1,8.114000082015991,learn,51885.99991798401,Thu Feb 20 2025 09:13:34 GMT-0600 (Central Standard Time),154128.5,A,pupi,O,i,304,1,2232.60000000149,151895.8999999985,7058,WL,B,6.0
1,8.230999946594238,learn,51769.00005340576,Thu Feb 20 2025 09:13:34 GMT-0600 (Central Standard Time),154245.0,A,pupil,O,l,100,1,2349.10000000149,151895.8999999985,7058,WL,B,6.0
1,8.46399998664856,learn,51536.00001335144,Thu Feb 20 2025 09:13:34 GMT-0600 (Central Standard Time),154478.5,A,pupilenter,O,enter,223,1,2582.60000000149,151895.8999999985,7058,WL,B,6.0
1,8.996999979019165,learn,51003.000020980835,Thu Feb 20 2025 09:13:34 GMT-0600 (Central Standard Time),155011.5,A,p,O,p,525,1,532.7000000029802,154478.79999999702,7058,WL,B,7.0
1,9.13100004196167,learn,50868.99995803833,Thu Feb 20 2025 09:13:34 GMT-0600 (Central Standard Time),155144.59999999776,A,pi,O,i,112,1,665.8000000007451,154478.79999999702,7058,WL,B,7.0
1,9.230999946594238,learn,50769.00005340576,Thu Feb 20 2025 09:13:34 GMT-0600 (Central Standard Time),155244.8999999985,A,pip,O,p,84,1,766.1000000014901,154478.79999999702,7058,WL,B,7.0
1,9.746999979019165,learn,50253.000020980835,Thu Feb 20 2025 09:13:34 GMT-0600 (Central Standard Time),155761.09999999776,A,pipe,O,e,503,1,1282.300000000745,154478.79999999702,7058,WL,B,7.0
1,10.930000066757202,learn,49069.9999332428,Thu Feb 20 2025 09:13:34 GMT-0600 (Central Standard Time),156944.19999999925,A,pipeenter,O,enter,1171,1,2465.400000002235,154478.79999999702,7058,WL,B,7.0
1,14.562000036239624,learn,45437.999963760376,Thu Feb 20 2025 09:13:34 GMT-0600 (Central Standard Time),160576.3999999985,A,a,O,a,3620,1,3631.89999999851,156944.5,7058,WL,B,8.0
1,14.628999948501587,learn,45371.00005149841,Thu Feb 20 2025 09:13:34 GMT-0600 (Central Standard Time),160642.8999999985,A,ar,O,r,51,1,3698.39999999851,156944.5,7058,WL,B,8.0
1,14.745000123977661,learn,45254.99987602234,Thu Feb 20 2025 09:13:34 GMT-0600 (Central Standard Time),160759.5,A,arm,O,m,105,1,3815.0,156944.5,7058,WL,B,8.0
1,14.911999940872192,learn,45088.00005912781,Thu Feb 20 2025 09:13:34 GMT-0600 (Central Standard Time),160925.8999999985,A,armenter,O,enter,149,1,3981.39999999851,156944.5,7058,WL,B,8.0
1,15.17900013923645,learn,44820.99986076355,Thu Feb 20 2025 09:13:34 GMT-0600 (Central Standard Time),161192.79999999702,A,d,O,d,246,1,266.69999999925494,160926.09999999776,7058,WL,B,9.0
1,15.312000036239624,learn,44687.999963760376,Thu Feb 20 2025 09:13:34 GMT-0600 (Central Standard Time),161326.3999999985,A,do,O,o,124,1,400.30000000074506,160926.09999999776,7058,WL,B,9.0
1,15.444999933242798,learn,44555.0000667572,Thu Feb 20 2025 09:13:34 GMT-0600 (Central Standard Time),161459.5,A,doo,O,o,126,1,533.4000000022352,160926.09999999776,7058,WL,B,9.0
1,15.59500002861023,learn,44404.99997138977,Thu Feb 20 2025 09:13:34 GMT-0600 (Central Standard Time),161609.5,A,door,O,r,144,1,683.4000000022352,160926.09999999776,7058,WL,B,9.0
1,15.76200008392334,learn,44237.99991607666,Thu Feb 20 2025 09:13:34 GMT-0600 (Central Standard Time),161776.0,A,doorenter,O,enter,146,1,849.9000000022352,160926.09999999776,7058,WL,B,9.0
1,16.30400013923645,learn,43695.99986076355,Thu Feb 20 2025 09:13:34 GMT-0600 (Central Standard Time),162317.79999999702,A,i,O,i,390,1,541.3999999985099,161776.3999999985,7058,WL,B,10.0
1,16.312999963760376,learn,43687.000036239624,Thu Feb 20 2025 09:13:34 GMT-0600 (Central Standard Time),162326.8999999985,A,in,O,n,0,1,550.5,161776.3999999985,7058,WL,B,10.0
1,16.34500002861023,learn,43654.99997138977,Thu Feb 20 2025 09:13:34 GMT-0600 (Central Standard Time),162359.29999999702,A,ind,O,d,12,1,582.8999999985099,161776.3999999985,7058,WL,B,10.0
1,17.261000156402588,learn,42738.99984359741,Thu Feb 20 2025 09:13:34 GMT-0600 (Central Standard Time),163275.59999999776,A,in,O,backspace,902,1,1499.199999999255,161776.3999999985,7058,WL,B,10.0
1,17.42799997329712,learn,42572.00002670288,Thu Feb 20 2025 09:13:34 GMT-0600 (Central Standard Time),163442.0,A,i,O,backspace,146,1,1665.6000000014901,161776.3999999985,7058,WL,B,10.0
1,17.561000108718872,learn,42438.99989128113,Thu Feb 20 2025 09:13:34 GMT-0600 (Central Standard Time),163575.59999999776,A,,O,backspace,114,1,1799.199999999255,161776.3999999985,7058,WL,B,10.0
1,17.84500002861023,learn,42154.99997138977,Thu Feb 20 2025 09:13:34 GMT-0600 (Central Standard Time),163858.69999999925,A,w,O,w,269,1,2082.300000000745,161776.3999999985,7058,WL,B,10.0
1,17.977999925613403,learn,42022.0000743866,Thu Feb 20 2025 09:13:34 GMT-0600 (Central Standard Time),163992.09999999776,A,wi,O,i,122,1,2215.699999999255,161776.3999999985,7058,WL,B,10.0
1,18.144999980926514,learn,41855.000019073486,Thu Feb 20 2025 09:13:34 GMT-0600 (Central Standard Time),164158.79999999702,A,wid,O,d,148,1,2382.39999999851,161776.3999999985,7058,WL,B,10.0
1,18.628000020980835,learn,41371.999979019165,Thu Feb 20 2025 09:13:34 GMT-0600 (Central Standard Time),164641.69999999925,A,wi,O,backspace,478,1,2865.300000000745,161776.3999999985,7058,WL,B,10.0
1,18.778000116348267,learn,41221.99988365173,Thu Feb 20 2025 09:13:34 GMT-0600 (Central Standard Time),164791.79999999702,A,win,O,n,140,1,3015.39999999851,161776.3999999985,7058,WL,B,10.0
1,18.91100001335144,learn,41088.99998664856,Thu Feb 20 2025 09:13:34 GMT-0600 (Central Standard Time),164924.69999999925,A,wind,O,d,116,1,3148.300000000745,161776.3999999985,7058,WL,B,10.0
1,19.011000156402588,learn,40988.99984359741,Thu Feb 20 2025 09:13:34 GMT-0600 (Central Standard Time),165025.29999999702,A,windo,O,o,88,1,3248.89999999851,161776.3999999985,7058,WL,B,10.0
1,19.761000156402588,learn,40238.99984359741,Thu Feb 20 2025 09:13:34 GMT-0600 (Central Standard Time),165774.69999999925,A,window,O,w,731,1,3998.300000000745,161776.3999999985,7058,WL,B,10.0
1,20.044000148773193,learn,39955.99985122681,Thu Feb 20 2025 09:13:34 GMT-0600 (Central Standard Time),166057.79999999702,A,windowenter,O,enter,269,1,4281.39999999851,161776.3999999985,7058,WL,B,10.0
1,29.92300009727478,learn,30076.99990272522,Thu Feb 20 2025 09:13:34 GMT-0600 (Central Standard Time),175938.0,A,s,O,s,9859,1,9879.800000000745,166058.19999999925,7058,WL,B,11.0
1,29.973000049591064,learn,30026.999950408936,Thu Feb 20 2025 09:13:34 GMT-0600 (Central Standard Time),175988.0,A,st,O,t,40,1,9929.800000000745,166058.19999999925,7058,WL,B,11.0
1,30.09000015258789,learn,29909.99984741211,Thu Feb 20 2025 09:13:34 GMT-0600 (Central Standard Time),176104.8999999985,A,sta,O,a,96,1,10046.699999999255,166058.19999999925,7058,WL,B,11.0
1,30.223000049591064,learn,29776.999950408936,Thu Feb 20 2025 09:13:34 GMT-0600 (Central Standard Time),176238.0,A,star,O,r,115,1,10179.800000000745,166058.19999999925,7058,WL,B,11.0
1,30.707000017166138,learn,29292.999982833862,Thu Feb 20 2025 09:13:34 GMT-0600 (Central Standard Time),176721.19999999925,A,starenter,O,enter,470,1,10663.0,166058.19999999925,7058,WL,B,11.0
1,48.45099997520447,learn,11549.000024795532,Thu Feb 20 2025 09:13:34 GMT-0600 (Central Standard Time),194465.79999999702,A,enter,O,enter,17732,1,17744.199999999255,176721.59999999776,7058,WL,B,12.0
1,49.50099992752075,learn,10499.000072479248,Thu Feb 20 2025 09:13:34 GMT-0600 (Central Standard Time),195515.5,A,enter,O,enter,1035,1,1049.300000000745,194466.19999999925,7058,WL,B,13.0
1,51.33400011062622,learn,8665.99988937378,Thu Feb 20 2025 09:13:34 GMT-0600 (Central Standard Time),197348.09999999776,A,enter,O,enter,1825,1,1832.0999999977648,195516.0,7058,WL,B,14.0
1,52.06700015068054,learn,7932.999849319458,Thu Feb 20 2025 09:13:34 GMT-0600 (Central Standard Time),198081.29999999702,A,enter,O,enter,720,1,732.7999999970198,197348.5,7058,WL,B,15.0
2,0.5999999046325684,learn,59400.00009536743,Thu Feb 20 2025 09:13:34 GMT-0600 (Central Standard Time),264843.799999997,A,s,O,s,585,1,599.8999999985099,264243.8999999985,7058,WL,B,1.0
2,0.6989998817443848,learn,59301.000118255615,Thu Feb 20 2025 09:13:34 GMT-0600 (Central Standard Time),264943.59999999776,A,sk,O,k,80,1,699.6999999992549,264243.8999999985,7058,WL,B,1.0
2,0.8659999370574951,learn,59134.000062942505,Thu Feb 20 2025 09:13:34 GMT-0600 (Central Standard Time),265110.5,A,ski,O,i,149,1,866.6000000014901,264243.8999999985,7058,WL,B,1.0
2,0.9489998817443848,learn,59051.000118255615,Thu Feb 20 2025 09:13:34 GMT-0600 (Central Standard Time),265193.5,A,skin,O,n,78,1,949.6000000014901,264243.8999999985,7058,WL,B,1.0
2,1.181999921798706,learn,58818.000078201294,Thu Feb 20 2025 09:13:34 GMT-0600 (Central Standard Time),265426.59999999776,A,skinenter,O,enter,227,1,1182.699999999255,264243.8999999985,7058,WL,B,1.0
2,1.5160000324249268,learn,58483.99996757507,Thu Feb 20 2025 09:13:34 GMT-0600 (Central Standard Time),265760.0,A,f,O,f,322,1,333.30000000074506,265426.69999999925,7058,WL,B,2.0
2,1.6489999294281006,learn,58351.0000705719,Thu Feb 20 2025 09:13:34 GMT-0600 (Central Standard Time),265893.3999999985,A,fi,O,i,116,1,466.69999999925494,265426.69999999925,7058,WL,B,2.0
2,1.7159998416900635,learn,58284.00015830994,Thu Feb 20 2025 09:13:34 GMT-0600 (Central Standard Time),265959.8999999985,A,fir,O,r,48,1,533.1999999992549,265426.69999999925,7058,WL,B,2.0
2,1.7660000324249268,learn,58233.99996757507,Thu Feb 20 2025 09:13:34 GMT-0600 (Central Standard Time),266009.8999999985,A,fire,O,e,45,1,583.1999999992549,265426.69999999925,7058,WL,B,2.0
2,1.8989999294281006,learn,58101.0000705719,Thu Feb 20 2025 09:13:34 GMT-0600 (Central Standard Time),266143.3999999985,A,fireenter,O,enter,114,1,716.6999999992549,265426.69999999925,7058,WL,B,2.0
2,2.1659998893737793,learn,57834.00011062622,Thu Feb 20 2025 09:13:34 GMT-0600 (Central Standard Time),266409.59999999776,A,a,O,a,261,1,265.8999999985099,266143.69999999925,7058,WL,B,3.0
2,2.2319998741149902,learn,57768.00012588501,Thu Feb 20 2025 09:13:34 GMT-0600 (Central Standard Time),266476.5,A,ar,O,r,51,1,332.80000000074506,266143.69999999925,7058,WL,B,3.0
2,2.365999937057495,learn,57634.000062942505,Thu Feb 20 2025 09:13:34 GMT-0600 (Central Standard Time),266609.799999997,A,arm,O,m,120,1,466.0999999977648,266143.69999999925,7058,WL,B,3.0
2,2.881999969482422,learn,57118.00003051758,Thu Feb 20 2025 09:13:34 GMT-0600 (Central Standard Time),267126.299999997,A,armw,O,w,506,1,982.5999999977648,266143.69999999925,7058,WL,B,3.0
2,3.5320000648498535,learn,56467.99993515015,Thu Feb 20 2025 09:13:34 GMT-0600 (Central Standard Time),267776.09999999776,A,arm,O,backspace,639,1,1632.3999999985099,266143.69999999925,7058,WL,B,3.0
2,3.8320000171661377,learn,56167.99998283386,Thu Feb 20 2025 09:13:34 GMT-0600 (Central Standard Time),268075.8999999985,A,armenter,O,enter,285,1,1932.199999999255,266143.69999999925,7058,WL,B,3.0
2,4.2149999141693115,learn,55785.00008583069,Thu Feb 20 2025 09:13:34 GMT-0600 (Central Standard Time),268459.299999997,A,w,O,w,376,1,383.0,268076.299999997,7058,WL,B,4.0
2,4.315000057220459,learn,55684.99994277954,Thu Feb 20 2025 09:13:34 GMT-0600 (Central Standard Time),268559.09999999776,A,wi,O,i,81,1,482.80000000074506,268076.299999997,7058,WL,B,4.0
2,4.497999906539917,learn,55502.00009346008,Thu Feb 20 2025 09:13:34 GMT-0600 (Central Standard Time),268742.3999999985,A,wid,O,d,165,1,666.1000000014901,268076.299999997,7058,WL,B,4.0
2,4.914999961853027,learn,55085.00003814697,Thu Feb 20 2025 09:13:34 GMT-0600 (Central Standard Time),269159.09999999776,A,wi,O,backspace,406,1,1082.800000000745,268076.299999997,7058,WL,B,4.0
2,5.080999851226807,learn,54919.00014877319,Thu Feb 20 2025 09:13:34 GMT-0600 (Central Standard Time),269325.5,A,win,O,n,149,1,1249.2000000029802,268076.299999997,7058,WL,B,4.0
2,5.180999994277954,learn,54819.000005722046,Thu Feb 20 2025 09:13:34 GMT-0600 (Central Standard Time),269425.299999997,A,wind,O,d,87,1,1349.0,268076.299999997,7058,WL,B,4.0
2,5.315000057220459,learn,54684.99994277954,Thu Feb 20 2025 09:13:34 GMT-0600 (Central Standard Time),269558.799999997,A,windo,O,o,123,1,1482.5,268076.299999997,7058,WL,B,4.0
2,5.430999994277954,learn,54569.000005722046,Thu Feb 20 2025 09:13:34 GMT-0600 (Central Standard Time),269675.5,A,window,O,w,110,1,1599.2000000029802,268076.299999997,7058,WL,B,4.0
2,5.648000001907349,learn,54351.99999809265,Thu Feb 20 2025 09:13:34 GMT-0600 (Central Standard Time),269892.19999999925,A,windowenter,O,enter,202,1,1815.9000000022352,268076.299999997,7058,WL,B,4.0
2,5.797999858856201,learn,54202.0001411438,Thu Feb 20 2025 09:13:34 GMT-0600 (Central Standard Time),270041.8999999985,A,d,O,d,136,1,149.39999999850988,269892.5,7058,WL,B,5.0
2,5.930999994277954,learn,54069.000005722046,Thu Feb 20 2025 09:13:34 GMT-0600 (Central Standard Time),270175.3999999985,A,do,O,o,114,1,282.8999999985099,269892.5,7058,WL,B,5.0
2,6.063999891281128,learn,53936.00010871887,Thu Feb 20 2025 09:13:34 GMT-0600 (Central Standard Time),270308.3999999985,A,doo,O,o,117,1,415.8999999985099,269892.5,7058,WL,B,5.0
2,6.164000034332275,learn,53835.999965667725,Thu Feb 20 2025 09:13:34 GMT-0600 (Central Standard Time),270408.3999999985,A,door,O,r,88,1,515.8999999985099,269892.5,7058,WL,B,5.0
2,6.3480000495910645,learn,53651.999950408936,Thu Feb 20 2025 09:13:34 GMT-0600 (Central Standard Time),270592.0,A,doorenter,O,enter,164,1,699.5,269892.5,7058,WL,B,5.0
2,6.680999994277954,learn,53319.000005722046,Thu Feb 20 2025 09:13:34 GMT-0600 (Central Standard Time),270925.0,A,a,O,a,324,1,332.70000000298023,270592.299999997,7058,WL,B,6.0
2,6.797999858856201,learn,53202.0001411438,Thu Feb 20 2025 09:13:34 GMT-0600 (Central Standard Time),271041.799999997,A,ar,O,r,104,1,449.5,270592.299999997,7058,WL,B,6.0
2,7.547999858856201,learn,52452.0001411438,Thu Feb 20 2025 09:13:34 GMT-0600 (Central Standard Time),271791.59999999776,A,arm,O,m,739,1,1199.300000000745,270592.299999997,7058,WL,B,6.0
2,8.596999883651733,learn,51403.00011634827,Thu Feb 20 2025 09:13:34 GMT-0600 (Central Standard Time),272841.3999999985,A,armenter,O,enter,1029,1,2249.10000000149,270592.299999997,7058,WL,B,6.0
2,8.813999891281128,learn,51186.00010871887,Thu Feb 20 2025 09:13:34 GMT-0600 (Central Standard Time),273057.799999997,A,g,O,g,211,1,216.09999999776483,272841.69999999925,7058,WL,B,7.0
2,8.980000019073486,learn,51019.999980926514,Thu Feb 20 2025 09:13:34 GMT-0600 (Central Standard Time),273224.5,A,gr,O,r,154,1,382.80000000074506,272841.69999999925,7058,WL,B,7.0
2,9.04699993133545,learn,50953.00006866455,Thu Feb 20 2025 09:13:34 GMT-0600 (Central Standard Time),273291.0,A,gra,O,a,52,1,449.30000000074506,272841.69999999925,7058,WL,B,7.0
2,9.129999876022339,learn,50870.00012397766,Thu Feb 20 2025 09:13:34 GMT-0600 (Central Standard Time),273374.299999997,A,gras,O,s,65,1,532.5999999977648,272841.69999999925,7058,WL,B,7.0
2,9.29699993133545,learn,50703.00006866455,Thu Feb 20 2025 09:13:34 GMT-0600 (Central Standard Time),273540.799999997,A,grass,O,s,150,1,699.0999999977648,272841.69999999925,7058,WL,B,7.0
2,9.414999961853027,learn,50585.00003814697,Thu Feb 20 2025 09:13:34 GMT-0600 (Central Standard Time),273658.59999999776,A,grassenter,O,enter,103,1,816.8999999985099,272841.69999999925,7058,WL,B,7.0
2,9.52999997138977,learn,50470.00002861023,Thu Feb 20 2025 09:13:34 GMT-0600 (Central Standard Time),273774.299999997,A,s,O,s,105,1,115.29999999701977,273659.0,7058,WL,B,8.0
2,9.646999835968018,learn,50353.00016403198,Thu Feb 20 2025 09:13:34 GMT-0600 (Central Standard Time),273890.8999999985,A,st,O,t,102,1,231.89999999850988,273659.0,7058,WL,B,8.0
2,9.79699993133545,learn,50203.00006866455,Thu Feb 20 2025 09:13:34 GMT-0600 (Central Standard Time),274040.8999999985,A,str,O,r,137,1,381.8999999985099,273659.0,7058,WL,B,8.0
2,9.846999883651733,learn,50153.00011634827,Thu Feb 20 2025 09:13:34 GMT-0600 (Central Standard Time),274090.799999997,A,stre,O,e,43,1,431.79999999701977,273659.0,7058,WL,B,8.0
2,9.996999979019165,learn,50003.000020980835,Thu Feb 20 2025 09:13:34 GMT-0600 (Central Standard Time),274240.69999999925,A,stree,O,e,138,1,581.6999999992549,273659.0,7058,WL,B,8.0
2,10.079999923706055,learn,49920.000076293945,Thu Feb 20 2025 09:13:34 GMT-0600 (Central Standard Time),274324.0,A,street,O,t,77,1,665.0,273659.0,7058,WL,B,8.0
2,10.263000011444092,learn,49736.99998855591,Thu Feb 20 2025 09:13:34 GMT-0600 (Central Standard Time),274507.299999997,A,streetenter,O,enter,176,1,848.2999999970198,273659.0,7058,WL,B,8.0
2,10.480000019073486,learn,49519.999980926514,Thu Feb 20 2025 09:13:34 GMT-0600 (Central Standard Time),274723.799999997,A,c,O,c,201,1,216.09999999776483,274507.69999999925,7058,WL,B,9.0
2,10.61299991607666,learn,49387.00008392334,Thu Feb 20 2025 09:13:34 GMT-0600 (Central Standard Time),274857.3999999985,A,ca,O,a,120,1,349.69999999925494,274507.69999999925,7058,WL,B,9.0
2,10.730000019073486,learn,49269.999980926514,Thu Feb 20 2025 09:13:34 GMT-0600 (Central Standard Time),274973.799999997,A,cab,O,b,99,1,466.0999999977648,274507.69999999925,7058,WL,B,9.0
2,11.19599986076355,learn,48804.00013923645,Thu Feb 20 2025 09:13:34 GMT-0600 (Central Standard Time),275440.3999999985,A,cabi,O,i,446,1,932.6999999992549,274507.69999999925,7058,WL,B,9.0
2,11.263000011444092,learn,48736.99998855591,Thu Feb 20 2025 09:13:34 GMT-0600 (Central Standard Time),275507.0,A,cabin,O,n,60,1,999.3000000007451,274507.69999999925,7058,WL,B,9.0
2,11.478999853134155,learn,48521.000146865845,Thu Feb 20 2025 09:13:34 GMT-0600 (Central Standard Time),275723.5,A,cabinenter,O,enter,209,1,1215.800000000745,274507.69999999925,7058,WL,B,9.0
2,11.71399998664856,learn,48286.00001335144,Thu Feb 20 2025 09:13:34 GMT-0600 (Central Standard Time),275957.8999999985,A,s,O,s,217,1,234.10000000149012,275723.799999997,7058,WL,B,10.0
2,11.763000011444092,learn,48236.99998855591,Thu Feb 20 2025 09:13:34 GMT-0600 (Central Standard Time),276006.799999997,A,st,O,t,38,1,283.0,275723.799999997,7058,WL,B,10.0
2,11.86299991607666,learn,48137.00008392334,Thu Feb 20 2025 09:13:34 GMT-0600 (Central Standard Time),276106.799999997,A,sta,O,a,93,1,383.0,275723.799999997,7058,WL,B,10.0
2,11.963000059127808,learn,48036.99994087219,Thu Feb 20 2025 09:13:34 GMT-0600 (Central Standard Time),276206.799999997,A,star,O,r,91,1,483.0,275723.799999997,7058,WL,B,10.0
2,12.078999996185303,learn,47921.0000038147,Thu Feb 20 2025 09:13:34 GMT-0600 (Central Standard Time),276323.5,A,start,O,t,109,1,599.7000000029802,275723.799999997,7058,WL,B,10.0
2,12.19700002670288,learn,47802.99997329712,Thu Feb 20 2025 09:13:34 GMT-0600 (Central Standard Time),276440.8999999985,A,startenter,O,enter,105,1,717.1000000014901,275723.799999997,7058,WL,B,10.0
2,12.312999963760376,learn,47687.000036239624,Thu Feb 20 2025 09:13:34 GMT-0600 (Central Standard Time),276556.59999999776,A,w,O,w,99,1,115.30000000074506,276441.299999997,7058,WL,B,11.0
2,12.546000003814697,learn,47453.9999961853,Thu Feb 20 2025 09:13:34 GMT-0600 (Central Standard Time),276789.799999997,A,wf,O,f,216,1,348.5,276441.299999997,7058,WL,B,11.0
2,13.161999940872192,learn,46838.00005912781,Thu Feb 20 2025 09:13:34 GMT-0600 (Central Standard Time),277406.5,A,w,O,backspace,598,1,965.2000000029802,276441.299999997,7058,WL,B,11.0
2,13.361999988555908,learn,46638.00001144409,Thu Feb 20 2025 09:13:34 GMT-0600 (Central Standard Time),277606.5,A,wi,O,i,182,1,1165.2000000029802,276441.299999997,7058,WL,B,11.0
2,13.44599986076355,learn,46554.00013923645,Thu Feb 20 2025 09:13:34 GMT-0600 (Central Standard Time),277689.59999999776,A,wif,O,f,63,1,1248.300000000745,276441.299999997,7058,WL,B,11.0
2,13.496999979019165,learn,46503.000020980835,Thu Feb 20 2025 09:13:34 GMT-0600 (Central Standard Time),277741.09999999776,A,wife,O,e,43,1,1299.800000000745,276441.299999997,7058,WL,B,11.0
2,13.911999940872192,learn,46088.00005912781,Thu Feb 20 2025 09:13:34 GMT-0600 (Central Standard Time),278155.799999997,A,wifeenter,O,enter,407,1,1714.5,276441.299999997,7058,WL,B,11.0
2,15.477999925613403,learn,44522.0000743866,Thu Feb 20 2025 09:13:34 GMT-0600 (Central Standard Time),279722.299999997,A,p,O,p,1553,1,1566.0999999977648,278156.19999999925,7058,WL,B,12.0
2,15.810999870300293,learn,44189.00012969971,Thu Feb 20 2025 09:13:34 GMT-0600 (Central Standard Time),280055.3999999985,A,pu,O,u,316,1,1899.199999999255,278156.19999999925,7058,WL,B,12.0
2,15.944999933242798,learn,44055.0000667572,Thu Feb 20 2025 09:13:34 GMT-0600 (Central Standard Time),280188.8999999985,A,pup,O,p,117,1,2032.699999999255,278156.19999999925,7058,WL,B,12.0
2,16.16100001335144,learn,43838.99998664856,Thu Feb 20 2025 09:13:34 GMT-0600 (Central Standard Time),280405.59999999776,A,pupi,O,i,207,1,2249.39999999851,278156.19999999925,7058,WL,B,12.0
2,16.27900004386902,learn,43720.99995613098,Thu Feb 20 2025 09:13:34 GMT-0600 (Central Standard Time),280523.09999999776,A,pupil,O,l,111,1,2366.89999999851,278156.19999999925,7058,WL,B,12.0
2,16.67799997329712,learn,43322.00002670288,Thu Feb 20 2025 09:13:34 GMT-0600 (Central Standard Time),280922.0,A,pupilenter,O,enter,385,1,2765.800000000745,278156.19999999925,7058,WL,B,12.0
2,19.30999994277954,learn,40690.00005722046,Thu Feb 20 2025 09:13:34 GMT-0600 (Central Standard Time),283554.299999997,A,s,O,s,2618,1,2632.0,280922.299999997,7058,WL,B,13.0
2,19.960999965667725,learn,40039.000034332275,Thu Feb 20 2025 09:13:34 GMT-0600 (Central Standard Time),284205.299999997,A,,O,backspace,643,1,3283.0,280922.299999997,7058,WL,B,13.0
2,24.79200005531311,learn,35207.99994468689,Thu Feb 20 2025 09:13:34 GMT-0600 (Central Standard Time),289036.09999999776,A,l,O,l,4823,1,8113.800000000745,280922.299999997,7058,WL,B,13.0
2,24.924999952316284,learn,35075.000047683716,Thu Feb 20 2025 09:13:34 GMT-0600 (Central Standard Time),289169.3999999985,A,la,O,a,120,1,8247.10000000149,280922.299999997,7058,WL,B,13.0
2,25.04200005531311,learn,34957.99994468689,Thu Feb 20 2025 09:13:34 GMT-0600 (Central Standard Time),289286.0,A,lak,O,k,108,1,8363.70000000298,280922.299999997,7058,WL,B,13.0
2,25.14199995994568,learn,34858.00004005432,Thu Feb 20 2025 09:13:34 GMT-0600 (Central Standard Time),289386.0,A,lake,O,e,87,1,8463.70000000298,280922.299999997,7058,WL,B,13.0
2,25.657999992370605,learn,34342.000007629395,Thu Feb 20 2025 09:13:34 GMT-0600 (Central Standard Time),289902.5,A,lakeenter,O,enter,498,1,8980.20000000298,280922.299999997,7058,WL,B,13.0
2,40.33699989318848,learn,19663.000106811523,Thu Feb 20 2025 09:13:34 GMT-0600 (Central Standard Time),304581.09999999776,A,l,O,l,14662,1,14678.300000000745,289902.799999997,7058,WL,B,14.0
2,40.4539999961853,learn,19546.000003814697,Thu Feb 20 2025 09:13:34 GMT-0600 (Central Standard Time),304697.8999999985,A,la,O,a,103,1,14795.10000000149,289902.799999997,7058,WL,B,14.0
2,40.58699989318848,learn,19413.000106811523,Thu Feb 20 2025 09:13:34 GMT-0600 (Central Standard Time),304831.19999999925,A,lak,O,k,114,1,14928.400000002235,289902.799999997,7058,WL,B,14.0
2,40.687000036239624,learn,19312.999963760376,Thu Feb 20 2025 09:13:34 GMT-0600 (Central Standard Time),304931.0,A,lake,O,e,93,1,15028.20000000298,289902.799999997,7058,WL,B,14.0
2,40.83699989318848,learn,19163.000106811523,Thu Feb 20 2025 09:13:34 GMT-0600 (Central Standard Time),305080.8999999985,A,lakeenter,O,enter,137,1,15178.10000000149,289902.799999997,7058,WL,B,14.0
2,50.33299994468689,learn,9667.00005531311,Thu Feb 20 2025 09:13:34 GMT-0600 (Central Standard Time),314577.799999997,A,s,O,s,9492,1,9496.5,305081.299999997,7058,WL,B,15.0
2,50.56699991226196,learn,9433.000087738037,Thu Feb 20 2025 09:13:34 GMT-0600 (Central Standard Time),314811.3999999985,A,st,O,t,226,1,9730.10000000149,305081.299999997,7058,WL,B,15.0
2,50.76699995994568,learn,9233.000040054321,Thu Feb 20 2025 09:13:34 GMT-0600 (Central Standard Time),315011.299999997,A,str,O,r,185,1,9930.0,305081.299999997,7058,WL,B,15.0
2,50.799999952316284,learn,9200.000047683716,Thu Feb 20 2025 09:13:34 GMT-0600 (Central Standard Time),315044.3999999985,A,stre,O,e,25,1,9963.10000000149,305081.299999997,7058,WL,B,15.0
2,50.98399996757507,learn,9016.000032424927,Thu Feb 20 2025 09:13:34 GMT-0600 (Central Standard Time),315228.0,A,stree,O,e,168,1,10146.70000000298,305081.299999997,7058,WL,B,15.0
2,51.01699995994568,learn,8983.000040054321,Thu Feb 20 2025 09:13:34 GMT-0600 (Central Standard Time),315261.09999999776,A,street,O,t,16,1,10179.800000000745,305081.299999997,7058,WL,B,15.0
2,51.132999897003174,learn,8867.000102996826,Thu Feb 20 2025 09:13:34 GMT-0600 (Central Standard Time),315377.5,A,streetenter,O,enter,103,1,10296.20000000298,305081.299999997,7058,WL,B,15.0
3,0.4830000400543213,learn,59516.99995994568,Thu Feb 20 2025 09:13:34 GMT-0600 (Central Standard Time),381240.6000000015,A,c,O,c,472,1,483.0,380757.6000000015,7058,WL,B,1.0
3,0.5499999523162842,learn,59450.000047683716,Thu Feb 20 2025 09:13:34 GMT-0600 (Central Standard Time),381307.1000000015,A,cl,O,l,59,1,549.5,380757.6000000015,7058,WL,B,1.0
3,0.7000000476837158,learn,59299.999952316284,Thu Feb 20 2025 09:13:34 GMT-0600 (Central Standard Time),381457.1000000015,A,clo,O,o,138,1,699.5,380757.6000000015,7058,WL,B,1.0
3,0.7829999923706055,learn,59217.000007629395,Thu Feb 20 2025 09:13:34 GMT-0600 (Central Standard Time),381540.5,A,cloc,O,c,67,1,782.8999999985099,380757.6000000015,7058,WL,B,1.0
3,0.8659999370574951,learn,59134.000062942505,Thu Feb 20 2025 09:13:34 GMT-0600 (Central Standard Time),381623.6000000015,A,clock,O,k,71,1,866.0,380757.6000000015,7058,WL,B,1.0
3,1.065999984741211,learn,58934.00001525879,Thu Feb 20 2025 09:13:34 GMT-0600 (Central Standard Time),381823.799999997,A,clockenter,O,enter,180,1,1066.1999999955297,380757.6000000015,7058,WL,B,1.0
3,1.315999984741211,learn,58684.00001525879,Thu Feb 20 2025 09:13:34 GMT-0600 (Central Standard Time),382073.69999999553,A,s,O,s,245,1,249.5,381824.19999999553,7058,WL,B,2.0
3,1.432999849319458,learn,58567.00015068054,Thu Feb 20 2025 09:13:34 GMT-0600 (Central Standard Time),382190.19999999553,A,sk,O,k,107,1,366.0,381824.19999999553,7058,WL,B,2.0
3,1.6659998893737793,learn,58334.00011062622,Thu Feb 20 2025 09:13:34 GMT-0600 (Central Standard Time),382423.5,A,skn,O,n,214,1,599.3000000044703,381824.19999999553,7058,WL,B,2.0
3,2.0490000247955322,learn,57950.99997520447,Thu Feb 20 2025 09:13:34 GMT-0600 (Central Standard Time),382806.799999997,A,sk,O,backspace,365,1,982.6000000014901,381824.19999999553,7058,WL,B,2.0
3,2.2159998416900635,learn,57784.00015830994,Thu Feb 20 2025 09:13:34 GMT-0600 (Central Standard Time),382973.299999997,A,ski,O,i,149,1,1149.1000000014901,381824.19999999553,7058,WL,B,2.0
3,2.2990000247955322,learn,57700.99997520447,Thu Feb 20 2025 09:13:34 GMT-0600 (Central Standard Time),383056.3999999985,A,skin,O,n,63,1,1232.2000000029802,381824.19999999553,7058,WL,B,2.0
3,2.4659998416900635,learn,57534.00015830994,Thu Feb 20 2025 09:13:34 GMT-0600 (Central Standard Time),383223.3999999985,A,skinenter,O,enter,148,1,1399.2000000029802,381824.19999999553,7058,WL,B,2.0
3,2.998999834060669,learn,57001.00016593933,Thu Feb 20 2025 09:13:34 GMT-0600 (Central Standard Time),383756.3999999985,A,p,O,p,517,1,532.7000000029802,383223.69999999553,7058,WL,B,3.0
3,3.181999921798706,learn,56818.000078201294,Thu Feb 20 2025 09:13:34 GMT-0600 (Central Standard Time),383939.6000000015,A,pi,O,i,176,1,715.9000000059605,383223.69999999553,7058,WL,B,3.0
3,3.315999984741211,learn,56684.00001525879,Thu Feb 20 2025 09:13:34 GMT-0600 (Central Standard Time),384073.0,A,pip,O,p,113,1,849.3000000044703,383223.69999999553,7058,WL,B,3.0
3,3.6489999294281006,learn,56351.0000705719,Thu Feb 20 2025 09:13:34 GMT-0600 (Central Standard Time),384406.1000000015,A,pipe,O,e,315,1,1182.4000000059605,383223.69999999553,7058,WL,B,3.0
3,3.8489999771118164,learn,56151.00002288818,Thu Feb 20 2025 09:13:34 GMT-0600 (Central Standard Time),384606.19999999553,A,pipeenter,O,enter,190,1,1382.5,383223.69999999553,7058,WL,B,3.0
3,4.049000024795532,learn,55950.99997520447,Thu Feb 20 2025 09:13:34 GMT-0600 (Central Standard Time),384806.1000000015,A,f,O,f,190,1,199.5,384606.6000000015,7058,WL,B,4.0
3,4.181999921798706,learn,55818.000078201294,Thu Feb 20 2025 09:13:34 GMT-0600 (Central Standard Time),384939.6000000015,A,fi,O,i,118,1,333.0,384606.6000000015,7058,WL,B,4.0
3,4.266000032424927,learn,55733.99996757507,Thu Feb 20 2025 09:13:34 GMT-0600 (Central Standard Time),385023.69999999553,A,fir,O,r,73,1,417.09999999403954,384606.6000000015,7058,WL,B,4.0
3,4.332000017166138,learn,55667.99998283386,Thu Feb 20 2025 09:13:34 GMT-0600 (Central Standard Time),385089.3999999985,A,fire,O,e,60,1,482.79999999701977,384606.6000000015,7058,WL,B,4.0
3,4.431999921798706,learn,55568.000078201294,Thu Feb 20 2025 09:13:34 GMT-0600 (Central Standard Time),385189.3999999985,A,fireenter,O,enter,91,1,582.7999999970198,384606.6000000015,7058,WL,B,4.0
3,4.5980000495910645,learn,55401.999950408936,Thu Feb 20 2025 09:13:34 GMT-0600 (Central Standard Time),385355.799999997,A,c,O,c,159,1,166.10000000149012,385189.69999999553,7058,WL,B,5.0
3,4.697999954223633,learn,55302.00004577637,Thu Feb 20 2025 09:13:34 GMT-0600 (Central Standard Time),385455.799999997,A,ca,O,a,80,1,266.1000000014901,385189.69999999553,7058,WL,B,5.0
3,4.797999858856201,learn,55202.0001411438,Thu Feb 20 2025 09:13:34 GMT-0600 (Central Standard Time),385555.799999997,A,cab,O,b,92,1,366.1000000014901,385189.69999999553,7058,WL,B,5.0
3,4.931999921798706,learn,55068.000078201294,Thu Feb 20 2025 09:13:34 GMT-0600 (Central Standard Time),385689.19999999553,A,cabi,O,i,113,1,499.5,385189.69999999553,7058,WL,B,5.0
3,4.997999906539917,learn,55002.00009346008,Thu Feb 20 2025 09:13:34 GMT-0600 (Central Standard Time),385755.6000000015,A,cabin,O,n,59,1,565.9000000059605,385189.69999999553,7058,WL,B,5.0
3,5.38100004196167,learn,54618.99995803833,Thu Feb 20 2025 09:13:34 GMT-0600 (Central Standard Time),386138.8999999985,A,cabinenter,O,enter,377,1,949.2000000029802,385189.69999999553,7058,WL,B,5.0
3,5.580999851226807,learn,54419.00014877319,Thu Feb 20 2025 09:13:34 GMT-0600 (Central Standard Time),386339.0,A,c,O,c,185,1,199.70000000298023,386139.299999997,7058,WL,B,6.0
3,5.697999954223633,learn,54302.00004577637,Thu Feb 20 2025 09:13:34 GMT-0600 (Central Standard Time),386455.5,A,ci,O,i,105,1,316.20000000298023,386139.299999997,7058,WL,B,6.0
3,5.815000057220459,learn,54184.99994277954,Thu Feb 20 2025 09:13:34 GMT-0600 (Central Standard Time),386572.19999999553,A,cit,O,t,101,1,432.8999999985099,386139.299999997,7058,WL,B,6.0
3,5.930999994277954,learn,54069.000005722046,Thu Feb 20 2025 09:13:34 GMT-0600 (Central Standard Time),386688.799999997,A,city,O,y,96,1,549.5,386139.299999997,7058,WL,B,6.0
3,6.115000009536743,learn,53884.99999046326,Thu Feb 20 2025 09:13:34 GMT-0600 (Central Standard Time),386872.19999999553,A,cityenter,O,enter,171,1,732.8999999985099,386139.299999997,7058,WL,B,6.0
3,6.414000034332275,learn,53585.999965667725,Thu Feb 20 2025 09:13:34 GMT-0600 (Central Standard Time),387171.8999999985,A,g,O,g,284,1,299.3999999985099,386872.5,7058,WL,B,7.0
3,6.613999843597412,learn,53386.00015640259,Thu Feb 20 2025 09:13:34 GMT-0600 (Central Standard Time),387371.8999999985,A,gr,O,r,184,1,499.3999999985099,386872.5,7058,WL,B,7.0
3,6.697999954223633,learn,53302.00004577637,Thu Feb 20 2025 09:13:34 GMT-0600 (Central Standard Time),387455.6000000015,A,gra,O,a,64,1,583.1000000014901,386872.5,7058,WL,B,7.0
3,6.980999946594238,learn,53019.00005340576,Thu Feb 20 2025 09:13:34 GMT-0600 (Central Standard Time),387738.19999999553,A,gras,O,s,277,1,865.6999999955297,386872.5,7058,WL,B,7.0
3,7.164000034332275,learn,52835.999965667725,Thu Feb 20 2025 09:13:34 GMT-0600 (Central Standard Time),387921.6000000015,A,grass,O,s,163,1,1049.1000000014901,386872.5,7058,WL,B,7.0
3,7.263999938964844,learn,52736.000061035156,Thu Feb 20 2025 09:13:34 GMT-0600 (Central Standard Time),388021.5,A,grassenter,O,enter,83,1,1149.0,386872.5,7058,WL,B,7.0
3,7.398999929428101,learn,52601.0000705719,Thu Feb 20 2025 09:13:34 GMT-0600 (Central Standard Time),388156.19999999553,A,s,O,s,119,1,134.19999999552965,388022.0,7058,WL,B,8.0
3,7.496999979019165,learn,52503.000020980835,Thu Feb 20 2025 09:13:34 GMT-0600 (Central Standard Time),388254.8999999985,A,st,O,t,80,1,232.89999999850988,388022.0,7058,WL,B,8.0
3,7.63100004196167,learn,52368.99995803833,Thu Feb 20 2025 09:13:34 GMT-0600 (Central Standard Time),388388.3999999985,A,str,O,r,125,1,366.3999999985099,388022.0,7058,WL,B,8.0
3,7.71399998664856,learn,52286.00001335144,Thu Feb 20 2025 09:13:34 GMT-0600 (Central Standard Time),388471.799999997,A,stre,O,e,64,1,449.79999999701977,388022.0,7058,WL,B,8.0
3,7.846999883651733,learn,52153.00011634827,Thu Feb 20 2025 09:13:34 GMT-0600 (Central Standard Time),388604.799999997,A,stree,O,e,125,1,582.7999999970198,388022.0,7058,WL,B,8.0
3,8.346999883651733,learn,51653.00011634827,Thu Feb 20 2025 09:13:34 GMT-0600 (Central Standard Time),389104.6000000015,A,street,O,t,488,1,1082.6000000014901,388022.0,7058,WL,B,8.0
3,8.496999979019165,learn,51503.000020980835,Thu Feb 20 2025 09:13:34 GMT-0600 (Central Standard Time),389254.6000000015,A,streetenter,O,enter,132,1,1232.6000000014901,388022.0,7058,WL,B,8.0
3,8.679999828338623,learn,51320.00017166138,Thu Feb 20 2025 09:13:34 GMT-0600 (Central Standard Time),389438.0,A,a,O,a,166,1,183.10000000149012,389254.8999999985,7058,WL,B,9.0
3,8.746999979019165,learn,51253.000020980835,Thu Feb 20 2025 09:13:34 GMT-0600 (Central Standard Time),389504.8999999985,A,ar,O,r,54,1,250.0,389254.8999999985,7058,WL,B,9.0
3,8.929999828338623,learn,51070.00017166138,Thu Feb 20 2025 09:13:34 GMT-0600 (Central Standard Time),389688.0,A,arm,O,m,164,1,433.1000000014901,389254.8999999985,7058,WL,B,9.0
3,9.662999868392944,learn,50337.000131607056,Thu Feb 20 2025 09:13:34 GMT-0600 (Central Standard Time),390421.0,A,armenter,O,enter,716,1,1166.1000000014901,389254.8999999985,7058,WL,B,9.0
3,9.980999946594238,learn,50019.00005340576,Thu Feb 20 2025 09:13:34 GMT-0600 (Central Standard Time),390738.69999999553,A,p,O,p,297,1,317.3999999985099,390421.299999997,7058,WL,B,10.0
3,10.44700002670288,learn,49552.99997329712,Thu Feb 20 2025 09:13:34 GMT-0600 (Central Standard Time),391204.0,A,pu,O,u,450,1,782.7000000029802,390421.299999997,7058,WL,B,10.0
3,10.61299991607666,learn,49387.00008392334,Thu Feb 20 2025 09:13:34 GMT-0600 (Central Standard Time),391370.3999999985,A,pup,O,p,161,1,949.1000000014901,390421.299999997,7058,WL,B,10.0
3,10.94599986076355,learn,49054.00013923645,Thu Feb 20 2025 09:13:34 GMT-0600 (Central Standard Time),391703.799999997,A,pupi,O,i,321,1,1282.5,390421.299999997,7058,WL,B,10.0
3,11.11299991607666,learn,48887.00008392334,Thu Feb 20 2025 09:13:34 GMT-0600 (Central Standard Time),391870.3999999985,A,pupil,O,l,157,1,1449.1000000014901,390421.299999997,7058,WL,B,10.0
3,11.329999923706055,learn,48670.000076293945,Thu Feb 20 2025 09:13:34 GMT-0600 (Central Standard Time),392087.1000000015,A,pupilenter,O,enter,198,1,1665.8000000044703,390421.299999997,7058,WL,B,10.0
3,11.546000003814697,learn,48453.9999961853,Thu Feb 20 2025 09:13:34 GMT-0600 (Central Standard Time),392303.69999999553,A,s,O,s,197,1,216.19999999552965,392087.5,7058,WL,B,11.0
3,11.628999948501587,learn,48371.00005149841,Thu Feb 20 2025 09:13:34 GMT-0600 (Central Standard Time),392387.0,A,st,O,t,76,1,299.5,392087.5,7058,WL,B,11.0
3,11.69599986076355,learn,48304.00013923645,Thu Feb 20 2025 09:13:34 GMT-0600 (Central Standard Time),392453.799999997,A,sta,O,a,58,1,366.29999999701977,392087.5,7058,WL,B,11.0
3,11.779000043869019,learn,48220.99995613098,Thu Feb 20 2025 09:13:34 GMT-0600 (Central Standard Time),392536.8999999985,A,star,O,r,72,1,449.3999999985099,392087.5,7058,WL,B,11.0
3,11.929999828338623,learn,48070.00017166138,Thu Feb 20 2025 09:13:34 GMT-0600 (Central Standard Time),392687.0,A,start,O,t,140,1,599.5,392087.5,7058,WL,B,11.0
3,12.046000003814697,learn,47953.9999961853,Thu Feb 20 2025 09:13:34 GMT-0600 (Central Standard Time),392803.3999999985,A,startenter,O,enter,109,1,715.8999999985099,392087.5,7058,WL,B,11.0
3,12.19599986076355,learn,47804.00013923645,Thu Feb 20 2025 09:13:34 GMT-0600 (Central Standard Time),392953.5,A,w,O,w,138,1,149.89999999850988,392803.6000000015,7058,WL,B,12.0
3,12.746000051498413,learn,47253.99994850159,Thu Feb 20 2025 09:13:34 GMT-0600 (Central Standard Time),393503.3999999985,A,wi,O,i,539,1,699.7999999970198,392803.6000000015,7058,WL,B,12.0
3,12.878999948501587,learn,47121.00005149841,Thu Feb 20 2025 09:13:34 GMT-0600 (Central Standard Time),393636.5,A,wif,O,f,117,1,832.8999999985099,392803.6000000015,7058,WL,B,12.0
3,12.978999853134155,learn,47021.000146865845,Thu Feb 20 2025 09:13:34 GMT-0600 (Central Standard Time),393736.3999999985,A,wife,O,e,80,1,932.7999999970198,392803.6000000015,7058,WL,B,12.0
3,13.161999940872192,learn,46838.00005912781,Thu Feb 20 2025 09:13:34 GMT-0600 (Central Standard Time),393919.8999999985,A,wifeenter,O,enter,164,1,1116.2999999970198,392803.6000000015,7058,WL,B,12.0
3,14.361999988555908,learn,45638.00001144409,Thu Feb 20 2025 09:13:34 GMT-0600 (Central Standard Time),395119.3999999985,A,w,O,w,1181,1,1199.2000000029802,393920.19999999553,7058,WL,B,13.0
3,14.744999885559082,learn,45255.00011444092,Thu Feb 20 2025 09:13:34 GMT-0600 (Central Standard Time),395502.6000000015,A,wi,O,i,365,1,1582.4000000059605,393920.19999999553,7058,WL,B,13.0
3,14.84500002861023,learn,45154.99997138977,Thu Feb 20 2025 09:13:34 GMT-0600 (Central Standard Time),395602.6000000015,A,win,O,n,87,1,1682.4000000059605,393920.19999999553,7058,WL,B,13.0
3,15.01199984550476,learn,44988.00015449524,Thu Feb 20 2025 09:13:34 GMT-0600 (Central Standard Time),395769.3999999985,A,wind,O,d,154,1,1849.2000000029802,393920.19999999553,7058,WL,B,13.0
3,15.194999933242798,learn,44805.0000667572,Thu Feb 20 2025 09:13:34 GMT-0600 (Central Standard Time),395952.3999999985,A,windo,O,o,163,1,2032.2000000029802,393920.19999999553,7058,WL,B,13.0
3,15.878000020980835,learn,44121.999979019165,Thu Feb 20 2025 09:13:34 GMT-0600 (Central Standard Time),396635.6000000015,A,window,O,w,676,1,2715.4000000059605,393920.19999999553,7058,WL,B,13.0
3,16.560999870300293,learn,43439.00012969971,Thu Feb 20 2025 09:13:34 GMT-0600 (Central Standard Time),397318.69999999553,A,windowenter,O,enter,673,1,3398.5,393920.19999999553,7058,WL,B,13.0
3,17.013000011444092,learn,42986.99998855591,Thu Feb 20 2025 09:13:34 GMT-0600 (Central Standard Time),397770.6000000015,A,d,O,d,438,1,451.6000000014901,397319.0,7058,WL,B,14.0
3,17.17799997329712,learn,42822.00002670288,Thu Feb 20 2025 09:13:34 GMT-0600 (Central Standard Time),397935.3999999985,A,do,O,o,145,1,616.3999999985099,397319.0,7058,WL,B,14.0
3,17.3439998626709,learn,42656.0001373291,Thu Feb 20 2025 09:13:34 GMT-0600 (Central Standard Time),398101.8999999985,A,doo,O,o,157,1,782.8999999985099,397319.0,7058,WL,B,14.0
3,17.527999877929688,learn,42472.00012207031,Thu Feb 20 2025 09:13:34 GMT-0600 (Central Standard Time),398285.19999999553,A,door,O,r,174,1,966.1999999955297,397319.0,7058,WL,B,14.0
3,17.74399995803833,learn,42256.00004196167,Thu Feb 20 2025 09:13:34 GMT-0600 (Central Standard Time),398501.69999999553,A,doorenter,O,enter,208,1,1182.6999999955297,397319.0,7058,WL,B,14.0
3,20.859999895095825,learn,39140.000104904175,Thu Feb 20 2025 09:13:34 GMT-0600 (Central Standard Time),401617.6000000015,A,g,O,g,3102,1,3115.5,398502.1000000015,7058,WL,B,15.0
3,21.042999982833862,learn,38957.00001716614,Thu Feb 20 2025 09:13:34 GMT-0600 (Central Standard Time),401800.8999999985,A,gr,O,r,171,1,3298.7999999970198,398502.1000000015,7058,WL,B,15.0
3,21.092999935150146,learn,38907.00006484985,Thu Feb 20 2025 09:13:34 GMT-0600 (Central Standard Time),401850.799999997,A,gra,O,a,44,1,3348.6999999955297,398502.1000000015,7058,WL,B,15.0
3,21.342999935150146,learn,38657.00006484985,Thu Feb 20 2025 09:13:34 GMT-0600 (Central Standard Time),402100.5,A,gras,O,s,242,1,3598.39999999851,398502.1000000015,7058,WL,B,15.0
3,21.526000022888184,learn,38473.99997711182,Thu Feb 20 2025 09:13:34 GMT-0600 (Central Standard Time),402283.69999999553,A,grass,O,s,176,1,3781.5999999940395,398502.1000000015,7058,WL,B,15.0
3,21.692999839782715,learn,38307.000160217285,Thu Feb 20 2025 09:13:34 GMT-0600 (Central Standard Time),402450.19999999553,A,grassenter,O,enter,161,1,3948.0999999940395,398502.1000000015,7058,WL,B,15.0
4,0.5329999923706055,learn,59467.000007629395,Thu Feb 20 2025 09:13:34 GMT-0600 (Central Standard Time),469229.6000000015,A,s,O,s,516,1,532.7000000029802,468696.8999999985,7058,WL,B,1.0
4,0.6830000877380371,learn,59316.99991226196,Thu Feb 20 2025 09:13:34 GMT-0600 (Central Standard Time),469379.6000000015,A,st,O,t,134,1,682.7000000029802,468696.8999999985,7058,WL,B,1.0
4,0.8659999370574951,learn,59134.000062942505,Thu Feb 20 2025 09:13:34 GMT-0600 (Central Standard Time),469562.69999999553,A,str,O,r,177,1,865.7999999970198,468696.8999999985,7058,WL,B,1.0
4,0.9330000877380371,learn,59066.99991226196,Thu Feb 20 2025 09:13:34 GMT-0600 (Central Standard Time),469629.5,A,stre,O,e,50,1,932.6000000014901,468696.8999999985,7058,WL,B,1.0
4,1.065999984741211,learn,58934.00001525879,Thu Feb 20 2025 09:13:34 GMT-0600 (Central Standard Time),469762.69999999553,A,stree,O,e,119,1,1065.7999999970198,468696.8999999985,7058,WL,B,1.0
4,1.6490001678466797,learn,58350.99983215332,Thu Feb 20 2025 09:13:34 GMT-0600 (Central Standard Time),470346.19999999553,A,street,O,t,563,1,1649.2999999970198,468696.8999999985,7058,WL,B,1.0
4,1.7990000247955322,learn,58200.99997520447,Thu Feb 20 2025 09:13:34 GMT-0600 (Central Standard Time),470495.799999997,A,streetenter,O,enter,130,1,1798.8999999985099,468696.8999999985,7058,WL,B,1.0
4,1.9490001201629639,learn,58050.999879837036,Thu Feb 20 2025 09:13:34 GMT-0600 (Central Standard Time),470645.799999997,A,g,O,g,140,1,149.60000000149012,470496.19999999553,7058,WL,B,2.0
4,2.131999969482422,learn,57868.00003051758,Thu Feb 20 2025 09:13:34 GMT-0600 (Central Standard Time),470829.1000000015,A,gr,O,r,175,1,332.90000000596046,470496.19999999553,7058,WL,B,2.0
4,2.2320001125335693,learn,57767.99988746643,Thu Feb 20 2025 09:13:34 GMT-0600 (Central Standard Time),470929.1000000015,A,gra,O,a,79,1,432.90000000596046,470496.19999999553,7058,WL,B,2.0
4,2.381999969482422,learn,57618.00003051758,Thu Feb 20 2025 09:13:34 GMT-0600 (Central Standard Time),471079.1000000015,A,gras,O,s,139,1,582.9000000059605,470496.19999999553,7058,WL,B,2.0
4,2.565999984741211,learn,57434.00001525879,Thu Feb 20 2025 09:13:34 GMT-0600 (Central Standard Time),471262.5,A,grass,O,s,165,1,766.3000000044703,470496.19999999553,7058,WL,B,2.0
4,2.7160000801086426,learn,57283.99991989136,Thu Feb 20 2025 09:13:34 GMT-0600 (Central Standard Time),471412.5,A,grassenter,O,enter,134,1,916.3000000044703,470496.19999999553,7058,WL,B,2.0
4,2.9820001125335693,learn,57017.99988746643,Thu Feb 20 2025 09:13:34 GMT-0600 (Central Standard Time),471678.799999997,A,d,O,d,248,1,266.0,471412.799999997,7058,WL,B,3.0
4,3.131999969482422,learn,56868.00003051758,Thu Feb 20 2025 09:13:34 GMT-0600 (Central Standard Time),471828.799999997,A,do,O,o,134,1,416.0,471412.799999997,7058,WL,B,3.0
4,3.5989999771118164,learn,56401.00002288818,Thu Feb 20 2025 09:13:34 GMT-0600 (Central Standard Time),472295.19999999553,A,doo,O,o,448,1,882.3999999985099,471412.799999997,7058,WL,B,3.0
4,3.7320001125335693,learn,56267.99988746643,Thu Feb 20 2025 09:13:34 GMT-0600 (Central Standard Time),472428.5,A,door,O,r,117,1,1015.7000000029802,471412.799999997,7058,WL,B,3.0
4,3.881999969482422,learn,56118.00003051758,Thu Feb 20 2025 09:13:34 GMT-0600 (Central Standard Time),472578.69999999553,A,doorenter,O,enter,136,1,1165.8999999985099,471412.799999997,7058,WL,B,3.0
4,4.0320000648498535,learn,55967.99993515015,Thu Feb 20 2025 09:13:34 GMT-0600 (Central Standard Time),472728.5,A,a,O,a,130,1,149.39999999850988,472579.1000000015,7058,WL,B,4.0
4,4.0980000495910645,learn,55901.999950408936,Thu Feb 20 2025 09:13:34 GMT-0600 (Central Standard Time),472795.0,A,ar,O,r,61,1,215.89999999850988,472579.1000000015,7058,WL,B,4.0
4,4.265000104904175,learn,55734.999895095825,Thu Feb 20 2025 09:13:34 GMT-0600 (Central Standard Time),472961.799999997,A,arm,O,m,153,1,382.69999999552965,472579.1000000015,7058,WL,B,4.0
4,4.430999994277954,learn,55569.000005722046,Thu Feb 20 2025 09:13:34 GMT-0600 (Central Standard Time),473128.19999999553,A,armenter,O,enter,147,1,549.0999999940395,472579.1000000015,7058,WL,B,4.0
4,5.89900016784668,learn,54100.99983215332,Thu Feb 20 2025 09:13:34 GMT-0600 (Central Standard Time),474595.6000000015,A,w,O,w,1460,1,1467.1000000014901,473128.5,7058,WL,B,5.0
4,6.031000137329102,learn,53968.9998626709,Thu Feb 20 2025 09:13:34 GMT-0600 (Central Standard Time),474728.1000000015,A,wi,O,i,112,1,1599.6000000014901,473128.5,7058,WL,B,5.0
4,6.115000009536743,learn,53884.99999046326,Thu Feb 20 2025 09:13:34 GMT-0600 (Central Standard Time),474811.3999999985,A,wif,O,f,76,1,1682.8999999985099,473128.5,7058,WL,B,5.0
4,6.215000152587891,learn,53784.99984741211,Thu Feb 20 2025 09:13:34 GMT-0600 (Central Standard Time),474911.299999997,A,wife,O,e,89,1,1782.7999999970198,473128.5,7058,WL,B,5.0
4,6.281000137329102,learn,53718.9998626709,Thu Feb 20 2025 09:13:34 GMT-0600 (Central Standard Time),474977.799999997,A,wifeenter,O,enter,61,1,1849.2999999970198,473128.5,7058,WL,B,5.0
4,6.46399998664856,learn,53536.00001335144,Thu Feb 20 2025 09:13:34 GMT-0600 (Central Standard Time),475160.8999999985,A,s,O,s,171,1,182.70000000298023,474978.19999999553,7058,WL,B,6.0
4,6.54800009727478,learn,53451.99990272522,Thu Feb 20 2025 09:13:34 GMT-0600 (Central Standard Time),475244.69999999553,A,st,O,t,68,1,266.5,474978.19999999553,7058,WL,B,6.0
4,6.680999994277954,learn,53319.000005722046,Thu Feb 20 2025 09:13:34 GMT-0600 (Central Standard Time),475378.0,A,sta,O,a,128,1,399.80000000447035,474978.19999999553,7058,WL,B,6.0
4,6.79800009727478,learn,53201.99990272522,Thu Feb 20 2025 09:13:34 GMT-0600 (Central Standard Time),475494.6000000015,A,star,O,r,108,1,516.4000000059605,474978.19999999553,7058,WL,B,6.0
4,7.3470001220703125,learn,52652.99987792969,Thu Feb 20 2025 09:13:34 GMT-0600 (Central Standard Time),476044.299999997,A,starenter,O,enter,534,1,1066.1000000014901,474978.19999999553,7058,WL,B,6.0
4,7.564000129699707,learn,52435.99987030029,Thu Feb 20 2025 09:13:34 GMT-0600 (Central Standard Time),476260.799999997,A,w,O,w,201,1,216.29999999701977,476044.5,7058,WL,B,7.0
4,7.680000066757202,learn,52319.9999332428,Thu Feb 20 2025 09:13:34 GMT-0600 (Central Standard Time),476377.5,A,wi,O,i,104,1,333.0,476044.5,7058,WL,B,7.0
4,7.763999938964844,learn,52236.000061035156,Thu Feb 20 2025 09:13:34 GMT-0600 (Central Standard Time),476460.6000000015,A,win,O,n,75,1,416.1000000014901,476044.5,7058,WL,B,7.0
4,7.864000082015991,learn,52135.99991798401,Thu Feb 20 2025 09:13:34 GMT-0600 (Central Standard Time),476560.6000000015,A,wind,O,d,88,1,516.1000000014901,476044.5,7058,WL,B,7.0
4,8.77999997138977,learn,51220.00002861023,Thu Feb 20 2025 09:13:34 GMT-0600 (Central Standard Time),477477.0,A,windo,O,o,909,1,1432.5,476044.5,7058,WL,B,7.0
4,8.913000106811523,learn,51086.99989318848,Thu Feb 20 2025 09:13:34 GMT-0600 (Central Standard Time),477610.0,A,window,O,w,127,1,1565.5,476044.5,7058,WL,B,7.0
4,9.080000162124634,learn,50919.999837875366,Thu Feb 20 2025 09:13:34 GMT-0600 (Central Standard Time),477776.8999999985,A,windowenter,O,enter,155,1,1732.3999999985099,476044.5,7058,WL,B,7.0
4,9.397000074386597,learn,50602.9999256134,Thu Feb 20 2025 09:13:34 GMT-0600 (Central Standard Time),478093.6000000015,A,c,O,c,308,1,316.40000000596046,477777.19999999553,7058,WL,B,8.0
4,9.562999963760376,learn,50437.000036239624,Thu Feb 20 2025 09:13:34 GMT-0600 (Central Standard Time),478260.1000000015,A,ci,O,i,159,1,482.90000000596046,477777.19999999553,7058,WL,B,8.0
4,9.69700002670288,learn,50302.99997329712,Thu Feb 20 2025 09:13:34 GMT-0600 (Central Standard Time),478393.5,A,cit,O,t,120,1,616.3000000044703,477777.19999999553,7058,WL,B,8.0
4,9.930000066757202,learn,50069.9999332428,Thu Feb 20 2025 09:13:34 GMT-0600 (Central Standard Time),478626.69999999553,A,citenter,O,enter,219,1,849.5,477777.19999999553,7058,WL,B,8.0
4,10.097000122070312,learn,49902.99987792969,Thu Feb 20 2025 09:13:34 GMT-0600 (Central Standard Time),478793.3999999985,A,c,O,c,146,1,166.29999999701977,478627.1000000015,7058,WL,B,9.0
4,10.77999997138977,learn,49220.00002861023,Thu Feb 20 2025 09:13:34 GMT-0600 (Central Standard Time),479476.6000000015,A,ca,O,a,675,1,849.5,478627.1000000015,7058,WL,B,9.0
4,10.963000059127808,learn,49036.99994087219,Thu Feb 20 2025 09:13:34 GMT-0600 (Central Standard Time),479659.6000000015,A,cab,O,b,167,1,1032.5,478627.1000000015,7058,WL,B,9.0
4,11.146000146865845,learn,48853.999853134155,Thu Feb 20 2025 09:13:34 GMT-0600 (Central Standard Time),479842.8999999985,A,cabi,O,i,169,1,1215.7999999970198,478627.1000000015,7058,WL,B,9.0
4,11.496000051498413,learn,48503.99994850159,Thu Feb 20 2025 09:13:34 GMT-0600 (Central Standard Time),480193.0,A,cabin,O,n,329,1,1565.8999999985099,478627.1000000015,7058,WL,B,9.0
4,12.161999940872192,learn,47838.00005912781,Thu Feb 20 2025 09:13:34 GMT-0600 (Central Standard Time),480859.5,A,cabinenter,O,enter,659,1,2232.39999999851,478627.1000000015,7058,WL,B,9.0
4,12.878999948501587,learn,47121.00005149841,Thu Feb 20 2025 09:13:34 GMT-0600 (Central Standard Time),481575.6000000015,A,f,O,f,697,1,715.8000000044703,480859.799999997,7058,WL,B,10.0
4,12.979000091552734,learn,47020.999908447266,Thu Feb 20 2025 09:13:34 GMT-0600 (Central Standard Time),481675.799999997,A,fi,O,i,93,1,816.0,480859.799999997,7058,WL,B,10.0
4,13.111999988555908,learn,46888.00001144409,Thu Feb 20 2025 09:13:34 GMT-0600 (Central Standard Time),481809.0,A,fir,O,r,121,1,949.2000000029802,480859.799999997,7058,WL,B,10.0
4,13.212000131607056,learn,46787.999868392944,Thu Feb 20 2025 09:13:34 GMT-0600 (Central Standard Time),481908.8999999985,A,fire,O,e,83,1,1049.1000000014901,480859.799999997,7058,WL,B,10.0
4,13.394999980926514,learn,46605.000019073486,Thu Feb 20 2025 09:13:34 GMT-0600 (Central Standard Time),482092.299999997,A,fireenter,O,enter,177,1,1232.5,480859.799999997,7058,WL,B,10.0
4,13.694999933242798,learn,46305.0000667572,Thu Feb 20 2025 09:13:34 GMT-0600 (Central Standard Time),482392.19999999553,A,l,O,l,289,1,299.59999999403954,482092.6000000015,7058,WL,B,11.0
4,13.828999996185303,learn,46171.0000038147,Thu Feb 20 2025 09:13:34 GMT-0600 (Central Standard Time),482525.6000000015,A,la,O,a,124,1,433.0,482092.6000000015,7058,WL,B,11.0
4,14.07800006866455,learn,45921.99993133545,Thu Feb 20 2025 09:13:34 GMT-0600 (Central Standard Time),482775.3999999985,A,lak,O,k,239,1,682.7999999970198,482092.6000000015,7058,WL,B,11.0
4,14.212000131607056,learn,45787.999868392944,Thu Feb 20 2025 09:13:34 GMT-0600 (Central Standard Time),482908.6000000015,A,lake,O,e,117,1,816.0,482092.6000000015,7058,WL,B,11.0
4,14.34500002861023,learn,45654.99997138977,Thu Feb 20 2025 09:13:34 GMT-0600 (Central Standard Time),483042.0,A,lakeenter,O,enter,112,1,949.3999999985099,482092.6000000015,7058,WL,B,11.0
4,15.16100001335144,learn,44838.99998664856,Thu Feb 20 2025 09:13:34 GMT-0600 (Central Standard Time),483858.19999999553,A,s,O,s,812,1,815.8999999985099,483042.299999997,7058,WL,B,12.0
4,15.34500002861023,learn,44654.99997138977,Thu Feb 20 2025 09:13:34 GMT-0600 (Central Standard Time),484041.69999999553,A,sk,O,k,178,1,999.3999999985099,483042.299999997,7058,WL,B,12.0
4,15.545000076293945,learn,44454.999923706055,Thu Feb 20 2025 09:13:34 GMT-0600 (Central Standard Time),484241.5,A,ski,O,i,195,1,1199.2000000029802,483042.299999997,7058,WL,B,12.0
4,15.611000061035156,learn,44388.999938964844,Thu Feb 20 2025 09:13:34 GMT-0600 (Central Standard Time),484308.3999999985,A,skin,O,n,52,1,1266.1000000014901,483042.299999997,7058,WL,B,12.0
4,15.944000005722046,learn,44055.999994277954,Thu Feb 20 2025 09:13:34 GMT-0600 (Central Standard Time),484641.299999997,A,skinenter,O,enter,312,1,1599.0,483042.299999997,7058,WL,B,12.0
4,16.694000005722046,learn,43305.999994277954,Thu Feb 20 2025 09:13:34 GMT-0600 (Central Standard Time),485391.299999997,A,c,O,c,738,1,749.6000000014901,484641.69999999553,7058,WL,B,13.0
4,16.794000148773193,learn,43205.99985122681,Thu Feb 20 2025 09:13:34 GMT-0600 (Central Standard Time),485491.299999997,A,cl,O,l,85,1,849.6000000014901,484641.69999999553,7058,WL,B,13.0
4,17.49399995803833,learn,42506.00004196167,Thu Feb 20 2025 09:13:34 GMT-0600 (Central Standard Time),486191.0,A,clo,O,o,689,1,1549.3000000044703,484641.69999999553,7058,WL,B,13.0
4,17.677000045776367,learn,42322.99995422363,Thu Feb 20 2025 09:13:34 GMT-0600 (Central Standard Time),486374.19999999553,A,cloc,O,c,165,1,1732.5,484641.69999999553,7058,WL,B,13.0
4,17.776999950408936,learn,42223.000049591064,Thu Feb 20 2025 09:13:34 GMT-0600 (Central Standard Time),486474.19999999553,A,clock,O,k,94,1,1832.5,484641.69999999553,7058,WL,B,13.0
4,18.627000093460083,learn,41372.99990653992,Thu Feb 20 2025 09:13:34 GMT-0600 (Central Standard Time),487324.1000000015,A,clockenter,O,enter,834,1,2682.4000000059605,484641.69999999553,7058,WL,B,13.0
4,21.87600016593933,learn,38123.99983406067,Thu Feb 20 2025 09:13:34 GMT-0600 (Central Standard Time),490572.8999999985,A,p,O,p,3241,1,3248.5,487324.3999999985,7058,WL,B,14.0
4,22.108999967575073,learn,37891.00003242493,Thu Feb 20 2025 09:13:34 GMT-0600 (Central Standard Time),490806.19999999553,A,pi,O,i,215,1,3481.7999999970198,487324.3999999985,7058,WL,B,14.0
4,22.292999982833862,learn,37707.00001716614,Thu Feb 20 2025 09:13:34 GMT-0600 (Central Standard Time),490989.5,A,pip,O,p,174,1,3665.10000000149,487324.3999999985,7058,WL,B,14.0
4,22.759000062942505,learn,37240.999937057495,Thu Feb 20 2025 09:13:34 GMT-0600 (Central Standard Time),491455.8999999985,A,pipe,O,e,456,1,4131.5,487324.3999999985,7058,WL,B,14.0
4,23.200999975204468,learn,36799.00002479553,Thu Feb 20 2025 09:13:34 GMT-0600 (Central Standard Time),491898.3999999985,A,pipeenter,O,enter,422,1,4574.0,487324.3999999985,7058,WL,B,14.0
4,25.558000087738037,learn,34441.99991226196,Thu Feb 20 2025 09:13:34 GMT-0600 (Central Standard Time),494255.1000000015,A,f,O,f,2346,1,2356.4000000059605,491898.69999999553,7058,WL,B,15.0
4,25.69099998474121,learn,34309.00001525879,Thu Feb 20 2025 09:13:34 GMT-0600 (Central Standard Time),494388.19999999553,A,fi,O,i,125,1,2489.5,491898.69999999553,7058,WL,B,15.0
4,25.808000087738037,learn,34191.99991226196,Thu Feb 20 2025 09:13:34 GMT-0600 (Central Standard Time),494505.19999999553,A,fir,O,r,96,1,2606.5,491898.69999999553,7058,WL,B,15.0
4,25.875,learn,34125.0,Thu Feb 20 2025 09:13:34 GMT-0600 (Central Standard Time),494571.5,A,fire,O,e,59,1,2672.8000000044703,491898.69999999553,7058,WL,B,15.0
4,26.008000135421753,learn,33991.99986457825,Thu Feb 20 2025 09:13:34 GMT-0600 (Central Standard Time),494705.0,A,fireenter,O,enter,113,1,2806.3000000044703,491898.69999999553,7058,WL,B,15.0
5,0.4500000476837158,learn,60000.0,Thu Feb 20 2025 09:13:34 GMT-0600 (Central Standard Time),559801.6000000015,A,s,O,s,430,1,450.1000000014901,559351.5,7058,WL,B,1.0
5,0.5329999923706055,learn,60000.0,Thu Feb 20 2025 09:13:34 GMT-0600 (Central Standard Time),559884.6000000015,A,sk,O,k,66,1,533.1000000014901,559351.5,7058,WL,B,1.0
5,0.6830000877380371,learn,60000.0,Thu Feb 20 2025 09:13:34 GMT-0600 (Central Standard Time),560034.299999997,A,ski,O,i,144,1,682.7999999970198,559351.5,7058,WL,B,1.0
5,0.75,learn,60000.0,Thu Feb 20 2025 09:13:34 GMT-0600 (Central Standard Time),560101.3999999985,A,skin,O,n,50,1,749.8999999985099,559351.5,7058,WL,B,1.0
5,1.183000087738037,learn,60000.0,Thu Feb 20 2025 09:13:34 GMT-0600 (Central Standard Time),560534.3999999985,A,skinenter,O,enter,424,1,1182.8999999985099,559351.5,7058,WL,B,1.0
5,1.4670000076293945,learn,60000.0,Thu Feb 20 2025 09:13:34 GMT-0600 (Central Standard Time),560817.799999997,A,f,O,f,278,1,283.0,560534.799999997,7058,WL,B,2.0
5,1.6329998970031738,learn,60000.0,Thu Feb 20 2025 09:13:34 GMT-0600 (Central Standard Time),560984.299999997,A,fi,O,i,147,1,449.5,560534.799999997,7058,WL,B,2.0
5,1.683000087738037,learn,60000.0,Thu Feb 20 2025 09:13:34 GMT-0600 (Central Standard Time),561034.0,A,fir,O,r,44,1,499.20000000298023,560534.799999997,7058,WL,B,2.0
5,1.7660000324249268,learn,60000.0,Thu Feb 20 2025 09:13:34 GMT-0600 (Central Standard Time),561117.5,A,fire,O,e,75,1,582.7000000029802,560534.799999997,7058,WL,B,2.0
5,2.134000062942505,learn,60000.0,Thu Feb 20 2025 09:13:34 GMT-0600 (Central Standard Time),561485.1000000015,A,fireenter,O,enter,350,1,950.3000000044703,560534.799999997,7058,WL,B,2.0
5,2.3329999446868896,learn,60000.0,Thu Feb 20 2025 09:13:34 GMT-0600 (Central Standard Time),561683.8999999985,A,c,O,c,191,1,198.5,561485.3999999985,7058,WL,B,3.0
5,2.4660000801086426,learn,60000.0,Thu Feb 20 2025 09:13:34 GMT-0600 (Central Standard Time),561817.1999999955,A,cl,O,l,112,1,331.79999999701977,561485.3999999985,7058,WL,B,3.0
5,2.615999937057495,learn,60000.0,Thu Feb 20 2025 09:13:34 GMT-0600 (Central Standard Time),561967.299999997,A,clo,O,o,131,1,481.8999999985099,561485.3999999985,7058,WL,B,3.0
5,2.683000087738037,learn,60000.0,Thu Feb 20 2025 09:13:34 GMT-0600 (Central Standard Time),562033.799999997,A,cloc,O,c,62,1,548.3999999985099,561485.3999999985,7058,WL,B,3.0
5,3.3989999294281006,learn,60000.0,Thu Feb 20 2025 09:13:34 GMT-0600 (Central Standard Time),562750.0,A,clock,O,k,699,1,1264.6000000014901,561485.3999999985,7058,WL,B,3.0
5,3.631999969482422,learn,60000.0,Thu Feb 20 2025 09:13:34 GMT-0600 (Central Standard Time),562983.299999997,A,clockenter,O,enter,214,1,1497.8999999985099,561485.3999999985,7058,WL,B,3.0
5,4.015000104904175,learn,60000.0,Thu Feb 20 2025 09:13:34 GMT-0600 (Central Standard Time),563366.5,A,p,O,p,373,1,383.1000000014901,562983.3999999985,7058,WL,B,4.0
5,4.082000017166138,learn,60000.0,Thu Feb 20 2025 09:13:34 GMT-0600 (Central Standard Time),563433.1999999955,A,pi,O,i,61,1,449.79999999701977,562983.3999999985,7058,WL,B,4.0
5,4.2149999141693115,learn,60000.0,Thu Feb 20 2025 09:13:34 GMT-0600 (Central Standard Time),563566.299999997,A,pip,O,p,123,1,582.8999999985099,562983.3999999985,7058,WL,B,4.0
5,4.615999937057495,learn,60000.0,Thu Feb 20 2025 09:13:34 GMT-0600 (Central Standard Time),563966.6999999955,A,pipe,O,e,382,1,983.2999999970198,562983.3999999985,7058,WL,B,4.0
5,4.999000072479248,learn,60000.0,Thu Feb 20 2025 09:13:34 GMT-0600 (Central Standard Time),564349.6999999955,A,pipeenter,O,enter,373,1,1366.2999999970198,562983.3999999985,7058,WL,B,4.0
5,5.365000009536743,learn,60000.0,Thu Feb 20 2025 09:13:34 GMT-0600 (Central Standard Time),564716.3999999985,A,c,O,c,358,1,366.29999999701977,564350.1000000015,7058,WL,B,5.0
5,5.4649999141693115,learn,60000.0,Thu Feb 20 2025 09:13:34 GMT-0600 (Central Standard Time),564816.299999997,A,ca,O,a,88,1,466.19999999552965,564350.1000000015,7058,WL,B,5.0
5,5.5980000495910645,learn,60000.0,Thu Feb 20 2025 09:13:34 GMT-0600 (Central Standard Time),564949.5,A,cab,O,b,124,1,599.3999999985099,564350.1000000015,7058,WL,B,5.0
5,5.732000112533569,learn,60000.0,Thu Feb 20 2025 09:13:34 GMT-0600 (Central Standard Time),565082.8999999985,A,cabi,O,i,119,1,732.7999999970198,564350.1000000015,7058,WL,B,5.0
5,5.831000089645386,learn,60000.0,Thu Feb 20 2025 09:13:34 GMT-0600 (Central Standard Time),565182.6999999955,A,cabin,O,n,90,1,832.5999999940395,564350.1000000015,7058,WL,B,5.0
5,6.04800009727478,learn,60000.0,Thu Feb 20 2025 09:13:34 GMT-0600 (Central Standard Time),565399.5,A,cabinenter,O,enter,206,1,1049.3999999985099,564350.1000000015,7058,WL,B,5.0
5,6.265000104904175,learn,60000.0,Thu Feb 20 2025 09:13:34 GMT-0600 (Central Standard Time),565616.1000000015,A,c,O,c,205,1,216.30000000447035,565399.799999997,7058,WL,B,6.0
5,6.3480000495910645,learn,60000.0,Thu Feb 20 2025 09:13:34 GMT-0600 (Central Standard Time),565699.6999999955,A,ci,O,i,68,1,299.8999999985099,565399.799999997,7058,WL,B,6.0
5,6.497999906539917,learn,60000.0,Thu Feb 20 2025 09:13:34 GMT-0600 (Central Standard Time),565849.3999999985,A,cit,O,t,137,1,449.6000000014901,565399.799999997,7058,WL,B,6.0
5,6.5980000495910645,learn,60000.0,Thu Feb 20 2025 09:13:34 GMT-0600 (Central Standard Time),565949.299999997,A,city,O,y,83,1,549.5,565399.799999997,7058,WL,B,6.0
5,6.747999906539917,learn,60000.0,Thu Feb 20 2025 09:13:34 GMT-0600 (Central Standard Time),566099.1999999955,A,cityenter,O,enter,135,1,699.3999999985099,565399.799999997,7058,WL,B,6.0
5,6.997999906539917,learn,60000.0,Thu Feb 20 2025 09:13:34 GMT-0600 (Central Standard Time),566349.1000000015,A,w,O,w,241,1,249.5,566099.6000000015,7058,WL,B,7.0
5,7.13100004196167,learn,60000.0,Thu Feb 20 2025 09:13:34 GMT-0600 (Central Standard Time),566482.299999997,A,wi,O,i,119,1,382.69999999552965,566099.6000000015,7058,WL,B,7.0
5,7.2149999141693115,learn,60000.0,Thu Feb 20 2025 09:13:34 GMT-0600 (Central Standard Time),566565.6999999955,A,wif,O,f,66,1,466.09999999403954,566099.6000000015,7058,WL,B,7.0
5,7.315000057220459,learn,60000.0,Thu Feb 20 2025 09:13:34 GMT-0600 (Central Standard Time),566665.799999997,A,wife,O,e,88,1,566.1999999955297,566099.6000000015,7058,WL,B,7.0
5,7.398000001907349,learn,60000.0,Thu Feb 20 2025 09:13:34 GMT-0600 (Central Standard Time),566749.0,A,wifeenter,O,enter,75,1,649.3999999985099,566099.6000000015,7058,WL,B,7.0
5,7.563999891281128,learn,60000.0,Thu Feb 20 2025 09:13:34 GMT-0600 (Central Standard Time),566915.5,A,s,O,s,151,1,166.10000000149012,566749.3999999985,7058,WL,B,8.0
5,7.63100004196167,learn,60000.0,Thu Feb 20 2025 09:13:34 GMT-0600 (Central Standard Time),566982.3999999985,A,st,O,t,49,1,233.0,566749.3999999985,7058,WL,B,8.0
5,7.747999906539917,learn,60000.0,Thu Feb 20 2025 09:13:34 GMT-0600 (Central Standard Time),567099.0,A,sta,O,a,110,1,349.6000000014901,566749.3999999985,7058,WL,B,8.0
5,7.88100004196167,learn,60000.0,Thu Feb 20 2025 09:13:34 GMT-0600 (Central Standard Time),567232.1999999955,A,star,O,r,121,1,482.79999999701977,566749.3999999985,7058,WL,B,8.0
5,8.247999906539917,learn,60000.0,Thu Feb 20 2025 09:13:34 GMT-0600 (Central Standard Time),567598.799999997,A,starenter,O,enter,348,1,849.3999999985099,566749.3999999985,7058,WL,B,8.0
5,8.664000034332275,learn,60000.0,Thu Feb 20 2025 09:13:34 GMT-0600 (Central Standard Time),568015.3999999985,A,s,O,s,397,1,416.20000000298023,567599.1999999955,7058,WL,B,9.0
5,8.747999906539917,learn,60000.0,Thu Feb 20 2025 09:13:34 GMT-0600 (Central Standard Time),568099.6000000015,A,st,O,t,78,1,500.40000000596046,567599.1999999955,7058,WL,B,9.0
5,8.930999994277954,learn,60000.0,Thu Feb 20 2025 09:13:34 GMT-0600 (Central Standard Time),568281.799999997,A,str,O,r,169,1,682.6000000014901,567599.1999999955,7058,WL,B,9.0
5,8.980999946594238,learn,60000.0,Thu Feb 20 2025 09:13:34 GMT-0600 (Central Standard Time),568331.799999997,A,stre,O,e,35,1,732.6000000014901,567599.1999999955,7058,WL,B,9.0
5,9.1489999294281,learn,60000.0,Thu Feb 20 2025 09:13:34 GMT-0600 (Central Standard Time),568499.799999997,A,stree,O,e,162,1,900.6000000014901,567599.1999999955,7058,WL,B,9.0
5,9.19700002670288,learn,60000.0,Thu Feb 20 2025 09:13:34 GMT-0600 (Central Standard Time),568548.5,A,street,O,t,41,1,949.3000000044703,567599.1999999955,7058,WL,B,9.0
5,9.347000122070312,learn,60000.0,Thu Feb 20 2025 09:13:34 GMT-0600 (Central Standard Time),568698.5,A,streetenter,O,enter,136,1,1099.3000000044703,567599.1999999955,7058,WL,B,9.0
5,9.513999938964844,learn,60000.0,Thu Feb 20 2025 09:13:34 GMT-0600 (Central Standard Time),568865.1999999955,A,g,O,g,146,1,166.39999999850988,568698.799999997,7058,WL,B,10.0
5,9.680999994277954,learn,60000.0,Thu Feb 20 2025 09:13:34 GMT-0600 (Central Standard Time),569031.6999999955,A,gr,O,r,147,1,332.8999999985099,568698.799999997,7058,WL,B,10.0
5,9.763999938964844,learn,60000.0,Thu Feb 20 2025 09:13:34 GMT-0600 (Central Standard Time),569115.0,A,gra,O,a,77,1,416.20000000298023,568698.799999997,7058,WL,B,10.0
5,10.013999938964844,learn,60000.0,Thu Feb 20 2025 09:13:34 GMT-0600 (Central Standard Time),569364.8999999985,A,gras,O,s,242,1,666.1000000014901,568698.799999997,7058,WL,B,10.0
5,10.180000066757202,learn,60000.0,Thu Feb 20 2025 09:13:34 GMT-0600 (Central Standard Time),569531.5,A,grass,O,s,152,1,832.7000000029802,568698.799999997,7058,WL,B,10.0
5,10.313999891281128,learn,60000.0,Thu Feb 20 2025 09:13:34 GMT-0600 (Central Standard Time),569664.6999999955,A,grassenter,O,enter,113,1,965.8999999985099,568698.799999997,7058,WL,B,10.0
5,10.52999997138977,learn,60000.0,Thu Feb 20 2025 09:13:34 GMT-0600 (Central Standard Time),569881.5,A,a,O,a,204,1,216.39999999850988,569665.1000000015,7058,WL,B,11.0
5,10.579999923706055,learn,60000.0,Thu Feb 20 2025 09:13:34 GMT-0600 (Central Standard Time),569931.3999999985,A,ar,O,r,34,1,266.29999999701977,569665.1000000015,7058,WL,B,11.0
5,11.079999923706055,learn,60000.0,Thu Feb 20 2025 09:13:34 GMT-0600 (Central Standard Time),570431.3999999985,A,arm,O,m,481,1,766.2999999970198,569665.1000000015,7058,WL,B,11.0
5,11.315000057220459,learn,60000.0,Thu Feb 20 2025 09:13:34 GMT-0600 (Central Standard Time),570665.6999999955,A,armenter,O,enter,221,1,1000.5999999940395,569665.1000000015,7058,WL,B,11.0
5,11.480000019073486,learn,60000.0,Thu Feb 20 2025 09:13:34 GMT-0600 (Central Standard Time),570831.1000000015,A,d,O,d,147,1,165.10000000149012,570666.0,7058,WL,B,12.0
5,11.630000114440918,learn,60000.0,Thu Feb 20 2025 09:13:34 GMT-0600 (Central Standard Time),570981.299999997,A,do,O,o,142,1,315.29999999701977,570666.0,7058,WL,B,12.0
5,11.796000003814697,learn,60000.0,Thu Feb 20 2025 09:13:34 GMT-0600 (Central Standard Time),571147.5,A,doo,O,o,159,1,481.5,570666.0,7058,WL,B,12.0
5,11.880000114440918,learn,60000.0,Thu Feb 20 2025 09:13:34 GMT-0600 (Central Standard Time),571231.1000000015,A,door,O,r,65,1,565.1000000014901,570666.0,7058,WL,B,12.0
5,12.395999908447266,learn,60000.0,Thu Feb 20 2025 09:13:34 GMT-0600 (Central Standard Time),571747.6000000015,A,doorenter,O,enter,510,1,1081.6000000014901,570666.0,7058,WL,B,12.0
5,14.628999948501587,learn,60000.0,Thu Feb 20 2025 09:13:34 GMT-0600 (Central Standard Time),573980.1000000015,A,p,O,p,2217,1,2232.2000000029802,571747.8999999985,7058,WL,B,13.0
5,14.812000036239624,learn,60000.0,Thu Feb 20 2025 09:13:34 GMT-0600 (Central Standard Time),574163.5,A,pu,O,u,168,1,2415.60000000149,571747.8999999985,7058,WL,B,13.0
5,14.961999893188477,learn,60000.0,Thu Feb 20 2025 09:13:34 GMT-0600 (Central Standard Time),574313.299999997,A,pup,O,p,137,1,2565.39999999851,571747.8999999985,7058,WL,B,13.0
5,15.196000099182129,learn,60000.0,Thu Feb 20 2025 09:13:34 GMT-0600 (Central Standard Time),574546.799999997,A,pupi,O,i,219,1,2798.89999999851,571747.8999999985,7058,WL,B,13.0
5,15.328999996185303,learn,60000.0,Thu Feb 20 2025 09:13:34 GMT-0600 (Central Standard Time),574679.8999999985,A,pupil,O,l,114,1,2932.0,571747.8999999985,7058,WL,B,13.0
5,15.562000036239624,learn,60000.0,Thu Feb 20 2025 09:13:34 GMT-0600 (Central Standard Time),574913.1000000015,A,pupilenter,O,enter,222,1,3165.2000000029802,571747.8999999985,7058,WL,B,13.0
5,25.908999919891357,learn,60000.0,Thu Feb 20 2025 09:13:34 GMT-0600 (Central Standard Time),585259.799999997,A,l,O,l,10341,1,10346.5,574913.299999997,7058,WL,B,14.0
5,26.05900001525879,learn,60000.0,Thu Feb 20 2025 09:13:34 GMT-0600 (Central Standard Time),585409.6999999955,A,la,O,a,144,1,10496.39999999851,574913.299999997,7058,WL,B,14.0
5,26.191999912261963,learn,60000.0,Thu Feb 20 2025 09:13:34 GMT-0600 (Central Standard Time),585543.1999999955,A,lak,O,k,123,1,10629.89999999851,574913.299999997,7058,WL,B,14.0
5,26.35800004005432,learn,60000.0,Thu Feb 20 2025 09:13:34 GMT-0600 (Central Standard Time),585709.6999999955,A,lake,O,e,149,1,10796.39999999851,574913.299999997,7058,WL,B,14.0
5,26.441999912261963,learn,60000.0,Thu Feb 20 2025 09:13:34 GMT-0600 (Central Standard Time),585793.0,A,lakeenter,O,enter,70,1,10879.70000000298,574913.299999997,7058,WL,B,14.0
5,39.55399990081787,learn,60000.0,Thu Feb 20 2025 09:13:34 GMT-0600 (Central Standard Time),598905.6999999955,A,c,O,c,13100,1,13112.19999999553,585793.5,7058,WL,B,15.0
5,39.63800001144409,learn,60000.0,Thu Feb 20 2025 09:13:34 GMT-0600 (Central Standard Time),598988.8999999985,A,ca,O,a,75,1,13195.39999999851,585793.5,7058,WL,B,15.0
5,39.82100009918213,learn,60000.0,Thu Feb 20 2025 09:13:34 GMT-0600 (Central Standard Time),599172.1000000015,A,cai,O,i,169,1,13378.60000000149,585793.5,7058,WL,B,15.0
5,40.28699994087219,learn,60000.0,Thu Feb 20 2025 09:13:34 GMT-0600 (Central Standard Time),599638.6999999955,A,ca,O,backspace,448,1,13845.19999999553,585793.5,7058,WL,B,15.0
5,40.33800005912781,learn,60000.0,Thu Feb 20 2025 09:13:34 GMT-0600 (Central Standard Time),599688.799999997,A,cab,O,b,38,1,13895.29999999702,585793.5,7058,WL,B,15.0
5,40.55399990081787,learn,60000.0,Thu Feb 20 2025 09:13:34 GMT-0600 (Central Standard Time),599905.5,A,cabi,O,i,196,1,14112.0,585793.5,7058,WL,B,15.0
5,40.687000036239624,learn,60000.0,Thu Feb 20 2025 09:13:34 GMT-0600 (Central Standard Time),600038.6000000015,A,cabin,O,n,115,1,14245.10000000149,585793.5,7058,WL,B,15.0
5,40.98699998855591,learn,60000.0,Thu Feb 20 2025 09:13:34 GMT-0600 (Central Standard Time),600338.1999999955,A,cabinenter,O,enter,294,1,14544.69999999553,585793.5,7058,WL,B,15.0
6,0.4509999752044678,distr,59549.00002479553,Thu Feb 20 2025 09:13:34 GMT-0600 (Central Standard Time),682163.0,B,c,O,c,436,1,449.8999999985099,681713.1000000015,7058,WL,B,1.0
6,0.6340000629425049,distr,59365.999937057495,Thu Feb 20 2025 09:13:34 GMT-0600 (Central Standard Time),682346.299999997,B,ce,O,e,169,1,633.1999999955297,681713.1000000015,7058,WL,B,1.0
6,0.7170000076293945,distr,59282.999992370605,Thu Feb 20 2025 09:13:34 GMT-0600 (Central Standard Time),682429.5,B,cel,O,l,67,1,716.3999999985099,681713.1000000015,7058,WL,B,1.0
6,0.8169999122619629,distr,59183.00008773804,Thu Feb 20 2025 09:13:34 GMT-0600 (Central Standard Time),682529.5,B,cell,O,l,79,1,816.3999999985099,681713.1000000015,7058,WL,B,1.0
6,1.0169999599456787,distr,58983.00004005432,Thu Feb 20 2025 09:13:34 GMT-0600 (Central Standard Time),682729.3999999985,B,cellenter,O,enter,186,1,1016.2999999970198,681713.1000000015,7058,WL,B,1.0
6,1.2000000476837158,distr,58799.999952316284,Thu Feb 20 2025 09:13:34 GMT-0600 (Central Standard Time),682912.3999999985,B,f,O,f,163,1,182.70000000298023,682729.6999999955,7058,WL,B,2.0
6,1.366999864578247,distr,58633.00013542175,Thu Feb 20 2025 09:13:34 GMT-0600 (Central Standard Time),683079.5,B,fr,O,r,148,1,349.80000000447035,682729.6999999955,7058,WL,B,2.0
6,1.4670000076293945,distr,58532.999992370605,Thu Feb 20 2025 09:13:34 GMT-0600 (Central Standard Time),683179.1999999955,B,fri,O,i,93,1,449.5,682729.6999999955,7058,WL,B,2.0
6,1.566999912261963,distr,58433.00008773804,Thu Feb 20 2025 09:13:34 GMT-0600 (Central Standard Time),683279.299999997,B,frie,O,e,81,1,549.6000000014901,682729.6999999955,7058,WL,B,2.0
6,1.6670000553131104,distr,58332.99994468689,Thu Feb 20 2025 09:13:34 GMT-0600 (Central Standard Time),683379.5,B,frien,O,n,85,1,649.8000000044703,682729.6999999955,7058,WL,B,2.0
6,1.75,distr,58250.0,Thu Feb 20 2025 09:13:34 GMT-0600 (Central Standard Time),683462.6000000015,B,friend,O,d,65,1,732.9000000059605,682729.6999999955,7058,WL,B,2.0
6,1.866999864578247,distr,58133.00013542175,Thu Feb 20 2025 09:13:34 GMT-0600 (Central Standard Time),683579.299999997,B,friendenter,O,enter,109,1,849.6000000014901,682729.6999999955,7058,WL,B,2.0
6,2.0829999446868896,distr,57917.00005531311,Thu Feb 20 2025 09:13:34 GMT-0600 (Central Standard Time),683795.6000000015,B,s,O,s,202,1,216.10000000149012,683579.5,7058,WL,B,3.0
6,2.1670000553131104,distr,57832.99994468689,Thu Feb 20 2025 09:13:34 GMT-0600 (Central Standard Time),683879.299999997,B,st,O,t,65,1,299.79999999701977,683579.5,7058,WL,B,3.0
6,2.382999897003174,distr,57617.000102996826,Thu Feb 20 2025 09:13:34 GMT-0600 (Central Standard Time),684095.5,B,sto,O,o,197,1,516.0,683579.5,7058,WL,B,3.0
6,2.5329999923706055,distr,57467.000007629395,Thu Feb 20 2025 09:13:34 GMT-0600 (Central Standard Time),684245.5,B,stor,O,r,133,1,666.0,683579.5,7058,WL,B,3.0
6,2.6670000553131104,distr,57332.99994468689,Thu Feb 20 2025 09:13:34 GMT-0600 (Central Standard Time),684379.0,B,storm,O,m,127,1,799.5,683579.5,7058,WL,B,3.0
6,3.0329999923706055,distr,56967.000007629395,Thu Feb 20 2025 09:13:34 GMT-0600 (Central Standard Time),684745.6000000015,B,stormenter,O,enter,345,1,1166.1000000014901,683579.5,7058,WL,B,3.0
6,3.6989998817443848,distr,56301.000118255615,Thu Feb 20 2025 09:13:34 GMT-0600 (Central Standard Time),685412.0,B,b,O,b,651,1,666.1000000014901,684745.8999999985,7058,WL,B,4.0
6,3.7829999923706055,distr,56217.000007629395,Thu Feb 20 2025 09:13:34 GMT-0600 (Central Standard Time),685495.1999999955,B,ba,O,a,72,1,749.2999999970198,684745.8999999985,7058,WL,B,4.0
6,3.865999937057495,distr,56134.000062942505,Thu Feb 20 2025 09:13:34 GMT-0600 (Central Standard Time),685578.6000000015,B,bab,O,b,69,1,832.7000000029802,684745.8999999985,7058,WL,B,4.0
6,3.998999834060669,distr,56001.00016593933,Thu Feb 20 2025 09:13:34 GMT-0600 (Central Standard Time),685711.6999999955,B,baby,O,y,114,1,965.7999999970198,684745.8999999985,7058,WL,B,4.0
6,4.266000032424927,distr,55733.99996757507,Thu Feb 20 2025 09:13:34 GMT-0600 (Central Standard Time),685978.1999999955,B,babyenter,O,enter,261,1,1232.2999999970198,684745.8999999985,7058,WL,B,4.0
6,4.5329999923706055,distr,55467.000007629395,Thu Feb 20 2025 09:13:34 GMT-0600 (Central Standard Time),686244.8999999985,B,o,O,o,252,1,266.3999999985099,685978.5,7058,WL,B,5.0
6,4.648999929428101,distr,55351.0000705719,Thu Feb 20 2025 09:13:34 GMT-0600 (Central Standard Time),686361.5,B,oc,O,c,97,1,383.0,685978.5,7058,WL,B,5.0
6,4.748999834060669,distr,55251.00016593933,Thu Feb 20 2025 09:13:34 GMT-0600 (Central Standard Time),686461.5,B,oca,O,a,91,1,483.0,685978.5,7058,WL,B,5.0
6,4.848999977111816,distr,55151.00002288818,Thu Feb 20 2025 09:13:34 GMT-0600 (Central Standard Time),686561.5,B,ocae,O,e,95,1,583.0,685978.5,7058,WL,B,5.0
6,5.498999834060669,distr,54501.00016593933,Thu Feb 20 2025 09:13:34 GMT-0600 (Central Standard Time),687211.299999997,B,oca,O,backspace,644,1,1232.7999999970198,685978.5,7058,WL,B,5.0
6,5.582000017166138,distr,54417.99998283386,Thu Feb 20 2025 09:13:34 GMT-0600 (Central Standard Time),687294.799999997,B,ocae,O,e,73,1,1316.2999999970198,685978.5,7058,WL,B,5.0
6,5.648999929428101,distr,54351.0000705719,Thu Feb 20 2025 09:13:34 GMT-0600 (Central Standard Time),687361.1999999955,B,ocaea,O,a,46,1,1382.6999999955297,685978.5,7058,WL,B,5.0
6,6.398999929428101,distr,53601.0000705719,Thu Feb 20 2025 09:13:34 GMT-0600 (Central Standard Time),688111.0,B,ocae,O,backspace,731,1,2132.5,685978.5,7058,WL,B,5.0
6,6.5329999923706055,distr,53467.000007629395,Thu Feb 20 2025 09:13:34 GMT-0600 (Central Standard Time),688245.6000000015,B,oca,O,backspace,117,1,2267.10000000149,685978.5,7058,WL,B,5.0
6,6.681999921798706,distr,53318.000078201294,Thu Feb 20 2025 09:13:34 GMT-0600 (Central Standard Time),688394.299999997,B,oc,O,backspace,135,1,2415.7999999970198,685978.5,7058,WL,B,5.0
6,6.781999826431274,distr,53218.000173568726,Thu Feb 20 2025 09:13:34 GMT-0600 (Central Standard Time),688494.1999999955,B,oce,O,e,82,1,2515.6999999955297,685978.5,7058,WL,B,5.0
6,6.848999977111816,distr,53151.00002288818,Thu Feb 20 2025 09:13:34 GMT-0600 (Central Standard Time),688561.0,B,ocea,O,a,46,1,2582.5,685978.5,7058,WL,B,5.0
6,6.9649999141693115,distr,53035.00008583069,Thu Feb 20 2025 09:13:34 GMT-0600 (Central Standard Time),688677.5,B,ocean,O,n,107,1,2699.0,685978.5,7058,WL,B,5.0
6,7.181999921798706,distr,52818.000078201294,Thu Feb 20 2025 09:13:34 GMT-0600 (Central Standard Time),688894.1999999955,B,oceanenter,O,enter,207,1,2915.6999999955297,685978.5,7058,WL,B,5.0
6,7.547999858856201,distr,52452.0001411438,Thu Feb 20 2025 09:13:34 GMT-0600 (Central Standard Time),689260.6999999955,B,r,O,r,350,1,366.19999999552965,688894.5,7058,WL,B,6.0
6,7.680999994277954,distr,52319.000005722046,Thu Feb 20 2025 09:13:34 GMT-0600 (Central Standard Time),689393.799999997,B,ro,O,o,129,1,499.29999999701977,688894.5,7058,WL,B,6.0
6,7.865000009536743,distr,52134.99999046326,Thu Feb 20 2025 09:13:34 GMT-0600 (Central Standard Time),689577.1999999955,B,roc,O,c,162,1,682.6999999955297,688894.5,7058,WL,B,6.0
6,7.980999946594238,distr,52019.00005340576,Thu Feb 20 2025 09:13:34 GMT-0600 (Central Standard Time),689693.799999997,B,rock,O,k,107,1,799.2999999970198,688894.5,7058,WL,B,6.0
6,8.280999898910522,distr,51719.00010108948,Thu Feb 20 2025 09:13:34 GMT-0600 (Central Standard Time),689993.6999999955,B,rockenter,O,enter,279,1,1099.1999999955297,688894.5,7058,WL,B,6.0
6,9.996999979019165,distr,50003.000020980835,Thu Feb 20 2025 09:13:34 GMT-0600 (Central Standard Time),691709.799999997,B,b,O,b,1699,1,1715.7999999970198,689994.0,7058,WL,B,7.0
6,10.63100004196167,distr,49368.99995803833,Thu Feb 20 2025 09:13:34 GMT-0600 (Central Standard Time),692343.0,B,bu,O,u,615,1,2349.0,689994.0,7058,WL,B,7.0
6,10.71399998664856,distr,49286.00001335144,Thu Feb 20 2025 09:13:34 GMT-0600 (Central Standard Time),692426.1000000015,B,bui,O,i,77,1,2432.10000000149,689994.0,7058,WL,B,7.0
6,10.780999898910522,distr,49219.00010108948,Thu Feb 20 2025 09:13:34 GMT-0600 (Central Standard Time),692493.0,B,buil,O,l,59,1,2499.0,689994.0,7058,WL,B,7.0
6,10.879999876022339,distr,49120.00012397766,Thu Feb 20 2025 09:13:34 GMT-0600 (Central Standard Time),692592.799999997,B,build,O,d,88,1,2598.7999999970198,689994.0,7058,WL,B,7.0
6,11.02999997138977,distr,48970.00002861023,Thu Feb 20 2025 09:13:34 GMT-0600 (Central Standard Time),692742.799999997,B,buildi,O,i,140,1,2748.7999999970198,689994.0,7058,WL,B,7.0
6,11.113999843597412,distr,48886.00015640259,Thu Feb 20 2025 09:13:34 GMT-0600 (Central Standard Time),692826.1000000015,B,buildin,O,n,71,1,2832.10000000149,689994.0,7058,WL,B,7.0
6,11.230000019073486,distr,48769.999980926514,Thu Feb 20 2025 09:13:34 GMT-0600 (Central Standard Time),692942.799999997,B,building,O,g,99,1,2948.7999999970198,689994.0,7058,WL,B,7.0
6,11.563999891281128,distr,48436.00010871887,Thu Feb 20 2025 09:13:34 GMT-0600 (Central Standard Time),693276.1000000015,B,buildingenter,O,enter,326,1,3282.10000000149,689994.0,7058,WL,B,7.0
6,11.812999963760376,distr,48187.000036239624,Thu Feb 20 2025 09:13:34 GMT-0600 (Central Standard Time),693525.6999999955,B,a,O,a,240,1,249.29999999701977,693276.3999999985,7058,WL,B,8.0
6,11.912999868392944,distr,48087.000131607056,Thu Feb 20 2025 09:13:34 GMT-0600 (Central Standard Time),693625.8999999985,B,ar,O,r,87,1,349.5,693276.3999999985,7058,WL,B,8.0
6,12.062999963760376,distr,47937.000036239624,Thu Feb 20 2025 09:13:34 GMT-0600 (Central Standard Time),693775.8999999985,B,arm,O,m,138,1,499.5,693276.3999999985,7058,WL,B,8.0
6,12.246999979019165,distr,47753.000020980835,Thu Feb 20 2025 09:13:34 GMT-0600 (Central Standard Time),693959.3999999985,B,army,O,y,172,1,683.0,693276.3999999985,7058,WL,B,8.0
6,12.71399998664856,distr,47286.00001335144,Thu Feb 20 2025 09:13:34 GMT-0600 (Central Standard Time),694425.8999999985,B,armyenter,O,enter,446,1,1149.5,693276.3999999985,7058,WL,B,8.0
6,20.027999877929688,distr,39972.00012207031,Thu Feb 20 2025 09:13:34 GMT-0600 (Central Standard Time),701740.1000000015,B,s,O,s,7299,1,7313.80000000447,694426.299999997,7058,WL,B,9.0
6,20.128000020980835,distr,39871.999979019165,Thu Feb 20 2025 09:13:34 GMT-0600 (Central Standard Time),701840.0,B,st,O,t,80,1,7413.70000000298,694426.299999997,7058,WL,B,9.0
6,20.194000005722046,distr,39805.999994277954,Thu Feb 20 2025 09:13:34 GMT-0600 (Central Standard Time),701906.6999999955,B,ste,O,e,53,1,7480.39999999851,694426.299999997,7058,WL,B,9.0
6,20.310999870300293,distr,39689.00012969971,Thu Feb 20 2025 09:13:34 GMT-0600 (Central Standard Time),702023.1999999955,B,stea,O,a,106,1,7596.89999999851,694426.299999997,7058,WL,B,9.0
6,20.460999965667725,distr,39539.000034332275,Thu Feb 20 2025 09:13:34 GMT-0600 (Central Standard Time),702173.299999997,B,steam,O,m,133,1,7747.0,694426.299999997,7058,WL,B,9.0
6,20.64400005340576,distr,39355.99994659424,Thu Feb 20 2025 09:13:34 GMT-0600 (Central Standard Time),702356.6000000015,B,steamenter,O,enter,175,1,7930.30000000447,694426.299999997,7058,WL,B,9.0
6,27.64199995994568,distr,32358.00004005432,Thu Feb 20 2025 09:13:34 GMT-0600 (Central Standard Time),709354.3999999985,B,enter,O,enter,6984,1,6997.5,702356.8999999985,7058,WL,B,10.0
6,28.024999856948853,distr,31975.000143051147,Thu Feb 20 2025 09:13:34 GMT-0600 (Central Standard Time),709737.3999999985,B,enter,O,enter,370,1,382.6000000014901,709354.799999997,7058,WL,B,11.0
6,28.35800004005432,distr,31641.99995994568,Thu Feb 20 2025 09:13:34 GMT-0600 (Central Standard Time),710070.799999997,B,enter,O,enter,315,1,332.8999999985099,709737.8999999985,7058,WL,B,12.0
6,28.557999849319458,distr,31442.000150680542,Thu Feb 20 2025 09:13:34 GMT-0600 (Central Standard Time),710270.5,B,enter,O,enter,191,1,199.30000000447035,710071.1999999955,7058,WL,B,13.0
6,28.741999864578247,distr,31258.000135421753,Thu Feb 20 2025 09:13:34 GMT-0600 (Central Standard Time),710454.0,B,enter,O,enter,175,1,183.20000000298023,710270.799999997,7058,WL,B,14.0
6,29.157999992370605,distr,30842.000007629395,Thu Feb 20 2025 09:13:34 GMT-0600 (Central Standard Time),710870.5,B,enter,O,enter,407,1,416.20000000298023,710454.299999997,7058,WL,B,15.0
7,0.815000057220459,immed,59184.99994277954,Thu Feb 20 2025 09:13:34 GMT-0600 (Central Standard Time),731347.3999999985,A,s,O,s,801,1,814.7999999970198,730532.6000000015,7058,WL,B,1.0
7,0.8980000019073486,immed,59101.99999809265,Thu Feb 20 2025 09:13:34 GMT-0600 (Central Standard Time),731430.799999997,A,st,O,t,73,1,898.1999999955297,730532.6000000015,7058,WL,B,1.0
7,1.0809998512268066,immed,58919.00014877319,Thu Feb 20 2025 09:13:34 GMT-0600 (Central Standard Time),731614.0,A,str,O,r,166,1,1081.3999999985099,730532.6000000015,7058,WL,B,1.0
7,1.1480000019073486,immed,58851.99999809265,Thu Feb 20 2025 09:13:34 GMT-0600 (Central Standard Time),731680.6999999955,A,stre,O,e,46,1,1148.0999999940395,730532.6000000015,7058,WL,B,1.0
7,1.2979998588562012,immed,58702.0001411438,Thu Feb 20 2025 09:13:34 GMT-0600 (Central Standard Time),731830.5,A,stree,O,e,132,1,1297.8999999985099,730532.6000000015,7058,WL,B,1.0
7,1.8480000495910645,immed,58151.999950408936,Thu Feb 20 2025 09:13:34 GMT-0600 (Central Standard Time),732380.5,A,street,O,t,542,1,1847.8999999985099,730532.6000000015,7058,WL,B,1.0
7,2.0139999389648438,immed,57986.000061035156,Thu Feb 20 2025 09:13:34 GMT-0600 (Central Standard Time),732546.799999997,A,streetenter,O,enter,160,1,2014.1999999955297,730532.6000000015,7058,WL,B,1.0
7,2.2639999389648438,immed,57736.000061035156,Thu Feb 20 2025 09:13:34 GMT-0600 (Central Standard Time),732797.0,A,g,O,g,242,1,249.89999999850988,732547.1000000015,7058,WL,B,2.0
7,2.447999954223633,immed,57552.00004577637,Thu Feb 20 2025 09:13:34 GMT-0600 (Central Standard Time),732980.3999999985,A,gr,O,r,176,1,433.29999999701977,732547.1000000015,7058,WL,B,2.0
7,2.5309998989105225,immed,57469.00010108948,Thu Feb 20 2025 09:13:34 GMT-0600 (Central Standard Time),733063.5,A,gra,O,a,72,1,516.3999999985099,732547.1000000015,7058,WL,B,2.0
7,2.7139999866485596,immed,57286.00001335144,Thu Feb 20 2025 09:13:34 GMT-0600 (Central Standard Time),733246.8999999985,A,gras,O,s,165,1,699.7999999970198,732547.1000000015,7058,WL,B,2.0
7,2.88100004196167,immed,57118.99995803833,Thu Feb 20 2025 09:13:34 GMT-0600 (Central Standard Time),733413.5,A,grass,O,s,149,1,866.3999999985099,732547.1000000015,7058,WL,B,2.0
7,2.996999979019165,immed,57003.000020980835,Thu Feb 20 2025 09:13:34 GMT-0600 (Central Standard Time),733529.8999999985,A,grassenter,O,enter,103,1,982.7999999970198,732547.1000000015,7058,WL,B,2.0
7,3.180999994277954,immed,56819.000005722046,Thu Feb 20 2025 09:13:34 GMT-0600 (Central Standard Time),733713.6000000015,A,a,O,a,171,1,183.5,733530.1000000015,7058,WL,B,3.0
7,3.246999979019165,immed,56753.000020980835,Thu Feb 20 2025 09:13:34 GMT-0600 (Central Standard Time),733779.8999999985,A,ar,O,r,51,1,249.79999999701977,733530.1000000015,7058,WL,B,3.0
7,3.3989999294281006,immed,56601.0000705719,Thu Feb 20 2025 09:13:34 GMT-0600 (Central Standard Time),733931.1000000015,A,arm,O,m,145,1,401.0,733530.1000000015,7058,WL,B,3.0
7,4.080999851226807,immed,55919.00014877319,Thu Feb 20 2025 09:13:34 GMT-0600 (Central Standard Time),734613.1999999955,A,armenter,O,enter,665,1,1083.0999999940395,733530.1000000015,7058,WL,B,3.0
7,4.697000026702881,immed,55302.99997329712,Thu Feb 20 2025 09:13:34 GMT-0600 (Central Standard Time),735229.799999997,A,d,O,d,600,1,616.2999999970198,734613.5,7058,WL,B,4.0
7,4.812999963760376,immed,55187.000036239624,Thu Feb 20 2025 09:13:34 GMT-0600 (Central Standard Time),735346.0,A,do,O,o,103,1,732.5,734613.5,7058,WL,B,4.0
7,4.947000026702881,immed,55052.99997329712,Thu Feb 20 2025 09:13:34 GMT-0600 (Central Standard Time),735479.6999999955,A,doo,O,o,123,1,866.1999999955297,734613.5,7058,WL,B,4.0
7,5.046999931335449,immed,54953.00006866455,Thu Feb 20 2025 09:13:34 GMT-0600 (Central Standard Time),735579.6999999955,A,door,O,r,93,1,966.1999999955297,734613.5,7058,WL,B,4.0
7,5.263000011444092,immed,54736.99998855591,Thu Feb 20 2025 09:13:34 GMT-0600 (Central Standard Time),735795.8999999985,A,doorenter,O,enter,209,1,1182.3999999985099,734613.5,7058,WL,B,4.0
7,5.414000034332275,immed,54585.999965667725,Thu Feb 20 2025 09:13:34 GMT-0600 (Central Standard Time),735946.1000000015,A,w,O,w,136,1,149.80000000447035,735796.299999997,7058,WL,B,5.0
7,5.562999963760376,immed,54437.000036239624,Thu Feb 20 2025 09:13:34 GMT-0600 (Central Standard Time),736095.8999999985,A,wi,O,i,138,1,299.6000000014901,735796.299999997,7058,WL,B,5.0
7,5.646999835968018,immed,54353.00016403198,Thu Feb 20 2025 09:13:34 GMT-0600 (Central Standard Time),736179.299999997,A,win,O,n,68,1,383.0,735796.299999997,7058,WL,B,5.0
7,5.763000011444092,immed,54236.99998855591,Thu Feb 20 2025 09:13:34 GMT-0600 (Central Standard Time),736295.799999997,A,wind,O,d,105,1,499.5,735796.299999997,7058,WL,B,5.0
7,5.996999979019165,immed,54003.000020980835,Thu Feb 20 2025 09:13:34 GMT-0600 (Central Standard Time),736529.1999999955,A,windo,O,o,220,1,732.8999999985099,735796.299999997,7058,WL,B,5.0
7,6.36299991607666,immed,53637.00008392334,Thu Feb 20 2025 09:13:34 GMT-0600 (Central Standard Time),736895.6000000015,A,window,O,w,347,1,1099.3000000044703,735796.299999997,7058,WL,B,5.0
7,6.546999931335449,immed,53453.00006866455,Thu Feb 20 2025 09:13:34 GMT-0600 (Central Standard Time),737079.1999999955,A,windowenter,O,enter,165,1,1282.8999999985099,735796.299999997,7058,WL,B,5.0
7,6.746000051498413,immed,53253.99994850159,Thu Feb 20 2025 09:13:34 GMT-0600 (Central Standard Time),737278.8999999985,A,w,O,w,181,1,199.29999999701977,737079.6000000015,7058,WL,B,6.0
7,6.912999868392944,immed,53087.000131607056,Thu Feb 20 2025 09:13:34 GMT-0600 (Central Standard Time),737445.799999997,A,wi,O,i,157,1,366.19999999552965,737079.6000000015,7058,WL,B,6.0
7,7.230000019073486,immed,52769.999980926514,Thu Feb 20 2025 09:13:34 GMT-0600 (Central Standard Time),737762.1999999955,A,wif,O,f,303,1,682.5999999940395,737079.6000000015,7058,WL,B,6.0
7,7.3459999561309814,immed,52654.00004386902,Thu Feb 20 2025 09:13:34 GMT-0600 (Central Standard Time),737878.6999999955,A,wife,O,e,106,1,799.0999999940395,737079.6000000015,7058,WL,B,6.0
7,7.5299999713897705,immed,52470.00002861023,Thu Feb 20 2025 09:13:34 GMT-0600 (Central Standard Time),738062.1000000015,A,wifeenter,O,enter,166,1,982.5,737079.6000000015,7058,WL,B,6.0
7,7.796000003814697,immed,52203.9999961853,Thu Feb 20 2025 09:13:34 GMT-0600 (Central Standard Time),738328.6000000015,A,s,O,s,247,1,266.1000000014901,738062.5,7058,WL,B,7.0
7,7.8459999561309814,immed,52154.00004386902,Thu Feb 20 2025 09:13:34 GMT-0600 (Central Standard Time),738378.6000000015,A,st,O,t,36,1,316.1000000014901,738062.5,7058,WL,B,7.0
7,7.978999853134155,immed,52021.000146865845,Thu Feb 20 2025 09:13:34 GMT-0600 (Central Standard Time),738511.8999999985,A,sta,O,a,114,1,449.3999999985099,738062.5,7058,WL,B,7.0
7,8.078999996185303,immed,51921.0000038147,Thu Feb 20 2025 09:13:34 GMT-0600 (Central Standard Time),738611.799999997,A,star,O,r,84,1,549.2999999970198,738062.5,7058,WL,B,7.0
7,8.611999988555908,immed,51388.00001144409,Thu Feb 20 2025 09:13:34 GMT-0600 (Central Standard Time),739145.0,A,starenter,O,enter,513,1,1082.5,738062.5,7058,WL,B,7.0
7,8.94599986076355,immed,51054.00013923645,Thu Feb 20 2025 09:13:34 GMT-0600 (Central Standard Time),739478.3999999985,A,c,O,c,323,1,333.0,739145.3999999985,7058,WL,B,8.0
7,9.062000036239624,immed,50937.999963760376,Thu Feb 20 2025 09:13:34 GMT-0600 (Central Standard Time),739594.8999999985,A,ca,O,a,102,1,449.5,739145.3999999985,7058,WL,B,8.0
7,9.178999900817871,immed,50821.00009918213,Thu Feb 20 2025 09:13:34 GMT-0600 (Central Standard Time),739711.5,A,cab,O,b,97,1,566.1000000014901,739145.3999999985,7058,WL,B,8.0
7,9.328999996185303,immed,50671.0000038147,Thu Feb 20 2025 09:13:34 GMT-0600 (Central Standard Time),739861.299999997,A,cabi,O,i,133,1,715.8999999985099,739145.3999999985,7058,WL,B,8.0
7,9.395999908447266,immed,50604.000091552734,Thu Feb 20 2025 09:13:34 GMT-0600 (Central Standard Time),739928.1000000015,A,cabin,O,n,55,1,782.7000000029802,739145.3999999985,7058,WL,B,8.0
7,9.562000036239624,immed,50437.999963760376,Thu Feb 20 2025 09:13:34 GMT-0600 (Central Standard Time),740095.0,A,cabinenter,O,enter,148,1,949.6000000014901,739145.3999999985,7058,WL,B,8.0
7,9.894999980926514,immed,50105.000019073486,Thu Feb 20 2025 09:13:34 GMT-0600 (Central Standard Time),740428.0,A,p,O,p,319,1,332.80000000447035,740095.1999999955,7058,WL,B,9.0
7,10.09500002861023,immed,49904.99997138977,Thu Feb 20 2025 09:13:34 GMT-0600 (Central Standard Time),740628.0,A,pi,O,i,194,1,532.8000000044703,740095.1999999955,7058,WL,B,9.0
7,10.428999900817871,immed,49571.00009918213,Thu Feb 20 2025 09:13:34 GMT-0600 (Central Standard Time),740961.3999999985,A,pip,O,p,321,1,866.2000000029802,740095.1999999955,7058,WL,B,9.0
7,10.944999933242798,immed,49055.0000667572,Thu Feb 20 2025 09:13:34 GMT-0600 (Central Standard Time),741477.6999999955,A,pipe,O,e,507,1,1382.5,740095.1999999955,7058,WL,B,9.0
7,11.194999933242798,immed,48805.0000667572,Thu Feb 20 2025 09:13:34 GMT-0600 (Central Standard Time),741727.6999999955,A,pipeenter,O,enter,239,1,1632.5,740095.1999999955,7058,WL,B,9.0
7,11.378000020980835,immed,48621.999979019165,Thu Feb 20 2025 09:13:34 GMT-0600 (Central Standard Time),741910.8999999985,A,l,O,l,165,1,182.79999999701977,741728.1000000015,7058,WL,B,10.0
7,11.527999877929688,immed,48472.00012207031,Thu Feb 20 2025 09:13:34 GMT-0600 (Central Standard Time),742060.6999999955,A,la,O,a,134,1,332.59999999403954,741728.1000000015,7058,WL,B,10.0
7,11.644999980926514,immed,48355.000019073486,Thu Feb 20 2025 09:13:34 GMT-0600 (Central Standard Time),742177.6999999955,A,lai,O,i,96,1,449.59999999403954,741728.1000000015,7058,WL,B,10.0
7,11.76199984550476,immed,48238.00015449524,Thu Feb 20 2025 09:13:34 GMT-0600 (Central Standard Time),742294.1000000015,A,laie,O,e,108,1,566.0,741728.1000000015,7058,WL,B,10.0
7,12.360999822616577,immed,47639.00017738342,Thu Feb 20 2025 09:13:34 GMT-0600 (Central Standard Time),742893.8999999985,A,lai,O,backspace,590,1,1165.7999999970198,741728.1000000015,7058,WL,B,10.0
7,12.628000020980835,immed,47371.999979019165,Thu Feb 20 2025 09:13:34 GMT-0600 (Central Standard Time),743160.299999997,A,la,O,backspace,247,1,1432.1999999955297,741728.1000000015,7058,WL,B,10.0
7,12.777999877929688,immed,47222.00012207031,Thu Feb 20 2025 09:13:34 GMT-0600 (Central Standard Time),743310.3999999985,A,lak,O,k,132,1,1582.2999999970198,741728.1000000015,7058,WL,B,10.0
7,12.894999980926514,immed,47105.000019073486,Thu Feb 20 2025 09:13:34 GMT-0600 (Central Standard Time),743427.1000000015,A,lake,O,e,110,1,1699.0,741728.1000000015,7058,WL,B,10.0
7,13.010999917984009,immed,46989.00008201599,Thu Feb 20 2025 09:13:34 GMT-0600 (Central Standard Time),743543.6000000015,A,lakeenter,O,enter,105,1,1815.5,741728.1000000015,7058,WL,B,10.0
7,13.17799997329712,immed,46822.00002670288,Thu Feb 20 2025 09:13:34 GMT-0600 (Central Standard Time),743710.5,A,f,O,f,149,1,166.5,743544.0,7058,WL,B,11.0
7,13.293999910354614,immed,46706.000089645386,Thu Feb 20 2025 09:13:34 GMT-0600 (Central Standard Time),743827.0,A,fi,O,i,110,1,283.0,743544.0,7058,WL,B,11.0
7,13.378000020980835,immed,46621.999979019165,Thu Feb 20 2025 09:13:34 GMT-0600 (Central Standard Time),743910.1999999955,A,fir,O,r,65,1,366.19999999552965,743544.0,7058,WL,B,11.0
7,13.460999965667725,immed,46539.000034332275,Thu Feb 20 2025 09:13:34 GMT-0600 (Central Standard Time),743993.6000000015,A,fire,O,e,62,1,449.6000000014901,743544.0,7058,WL,B,11.0
7,13.628000020980835,immed,46371.999979019165,Thu Feb 20 2025 09:13:34 GMT-0600 (Central Standard Time),744160.1999999955,A,fireenter,O,enter,155,1,616.1999999955297,743544.0,7058,WL,B,11.0
7,14.293999910354614,immed,45706.000089645386,Thu Feb 20 2025 09:13:34 GMT-0600 (Central Standard Time),744826.6000000015,A,s,O,s,652,1,666.1000000014901,744160.5,7058,WL,B,12.0
7,14.394000053405762,immed,45605.99994659424,Thu Feb 20 2025 09:13:34 GMT-0600 (Central Standard Time),744926.6000000015,A,sk,O,k,82,1,766.1000000014901,744160.5,7058,WL,B,12.0
7,14.560999870300293,immed,45439.00012969971,Thu Feb 20 2025 09:13:34 GMT-0600 (Central Standard Time),745093.299999997,A,ski,O,i,158,1,932.7999999970198,744160.5,7058,WL,B,12.0
7,14.610999822616577,immed,45389.00017738342,Thu Feb 20 2025 09:13:34 GMT-0600 (Central Standard Time),745143.299999997,A,skin,O,n,31,1,982.7999999970198,744160.5,7058,WL,B,12.0
