block_c,block_dur,condition,countdown,datetime,endtime,list,multichar_response,project,response,response_time,session_number,start_end,starttime,subject_id,task,task_vers,trial
,,,,Fri Apr 11 2025 13:43:14 GMT-0500 (Central Daylight Time),,,,O,space,2230,1,,,7120,WL,B,
prac,,0,,Fri Apr 11 2025 13:43:14 GMT-0500 (Central Daylight Time),,NA,b,O,b,6739,1,,,7120,WL,B,1.0
prac,,0,,Fri Apr 11 2025 13:43:14 GMT-0500 (Central Daylight Time),,NA,bo,O,o,229,1,,,7120,WL,B,1.0
prac,,0,,Fri Apr 11 2025 13:43:14 GMT-0500 (Central Daylight Time),,NA,boo,O,o,117,1,,,7120,WL,B,1.0
prac,,0,,Fri Apr 11 2025 13:43:14 GMT-0500 (Central Daylight Time),,NA,boos,O,s,86,1,,,7120,WL,B,1.0
prac,,0,,Fri Apr 11 2025 13:43:14 GMT-0500 (Central Daylight Time),,NA,boost,O,t,279,1,,,7120,WL,B,1.0
prac,,0,,Fri Apr 11 2025 13:43:14 GMT-0500 (Central Daylight Time),,NA,boostenter,O,enter,1500,1,,,7120,WL,B,1.0
1,1.184000015258789,learn,58815.99998474121,Fri Apr 11 2025 13:43:14 GMT-0500 (Central Daylight Time),134688.80000007153,A,s,O,s,1137,1,1182.1000000238419,133506.70000004768,7120,WL,B,1.0
1,1.4000000953674316,learn,58599.99990463257,Fri Apr 11 2025 13:43:14 GMT-0500 (Central Daylight Time),134905.20000004768,A,st,O,t,180,1,1398.5,133506.70000004768,7120,WL,B,1.0
1,1.5829999446868896,learn,58417.00005531311,Fri Apr 11 2025 13:43:14 GMT-0500 (Central Daylight Time),135088.20000004768,A,str,O,r,145,1,1581.5,133506.70000004768,7120,WL,B,1.0
1,1.7829999923706055,learn,58217.000007629395,Fri Apr 11 2025 13:43:14 GMT-0500 (Central Daylight Time),135288.10000002384,A,stre,O,e,163,1,1781.3999999761581,133506.70000004768,7120,WL,B,1.0
1,1.933000087738037,learn,58066.99991226196,Fri Apr 11 2025 13:43:14 GMT-0500 (Central Daylight Time),135438.40000009537,A,stree,O,e,114,1,1931.7000000476837,133506.70000004768,7120,WL,B,1.0
1,1.9660000801086426,learn,58033.99991989136,Fri Apr 11 2025 13:43:14 GMT-0500 (Central Daylight Time),135471.0,A,street,O,t,4,1,1964.2999999523163,133506.70000004768,7120,WL,B,1.0
1,2.8489999771118164,learn,57151.00002288818,Fri Apr 11 2025 13:43:14 GMT-0500 (Central Daylight Time),136353.70000004768,A,streetenter,O,enter,848,1,2847.0,133506.70000004768,7120,WL,B,1.0
1,3.2820000648498535,learn,56717.99993515015,Fri Apr 11 2025 13:43:14 GMT-0500 (Central Daylight Time),136787.60000002384,A,g,O,g,411,1,433.39999997615814,136354.20000004768,7120,WL,B,2.0
1,3.38100004196167,learn,56618.99995803833,Fri Apr 11 2025 13:43:14 GMT-0500 (Central Daylight Time),136886.60000002384,A,gr,O,r,62,1,532.3999999761581,136354.20000004768,7120,WL,B,2.0
1,3.565999984741211,learn,56434.00001525879,Fri Apr 11 2025 13:43:14 GMT-0500 (Central Daylight Time),137070.70000004768,A,gra,O,a,166,1,716.5,136354.20000004768,7120,WL,B,2.0
1,3.815999984741211,learn,56184.00001525879,Fri Apr 11 2025 13:43:14 GMT-0500 (Central Daylight Time),137321.0,A,gras,O,s,216,1,966.7999999523163,136354.20000004768,7120,WL,B,2.0
1,3.931999921798706,learn,56068.000078201294,Fri Apr 11 2025 13:43:14 GMT-0500 (Central Daylight Time),137436.60000002384,A,grass,O,s,75,1,1082.3999999761581,136354.20000004768,7120,WL,B,2.0
1,4.281000137329102,learn,55718.9998626709,Fri Apr 11 2025 13:43:14 GMT-0500 (Central Daylight Time),137786.5,A,grassenter,O,enter,328,1,1432.2999999523163,136354.20000004768,7120,WL,B,2.0
1,4.749000072479248,learn,55250.99992752075,Fri Apr 11 2025 13:43:14 GMT-0500 (Central Daylight Time),138253.90000009537,A,d,O,d,457,1,467.10000002384186,137786.80000007153,7120,WL,B,3.0
1,4.965000152587891,learn,55034.99984741211,Fri Apr 11 2025 13:43:14 GMT-0500 (Central Daylight Time),138470.40000009537,A,do,O,o,183,1,683.6000000238419,137786.80000007153,7120,WL,B,3.0
1,5.115000009536743,learn,54884.99999046326,Fri Apr 11 2025 13:43:14 GMT-0500 (Central Daylight Time),138620.40000009537,A,doo,O,o,124,1,833.6000000238419,137786.80000007153,7120,WL,B,3.0
1,5.180999994277954,learn,54819.000005722046,Fri Apr 11 2025 13:43:14 GMT-0500 (Central Daylight Time),138686.5,A,door,O,r,43,1,899.6999999284744,137786.80000007153,7120,WL,B,3.0
1,5.664000034332275,learn,54335.999965667725,Fri Apr 11 2025 13:43:14 GMT-0500 (Central Daylight Time),139169.40000009537,A,doorenter,O,enter,463,1,1382.6000000238419,137786.80000007153,7120,WL,B,3.0
1,5.914999961853027,learn,54085.00003814697,Fri Apr 11 2025 13:43:14 GMT-0500 (Central Daylight Time),139420.5,A,a,O,a,243,1,250.79999995231628,139169.70000004768,7120,WL,B,4.0
1,6.164000034332275,learn,53835.999965667725,Fri Apr 11 2025 13:43:14 GMT-0500 (Central Daylight Time),139669.60000002384,A,ar,O,r,211,1,499.89999997615814,139169.70000004768,7120,WL,B,4.0
1,6.398000001907349,learn,53601.99999809265,Fri Apr 11 2025 13:43:14 GMT-0500 (Central Daylight Time),139903.20000004768,A,arm,O,m,205,1,733.5,139169.70000004768,7120,WL,B,4.0
1,6.880000114440918,learn,53119.99988555908,Fri Apr 11 2025 13:43:14 GMT-0500 (Central Daylight Time),140385.60000002384,A,armenter,O,enter,448,1,1215.8999999761581,139169.70000004768,7120,WL,B,4.0
1,7.115000009536743,learn,52884.99999046326,Fri Apr 11 2025 13:43:14 GMT-0500 (Central Daylight Time),140620.60000002384,A,s,O,s,227,1,234.69999992847443,140385.90000009537,7120,WL,B,5.0
1,7.498000144958496,learn,52501.999855041504,Fri Apr 11 2025 13:43:14 GMT-0500 (Central Daylight Time),141003.20000004768,A,st,O,t,340,1,617.2999999523163,140385.90000009537,7120,WL,B,5.0
1,7.71399998664856,learn,52286.00001335144,Fri Apr 11 2025 13:43:14 GMT-0500 (Central Daylight Time),141219.10000002384,A,sta,O,a,171,1,833.1999999284744,140385.90000009537,7120,WL,B,5.0
1,7.831000089645386,learn,52168.999910354614,Fri Apr 11 2025 13:43:14 GMT-0500 (Central Daylight Time),141335.80000007153,A,star,O,r,96,1,949.8999999761581,140385.90000009537,7120,WL,B,5.0
1,8.79699993133545,learn,51203.00006866455,Fri Apr 11 2025 13:43:14 GMT-0500 (Central Daylight Time),142301.60000002384,A,starenter,O,enter,938,1,1915.6999999284744,140385.90000009537,7120,WL,B,5.0
1,9.21399998664856,learn,50786.00001335144,Fri Apr 11 2025 13:43:14 GMT-0500 (Central Daylight Time),142719.0,A,p,O,p,408,1,417.09999990463257,142301.90000009537,7120,WL,B,6.0
1,9.52999997138977,learn,50470.00002861023,Fri Apr 11 2025 13:43:14 GMT-0500 (Central Daylight Time),143035.30000007153,A,pu,O,u,281,1,733.3999999761581,142301.90000009537,7120,WL,B,6.0
1,9.847000122070312,learn,50152.99987792969,Fri Apr 11 2025 13:43:14 GMT-0500 (Central Daylight Time),143352.20000004768,A,pup,O,p,295,1,1050.2999999523163,142301.90000009537,7120,WL,B,6.0
1,10.079999923706055,learn,49920.000076293945,Fri Apr 11 2025 13:43:14 GMT-0500 (Central Daylight Time),143585.40000009537,A,pupi,O,i,201,1,1283.5,142301.90000009537,7120,WL,B,6.0
1,10.312999963760376,learn,49687.000036239624,Fri Apr 11 2025 13:43:14 GMT-0500 (Central Daylight Time),143818.60000002384,A,pupil,O,l,188,1,1516.6999999284744,142301.90000009537,7120,WL,B,6.0
1,11.161999940872192,learn,48838.00005912781,Fri Apr 11 2025 13:43:14 GMT-0500 (Central Daylight Time),144667.5,A,pupilenter,O,enter,819,1,2365.5999999046326,142301.90000009537,7120,WL,B,6.0
1,11.630000114440918,learn,48369.99988555908,Fri Apr 11 2025 13:43:14 GMT-0500 (Central Daylight Time),145135.0,A,c,O,c,450,1,467.09999990463257,144667.90000009537,7120,WL,B,7.0
1,11.880000114440918,learn,48119.99988555908,Fri Apr 11 2025 13:43:14 GMT-0500 (Central Daylight Time),145384.80000007153,A,ci,O,i,202,1,716.8999999761581,144667.90000009537,7120,WL,B,7.0
1,11.996000051498413,learn,48003.99994850159,Fri Apr 11 2025 13:43:14 GMT-0500 (Central Daylight Time),145501.5,A,cit,O,t,79,1,833.5999999046326,144667.90000009537,7120,WL,B,7.0
1,12.17900013923645,learn,47820.99986076355,Fri Apr 11 2025 13:43:14 GMT-0500 (Central Daylight Time),145684.10000002384,A,city,O,y,152,1,1016.1999999284744,144667.90000009537,7120,WL,B,7.0
1,13.92799997329712,learn,46072.00002670288,Fri Apr 11 2025 13:43:14 GMT-0500 (Central Daylight Time),147433.30000007153,A,cityenter,O,enter,1719,1,2765.399999976158,144667.90000009537,7120,WL,B,7.0
1,22.39300012588501,learn,37606.99987411499,Fri Apr 11 2025 13:43:14 GMT-0500 (Central Daylight Time),155898.10000002384,A,c,O,c,8452,1,8464.399999976158,147433.70000004768,7120,WL,B,8.0
1,22.64300012588501,learn,37356.99987411499,Fri Apr 11 2025 13:43:14 GMT-0500 (Central Daylight Time),156148.0,A,ci,O,i,225,1,8714.299999952316,147433.70000004768,7120,WL,B,8.0
1,22.776000022888184,learn,37223.99997711182,Fri Apr 11 2025 13:43:14 GMT-0500 (Central Daylight Time),156281.10000002384,A,cit,O,t,102,1,8847.399999976158,147433.70000004768,7120,WL,B,8.0
1,22.943000078201294,learn,37056.999921798706,Fri Apr 11 2025 13:43:14 GMT-0500 (Central Daylight Time),156447.80000007153,A,city,O,y,129,1,9014.100000023842,147433.70000004768,7120,WL,B,8.0
1,23.759000062942505,learn,36240.999937057495,Fri Apr 11 2025 13:43:14 GMT-0500 (Central Daylight Time),157264.10000002384,A,cityenter,O,enter,776,1,9830.399999976158,147433.70000004768,7120,WL,B,8.0
1,27.657999992370605,learn,32342.000007629395,Fri Apr 11 2025 13:43:14 GMT-0500 (Central Daylight Time),161163.10000002384,A,f,O,f,3885,1,3898.600000023842,157264.5,7120,WL,B,9.0
1,27.94099998474121,learn,32059.00001525879,Fri Apr 11 2025 13:43:14 GMT-0500 (Central Daylight Time),161446.20000004768,A,fi,O,i,250,1,4181.700000047684,157264.5,7120,WL,B,9.0
1,28.058000087738037,learn,31941.999912261963,Fri Apr 11 2025 13:43:14 GMT-0500 (Central Daylight Time),161562.80000007153,A,fir,O,r,88,1,4298.300000071526,157264.5,7120,WL,B,9.0
1,28.240999937057495,learn,31759.000062942505,Fri Apr 11 2025 13:43:14 GMT-0500 (Central Daylight Time),161746.10000002384,A,fire,O,e,151,1,4481.600000023842,157264.5,7120,WL,B,9.0
1,29.157000064849854,learn,30842.999935150146,Fri Apr 11 2025 13:43:14 GMT-0500 (Central Daylight Time),162661.70000004768,A,fireenter,O,enter,879,1,5397.200000047684,157264.5,7120,WL,B,9.0
1,30.640000104904175,learn,29359.999895095825,Fri Apr 11 2025 13:43:14 GMT-0500 (Central Daylight Time),164145.40000009537,A,w,O,w,1464,1,1483.5,162661.90000009537,7120,WL,B,10.0
1,30.789999961853027,learn,29210.000038146973,Fri Apr 11 2025 13:43:14 GMT-0500 (Central Daylight Time),164295.20000004768,A,wi,O,i,122,1,1633.2999999523163,162661.90000009537,7120,WL,B,10.0
1,30.92300009727478,learn,29076.99990272522,Fri Apr 11 2025 13:43:14 GMT-0500 (Central Daylight Time),164428.40000009537,A,win,O,n,101,1,1766.5,162661.90000009537,7120,WL,B,10.0
1,31.02300000190735,learn,28976.99999809265,Fri Apr 11 2025 13:43:14 GMT-0500 (Central Daylight Time),164528.0,A,wind,O,d,73,1,1866.0999999046326,162661.90000009537,7120,WL,B,10.0
1,31.25600004196167,learn,28743.99995803833,Fri Apr 11 2025 13:43:14 GMT-0500 (Central Daylight Time),164761.60000002384,A,windo,O,o,207,1,2099.6999999284744,162661.90000009537,7120,WL,B,10.0
1,31.322999954223633,learn,28677.000045776367,Fri Apr 11 2025 13:43:14 GMT-0500 (Central Daylight Time),164827.80000007153,A,window,O,w,30,1,2165.899999976158,162661.90000009537,7120,WL,B,10.0
1,31.874000072479248,learn,28125.999927520752,Fri Apr 11 2025 13:43:14 GMT-0500 (Central Daylight Time),165379.20000004768,A,windowenter,O,enter,533,1,2717.2999999523163,162661.90000009537,7120,WL,B,10.0
1,37.687000036239624,learn,22312.999963760376,Fri Apr 11 2025 13:43:14 GMT-0500 (Central Daylight Time),171192.20000004768,A,enter,O,enter,5794,1,5812.700000047684,165379.5,7120,WL,B,11.0
1,38.5699999332428,learn,21430.000066757202,Fri Apr 11 2025 13:43:14 GMT-0500 (Central Daylight Time),172075.20000004768,A,enter,O,enter,868,1,882.6000000238419,171192.60000002384,7120,WL,B,12.0
1,49.16700005531311,learn,10832.99994468689,Fri Apr 11 2025 13:43:14 GMT-0500 (Central Daylight Time),182671.70000004768,A,enter,O,enter,10586,1,10596.200000047684,172075.5,7120,WL,B,13.0
1,51.0,learn,9000.0,Fri Apr 11 2025 13:43:14 GMT-0500 (Central Daylight Time),184504.5,A,enter,O,enter,1821,1,1832.3999999761581,182672.10000002384,7120,WL,B,14.0
1,55.931999921798706,learn,4068.000078201294,Fri Apr 11 2025 13:43:14 GMT-0500 (Central Daylight Time),189436.20000004768,A,enter,O,enter,4915,1,4931.299999952316,184504.90000009537,7120,WL,B,15.0
2,0.8500001430511475,learn,59149.99985694885,Fri Apr 11 2025 13:43:14 GMT-0500 (Central Daylight Time),257331.60000002384,A,s,O,s,818,1,849.1000000238419,256482.5,7120,WL,B,1.0
2,1.06600022315979,learn,58933.99977684021,Fri Apr 11 2025 13:43:14 GMT-0500 (Central Daylight Time),257548.0,A,st,O,t,179,1,1065.5,256482.5,7120,WL,B,1.0
2,1.1990001201629639,learn,58800.999879837036,Fri Apr 11 2025 13:43:14 GMT-0500 (Central Daylight Time),257681.40000009537,A,str,O,r,102,1,1198.9000000953674,256482.5,7120,WL,B,1.0
2,1.4160001277923584,learn,58583.99987220764,Fri Apr 11 2025 13:43:14 GMT-0500 (Central Daylight Time),257897.90000009537,A,stre,O,e,175,1,1415.4000000953674,256482.5,7120,WL,B,1.0
2,1.5330002307891846,learn,58466.999769210815,Fri Apr 11 2025 13:43:14 GMT-0500 (Central Daylight Time),258014.60000002384,A,stree,O,e,91,1,1532.1000000238419,256482.5,7120,WL,B,1.0
2,1.6660001277923584,learn,58333.99987220764,Fri Apr 11 2025 13:43:14 GMT-0500 (Central Daylight Time),258147.70000004768,A,street,O,t,107,1,1665.2000000476837,256482.5,7120,WL,B,1.0
2,2.2820000648498535,learn,57717.99993515015,Fri Apr 11 2025 13:43:14 GMT-0500 (Central Daylight Time),258763.5,A,streetenter,O,enter,586,1,2281.0,256482.5,7120,WL,B,1.0
2,2.632000207901001,learn,57367.999792099,Fri Apr 11 2025 13:43:14 GMT-0500 (Central Daylight Time),259114.20000004768,A,g,O,g,330,1,350.39999997615814,258763.80000007153,7120,WL,B,2.0
2,2.7320001125335693,learn,57267.99988746643,Fri Apr 11 2025 13:43:14 GMT-0500 (Central Daylight Time),259214.20000004768,A,gr,O,r,59,1,450.39999997615814,258763.80000007153,7120,WL,B,2.0
2,2.8990001678466797,learn,57100.99983215332,Fri Apr 11 2025 13:43:14 GMT-0500 (Central Daylight Time),259380.80000007153,A,gra,O,a,140,1,617.0,258763.80000007153,7120,WL,B,2.0
2,3.132000207901001,learn,56867.999792099,Fri Apr 11 2025 13:43:14 GMT-0500 (Central Daylight Time),259614.0,A,gras,O,s,196,1,850.1999999284744,258763.80000007153,7120,WL,B,2.0
2,3.431000232696533,learn,56568.99976730347,Fri Apr 11 2025 13:43:14 GMT-0500 (Central Daylight Time),259913.10000002384,A,grasenter,O,enter,258,1,1149.2999999523163,258763.80000007153,7120,WL,B,2.0
2,4.498000144958496,learn,55501.999855041504,Fri Apr 11 2025 13:43:14 GMT-0500 (Central Daylight Time),260980.20000004768,A,f,O,f,1045,1,1066.7000000476837,259913.5,7120,WL,B,3.0
2,4.9150002002716064,learn,55084.99979972839,Fri Apr 11 2025 13:43:14 GMT-0500 (Central Daylight Time),261396.90000009537,A,,O,backspace,391,1,1483.4000000953674,259913.5,7120,WL,B,3.0
2,5.0990002155303955,learn,54900.999784469604,Fri Apr 11 2025 13:43:14 GMT-0500 (Central Daylight Time),261581.10000002384,A,d,O,d,160,1,1667.6000000238419,259913.5,7120,WL,B,3.0
2,5.331000089645386,learn,54668.999910354614,Fri Apr 11 2025 13:43:14 GMT-0500 (Central Daylight Time),261813.0,A,do,O,o,195,1,1899.5,259913.5,7120,WL,B,3.0
2,5.498000144958496,learn,54501.999855041504,Fri Apr 11 2025 13:43:14 GMT-0500 (Central Daylight Time),261979.5,A,doo,O,o,137,1,2066.0,259913.5,7120,WL,B,3.0
2,5.5320000648498535,learn,54467.99993515015,Fri Apr 11 2025 13:43:14 GMT-0500 (Central Daylight Time),262014.20000004768,A,door,O,r,10,1,2100.7000000476837,259913.5,7120,WL,B,3.0
2,6.014000177383423,learn,53985.99982261658,Fri Apr 11 2025 13:43:14 GMT-0500 (Central Daylight Time),262495.5,A,doorenter,O,enter,452,1,2582.0,259913.5,7120,WL,B,3.0
2,6.3480000495910645,learn,53651.999950408936,Fri Apr 11 2025 13:43:14 GMT-0500 (Central Daylight Time),262829.5,A,a,O,a,326,1,333.7999999523163,262495.7000000477,7120,WL,B,4.0
2,6.515000104904175,learn,53484.999895095825,Fri Apr 11 2025 13:43:14 GMT-0500 (Central Daylight Time),262996.90000009537,A,ar,O,r,142,1,501.2000000476837,262495.7000000477,7120,WL,B,4.0
2,6.764000177383423,learn,53235.99982261658,Fri Apr 11 2025 13:43:14 GMT-0500 (Central Daylight Time),263246.10000002384,A,arm,O,m,224,1,750.3999999761581,262495.7000000477,7120,WL,B,4.0
2,7.246000051498413,learn,52753.99994850159,Fri Apr 11 2025 13:43:14 GMT-0500 (Central Daylight Time),263728.3000000715,A,armenter,O,enter,451,1,1232.6000000238419,262495.7000000477,7120,WL,B,4.0
2,7.447000026702881,learn,52552.99997329712,Fri Apr 11 2025 13:43:14 GMT-0500 (Central Daylight Time),263929.3000000715,A,s,O,s,190,1,200.70000004768372,263728.60000002384,7120,WL,B,5.0
2,7.747000217437744,learn,52252.999782562256,Fri Apr 11 2025 13:43:14 GMT-0500 (Central Daylight Time),264229.2000000477,A,st,O,t,263,1,500.60000002384186,263728.60000002384,7120,WL,B,5.0
2,7.997000217437744,learn,52002.999782562256,Fri Apr 11 2025 13:43:14 GMT-0500 (Central Daylight Time),264479.0,A,sta,O,a,224,1,750.3999999761581,263728.60000002384,7120,WL,B,5.0
2,8.164000034332275,learn,51835.999965667725,Fri Apr 11 2025 13:43:14 GMT-0500 (Central Daylight Time),264645.40000009537,A,star,O,r,140,1,916.8000000715256,263728.60000002384,7120,WL,B,5.0
2,8.696000099182129,learn,51303.99990081787,Fri Apr 11 2025 13:43:14 GMT-0500 (Central Daylight Time),265178.0,A,starenter,O,enter,500,1,1449.3999999761581,263728.60000002384,7120,WL,B,5.0
2,8.980000019073486,learn,51019.999980926514,Fri Apr 11 2025 13:43:14 GMT-0500 (Central Daylight Time),265462.10000002384,A,w,O,w,267,1,283.89999997615814,265178.2000000477,7120,WL,B,6.0
2,9.647000074386597,learn,50352.9999256134,Fri Apr 11 2025 13:43:14 GMT-0500 (Central Daylight Time),266128.5,A,wi,O,i,627,1,950.2999999523163,265178.2000000477,7120,WL,B,6.0
2,9.78000020980835,learn,50219.99979019165,Fri Apr 11 2025 13:43:14 GMT-0500 (Central Daylight Time),266261.8000000715,A,win,O,n,106,1,1083.6000000238419,265178.2000000477,7120,WL,B,6.0
2,9.94700002670288,learn,50052.99997329712,Fri Apr 11 2025 13:43:14 GMT-0500 (Central Daylight Time),266429.0,A,wind,O,d,140,1,1250.7999999523163,265178.2000000477,7120,WL,B,6.0
2,10.347000122070312,learn,49652.99987792969,Fri Apr 11 2025 13:43:14 GMT-0500 (Central Daylight Time),266829.0,A,windo,O,o,374,1,1650.7999999523163,265178.2000000477,7120,WL,B,6.0
2,10.53000020980835,learn,49469.99979019165,Fri Apr 11 2025 13:43:14 GMT-0500 (Central Daylight Time),267011.7000000477,A,window,O,w,149,1,1833.5,265178.2000000477,7120,WL,B,6.0
2,11.26200008392334,learn,48737.99991607666,Fri Apr 11 2025 13:43:14 GMT-0500 (Central Daylight Time),267743.8000000715,A,windowenter,O,enter,692,1,2565.600000023842,265178.2000000477,7120,WL,B,6.0
2,11.61300015449524,learn,48386.99984550476,Fri Apr 11 2025 13:43:14 GMT-0500 (Central Daylight Time),268094.60000002384,A,c,O,c,341,1,350.60000002384186,267744.0,7120,WL,B,7.0
2,11.729000091552734,learn,48270.999908447266,Fri Apr 11 2025 13:43:14 GMT-0500 (Central Daylight Time),268211.40000009537,A,ca,O,a,77,1,467.40000009536743,267744.0,7120,WL,B,7.0
2,11.913000106811523,learn,48086.99989318848,Fri Apr 11 2025 13:43:14 GMT-0500 (Central Daylight Time),268394.60000002384,A,cab,O,b,150,1,650.6000000238419,267744.0,7120,WL,B,7.0
2,12.129000186920166,learn,47870.999813079834,Fri Apr 11 2025 13:43:14 GMT-0500 (Central Daylight Time),268610.90000009537,A,cabi,O,i,185,1,866.9000000953674,267744.0,7120,WL,B,7.0
2,12.362000226974487,learn,47637.99977302551,Fri Apr 11 2025 13:43:14 GMT-0500 (Central Daylight Time),268844.3000000715,A,cabin,O,n,204,1,1100.3000000715256,267744.0,7120,WL,B,7.0
2,12.862000226974487,learn,47137.99977302551,Fri Apr 11 2025 13:43:14 GMT-0500 (Central Daylight Time),269344.3000000715,A,cabinenter,O,enter,461,1,1600.3000000715256,267744.0,7120,WL,B,7.0
2,13.245000123977661,learn,46754.99987602234,Fri Apr 11 2025 13:43:14 GMT-0500 (Central Daylight Time),269727.40000009537,A,w,O,w,374,1,382.8000000715256,269344.60000002384,7120,WL,B,8.0
2,13.495000123977661,learn,46504.99987602234,Fri Apr 11 2025 13:43:14 GMT-0500 (Central Daylight Time),269977.3000000715,A,wi,O,i,219,1,632.7000000476837,269344.60000002384,7120,WL,B,8.0
2,13.84500002861023,learn,46154.99997138977,Fri Apr 11 2025 13:43:14 GMT-0500 (Central Daylight Time),270327.2000000477,A,wif,O,f,313,1,982.6000000238419,269344.60000002384,7120,WL,B,8.0
2,14.078999996185303,learn,45921.0000038147,Fri Apr 11 2025 13:43:14 GMT-0500 (Central Daylight Time),270560.40000009537,A,wife,O,e,196,1,1215.8000000715256,269344.60000002384,7120,WL,B,8.0
2,14.361000061035156,learn,45638.999938964844,Fri Apr 11 2025 13:43:14 GMT-0500 (Central Daylight Time),270843.0,A,wifeenter,O,enter,257,1,1498.3999999761581,269344.60000002384,7120,WL,B,8.0
2,14.712000131607056,learn,45287.999868392944,Fri Apr 11 2025 13:43:14 GMT-0500 (Central Daylight Time),271193.7000000477,A,c,O,c,331,1,350.5,270843.2000000477,7120,WL,B,9.0
2,14.962000131607056,learn,45037.999868392944,Fri Apr 11 2025 13:43:14 GMT-0500 (Central Daylight Time),271443.60000002384,A,ci,O,i,215,1,600.3999999761581,270843.2000000477,7120,WL,B,9.0
2,15.094000101089478,learn,44905.99989891052,Fri Apr 11 2025 13:43:14 GMT-0500 (Central Daylight Time),271576.3000000715,A,cit,O,t,102,1,733.1000000238419,270843.2000000477,7120,WL,B,9.0
2,15.245000123977661,learn,44754.99987602234,Fri Apr 11 2025 13:43:14 GMT-0500 (Central Daylight Time),271726.60000002384,A,city,O,y,132,1,883.3999999761581,270843.2000000477,7120,WL,B,9.0
2,15.761000156402588,learn,44238.99984359741,Fri Apr 11 2025 13:43:14 GMT-0500 (Central Daylight Time),272242.3000000715,A,cityenter,O,enter,474,1,1399.1000000238419,270843.2000000477,7120,WL,B,9.0
2,16.1780002117157,learn,43821.9997882843,Fri Apr 11 2025 13:43:14 GMT-0500 (Central Daylight Time),272659.7000000477,A,p,O,p,395,1,417.10000002384186,272242.60000002384,7120,WL,B,10.0
2,16.4280002117157,learn,43571.9997882843,Fri Apr 11 2025 13:43:14 GMT-0500 (Central Daylight Time),272909.5,A,pu,O,u,224,1,666.8999999761581,272242.60000002384,7120,WL,B,10.0
2,16.794000148773193,learn,43205.99985122681,Fri Apr 11 2025 13:43:14 GMT-0500 (Central Daylight Time),273275.7000000477,A,pup,O,p,324,1,1033.1000000238419,272242.60000002384,7120,WL,B,10.0
2,17.094000101089478,learn,42905.99989891052,Fri Apr 11 2025 13:43:14 GMT-0500 (Central Daylight Time),273576.3000000715,A,pupi,O,i,274,1,1333.7000000476837,272242.60000002384,7120,WL,B,10.0
2,17.294000148773193,learn,42705.99985122681,Fri Apr 11 2025 13:43:14 GMT-0500 (Central Daylight Time),273776.0,A,pupil,O,l,170,1,1533.3999999761581,272242.60000002384,7120,WL,B,10.0
2,17.66000008583069,learn,42339.99991416931,Fri Apr 11 2025 13:43:14 GMT-0500 (Central Daylight Time),274141.7000000477,A,pupilenter,O,enter,337,1,1899.1000000238419,272242.60000002384,7120,WL,B,10.0
2,18.0770001411438,learn,41922.9998588562,Fri Apr 11 2025 13:43:14 GMT-0500 (Central Daylight Time),274559.0,A,p,O,p,400,1,417.0,274142.0,7120,WL,B,11.0
2,18.311000108718872,learn,41688.99989128113,Fri Apr 11 2025 13:43:14 GMT-0500 (Central Daylight Time),274792.5,A,pi,O,i,196,1,650.5,274142.0,7120,WL,B,11.0
2,18.49400019645691,learn,41505.99980354309,Fri Apr 11 2025 13:43:14 GMT-0500 (Central Daylight Time),274975.60000002384,A,pip,O,p,158,1,833.6000000238419,274142.0,7120,WL,B,11.0
2,18.610000133514404,learn,41389.999866485596,Fri Apr 11 2025 13:43:14 GMT-0500 (Central Daylight Time),275091.8000000715,A,pipe,O,e,79,1,949.8000000715256,274142.0,7120,WL,B,11.0
2,19.2260000705719,learn,40773.9999294281,Fri Apr 11 2025 13:43:14 GMT-0500 (Central Daylight Time),275707.90000009537,A,pipeenter,O,enter,593,1,1565.9000000953674,274142.0,7120,WL,B,11.0
2,29.290000200271606,learn,30709.999799728394,Fri Apr 11 2025 13:43:14 GMT-0500 (Central Daylight Time),285772.10000002384,A,f,O,f,10049,1,10064.0,275708.10000002384,7120,WL,B,12.0
2,29.44000005722046,learn,30559.99994277954,Fri Apr 11 2025 13:43:14 GMT-0500 (Central Daylight Time),285922.10000002384,A,fi,O,i,113,1,10214.0,275708.10000002384,7120,WL,B,12.0
2,29.540000200271606,learn,30459.999799728394,Fri Apr 11 2025 13:43:14 GMT-0500 (Central Daylight Time),286021.5,A,fir,O,r,62,1,10313.399999976158,275708.10000002384,7120,WL,B,12.0
2,29.706000089645386,learn,30293.999910354614,Fri Apr 11 2025 13:43:14 GMT-0500 (Central Daylight Time),286188.3000000715,A,fire,O,e,151,1,10480.200000047684,275708.10000002384,7120,WL,B,12.0
2,29.939000129699707,learn,30060.999870300293,Fri Apr 11 2025 13:43:14 GMT-0500 (Central Daylight Time),286421.10000002384,A,fireenter,O,enter,209,1,10713.0,275708.10000002384,7120,WL,B,12.0
2,44.51800012588501,learn,15481.99987411499,Fri Apr 11 2025 13:43:14 GMT-0500 (Central Daylight Time),300999.60000002384,A,enter,O,enter,14568,1,14578.299999952316,286421.3000000715,7120,WL,B,13.0
2,45.51800012588501,learn,14481.99987411499,Fri Apr 11 2025 13:43:14 GMT-0500 (Central Daylight Time),301999.3000000715,A,enter,O,enter,989,1,999.3999999761581,300999.90000009537,7120,WL,B,14.0
2,46.652000188827515,learn,13347.999811172485,Fri Apr 11 2025 13:43:14 GMT-0500 (Central Daylight Time),303132.8000000715,A,enter,O,enter,1125,1,1133.2000000476837,301999.60000002384,7120,WL,B,15.0
3,0.6340000629425049,learn,59365.999937057495,Fri Apr 11 2025 13:43:14 GMT-0500 (Central Daylight Time),371577.40000009537,A,s,O,s,604,1,632.7000000476837,370944.7000000477,7120,WL,B,1.0
3,0.9500000476837158,learn,59049.999952316284,Fri Apr 11 2025 13:43:14 GMT-0500 (Central Daylight Time),371893.5,A,st,O,t,279,1,948.7999999523163,370944.7000000477,7120,WL,B,1.0
3,1.067000150680542,learn,58932.99984931946,Fri Apr 11 2025 13:43:14 GMT-0500 (Central Daylight Time),372010.40000009537,A,str,O,r,93,1,1065.7000000476837,370944.7000000477,7120,WL,B,1.0
3,1.25,learn,58750.0,Fri Apr 11 2025 13:43:14 GMT-0500 (Central Daylight Time),372193.2000000477,A,stre,O,e,144,1,1248.5,370944.7000000477,7120,WL,B,1.0
3,1.383000135421753,learn,58616.99986457825,Fri Apr 11 2025 13:43:14 GMT-0500 (Central Daylight Time),372327.10000002384,A,stree,O,e,106,1,1382.3999999761581,370944.7000000477,7120,WL,B,1.0
3,1.5169999599456787,learn,58483.00004005432,Fri Apr 11 2025 13:43:14 GMT-0500 (Central Daylight Time),372460.2000000477,A,street,O,t,99,1,1515.5,370944.7000000477,7120,WL,B,1.0
3,1.9509999752044678,learn,58049.00002479553,Fri Apr 11 2025 13:43:14 GMT-0500 (Central Daylight Time),372894.40000009537,A,streetenter,O,enter,403,1,1949.7000000476837,370944.7000000477,7120,WL,B,1.0
3,2.4000000953674316,learn,57599.99990463257,Fri Apr 11 2025 13:43:14 GMT-0500 (Central Daylight Time),373343.40000009537,A,g,O,g,431,1,448.8000000715256,372894.60000002384,7120,WL,B,2.0
3,2.5329999923706055,learn,57467.000007629395,Fri Apr 11 2025 13:43:14 GMT-0500 (Central Daylight Time),373476.8000000715,A,gr,O,r,102,1,582.2000000476837,372894.60000002384,7120,WL,B,2.0
3,2.7330000400543213,learn,57266.99995994568,Fri Apr 11 2025 13:43:14 GMT-0500 (Central Daylight Time),373676.40000009537,A,gra,O,a,164,1,781.8000000715256,372894.60000002384,7120,WL,B,2.0
3,2.950000047683716,learn,57049.999952316284,Fri Apr 11 2025 13:43:14 GMT-0500 (Central Daylight Time),373893.40000009537,A,gras,O,s,191,1,998.8000000715256,372894.60000002384,7120,WL,B,2.0
3,3.0989999771118164,learn,56901.00002288818,Fri Apr 11 2025 13:43:14 GMT-0500 (Central Daylight Time),374043.10000002384,A,grass,O,s,110,1,1148.5,372894.60000002384,7120,WL,B,2.0
3,3.2320001125335693,learn,56767.99988746643,Fri Apr 11 2025 13:43:14 GMT-0500 (Central Daylight Time),374175.5,A,grassenter,O,enter,95,1,1280.8999999761581,372894.60000002384,7120,WL,B,2.0
3,3.749000072479248,learn,56250.99992752075,Fri Apr 11 2025 13:43:14 GMT-0500 (Central Daylight Time),374693.0,A,d,O,d,502,1,517.1999999284744,374175.8000000715,7120,WL,B,3.0
3,3.9160001277923584,learn,56083.99987220764,Fri Apr 11 2025 13:43:14 GMT-0500 (Central Daylight Time),374859.60000002384,A,do,O,o,126,1,683.7999999523163,374175.8000000715,7120,WL,B,3.0
3,4.065999984741211,learn,55934.00001525879,Fri Apr 11 2025 13:43:14 GMT-0500 (Central Daylight Time),375009.60000002384,A,doo,O,o,119,1,833.7999999523163,374175.8000000715,7120,WL,B,3.0
3,4.148000001907349,learn,55851.99999809265,Fri Apr 11 2025 13:43:14 GMT-0500 (Central Daylight Time),375092.0,A,door,O,r,57,1,916.1999999284744,374175.8000000715,7120,WL,B,3.0
3,4.3480000495910645,learn,55651.999950408936,Fri Apr 11 2025 13:43:14 GMT-0500 (Central Daylight Time),375291.90000009537,A,doorenter,O,enter,182,1,1116.1000000238419,374175.8000000715,7120,WL,B,3.0
3,4.565000057220459,learn,55434.99994277954,Fri Apr 11 2025 13:43:14 GMT-0500 (Central Daylight Time),375509.10000002384,A,a,O,a,210,1,216.89999997615814,375292.2000000477,7120,WL,B,4.0
3,4.716000080108643,learn,55283.99991989136,Fri Apr 11 2025 13:43:14 GMT-0500 (Central Daylight Time),375659.3000000715,A,ar,O,r,108,1,367.10000002384186,375292.2000000477,7120,WL,B,4.0
3,4.848999977111816,learn,55151.00002288818,Fri Apr 11 2025 13:43:14 GMT-0500 (Central Daylight Time),375792.7000000477,A,arm,O,m,103,1,500.5,375292.2000000477,7120,WL,B,4.0
3,5.281000137329102,learn,54718.9998626709,Fri Apr 11 2025 13:43:14 GMT-0500 (Central Daylight Time),376225.0,A,armenter,O,enter,392,1,932.7999999523163,375292.2000000477,7120,WL,B,4.0
3,5.465000152587891,learn,54534.99984741211,Fri Apr 11 2025 13:43:14 GMT-0500 (Central Daylight Time),376408.8000000715,A,s,O,s,172,1,183.5,376225.3000000715,7120,WL,B,5.0
3,5.732000112533569,learn,54267.99988746643,Fri Apr 11 2025 13:43:14 GMT-0500 (Central Daylight Time),376675.3000000715,A,st,O,t,239,1,450.0,376225.3000000715,7120,WL,B,5.0
3,5.865000009536743,learn,54134.99999046326,Fri Apr 11 2025 13:43:14 GMT-0500 (Central Daylight Time),376809.0,A,sta,O,a,109,1,583.6999999284744,376225.3000000715,7120,WL,B,5.0
3,5.947999954223633,learn,54052.00004577637,Fri Apr 11 2025 13:43:14 GMT-0500 (Central Daylight Time),376891.5,A,star,O,r,41,1,666.1999999284744,376225.3000000715,7120,WL,B,5.0
3,6.447999954223633,learn,53552.00004577637,Fri Apr 11 2025 13:43:14 GMT-0500 (Central Daylight Time),377391.2000000477,A,starenter,O,enter,484,1,1165.8999999761581,376225.3000000715,7120,WL,B,5.0
3,7.5980000495910645,learn,52401.999950408936,Fri Apr 11 2025 13:43:14 GMT-0500 (Central Daylight Time),378541.7000000477,A,w,O,w,1143,1,1150.2999999523163,377391.40000009537,7120,WL,B,6.0
3,7.797000169754028,learn,52202.99983024597,Fri Apr 11 2025 13:43:14 GMT-0500 (Central Daylight Time),378741.2000000477,A,wi,O,i,163,1,1349.7999999523163,377391.40000009537,7120,WL,B,6.0
3,7.914000034332275,learn,52085.999965667725,Fri Apr 11 2025 13:43:14 GMT-0500 (Central Daylight Time),378857.8000000715,A,win,O,n,96,1,1466.3999999761581,377391.40000009537,7120,WL,B,6.0
3,8.04800009727478,learn,51951.99990272522,Fri Apr 11 2025 13:43:14 GMT-0500 (Central Daylight Time),378991.7000000477,A,wind,O,d,116,1,1600.2999999523163,377391.40000009537,7120,WL,B,6.0
3,8.248000144958496,learn,51751.999855041504,Fri Apr 11 2025 13:43:14 GMT-0500 (Central Daylight Time),379191.3000000715,A,windo,O,o,171,1,1799.8999999761581,377391.40000009537,7120,WL,B,6.0
3,8.430999994277954,learn,51569.000005722046,Fri Apr 11 2025 13:43:14 GMT-0500 (Central Daylight Time),379374.7000000477,A,window,O,w,158,1,1983.2999999523163,377391.40000009537,7120,WL,B,6.0
3,8.746999979019165,learn,51253.000020980835,Fri Apr 11 2025 13:43:14 GMT-0500 (Central Daylight Time),379690.5,A,windowenter,O,enter,274,1,2299.0999999046326,377391.40000009537,7120,WL,B,6.0
3,9.114000082015991,learn,50885.99991798401,Fri Apr 11 2025 13:43:14 GMT-0500 (Central Daylight Time),380057.8000000715,A,w,O,w,347,1,367.0,379690.8000000715,7120,WL,B,7.0
3,9.312999963760376,learn,50687.000036239624,Fri Apr 11 2025 13:43:14 GMT-0500 (Central Daylight Time),380257.0,A,wi,O,i,167,1,566.1999999284744,379690.8000000715,7120,WL,B,7.0
3,9.547000169754028,learn,50452.99983024597,Fri Apr 11 2025 13:43:14 GMT-0500 (Central Daylight Time),380491.0,A,wif,O,f,215,1,800.1999999284744,379690.8000000715,7120,WL,B,7.0
3,9.69700002670288,learn,50302.99997329712,Fri Apr 11 2025 13:43:14 GMT-0500 (Central Daylight Time),380641.0,A,wife,O,e,120,1,950.1999999284744,379690.8000000715,7120,WL,B,7.0
3,9.96399998664856,learn,50036.00001335144,Fri Apr 11 2025 13:43:14 GMT-0500 (Central Daylight Time),380907.8000000715,A,wifeenter,O,enter,225,1,1217.0,379690.8000000715,7120,WL,B,7.0
3,10.246999979019165,learn,49753.000020980835,Fri Apr 11 2025 13:43:14 GMT-0500 (Central Daylight Time),381190.60000002384,A,c,O,c,274,1,282.5,380908.10000002384,7120,WL,B,8.0
3,10.397000074386597,learn,49602.9999256134,Fri Apr 11 2025 13:43:14 GMT-0500 (Central Daylight Time),381340.8000000715,A,cl,O,l,116,1,432.7000000476837,380908.10000002384,7120,WL,B,8.0
3,10.564000129699707,learn,49435.99987030029,Fri Apr 11 2025 13:43:14 GMT-0500 (Central Daylight Time),381507.3000000715,A,clo,O,o,134,1,599.2000000476837,380908.10000002384,7120,WL,B,8.0
3,10.746999979019165,learn,49253.000020980835,Fri Apr 11 2025 13:43:14 GMT-0500 (Central Daylight Time),381690.7000000477,A,cloc,O,c,150,1,782.6000000238419,380908.10000002384,7120,WL,B,8.0
3,10.913000106811523,learn,49086.99989318848,Fri Apr 11 2025 13:43:14 GMT-0500 (Central Daylight Time),381856.90000009537,A,clock,O,k,126,1,948.8000000715256,380908.10000002384,7120,WL,B,8.0
3,11.54800009727478,learn,48451.99990272522,Fri Apr 11 2025 13:43:14 GMT-0500 (Central Daylight Time),382491.3000000715,A,clockenter,O,enter,603,1,1583.2000000476837,380908.10000002384,7120,WL,B,8.0
3,11.913000106811523,learn,48086.99989318848,Fri Apr 11 2025 13:43:14 GMT-0500 (Central Daylight Time),382857.10000002384,A,c,O,c,354,1,365.5,382491.60000002384,7120,WL,B,9.0
3,12.046000003814697,learn,47953.9999961853,Fri Apr 11 2025 13:43:14 GMT-0500 (Central Daylight Time),382989.60000002384,A,ca,O,a,103,1,498.0,382491.60000002384,7120,WL,B,9.0
3,12.180000066757202,learn,47819.9999332428,Fri Apr 11 2025 13:43:14 GMT-0500 (Central Daylight Time),383123.5,A,cab,O,b,117,1,631.8999999761581,382491.60000002384,7120,WL,B,9.0
3,12.413000106811523,learn,47586.99989318848,Fri Apr 11 2025 13:43:14 GMT-0500 (Central Daylight Time),383356.8000000715,A,cabi,O,i,199,1,865.2000000476837,382491.60000002384,7120,WL,B,9.0
3,12.578999996185303,learn,47421.0000038147,Fri Apr 11 2025 13:43:14 GMT-0500 (Central Daylight Time),383523.2000000477,A,cabin,O,n,134,1,1031.6000000238419,382491.60000002384,7120,WL,B,9.0
3,13.078999996185303,learn,46921.0000038147,Fri Apr 11 2025 13:43:14 GMT-0500 (Central Daylight Time),384022.3000000715,A,cabinenter,O,enter,462,1,1530.7000000476837,382491.60000002384,7120,WL,B,9.0
3,15.878999948501587,learn,44121.00005149841,Fri Apr 11 2025 13:43:14 GMT-0500 (Central Daylight Time),386822.40000009537,A,f,O,f,2784,1,2799.8000000715256,384022.60000002384,7120,WL,B,10.0
3,16.028000116348267,learn,43971.99988365173,Fri Apr 11 2025 13:43:14 GMT-0500 (Central Daylight Time),386972.10000002384,A,fi,O,i,108,1,2949.5,384022.60000002384,7120,WL,B,10.0
3,16.128000020980835,learn,43871.999979019165,Fri Apr 11 2025 13:43:14 GMT-0500 (Central Daylight Time),387071.8000000715,A,fir,O,r,62,1,3049.2000000476837,384022.60000002384,7120,WL,B,10.0
3,16.295000076293945,learn,43704.999923706055,Fri Apr 11 2025 13:43:14 GMT-0500 (Central Daylight Time),387238.5,A,fire,O,e,133,1,3215.899999976158,384022.60000002384,7120,WL,B,10.0
3,16.8270001411438,learn,43172.9998588562,Fri Apr 11 2025 13:43:14 GMT-0500 (Central Daylight Time),387771.10000002384,A,fireenter,O,enter,500,1,3748.5,384022.60000002384,7120,WL,B,10.0
3,21.276999950408936,learn,38723.000049591064,Fri Apr 11 2025 13:43:14 GMT-0500 (Central Daylight Time),392220.3000000715,A,l,O,l,4427,1,4448.899999976158,387771.40000009537,7120,WL,B,11.0
3,21.35199999809265,learn,38648.00000190735,Fri Apr 11 2025 13:43:14 GMT-0500 (Central Daylight Time),392296.0,A,la,O,a,43,1,4524.599999904633,387771.40000009537,7120,WL,B,11.0
3,21.526999950408936,learn,38473.000049591064,Fri Apr 11 2025 13:43:14 GMT-0500 (Central Daylight Time),392470.40000009537,A,lak,O,k,151,1,4699.0,387771.40000009537,7120,WL,B,11.0
3,21.62600016593933,learn,38373.99983406067,Fri Apr 11 2025 13:43:14 GMT-0500 (Central Daylight Time),392569.40000009537,A,lake,O,e,59,1,4798.0,387771.40000009537,7120,WL,B,11.0
3,21.97699999809265,learn,38023.00000190735,Fri Apr 11 2025 13:43:14 GMT-0500 (Central Daylight Time),392920.10000002384,A,lakeenter,O,enter,330,1,5148.699999928474,387771.40000009537,7120,WL,B,11.0
3,25.492000102996826,learn,34507.999897003174,Fri Apr 11 2025 13:43:14 GMT-0500 (Central Daylight Time),396435.8000000715,A,w,O,w,3502,1,3515.399999976158,392920.40000009537,7120,WL,B,12.0
3,25.692000150680542,learn,34307.99984931946,Fri Apr 11 2025 13:43:14 GMT-0500 (Central Daylight Time),396635.7000000477,A,wi,O,i,157,1,3715.2999999523163,392920.40000009537,7120,WL,B,12.0
3,25.825000047683716,learn,34174.999952316284,Fri Apr 11 2025 13:43:14 GMT-0500 (Central Daylight Time),396768.40000009537,A,win,O,n,112,1,3848.0,392920.40000009537,7120,WL,B,12.0
3,25.924999952316284,learn,34075.000047683716,Fri Apr 11 2025 13:43:14 GMT-0500 (Central Daylight Time),396868.5,A,wind,O,d,77,1,3948.0999999046326,392920.40000009537,7120,WL,B,12.0
3,26.108999967575073,learn,33891.00003242493,Fri Apr 11 2025 13:43:14 GMT-0500 (Central Daylight Time),397052.5,A,windo,O,o,161,1,4132.099999904633,392920.40000009537,7120,WL,B,12.0
3,26.258000135421753,learn,33741.99986457825,Fri Apr 11 2025 13:43:14 GMT-0500 (Central Daylight Time),397201.60000002384,A,window,O,w,117,1,4281.199999928474,392920.40000009537,7120,WL,B,12.0
3,26.508000135421753,learn,33491.99986457825,Fri Apr 11 2025 13:43:14 GMT-0500 (Central Daylight Time),397451.3000000715,A,windowenter,O,enter,222,1,4530.899999976158,392920.40000009537,7120,WL,B,12.0
3,27.407999992370605,learn,32592.000007629395,Fri Apr 11 2025 13:43:14 GMT-0500 (Central Daylight Time),398351.8000000715,A,c,O,c,883,1,900.2000000476837,397451.60000002384,7120,WL,B,13.0
3,27.52400016784668,learn,32475.99983215332,Fri Apr 11 2025 13:43:14 GMT-0500 (Central Daylight Time),398467.8000000715,A,ci,O,i,82,1,1016.2000000476837,397451.60000002384,7120,WL,B,13.0
3,27.707000017166138,learn,32292.999982833862,Fri Apr 11 2025 13:43:14 GMT-0500 (Central Daylight Time),398651.0,A,cit,O,t,152,1,1199.3999999761581,397451.60000002384,7120,WL,B,13.0
3,27.77500009536743,learn,32224.99990463257,Fri Apr 11 2025 13:43:14 GMT-0500 (Central Daylight Time),398718.40000009537,A,city,O,y,48,1,1266.8000000715256,397451.60000002384,7120,WL,B,13.0
3,28.223999977111816,learn,31776.000022888184,Fri Apr 11 2025 13:43:14 GMT-0500 (Central Daylight Time),399167.40000009537,A,cityenter,O,enter,418,1,1715.8000000715256,397451.60000002384,7120,WL,B,13.0
3,32.24000000953674,learn,27759.999990463257,Fri Apr 11 2025 13:43:14 GMT-0500 (Central Daylight Time),403183.5,A,s,O,s,4006,1,4015.899999976158,399167.60000002384,7120,WL,B,14.0
3,32.456000089645386,learn,27543.999910354614,Fri Apr 11 2025 13:43:14 GMT-0500 (Central Daylight Time),403400.2000000477,A,sk,O,k,178,1,4232.600000023842,399167.60000002384,7120,WL,B,14.0
3,32.6560001373291,learn,27343.9998626709,Fri Apr 11 2025 13:43:14 GMT-0500 (Central Daylight Time),403599.90000009537,A,ski,O,i,171,1,4432.300000071526,399167.60000002384,7120,WL,B,14.0
3,34.03800010681152,learn,25961.999893188477,Fri Apr 11 2025 13:43:14 GMT-0500 (Central Daylight Time),404982.0,A,skin,O,n,1358,1,5814.399999976158,399167.60000002384,7120,WL,B,14.0
3,34.73900008201599,learn,25260.99991798401,Fri Apr 11 2025 13:43:14 GMT-0500 (Central Daylight Time),405682.90000009537,A,skinenter,O,enter,686,1,6515.300000071526,399167.60000002384,7120,WL,B,14.0
3,49.88499999046326,learn,10115.000009536743,Fri Apr 11 2025 13:43:14 GMT-0500 (Central Daylight Time),420827.90000009537,A,f,O,f,15123,1,15144.700000047684,405683.2000000477,7120,WL,B,15.0
3,50.134000062942505,learn,9865.999937057495,Fri Apr 11 2025 13:43:14 GMT-0500 (Central Daylight Time),421077.2000000477,A,fi,O,i,213,1,15394.0,405683.2000000477,7120,WL,B,15.0
3,50.26800012588501,learn,9731.99987411499,Fri Apr 11 2025 13:43:14 GMT-0500 (Central Daylight Time),421210.90000009537,A,fir,O,r,105,1,15527.700000047684,405683.2000000477,7120,WL,B,15.0
3,50.41799998283386,learn,9582.000017166138,Fri Apr 11 2025 13:43:14 GMT-0500 (Central Daylight Time),421361.10000002384,A,fire,O,e,119,1,15677.899999976158,405683.2000000477,7120,WL,B,15.0
3,50.700000047683716,learn,9299.999952316284,Fri Apr 11 2025 13:43:14 GMT-0500 (Central Daylight Time),421643.3000000715,A,fireenter,O,enter,248,1,15960.100000023842,405683.2000000477,7120,WL,B,15.0
4,0.6340000629425049,learn,59365.999937057495,Fri Apr 11 2025 13:43:14 GMT-0500 (Central Daylight Time),488089.2000000477,A,s,O,s,594,1,632.7000000476837,487456.5,7120,WL,B,1.0
4,0.9000000953674316,learn,59099.99990463257,Fri Apr 11 2025 13:43:14 GMT-0500 (Central Daylight Time),488355.7000000477,A,st,O,t,233,1,899.2000000476837,487456.5,7120,WL,B,1.0
4,1.0329999923706055,learn,58967.000007629395,Fri Apr 11 2025 13:43:14 GMT-0500 (Central Daylight Time),488488.90000009537,A,str,O,r,95,1,1032.4000000953674,487456.5,7120,WL,B,1.0
4,1.2000000476837158,learn,58799.999952316284,Fri Apr 11 2025 13:43:14 GMT-0500 (Central Daylight Time),488655.60000002384,A,stre,O,e,130,1,1199.1000000238419,487456.5,7120,WL,B,1.0
4,1.3500001430511475,learn,58649.99985694885,Fri Apr 11 2025 13:43:14 GMT-0500 (Central Daylight Time),488805.3000000715,A,stree,O,e,124,1,1348.8000000715256,487456.5,7120,WL,B,1.0
4,1.433000087738037,learn,58566.99991226196,Fri Apr 11 2025 13:43:14 GMT-0500 (Central Daylight Time),488888.40000009537,A,street,O,t,53,1,1431.9000000953674,487456.5,7120,WL,B,1.0
4,2.1679999828338623,learn,57832.00001716614,Fri Apr 11 2025 13:43:14 GMT-0500 (Central Daylight Time),489622.90000009537,A,streetenter,O,enter,717,1,2166.4000000953674,487456.5,7120,WL,B,1.0
4,2.5160000324249268,learn,57483.99996757507,Fri Apr 11 2025 13:43:14 GMT-0500 (Central Daylight Time),489971.7000000477,A,g,O,g,342,1,348.5,489623.2000000477,7120,WL,B,2.0
4,2.7160000801086426,learn,57283.99991989136,Fri Apr 11 2025 13:43:14 GMT-0500 (Central Daylight Time),490171.60000002384,A,gr,O,r,178,1,548.3999999761581,489623.2000000477,7120,WL,B,2.0
4,2.933000087738037,learn,57066.99991226196,Fri Apr 11 2025 13:43:14 GMT-0500 (Central Daylight Time),490387.90000009537,A,gra,O,a,175,1,764.7000000476837,489623.2000000477,7120,WL,B,2.0
4,3.133000135421753,learn,56866.99986457825,Fri Apr 11 2025 13:43:14 GMT-0500 (Central Daylight Time),490589.0,A,gras,O,s,184,1,965.7999999523163,489623.2000000477,7120,WL,B,2.0
4,3.2990000247955322,learn,56700.99997520447,Fri Apr 11 2025 13:43:14 GMT-0500 (Central Daylight Time),490754.8000000715,A,grass,O,s,125,1,1131.6000000238419,489623.2000000477,7120,WL,B,2.0
4,3.4650001525878906,learn,56534.99984741211,Fri Apr 11 2025 13:43:14 GMT-0500 (Central Daylight Time),490920.5,A,grassenter,O,enter,133,1,1297.2999999523163,489623.2000000477,7120,WL,B,2.0
4,3.7320001125335693,learn,56267.99988746643,Fri Apr 11 2025 13:43:14 GMT-0500 (Central Daylight Time),491187.7000000477,A,d,O,d,260,1,266.89999997615814,490920.8000000715,7120,WL,B,3.0
4,4.182000160217285,learn,55817.999839782715,Fri Apr 11 2025 13:43:14 GMT-0500 (Central Daylight Time),491637.90000009537,A,do,O,o,431,1,717.1000000238419,490920.8000000715,7120,WL,B,3.0
4,4.332000017166138,learn,55667.99998283386,Fri Apr 11 2025 13:43:14 GMT-0500 (Central Daylight Time),491787.8000000715,A,doo,O,o,123,1,867.0,490920.8000000715,7120,WL,B,3.0
4,4.549000024795532,learn,55450.99997520447,Fri Apr 11 2025 13:43:14 GMT-0500 (Central Daylight Time),492004.5,A,door,O,r,183,1,1083.6999999284744,490920.8000000715,7120,WL,B,3.0
4,4.965000152587891,learn,55034.99984741211,Fri Apr 11 2025 13:43:14 GMT-0500 (Central Daylight Time),492420.10000002384,A,doorenter,O,enter,392,1,1499.2999999523163,490920.8000000715,7120,WL,B,3.0
4,5.348999977111816,learn,54651.00002288818,Fri Apr 11 2025 13:43:14 GMT-0500 (Central Daylight Time),492804.0,A,a,O,a,370,1,383.59999990463257,492420.40000009537,7120,WL,B,4.0
4,5.5320000648498535,learn,54467.99993515015,Fri Apr 11 2025 13:43:14 GMT-0500 (Central Daylight Time),492986.90000009537,A,ar,O,r,142,1,566.5,492420.40000009537,7120,WL,B,4.0
4,5.732000112533569,learn,54267.99988746643,Fri Apr 11 2025 13:43:14 GMT-0500 (Central Daylight Time),493187.40000009537,A,arm,O,m,168,1,767.0,492420.40000009537,7120,WL,B,4.0
4,6.164999961853027,learn,53835.00003814697,Fri Apr 11 2025 13:43:14 GMT-0500 (Central Daylight Time),493620.5,A,armenter,O,enter,403,1,1200.0999999046326,492420.40000009537,7120,WL,B,4.0
4,6.314000129699707,learn,53685.99987030029,Fri Apr 11 2025 13:43:14 GMT-0500 (Central Daylight Time),493769.8000000715,A,s,O,s,137,1,149.10000002384186,493620.7000000477,7120,WL,B,5.0
4,6.615000009536743,learn,53384.99999046326,Fri Apr 11 2025 13:43:14 GMT-0500 (Central Daylight Time),494070.5,A,st,O,t,278,1,449.7999999523163,493620.7000000477,7120,WL,B,5.0
4,6.8480000495910645,learn,53151.999950408936,Fri Apr 11 2025 13:43:14 GMT-0500 (Central Daylight Time),494303.90000009537,A,sta,O,a,196,1,683.2000000476837,493620.7000000477,7120,WL,B,5.0
4,7.015000104904175,learn,52984.999895095825,Fri Apr 11 2025 13:43:14 GMT-0500 (Central Daylight Time),494470.2000000477,A,star,O,r,139,1,849.5,493620.7000000477,7120,WL,B,5.0
4,7.716000080108643,learn,52283.99991989136,Fri Apr 11 2025 13:43:14 GMT-0500 (Central Daylight Time),495170.90000009537,A,starenter,O,enter,658,1,1550.2000000476837,493620.7000000477,7120,WL,B,5.0
4,7.998000144958496,learn,52001.999855041504,Fri Apr 11 2025 13:43:14 GMT-0500 (Central Daylight Time),495452.90000009537,A,w,O,w,274,1,281.8000000715256,495171.10000002384,7120,WL,B,6.0
4,8.230999946594238,learn,51769.00005340576,Fri Apr 11 2025 13:43:14 GMT-0500 (Central Daylight Time),495686.5,A,wi,O,i,213,1,515.3999999761581,495171.10000002384,7120,WL,B,6.0
4,8.331000089645386,learn,51668.999910354614,Fri Apr 11 2025 13:43:14 GMT-0500 (Central Daylight Time),495786.10000002384,A,win,O,n,65,1,615.0,495171.10000002384,7120,WL,B,6.0
4,8.44700002670288,learn,51552.99997329712,Fri Apr 11 2025 13:43:14 GMT-0500 (Central Daylight Time),495902.7000000477,A,wind,O,d,99,1,731.6000000238419,495171.10000002384,7120,WL,B,6.0
4,8.614000082015991,learn,51385.99991798401,Fri Apr 11 2025 13:43:14 GMT-0500 (Central Daylight Time),496069.60000002384,A,windo,O,o,149,1,898.5,495171.10000002384,7120,WL,B,6.0
4,8.763999938964844,learn,51236.000061035156,Fri Apr 11 2025 13:43:14 GMT-0500 (Central Daylight Time),496219.0,A,window,O,w,115,1,1047.8999999761581,495171.10000002384,7120,WL,B,6.0
4,9.480000019073486,learn,50519.999980926514,Fri Apr 11 2025 13:43:14 GMT-0500 (Central Daylight Time),496935.3000000715,A,windowenter,O,enter,701,1,1764.2000000476837,495171.10000002384,7120,WL,B,6.0
4,10.095999956130981,learn,49904.00004386902,Fri Apr 11 2025 13:43:14 GMT-0500 (Central Daylight Time),497551.8000000715,A,w,O,w,598,1,616.3000000715256,496935.5,7120,WL,B,7.0
4,10.397000074386597,learn,49602.9999256134,Fri Apr 11 2025 13:43:14 GMT-0500 (Central Daylight Time),497852.90000009537,A,wi,O,i,289,1,917.4000000953674,496935.5,7120,WL,B,7.0
4,10.580000162124634,learn,49419.999837875366,Fri Apr 11 2025 13:43:14 GMT-0500 (Central Daylight Time),498035.90000009537,A,wif,O,f,151,1,1100.4000000953674,496935.5,7120,WL,B,7.0
4,10.696000099182129,learn,49303.99990081787,Fri Apr 11 2025 13:43:14 GMT-0500 (Central Daylight Time),498151.8000000715,A,wife,O,e,78,1,1216.3000000715256,496935.5,7120,WL,B,7.0
4,10.92900013923645,learn,49070.99986076355,Fri Apr 11 2025 13:43:14 GMT-0500 (Central Daylight Time),498384.8000000715,A,wifeenter,O,enter,214,1,1449.3000000715256,496935.5,7120,WL,B,7.0
4,11.19700002670288,learn,48802.99997329712,Fri Apr 11 2025 13:43:14 GMT-0500 (Central Daylight Time),498653.0,A,c,O,c,261,1,267.89999997615814,498385.10000002384,7120,WL,B,8.0
4,11.430000066757202,learn,48569.9999332428,Fri Apr 11 2025 13:43:14 GMT-0500 (Central Daylight Time),498885.7000000477,A,ci,O,i,198,1,500.60000002384186,498385.10000002384,7120,WL,B,8.0
4,11.513000011444092,learn,48486.99998855591,Fri Apr 11 2025 13:43:14 GMT-0500 (Central Daylight Time),498967.90000009537,A,cit,O,t,45,1,582.8000000715256,498385.10000002384,7120,WL,B,8.0
4,11.680000066757202,learn,48319.9999332428,Fri Apr 11 2025 13:43:14 GMT-0500 (Central Daylight Time),499135.40000009537,A,city,O,y,146,1,750.3000000715256,498385.10000002384,7120,WL,B,8.0
4,12.328999996185303,learn,47671.0000038147,Fri Apr 11 2025 13:43:14 GMT-0500 (Central Daylight Time),499784.40000009537,A,cityenter,O,enter,610,1,1399.3000000715256,498385.10000002384,7120,WL,B,8.0
4,12.680000066757202,learn,47319.9999332428,Fri Apr 11 2025 13:43:14 GMT-0500 (Central Daylight Time),500135.10000002384,A,l,O,l,340,1,350.39999997615814,499784.7000000477,7120,WL,B,9.0
4,12.76200008392334,learn,47237.99991607666,Fri Apr 11 2025 13:43:14 GMT-0500 (Central Daylight Time),500217.7000000477,A,la,O,a,47,1,433.0,499784.7000000477,7120,WL,B,9.0
4,12.911999940872192,learn,47088.00005912781,Fri Apr 11 2025 13:43:14 GMT-0500 (Central Daylight Time),500367.90000009537,A,lak,O,k,133,1,583.2000000476837,499784.7000000477,7120,WL,B,9.0
4,13.01200008392334,learn,46987.99991607666,Fri Apr 11 2025 13:43:14 GMT-0500 (Central Daylight Time),500467.8000000715,A,lake,O,e,76,1,683.1000000238419,499784.7000000477,7120,WL,B,9.0
4,13.229000091552734,learn,46770.999908447266,Fri Apr 11 2025 13:43:14 GMT-0500 (Central Daylight Time),500684.10000002384,A,lakeenter,O,enter,201,1,899.3999999761581,499784.7000000477,7120,WL,B,9.0
4,13.52999997138977,learn,46470.00002861023,Fri Apr 11 2025 13:43:14 GMT-0500 (Central Daylight Time),500985.0,A,c,O,c,290,1,300.6999999284744,500684.3000000715,7120,WL,B,10.0
4,13.646000146865845,learn,46353.999853134155,Fri Apr 11 2025 13:43:14 GMT-0500 (Central Daylight Time),501101.5,A,ca,O,a,81,1,417.1999999284744,500684.3000000715,7120,WL,B,10.0
4,13.779000043869019,learn,46220.99995613098,Fri Apr 11 2025 13:43:14 GMT-0500 (Central Daylight Time),501235.0,A,cab,O,b,102,1,550.6999999284744,500684.3000000715,7120,WL,B,10.0
4,13.996000051498413,learn,46003.99994850159,Fri Apr 11 2025 13:43:14 GMT-0500 (Central Daylight Time),501451.3000000715,A,cabi,O,i,176,1,767.0,500684.3000000715,7120,WL,B,10.0
4,14.146000146865845,learn,45853.999853134155,Fri Apr 11 2025 13:43:14 GMT-0500 (Central Daylight Time),501601.3000000715,A,cabin,O,n,113,1,917.0,500684.3000000715,7120,WL,B,10.0
4,14.42799997329712,learn,45572.00002670288,Fri Apr 11 2025 13:43:14 GMT-0500 (Central Daylight Time),501883.60000002384,A,cabinenter,O,enter,255,1,1199.2999999523163,500684.3000000715,7120,WL,B,10.0
4,15.361999988555908,learn,44638.00001144409,Fri Apr 11 2025 13:43:14 GMT-0500 (Central Daylight Time),502817.5,A,p,O,p,922,1,933.6999999284744,501883.8000000715,7120,WL,B,11.0
4,15.661999940872192,learn,44338.00005912781,Fri Apr 11 2025 13:43:14 GMT-0500 (Central Daylight Time),503117.40000009537,A,pu,O,u,264,1,1233.6000000238419,501883.8000000715,7120,WL,B,11.0
4,15.995000123977661,learn,44004.99987602234,Fri Apr 11 2025 13:43:14 GMT-0500 (Central Daylight Time),503450.7000000477,A,pup,O,p,294,1,1566.8999999761581,501883.8000000715,7120,WL,B,11.0
4,16.194999933242798,learn,43805.0000667572,Fri Apr 11 2025 13:43:14 GMT-0500 (Central Daylight Time),503650.60000002384,A,pupi,O,i,168,1,1766.7999999523163,501883.8000000715,7120,WL,B,11.0
4,16.394999980926514,learn,43605.000019073486,Fri Apr 11 2025 13:43:14 GMT-0500 (Central Daylight Time),503850.60000002384,A,pupil,O,l,167,1,1966.7999999523163,501883.8000000715,7120,WL,B,11.0
4,16.727999925613403,learn,43272.0000743866,Fri Apr 11 2025 13:43:14 GMT-0500 (Central Daylight Time),504183.0,A,pupilenter,O,enter,294,1,2299.1999999284744,501883.8000000715,7120,WL,B,11.0
4,17.111999988555908,learn,42888.00001144409,Fri Apr 11 2025 13:43:14 GMT-0500 (Central Daylight Time),504567.2000000477,A,p,O,p,375,1,383.7999999523163,504183.40000009537,7120,WL,B,12.0
4,17.39400005340576,learn,42605.99994659424,Fri Apr 11 2025 13:43:14 GMT-0500 (Central Daylight Time),504849.8000000715,A,pi,O,i,243,1,666.3999999761581,504183.40000009537,7120,WL,B,12.0
4,17.64400005340576,learn,42355.99994659424,Fri Apr 11 2025 13:43:14 GMT-0500 (Central Daylight Time),505099.90000009537,A,pip,O,p,218,1,916.5,504183.40000009537,7120,WL,B,12.0
4,17.82800006866455,learn,42171.99993133545,Fri Apr 11 2025 13:43:14 GMT-0500 (Central Daylight Time),505283.0,A,pipe,O,e,162,1,1099.5999999046326,504183.40000009537,7120,WL,B,12.0
4,18.045000076293945,learn,41954.999923706055,Fri Apr 11 2025 13:43:14 GMT-0500 (Central Daylight Time),505500.8000000715,A,pipeenter,O,enter,174,1,1317.3999999761581,504183.40000009537,7120,WL,B,12.0
4,18.544000148773193,learn,41455.99985122681,Fri Apr 11 2025 13:43:14 GMT-0500 (Central Daylight Time),505999.8000000715,A,c,O,c,489,1,498.8000000715256,505501.0,7120,WL,B,13.0
4,18.727999925613403,learn,41272.0000743866,Fri Apr 11 2025 13:43:14 GMT-0500 (Central Daylight Time),506183.0,A,cl,O,l,155,1,682.0,505501.0,7120,WL,B,13.0
4,18.92799997329712,learn,41072.00002670288,Fri Apr 11 2025 13:43:14 GMT-0500 (Central Daylight Time),506383.10000002384,A,clo,O,o,172,1,882.1000000238419,505501.0,7120,WL,B,13.0
4,19.128000020980835,learn,40871.999979019165,Fri Apr 11 2025 13:43:14 GMT-0500 (Central Daylight Time),506583.0,A,cloc,O,c,164,1,1082.0,505501.0,7120,WL,B,13.0
4,19.278000116348267,learn,40721.99988365173,Fri Apr 11 2025 13:43:14 GMT-0500 (Central Daylight Time),506733.10000002384,A,clock,O,k,126,1,1232.1000000238419,505501.0,7120,WL,B,13.0
4,19.594000101089478,learn,40405.99989891052,Fri Apr 11 2025 13:43:14 GMT-0500 (Central Daylight Time),507049.90000009537,A,clockenter,O,enter,284,1,1548.9000000953674,505501.0,7120,WL,B,13.0
4,26.825000047683716,learn,33174.999952316284,Fri Apr 11 2025 13:43:14 GMT-0500 (Central Daylight Time),514280.5,A,s,O,s,7219,1,7230.399999976158,507050.10000002384,7120,WL,B,14.0
4,27.075000047683716,learn,32924.999952316284,Fri Apr 11 2025 13:43:14 GMT-0500 (Central Daylight Time),514530.5,A,sk,O,k,210,1,7480.399999976158,507050.10000002384,7120,WL,B,14.0
4,27.325000047683716,learn,32674.999952316284,Fri Apr 11 2025 13:43:14 GMT-0500 (Central Daylight Time),514779.90000009537,A,ski,O,i,216,1,7729.800000071526,507050.10000002384,7120,WL,B,14.0
4,27.45799994468689,learn,32542.00005531311,Fri Apr 11 2025 13:43:14 GMT-0500 (Central Daylight Time),514913.40000009537,A,skin,O,n,102,1,7863.300000071526,507050.10000002384,7120,WL,B,14.0
4,28.256999969482422,learn,31743.000030517578,Fri Apr 11 2025 13:43:14 GMT-0500 (Central Daylight Time),515712.5,A,skinenter,O,enter,773,1,8662.399999976158,507050.10000002384,7120,WL,B,14.0
4,36.40499997138977,learn,23595.00002861023,Fri Apr 11 2025 13:43:14 GMT-0500 (Central Daylight Time),523860.7000000477,A,c,O,c,8133,1,8147.899999976158,515712.8000000715,7120,WL,B,15.0
4,36.6710000038147,learn,23328.999996185303,Fri Apr 11 2025 13:43:14 GMT-0500 (Central Daylight Time),524126.90000009537,A,ci,O,i,230,1,8414.100000023842,515712.8000000715,7120,WL,B,15.0
4,36.75399994850159,learn,23246.000051498413,Fri Apr 11 2025 13:43:14 GMT-0500 (Central Daylight Time),524209.90000009537,A,cit,O,t,59,1,8497.100000023842,515712.8000000715,7120,WL,B,15.0
4,36.90499997138977,learn,23095.00002861023,Fri Apr 11 2025 13:43:14 GMT-0500 (Central Daylight Time),524360.4000000954,A,city,O,y,122,1,8647.600000023842,515712.8000000715,7120,WL,B,15.0
4,37.28699994087219,learn,22713.000059127808,Fri Apr 11 2025 13:43:14 GMT-0500 (Central Daylight Time),524742.9000000954,A,cityenter,O,enter,354,1,9030.100000023842,515712.8000000715,7120,WL,B,15.0
5,0.3840000629425049,learn,60000.0,Fri Apr 11 2025 13:43:14 GMT-0500 (Central Daylight Time),592138.7000000477,A,s,O,s,353,1,383.39999997615814,591755.3000000715,7120,WL,B,1.0
5,0.6500000953674316,learn,60000.0,Fri Apr 11 2025 13:43:14 GMT-0500 (Central Daylight Time),592405.2000000477,A,st,O,t,232,1,649.8999999761581,591755.3000000715,7120,WL,B,1.0
5,1.1490001678466797,learn,60000.0,Fri Apr 11 2025 13:43:14 GMT-0500 (Central Daylight Time),592904.0,A,str,O,r,468,1,1148.6999999284744,591755.3000000715,7120,WL,B,1.0
5,1.6490001678466797,learn,60000.0,Fri Apr 11 2025 13:43:14 GMT-0500 (Central Daylight Time),593404.3000000715,A,stre,O,e,472,1,1649.0,591755.3000000715,7120,WL,B,1.0
5,2.0830001831054688,learn,60000.0,Fri Apr 11 2025 13:43:14 GMT-0500 (Central Daylight Time),593837.4000000954,A,stree,O,e,408,1,2082.100000023842,591755.3000000715,7120,WL,B,1.0
5,2.3489999771118164,learn,60000.0,Fri Apr 11 2025 13:43:14 GMT-0500 (Central Daylight Time),594104.4000000954,A,street,O,t,245,1,2349.100000023842,591755.3000000715,7120,WL,B,1.0
5,3.117000102996826,learn,60000.0,Fri Apr 11 2025 13:43:14 GMT-0500 (Central Daylight Time),594871.8000000715,A,streetenter,O,enter,729,1,3116.5,591755.3000000715,7120,WL,B,1.0
5,3.499000072479248,learn,60000.0,Fri Apr 11 2025 13:43:14 GMT-0500 (Central Daylight Time),595254.0,A,g,O,g,366,1,381.89999997615814,594872.1000000238,7120,WL,B,2.0
5,3.615000009536743,learn,60000.0,Fri Apr 11 2025 13:43:14 GMT-0500 (Central Daylight Time),595369.9000000954,A,gr,O,r,75,1,497.8000000715256,594872.1000000238,7120,WL,B,2.0
5,3.8320000171661377,learn,60000.0,Fri Apr 11 2025 13:43:14 GMT-0500 (Central Daylight Time),595587.0,A,gra,O,a,195,1,714.8999999761581,594872.1000000238,7120,WL,B,2.0
5,4.031000137329102,learn,60000.0,Fri Apr 11 2025 13:43:14 GMT-0500 (Central Daylight Time),595786.1000000238,A,gras,O,s,157,1,914.0,594872.1000000238,7120,WL,B,2.0
5,4.1650002002716064,learn,60000.0,Fri Apr 11 2025 13:43:14 GMT-0500 (Central Daylight Time),595919.6000000238,A,grass,O,s,113,1,1047.5,594872.1000000238,7120,WL,B,2.0
5,4.331000089645386,learn,60000.0,Fri Apr 11 2025 13:43:14 GMT-0500 (Central Daylight Time),596086.1000000238,A,grassenter,O,enter,149,1,1214.0,594872.1000000238,7120,WL,B,2.0
5,4.54800009727478,learn,60000.0,Fri Apr 11 2025 13:43:14 GMT-0500 (Central Daylight Time),596303.1000000238,A,d,O,d,207,1,216.79999995231628,596086.3000000715,7120,WL,B,3.0
5,4.765000104904175,learn,60000.0,Fri Apr 11 2025 13:43:14 GMT-0500 (Central Daylight Time),596519.7000000477,A,dp,O,p,187,1,433.39999997615814,596086.3000000715,7120,WL,B,3.0
5,5.348999977111816,learn,60000.0,Fri Apr 11 2025 13:43:14 GMT-0500 (Central Daylight Time),597103.2000000477,A,d,O,backspace,557,1,1016.8999999761581,596086.3000000715,7120,WL,B,3.0
5,6.082000017166138,learn,60000.0,Fri Apr 11 2025 13:43:14 GMT-0500 (Central Daylight Time),597835.9000000954,A,do,O,o,706,1,1749.6000000238419,596086.3000000715,7120,WL,B,3.0
5,6.265000104904175,learn,60000.0,Fri Apr 11 2025 13:43:14 GMT-0500 (Central Daylight Time),598019.6000000238,A,doo,O,o,154,1,1933.2999999523163,596086.3000000715,7120,WL,B,3.0
5,6.315000057220459,learn,60000.0,Fri Apr 11 2025 13:43:14 GMT-0500 (Central Daylight Time),598068.9000000954,A,door,O,r,23,1,1982.6000000238419,596086.3000000715,7120,WL,B,3.0
5,6.5980000495910645,learn,60000.0,Fri Apr 11 2025 13:43:14 GMT-0500 (Central Daylight Time),598352.1000000238,A,doorenter,O,enter,269,1,2265.7999999523163,596086.3000000715,7120,WL,B,3.0
5,6.815000057220459,learn,60000.0,Fri Apr 11 2025 13:43:14 GMT-0500 (Central Daylight Time),598569.2000000477,A,a,O,a,198,1,216.89999997615814,598352.3000000715,7120,WL,B,4.0
5,6.999000072479248,learn,60000.0,Fri Apr 11 2025 13:43:14 GMT-0500 (Central Daylight Time),598752.9000000954,A,ar,O,r,151,1,400.60000002384186,598352.3000000715,7120,WL,B,4.0
5,7.14900016784668,learn,60000.0,Fri Apr 11 2025 13:43:14 GMT-0500 (Central Daylight Time),598902.7000000477,A,arm,O,m,128,1,550.3999999761581,598352.3000000715,7120,WL,B,4.0
5,7.414000034332275,learn,60000.0,Fri Apr 11 2025 13:43:14 GMT-0500 (Central Daylight Time),599168.2000000477,A,armenter,O,enter,234,1,815.8999999761581,598352.3000000715,7120,WL,B,4.0
5,7.615000009536743,learn,60000.0,Fri Apr 11 2025 13:43:14 GMT-0500 (Central Daylight Time),599368.8000000715,A,s,O,s,181,1,200.30000007152557,599168.5,7120,WL,B,5.0
5,7.897000074386597,learn,60000.0,Fri Apr 11 2025 13:43:14 GMT-0500 (Central Daylight Time),599651.5,A,st,O,t,267,1,483.0,599168.5,7120,WL,B,5.0
5,8.031000137329102,learn,60000.0,Fri Apr 11 2025 13:43:14 GMT-0500 (Central Daylight Time),599785.8000000715,A,sta,O,a,113,1,617.3000000715256,599168.5,7120,WL,B,5.0
5,8.114000082015991,learn,60000.0,Fri Apr 11 2025 13:43:14 GMT-0500 (Central Daylight Time),599868.3000000715,A,star,O,r,46,1,699.8000000715256,599168.5,7120,WL,B,5.0
5,8.864000082015991,learn,60000.0,Fri Apr 11 2025 13:43:14 GMT-0500 (Central Daylight Time),600618.0,A,starenter,O,enter,723,1,1449.5,599168.5,7120,WL,B,5.0
5,9.96399998664856,learn,60000.0,Fri Apr 11 2025 13:43:14 GMT-0500 (Central Daylight Time),601718.1000000238,A,w,O,w,1091,1,1099.8999999761581,600618.2000000477,7120,WL,B,6.0
5,10.314000129699707,learn,60000.0,Fri Apr 11 2025 13:43:14 GMT-0500 (Central Daylight Time),602068.3000000715,A,wi,O,i,320,1,1450.1000000238419,600618.2000000477,7120,WL,B,6.0
5,10.480000019073486,learn,60000.0,Fri Apr 11 2025 13:43:14 GMT-0500 (Central Daylight Time),602234.3000000715,A,win,O,n,125,1,1616.1000000238419,600618.2000000477,7120,WL,B,6.0
5,10.63100004196167,learn,60000.0,Fri Apr 11 2025 13:43:14 GMT-0500 (Central Daylight Time),602385.0,A,wind,O,d,124,1,1766.7999999523163,600618.2000000477,7120,WL,B,6.0
5,10.880000114440918,learn,60000.0,Fri Apr 11 2025 13:43:14 GMT-0500 (Central Daylight Time),602634.5,A,windo,O,o,216,1,2016.2999999523163,600618.2000000477,7120,WL,B,6.0
5,11.064000129699707,learn,60000.0,Fri Apr 11 2025 13:43:14 GMT-0500 (Central Daylight Time),602818.2000000477,A,window,O,w,152,1,2200.0,600618.2000000477,7120,WL,B,6.0
5,11.246000051498413,learn,60000.0,Fri Apr 11 2025 13:43:14 GMT-0500 (Central Daylight Time),603000.5,A,windowenter,O,enter,144,1,2382.2999999523163,600618.2000000477,7120,WL,B,6.0
5,12.09600019454956,learn,60000.0,Fri Apr 11 2025 13:43:14 GMT-0500 (Central Daylight Time),603850.6000000238,A,c,O,c,829,1,849.7999999523163,603000.8000000715,7120,WL,B,7.0
5,12.263000011444092,learn,60000.0,Fri Apr 11 2025 13:43:14 GMT-0500 (Central Daylight Time),604017.7000000477,A,ci,O,i,147,1,1016.8999999761581,603000.8000000715,7120,WL,B,7.0
5,12.430000066757202,learn,60000.0,Fri Apr 11 2025 13:43:14 GMT-0500 (Central Daylight Time),604183.7000000477,A,cit,O,t,136,1,1182.8999999761581,603000.8000000715,7120,WL,B,7.0
5,12.513000011444092,learn,60000.0,Fri Apr 11 2025 13:43:14 GMT-0500 (Central Daylight Time),604267.6000000238,A,city,O,y,60,1,1266.7999999523163,603000.8000000715,7120,WL,B,7.0
5,12.879000186920166,learn,60000.0,Fri Apr 11 2025 13:43:14 GMT-0500 (Central Daylight Time),604633.4000000954,A,cityenter,O,enter,330,1,1632.6000000238419,603000.8000000715,7120,WL,B,7.0
5,13.28000020980835,learn,60000.0,Fri Apr 11 2025 13:43:14 GMT-0500 (Central Daylight Time),605034.1000000238,A,w,O,w,380,1,400.39999997615814,604633.7000000477,7120,WL,B,8.0
5,13.547000169754028,learn,60000.0,Fri Apr 11 2025 13:43:14 GMT-0500 (Central Daylight Time),605301.2000000477,A,wi,O,i,239,1,667.5,604633.7000000477,7120,WL,B,8.0
5,13.763000011444092,learn,60000.0,Fri Apr 11 2025 13:43:14 GMT-0500 (Central Daylight Time),605517.6000000238,A,wif,O,f,190,1,883.8999999761581,604633.7000000477,7120,WL,B,8.0
5,13.912000179290771,learn,60000.0,Fri Apr 11 2025 13:43:14 GMT-0500 (Central Daylight Time),605666.5,A,wife,O,e,116,1,1032.7999999523163,604633.7000000477,7120,WL,B,8.0
5,14.162000179290771,learn,60000.0,Fri Apr 11 2025 13:43:14 GMT-0500 (Central Daylight Time),605916.2000000477,A,wifeenter,O,enter,238,1,1282.5,604633.7000000477,7120,WL,B,8.0
5,14.629000186920166,learn,60000.0,Fri Apr 11 2025 13:43:14 GMT-0500 (Central Daylight Time),606383.5,A,c,O,c,458,1,467.0,605916.5,7120,WL,B,9.0
5,14.796000003814697,learn,60000.0,Fri Apr 11 2025 13:43:14 GMT-0500 (Central Daylight Time),606550.1000000238,A,ca,O,a,132,1,633.6000000238419,605916.5,7120,WL,B,9.0
5,14.930000066757202,learn,60000.0,Fri Apr 11 2025 13:43:14 GMT-0500 (Central Daylight Time),606684.0,A,cab,O,b,98,1,767.5,605916.5,7120,WL,B,9.0
5,15.078999996185303,learn,60000.0,Fri Apr 11 2025 13:43:14 GMT-0500 (Central Daylight Time),606833.5,A,cabi,O,i,113,1,917.0,605916.5,7120,WL,B,9.0
5,15.229000091552734,learn,60000.0,Fri Apr 11 2025 13:43:14 GMT-0500 (Central Daylight Time),606983.4000000954,A,cabin,O,n,112,1,1066.9000000953674,605916.5,7120,WL,B,9.0
5,15.728000164031982,learn,60000.0,Fri Apr 11 2025 13:43:14 GMT-0500 (Central Daylight Time),607482.3000000715,A,cabinenter,O,enter,454,1,1565.8000000715256,605916.5,7120,WL,B,9.0
5,16.062000036239624,learn,60000.0,Fri Apr 11 2025 13:43:14 GMT-0500 (Central Daylight Time),607816.4000000954,A,l,O,l,323,1,333.90000009536743,607482.5,7120,WL,B,10.0
5,16.195000171661377,learn,60000.0,Fri Apr 11 2025 13:43:14 GMT-0500 (Central Daylight Time),607948.9000000954,A,la,O,a,105,1,466.40000009536743,607482.5,7120,WL,B,10.0
5,16.312000036239624,learn,60000.0,Fri Apr 11 2025 13:43:14 GMT-0500 (Central Daylight Time),608066.1000000238,A,lak,O,k,94,1,583.6000000238419,607482.5,7120,WL,B,10.0
5,16.445000171661377,learn,60000.0,Fri Apr 11 2025 13:43:14 GMT-0500 (Central Daylight Time),608199.2000000477,A,lake,O,e,97,1,716.7000000476837,607482.5,7120,WL,B,10.0
5,16.628000020980835,learn,60000.0,Fri Apr 11 2025 13:43:14 GMT-0500 (Central Daylight Time),608382.1000000238,A,lakeenter,O,enter,158,1,899.6000000238419,607482.5,7120,WL,B,10.0
5,16.828999996185303,learn,60000.0,Fri Apr 11 2025 13:43:14 GMT-0500 (Central Daylight Time),608582.8000000715,A,f,O,f,184,1,200.5,608382.3000000715,7120,WL,B,11.0
5,17.045000076293945,learn,60000.0,Fri Apr 11 2025 13:43:14 GMT-0500 (Central Daylight Time),608799.4000000954,A,fi,O,i,179,1,417.10000002384186,608382.3000000715,7120,WL,B,11.0
5,17.14400005340576,learn,60000.0,Fri Apr 11 2025 13:43:14 GMT-0500 (Central Daylight Time),608898.6000000238,A,fir,O,r,64,1,516.2999999523163,608382.3000000715,7120,WL,B,11.0
5,17.32800006866455,learn,60000.0,Fri Apr 11 2025 13:43:14 GMT-0500 (Central Daylight Time),609082.3000000715,A,fire,O,e,169,1,700.0,608382.3000000715,7120,WL,B,11.0
5,17.594000101089478,learn,60000.0,Fri Apr 11 2025 13:43:14 GMT-0500 (Central Daylight Time),609348.4000000954,A,fireenter,O,enter,248,1,966.1000000238419,608382.3000000715,7120,WL,B,11.0
5,18.57800006866455,learn,60000.0,Fri Apr 11 2025 13:43:14 GMT-0500 (Central Daylight Time),610332.2000000477,A,c,O,c,961,1,983.6000000238419,609348.6000000238,7120,WL,B,12.0
5,18.677000045776367,learn,60000.0,Fri Apr 11 2025 13:43:14 GMT-0500 (Central Daylight Time),610431.3000000715,A,cl,O,l,69,1,1082.7000000476837,609348.6000000238,7120,WL,B,12.0
5,18.878000020980835,learn,60000.0,Fri Apr 11 2025 13:43:14 GMT-0500 (Central Daylight Time),610632.2000000477,A,clo,O,o,187,1,1283.6000000238419,609348.6000000238,7120,WL,B,12.0
5,19.011000156402588,learn,60000.0,Fri Apr 11 2025 13:43:14 GMT-0500 (Central Daylight Time),610764.9000000954,A,cloc,O,c,105,1,1416.3000000715256,609348.6000000238,7120,WL,B,12.0
5,19.111000061035156,learn,60000.0,Fri Apr 11 2025 13:43:14 GMT-0500 (Central Daylight Time),610865.0,A,clock,O,k,71,1,1516.3999999761581,609348.6000000238,7120,WL,B,12.0
5,19.57800006866455,learn,60000.0,Fri Apr 11 2025 13:43:14 GMT-0500 (Central Daylight Time),611332.0,A,clockenter,O,enter,436,1,1983.3999999761581,609348.6000000238,7120,WL,B,12.0
5,20.861000061035156,learn,60000.0,Fri Apr 11 2025 13:43:14 GMT-0500 (Central Daylight Time),612615.0,A,s,O,s,1274,1,1282.6999999284744,611332.3000000715,7120,WL,B,13.0
5,21.009999990463257,learn,60000.0,Fri Apr 11 2025 13:43:14 GMT-0500 (Central Daylight Time),612764.2000000477,A,sk,O,k,123,1,1431.8999999761581,611332.3000000715,7120,WL,B,13.0
5,21.277000188827515,learn,60000.0,Fri Apr 11 2025 13:43:14 GMT-0500 (Central Daylight Time),613031.1000000238,A,ski,O,i,241,1,1698.7999999523163,611332.3000000715,7120,WL,B,13.0
5,21.39300012588501,learn,60000.0,Fri Apr 11 2025 13:43:14 GMT-0500 (Central Daylight Time),613147.2000000477,A,skin,O,n,80,1,1814.8999999761581,611332.3000000715,7120,WL,B,13.0
5,21.843000173568726,learn,60000.0,Fri Apr 11 2025 13:43:14 GMT-0500 (Central Daylight Time),613597.0,A,skinenter,O,enter,441,1,2264.6999999284744,611332.3000000715,7120,WL,B,13.0
5,24.14300012588501,learn,60000.0,Fri Apr 11 2025 13:43:14 GMT-0500 (Central Daylight Time),615897.3000000715,A,p,O,p,2289,1,2300.0,613597.3000000715,7120,WL,B,14.0
5,24.426000118255615,learn,60000.0,Fri Apr 11 2025 13:43:14 GMT-0500 (Central Daylight Time),616180.6000000238,A,pu,O,u,241,1,2583.2999999523163,613597.3000000715,7120,WL,B,14.0
5,24.825999975204468,learn,60000.0,Fri Apr 11 2025 13:43:14 GMT-0500 (Central Daylight Time),616580.6000000238,A,pup,O,p,366,1,2983.2999999523163,613597.3000000715,7120,WL,B,14.0
5,25.109000205993652,learn,60000.0,Fri Apr 11 2025 13:43:14 GMT-0500 (Central Daylight Time),616863.5,A,pupi,O,i,246,1,3266.1999999284744,613597.3000000715,7120,WL,B,14.0
5,25.359000205993652,learn,60000.0,Fri Apr 11 2025 13:43:14 GMT-0500 (Central Daylight Time),617113.5,A,pupil,O,l,214,1,3516.1999999284744,613597.3000000715,7120,WL,B,14.0
5,25.77500009536743,learn,60000.0,Fri Apr 11 2025 13:43:14 GMT-0500 (Central Daylight Time),617529.1000000238,A,pupilenter,O,enter,384,1,3931.7999999523163,613597.3000000715,7120,WL,B,14.0
5,41.20300006866455,learn,60000.0,Fri Apr 11 2025 13:43:14 GMT-0500 (Central Daylight Time),632957.2000000477,A,f,O,f,15412,1,15427.899999976158,617529.3000000715,7120,WL,B,15.0
5,41.38600015640259,learn,60000.0,Fri Apr 11 2025 13:43:14 GMT-0500 (Central Daylight Time),633140.5,A,fi,O,i,166,1,15611.199999928474,617529.3000000715,7120,WL,B,15.0
5,41.45300006866455,learn,60000.0,Fri Apr 11 2025 13:43:14 GMT-0500 (Central Daylight Time),633207.3000000715,A,fir,O,r,47,1,15678.0,617529.3000000715,7120,WL,B,15.0
5,41.60300016403198,learn,60000.0,Fri Apr 11 2025 13:43:14 GMT-0500 (Central Daylight Time),633357.0,A,fire,O,e,141,1,15827.699999928474,617529.3000000715,7120,WL,B,15.0
5,41.95300006866455,learn,60000.0,Fri Apr 11 2025 13:43:14 GMT-0500 (Central Daylight Time),633706.9000000954,A,fireenter,O,enter,344,1,16177.600000023842,617529.3000000715,7120,WL,B,15.0
6,1.066999912261963,distr,58933.00008773804,Fri Apr 11 2025 13:43:14 GMT-0500 (Central Daylight Time),709949.4000000954,B,b,O,b,1042,1,1065.8000000715256,708883.6000000238,7120,WL,B,1.0
6,1.248999834060669,distr,58751.00016593933,Fri Apr 11 2025 13:43:14 GMT-0500 (Central Daylight Time),710131.8000000715,B,bb,O,b,157,1,1248.2000000476837,708883.6000000238,7120,WL,B,1.0
6,2.4499998092651367,distr,57550.00019073486,Fri Apr 11 2025 13:43:14 GMT-0500 (Central Daylight Time),711332.5,B,b,O,backspace,1178,1,2448.899999976158,708883.6000000238,7120,WL,B,1.0
6,2.6499998569488525,distr,57350.00014305115,Fri Apr 11 2025 13:43:14 GMT-0500 (Central Daylight Time),711532.4000000954,B,ba,O,a,169,1,2648.8000000715256,708883.6000000238,7120,WL,B,1.0
6,3.0829999446868896,distr,56917.00005531311,Fri Apr 11 2025 13:43:14 GMT-0500 (Central Daylight Time),711965.4000000954,B,bab,O,b,417,1,3081.8000000715256,708883.6000000238,7120,WL,B,1.0
6,3.248999834060669,distr,56751.00016593933,Fri Apr 11 2025 13:43:14 GMT-0500 (Central Daylight Time),712131.9000000954,B,baby,O,y,136,1,3248.3000000715256,708883.6000000238,7120,WL,B,1.0
6,3.9649999141693115,distr,56035.00008583069,Fri Apr 11 2025 13:43:14 GMT-0500 (Central Daylight Time),712847.8000000715,B,babyenter,O,enter,685,1,3964.2000000476837,708883.6000000238,7120,WL,B,1.0
6,4.382999897003174,distr,55617.000102996826,Fri Apr 11 2025 13:43:14 GMT-0500 (Central Daylight Time),713265.2000000477,B,p,O,p,406,1,417.10000002384186,712848.1000000238,7120,WL,B,2.0
6,4.515999794006348,distr,55484.00020599365,Fri Apr 11 2025 13:43:14 GMT-0500 (Central Daylight Time),713398.3000000715,B,pa,O,a,107,1,550.2000000476837,712848.1000000238,7120,WL,B,2.0
6,4.665999889373779,distr,55334.00011062622,Fri Apr 11 2025 13:43:14 GMT-0500 (Central Daylight Time),713548.7000000477,B,pal,O,l,125,1,700.6000000238419,712848.1000000238,7120,WL,B,2.0
6,4.7829999923706055,distr,55217.000007629395,Fri Apr 11 2025 13:43:14 GMT-0500 (Central Daylight Time),713665.2000000477,B,pala,O,a,92,1,817.1000000238419,712848.1000000238,7120,WL,B,2.0
6,4.998999834060669,distr,55001.00016593933,Fri Apr 11 2025 13:43:14 GMT-0500 (Central Daylight Time),713881.7000000477,B,palac,O,c,176,1,1033.6000000238419,712848.1000000238,7120,WL,B,2.0
6,5.148999929428101,distr,54851.0000705719,Fri Apr 11 2025 13:43:14 GMT-0500 (Central Daylight Time),714031.4000000954,B,palace,O,e,115,1,1183.3000000715256,712848.1000000238,7120,WL,B,2.0
6,5.430999994277954,distr,54569.000005722046,Fri Apr 11 2025 13:43:14 GMT-0500 (Central Daylight Time),714314.0,B,palaceenter,O,enter,242,1,1465.8999999761581,712848.1000000238,7120,WL,B,2.0
6,7.696999788284302,distr,52303.0002117157,Fri Apr 11 2025 13:43:14 GMT-0500 (Central Daylight Time),716579.9000000954,B,b,O,b,2251,1,2265.600000023842,714314.3000000715,7120,WL,B,3.0
6,7.7809998989105225,distr,52219.00010108948,Fri Apr 11 2025 13:43:14 GMT-0500 (Central Daylight Time),716663.2000000477,B,ba,O,a,64,1,2348.899999976158,714314.3000000715,7120,WL,B,3.0
6,7.931999921798706,distr,52068.000078201294,Fri Apr 11 2025 13:43:14 GMT-0500 (Central Daylight Time),716813.5,B,bar,O,r,132,1,2499.1999999284744,714314.3000000715,7120,WL,B,3.0
6,8.347999811172485,distr,51652.000188827515,Fri Apr 11 2025 13:43:14 GMT-0500 (Central Daylight Time),717229.7000000477,B,barenter,O,enter,386,1,2915.399999976158,714314.3000000715,7120,WL,B,3.0
6,11.913999795913696,distr,48086.000204086304,Fri Apr 11 2025 13:43:14 GMT-0500 (Central Daylight Time),720796.0,B,s,O,s,3552,1,3566.0,717230.0,7120,WL,B,4.0
6,12.263999938964844,distr,47736.000061035156,Fri Apr 11 2025 13:43:14 GMT-0500 (Central Daylight Time),721145.9000000954,B,st,O,t,326,1,3915.9000000953674,717230.0,7120,WL,B,4.0
6,12.396999835968018,distr,47603.00016403198,Fri Apr 11 2025 13:43:14 GMT-0500 (Central Daylight Time),721278.8000000715,B,ste,O,e,107,1,4048.8000000715256,717230.0,7120,WL,B,4.0
6,12.579999923706055,distr,47420.000076293945,Fri Apr 11 2025 13:43:14 GMT-0500 (Central Daylight Time),721462.5,B,stea,O,a,159,1,4232.5,717230.0,7120,WL,B,4.0
6,12.746999979019165,distr,47253.000020980835,Fri Apr 11 2025 13:43:14 GMT-0500 (Central Daylight Time),721629.0,B,steam,O,m,126,1,4399.0,717230.0,7120,WL,B,4.0
6,13.245999813079834,distr,46754.000186920166,Fri Apr 11 2025 13:43:14 GMT-0500 (Central Daylight Time),722128.1000000238,B,steamenter,O,enter,474,1,4898.100000023842,717230.0,7120,WL,B,4.0
6,14.61299991607666,distr,45387.00008392334,Fri Apr 11 2025 13:43:14 GMT-0500 (Central Daylight Time),723495.1000000238,B,t,O,t,1358,1,1366.7999999523163,722128.3000000715,7120,WL,B,5.0
6,15.046000003814697,distr,44953.9999961853,Fri Apr 11 2025 13:43:14 GMT-0500 (Central Daylight Time),723928.3000000715,B,tr,O,r,396,1,1800.0,722128.3000000715,7120,WL,B,5.0
6,15.263000011444092,distr,44736.99998855591,Fri Apr 11 2025 13:43:14 GMT-0500 (Central Daylight Time),724144.7000000477,B,tra,O,a,188,1,2016.3999999761581,722128.3000000715,7120,WL,B,5.0
6,15.52999997138977,distr,44470.00002861023,Fri Apr 11 2025 13:43:14 GMT-0500 (Central Daylight Time),724411.5,B,trai,O,i,230,1,2283.1999999284744,722128.3000000715,7120,WL,B,5.0
6,15.59499979019165,distr,44405.00020980835,Fri Apr 11 2025 13:43:14 GMT-0500 (Central Daylight Time),724477.3000000715,B,train,O,n,40,1,2349.0,722128.3000000715,7120,WL,B,5.0
6,16.394999980926514,distr,43605.000019073486,Fri Apr 11 2025 13:43:14 GMT-0500 (Central Daylight Time),725277.0,B,trainenter,O,enter,782,1,3148.6999999284744,722128.3000000715,7120,WL,B,5.0
6,16.995999813079834,distr,43004.000186920166,Fri Apr 11 2025 13:43:14 GMT-0500 (Central Daylight Time),725877.7000000477,B,c,O,c,584,1,600.3999999761581,725277.3000000715,7120,WL,B,6.0
6,17.17899990081787,distr,42821.00009918213,Fri Apr 11 2025 13:43:14 GMT-0500 (Central Daylight Time),726061.1000000238,B,ce,O,e,149,1,783.7999999523163,725277.3000000715,7120,WL,B,6.0
6,17.361999988555908,distr,42638.00001144409,Fri Apr 11 2025 13:43:14 GMT-0500 (Central Daylight Time),726244.4000000954,B,cel,O,l,143,1,967.1000000238419,725277.3000000715,7120,WL,B,6.0
6,17.51199984550476,distr,42488.00015449524,Fri Apr 11 2025 13:43:14 GMT-0500 (Central Daylight Time),726394.2000000477,B,cell,O,l,121,1,1116.8999999761581,725277.3000000715,7120,WL,B,6.0
6,18.060999870300293,distr,41939.00012969971,Fri Apr 11 2025 13:43:14 GMT-0500 (Central Daylight Time),726943.1000000238,B,cellenter,O,enter,522,1,1665.7999999523163,725277.3000000715,7120,WL,B,6.0
6,27.740999937057495,distr,32259.000062942505,Fri Apr 11 2025 13:43:14 GMT-0500 (Central Daylight Time),736623.3000000715,B,enter,O,enter,9670,1,9680.0,726943.3000000715,7120,WL,B,7.0
6,29.241999864578247,distr,30758.000135421753,Fri Apr 11 2025 13:43:14 GMT-0500 (Central Daylight Time),738123.7000000477,B,enter,O,enter,1485,1,1500.2000000476837,736623.5,7120,WL,B,8.0
6,41.103999853134155,distr,18896.000146865845,Fri Apr 11 2025 13:43:14 GMT-0500 (Central Daylight Time),749985.7000000477,B,enter,O,enter,11841,1,11861.700000047684,738124.0,7120,WL,B,9.0
6,41.70299983024597,distr,18297.00016975403,Fri Apr 11 2025 13:43:14 GMT-0500 (Central Daylight Time),750585.5,B,enter,O,enter,579,1,599.5999999046326,749985.9000000954,7120,WL,B,10.0
6,42.20299983024597,distr,17797.00016975403,Fri Apr 11 2025 13:43:14 GMT-0500 (Central Daylight Time),751085.3000000715,B,enter,O,enter,484,1,499.5,750585.8000000715,7120,WL,B,11.0
6,42.70299983024597,distr,17297.00016975403,Fri Apr 11 2025 13:43:14 GMT-0500 (Central Daylight Time),751585.1000000238,B,enter,O,enter,488,1,499.60000002384186,751085.5,7120,WL,B,12.0
6,42.919999837875366,distr,17080.000162124634,Fri Apr 11 2025 13:43:14 GMT-0500 (Central Daylight Time),751801.7000000477,B,enter,O,enter,204,1,216.29999995231628,751585.4000000954,7120,WL,B,13.0
6,43.05299997329712,distr,16947.00002670288,Fri Apr 11 2025 13:43:14 GMT-0500 (Central Daylight Time),751935.0,B,enter,O,enter,124,1,133.0,751802.0,7120,WL,B,14.0
6,43.835999965667725,distr,16164.000034332275,Fri Apr 11 2025 13:43:14 GMT-0500 (Central Daylight Time),752718.0,B,enter,O,enter,765,1,782.5999999046326,751935.4000000954,7120,WL,B,15.0
7,0.8330001831054688,immed,59166.99981689453,Fri Apr 11 2025 13:43:14 GMT-0500 (Central Daylight Time),770846.3000000715,A,w,O,w,808,1,832.5,770013.8000000715,7120,WL,B,1.0
7,1.2660000324249268,immed,58733.99996757507,Fri Apr 11 2025 13:43:14 GMT-0500 (Central Daylight Time),771279.2000000477,A,wi,O,i,410,1,1265.3999999761581,770013.8000000715,7120,WL,B,1.0
7,1.433000087738037,immed,58566.99991226196,Fri Apr 11 2025 13:43:14 GMT-0500 (Central Daylight Time),771446.2000000477,A,win,O,n,132,1,1432.3999999761581,770013.8000000715,7120,WL,B,1.0
7,1.883000135421753,immed,58116.99986457825,Fri Apr 11 2025 13:43:14 GMT-0500 (Central Daylight Time),771896.0,A,wind,O,d,413,1,1882.1999999284744,770013.8000000715,7120,WL,B,1.0
7,2.116000175476074,immed,57883.999824523926,Fri Apr 11 2025 13:43:14 GMT-0500 (Central Daylight Time),772128.8000000715,A,windo,O,o,194,1,2115.0,770013.8000000715,7120,WL,B,1.0
7,2.2660000324249268,immed,57733.99996757507,Fri Apr 11 2025 13:43:14 GMT-0500 (Central Daylight Time),772279.2000000477,A,window,O,w,122,1,2265.399999976158,770013.8000000715,7120,WL,B,1.0
7,5.015000104904175,immed,54984.999895095825,Fri Apr 11 2025 13:43:14 GMT-0500 (Central Daylight Time),775027.5,A,windowenter,O,enter,2722,1,5013.699999928474,770013.8000000715,7120,WL,B,1.0
7,5.398000001907349,immed,54601.99999809265,Fri Apr 11 2025 13:43:14 GMT-0500 (Central Daylight Time),775411.3000000715,A,g,O,g,363,1,383.60000002384186,775027.7000000477,7120,WL,B,2.0
7,5.615000009536743,immed,54384.99999046326,Fri Apr 11 2025 13:43:14 GMT-0500 (Central Daylight Time),775628.0,A,gr,O,r,176,1,600.2999999523163,775027.7000000477,7120,WL,B,2.0
7,5.815000057220459,immed,54184.99994277954,Fri Apr 11 2025 13:43:14 GMT-0500 (Central Daylight Time),775827.9000000954,A,gra,O,a,160,1,800.2000000476837,775027.7000000477,7120,WL,B,2.0
7,6.082000017166138,immed,53917.99998283386,Fri Apr 11 2025 13:43:14 GMT-0500 (Central Daylight Time),776094.5,A,gras,O,s,231,1,1066.7999999523163,775027.7000000477,7120,WL,B,2.0
7,6.231000185012817,immed,53768.99981498718,Fri Apr 11 2025 13:43:14 GMT-0500 (Central Daylight Time),776244.1000000238,A,grass,O,s,112,1,1216.3999999761581,775027.7000000477,7120,WL,B,2.0
7,6.781000137329102,immed,53218.9998626709,Fri Apr 11 2025 13:43:14 GMT-0500 (Central Daylight Time),776793.4000000954,A,grassenter,O,enter,521,1,1765.7000000476837,775027.7000000477,7120,WL,B,2.0
7,7.182000160217285,immed,52817.999839782715,Fri Apr 11 2025 13:43:14 GMT-0500 (Central Daylight Time),777194.2000000477,A,f,O,f,380,1,400.60000002384186,776793.6000000238,7120,WL,B,3.0
7,7.3480000495910645,immed,52651.999950408936,Fri Apr 11 2025 13:43:14 GMT-0500 (Central Daylight Time),777360.8000000715,A,fi,O,i,137,1,567.2000000476837,776793.6000000238,7120,WL,B,3.0
7,7.430999994277954,immed,52569.000005722046,Fri Apr 11 2025 13:43:14 GMT-0500 (Central Daylight Time),777443.8000000715,A,fir,O,r,58,1,650.2000000476837,776793.6000000238,7120,WL,B,3.0
7,7.63100004196167,immed,52368.99995803833,Fri Apr 11 2025 13:43:14 GMT-0500 (Central Daylight Time),777643.7000000477,A,fire,O,e,172,1,850.1000000238419,776793.6000000238,7120,WL,B,3.0
7,7.8470001220703125,immed,52152.99987792969,Fri Apr 11 2025 13:43:14 GMT-0500 (Central Daylight Time),777859.8000000715,A,fireenter,O,enter,181,1,1066.2000000476837,776793.6000000238,7120,WL,B,3.0
7,9.081000089645386,immed,50918.999910354614,Fri Apr 11 2025 13:43:14 GMT-0500 (Central Daylight Time),779093.7000000477,A,c,O,c,1225,1,1233.6000000238419,777860.1000000238,7120,WL,B,4.0
7,9.348000049591064,immed,50651.999950408936,Fri Apr 11 2025 13:43:14 GMT-0500 (Central Daylight Time),779360.7000000477,A,ci,O,i,234,1,1500.6000000238419,777860.1000000238,7120,WL,B,4.0
7,9.481000185012817,immed,50518.99981498718,Fri Apr 11 2025 13:43:14 GMT-0500 (Central Daylight Time),779493.3000000715,A,cit,O,t,103,1,1633.2000000476837,777860.1000000238,7120,WL,B,4.0
7,10.514000177383423,immed,49485.99982261658,Fri Apr 11 2025 13:43:14 GMT-0500 (Central Daylight Time),780526.5,A,city,O,y,1005,1,2666.399999976158,777860.1000000238,7120,WL,B,4.0
7,10.896000146865845,immed,49103.999853134155,Fri Apr 11 2025 13:43:14 GMT-0500 (Central Daylight Time),780908.7000000477,A,cityenter,O,enter,348,1,3048.600000023842,777860.1000000238,7120,WL,B,4.0
7,11.180000066757202,immed,48819.9999332428,Fri Apr 11 2025 13:43:14 GMT-0500 (Central Daylight Time),781192.8000000715,A,w,O,w,265,1,283.8000000715256,780909.0,7120,WL,B,5.0
7,11.347000122070312,immed,48652.99987792969,Fri Apr 11 2025 13:43:14 GMT-0500 (Central Daylight Time),781359.6000000238,A,wi,O,i,139,1,450.60000002384186,780909.0,7120,WL,B,5.0
7,11.647000074386597,immed,48352.9999256134,Fri Apr 11 2025 13:43:14 GMT-0500 (Central Daylight Time),781659.3000000715,A,wif,O,f,268,1,750.3000000715256,780909.0,7120,WL,B,5.0
7,11.797000169754028,immed,48202.99983024597,Fri Apr 11 2025 13:43:14 GMT-0500 (Central Daylight Time),781809.3000000715,A,wife,O,e,113,1,900.3000000715256,780909.0,7120,WL,B,5.0
7,11.979000091552734,immed,48020.999908447266,Fri Apr 11 2025 13:43:14 GMT-0500 (Central Daylight Time),781991.8000000715,A,wifeenter,O,enter,145,1,1082.8000000715256,780909.0,7120,WL,B,5.0
7,14.629000186920166,immed,45370.999813079834,Fri Apr 11 2025 13:43:14 GMT-0500 (Central Daylight Time),784641.8000000715,A,g,O,g,2638,1,2649.8000000715256,781992.0,7120,WL,B,6.0
7,14.84600019454956,immed,45153.99980545044,Fri Apr 11 2025 13:43:14 GMT-0500 (Central Daylight Time),784858.5,A,gr,O,r,181,1,2866.5,781992.0,7120,WL,B,6.0
7,15.045000076293945,immed,44954.999923706055,Fri Apr 11 2025 13:43:14 GMT-0500 (Central Daylight Time),785057.8000000715,A,gra,O,a,167,1,3065.8000000715256,781992.0,7120,WL,B,6.0
7,15.279000043869019,immed,44720.99995613098,Fri Apr 11 2025 13:43:14 GMT-0500 (Central Daylight Time),785291.2000000477,A,gras,O,s,203,1,3299.2000000476837,781992.0,7120,WL,B,6.0
7,15.42900013923645,immed,44570.99986076355,Fri Apr 11 2025 13:43:14 GMT-0500 (Central Daylight Time),785441.5,A,grass,O,s,119,1,3449.5,781992.0,7120,WL,B,6.0
7,16.480000019073486,immed,43519.999980926514,Fri Apr 11 2025 13:43:14 GMT-0500 (Central Daylight Time),786492.0,A,grassenter,O,enter,1017,1,4500.0,781992.0,7120,WL,B,6.0
7,20.011000156402588,immed,39988.99984359741,Fri Apr 11 2025 13:43:14 GMT-0500 (Central Daylight Time),790023.2000000477,A,f,O,f,3522,1,3531.0,786492.2000000477,7120,WL,B,7.0
7,20.194000005722046,immed,39805.999994277954,Fri Apr 11 2025 13:43:14 GMT-0500 (Central Daylight Time),790206.7000000477,A,fi,O,i,155,1,3714.5,786492.2000000477,7120,WL,B,7.0
7,20.277000188827515,immed,39722.999811172485,Fri Apr 11 2025 13:43:14 GMT-0500 (Central Daylight Time),790289.2000000477,A,fir,O,r,52,1,3797.0,786492.2000000477,7120,WL,B,7.0
7,20.47699999809265,immed,39523.00000190735,Fri Apr 11 2025 13:43:14 GMT-0500 (Central Daylight Time),790489.9000000954,A,fire,O,e,174,1,3997.7000000476837,786492.2000000477,7120,WL,B,7.0
7,20.66000008583069,immed,39339.99991416931,Fri Apr 11 2025 13:43:14 GMT-0500 (Central Daylight Time),790672.2000000477,A,fireenter,O,enter,145,1,4180.0,786492.2000000477,7120,WL,B,7.0
7,21.294000148773193,immed,38705.99985122681,Fri Apr 11 2025 13:43:14 GMT-0500 (Central Daylight Time),791306.3000000715,A,c,O,c,613,1,633.8000000715256,790672.5,7120,WL,B,8.0
7,21.41000008583069,immed,38589.99991416931,Fri Apr 11 2025 13:43:14 GMT-0500 (Central Daylight Time),791422.1000000238,A,ca,O,a,87,1,749.6000000238419,790672.5,7120,WL,B,8.0
7,21.627000093460083,immed,38372.99990653992,Fri Apr 11 2025 13:43:14 GMT-0500 (Central Daylight Time),791639.4000000954,A,cab,O,b,195,1,966.9000000953674,790672.5,7120,WL,B,8.0
7,21.777000188827515,immed,38222.999811172485,Fri Apr 11 2025 13:43:14 GMT-0500 (Central Daylight Time),791789.4000000954,A,cabi,O,i,123,1,1116.9000000953674,790672.5,7120,WL,B,8.0
7,21.960000038146973,immed,38039.99996185303,Fri Apr 11 2025 13:43:14 GMT-0500 (Central Daylight Time),791972.1000000238,A,cabin,O,n,142,1,1299.6000000238419,790672.5,7120,WL,B,8.0
7,22.292999982833862,immed,37707.00001716614,Fri Apr 11 2025 13:43:14 GMT-0500 (Central Daylight Time),792305.0,A,cabinenter,O,enter,304,1,1632.5,790672.5,7120,WL,B,8.0
7,22.542999982833862,immed,37457.00001716614,Fri Apr 11 2025 13:43:14 GMT-0500 (Central Daylight Time),792555.9000000954,A,l,O,l,237,1,250.60000002384186,792305.3000000715,7120,WL,B,9.0
7,22.710000038146973,immed,37289.99996185303,Fri Apr 11 2025 13:43:14 GMT-0500 (Central Daylight Time),792722.4000000954,A,la,O,a,128,1,417.10000002384186,792305.3000000715,7120,WL,B,9.0
7,22.843000173568726,immed,37156.999826431274,Fri Apr 11 2025 13:43:14 GMT-0500 (Central Daylight Time),792855.3000000715,A,lak,O,k,106,1,550.0,792305.3000000715,7120,WL,B,9.0
7,22.960000038146973,immed,37039.99996185303,Fri Apr 11 2025 13:43:14 GMT-0500 (Central Daylight Time),792972.7000000477,A,lake,O,e,100,1,667.3999999761581,792305.3000000715,7120,WL,B,9.0
7,23.176000118255615,immed,36823.999881744385,Fri Apr 11 2025 13:43:14 GMT-0500 (Central Daylight Time),793188.0,A,lakeenter,O,enter,191,1,882.6999999284744,792305.3000000715,7120,WL,B,9.0
7,23.460000038146973,immed,36539.99996185303,Fri Apr 11 2025 13:43:14 GMT-0500 (Central Daylight Time),793472.2000000477,A,c,O,c,274,1,284.0,793188.2000000477,7120,WL,B,10.0
7,23.693000078201294,immed,36306.999921798706,Fri Apr 11 2025 13:43:14 GMT-0500 (Central Daylight Time),793705.5,A,cl,O,l,203,1,517.2999999523163,793188.2000000477,7120,WL,B,10.0
7,23.91000008583069,immed,36089.99991416931,Fri Apr 11 2025 13:43:14 GMT-0500 (Central Daylight Time),793922.1000000238,A,clo,O,o,181,1,733.8999999761581,793188.2000000477,7120,WL,B,10.0
7,24.743000030517578,immed,35256.99996948242,Fri Apr 11 2025 13:43:14 GMT-0500 (Central Daylight Time),794755.1000000238,A,cloc,O,c,801,1,1566.8999999761581,793188.2000000477,7120,WL,B,10.0
7,24.87600016593933,immed,35123.99983406067,Fri Apr 11 2025 13:43:14 GMT-0500 (Central Daylight Time),794888.3000000715,A,clock,O,k,107,1,1700.1000000238419,793188.2000000477,7120,WL,B,10.0
7,25.142000198364258,immed,34857.99980163574,Fri Apr 11 2025 13:43:14 GMT-0500 (Central Daylight Time),795154.1000000238,A,clockenter,O,enter,233,1,1965.8999999761581,793188.2000000477,7120,WL,B,10.0
7,25.492000102996826,immed,34507.999897003174,Fri Apr 11 2025 13:43:14 GMT-0500 (Central Daylight Time),795504.8000000715,A,s,O,s,340,1,350.39999997615814,795154.4000000954,7120,WL,B,11.0
7,25.659000158309937,immed,34340.99984169006,Fri Apr 11 2025 13:43:14 GMT-0500 (Central Daylight Time),795671.5,A,sk,O,k,135,1,517.0999999046326,795154.4000000954,7120,WL,B,11.0
7,25.87600016593933,immed,34123.99983406067,Fri Apr 11 2025 13:43:14 GMT-0500 (Central Daylight Time),795887.9000000954,A,ski,O,i,180,1,733.5,795154.4000000954,7120,WL,B,11.0
7,26.092000007629395,immed,33907.999992370605,Fri Apr 11 2025 13:43:14 GMT-0500 (Central Daylight Time),796104.5,A,skin,O,n,191,1,950.0999999046326,795154.4000000954,7120,WL,B,11.0
7,26.843000173568726,immed,33156.999826431274,Fri Apr 11 2025 13:43:14 GMT-0500 (Central Daylight Time),796855.1000000238,A,skinenter,O,enter,717,1,1700.6999999284744,795154.4000000954,7120,WL,B,11.0
7,28.391000032424927,immed,31608.999967575073,Fri Apr 11 2025 13:43:14 GMT-0500 (Central Daylight Time),798403.6000000238,A,p,O,p,1526,1,1548.2999999523163,796855.3000000715,7120,WL,B,12.0
7,28.625,immed,31375.0,Fri Apr 11 2025 13:43:14 GMT-0500 (Central Daylight Time),798637.4000000954,A,pu,O,u,207,1,1782.1000000238419,796855.3000000715,7120,WL,B,12.0
7,29.02500009536743,immed,30974.99990463257,Fri Apr 11 2025 13:43:14 GMT-0500 (Central Daylight Time),799037.1000000238,A,pup,O,p,364,1,2181.7999999523163,796855.3000000715,7120,WL,B,12.0
7,29.391000032424927,immed,30608.999967575073,Fri Apr 11 2025 13:43:14 GMT-0500 (Central Daylight Time),799403.6000000238,A,pupi,O,i,335,1,2548.2999999523163,796855.3000000715,7120,WL,B,12.0
7,29.625,immed,30375.0,Fri Apr 11 2025 13:43:14 GMT-0500 (Central Daylight Time),799637.0,A,pupil,O,l,198,1,2781.6999999284744,796855.3000000715,7120,WL,B,12.0
7,29.890000104904175,immed,30109.999895095825,Fri Apr 11 2025 13:43:14 GMT-0500 (Central Daylight Time),799902.6000000238,A,pupilenter,O,enter,230,1,3047.2999999523163,796855.3000000715,7120,WL,B,12.0
7,30.324000120162964,immed,29675.999879837036,Fri Apr 11 2025 13:43:14 GMT-0500 (Central Daylight Time),800336.4000000954,A,p,O,p,423,1,433.60000002384186,799902.8000000715,7120,WL,B,13.0
7,30.54100012779236,immed,29458.99987220764,Fri Apr 11 2025 13:43:14 GMT-0500 (Central Daylight Time),800553.3000000715,A,pi,O,i,192,1,650.5,799902.8000000715,7120,WL,B,13.0
7,30.757000207901,immed,29242.999792099,Fri Apr 11 2025 13:43:14 GMT-0500 (Central Daylight Time),800769.8000000715,A,pip,O,p,180,1,867.0,799902.8000000715,7120,WL,B,13.0
7,30.924000024795532,immed,29075.999975204468,Fri Apr 11 2025 13:43:14 GMT-0500 (Central Daylight Time),800936.3000000715,A,pipe,O,e,129,1,1033.5,799902.8000000715,7120,WL,B,13.0
7,31.223000049591064,immed,28776.999950408936,Fri Apr 11 2025 13:43:14 GMT-0500 (Central Daylight Time),801235.4000000954,A,pipeenter,O,enter,272,1,1332.6000000238419,799902.8000000715,7120,WL,B,13.0
7,37.5550000667572,immed,22444.999933242798,Fri Apr 11 2025 13:43:14 GMT-0500 (Central Daylight Time),807567.6000000238,A,a,O,a,6322,1,6331.899999976158,801235.7000000477,7120,WL,B,14.0
7,38.78800010681152,immed,21211.999893188477,Fri Apr 11 2025 13:43:14 GMT-0500 (Central Daylight Time),808800.6000000238,A,ar,O,r,1202,1,7564.899999976158,801235.7000000477,7120,WL,B,14.0
7,38.97100019454956,immed,21028.99980545044,Fri Apr 11 2025 13:43:14 GMT-0500 (Central Daylight Time),808983.2000000477,A,arn,O,n,154,1,7747.5,801235.7000000477,7120,WL,B,14.0
7,40.837000131607056,immed,19162.999868392944,Fri Apr 11 2025 13:43:14 GMT-0500 (Central Daylight Time),810849.9000000954,A,ar,O,backspace,1841,1,9614.200000047684,801235.7000000477,7120,WL,B,14.0
7,41.72100019454956,immed,18278.99980545044,Fri Apr 11 2025 13:43:14 GMT-0500 (Central Daylight Time),811733.0,A,arm,O,m,849,1,10497.299999952316,801235.7000000477,7120,WL,B,14.0
7,42.336000204086304,immed,17663.999795913696,Fri Apr 11 2025 13:43:14 GMT-0500 (Central Daylight Time),812348.5,A,armenter,O,enter,584,1,11112.799999952316,801235.7000000477,7120,WL,B,14.0
7,42.670000076293945,immed,17329.999923706055,Fri Apr 11 2025 13:43:14 GMT-0500 (Central Daylight Time),812682.6000000238,A,d,O,d,322,1,333.89999997615814,812348.7000000477,7120,WL,B,15.0
7,42.920000076293945,immed,17079.999923706055,Fri Apr 11 2025 13:43:14 GMT-0500 (Central Daylight Time),812932.2000000477,A,do,O,o,216,1,583.5,812348.7000000477,7120,WL,B,15.0
7,43.07000017166138,immed,16929.999828338623,Fri Apr 11 2025 13:43:14 GMT-0500 (Central Daylight Time),813082.4000000954,A,doo,O,o,116,1,733.7000000476837,812348.7000000477,7120,WL,B,15.0
7,43.13100004196167,immed,16868.99995803833,Fri Apr 11 2025 13:43:14 GMT-0500 (Central Daylight Time),813143.5,A,door,O,r,30,1,794.7999999523163,812348.7000000477,7120,WL,B,15.0
7,43.486000061035156,immed,16513.999938964844,Fri Apr 11 2025 13:43:14 GMT-0500 (Central Daylight Time),813498.1000000238,A,doorenter,O,enter,332,1,1149.3999999761581,812348.7000000477,7120,WL,B,15.0
