acc_sum,block,block_c,change,condition,correct,correct_response,datetime,endtime,face,project,response,response_time,row_sel,session_number,start_end,starttime,subject_id,task,task_vers,trial
0,prac,1,,1-Back,,,Wed Apr 02 2025 17:03:54 GMT-0400 (Eastern Daylight Time),,012_o_f_d_a.png,I,space,18816,1,1,,,9010,VNB,C,0
1,prac,1,0.0,1-Back,1,m,Wed Apr 02 2025 17:03:54 GMT-0400 (Eastern Daylight Time),248233.59999990463,022_y_f_n_a.png,I,m,1828,2,1,2788.199999809265,245445.40000009537,9010,VNB,C,1
1,prac,1,0.0,1-Back,0,m,Wed Apr 02 2025 17:03:54 GMT-0400 (Eastern Daylight Time),251166.80000019073,014_m_m_h_a.png,I,None,2006,3,1,2920.5,248246.30000019073,9010,VNB,C,2
2,prac,1,0.0,1-Back,1,m,Wed Apr 02 2025 17:03:54 GMT-0400 (Eastern Daylight Time),253316.69999980927,025_y_m_d_a.png,I,m,1209,4,1,2133.199999809265,251183.5,9010,VNB,C,3
3,prac,1,0.0,1-Back,1,m,Wed Apr 02 2025 17:03:54 GMT-0400 (Eastern Daylight Time),256233.40000009537,012_o_f_n_a.png,I,m,1967,5,1,2903.7000002861023,253329.69999980927,9010,VNB,C,4
4,prac,1,1.0,1-Back,1,z,Wed Apr 02 2025 17:03:54 GMT-0400 (Eastern Daylight Time),258300.19999980927,025_y_m_n_a.png,I,z,1138,6,1,2050.3999996185303,256249.80000019073,9010,VNB,C,5
5,prac,1,0.0,1-Back,1,m,Wed Apr 02 2025 17:03:54 GMT-0400 (Eastern Daylight Time),260250.0,015_o_m_h_a.png,I,m,986,7,1,1936.6999998092651,258313.30000019073,9010,VNB,C,6
6,prac,1,0.0,1-Back,1,m,Wed Apr 02 2025 17:03:54 GMT-0400 (Eastern Daylight Time),262883.5,019_m_f_d_a.png,I,m,1661,8,1,2616.699999809265,260266.80000019073,9010,VNB,C,7
6,prac,1,1.0,1-Back,0,z,Wed Apr 02 2025 17:03:54 GMT-0400 (Eastern Daylight Time),265166.90000009537,022_y_f_d_a.png,I,m,1316,9,1,2266.2000002861023,262900.69999980927,9010,VNB,C,8
7,prac,1,0.0,1-Back,1,m,Wed Apr 02 2025 17:03:54 GMT-0400 (Eastern Daylight Time),267933.69999980927,014_m_m_n_a.png,I,m,1835,10,1,2752.3999996185303,265181.30000019073,9010,VNB,C,9
8,prac,1,0.0,1-Back,1,m,Wed Apr 02 2025 17:03:54 GMT-0400 (Eastern Daylight Time),270150.09999990463,012_o_f_h_a.png,I,m,1253,11,1,2203.0,267947.09999990463,9010,VNB,C,10
9,prac,1,0.0,1-Back,1,m,Wed Apr 02 2025 17:03:54 GMT-0400 (Eastern Daylight Time),272316.80000019073,025_y_m_d_a.png,I,m,1242,12,1,2153.5,270163.30000019073,9010,VNB,C,11
0,test,1,0.0,1-Back,,,Wed Apr 02 2025 17:03:54 GMT-0400 (Eastern Daylight Time),272316.80000019073,022_y_f_d_a.png,I,space,17444,1,1,2153.5,270163.30000019073,9010,VNB,C,0
1,test,1,0.0,1-Back,1,m,Wed Apr 02 2025 17:03:54 GMT-0400 (Eastern Daylight Time),303866.69999980927,019_m_f_n_a.png,I,m,1282,2,1,2289.5,301577.19999980927,9010,VNB,C,1
2,test,1,0.0,1-Back,1,m,Wed Apr 02 2025 17:03:54 GMT-0400 (Eastern Daylight Time),305983.5,015_o_m_h_a.png,I,m,1093,3,1,2102.800000190735,303880.69999980927,9010,VNB,C,2
3,test,1,1.0,1-Back,1,z,Wed Apr 02 2025 17:03:54 GMT-0400 (Eastern Daylight Time),308016.59999990463,014_m_m_h_a.png,I,z,1011,4,1,2023.2999997138977,305993.30000019073,9010,VNB,C,3
4,test,1,0.0,1-Back,1,m,Wed Apr 02 2025 17:03:54 GMT-0400 (Eastern Daylight Time),309816.59999990463,012_o_f_n_a.png,I,m,768,5,1,1788.0999999046326,308028.5,9010,VNB,C,4
5,test,1,0.0,1-Back,1,m,Wed Apr 02 2025 17:03:54 GMT-0400 (Eastern Daylight Time),312416.80000019073,025_y_m_d_a.png,I,m,1576,6,1,2588.800000190735,309828.0,9010,VNB,C,5
6,test,1,1.0,1-Back,1,z,Wed Apr 02 2025 17:03:54 GMT-0400 (Eastern Daylight Time),314499.90000009537,019_m_f_d_a.png,I,z,1056,7,1,2070.9000000953674,312429.0,9010,VNB,C,6
7,test,1,0.0,1-Back,1,m,Wed Apr 02 2025 17:03:54 GMT-0400 (Eastern Daylight Time),316466.59999990463,022_y_f_h_a.png,I,m,940,8,1,1956.9000000953674,314509.69999980927,9010,VNB,C,7
8,test,1,0.0,1-Back,1,m,Wed Apr 02 2025 17:03:54 GMT-0400 (Eastern Daylight Time),318783.19999980927,015_o_m_n_a.png,I,m,1293,9,1,2304.7999997138977,316478.40000009537,9010,VNB,C,8
9,test,1,0.0,1-Back,1,m,Wed Apr 02 2025 17:03:54 GMT-0400 (Eastern Daylight Time),320816.69999980927,025_y_m_h_a.png,I,m,1009,10,1,2023.1999998092651,318793.5,9010,VNB,C,9
10,test,1,0.0,1-Back,1,m,Wed Apr 02 2025 17:03:54 GMT-0400 (Eastern Daylight Time),322682.90000009537,015_o_m_d_a.png,I,m,847,11,1,1854.7000002861023,320828.19999980927,9010,VNB,C,10
11,test,1,1.0,1-Back,1,z,Wed Apr 02 2025 17:03:54 GMT-0400 (Eastern Daylight Time),324616.59999990463,012_o_f_d_a.png,I,z,901,12,1,1923.0999999046326,322693.5,9010,VNB,C,11
12,test,1,0.0,1-Back,1,m,Wed Apr 02 2025 17:03:54 GMT-0400 (Eastern Daylight Time),326499.80000019073,014_m_m_n_a.png,I,m,856,13,1,1871.0,324628.80000019073,9010,VNB,C,12
13,test,1,1.0,1-Back,1,z,Wed Apr 02 2025 17:03:54 GMT-0400 (Eastern Daylight Time),328849.90000009537,022_y_f_n_a.png,I,z,1323,14,1,2339.300000190735,326510.59999990463,9010,VNB,C,13
14,test,1,0.0,1-Back,1,m,Wed Apr 02 2025 17:03:54 GMT-0400 (Eastern Daylight Time),330783.30000019073,019_m_f_h_a.png,I,m,910,15,1,1922.0,328861.30000019073,9010,VNB,C,14
15,test,1,0.0,1-Back,1,m,Wed Apr 02 2025 17:03:54 GMT-0400 (Eastern Daylight Time),332850.09999990463,014_m_m_d_a.png,I,m,1041,16,1,2054.199999809265,330795.90000009537,9010,VNB,C,15
16,test,1,0.0,1-Back,1,m,Wed Apr 02 2025 17:03:54 GMT-0400 (Eastern Daylight Time),334900.0,025_y_m_n_a.png,I,m,1022,17,1,2036.5999999046326,332863.40000009537,9010,VNB,C,16
17,test,1,0.0,1-Back,1,m,Wed Apr 02 2025 17:03:54 GMT-0400 (Eastern Daylight Time),337265.90000009537,012_o_f_h_a.png,I,m,1340,18,1,2353.5,334912.40000009537,9010,VNB,C,17
0,test,2,0.0,1-Back,,,Wed Apr 02 2025 17:03:54 GMT-0400 (Eastern Daylight Time),337265.90000009537,025_y_m_n_a.png,I,space,1639,1,1,2353.5,334912.40000009537,9010,VNB,C,0
1,test,2,0.0,1-Back,1,m,Wed Apr 02 2025 17:03:54 GMT-0400 (Eastern Daylight Time),343233.0,022_y_f_h_a.png,I,m,1274,2,1,2289.300000190735,340943.69999980927,9010,VNB,C,1
2,test,2,1.0,1-Back,1,m,Wed Apr 02 2025 17:03:54 GMT-0400 (Eastern Daylight Time),345249.80000019073,015_o_m_n_a.png,I,m,991,3,1,2007.5,343242.30000019073,9010,VNB,C,2
3,test,2,0.0,1-Back,1,m,Wed Apr 02 2025 17:03:54 GMT-0400 (Eastern Daylight Time),347299.90000009537,019_m_f_d_a.png,I,m,1022,4,1,2039.4000000953674,345260.5,9010,VNB,C,3
4,test,2,0.0,1-Back,1,z,Wed Apr 02 2025 17:03:54 GMT-0400 (Eastern Daylight Time),349482.69999980927,014_m_m_d_a.png,I,z,1164,5,1,2170.699999809265,347312.0,9010,VNB,C,4
5,test,2,0.0,1-Back,1,m,Wed Apr 02 2025 17:03:54 GMT-0400 (Eastern Daylight Time),351316.59999990463,025_y_m_h_a.png,I,m,805,6,1,1824.2999997138977,349492.30000019073,9010,VNB,C,5
6,test,2,1.0,1-Back,1,z,Wed Apr 02 2025 17:03:54 GMT-0400 (Eastern Daylight Time),353449.80000019073,012_o_f_h_a.png,I,z,1100,7,1,2121.5,351328.30000019073,9010,VNB,C,6
7,test,2,0.0,1-Back,1,m,Wed Apr 02 2025 17:03:54 GMT-0400 (Eastern Daylight Time),355383.30000019073,019_m_f_n_a.png,I,m,902,8,1,1921.4000000953674,353461.90000009537,9010,VNB,C,7
8,test,2,0.0,1-Back,1,m,Wed Apr 02 2025 17:03:54 GMT-0400 (Eastern Daylight Time),358266.90000009537,022_y_f_d_a.png,I,m,1865,9,1,2874.0999999046326,355392.80000019073,9010,VNB,C,8
9,test,2,0.0,1-Back,1,m,Wed Apr 02 2025 17:03:54 GMT-0400 (Eastern Daylight Time),360066.5,014_m_m_n_a.png,I,m,774,10,1,1789.3000001907349,358277.19999980927,9010,VNB,C,9
10,test,2,1.0,1-Back,1,m,Wed Apr 02 2025 17:03:54 GMT-0400 (Eastern Daylight Time),361966.59999990463,019_m_f_h_a.png,I,m,878,11,1,1890.0999999046326,360076.5,9010,VNB,C,10
11,test,2,0.0,1-Back,1,z,Wed Apr 02 2025 17:03:54 GMT-0400 (Eastern Daylight Time),363583.19999980927,015_o_m_h_a.png,I,z,594,12,1,1606.5999999046326,361976.59999990463,9010,VNB,C,11
12,test,2,0.0,1-Back,1,m,Wed Apr 02 2025 17:03:54 GMT-0400 (Eastern Daylight Time),365484.0,025_y_m_d_a.png,I,m,881,13,1,1890.1999998092651,363593.80000019073,9010,VNB,C,12
13,test,2,0.0,1-Back,1,m,Wed Apr 02 2025 17:03:54 GMT-0400 (Eastern Daylight Time),368082.59999990463,012_o_f_n_a.png,I,m,1572,14,1,2587.4000000953674,365495.19999980927,9010,VNB,C,13
14,test,2,0.0,1-Back,1,z,Wed Apr 02 2025 17:03:54 GMT-0400 (Eastern Daylight Time),370282.80000019073,022_y_f_n_a.png,I,z,1181,15,1,2191.9000000953674,368090.90000009537,9010,VNB,C,14
15,test,2,1.0,1-Back,1,m,Wed Apr 02 2025 17:03:54 GMT-0400 (Eastern Daylight Time),372216.5,014_m_m_h_a.png,I,m,901,16,1,1920.8000001907349,370295.69999980927,9010,VNB,C,15
16,test,2,0.0,1-Back,1,m,Wed Apr 02 2025 17:03:54 GMT-0400 (Eastern Daylight Time),374250.0,012_o_f_d_a.png,I,m,1001,17,1,2021.9000000953674,372228.09999990463,9010,VNB,C,16
17,test,2,1.0,1-Back,1,z,Wed Apr 02 2025 17:03:54 GMT-0400 (Eastern Daylight Time),376099.80000019073,015_o_m_d_a.png,I,z,822,18,1,1836.5,374263.30000019073,9010,VNB,C,17
0,test,3,1.0,1-Back,,,Wed Apr 02 2025 17:03:54 GMT-0400 (Eastern Daylight Time),376099.80000019073,012_o_f_h_a.png,I,space,1205,1,1,1836.5,374263.30000019073,9010,VNB,C,0
1,test,3,0.0,1-Back,1,m,Wed Apr 02 2025 17:03:54 GMT-0400 (Eastern Daylight Time),381266.40000009537,019_m_f_d_a.png,I,m,740,2,1,1758.0,379508.40000009537,9010,VNB,C,1
2,test,3,1.0,1-Back,1,m,Wed Apr 02 2025 17:03:54 GMT-0400 (Eastern Daylight Time),383466.5,014_m_m_n_a.png,I,m,1182,3,1,2188.9000000953674,381277.59999990463,9010,VNB,C,2
3,test,3,0.0,1-Back,1,z,Wed Apr 02 2025 17:03:54 GMT-0400 (Eastern Daylight Time),385466.90000009537,012_o_f_n_a.png,I,z,982,4,1,1991.3000001907349,383475.59999990463,9010,VNB,C,3
4,test,3,1.0,1-Back,1,m,Wed Apr 02 2025 17:03:54 GMT-0400 (Eastern Daylight Time),387399.90000009537,015_o_m_d_a.png,I,m,902,5,1,1921.8000001907349,385478.09999990463,9010,VNB,C,4
5,test,3,0.0,1-Back,1,m,Wed Apr 02 2025 17:03:54 GMT-0400 (Eastern Daylight Time),389666.5,022_y_f_h_a.png,I,m,1240,6,1,2254.800000190735,387411.69999980927,9010,VNB,C,5
6,test,3,0.0,1-Back,1,z,Wed Apr 02 2025 17:03:54 GMT-0400 (Eastern Daylight Time),391916.5,025_y_m_h_a.png,I,z,1230,7,1,2237.5999999046326,389678.90000009537,9010,VNB,C,6
7,test,3,0.0,1-Back,1,m,Wed Apr 02 2025 17:03:54 GMT-0400 (Eastern Daylight Time),393749.80000019073,019_m_f_n_a.png,I,m,804,8,1,1820.3000001907349,391929.5,9010,VNB,C,7
8,test,3,0.0,1-Back,1,m,Wed Apr 02 2025 17:03:54 GMT-0400 (Eastern Daylight Time),395882.80000019073,022_y_f_d_a.png,I,m,1114,9,1,2123.7000002861023,393759.09999990463,9010,VNB,C,8
9,test,3,1.0,1-Back,1,m,Wed Apr 02 2025 17:03:54 GMT-0400 (Eastern Daylight Time),397733.19999980927,015_o_m_n_a.png,I,m,821,10,1,1839.6999998092651,395893.5,9010,VNB,C,9
10,test,3,0.0,1-Back,1,m,Wed Apr 02 2025 17:03:54 GMT-0400 (Eastern Daylight Time),399783.19999980927,014_m_m_h_a.png,I,m,1019,11,1,2037.5999999046326,397745.59999990463,9010,VNB,C,10
11,test,3,0.0,1-Back,1,z,Wed Apr 02 2025 17:03:54 GMT-0400 (Eastern Daylight Time),401499.90000009537,019_m_f_h_a.png,I,z,697,12,1,1705.5999999046326,399794.30000019073,9010,VNB,C,11
12,test,3,1.0,1-Back,1,m,Wed Apr 02 2025 17:03:54 GMT-0400 (Eastern Daylight Time),403299.80000019073,012_o_f_d_a.png,I,m,772,13,1,1790.4000000953674,401509.40000009537,9010,VNB,C,12
13,test,3,0.0,1-Back,1,z,Wed Apr 02 2025 17:03:54 GMT-0400 (Eastern Daylight Time),405749.80000019073,014_m_m_d_a.png,I,z,1421,14,1,2439.0,403310.80000019073,9010,VNB,C,13
14,test,3,0.0,1-Back,1,m,Wed Apr 02 2025 17:03:54 GMT-0400 (Eastern Daylight Time),407716.30000019073,025_y_m_n_a.png,I,m,938,15,1,1958.5,405757.80000019073,9010,VNB,C,14
15,test,3,1.0,1-Back,1,m,Wed Apr 02 2025 17:03:54 GMT-0400 (Eastern Daylight Time),410016.40000009537,015_o_m_h_a.png,I,m,1276,16,1,2288.4000000953674,407728.0,9010,VNB,C,15
16,test,3,0.0,1-Back,1,m,Wed Apr 02 2025 17:03:54 GMT-0400 (Eastern Daylight Time),411749.69999980927,025_y_m_d_a.png,I,m,704,17,1,1723.6999998092651,410026.0,9010,VNB,C,16
17,test,3,1.0,1-Back,1,m,Wed Apr 02 2025 17:03:54 GMT-0400 (Eastern Daylight Time),413516.40000009537,022_y_f_n_a.png,I,m,746,18,1,1754.8000001907349,411761.59999990463,9010,VNB,C,17
0,test,4,1.0,1-Back,,,Wed Apr 02 2025 17:03:54 GMT-0400 (Eastern Daylight Time),413516.40000009537,014_m_m_d_a.png,I,space,1180,1,1,1754.8000001907349,411761.59999990463,9010,VNB,C,0
1,test,4,0.0,1-Back,1,z,Wed Apr 02 2025 17:03:54 GMT-0400 (Eastern Daylight Time),418816.40000009537,015_o_m_d_a.png,I,z,1077,2,1,2093.800000190735,416722.59999990463,9010,VNB,C,1
2,test,4,0.0,1-Back,1,m,Wed Apr 02 2025 17:03:54 GMT-0400 (Eastern Daylight Time),420716.40000009537,025_y_m_h_a.png,I,m,880,3,1,1888.0,418828.40000009537,9010,VNB,C,2
3,test,4,0.0,1-Back,1,m,Wed Apr 02 2025 17:03:54 GMT-0400 (Eastern Daylight Time),422799.80000019073,019_m_f_n_a.png,I,m,1059,4,1,2074.7000002861023,420725.09999990463,9010,VNB,C,3
4,test,4,1.0,1-Back,1,m,Wed Apr 02 2025 17:03:54 GMT-0400 (Eastern Daylight Time),424899.69999980927,012_o_f_h_a.png,I,m,1072,5,1,2089.8999996185303,422809.80000019073,9010,VNB,C,4
5,test,4,0.0,1-Back,1,m,Wed Apr 02 2025 17:03:54 GMT-0400 (Eastern Daylight Time),426699.5,014_m_m_n_a.png,I,m,780,6,1,1788.6999998092651,424910.80000019073,9010,VNB,C,5
6,test,4,0.0,1-Back,1,m,Wed Apr 02 2025 17:03:54 GMT-0400 (Eastern Daylight Time),428799.80000019073,025_y_m_d_a.png,I,m,1076,7,1,2086.300000190735,426713.5,9010,VNB,C,6
7,test,4,1.0,1-Back,1,z,Wed Apr 02 2025 17:03:54 GMT-0400 (Eastern Daylight Time),430608.40000009537,022_y_f_d_a.png,I,z,791,8,1,1794.9000000953674,428813.5,9010,VNB,C,7
8,test,4,0.0,1-Back,1,m,Wed Apr 02 2025 17:03:54 GMT-0400 (Eastern Daylight Time),432316.40000009537,019_m_f_h_a.png,I,m,696,9,1,1702.8000001907349,430613.59999990463,9010,VNB,C,8
8,test,4,0.0,1-Back,0,z,Wed Apr 02 2025 17:03:54 GMT-0400 (Eastern Daylight Time),434016.5,015_o_m_h_a.png,I,m,676,10,1,1690.5,432326.0,9010,VNB,C,9
8,test,4,1.0,1-Back,0,m,Wed Apr 02 2025 17:03:54 GMT-0400 (Eastern Daylight Time),437049.90000009537,012_o_f_n_a.png,I,None,2016,11,1,3022.5999999046326,434027.30000019073,9010,VNB,C,10
9,test,4,0.0,1-Back,1,m,Wed Apr 02 2025 17:03:54 GMT-0400 (Eastern Daylight Time),439433.19999980927,019_m_f_d_a.png,I,m,1351,12,1,2371.5,437061.69999980927,9010,VNB,C,11
10,test,4,0.0,1-Back,1,m,Wed Apr 02 2025 17:03:54 GMT-0400 (Eastern Daylight Time),441199.69999980927,022_y_f_n_a.png,I,m,743,13,1,1756.5,439443.19999980927,9010,VNB,C,12
11,test,4,0.0,1-Back,1,m,Wed Apr 02 2025 17:03:54 GMT-0400 (Eastern Daylight Time),443016.40000009537,012_o_f_d_a.png,I,m,784,14,1,1804.3000001907349,441212.09999990463,9010,VNB,C,13
12,test,4,0.0,1-Back,1,m,Wed Apr 02 2025 17:03:54 GMT-0400 (Eastern Daylight Time),445149.69999980927,022_y_f_h_a.png,I,m,1112,15,1,2122.2999997138977,443027.40000009537,9010,VNB,C,14
13,test,4,1.0,1-Back,1,z,Wed Apr 02 2025 17:03:54 GMT-0400 (Eastern Daylight Time),446999.69999980927,014_m_m_h_a.png,I,z,818,16,1,1837.5999999046326,445162.09999990463,9010,VNB,C,15
14,test,4,0.0,1-Back,1,m,Wed Apr 02 2025 17:03:54 GMT-0400 (Eastern Daylight Time),448716.30000019073,015_o_m_n_a.png,I,m,696,17,1,1706.4000000953674,447009.90000009537,9010,VNB,C,16
15,test,4,1.0,1-Back,1,z,Wed Apr 02 2025 17:03:54 GMT-0400 (Eastern Daylight Time),450750.0,025_y_m_n_a.png,I,z,1012,18,1,2024.3000001907349,448725.69999980927,9010,VNB,C,17
0,test,5,1.0,1-Back,,,Wed Apr 02 2025 17:03:54 GMT-0400 (Eastern Daylight Time),450750.0,015_o_m_n_a.png,I,space,1162,1,1,2024.3000001907349,448725.69999980927,9010,VNB,C,0
1,test,5,1.0,1-Back,1,m,Wed Apr 02 2025 17:03:54 GMT-0400 (Eastern Daylight Time),456049.80000019073,012_o_f_h_a.png,I,m,1091,2,1,2105.6000003814697,453944.19999980927,9010,VNB,C,1
2,test,5,0.0,1-Back,1,m,Wed Apr 02 2025 17:03:54 GMT-0400 (Eastern Daylight Time),458499.0,025_y_m_d_a.png,I,m,1422,3,1,2438.300000190735,456060.69999980927,9010,VNB,C,2
3,test,5,0.0,1-Back,1,z,Wed Apr 02 2025 17:03:54 GMT-0400 (Eastern Daylight Time),460249.5,015_o_m_d_a.png,I,z,717,4,1,1739.3000001907349,458510.19999980927,9010,VNB,C,3
4,test,5,0.0,1-Back,1,m,Wed Apr 02 2025 17:03:54 GMT-0400 (Eastern Daylight Time),462216.40000009537,019_m_f_h_a.png,I,m,934,5,1,1956.3000001907349,460260.09999990463,9010,VNB,C,4
5,test,5,0.0,1-Back,1,m,Wed Apr 02 2025 17:03:54 GMT-0400 (Eastern Daylight Time),463999.59999990463,022_y_f_n_a.png,I,m,760,6,1,1773.9000000953674,462225.69999980927,9010,VNB,C,5
6,test,5,1.0,1-Back,1,z,Wed Apr 02 2025 17:03:54 GMT-0400 (Eastern Daylight Time),466165.80000019073,012_o_f_n_a.png,I,z,1136,7,1,2154.2000002861023,464011.59999990463,9010,VNB,C,6
7,test,5,0.0,1-Back,1,m,Wed Apr 02 2025 17:03:54 GMT-0400 (Eastern Daylight Time),468015.90000009537,019_m_f_d_a.png,I,m,826,8,1,1845.0999999046326,466170.80000019073,9010,VNB,C,7
8,test,5,0.0,1-Back,1,m,Wed Apr 02 2025 17:03:54 GMT-0400 (Eastern Daylight Time),470183.09999990463,025_y_m_h_a.png,I,m,1136,9,1,2162.199999809265,468020.90000009537,9010,VNB,C,8
9,test,5,0.0,1-Back,1,m,Wed Apr 02 2025 17:03:54 GMT-0400 (Eastern Daylight Time),471933.0,022_y_f_d_a.png,I,m,729,10,1,1737.9000000953674,470195.09999990463,9010,VNB,C,9
10,test,5,0.0,1-Back,1,m,Wed Apr 02 2025 17:03:54 GMT-0400 (Eastern Daylight Time),474932.90000009537,014_m_m_n_a.png,I,m,1971,11,1,2990.2000002861023,471942.69999980927,9010,VNB,C,10
11,test,5,1.0,1-Back,1,z,Wed Apr 02 2025 17:03:54 GMT-0400 (Eastern Daylight Time),476883.0,019_m_f_n_a.png,I,z,923,12,1,1939.0,474944.0,9010,VNB,C,11
12,test,5,0.0,1-Back,1,m,Wed Apr 02 2025 17:03:54 GMT-0400 (Eastern Daylight Time),479182.90000009537,015_o_m_h_a.png,I,m,1277,13,1,2290.0999999046326,476892.80000019073,9010,VNB,C,12
13,test,5,0.0,1-Back,1,z,Wed Apr 02 2025 17:03:54 GMT-0400 (Eastern Daylight Time),481099.59999990463,014_m_m_h_a.png,I,z,897,14,1,1901.5999999046326,479198.0,9010,VNB,C,13
14,test,5,1.0,1-Back,1,m,Wed Apr 02 2025 17:03:54 GMT-0400 (Eastern Daylight Time),483199.69999980927,012_o_f_d_a.png,I,m,1060,15,1,2084.7999997138977,481114.90000009537,9010,VNB,C,14
15,test,5,0.0,1-Back,1,m,Wed Apr 02 2025 17:03:54 GMT-0400 (Eastern Daylight Time),485349.80000019073,025_y_m_n_a.png,I,m,1121,16,1,2136.7000002861023,483213.09999990463,9010,VNB,C,15
16,test,5,0.0,1-Back,1,m,Wed Apr 02 2025 17:03:54 GMT-0400 (Eastern Daylight Time),487449.59999990463,022_y_f_h_a.png,I,m,1067,17,1,2089.199999809265,485360.40000009537,9010,VNB,C,16
17,test,5,0.0,1-Back,1,m,Wed Apr 02 2025 17:03:54 GMT-0400 (Eastern Daylight Time),489216.30000019073,014_m_m_d_a.png,I,m,744,18,1,1755.1000003814697,487461.19999980927,9010,VNB,C,17
0,prac,1,0.0,2-Back,,,Wed Apr 02 2025 17:03:54 GMT-0400 (Eastern Daylight Time),489216.30000019073,019_m_f_n_a.png,I,space,13748,1,1,1755.1000003814697,487461.19999980927,9010,VNB,C,0
0,prac,1,0.0,2-Back,,,Wed Apr 02 2025 17:03:54 GMT-0400 (Eastern Daylight Time),489216.30000019073,012_o_f_h_a.png,I,space,13748,2,1,1755.1000003814697,487461.19999980927,9010,VNB,C,0
1,prac,1,0.0,2-Back,1,m,Wed Apr 02 2025 17:03:54 GMT-0400 (Eastern Daylight Time),603816.5,015_o_m_d_a.png,I,m,1178,3,1,2268.699999809265,601547.8000001907,9010,VNB,C,1
2,prac,1,1.0,2-Back,1,z,Wed Apr 02 2025 17:03:54 GMT-0400 (Eastern Daylight Time),606132.1999998093,014_m_m_h_a.png,I,z,1297,4,1,2301.3999996185303,603830.8000001907,9010,VNB,C,2
3,prac,1,0.0,2-Back,1,m,Wed Apr 02 2025 17:03:54 GMT-0400 (Eastern Daylight Time),608533.0,022_y_f_n_a.png,I,m,1231,5,1,2380.4000000953674,606152.5999999046,9010,VNB,C,3
4,prac,1,1.0,2-Back,1,z,Wed Apr 02 2025 17:03:54 GMT-0400 (Eastern Daylight Time),611366.1999998093,015_o_m_h_a.png,I,z,1751,6,1,2819.199999809265,608547.0,9010,VNB,C,4
4,prac,1,1.0,2-Back,0,z,Wed Apr 02 2025 17:03:54 GMT-0400 (Eastern Daylight Time),613849.5,025_y_m_n_a.png,I,m,1501,7,1,2467.5,611382.0,9010,VNB,C,5
4,prac,1,0.0,2-Back,0,m,Wed Apr 02 2025 17:03:54 GMT-0400 (Eastern Daylight Time),616449.5999999046,019_m_f_d_a.png,I,z,1489,8,1,2582.5999999046326,613867.0,9010,VNB,C,6
5,prac,1,0.0,2-Back,1,m,Wed Apr 02 2025 17:03:54 GMT-0400 (Eastern Daylight Time),619433.0999999046,012_o_f_d_a.png,I,m,1918,9,1,2969.9000000953674,616463.1999998093,9010,VNB,C,7
5,prac,1,0.0,2-Back,0,m,Wed Apr 02 2025 17:03:54 GMT-0400 (Eastern Daylight Time),622432.6999998093,014_m_m_h_a.png,I,None,2014,10,1,2986.3999996185303,619446.3000001907,9010,VNB,C,8
6,prac,1,1.0,2-Back,1,z,Wed Apr 02 2025 17:03:54 GMT-0400 (Eastern Daylight Time),624766.3000001907,022_y_f_d_a.png,I,z,1273,11,1,2316.2000002861023,622450.0999999046,9010,VNB,C,9
7,prac,1,0.0,2-Back,1,m,Wed Apr 02 2025 17:03:54 GMT-0400 (Eastern Daylight Time),626833.0999999046,015_o_m_n_a.png,I,m,983,12,1,2053.7999997138977,624779.3000001907,9010,VNB,C,10
0,test,1,0.0,2-Back,,,Wed Apr 02 2025 17:03:54 GMT-0400 (Eastern Daylight Time),626833.0999999046,025_y_m_h_a.png,I,space,11369,1,1,2053.7999997138977,624779.3000001907,9010,VNB,C,0
0,test,1,0.0,2-Back,,,Wed Apr 02 2025 17:03:54 GMT-0400 (Eastern Daylight Time),626833.0999999046,012_o_f_n_a.png,I,space,11369,2,1,2053.7999997138977,624779.3000001907,9010,VNB,C,0
1,test,1,0.0,2-Back,1,z,Wed Apr 02 2025 17:03:54 GMT-0400 (Eastern Daylight Time),656632.9000000954,015_o_m_h_a.png,I,z,1433,3,1,2455.5,654177.4000000954,9010,VNB,C,1
2,test,1,0.0,2-Back,1,m,Wed Apr 02 2025 17:03:54 GMT-0400 (Eastern Daylight Time),658532.9000000954,019_m_f_d_a.png,I,m,870,4,1,1890.3000001907349,656642.5999999046,9010,VNB,C,2
3,test,1,1.0,2-Back,1,m,Wed Apr 02 2025 17:03:54 GMT-0400 (Eastern Daylight Time),661266.1999998093,025_y_m_n_a.png,I,m,1691,5,1,2718.199999809265,658548.0,9010,VNB,C,3
3,test,1,0.0,2-Back,0,z,Wed Apr 02 2025 17:03:54 GMT-0400 (Eastern Daylight Time),664316.1999998093,022_y_f_d_a.png,I,None,2016,6,1,3035.0,661281.1999998093,9010,VNB,C,4
4,test,1,0.0,2-Back,1,m,Wed Apr 02 2025 17:03:54 GMT-0400 (Eastern Daylight Time),666482.6999998093,014_m_m_h_a.png,I,m,1139,7,1,2151.2999997138977,664331.4000000954,9010,VNB,C,5
4,test,1,1.0,2-Back,0,m,Wed Apr 02 2025 17:03:54 GMT-0400 (Eastern Daylight Time),668482.5999999046,022_y_f_n_a.png,I,z,973,8,1,1987.5,666495.0999999046,9010,VNB,C,6
5,test,1,0.0,2-Back,1,z,Wed Apr 02 2025 17:03:54 GMT-0400 (Eastern Daylight Time),671116.0999999046,012_o_f_h_a.png,I,z,1613,9,1,2621.699999809265,668494.4000000954,9010,VNB,C,7
6,test,1,0.0,2-Back,1,m,Wed Apr 02 2025 17:03:54 GMT-0400 (Eastern Daylight Time),673066.0,015_o_m_d_a.png,I,m,916,10,1,1937.0,671129.0,9010,VNB,C,8
7,test,1,1.0,2-Back,1,m,Wed Apr 02 2025 17:03:54 GMT-0400 (Eastern Daylight Time),675616.0999999046,014_m_m_d_a.png,I,m,1525,11,1,2538.0,673078.0999999046,9010,VNB,C,9
8,test,1,0.0,2-Back,1,m,Wed Apr 02 2025 17:03:54 GMT-0400 (Eastern Daylight Time),677866.1999998093,019_m_f_n_a.png,I,m,1216,12,1,2237.0999999046326,675629.0999999046,9010,VNB,C,10
9,test,1,0.0,2-Back,1,m,Wed Apr 02 2025 17:03:54 GMT-0400 (Eastern Daylight Time),679816.1999998093,022_y_f_h_a.png,I,m,917,13,1,1940.2999997138977,677875.9000000954,9010,VNB,C,11
10,test,1,0.0,2-Back,1,z,Wed Apr 02 2025 17:03:54 GMT-0400 (Eastern Daylight Time),682132.6999998093,014_m_m_n_a.png,I,z,1287,14,1,2307.0999999046326,679825.5999999046,9010,VNB,C,12
11,test,1,0.0,2-Back,1,m,Wed Apr 02 2025 17:03:54 GMT-0400 (Eastern Daylight Time),685049.3000001907,025_y_m_d_a.png,I,m,1884,15,1,2906.300000190735,682143.0,9010,VNB,C,13
11,test,1,1.0,2-Back,0,m,Wed Apr 02 2025 17:03:54 GMT-0400 (Eastern Daylight Time),687332.8000001907,019_m_f_h_a.png,I,z,1255,16,1,2272.300000190735,685060.5,9010,VNB,C,14
12,test,1,0.0,2-Back,1,z,Wed Apr 02 2025 17:03:54 GMT-0400 (Eastern Daylight Time),690299.5,012_o_f_d_a.png,I,z,1947,17,1,2956.699999809265,687342.8000001907,9010,VNB,C,15
13,test,1,0.0,2-Back,1,m,Wed Apr 02 2025 17:03:54 GMT-0400 (Eastern Daylight Time),692332.6999998093,015_o_m_n_a.png,I,m,1013,18,1,2024.1999998092651,690308.5,9010,VNB,C,16
0,test,2,0.0,2-Back,,,Wed Apr 02 2025 17:03:54 GMT-0400 (Eastern Daylight Time),692332.6999998093,014_m_m_h_a.png,I,space,2427,1,1,2024.1999998092651,690308.5,9010,VNB,C,0
0,test,2,0.0,2-Back,,,Wed Apr 02 2025 17:03:54 GMT-0400 (Eastern Daylight Time),692332.6999998093,022_y_f_n_a.png,I,space,2427,2,1,2024.1999998092651,690308.5,9010,VNB,C,0
1,test,2,1.0,2-Back,1,z,Wed Apr 02 2025 17:03:54 GMT-0400 (Eastern Daylight Time),702749.4000000954,012_o_f_h_a.png,I,z,1612,3,1,2621.5999999046326,700127.8000001907,9010,VNB,C,1
2,test,2,0.0,2-Back,1,m,Wed Apr 02 2025 17:03:54 GMT-0400 (Eastern Daylight Time),705015.3000001907,015_o_m_d_a.png,I,m,1233,4,1,2256.5,702758.8000001907,9010,VNB,C,2
3,test,2,0.0,2-Back,1,m,Wed Apr 02 2025 17:03:54 GMT-0400 (Eastern Daylight Time),707148.9000000954,019_m_f_d_a.png,I,m,1111,5,1,2125.9000000953674,705023.0,9010,VNB,C,3
4,test,2,0.0,2-Back,1,m,Wed Apr 02 2025 17:03:54 GMT-0400 (Eastern Daylight Time),709450.0999999046,025_y_m_h_a.png,I,m,1284,6,1,2295.9000000953674,707154.1999998093,9010,VNB,C,4
4,test,2,0.0,2-Back,0,m,Wed Apr 02 2025 17:03:54 GMT-0400 (Eastern Daylight Time),711883.5999999046,012_o_f_n_a.png,I,z,1414,7,1,2424.4000000953674,709459.1999998093,9010,VNB,C,5
5,test,2,1.0,2-Back,1,z,Wed Apr 02 2025 17:03:54 GMT-0400 (Eastern Daylight Time),714882.6999998093,015_o_m_h_a.png,I,z,1974,8,1,2987.8999996185303,711894.8000001907,9010,VNB,C,6
5,test,2,0.0,2-Back,0,m,Wed Apr 02 2025 17:03:54 GMT-0400 (Eastern Daylight Time),717266.0,022_y_f_d_a.png,I,z,1357,9,1,2372.199999809265,714893.8000001907,9010,VNB,C,7
6,test,2,0.0,2-Back,1,m,Wed Apr 02 2025 17:03:54 GMT-0400 (Eastern Daylight Time),719266.0,025_y_m_d_a.png,I,m,973,10,1,1987.5,717278.5,9010,VNB,C,8
7,test,2,0.0,2-Back,1,m,Wed Apr 02 2025 17:03:54 GMT-0400 (Eastern Daylight Time),721382.6999998093,014_m_m_n_a.png,I,m,1085,11,1,2103.0999999046326,719279.5999999046,9010,VNB,C,9
7,test,2,0.0,2-Back,0,m,Wed Apr 02 2025 17:03:54 GMT-0400 (Eastern Daylight Time),723865.9000000954,019_m_f_h_a.png,I,z,1433,12,1,2465.5,721400.4000000954,9010,VNB,C,10
7,test,2,1.0,2-Back,0,z,Wed Apr 02 2025 17:03:54 GMT-0400 (Eastern Daylight Time),726416.0999999046,015_o_m_n_a.png,I,m,1526,13,1,2535.5,723880.5999999046,9010,VNB,C,11
8,test,2,0.0,2-Back,1,m,Wed Apr 02 2025 17:03:54 GMT-0400 (Eastern Daylight Time),729066.0,012_o_f_d_a.png,I,m,1600,14,1,2633.4000000953674,726432.5999999046,9010,VNB,C,12
9,test,2,0.0,2-Back,1,m,Wed Apr 02 2025 17:03:54 GMT-0400 (Eastern Daylight Time),731349.3000001907,022_y_f_h_a.png,I,m,1253,15,1,2272.300000190735,729077.0,9010,VNB,C,13
9,test,2,0.0,2-Back,0,z,Wed Apr 02 2025 17:03:54 GMT-0400 (Eastern Daylight Time),734382.8000001907,014_m_m_d_a.png,I,None,2015,16,1,3021.1000003814697,731361.6999998093,9010,VNB,C,14
10,test,2,0.0,2-Back,1,m,Wed Apr 02 2025 17:03:54 GMT-0400 (Eastern Daylight Time),736216.0999999046,025_y_m_n_a.png,I,m,801,17,1,1821.5,734394.5999999046,9010,VNB,C,15
10,test,2,1.0,2-Back,0,m,Wed Apr 02 2025 17:03:54 GMT-0400 (Eastern Daylight Time),738349.3000001907,019_m_f_n_a.png,I,z,1112,18,1,2122.300000190735,736227.0,9010,VNB,C,16
0,test,3,1.0,2-Back,,,Wed Apr 02 2025 17:03:54 GMT-0400 (Eastern Daylight Time),738349.3000001907,015_o_m_n_a.png,I,space,1354,1,1,2122.300000190735,736227.0,9010,VNB,C,0
0,test,3,1.0,2-Back,,,Wed Apr 02 2025 17:03:54 GMT-0400 (Eastern Daylight Time),738349.3000001907,012_o_f_d_a.png,I,space,1354,2,1,2122.300000190735,736227.0,9010,VNB,C,0
1,test,3,0.0,2-Back,1,m,Wed Apr 02 2025 17:03:54 GMT-0400 (Eastern Daylight Time),747966.0,022_y_f_h_a.png,I,m,1827,3,1,2838.199999809265,745127.8000001907,9010,VNB,C,1
2,test,3,0.0,2-Back,1,z,Wed Apr 02 2025 17:03:54 GMT-0400 (Eastern Daylight Time),750599.0999999046,019_m_f_d_a.png,I,z,1602,4,1,2621.9000000953674,747977.1999998093,9010,VNB,C,2
3,test,3,1.0,2-Back,1,m,Wed Apr 02 2025 17:03:54 GMT-0400 (Eastern Daylight Time),752732.5999999046,025_y_m_n_a.png,I,m,1112,5,1,2121.4000000953674,750611.1999998093,9010,VNB,C,3
3,test,3,0.0,2-Back,0,m,Wed Apr 02 2025 17:03:54 GMT-0400 (Eastern Daylight Time),755316.0999999046,015_o_m_h_a.png,I,z,1555,6,1,2571.4000000953674,752744.6999998093,9010,VNB,C,4
4,test,3,0.0,2-Back,1,z,Wed Apr 02 2025 17:03:54 GMT-0400 (Eastern Daylight Time),757435.5999999046,022_y_f_n_a.png,I,z,1101,7,1,2109.2999997138977,755326.3000001907,9010,VNB,C,5
5,test,3,1.0,2-Back,1,m,Wed Apr 02 2025 17:03:54 GMT-0400 (Eastern Daylight Time),759466.0,014_m_m_d_a.png,I,m,1016,8,1,2025.0999999046326,757440.9000000954,9010,VNB,C,6
5,test,3,0.0,2-Back,0,m,Wed Apr 02 2025 17:03:54 GMT-0400 (Eastern Daylight Time),762499.4000000954,025_y_m_d_a.png,I,None,2015,9,1,3026.0,759473.4000000954,9010,VNB,C,7
6,test,3,0.0,2-Back,1,m,Wed Apr 02 2025 17:03:54 GMT-0400 (Eastern Daylight Time),764715.8000001907,012_o_f_h_a.png,I,m,1196,10,1,2203.7000002861023,762512.0999999046,9010,VNB,C,8
7,test,3,1.0,2-Back,1,m,Wed Apr 02 2025 17:03:54 GMT-0400 (Eastern Daylight Time),766682.1999998093,019_m_f_n_a.png,I,m,948,11,1,1955.1999998092651,764727.0,9010,VNB,C,9
8,test,3,1.0,2-Back,1,z,Wed Apr 02 2025 17:03:54 GMT-0400 (Eastern Daylight Time),768599.3000001907,014_m_m_h_a.png,I,z,885,12,1,1907.5,766691.8000001907,9010,VNB,C,10
8,test,3,0.0,2-Back,0,m,Wed Apr 02 2025 17:03:54 GMT-0400 (Eastern Daylight Time),770882.3000001907,022_y_f_d_a.png,I,z,1255,13,1,2270.6000003814697,768611.6999998093,9010,VNB,C,11
9,test,3,0.0,2-Back,1,m,Wed Apr 02 2025 17:03:54 GMT-0400 (Eastern Daylight Time),772748.5,012_o_f_n_a.png,I,m,844,14,1,1853.5,770895.0,9010,VNB,C,12
9,test,3,0.0,2-Back,0,z,Wed Apr 02 2025 17:03:54 GMT-0400 (Eastern Daylight Time),774615.5999999046,015_o_m_d_a.png,I,m,835,15,1,1855.6999998092651,772759.9000000954,9010,VNB,C,13
10,test,3,1.0,2-Back,1,m,Wed Apr 02 2025 17:03:54 GMT-0400 (Eastern Daylight Time),776765.9000000954,019_m_f_h_a.png,I,m,1113,16,1,2127.5,774638.4000000954,9010,VNB,C,14
11,test,3,0.0,2-Back,1,m,Wed Apr 02 2025 17:03:54 GMT-0400 (Eastern Daylight Time),778865.9000000954,014_m_m_n_a.png,I,m,1073,17,1,2086.7000002861023,776779.1999998093,9010,VNB,C,15
11,test,3,0.0,2-Back,0,z,Wed Apr 02 2025 17:03:54 GMT-0400 (Eastern Daylight Time),780998.8000001907,025_y_m_h_a.png,I,m,1101,18,1,2121.6000003814697,778877.1999998093,9010,VNB,C,16
0,test,4,0.0,2-Back,,,Wed Apr 02 2025 17:03:54 GMT-0400 (Eastern Daylight Time),780998.8000001907,019_m_f_n_a.png,I,space,2545,1,1,2121.6000003814697,778877.1999998093,9010,VNB,C,0
0,test,4,0.0,2-Back,,,Wed Apr 02 2025 17:03:54 GMT-0400 (Eastern Daylight Time),780998.8000001907,015_o_m_n_a.png,I,space,2545,2,1,2121.6000003814697,778877.1999998093,9010,VNB,C,0
1,test,4,1.0,2-Back,1,m,Wed Apr 02 2025 17:03:54 GMT-0400 (Eastern Daylight Time),791265.5,025_y_m_h_a.png,I,m,1290,3,1,2305.300000190735,788960.1999998093,9010,VNB,C,1
2,test,4,1.0,2-Back,1,m,Wed Apr 02 2025 17:03:54 GMT-0400 (Eastern Daylight Time),793232.1999998093,012_o_f_d_a.png,I,m,941,4,1,1961.5999999046326,791270.5999999046,9010,VNB,C,2
3,test,4,0.0,2-Back,1,z,Wed Apr 02 2025 17:03:54 GMT-0400 (Eastern Daylight Time),795415.6999998093,015_o_m_h_a.png,I,z,1151,5,1,2175.3999996185303,793240.3000001907,9010,VNB,C,3
4,test,4,0.0,2-Back,1,m,Wed Apr 02 2025 17:03:54 GMT-0400 (Eastern Daylight Time),797399.4000000954,014_m_m_n_a.png,I,m,952,6,1,1975.0999999046326,795424.3000001907,9010,VNB,C,4
4,test,4,0.0,2-Back,0,m,Wed Apr 02 2025 17:03:54 GMT-0400 (Eastern Daylight Time),799515.5999999046,019_m_f_d_a.png,I,z,1095,7,1,2105.0999999046326,797410.5,9010,VNB,C,5
4,test,4,0.0,2-Back,0,z,Wed Apr 02 2025 17:03:54 GMT-0400 (Eastern Daylight Time),801932.5,022_y_f_n_a.png,I,m,1396,8,1,2412.0,799520.5,9010,VNB,C,6
4,test,4,1.0,2-Back,0,m,Wed Apr 02 2025 17:03:54 GMT-0400 (Eastern Daylight Time),804799.0999999046,012_o_f_h_a.png,I,z,1843,9,1,2854.0999999046326,801945.0,9010,VNB,C,7
5,test,4,0.0,2-Back,1,m,Wed Apr 02 2025 17:03:54 GMT-0400 (Eastern Daylight Time),806982.5999999046,014_m_m_h_a.png,I,m,1152,10,1,2170.5999999046326,804812.0,9010,VNB,C,8
6,test,4,0.0,2-Back,1,m,Wed Apr 02 2025 17:03:54 GMT-0400 (Eastern Daylight Time),808949.3000001907,022_y_f_d_a.png,I,m,937,11,1,1955.8000001907349,806993.5,9010,VNB,C,9
7,test,4,0.0,2-Back,1,m,Wed Apr 02 2025 17:03:54 GMT-0400 (Eastern Daylight Time),811615.9000000954,025_y_m_n_a.png,I,m,1642,12,1,2654.800000190735,808961.0999999046,9010,VNB,C,10
8,test,4,0.0,2-Back,1,z,Wed Apr 02 2025 17:03:54 GMT-0400 (Eastern Daylight Time),813799.0,015_o_m_d_a.png,I,z,1152,13,1,2171.300000190735,811627.6999998093,9010,VNB,C,11
9,test,4,1.0,2-Back,1,m,Wed Apr 02 2025 17:03:54 GMT-0400 (Eastern Daylight Time),815632.5999999046,019_m_f_h_a.png,I,m,808,14,1,1821.6999998092651,813810.9000000954,9010,VNB,C,12
9,test,4,1.0,2-Back,0,m,Wed Apr 02 2025 17:03:54 GMT-0400 (Eastern Daylight Time),818249.3000001907,022_y_f_h_a.png,I,z,1583,15,1,2602.9000000953674,815646.4000000954,9010,VNB,C,13
10,test,4,0.0,2-Back,1,m,Wed Apr 02 2025 17:03:54 GMT-0400 (Eastern Daylight Time),820532.4000000954,012_o_f_n_a.png,I,m,1254,16,1,2268.5999999046326,818263.8000001907,9010,VNB,C,14
10,test,4,0.0,2-Back,0,m,Wed Apr 02 2025 17:03:54 GMT-0400 (Eastern Daylight Time),822682.0999999046,025_y_m_d_a.png,I,z,1131,17,1,2136.199999809265,820545.9000000954,9010,VNB,C,15
11,test,4,1.0,2-Back,1,m,Wed Apr 02 2025 17:03:54 GMT-0400 (Eastern Daylight Time),825265.8000001907,014_m_m_d_a.png,I,m,1558,18,1,2574.6000003814697,822691.1999998093,9010,VNB,C,16
0,test,5,1.0,2-Back,,,Wed Apr 02 2025 17:03:54 GMT-0400 (Eastern Daylight Time),825265.8000001907,022_y_f_d_a.png,I,space,1254,1,1,2574.6000003814697,822691.1999998093,9010,VNB,C,0
0,test,5,1.0,2-Back,,,Wed Apr 02 2025 17:03:54 GMT-0400 (Eastern Daylight Time),825265.8000001907,012_o_f_h_a.png,I,space,1254,2,1,2574.6000003814697,822691.1999998093,9010,VNB,C,0
0,test,5,1.0,2-Back,0,z,Wed Apr 02 2025 17:03:54 GMT-0400 (Eastern Daylight Time),834966.0,015_o_m_d_a.png,I,None,2015,3,1,3022.5,831943.5,9010,VNB,C,1
1,test,5,1.0,2-Back,1,m,Wed Apr 02 2025 17:03:54 GMT-0400 (Eastern Daylight Time),837232.5,019_m_f_n_a.png,I,m,1242,4,1,2257.0999999046326,834975.4000000954,9010,VNB,C,2
2,test,5,0.0,2-Back,1,m,Wed Apr 02 2025 17:03:54 GMT-0400 (Eastern Daylight Time),839299.3000001907,014_m_m_h_a.png,I,m,1039,5,1,2056.4000000953674,837242.9000000954,9010,VNB,C,3
2,test,5,0.0,2-Back,0,z,Wed Apr 02 2025 17:03:54 GMT-0400 (Eastern Daylight Time),841382.5,022_y_f_n_a.png,I,m,1052,6,1,2073.800000190735,839308.6999998093,9010,VNB,C,4
3,test,5,0.0,2-Back,1,m,Wed Apr 02 2025 17:03:54 GMT-0400 (Eastern Daylight Time),843615.9000000954,012_o_f_d_a.png,I,m,1209,7,1,2223.4000000953674,841392.5,9010,VNB,C,5
3,test,5,0.0,2-Back,0,m,Wed Apr 02 2025 17:03:54 GMT-0400 (Eastern Daylight Time),845715.8000001907,015_o_m_h_a.png,I,z,1072,8,1,2089.2000002861023,843626.5999999046,9010,VNB,C,6
4,test,5,1.0,2-Back,1,z,Wed Apr 02 2025 17:03:54 GMT-0400 (Eastern Daylight Time),848449.0999999046,019_m_f_d_a.png,I,z,1708,9,1,2721.9000000953674,845727.1999998093,9010,VNB,C,7
5,test,5,0.0,2-Back,1,m,Wed Apr 02 2025 17:03:54 GMT-0400 (Eastern Daylight Time),850165.8000001907,025_y_m_n_a.png,I,m,686,10,1,1704.8000001907349,848461.0,9010,VNB,C,8
6,test,5,0.0,2-Back,1,m,Wed Apr 02 2025 17:03:54 GMT-0400 (Eastern Daylight Time),852182.5,014_m_m_n_a.png,I,m,986,11,1,2005.4000000953674,850177.0999999046,9010,VNB,C,9
6,test,5,0.0,2-Back,0,m,Wed Apr 02 2025 17:03:54 GMT-0400 (Eastern Daylight Time),854015.8000001907,022_y_f_h_a.png,I,z,809,12,1,1821.9000000953674,852193.9000000954,9010,VNB,C,10
7,test,5,0.0,2-Back,1,m,Wed Apr 02 2025 17:03:54 GMT-0400 (Eastern Daylight Time),856282.3000001907,025_y_m_d_a.png,I,m,1248,13,1,2254.6000003814697,854027.6999998093,9010,VNB,C,11
8,test,5,1.0,2-Back,1,z,Wed Apr 02 2025 17:03:54 GMT-0400 (Eastern Daylight Time),858165.8000001907,019_m_f_h_a.png,I,z,853,14,1,1873.6000003814697,856292.1999998093,9010,VNB,C,12
8,test,5,0.0,2-Back,0,m,Wed Apr 02 2025 17:03:54 GMT-0400 (Eastern Daylight Time),861048.8000001907,015_o_m_n_a.png,I,z,1850,15,1,2869.2000002861023,858179.5999999046,9010,VNB,C,13
9,test,5,0.0,2-Back,1,m,Wed Apr 02 2025 17:03:54 GMT-0400 (Eastern Daylight Time),862982.5,014_m_m_d_a.png,I,m,902,16,1,1920.6999998092651,861061.8000001907,9010,VNB,C,14
10,test,5,0.0,2-Back,1,z,Wed Apr 02 2025 17:03:54 GMT-0400 (Eastern Daylight Time),865083.4000000954,012_o_f_n_a.png,I,z,1064,17,1,2085.300000190735,862998.0999999046,9010,VNB,C,15
10,test,5,1.0,2-Back,0,m,Wed Apr 02 2025 17:03:54 GMT-0400 (Eastern Daylight Time),867432.5,025_y_m_h_a.png,I,z,1300,18,1,2329.199999809265,865103.3000001907,9010,VNB,C,16
