acc_sum,block,block_c,change,condition,correct,correct_response,datetime,endtime,face,project,response,response_time,row_sel,session_number,start_end,starttime,subject_id,task,task_vers,trial
0,prac,1,,1-Back,,,Fri Feb 21 2025 15:55:51 GMT-0600 (Central Standard Time),,097_m_f_n_a.png,O,space,17404,1,1,,,7056,NNB,B,0
0,prac,1,0.0,1-Back,0,m,Fri Feb 21 2025 15:55:51 GMT-0600 (Central Standard Time),177466.8999999999,152_y_f_n_a.png,O,z,1397,2,1,2236.2999999998137,175230.6000000001,7056,NNB,B,1
0,prac,1,1.0,1-Back,0,z,Fri Feb 21 2025 15:55:51 GMT-0600 (Central Standard Time),179899.1000000001,152_y_f_n_a.png,O,m,1644,3,1,2422.2000000001863,177476.8999999999,7056,NNB,B,2
0,prac,1,0.0,1-Back,0,m,Fri Feb 21 2025 15:55:51 GMT-0600 (Central Standard Time),182764.30000000028,176_o_m_n_a.png,O,None,2003,4,1,2856.100000000093,179908.2000000002,7056,NNB,B,3
1,prac,1,0.0,1-Back,1,m,Fri Feb 21 2025 15:55:51 GMT-0600 (Central Standard Time),184898.1000000001,126_m_m_n_a.png,O,m,1257,5,1,2124.399999999907,182773.7000000002,7056,NNB,B,4
2,prac,1,1.0,1-Back,1,z,Fri Feb 21 2025 15:55:51 GMT-0600 (Central Standard Time),187034.30000000028,126_m_m_n_a.png,O,z,1358,6,1,2126.9000000003725,184907.3999999999,7056,NNB,B,5
3,prac,1,0.0,1-Back,1,m,Fri Feb 21 2025 15:55:51 GMT-0600 (Central Standard Time),189745.5,086_o_f_n_a.png,O,m,1801,7,1,2705.7999999998137,187039.7000000002,7056,NNB,B,6
4,prac,1,0.0,1-Back,1,m,Fri Feb 21 2025 15:55:51 GMT-0600 (Central Standard Time),192063.7000000002,178_m_m_n_a.png,O,m,1466,8,1,2310.2000000001863,189753.5,7056,NNB,B,7
5,prac,1,0.0,1-Back,1,m,Fri Feb 21 2025 15:55:51 GMT-0600 (Central Standard Time),193746.1000000001,097_m_f_n_a.png,O,m,825,9,1,1674.1000000000931,192072.0,7056,NNB,B,8
6,prac,1,1.0,1-Back,1,z,Fri Feb 21 2025 15:55:51 GMT-0600 (Central Standard Time),195561.80000000028,097_m_f_n_a.png,O,z,1040,10,1,1806.3000000002794,193755.5,7056,NNB,B,9
7,prac,1,0.0,1-Back,1,m,Fri Feb 21 2025 15:55:51 GMT-0600 (Central Standard Time),197228.5,176_o_m_n_a.png,O,m,879,11,1,1658.2999999998137,195570.2000000002,7056,NNB,B,10
8,prac,1,0.0,1-Back,1,m,Fri Feb 21 2025 15:55:51 GMT-0600 (Central Standard Time),199126.30000000028,173_y_f_n_a.png,O,m,1027,12,1,1889.0,197237.30000000028,7056,NNB,B,11
0,test,1,0.0,1-Back,,,Fri Feb 21 2025 15:55:51 GMT-0600 (Central Standard Time),199126.30000000028,152_y_f_n_a.png,O,space,16285,1,1,1889.0,197237.30000000028,7056,NNB,B,0
1,test,1,0.0,1-Back,1,m,Fri Feb 21 2025 15:55:51 GMT-0600 (Central Standard Time),230350.30000000028,029_m_f_n_a.png,O,m,968,2,1,1993.1000000000931,228357.2000000002,7056,NNB,B,1
2,test,1,0.0,1-Back,1,m,Fri Feb 21 2025 15:55:51 GMT-0600 (Central Standard Time),232033.7000000002,173_y_f_n_a.png,O,m,667,3,1,1676.2000000001863,230357.5,7056,NNB,B,2
3,test,1,1.0,1-Back,1,z,Fri Feb 21 2025 15:55:51 GMT-0600 (Central Standard Time),233836.1000000001,173_y_f_n_a.png,O,z,776,4,1,1794.7999999998137,232041.30000000028,7056,NNB,B,3
4,test,1,0.0,1-Back,1,m,Fri Feb 21 2025 15:55:51 GMT-0600 (Central Standard Time),235797.1000000001,029_m_f_n_a.png,O,m,935,5,1,1958.3999999999069,233838.7000000002,7056,NNB,B,4
5,test,1,0.0,1-Back,1,m,Fri Feb 21 2025 15:55:51 GMT-0600 (Central Standard Time),237747.3999999999,176_o_m_n_a.png,O,m,921,6,1,1944.3999999999069,235803.0,7056,NNB,B,5
6,test,1,1.0,1-Back,1,z,Fri Feb 21 2025 15:55:51 GMT-0600 (Central Standard Time),239630.2000000002,176_o_m_n_a.png,O,z,852,7,1,1874.6000000000931,237755.6000000001,7056,NNB,B,6
7,test,1,0.0,1-Back,1,m,Fri Feb 21 2025 15:55:51 GMT-0600 (Central Standard Time),241413.0,126_m_m_n_a.png,O,m,754,8,1,1775.3999999999069,239637.6000000001,7056,NNB,B,7
8,test,1,0.0,1-Back,1,m,Fri Feb 21 2025 15:55:51 GMT-0600 (Central Standard Time),243531.8999999999,086_o_f_n_a.png,O,m,1101,9,1,2110.6999999997206,241421.2000000002,7056,NNB,B,8
9,test,1,0.0,1-Back,1,m,Fri Feb 21 2025 15:55:51 GMT-0600 (Central Standard Time),245445.1000000001,126_m_m_n_a.png,O,m,887,10,1,1906.5,243538.6000000001,7056,NNB,B,9
10,test,1,0.0,1-Back,1,m,Fri Feb 21 2025 15:55:51 GMT-0600 (Central Standard Time),247262.1000000001,153_y_m_n_a.png,O,m,781,11,1,1810.5,245451.6000000001,7056,NNB,B,10
11,test,1,1.0,1-Back,1,z,Fri Feb 21 2025 15:55:51 GMT-0600 (Central Standard Time),249211.2000000002,153_y_m_n_a.png,O,z,923,12,1,1940.7000000001863,247270.5,7056,NNB,B,11
12,test,1,0.0,1-Back,1,m,Fri Feb 21 2025 15:55:51 GMT-0600 (Central Standard Time),250977.1000000001,110_o_f_n_a.png,O,m,735,13,1,1758.7999999998137,249218.30000000028,7056,NNB,B,12
13,test,1,1.0,1-Back,1,z,Fri Feb 21 2025 15:55:51 GMT-0600 (Central Standard Time),253126.7000000002,110_o_f_n_a.png,O,z,1131,14,1,2142.399999999907,250984.30000000028,7056,NNB,B,13
14,test,1,0.0,1-Back,1,m,Fri Feb 21 2025 15:55:51 GMT-0600 (Central Standard Time),255341.80000000028,013_y_m_n_a.png,O,m,1186,15,1,2206.4000000003725,253135.3999999999,7056,NNB,B,14
15,test,1,0.0,1-Back,1,m,Fri Feb 21 2025 15:55:51 GMT-0600 (Central Standard Time),257142.7000000002,097_m_f_n_a.png,O,m,771,16,1,1793.5,255349.2000000002,7056,NNB,B,15
16,test,1,0.0,1-Back,1,m,Fri Feb 21 2025 15:55:51 GMT-0600 (Central Standard Time),258923.7000000002,065_o_m_n_a.png,O,m,762,17,1,1772.8999999999069,257150.80000000028,7056,NNB,B,16
17,test,1,0.0,1-Back,1,m,Fri Feb 21 2025 15:55:51 GMT-0600 (Central Standard Time),261208.30000000028,097_m_f_n_a.png,O,m,1252,18,1,2280.100000000093,258928.2000000002,7056,NNB,B,17
0,test,2,0.0,1-Back,,,Fri Feb 21 2025 15:55:51 GMT-0600 (Central Standard Time),261208.30000000028,126_m_m_n_a.png,O,space,2953,1,1,2280.100000000093,258928.2000000002,7056,NNB,B,0
1,test,2,0.0,1-Back,1,m,Fri Feb 21 2025 15:55:51 GMT-0600 (Central Standard Time),268038.8999999999,029_m_f_n_a.png,O,m,821,2,1,1842.0,266196.8999999999,7056,NNB,B,1
1,test,2,1.0,1-Back,0,z,Fri Feb 21 2025 15:55:51 GMT-0600 (Central Standard Time),269754.8999999999,029_m_f_n_a.png,O,m,690,3,1,1708.2999999998137,268046.6000000001,7056,NNB,B,2
2,test,2,0.0,1-Back,1,m,Fri Feb 21 2025 15:55:51 GMT-0600 (Central Standard Time),271487.3000000003,126_m_m_n_a.png,O,m,703,4,1,1723.7000000001863,269763.6000000001,7056,NNB,B,3
3,test,2,0.0,1-Back,1,m,Fri Feb 21 2025 15:55:51 GMT-0600 (Central Standard Time),273153.6000000001,153_y_m_n_a.png,O,m,634,5,1,1659.8999999999069,271493.7000000002,7056,NNB,B,4
4,test,2,0.0,1-Back,1,m,Fri Feb 21 2025 15:55:51 GMT-0600 (Central Standard Time),275034.8000000003,152_y_f_n_a.png,O,m,862,6,1,1876.3000000002794,273158.5,7056,NNB,B,5
5,test,2,1.0,1-Back,1,z,Fri Feb 21 2025 15:55:51 GMT-0600 (Central Standard Time),277099.8999999999,152_y_f_n_a.png,O,z,1036,7,1,2060.0,275039.8999999999,7056,NNB,B,6
6,test,2,0.0,1-Back,1,m,Fri Feb 21 2025 15:55:51 GMT-0600 (Central Standard Time),278918.5,153_y_m_n_a.png,O,m,795,8,1,1813.0,277105.5,7056,NNB,B,7
7,test,2,0.0,1-Back,1,m,Fri Feb 21 2025 15:55:51 GMT-0600 (Central Standard Time),280699.7000000002,110_o_f_n_a.png,O,m,764,9,1,1773.8999999999069,278925.8000000003,7056,NNB,B,8
8,test,2,0.0,1-Back,1,m,Fri Feb 21 2025 15:55:51 GMT-0600 (Central Standard Time),282383.2000000002,178_m_m_n_a.png,O,m,659,10,1,1678.8999999999069,280704.3000000003,7056,NNB,B,9
8,test,2,1.0,1-Back,0,z,Fri Feb 21 2025 15:55:51 GMT-0600 (Central Standard Time),283983.8000000003,178_m_m_n_a.png,O,m,576,11,1,1592.7000000001863,282391.1000000001,7056,NNB,B,10
9,test,2,0.0,1-Back,1,m,Fri Feb 21 2025 15:55:51 GMT-0600 (Central Standard Time),285748.8999999999,110_o_f_n_a.png,O,m,736,12,1,1758.2999999998137,283990.6000000001,7056,NNB,B,11
10,test,2,0.0,1-Back,1,m,Fri Feb 21 2025 15:55:51 GMT-0600 (Central Standard Time),287764.7000000002,086_o_f_n_a.png,O,m,983,13,1,2007.1000000000931,285757.6000000001,7056,NNB,B,12
11,test,2,0.0,1-Back,1,m,Fri Feb 21 2025 15:55:51 GMT-0600 (Central Standard Time),289481.5,176_o_m_n_a.png,O,m,692,14,1,1710.6000000000931,287770.8999999999,7056,NNB,B,13
12,test,2,0.0,1-Back,1,m,Fri Feb 21 2025 15:55:51 GMT-0600 (Central Standard Time),291146.2000000002,065_o_m_n_a.png,O,m,648,15,1,1657.3000000002794,289488.8999999999,7056,NNB,B,14
12,test,2,1.0,1-Back,0,z,Fri Feb 21 2025 15:55:51 GMT-0600 (Central Standard Time),292663.3999999999,065_o_m_n_a.png,O,m,493,16,1,1512.5,291150.8999999999,7056,NNB,B,15
13,test,2,0.0,1-Back,1,m,Fri Feb 21 2025 15:55:51 GMT-0600 (Central Standard Time),294346.3999999999,013_y_m_n_a.png,O,m,657,17,1,1675.5999999996275,292670.8000000003,7056,NNB,B,16
13,test,2,1.0,1-Back,0,z,Fri Feb 21 2025 15:55:51 GMT-0600 (Central Standard Time),295829.5,013_y_m_n_a.png,O,m,453,18,1,1474.6999999997206,294354.8000000003,7056,NNB,B,17
0,test,3,1.0,1-Back,,,Fri Feb 21 2025 15:55:51 GMT-0600 (Central Standard Time),295829.5,173_y_f_n_a.png,O,space,1982,1,1,1474.6999999997206,294354.8000000003,7056,NNB,B,0
1,test,3,0.0,1-Back,1,m,Fri Feb 21 2025 15:55:51 GMT-0600 (Central Standard Time),301710.8999999999,065_o_m_n_a.png,O,m,770,1,1,1790.0,299920.8999999999,7056,NNB,B,1
2,test,3,1.0,1-Back,1,z,Fri Feb 21 2025 15:55:51 GMT-0600 (Central Standard Time),303760.2000000002,065_o_m_n_a.png,O,z,1026,1,1,2041.8999999999069,301718.3000000003,7056,NNB,B,2
3,test,3,0.0,1-Back,1,m,Fri Feb 21 2025 15:55:51 GMT-0600 (Central Standard Time),305525.7000000002,097_m_f_n_a.png,O,m,744,1,1,1758.2000000001863,303767.5,7056,NNB,B,3
4,test,3,1.0,1-Back,1,z,Fri Feb 21 2025 15:55:51 GMT-0600 (Central Standard Time),307741.6000000001,097_m_f_n_a.png,O,z,1195,1,1,2208.399999999907,305533.2000000002,7056,NNB,B,4
5,test,3,0.0,1-Back,1,m,Fri Feb 21 2025 15:55:51 GMT-0600 (Central Standard Time),309492.3999999999,110_o_f_n_a.png,O,m,732,1,1,1743.0,307749.3999999999,7056,NNB,B,5
6,test,3,0.0,1-Back,1,m,Fri Feb 21 2025 15:55:51 GMT-0600 (Central Standard Time),311257.8999999999,153_y_m_n_a.png,O,m,741,1,1,1759.8999999999069,309498.0,7056,NNB,B,6
7,test,3,0.0,1-Back,1,m,Fri Feb 21 2025 15:55:51 GMT-0600 (Central Standard Time),313091.1000000001,110_o_f_n_a.png,O,m,807,1,1,1825.7999999998137,311265.3000000003,7056,NNB,B,7
8,test,3,0.0,1-Back,1,m,Fri Feb 21 2025 15:55:51 GMT-0600 (Central Standard Time),314790.8000000003,013_y_m_n_a.png,O,m,670,1,1,1692.8000000002794,313098.0,7056,NNB,B,8
9,test,3,1.0,1-Back,1,z,Fri Feb 21 2025 15:55:51 GMT-0600 (Central Standard Time),316605.8000000003,013_y_m_n_a.png,O,z,794,1,1,1807.1000000000931,314798.7000000002,7056,NNB,B,9
10,test,3,0.0,1-Back,1,m,Fri Feb 21 2025 15:55:51 GMT-0600 (Central Standard Time),318506.3999999999,029_m_f_n_a.png,O,m,883,1,1,1894.5,316611.8999999999,7056,NNB,B,10
10,test,3,0.0,1-Back,0,m,Fri Feb 21 2025 15:55:51 GMT-0600 (Central Standard Time),320837.8999999999,152_y_f_n_a.png,O,z,1313,1,1,2326.2999999998137,318511.6000000001,7056,NNB,B,11
10,test,3,1.0,1-Back,0,z,Fri Feb 21 2025 15:55:51 GMT-0600 (Central Standard Time),322653.7000000002,152_y_f_n_a.png,O,m,793,1,1,1808.2000000001863,320845.5,7056,NNB,B,12
11,test,3,0.0,1-Back,1,m,Fri Feb 21 2025 15:55:51 GMT-0600 (Central Standard Time),325285.5,029_m_f_n_a.png,O,m,1602,1,1,2626.899999999907,322658.6000000001,7056,NNB,B,13
12,test,3,0.0,1-Back,1,m,Fri Feb 21 2025 15:55:51 GMT-0600 (Central Standard Time),327318.1000000001,126_m_m_n_a.png,O,m,1011,1,1,2027.2000000001863,325290.8999999999,7056,NNB,B,14
12,test,3,1.0,1-Back,0,z,Fri Feb 21 2025 15:55:51 GMT-0600 (Central Standard Time),328952.1000000001,126_m_m_n_a.png,O,m,613,1,1,1625.8999999999069,327326.2000000002,7056,NNB,B,15
13,test,3,0.0,1-Back,1,m,Fri Feb 21 2025 15:55:51 GMT-0600 (Central Standard Time),330768.8999999999,086_o_f_n_a.png,O,m,793,1,1,1810.3999999999069,328958.5,7056,NNB,B,16
13,test,3,1.0,1-Back,0,z,Fri Feb 21 2025 15:55:51 GMT-0600 (Central Standard Time),332434.3999999999,086_o_f_n_a.png,O,m,641,1,1,1657.6999999997206,330776.7000000002,7056,NNB,B,17
0,test,4,1.0,1-Back,,,Fri Feb 21 2025 15:55:51 GMT-0600 (Central Standard Time),332434.3999999999,097_m_f_n_a.png,O,space,1665,1,1,1657.6999999997206,330776.7000000002,7056,NNB,B,0
1,test,4,0.0,1-Back,1,m,Fri Feb 21 2025 15:55:51 GMT-0600 (Central Standard Time),338000.3999999999,065_o_m_n_a.png,O,m,769,2,1,1791.5999999996275,336208.8000000003,7056,NNB,B,1
2,test,4,0.0,1-Back,1,m,Fri Feb 21 2025 15:55:51 GMT-0600 (Central Standard Time),340347.6000000001,097_m_f_n_a.png,O,m,1329,3,1,2340.7000000001863,338006.8999999999,7056,NNB,B,2
3,test,4,0.0,1-Back,1,m,Fri Feb 21 2025 15:55:51 GMT-0600 (Central Standard Time),342381.2000000002,110_o_f_n_a.png,O,m,1012,4,1,2025.8000000002794,340355.3999999999,7056,NNB,B,3
4,test,4,1.0,1-Back,1,z,Fri Feb 21 2025 15:55:51 GMT-0600 (Central Standard Time),344314.8999999999,110_o_f_n_a.png,O,z,915,5,1,1925.8999999999069,342389.0,7056,NNB,B,4
5,test,4,0.0,1-Back,1,m,Fri Feb 21 2025 15:55:51 GMT-0600 (Central Standard Time),346862.3000000003,152_y_f_n_a.png,O,m,1526,6,1,2539.2000000001863,344323.1000000001,7056,NNB,B,5
5,test,4,0.0,1-Back,0,m,Fri Feb 21 2025 15:55:51 GMT-0600 (Central Standard Time),349345.8999999999,153_y_m_n_a.png,O,z,1459,7,1,2476.5,346869.3999999999,7056,NNB,B,6
6,test,4,1.0,1-Back,1,z,Fri Feb 21 2025 15:55:51 GMT-0600 (Central Standard Time),351960.6000000001,153_y_m_n_a.png,O,z,1585,8,1,2609.2000000001863,349351.3999999999,7056,NNB,B,7
7,test,4,0.0,1-Back,1,m,Fri Feb 21 2025 15:55:51 GMT-0600 (Central Standard Time),353860.8999999999,152_y_f_n_a.png,O,m,881,9,1,1892.3999999999069,351968.5,7056,NNB,B,8
8,test,4,0.0,1-Back,1,m,Fri Feb 21 2025 15:55:51 GMT-0600 (Central Standard Time),355843.8000000003,178_m_m_n_a.png,O,m,956,10,1,1977.1000000000931,353866.7000000002,7056,NNB,B,9
9,test,4,1.0,1-Back,1,z,Fri Feb 21 2025 15:55:51 GMT-0600 (Central Standard Time),357975.2000000002,178_m_m_n_a.png,O,z,1100,11,1,2123.0,355852.2000000002,7056,NNB,B,10
10,test,4,0.0,1-Back,1,m,Fri Feb 21 2025 15:55:51 GMT-0600 (Central Standard Time),359809.0,086_o_f_n_a.png,O,m,809,12,1,1827.0,357982.0,7056,NNB,B,11
11,test,4,0.0,1-Back,1,m,Fri Feb 21 2025 15:55:51 GMT-0600 (Central Standard Time),361608.5,176_o_m_n_a.png,O,m,777,13,1,1791.1999999997206,359817.3000000003,7056,NNB,B,12
12,test,4,0.0,1-Back,1,m,Fri Feb 21 2025 15:55:51 GMT-0600 (Central Standard Time),363273.3999999999,086_o_f_n_a.png,O,m,640,14,1,1657.3999999999069,361616.0,7056,NNB,B,13
13,test,4,0.0,1-Back,1,m,Fri Feb 21 2025 15:55:51 GMT-0600 (Central Standard Time),364923.1000000001,173_y_f_n_a.png,O,m,615,15,1,1646.2000000001863,363276.8999999999,7056,NNB,B,14
13,test,4,1.0,1-Back,0,z,Fri Feb 21 2025 15:55:51 GMT-0600 (Central Standard Time),366522.6000000001,173_y_f_n_a.png,O,m,580,16,1,1592.2999999998137,364930.3000000003,7056,NNB,B,15
14,test,4,0.0,1-Back,1,m,Fri Feb 21 2025 15:55:51 GMT-0600 (Central Standard Time),368389.3000000003,029_m_f_n_a.png,O,m,838,17,1,1863.1000000000931,366526.2000000002,7056,NNB,B,16
14,test,4,1.0,1-Back,0,z,Fri Feb 21 2025 15:55:51 GMT-0600 (Central Standard Time),369889.7000000002,029_m_f_n_a.png,O,m,467,18,1,1493.8000000002794,368395.8999999999,7056,NNB,B,17
0,test,5,1.0,1-Back,,,Fri Feb 21 2025 15:55:51 GMT-0600 (Central Standard Time),369889.7000000002,176_o_m_n_a.png,O,space,991,1,1,1493.8000000002794,368395.8999999999,7056,NNB,B,0
1,test,5,1.0,1-Back,1,z,Fri Feb 21 2025 15:55:51 GMT-0600 (Central Standard Time),374971.0,176_o_m_n_a.png,O,z,1046,2,1,2057.1999999997206,372913.8000000003,7056,NNB,B,1
2,test,5,0.0,1-Back,1,m,Fri Feb 21 2025 15:55:51 GMT-0600 (Central Standard Time),376819.8000000003,152_y_f_n_a.png,O,m,821,3,1,1846.1000000000931,374973.7000000002,7056,NNB,B,2
3,test,5,0.0,1-Back,1,m,Fri Feb 21 2025 15:55:51 GMT-0600 (Central Standard Time),379119.5,153_y_m_n_a.png,O,m,1276,4,1,2294.600000000093,376824.8999999999,7056,NNB,B,3
3,test,5,0.0,1-Back,0,m,Fri Feb 21 2025 15:55:51 GMT-0600 (Central Standard Time),381052.0,152_y_f_n_a.png,O,z,906,5,1,1926.2999999998137,379125.7000000002,7056,NNB,B,4
4,test,5,0.0,1-Back,1,m,Fri Feb 21 2025 15:55:51 GMT-0600 (Central Standard Time),382900.8999999999,126_m_m_n_a.png,O,m,831,6,1,1842.0999999996275,381058.8000000003,7056,NNB,B,5
5,test,5,1.0,1-Back,1,z,Fri Feb 21 2025 15:55:51 GMT-0600 (Central Standard Time),384785.2000000002,126_m_m_n_a.png,O,z,859,7,1,1876.3999999999069,382908.8000000003,7056,NNB,B,6
6,test,5,0.0,1-Back,1,m,Fri Feb 21 2025 15:55:51 GMT-0600 (Central Standard Time),386583.8000000003,173_y_f_n_a.png,O,m,768,8,1,1790.3000000002794,384793.5,7056,NNB,B,7
7,test,5,0.0,1-Back,1,m,Fri Feb 21 2025 15:55:51 GMT-0600 (Central Standard Time),388517.3999999999,013_y_m_n_a.png,O,m,905,9,1,1926.3999999999069,386591.0,7056,NNB,B,8
8,test,5,0.0,1-Back,1,m,Fri Feb 21 2025 15:55:51 GMT-0600 (Central Standard Time),390531.7000000002,173_y_f_n_a.png,O,m,998,10,1,2007.3999999999069,388524.3000000003,7056,NNB,B,9
9,test,5,0.0,1-Back,1,m,Fri Feb 21 2025 15:55:51 GMT-0600 (Central Standard Time),392831.2000000002,086_o_f_n_a.png,O,m,1269,11,1,2295.7000000001863,390535.5,7056,NNB,B,10
10,test,5,1.0,1-Back,1,z,Fri Feb 21 2025 15:55:51 GMT-0600 (Central Standard Time),394597.7000000002,086_o_f_n_a.png,O,z,736,12,1,1759.7000000001863,392838.0,7056,NNB,B,11
11,test,5,0.0,1-Back,1,m,Fri Feb 21 2025 15:55:51 GMT-0600 (Central Standard Time),396315.2000000002,065_o_m_n_a.png,O,m,691,13,1,1711.1000000000931,394604.1000000001,7056,NNB,B,12
12,test,5,0.0,1-Back,1,m,Fri Feb 21 2025 15:55:51 GMT-0600 (Central Standard Time),398147.8000000003,097_m_f_n_a.png,O,m,805,14,1,1825.5,396322.3000000003,7056,NNB,B,13
13,test,5,1.0,1-Back,1,z,Fri Feb 21 2025 15:55:51 GMT-0600 (Central Standard Time),399930.8000000003,097_m_f_n_a.png,O,z,759,15,1,1775.7000000001863,398155.1000000001,7056,NNB,B,14
14,test,5,0.0,1-Back,1,m,Fri Feb 21 2025 15:55:51 GMT-0600 (Central Standard Time),401913.0,065_o_m_n_a.png,O,m,958,16,1,1974.6000000000931,399938.3999999999,7056,NNB,B,15
15,test,5,0.0,1-Back,1,m,Fri Feb 21 2025 15:55:51 GMT-0600 (Central Standard Time),403761.7000000002,029_m_f_n_a.png,O,m,826,17,1,1842.3999999999069,401919.3000000003,7056,NNB,B,16
16,test,5,0.0,1-Back,1,m,Fri Feb 21 2025 15:55:51 GMT-0600 (Central Standard Time),405511.3000000003,178_m_m_n_a.png,O,m,727,18,1,1742.8000000002794,403768.5,7056,NNB,B,17
0,prac,1,0.0,2-Back,,,Fri Feb 21 2025 15:55:51 GMT-0600 (Central Standard Time),405511.3000000003,013_y_m_n_a.png,O,space,16579,1,1,1742.8000000002794,403768.5,7056,NNB,B,0
0,prac,1,0.0,2-Back,,,Fri Feb 21 2025 15:55:51 GMT-0600 (Central Standard Time),405511.3000000003,029_m_f_n_a.png,O,space,16579,2,1,1742.8000000002794,403768.5,7056,NNB,B,0
1,prac,1,1.0,2-Back,1,m,Fri Feb 21 2025 15:55:51 GMT-0600 (Central Standard Time),545068.5,065_o_m_n_a.png,O,m,1725,3,1,2577.0,542491.5,7056,NNB,B,1
2,prac,1,0.0,2-Back,1,m,Fri Feb 21 2025 15:55:51 GMT-0600 (Central Standard Time),547833.3999999999,086_o_f_n_a.png,O,m,1898,4,1,2754.1999999997206,545079.2000000002,7056,NNB,B,2
3,prac,1,0.0,2-Back,1,z,Fri Feb 21 2025 15:55:51 GMT-0600 (Central Standard Time),550065.5,065_o_m_n_a.png,O,z,1455,5,1,2223.0,547842.5,7056,NNB,B,3
3,prac,1,1.0,2-Back,0,z,Fri Feb 21 2025 15:55:51 GMT-0600 (Central Standard Time),551964.3000000003,086_o_f_n_a.png,O,m,1121,6,1,1891.7000000001863,550072.6000000001,7056,NNB,B,4
4,prac,1,0.0,2-Back,1,m,Fri Feb 21 2025 15:55:51 GMT-0600 (Central Standard Time),553964.1000000001,178_m_m_n_a.png,O,m,1140,7,1,1991.8999999999069,551972.2000000002,7056,NNB,B,5
4,prac,1,0.0,2-Back,0,m,Fri Feb 21 2025 15:55:51 GMT-0600 (Central Standard Time),556797.1000000001,176_o_m_n_a.png,O,z,1959,8,1,2826.2000000001863,553970.8999999999,7056,NNB,B,6
5,prac,1,0.0,2-Back,1,m,Fri Feb 21 2025 15:55:51 GMT-0600 (Central Standard Time),558662.5,173_y_f_n_a.png,O,m,1000,9,1,1856.0,556806.5,7056,NNB,B,7
6,prac,1,1.0,2-Back,1,z,Fri Feb 21 2025 15:55:51 GMT-0600 (Central Standard Time),560695.3999999999,176_o_m_n_a.png,O,z,1242,10,1,2024.0999999996275,558671.3000000003,7056,NNB,B,8
7,prac,1,0.0,2-Back,1,m,Fri Feb 21 2025 15:55:51 GMT-0600 (Central Standard Time),563277.3999999999,152_y_f_n_a.png,O,m,1710,11,1,2573.6999999997206,560703.7000000002,7056,NNB,B,9
7,prac,1,0.0,2-Back,0,m,Fri Feb 21 2025 15:55:51 GMT-0600 (Central Standard Time),565492.8999999999,178_m_m_n_a.png,O,z,1437,12,1,2207.7999999998137,563285.1000000001,7056,NNB,B,10
0,test,1,0.0,2-Back,,,Fri Feb 21 2025 15:55:51 GMT-0600 (Central Standard Time),565492.8999999999,153_y_m_n_a.png,O,space,15888,1,1,2207.7999999998137,563285.1000000001,7056,NNB,B,0
0,test,1,0.0,2-Back,,,Fri Feb 21 2025 15:55:51 GMT-0600 (Central Standard Time),565492.8999999999,153_y_m_n_a.png,O,space,15888,2,1,2207.7999999998137,563285.1000000001,7056,NNB,B,0
1,test,1,0.0,2-Back,1,m,Fri Feb 21 2025 15:55:51 GMT-0600 (Central Standard Time),596417.8999999999,086_o_f_n_a.png,O,m,1134,3,1,2157.0,594260.8999999999,7056,NNB,B,1
2,test,1,0.0,2-Back,1,m,Fri Feb 21 2025 15:55:51 GMT-0600 (Central Standard Time),598266.5,126_m_m_n_a.png,O,m,823,4,1,1842.7999999998137,596423.7000000002,7056,NNB,B,2
3,test,1,1.0,2-Back,1,z,Fri Feb 21 2025 15:55:51 GMT-0600 (Central Standard Time),600699.6000000001,086_o_f_n_a.png,O,z,1407,5,1,2425.899999999907,598273.7000000002,7056,NNB,B,3
4,test,1,0.0,2-Back,1,m,Fri Feb 21 2025 15:55:51 GMT-0600 (Central Standard Time),602614.8000000003,152_y_f_n_a.png,O,m,885,6,1,1907.8000000002794,600707.0,7056,NNB,B,4
5,test,1,0.0,2-Back,1,m,Fri Feb 21 2025 15:55:51 GMT-0600 (Central Standard Time),604430.0,126_m_m_n_a.png,O,m,794,7,1,1807.7999999998137,602622.2000000002,7056,NNB,B,5
6,test,1,1.0,2-Back,1,z,Fri Feb 21 2025 15:55:51 GMT-0600 (Central Standard Time),606447.8000000003,152_y_f_n_a.png,O,z,984,8,1,2010.3000000002794,604437.5,7056,NNB,B,6
7,test,1,0.0,2-Back,1,m,Fri Feb 21 2025 15:55:51 GMT-0600 (Central Standard Time),608481.0,013_y_m_n_a.png,O,m,1001,9,1,2029.2999999998137,606451.7000000002,7056,NNB,B,7
8,test,1,0.0,2-Back,1,m,Fri Feb 21 2025 15:55:51 GMT-0600 (Central Standard Time),610345.8000000003,110_o_f_n_a.png,O,m,833,10,1,1858.6000000000931,608487.2000000002,7056,NNB,B,8
9,test,1,1.0,2-Back,1,z,Fri Feb 21 2025 15:55:51 GMT-0600 (Central Standard Time),612328.3000000003,013_y_m_n_a.png,O,z,948,11,1,1975.2000000001863,610353.1000000001,7056,NNB,B,9
10,test,1,0.0,2-Back,1,m,Fri Feb 21 2025 15:55:51 GMT-0600 (Central Standard Time),614028.0,029_m_f_n_a.png,O,m,664,12,1,1693.8999999999069,612334.1000000001,7056,NNB,B,10
11,test,1,0.0,2-Back,1,m,Fri Feb 21 2025 15:55:51 GMT-0600 (Central Standard Time),616343.8999999999,029_m_f_n_a.png,O,m,1293,13,1,2309.399999999907,614034.5,7056,NNB,B,11
11,test,1,0.0,2-Back,0,m,Fri Feb 21 2025 15:55:51 GMT-0600 (Central Standard Time),619361.8000000003,065_o_m_n_a.png,O,None,2001,14,1,3008.5,616353.3000000003,7056,NNB,B,12
12,test,1,0.0,2-Back,1,m,Fri Feb 21 2025 15:55:51 GMT-0600 (Central Standard Time),621143.0,110_o_f_n_a.png,O,m,752,15,1,1774.6999999997206,619368.3000000003,7056,NNB,B,13
12,test,1,1.0,2-Back,0,z,Fri Feb 21 2025 15:55:51 GMT-0600 (Central Standard Time),623192.2000000002,065_o_m_n_a.png,O,m,1017,16,1,2042.1000000000931,621150.1000000001,7056,NNB,B,14
13,test,1,0.0,2-Back,1,m,Fri Feb 21 2025 15:55:51 GMT-0600 (Central Standard Time),625524.8000000003,097_m_f_n_a.png,O,m,1301,17,1,2326.4000000003725,623198.3999999999,7056,NNB,B,15
14,test,1,0.0,2-Back,1,m,Fri Feb 21 2025 15:55:51 GMT-0600 (Central Standard Time),627891.7000000002,178_m_m_n_a.png,O,m,1342,18,1,2360.3000000002794,625531.3999999999,7056,NNB,B,16
0,test,2,0.0,2-Back,,,Fri Feb 21 2025 15:55:51 GMT-0600 (Central Standard Time),627891.7000000002,178_m_m_n_a.png,O,space,1358,1,1,2360.3000000002794,625531.3999999999,7056,NNB,B,0
0,test,2,0.0,2-Back,,,Fri Feb 21 2025 15:55:51 GMT-0600 (Central Standard Time),627891.7000000002,173_y_f_n_a.png,O,space,1358,2,1,2360.3000000002794,625531.3999999999,7056,NNB,B,0
1,test,2,1.0,2-Back,1,z,Fri Feb 21 2025 15:55:51 GMT-0600 (Central Standard Time),636587.0,178_m_m_n_a.png,O,z,1172,3,1,2190.5,634396.5,7056,NNB,B,1
2,test,2,0.0,2-Back,1,m,Fri Feb 21 2025 15:55:51 GMT-0600 (Central Standard Time),638405.1000000001,097_m_f_n_a.png,O,m,799,4,1,1811.1000000000931,636594.0,7056,NNB,B,2
2,test,2,0.0,2-Back,0,m,Fri Feb 21 2025 15:55:51 GMT-0600 (Central Standard Time),640619.3999999999,173_y_f_n_a.png,O,z,1188,5,1,2206.5999999996275,638412.8000000003,7056,NNB,B,3
3,test,2,0.0,2-Back,1,m,Fri Feb 21 2025 15:55:51 GMT-0600 (Central Standard Time),642486.6000000001,065_o_m_n_a.png,O,m,848,6,1,1860.8999999999069,640625.7000000002,7056,NNB,B,4
3,test,2,0.0,2-Back,0,m,Fri Feb 21 2025 15:55:51 GMT-0600 (Central Standard Time),644551.6000000001,152_y_f_n_a.png,O,z,1034,7,1,2058.2999999998137,642493.3000000003,7056,NNB,B,5
4,test,2,1.0,2-Back,1,z,Fri Feb 21 2025 15:55:51 GMT-0600 (Central Standard Time),646668.7000000002,065_o_m_n_a.png,O,z,1098,8,1,2108.399999999907,644560.3000000003,7056,NNB,B,6
5,test,2,0.0,2-Back,1,m,Fri Feb 21 2025 15:55:51 GMT-0600 (Central Standard Time),648634.8000000003,013_y_m_n_a.png,O,m,950,9,1,1958.1000000000931,646676.7000000002,7056,NNB,B,7
6,test,2,0.0,2-Back,1,m,Fri Feb 21 2025 15:55:51 GMT-0600 (Central Standard Time),651033.5,013_y_m_n_a.png,O,m,1373,10,1,2391.2999999998137,648642.2000000002,7056,NNB,B,8
7,test,2,0.0,2-Back,1,m,Fri Feb 21 2025 15:55:51 GMT-0600 (Central Standard Time),653599.2000000002,029_m_f_n_a.png,O,m,1534,11,1,2558.7000000001863,651040.5,7056,NNB,B,9
8,test,2,0.0,2-Back,1,m,Fri Feb 21 2025 15:55:51 GMT-0600 (Central Standard Time),655864.6000000001,173_y_f_n_a.png,O,m,1243,12,1,2258.7000000001863,653605.8999999999,7056,NNB,B,10
9,test,2,1.0,2-Back,1,z,Fri Feb 21 2025 15:55:51 GMT-0600 (Central Standard Time),658030.3999999999,029_m_f_n_a.png,O,z,1142,13,1,2158.399999999907,655872.0,7056,NNB,B,11
10,test,2,0.0,2-Back,1,m,Fri Feb 21 2025 15:55:51 GMT-0600 (Central Standard Time),659813.3999999999,176_o_m_n_a.png,O,m,752,14,1,1775.1999999997206,658038.2000000002,7056,NNB,B,12
10,test,2,0.0,2-Back,0,m,Fri Feb 21 2025 15:55:51 GMT-0600 (Central Standard Time),662613.7000000002,176_o_m_n_a.png,O,z,1772,15,1,2792.399999999907,659821.3000000003,7056,NNB,B,13
11,test,2,0.0,2-Back,1,m,Fri Feb 21 2025 15:55:51 GMT-0600 (Central Standard Time),664296.0,110_o_f_n_a.png,O,m,652,16,1,1674.6000000000931,662621.3999999999,7056,NNB,B,14
12,test,2,0.0,2-Back,1,m,Fri Feb 21 2025 15:55:51 GMT-0600 (Central Standard Time),666144.7000000002,126_m_m_n_a.png,O,m,816,17,1,1842.3999999999069,664302.3000000003,7056,NNB,B,15
13,test,2,1.0,2-Back,1,z,Fri Feb 21 2025 15:55:51 GMT-0600 (Central Standard Time),668110.5,110_o_f_n_a.png,O,z,944,18,1,1959.6999999997206,666150.8000000003,7056,NNB,B,16
0,test,3,1.0,2-Back,,,Fri Feb 21 2025 15:55:51 GMT-0600 (Central Standard Time),668110.5,153_y_m_n_a.png,O,space,1164,1,1,1959.6999999997206,666150.8000000003,7056,NNB,B,0
0,test,3,1.0,2-Back,,,Fri Feb 21 2025 15:55:51 GMT-0600 (Central Standard Time),668110.5,153_y_m_n_a.png,O,space,1164,2,1,1959.6999999997206,666150.8000000003,7056,NNB,B,0
1,test,3,0.0,2-Back,1,m,Fri Feb 21 2025 15:55:51 GMT-0600 (Central Standard Time),676791.3999999999,110_o_f_n_a.png,O,m,1351,3,1,2376.6999999997206,674414.7000000002,7056,NNB,B,1
1,test,3,0.0,2-Back,0,m,Fri Feb 21 2025 15:55:51 GMT-0600 (Central Standard Time),679824.7000000002,178_m_m_n_a.png,O,None,2017,4,1,3026.100000000093,676798.6000000001,7056,NNB,B,2
1,test,3,1.0,2-Back,0,z,Fri Feb 21 2025 15:55:51 GMT-0600 (Central Standard Time),681657.5,110_o_f_n_a.png,O,m,799,5,1,1825.7999999998137,679831.7000000002,7056,NNB,B,3
2,test,3,0.0,2-Back,1,m,Fri Feb 21 2025 15:55:51 GMT-0600 (Central Standard Time),683573.8999999999,013_y_m_n_a.png,O,m,900,6,1,1910.5,681663.3999999999,7056,NNB,B,4
3,test,3,0.0,2-Back,1,m,Fri Feb 21 2025 15:55:51 GMT-0600 (Central Standard Time),685489.5,178_m_m_n_a.png,O,m,893,7,1,1908.6000000000931,683580.8999999999,7056,NNB,B,5
3,test,3,1.0,2-Back,0,z,Fri Feb 21 2025 15:55:51 GMT-0600 (Central Standard Time),687504.8999999999,013_y_m_n_a.png,O,m,983,8,1,2009.3999999999069,685495.5,7056,NNB,B,6
4,test,3,0.0,2-Back,1,m,Fri Feb 21 2025 15:55:51 GMT-0600 (Central Standard Time),689886.7000000002,173_y_f_n_a.png,O,m,1359,9,1,2375.899999999907,687510.8000000003,7056,NNB,B,7
5,test,3,0.0,2-Back,1,m,Fri Feb 21 2025 15:55:51 GMT-0600 (Central Standard Time),691953.0,126_m_m_n_a.png,O,m,1043,10,1,2060.1999999997206,689892.8000000003,7056,NNB,B,8
6,test,3,1.0,2-Back,1,z,Fri Feb 21 2025 15:55:51 GMT-0600 (Central Standard Time),693885.5,173_y_f_n_a.png,O,z,914,11,1,1925.6000000000931,691959.8999999999,7056,NNB,B,9
7,test,3,1.0,2-Back,1,z,Fri Feb 21 2025 15:55:51 GMT-0600 (Central Standard Time),696170.6000000001,126_m_m_n_a.png,O,z,1261,12,1,2277.899999999907,693892.7000000002,7056,NNB,B,10
8,test,3,0.0,2-Back,1,m,Fri Feb 21 2025 15:55:51 GMT-0600 (Central Standard Time),698084.3000000003,110_o_f_n_a.png,O,m,897,13,1,1906.0,696178.3000000003,7056,NNB,B,11
9,test,3,0.0,2-Back,1,m,Fri Feb 21 2025 15:55:51 GMT-0600 (Central Standard Time),700418.3000000003,097_m_f_n_a.png,O,m,1307,14,1,2325.9000000003725,698092.3999999999,7056,NNB,B,12
10,test,3,0.0,2-Back,1,m,Fri Feb 21 2025 15:55:51 GMT-0600 (Central Standard Time),702150.7000000002,065_o_m_n_a.png,O,m,701,15,1,1724.3999999999069,700426.3000000003,7056,NNB,B,13
11,test,3,1.0,2-Back,1,z,Fri Feb 21 2025 15:55:51 GMT-0600 (Central Standard Time),704099.8000000003,097_m_f_n_a.png,O,z,922,16,1,1941.0,702158.8000000003,7056,NNB,B,14
12,test,3,0.0,2-Back,1,m,Fri Feb 21 2025 15:55:51 GMT-0600 (Central Standard Time),706166.6000000001,086_o_f_n_a.png,O,m,1037,17,1,2060.0,704106.6000000001,7056,NNB,B,15
13,test,3,0.0,2-Back,1,m,Fri Feb 21 2025 15:55:51 GMT-0600 (Central Standard Time),707980.2000000002,086_o_f_n_a.png,O,m,793,18,1,1807.8000000002794,706172.3999999999,7056,NNB,B,16
0,test,4,0.0,2-Back,,,Fri Feb 21 2025 15:55:51 GMT-0600 (Central Standard Time),707980.2000000002,176_o_m_n_a.png,O,space,1116,1,1,1807.8000000002794,706172.3999999999,7056,NNB,B,0
0,test,4,0.0,2-Back,,,Fri Feb 21 2025 15:55:51 GMT-0600 (Central Standard Time),707980.2000000002,152_y_f_n_a.png,O,space,1116,2,1,1807.8000000002794,706172.3999999999,7056,NNB,B,0
1,test,4,1.0,2-Back,1,z,Fri Feb 21 2025 15:55:51 GMT-0600 (Central Standard Time),716413.2000000002,176_o_m_n_a.png,O,z,1051,3,1,2078.8000000002794,714334.3999999999,7056,NNB,B,1
2,test,4,1.0,2-Back,1,z,Fri Feb 21 2025 15:55:51 GMT-0600 (Central Standard Time),718479.3999999999,152_y_f_n_a.png,O,z,1048,4,1,2059.5999999996275,716419.8000000003,7056,NNB,B,2
3,test,4,0.0,2-Back,1,m,Fri Feb 21 2025 15:55:51 GMT-0600 (Central Standard Time),720544.3999999999,110_o_f_n_a.png,O,m,1033,5,1,2058.399999999907,718486.0,7056,NNB,B,3
4,test,4,0.0,2-Back,1,m,Fri Feb 21 2025 15:55:51 GMT-0600 (Central Standard Time),722894.7000000002,110_o_f_n_a.png,O,m,1334,6,1,2342.2000000001863,720552.5,7056,NNB,B,4
5,test,4,0.0,2-Back,1,m,Fri Feb 21 2025 15:55:51 GMT-0600 (Central Standard Time),724991.8000000003,029_m_f_n_a.png,O,m,1075,7,1,2090.600000000093,722901.2000000002,7056,NNB,B,5
6,test,4,0.0,2-Back,1,m,Fri Feb 21 2025 15:55:51 GMT-0600 (Central Standard Time),726942.2000000002,013_y_m_n_a.png,O,m,920,8,1,1944.3000000002794,724997.8999999999,7056,NNB,B,6
6,test,4,1.0,2-Back,0,z,Fri Feb 21 2025 15:55:51 GMT-0600 (Central Standard Time),729191.6000000001,029_m_f_n_a.png,O,m,1220,9,1,2242.7000000001863,726948.8999999999,7056,NNB,B,7
6,test,4,0.0,2-Back,0,m,Fri Feb 21 2025 15:55:51 GMT-0600 (Central Standard Time),731258.1000000001,126_m_m_n_a.png,O,z,1041,10,1,2058.2999999998137,729199.8000000003,7056,NNB,B,8
7,test,4,0.0,2-Back,1,m,Fri Feb 21 2025 15:55:51 GMT-0600 (Central Standard Time),733557.3999999999,013_y_m_n_a.png,O,m,1271,11,1,2292.1999999997206,731265.2000000002,7056,NNB,B,9
8,test,4,0.0,2-Back,1,m,Fri Feb 21 2025 15:55:51 GMT-0600 (Central Standard Time),735523.8000000003,086_o_f_n_a.png,O,m,940,12,1,1958.5,733565.3000000003,7056,NNB,B,10
9,test,4,0.0,2-Back,1,m,Fri Feb 21 2025 15:55:51 GMT-0600 (Central Standard Time),737539.8000000003,153_y_m_n_a.png,O,m,990,13,1,2009.7000000001863,735530.1000000001,7056,NNB,B,11
10,test,4,1.0,2-Back,1,z,Fri Feb 21 2025 15:55:51 GMT-0600 (Central Standard Time),739787.8999999999,086_o_f_n_a.png,O,z,1222,14,1,2241.2999999998137,737546.6000000001,7056,NNB,B,12
10,test,4,1.0,2-Back,0,z,Fri Feb 21 2025 15:55:51 GMT-0600 (Central Standard Time),742503.8000000003,153_y_m_n_a.png,O,m,1684,15,1,2709.600000000093,739794.2000000002,7056,NNB,B,13
11,test,4,0.0,2-Back,1,m,Fri Feb 21 2025 15:55:51 GMT-0600 (Central Standard Time),744702.3999999999,178_m_m_n_a.png,O,m,1169,16,1,2192.5,742509.8999999999,7056,NNB,B,14
12,test,4,0.0,2-Back,1,m,Fri Feb 21 2025 15:55:51 GMT-0600 (Central Standard Time),746685.6000000001,097_m_f_n_a.png,O,m,960,17,1,1977.8999999999069,744707.7000000002,7056,NNB,B,15
12,test,4,1.0,2-Back,0,z,Fri Feb 21 2025 15:55:51 GMT-0600 (Central Standard Time),748250.5,178_m_m_n_a.png,O,m,538,18,1,1557.1000000000931,746693.3999999999,7056,NNB,B,16
0,test,5,1.0,2-Back,,,Fri Feb 21 2025 15:55:51 GMT-0600 (Central Standard Time),748250.5,153_y_m_n_a.png,O,space,943,1,1,1557.1000000000931,746693.3999999999,7056,NNB,B,0
0,test,5,1.0,2-Back,,,Fri Feb 21 2025 15:55:51 GMT-0600 (Central Standard Time),748250.5,097_m_f_n_a.png,O,space,943,2,1,1557.1000000000931,746693.3999999999,7056,NNB,B,0
1,test,5,1.0,2-Back,1,z,Fri Feb 21 2025 15:55:51 GMT-0600 (Central Standard Time),756533.6000000001,153_y_m_n_a.png,O,z,1264,3,1,2275.100000000093,754258.5,7056,NNB,B,1
1,test,5,1.0,2-Back,0,z,Fri Feb 21 2025 15:55:51 GMT-0600 (Central Standard Time),758548.6000000001,097_m_f_n_a.png,O,m,987,4,1,2008.0,756540.6000000001,7056,NNB,B,2
2,test,5,0.0,2-Back,1,m,Fri Feb 21 2025 15:55:51 GMT-0600 (Central Standard Time),760648.8000000003,086_o_f_n_a.png,O,m,1076,5,1,2093.600000000093,758555.2000000002,7056,NNB,B,3
2,test,5,0.0,2-Back,0,m,Fri Feb 21 2025 15:55:51 GMT-0600 (Central Standard Time),762780.3000000003,153_y_m_n_a.png,O,z,1113,6,1,2125.0,760655.3000000003,7056,NNB,B,4
3,test,5,0.0,2-Back,1,m,Fri Feb 21 2025 15:55:51 GMT-0600 (Central Standard Time),765348.1000000001,173_y_f_n_a.png,O,m,1550,7,1,2559.7000000001863,762788.3999999999,7056,NNB,B,5
3,test,5,0.0,2-Back,0,m,Fri Feb 21 2025 15:55:51 GMT-0600 (Central Standard Time),767397.5,086_o_f_n_a.png,O,z,1032,8,1,2042.8999999999069,765354.6000000001,7056,NNB,B,6
3,test,5,1.0,2-Back,0,z,Fri Feb 21 2025 15:55:51 GMT-0600 (Central Standard Time),769095.0,173_y_f_n_a.png,O,m,678,9,1,1690.6000000000931,767404.3999999999,7056,NNB,B,7
4,test,5,0.0,2-Back,1,m,Fri Feb 21 2025 15:55:51 GMT-0600 (Central Standard Time),771028.6000000001,065_o_m_n_a.png,O,m,905,10,1,1926.7999999998137,769101.8000000003,7056,NNB,B,8
5,test,5,0.0,2-Back,1,m,Fri Feb 21 2025 15:55:51 GMT-0600 (Central Standard Time),772910.8999999999,029_m_f_n_a.png,O,m,860,11,1,1874.8999999999069,771036.0,7056,NNB,B,9
6,test,5,0.0,2-Back,1,m,Fri Feb 21 2025 15:55:51 GMT-0600 (Central Standard Time),774893.7000000002,126_m_m_n_a.png,O,m,965,12,1,1976.5,772917.2000000002,7056,NNB,B,10
6,test,5,0.0,2-Back,0,m,Fri Feb 21 2025 15:55:51 GMT-0600 (Central Standard Time),776827.3999999999,065_o_m_n_a.png,O,z,897,13,1,1926.3999999999069,774901.0,7056,NNB,B,11
6,test,5,1.0,2-Back,0,z,Fri Feb 21 2025 15:55:51 GMT-0600 (Central Standard Time),778708.3999999999,126_m_m_n_a.png,O,m,853,14,1,1873.3999999999069,776835.0,7056,NNB,B,12
7,test,5,0.0,2-Back,1,m,Fri Feb 21 2025 15:55:51 GMT-0600 (Central Standard Time),780959.3000000003,152_y_f_n_a.png,O,m,1220,15,1,2244.2000000001863,778715.1000000001,7056,NNB,B,13
8,test,5,0.0,2-Back,1,m,Fri Feb 21 2025 15:55:51 GMT-0600 (Central Standard Time),782574.8000000003,176_o_m_n_a.png,O,m,585,16,1,1609.1000000000931,780965.7000000002,7056,NNB,B,14
9,test,5,0.0,2-Back,1,m,Fri Feb 21 2025 15:55:51 GMT-0600 (Central Standard Time),784474.3000000003,029_m_f_n_a.png,O,m,874,17,1,1892.4000000003725,782581.8999999999,7056,NNB,B,15
9,test,5,1.0,2-Back,0,z,Fri Feb 21 2025 15:55:51 GMT-0600 (Central Standard Time),786472.6000000001,176_o_m_n_a.png,O,m,976,18,1,1992.2999999998137,784480.3000000003,7056,NNB,B,16
