Number,acc_sum,block,block_c,block_cond,con_img,correct,correct_response,datetime,endtime,jitter,project,response,response_time,row_sel,session_number,start_end,starttime,subject_id,task,task_vers,trial
8,0,prac,1,A,circle.png,0,m,Mon Mar 10 2025 16:53:09 GMT-0500 (Central Daylight Time),122499.89999997616,1600,O,None,1516,7,1,3896.2999999523163,118603.60000002384,7048,NTS,C,1
8,0,prac,1,A,circle.png,0,m,Mon Mar 10 2025 16:53:09 GMT-0500 (Central Daylight Time),126397.89999997616,1600,O,None,1514,7,1,3890.699999988079,122507.19999998808,7048,NTS,C,2
9,0,prac,1,A,circle.png,0,m,Mon Mar 10 2025 16:53:09 GMT-0500 (Central Daylight Time),130196.60000002384,1500,O,None,1513,8,1,3790.800000011921,126405.80000001192,7048,NTS,C,3
3,0,prac,1,A,circle.png,0,z,Mon Mar 10 2025 16:53:09 GMT-0500 (Central Daylight Time),133595.19999998808,1200,O,m,1399,3,1,3390.399999976158,130204.80000001192,7048,NTS,C,4
3,0,prac,1,A,circle.png,0,z,Mon Mar 10 2025 16:53:09 GMT-0500 (Central Daylight Time),137079.10000002384,1200,O,None,1513,3,1,3475.7000000476837,133603.39999997616,7048,NTS,C,5
6,1,prac,1,A,circle.png,1,m,Mon Mar 10 2025 16:53:09 GMT-0500 (Central Daylight Time),140541.69999998808,1900,O,m,770,5,1,3454.0,137087.69999998808,7048,NTS,C,6
1,2,prac,1,A,circle.png,1,z,Mon Mar 10 2025 16:53:09 GMT-0500 (Central Daylight Time),143426.5,1000,O,z,1110,1,1,2875.300000011921,140551.19999998808,7048,NTS,C,7
4,3,prac,1,A,circle.png,1,z,Mon Mar 10 2025 16:53:09 GMT-0500 (Central Daylight Time),146259.89999997616,1400,O,z,656,4,1,2826.7999999523163,143433.10000002384,7048,NTS,C,8
2,4,prac,1,A,circle.png,1,z,Mon Mar 10 2025 16:53:09 GMT-0500 (Central Daylight Time),149708.80000001192,2000,O,z,650,2,1,3443.0,146265.80000001192,7048,NTS,C,9
7,5,prac,1,A,circle.png,1,m,Mon Mar 10 2025 16:53:09 GMT-0500 (Central Daylight Time),152939.5,1700,O,m,734,6,1,3223.0,149716.5,7048,NTS,C,10
4,6,prac,1,A,circle.png,1,z,Mon Mar 10 2025 16:53:09 GMT-0500 (Central Daylight Time),155804.0,1400,O,z,682,4,1,2859.199999988079,152944.80000001192,7048,NTS,C,11
1,7,prac,1,A,circle.png,1,z,Mon Mar 10 2025 16:53:09 GMT-0500 (Central Daylight Time),158156.0,1000,O,z,573,1,1,2347.0,155809.0,7048,NTS,C,12
2,1,prac,2,A,circle.png,1,z,Mon Mar 10 2025 16:53:09 GMT-0500 (Central Daylight Time),170452.19999998808,2000,O,z,684,2,1,3475.199999988079,166977.0,7048,NTS,C,1
1,2,prac,2,A,circle.png,1,z,Mon Mar 10 2025 16:53:09 GMT-0500 (Central Daylight Time),172799.10000002384,1000,O,z,553,1,1,2338.300000011921,170460.80000001192,7048,NTS,C,2
6,3,prac,2,A,circle.png,1,m,Mon Mar 10 2025 16:53:09 GMT-0500 (Central Daylight Time),176231.30000001192,1900,O,m,738,5,1,3425.199999988079,172806.10000002384,7048,NTS,C,3
1,4,prac,2,A,circle.png,1,z,Mon Mar 10 2025 16:53:09 GMT-0500 (Central Daylight Time),178582.19999998808,1000,O,z,567,1,1,2342.699999988079,176239.5,7048,NTS,C,4
4,5,prac,2,A,circle.png,1,z,Mon Mar 10 2025 16:53:09 GMT-0500 (Central Daylight Time),181363.0,1400,O,z,591,4,1,2771.899999976158,178591.10000002384,7048,NTS,C,5
6,6,prac,2,A,circle.png,1,m,Mon Mar 10 2025 16:53:09 GMT-0500 (Central Daylight Time),184847.19999998808,1900,O,m,790,5,1,3475.899999976158,181371.30000001192,7048,NTS,C,6
8,7,prac,2,A,circle.png,1,m,Mon Mar 10 2025 16:53:09 GMT-0500 (Central Daylight Time),188043.30000001192,1600,O,m,798,7,1,3188.5,184854.80000001192,7048,NTS,C,7
3,8,prac,2,A,circle.png,1,z,Mon Mar 10 2025 16:53:09 GMT-0500 (Central Daylight Time),190761.30000001192,1200,O,z,718,3,1,2713.199999988079,188048.10000002384,7048,NTS,C,8
8,9,prac,2,A,circle.png,1,m,Mon Mar 10 2025 16:53:09 GMT-0500 (Central Daylight Time),193759.10000002384,1600,O,m,613,7,1,2991.100000023842,190768.0,7048,NTS,C,9
7,10,prac,2,A,circle.png,1,m,Mon Mar 10 2025 16:53:09 GMT-0500 (Central Daylight Time),197105.80000001192,1700,O,m,868,6,1,3339.800000011921,193766.0,7048,NTS,C,10
4,11,prac,2,A,circle.png,1,z,Mon Mar 10 2025 16:53:09 GMT-0500 (Central Daylight Time),200174.80000001192,1400,O,z,887,4,1,3065.0,197109.80000001192,7048,NTS,C,11
9,12,prac,2,A,circle.png,1,m,Mon Mar 10 2025 16:53:09 GMT-0500 (Central Daylight Time),203157.60000002384,1500,O,m,699,8,1,2977.7000000476837,200179.89999997616,7048,NTS,C,12
2,0,prac,1,B,triangle.png,0,m,Mon Mar 10 2025 16:53:09 GMT-0500 (Central Daylight Time),268053.3000000119,1700,O,None,1515,2,1,3992.100000023842,264061.1999999881,7048,NTS,C,1
9,1,prac,1,B,triangle.png,1,z,Mon Mar 10 2025 16:53:09 GMT-0500 (Central Daylight Time),271334.5,1400,O,z,1087,8,1,3273.300000011921,268061.1999999881,7048,NTS,C,2
1,2,prac,1,B,triangle.png,1,z,Mon Mar 10 2025 16:53:09 GMT-0500 (Central Daylight Time),275034.0,1900,O,z,1001,1,1,3690.5,271343.5,7048,NTS,C,3
3,3,prac,1,B,triangle.png,1,z,Mon Mar 10 2025 16:53:09 GMT-0500 (Central Daylight Time),278199.1999999881,1600,O,z,782,3,1,3153.399999976158,275045.8000000119,7048,NTS,C,4
3,4,prac,1,B,triangle.png,1,z,Mon Mar 10 2025 16:53:09 GMT-0500 (Central Daylight Time),281249.6999999881,1600,O,z,668,3,1,3039.800000011921,278209.89999997616,7048,NTS,C,5
2,5,prac,1,B,triangle.png,1,m,Mon Mar 10 2025 16:53:09 GMT-0500 (Central Daylight Time),284698.10000002384,1700,O,m,950,2,1,3439.0,281259.10000002384,7048,NTS,C,6
8,6,prac,1,B,triangle.png,1,m,Mon Mar 10 2025 16:53:09 GMT-0500 (Central Daylight Time),287413.6999999881,1200,O,m,723,7,1,2706.399999976158,284707.3000000119,7048,NTS,C,7
7,7,prac,1,B,triangle.png,1,z,Mon Mar 10 2025 16:53:09 GMT-0500 (Central Daylight Time),291212.1999999881,2000,O,z,1015,6,1,3792.0,287420.1999999881,7048,NTS,C,8
4,8,prac,1,B,triangle.png,1,m,Mon Mar 10 2025 16:53:09 GMT-0500 (Central Daylight Time),294245.3000000119,1500,O,m,734,4,1,3024.400000035763,291220.89999997616,7048,NTS,C,9
6,9,prac,1,B,triangle.png,1,m,Mon Mar 10 2025 16:53:09 GMT-0500 (Central Daylight Time),296760.5,1000,O,m,728,5,1,2509.300000011921,294251.1999999881,7048,NTS,C,10
6,10,prac,1,B,triangle.png,1,m,Mon Mar 10 2025 16:53:09 GMT-0500 (Central Daylight Time),299243.8000000119,1000,O,m,683,5,1,2475.600000023842,296768.1999999881,7048,NTS,C,11
1,11,prac,1,B,triangle.png,1,z,Mon Mar 10 2025 16:53:09 GMT-0500 (Central Daylight Time),302624.60000002384,1900,O,z,693,1,1,3374.600000023842,299250.0,7048,NTS,C,12
4,1,test,1,A,circle.png,1,z,Mon Mar 10 2025 16:53:09 GMT-0500 (Central Daylight Time),324950.0,1400,O,z,923,4,1,2345.100000023842,322604.89999997616,7048,NTS,C,1
9,2,test,1,A,circle.png,1,m,Mon Mar 10 2025 16:53:09 GMT-0500 (Central Daylight Time),326999.89999997616,1500,O,m,521,8,1,2045.8999999761581,324954.0,7048,NTS,C,2
4,3,test,1,A,circle.png,1,z,Mon Mar 10 2025 16:53:09 GMT-0500 (Central Daylight Time),328998.6999999881,1400,O,z,571,4,1,1992.800000011921,327005.89999997616,7048,NTS,C,3
9,4,test,1,A,circle.png,1,m,Mon Mar 10 2025 16:53:09 GMT-0500 (Central Daylight Time),330998.5,1500,O,m,472,8,1,1993.5,329005.0,7048,NTS,C,4
1,5,test,1,A,circle.png,1,z,Mon Mar 10 2025 16:53:09 GMT-0500 (Central Daylight Time),332565.5,1000,O,z,540,1,1,1561.800000011921,331003.6999999881,7048,NTS,C,5
7,6,test,1,A,circle.png,1,m,Mon Mar 10 2025 16:53:09 GMT-0500 (Central Daylight Time),334815.60000002384,1700,O,m,532,6,1,2246.100000023842,332569.5,7048,NTS,C,6
7,7,test,1,A,circle.png,1,m,Mon Mar 10 2025 16:53:09 GMT-0500 (Central Daylight Time),337046.0,1700,O,m,499,6,1,2224.199999988079,334821.8000000119,7048,NTS,C,7
8,8,test,1,A,circle.png,1,m,Mon Mar 10 2025 16:53:09 GMT-0500 (Central Daylight Time),339129.89999997616,1600,O,m,462,7,1,2077.0,337052.89999997616,7048,NTS,C,8
1,9,test,1,A,circle.png,1,z,Mon Mar 10 2025 16:53:09 GMT-0500 (Central Daylight Time),340728.0,1000,O,z,578,1,1,1592.699999988079,339135.3000000119,7048,NTS,C,9
9,10,test,1,A,circle.png,1,m,Mon Mar 10 2025 16:53:09 GMT-0500 (Central Daylight Time),342762.1999999881,1500,O,m,502,8,1,2029.199999988079,340733.0,7048,NTS,C,10
3,11,test,1,A,circle.png,1,z,Mon Mar 10 2025 16:53:09 GMT-0500 (Central Daylight Time),344644.5,1200,O,z,660,3,1,1877.6000000238419,342766.89999997616,7048,NTS,C,11
9,12,test,1,A,circle.png,1,m,Mon Mar 10 2025 16:53:09 GMT-0500 (Central Daylight Time),346626.8000000119,1500,O,m,451,8,1,1977.800000011921,344649.0,7048,NTS,C,12
7,13,test,1,A,circle.png,1,m,Mon Mar 10 2025 16:53:09 GMT-0500 (Central Daylight Time),348892.60000002384,1700,O,m,540,6,1,2260.2000000476837,346632.39999997616,7048,NTS,C,13
2,14,test,1,A,circle.png,1,z,Mon Mar 10 2025 16:53:09 GMT-0500 (Central Daylight Time),351475.6999999881,2000,O,z,559,2,1,2579.199999988079,348896.5,7048,NTS,C,14
1,15,test,1,A,circle.png,1,z,Mon Mar 10 2025 16:53:09 GMT-0500 (Central Daylight Time),353075.10000002384,1000,O,z,567,1,1,1595.2000000476837,351479.89999997616,7048,NTS,C,15
6,16,test,1,A,circle.png,1,m,Mon Mar 10 2025 16:53:09 GMT-0500 (Central Daylight Time),355574.0,1900,O,m,572,5,1,2494.600000023842,353079.39999997616,7048,NTS,C,16
3,17,test,1,A,circle.png,1,z,Mon Mar 10 2025 16:53:09 GMT-0500 (Central Daylight Time),357322.89999997616,1200,O,z,516,3,1,1744.199999988079,355578.6999999881,7048,NTS,C,17
7,18,test,1,A,circle.png,1,m,Mon Mar 10 2025 16:53:09 GMT-0500 (Central Daylight Time),359473.60000002384,1700,O,m,419,6,1,2146.0,357327.60000002384,7048,NTS,C,18
2,19,test,1,A,circle.png,1,z,Mon Mar 10 2025 16:53:09 GMT-0500 (Central Daylight Time),362039.3000000119,2000,O,z,538,2,1,2560.800000011921,359478.5,7048,NTS,C,19
8,20,test,1,A,circle.png,1,m,Mon Mar 10 2025 16:53:09 GMT-0500 (Central Daylight Time),364171.60000002384,1600,O,m,500,7,1,2128.100000023842,362043.5,7048,NTS,C,20
8,21,test,1,A,circle.png,1,m,Mon Mar 10 2025 16:53:09 GMT-0500 (Central Daylight Time),366355.5,1600,O,m,552,7,1,2178.699999988079,364176.8000000119,7048,NTS,C,21
2,22,test,1,A,circle.png,1,z,Mon Mar 10 2025 16:53:09 GMT-0500 (Central Daylight Time),368853.8000000119,2000,O,z,474,2,1,2494.199999988079,366359.60000002384,7048,NTS,C,22
2,23,test,1,A,circle.png,1,z,Mon Mar 10 2025 16:53:09 GMT-0500 (Central Daylight Time),371335.60000002384,2000,O,z,453,2,1,2477.7000000476837,368857.89999997616,7048,NTS,C,23
6,24,test,1,A,circle.png,1,m,Mon Mar 10 2025 16:53:09 GMT-0500 (Central Daylight Time),373584.89999997616,1900,O,m,319,5,1,2244.599999964237,371340.3000000119,7048,NTS,C,24
7,1,test,1,B,triangle.png,1,z,Mon Mar 10 2025 16:53:09 GMT-0500 (Central Daylight Time),388947.3000000119,2000,O,z,1459,6,1,3477.600000023842,385469.6999999881,7048,NTS,C,1
4,2,test,1,B,triangle.png,1,m,Mon Mar 10 2025 16:53:09 GMT-0500 (Central Daylight Time),390714.8000000119,1000,O,m,735,12,1,1763.0,388951.8000000119,7048,NTS,C,2
1,3,test,1,B,triangle.png,1,z,Mon Mar 10 2025 16:53:09 GMT-0500 (Central Daylight Time),392979.1999999881,1400,O,z,843,9,1,2257.300000011921,390721.89999997616,7048,NTS,C,3
6,4,test,1,B,triangle.png,1,m,Mon Mar 10 2025 16:53:09 GMT-0500 (Central Daylight Time),395028.89999997616,1500,O,m,516,13,1,2045.3999999761581,392983.5,7048,NTS,C,4
3,5,test,1,B,triangle.png,1,z,Mon Mar 10 2025 16:53:09 GMT-0500 (Central Daylight Time),397278.1999999881,1600,O,z,614,3,1,2244.199999988079,395034.0,7048,NTS,C,5
2,6,test,1,B,triangle.png,1,m,Mon Mar 10 2025 16:53:09 GMT-0500 (Central Daylight Time),399060.0,1200,O,m,559,10,1,1775.5,397284.5,7048,NTS,C,6
4,7,test,1,B,triangle.png,1,m,Mon Mar 10 2025 16:53:09 GMT-0500 (Central Daylight Time),401159.6999999881,1500,O,m,583,4,1,2094.099999964237,399065.60000002384,7048,NTS,C,7
7,8,test,1,B,triangle.png,1,z,Mon Mar 10 2025 16:53:09 GMT-0500 (Central Daylight Time),403478.60000002384,1600,O,z,692,14,1,2311.900000035763,401166.6999999881,7048,NTS,C,8
9,8,test,1,B,triangle.png,0,z,Mon Mar 10 2025 16:53:09 GMT-0500 (Central Daylight Time),405526.0,1400,O,m,625,8,1,2043.5,403482.5,7048,NTS,C,9
1,9,test,1,B,triangle.png,1,z,Mon Mar 10 2025 16:53:09 GMT-0500 (Central Daylight Time),407858.1999999881,1400,O,z,911,9,1,2328.099999964237,405530.10000002384,7048,NTS,C,10
1,10,test,1,B,triangle.png,1,z,Mon Mar 10 2025 16:53:09 GMT-0500 (Central Daylight Time),410373.60000002384,1900,O,z,590,1,1,2511.100000023842,407862.5,7048,NTS,C,11
8,11,test,1,B,triangle.png,1,m,Mon Mar 10 2025 16:53:09 GMT-0500 (Central Daylight Time),412855.3000000119,1700,O,m,755,15,1,2477.900000035763,410377.39999997616,7048,NTS,C,12
8,12,test,1,B,triangle.png,1,m,Mon Mar 10 2025 16:53:09 GMT-0500 (Central Daylight Time),414721.5,1200,O,m,643,7,1,1861.8999999761581,412859.60000002384,7048,NTS,C,13
3,13,test,1,B,triangle.png,1,z,Mon Mar 10 2025 16:53:09 GMT-0500 (Central Daylight Time),417321.6999999881,2000,O,z,576,11,1,2595.0,414726.6999999881,7048,NTS,C,14
6,14,test,1,B,triangle.png,1,m,Mon Mar 10 2025 16:53:09 GMT-0500 (Central Daylight Time),419155.5,1000,O,m,802,5,1,1829.699999988079,417325.8000000119,7048,NTS,C,15
1,15,test,1,B,triangle.png,1,z,Mon Mar 10 2025 16:53:09 GMT-0500 (Central Daylight Time),421852.10000002384,1900,O,z,773,1,1,2693.100000023842,419159.0,7048,NTS,C,16
8,16,test,1,B,triangle.png,1,m,Mon Mar 10 2025 16:53:09 GMT-0500 (Central Daylight Time),423717.39999997616,1200,O,m,646,7,1,1861.3999999761581,421856.0,7048,NTS,C,17
6,17,test,1,B,triangle.png,1,m,Mon Mar 10 2025 16:53:09 GMT-0500 (Central Daylight Time),425386.8000000119,1000,O,m,649,5,1,1666.9000000357628,423719.89999997616,7048,NTS,C,18
4,18,test,1,B,triangle.png,1,m,Mon Mar 10 2025 16:53:09 GMT-0500 (Central Daylight Time),427502.5,1500,O,m,591,4,1,2109.899999976158,425392.60000002384,7048,NTS,C,19
3,19,test,1,B,triangle.png,1,z,Mon Mar 10 2025 16:53:09 GMT-0500 (Central Daylight Time),430133.6999999881,2000,O,z,606,11,1,2627.199999988079,427506.5,7048,NTS,C,20
2,20,test,1,B,triangle.png,1,m,Mon Mar 10 2025 16:53:09 GMT-0500 (Central Daylight Time),433049.60000002384,1700,O,m,1186,2,1,2912.100000023842,430137.5,7048,NTS,C,21
9,21,test,1,B,triangle.png,1,z,Mon Mar 10 2025 16:53:09 GMT-0500 (Central Daylight Time),436464.5,1900,O,z,1485,16,1,3410.899999976158,433053.60000002384,7048,NTS,C,22
8,22,test,1,B,triangle.png,1,m,Mon Mar 10 2025 16:53:09 GMT-0500 (Central Daylight Time),439230.3000000119,1700,O,m,1039,15,1,2762.0,436468.3000000119,7048,NTS,C,23
2,23,test,1,B,triangle.png,1,m,Mon Mar 10 2025 16:53:09 GMT-0500 (Central Daylight Time),441863.39999997616,1200,O,m,1414,10,1,2628.699999988079,439234.6999999881,7048,NTS,C,24
3,0,prac,1,C,triangle.png,0,z,Mon Mar 10 2025 16:53:09 GMT-0500 (Central Daylight Time),515875.0,1500,O,None,1513,3,1,3779.100000023842,512095.89999997616,7048,NTS,C,1
3,1,prac,1,C,triangle.png,1,z,Mon Mar 10 2025 16:53:09 GMT-0500 (Central Daylight Time),518941.0,1500,O,z,797,3,1,3060.800000011921,515880.1999999881,7048,NTS,C,2
4,1,prac,1,C,circle.png,0,z,Mon Mar 10 2025 16:53:09 GMT-0500 (Central Daylight Time),521822.60000002384,1000,O,m,1111,4,1,2876.100000023842,518946.5,7048,NTS,C,3
9,1,prac,1,C,circle.png,0,m,Mon Mar 10 2025 16:53:09 GMT-0500 (Central Daylight Time),526022.0,1900,O,None,1517,8,1,4192.300000011921,521829.6999999881,7048,NTS,C,4
1,1,prac,1,C,circle.png,0,z,Mon Mar 10 2025 16:53:09 GMT-0500 (Central Daylight Time),530019.5,1700,O,None,1514,1,1,3989.699999988079,526029.8000000119,7048,NTS,C,5
4,1,prac,1,C,circle.png,0,z,Mon Mar 10 2025 16:53:09 GMT-0500 (Central Daylight Time),533185.5,1000,O,m,1377,4,1,3159.5,530026.0,7048,NTS,C,6
7,1,prac,1,C,triangle.png,0,z,Mon Mar 10 2025 16:53:09 GMT-0500 (Central Daylight Time),536684.1999999881,1200,O,None,1515,6,1,3491.5,533192.6999999881,7048,NTS,C,7
6,1,prac,1,C,circle.png,0,m,Mon Mar 10 2025 16:53:09 GMT-0500 (Central Daylight Time),540247.8000000119,2000,O,z,777,5,1,3554.400000035763,536693.3999999762,7048,NTS,C,8
8,2,prac,1,C,triangle.png,1,m,Mon Mar 10 2025 16:53:09 GMT-0500 (Central Daylight Time),543133.1000000238,1400,O,m,706,7,1,2879.800000011921,540253.3000000119,7048,NTS,C,9
1,3,prac,1,C,circle.png,1,z,Mon Mar 10 2025 16:53:09 GMT-0500 (Central Daylight Time),546963.8000000119,1700,O,z,1336,1,1,3824.199999988079,543139.6000000238,7048,NTS,C,10
9,3,prac,1,C,circle.png,0,m,Mon Mar 10 2025 16:53:09 GMT-0500 (Central Daylight Time),551145.5,1900,O,None,1501,8,1,4172.899999976158,546972.6000000238,7048,NTS,C,11
2,4,prac,1,C,triangle.png,1,m,Mon Mar 10 2025 16:53:09 GMT-0500 (Central Daylight Time),554711.3000000119,1600,O,m,1179,2,1,3560.100000023842,551151.1999999881,7048,NTS,C,12
7,0,prac,2,C,triangle.png,0,z,Mon Mar 10 2025 16:53:09 GMT-0500 (Central Daylight Time),567357.6000000238,1200,O,None,1514,6,1,3478.0,563879.6000000238,7048,NTS,C,1
2,1,prac,2,C,triangle.png,1,m,Mon Mar 10 2025 16:53:09 GMT-0500 (Central Daylight Time),570889.8000000119,1600,O,m,1134,2,1,3527.0,567362.8000000119,7048,NTS,C,2
4,1,prac,2,C,circle.png,0,z,Mon Mar 10 2025 16:53:09 GMT-0500 (Central Daylight Time),574188.5,1000,O,None,1516,4,1,3293.300000011921,570895.1999999881,7048,NTS,C,3
3,2,prac,2,C,triangle.png,1,z,Mon Mar 10 2025 16:53:09 GMT-0500 (Central Daylight Time),577770.6000000238,1500,O,z,1293,3,1,3576.400000035763,574194.1999999881,7048,NTS,C,4
4,3,prac,2,C,circle.png,1,z,Mon Mar 10 2025 16:53:09 GMT-0500 (Central Daylight Time),580686.8000000119,1000,O,z,1132,4,1,2910.300000011921,577776.5,7048,NTS,C,5
6,4,prac,2,C,circle.png,1,m,Mon Mar 10 2025 16:53:09 GMT-0500 (Central Daylight Time),584551.8999999762,2000,O,m,1068,5,1,3859.699999988079,580692.1999999881,7048,NTS,C,6
8,5,prac,2,C,triangle.png,1,m,Mon Mar 10 2025 16:53:09 GMT-0500 (Central Daylight Time),588033.8000000119,1400,O,m,1291,7,1,3475.5,584558.3000000119,7048,NTS,C,7
8,5,prac,2,C,triangle.png,0,m,Mon Mar 10 2025 16:53:09 GMT-0500 (Central Daylight Time),591483.8000000119,1400,O,z,1259,7,1,3439.400000035763,588044.3999999762,7048,NTS,C,8
9,6,prac,2,C,circle.png,1,m,Mon Mar 10 2025 16:53:09 GMT-0500 (Central Daylight Time),595598.8000000119,1900,O,m,1429,8,1,4108.300000011921,591490.5,7048,NTS,C,9
6,7,prac,2,C,circle.png,1,m,Mon Mar 10 2025 16:53:09 GMT-0500 (Central Daylight Time),599830.3000000119,2000,O,m,1461,5,1,4223.900000035763,595606.3999999762,7048,NTS,C,10
2,7,prac,2,C,triangle.png,0,m,Mon Mar 10 2025 16:53:09 GMT-0500 (Central Daylight Time),603529.3000000119,1600,O,z,1299,2,1,3690.100000023842,599839.1999999881,7048,NTS,C,11
1,8,prac,2,C,circle.png,1,z,Mon Mar 10 2025 16:53:09 GMT-0500 (Central Daylight Time),607195.5,1700,O,z,1190,1,1,3659.699999988079,603535.8000000119,7048,NTS,C,12
4,0,test,1,C,circle.png,0,z,Mon Mar 10 2025 16:53:09 GMT-0500 (Central Daylight Time),623273.1000000238,1400,O,m,1221,4,1,2644.600000023842,620628.5,7048,NTS,C,1
2,0,test,1,C,triangle.png,0,m,Mon Mar 10 2025 16:53:09 GMT-0500 (Central Daylight Time),626606.8000000119,2000,O,z,1314,2,1,3327.600000023842,623279.1999999881,7048,NTS,C,2
8,0,test,1,C,circle.png,0,m,Mon Mar 10 2025 16:53:09 GMT-0500 (Central Daylight Time),629337.0,1200,O,None,1513,15,1,2722.0,626615.0,7048,NTS,C,3
9,0,test,1,C,circle.png,0,m,Mon Mar 10 2025 16:53:09 GMT-0500 (Central Daylight Time),632368.3999999762,1500,O,None,1513,8,1,3023.099999964237,629345.3000000119,7048,NTS,C,4
3,1,test,1,C,triangle.png,1,z,Mon Mar 10 2025 16:53:09 GMT-0500 (Central Daylight Time),634921.0,1200,O,z,1333,3,1,2548.899999976158,632372.1000000238,7048,NTS,C,5
2,2,test,1,C,circle.png,1,z,Mon Mar 10 2025 16:53:09 GMT-0500 (Central Daylight Time),638035.3999999762,1700,O,z,1385,10,1,3104.399999976158,634931.0,7048,NTS,C,6
8,2,test,1,C,triangle.png,0,m,Mon Mar 10 2025 16:53:09 GMT-0500 (Central Daylight Time),641167.8000000119,1600,O,None,1515,7,1,3124.400000035763,638043.3999999762,7048,NTS,C,7
9,2,test,1,C,circle.png,0,m,Mon Mar 10 2025 16:53:09 GMT-0500 (Central Daylight Time),644183.6999999881,1500,O,None,1501,24,1,3007.099999964237,641176.6000000238,7048,NTS,C,8
2,3,test,1,C,circle.png,1,z,Mon Mar 10 2025 16:53:09 GMT-0500 (Central Daylight Time),647264.6000000238,1700,O,z,1351,18,1,3074.5,644190.1000000238,7048,NTS,C,9
1,4,test,1,C,circle.png,1,z,Mon Mar 10 2025 16:53:09 GMT-0500 (Central Daylight Time),649398.6999999881,1000,O,z,1116,1,1,2129.0,647269.6999999881,7048,NTS,C,10
9,4,test,1,C,triangle.png,0,z,Mon Mar 10 2025 16:53:09 GMT-0500 (Central Daylight Time),652146.6000000238,1400,O,m,1325,16,1,2742.7000000476837,649403.8999999762,7048,NTS,C,11
6,5,test,1,C,circle.png,1,m,Mon Mar 10 2025 16:53:09 GMT-0500 (Central Daylight Time),655495.1999999881,1900,O,m,1428,21,1,3343.699999988079,652151.5,7048,NTS,C,12
7,6,test,1,C,circle.png,1,m,Mon Mar 10 2025 16:53:09 GMT-0500 (Central Daylight Time),658645.8999999762,2000,O,m,1134,14,1,3143.099999964237,655502.8000000119,7048,NTS,C,13
8,7,test,1,C,triangle.png,1,m,Mon Mar 10 2025 16:53:09 GMT-0500 (Central Daylight Time),661477.3999999762,1600,O,m,1215,23,1,2827.0,658650.3999999762,7048,NTS,C,14
7,8,test,1,C,triangle.png,1,z,Mon Mar 10 2025 16:53:09 GMT-0500 (Central Daylight Time),664359.8000000119,1700,O,z,1153,6,1,2878.199999988079,661481.6000000238,7048,NTS,C,15
4,8,test,1,C,triangle.png,0,m,Mon Mar 10 2025 16:53:09 GMT-0500 (Central Daylight Time),666876.0,1500,O,z,983,12,1,2511.399999976158,664364.6000000238,7048,NTS,C,16
7,9,test,1,C,triangle.png,1,z,Mon Mar 10 2025 16:53:09 GMT-0500 (Central Daylight Time),669925.8000000119,1700,O,z,1316,22,1,3044.600000023842,666881.1999999881,7048,NTS,C,17
6,10,test,1,C,triangle.png,1,m,Mon Mar 10 2025 16:53:09 GMT-0500 (Central Daylight Time),671839.3000000119,1000,O,m,887,13,1,1909.699999988079,669929.6000000238,7048,NTS,C,18
1,10,test,1,C,triangle.png,0,z,Mon Mar 10 2025 16:53:09 GMT-0500 (Central Daylight Time),675273.8999999762,1900,O,None,1516,17,1,3428.0,671845.8999999762,7048,NTS,C,19
3,10,test,1,C,circle.png,0,z,Mon Mar 10 2025 16:53:09 GMT-0500 (Central Daylight Time),678406.0,1600,O,None,1516,11,1,3122.199999988079,675283.8000000119,7048,NTS,C,20
1,11,test,1,C,triangle.png,1,z,Mon Mar 10 2025 16:53:09 GMT-0500 (Central Daylight Time),681804.1000000238,1900,O,z,1466,9,1,3393.5,678410.6000000238,7048,NTS,C,21
3,12,test,1,C,circle.png,1,z,Mon Mar 10 2025 16:53:09 GMT-0500 (Central Daylight Time),684585.1000000238,1600,O,z,1151,19,1,2775.7000000476837,681809.3999999762,7048,NTS,C,22
6,13,test,1,C,circle.png,1,m,Mon Mar 10 2025 16:53:09 GMT-0500 (Central Daylight Time),687519.1999999881,1900,O,m,1014,5,1,2929.099999964237,684590.1000000238,7048,NTS,C,23
4,14,test,1,C,triangle.png,1,m,Mon Mar 10 2025 16:53:09 GMT-0500 (Central Daylight Time),690168.1000000238,1500,O,m,1122,20,1,2644.300000011921,687523.8000000119,7048,NTS,C,24
4,1,test,2,C,triangle.png,1,m,Mon Mar 10 2025 16:53:09 GMT-0500 (Central Daylight Time),701464.3999999762,1500,O,m,1437,20,1,2961.199999988079,698503.1999999881,7048,NTS,C,1
1,1,test,2,C,triangle.png,0,z,Mon Mar 10 2025 16:53:09 GMT-0500 (Central Daylight Time),704896.8999999762,1900,O,None,1515,17,1,3427.099999964237,701469.8000000119,7048,NTS,C,2
9,2,test,2,C,triangle.png,1,z,Mon Mar 10 2025 16:53:09 GMT-0500 (Central Daylight Time),707747.1000000238,1400,O,z,1418,16,1,2846.100000023842,704901.0,7048,NTS,C,3
7,3,test,2,C,circle.png,1,m,Mon Mar 10 2025 16:53:09 GMT-0500 (Central Daylight Time),710961.6999999881,2000,O,m,1196,22,1,3210.199999988079,707751.5,7048,NTS,C,4
2,3,test,2,C,circle.png,0,z,Mon Mar 10 2025 16:53:09 GMT-0500 (Central Daylight Time),714195.3999999762,1700,O,None,1517,10,1,3229.0,710966.3999999762,7048,NTS,C,5
2,4,test,2,C,triangle.png,1,m,Mon Mar 10 2025 16:53:09 GMT-0500 (Central Daylight Time),717208.8000000119,2000,O,m,987,2,1,3009.400000035763,714199.3999999762,7048,NTS,C,6
6,5,test,2,C,triangle.png,1,m,Mon Mar 10 2025 16:53:09 GMT-0500 (Central Daylight Time),719143.6000000238,1000,O,m,917,13,1,1930.800000011921,717212.8000000119,7048,NTS,C,7
3,6,test,2,C,circle.png,1,z,Mon Mar 10 2025 16:53:09 GMT-0500 (Central Daylight Time),721974.0,1600,O,z,1213,11,1,2826.399999976158,719147.6000000238,7048,NTS,C,8
4,7,test,2,C,triangle.png,1,m,Mon Mar 10 2025 16:53:09 GMT-0500 (Central Daylight Time),724672.8999999762,1500,O,m,1178,12,1,2692.5,721980.3999999762,7048,NTS,C,9
2,8,test,2,C,circle.png,1,z,Mon Mar 10 2025 16:53:09 GMT-0500 (Central Daylight Time),727739.5,1700,O,z,1334,18,1,3062.899999976158,724676.6000000238,7048,NTS,C,10
7,8,test,2,C,circle.png,0,m,Mon Mar 10 2025 16:53:09 GMT-0500 (Central Daylight Time),731156.1000000238,2000,O,z,1393,14,1,3411.100000023842,727745.0,7048,NTS,C,11
8,9,test,2,C,triangle.png,1,m,Mon Mar 10 2025 16:53:09 GMT-0500 (Central Daylight Time),734019.6000000238,1600,O,m,1240,7,1,2859.300000011921,731160.3000000119,7048,NTS,C,12
1,10,test,2,C,circle.png,1,z,Mon Mar 10 2025 16:53:09 GMT-0500 (Central Daylight Time),736136.8000000119,1000,O,z,1087,1,1,2111.300000011921,734025.5,7048,NTS,C,13
6,11,test,2,C,triangle.png,1,m,Mon Mar 10 2025 16:53:09 GMT-0500 (Central Daylight Time),738037.1000000238,1000,O,m,866,21,1,1895.4000000357628,736141.6999999881,7048,NTS,C,14
3,12,test,2,C,circle.png,1,z,Mon Mar 10 2025 16:53:09 GMT-0500 (Central Daylight Time),740785.8000000119,1600,O,z,1120,19,1,2742.900000035763,738042.8999999762,7048,NTS,C,15
3,13,test,2,C,triangle.png,1,z,Mon Mar 10 2025 16:53:09 GMT-0500 (Central Daylight Time),743102.1999999881,1200,O,z,1100,3,1,2310.899999976158,740791.3000000119,7048,NTS,C,16
1,14,test,2,C,triangle.png,1,z,Mon Mar 10 2025 16:53:09 GMT-0500 (Central Daylight Time),745900.5,1900,O,z,866,9,1,2794.0,743106.5,7048,NTS,C,17
7,14,test,2,C,triangle.png,0,z,Mon Mar 10 2025 16:53:09 GMT-0500 (Central Daylight Time),748484.1999999881,1700,O,m,858,6,1,2578.399999976158,745905.8000000119,7048,NTS,C,18
4,15,test,2,C,circle.png,1,z,Mon Mar 10 2025 16:53:09 GMT-0500 (Central Daylight Time),751333.1999999881,1400,O,z,1416,4,1,2844.599999964237,748488.6000000238,7048,NTS,C,19
8,16,test,2,C,circle.png,1,m,Mon Mar 10 2025 16:53:09 GMT-0500 (Central Daylight Time),753632.8000000119,1200,O,m,1071,15,1,2294.300000011921,751338.5,7048,NTS,C,20
9,17,test,2,C,triangle.png,1,z,Mon Mar 10 2025 16:53:09 GMT-0500 (Central Daylight Time),756313.8999999762,1400,O,z,1262,24,1,2677.099999964237,753636.8000000119,7048,NTS,C,21
9,17,test,2,C,circle.png,0,m,Mon Mar 10 2025 16:53:09 GMT-0500 (Central Daylight Time),759346.6999999881,1500,O,None,1516,8,1,3027.800000011921,756318.8999999762,7048,NTS,C,22
8,18,test,2,C,circle.png,1,m,Mon Mar 10 2025 16:53:09 GMT-0500 (Central Daylight Time),761795.3999999762,1200,O,m,1218,23,1,2442.099999964237,759353.3000000119,7048,NTS,C,23
6,19,test,2,C,circle.png,1,m,Mon Mar 10 2025 16:53:09 GMT-0500 (Central Daylight Time),764862.1999999881,1900,O,m,1149,5,1,3059.800000011921,761802.3999999762,7048,NTS,C,24
1,1,test,3,C,circle.png,1,z,Mon Mar 10 2025 16:53:09 GMT-0500 (Central Daylight Time),770159.5,1000,O,z,1383,1,1,2411.5,767748.0,7048,NTS,C,1
4,2,test,3,C,circle.png,1,z,Mon Mar 10 2025 16:53:09 GMT-0500 (Central Daylight Time),772824.6999999881,1400,O,z,1246,20,1,2658.800000011921,770165.8999999762,7048,NTS,C,2
6,3,test,3,C,circle.png,1,m,Mon Mar 10 2025 16:53:09 GMT-0500 (Central Daylight Time),775889.1000000238,1900,O,m,1133,5,1,3058.5,772830.6000000238,7048,NTS,C,3
6,4,test,3,C,circle.png,1,m,Mon Mar 10 2025 16:53:09 GMT-0500 (Central Daylight Time),778724.1000000238,1900,O,m,900,21,1,2830.400000035763,775893.6999999881,7048,NTS,C,4
3,5,test,3,C,circle.png,1,z,Mon Mar 10 2025 16:53:09 GMT-0500 (Central Daylight Time),781722.1999999881,1600,O,z,1368,11,1,2994.699999988079,778727.5,7048,NTS,C,5
9,6,test,3,C,circle.png,1,m,Mon Mar 10 2025 16:53:09 GMT-0500 (Central Daylight Time),784390.1000000238,1500,O,m,1134,8,1,2662.900000035763,781727.1999999881,7048,NTS,C,6
2,7,test,3,C,triangle.png,1,m,Mon Mar 10 2025 16:53:09 GMT-0500 (Central Daylight Time),787870.6000000238,2000,O,m,1454,18,1,3474.900000035763,784395.6999999881,7048,NTS,C,7
6,8,test,3,C,triangle.png,1,m,Mon Mar 10 2025 16:53:09 GMT-0500 (Central Daylight Time),789670.1000000238,1000,O,m,779,13,1,1795.4000000357628,787874.6999999881,7048,NTS,C,8
1,9,test,3,C,triangle.png,1,z,Mon Mar 10 2025 16:53:09 GMT-0500 (Central Daylight Time),792285.3000000119,1900,O,z,698,9,1,2608.5,789676.8000000119,7048,NTS,C,9
7,10,test,3,C,triangle.png,1,z,Mon Mar 10 2025 16:53:09 GMT-0500 (Central Daylight Time),795234.5,1700,O,z,1226,22,1,2942.600000023842,792291.8999999762,7048,NTS,C,10
4,11,test,3,C,triangle.png,1,m,Mon Mar 10 2025 16:53:09 GMT-0500 (Central Daylight Time),797884.0,1500,O,m,1125,12,1,2644.800000011921,795239.1999999881,7048,NTS,C,11
3,12,test,3,C,triangle.png,1,z,Mon Mar 10 2025 16:53:09 GMT-0500 (Central Daylight Time),800182.8999999762,1200,O,z,1073,19,1,2294.7999999523163,797888.1000000238,7048,NTS,C,12
2,13,test,3,C,triangle.png,1,m,Mon Mar 10 2025 16:53:09 GMT-0500 (Central Daylight Time),803199.1999999881,2000,O,m,989,2,1,3011.599999964237,800187.6000000238,7048,NTS,C,13
4,14,test,3,C,circle.png,1,z,Mon Mar 10 2025 16:53:09 GMT-0500 (Central Daylight Time),806081.1000000238,1400,O,z,1452,4,1,2876.800000011921,803204.3000000119,7048,NTS,C,14
8,15,test,3,C,triangle.png,1,m,Mon Mar 10 2025 16:53:09 GMT-0500 (Central Daylight Time),809112.6999999881,1600,O,m,1410,7,1,3027.300000011921,806085.3999999762,7048,NTS,C,15
8,16,test,3,C,circle.png,1,m,Mon Mar 10 2025 16:53:09 GMT-0500 (Central Daylight Time),811663.6000000238,1200,O,m,1330,15,1,2546.900000035763,809116.6999999881,7048,NTS,C,16
3,17,test,3,C,triangle.png,1,z,Mon Mar 10 2025 16:53:09 GMT-0500 (Central Daylight Time),813912.1000000238,1200,O,z,1021,3,1,2243.900000035763,811668.1999999881,7048,NTS,C,17
1,18,test,3,C,circle.png,1,z,Mon Mar 10 2025 16:53:09 GMT-0500 (Central Daylight Time),816010.6999999881,1000,O,z,1075,17,1,2093.800000011921,813916.8999999762,7048,NTS,C,18
9,19,test,3,C,circle.png,1,m,Mon Mar 10 2025 16:53:09 GMT-0500 (Central Daylight Time),818593.6999999881,1500,O,m,1053,24,1,2579.300000011921,816014.3999999762,7048,NTS,C,19
2,20,test,3,C,circle.png,1,z,Mon Mar 10 2025 16:53:09 GMT-0500 (Central Daylight Time),821443.0,1700,O,z,1118,10,1,2845.0,818598.0,7048,NTS,C,20
7,21,test,3,C,circle.png,1,m,Mon Mar 10 2025 16:53:09 GMT-0500 (Central Daylight Time),824657.8999999762,2000,O,m,1194,14,1,3210.399999976158,821447.5,7048,NTS,C,21
9,21,test,3,C,triangle.png,0,z,Mon Mar 10 2025 16:53:09 GMT-0500 (Central Daylight Time),827591.8000000119,1400,O,None,1516,16,1,2930.0,824661.8000000119,7048,NTS,C,22
8,22,test,3,C,triangle.png,1,m,Mon Mar 10 2025 16:53:09 GMT-0500 (Central Daylight Time),830206.3000000119,1600,O,m,991,23,1,2607.900000035763,827598.3999999762,7048,NTS,C,23
7,22,test,3,C,triangle.png,0,z,Mon Mar 10 2025 16:53:09 GMT-0500 (Central Daylight Time),833438.3999999762,1700,O,None,1514,6,1,3226.599999964237,830211.8000000119,7048,NTS,C,24
9,1,test,4,C,circle.png,1,m,Mon Mar 10 2025 16:53:09 GMT-0500 (Central Daylight Time),839320.3999999762,1500,O,m,1298,24,1,2810.0,836510.3999999762,7048,NTS,C,1
1,2,test,4,C,triangle.png,1,z,Mon Mar 10 2025 16:53:09 GMT-0500 (Central Daylight Time),842318.8999999762,1900,O,z,1081,9,1,2994.099999964237,839324.8000000119,7048,NTS,C,2
6,3,test,4,C,circle.png,1,m,Mon Mar 10 2025 16:53:09 GMT-0500 (Central Daylight Time),845184.5,1900,O,m,944,5,1,2858.399999976158,842326.1000000238,7048,NTS,C,3
4,4,test,4,C,circle.png,1,z,Mon Mar 10 2025 16:53:09 GMT-0500 (Central Daylight Time),847788.1000000238,1400,O,z,1176,20,1,2599.100000023842,845189.0,7048,NTS,C,4
7,5,test,4,C,circle.png,1,m,Mon Mar 10 2025 16:53:09 GMT-0500 (Central Daylight Time),851133.8999999762,2000,O,m,1324,14,1,3343.2999999523163,847790.6000000238,7048,NTS,C,5
8,6,test,4,C,triangle.png,1,m,Mon Mar 10 2025 16:53:09 GMT-0500 (Central Daylight Time),854150.6999999881,1600,O,m,1383,7,1,3011.300000011921,851139.3999999762,7048,NTS,C,6
3,7,test,4,C,circle.png,1,z,Mon Mar 10 2025 16:53:09 GMT-0500 (Central Daylight Time),856598.8999999762,1600,O,z,822,11,1,2443.199999988079,854155.6999999881,7048,NTS,C,7
1,8,test,4,C,circle.png,1,z,Mon Mar 10 2025 16:53:09 GMT-0500 (Central Daylight Time),858731.3999999762,1000,O,z,1102,17,1,2126.5,856604.8999999762,7048,NTS,C,8
2,9,test,4,C,triangle.png,1,m,Mon Mar 10 2025 16:53:09 GMT-0500 (Central Daylight Time),861697.3000000119,2000,O,m,936,18,1,2962.199999988079,858735.1000000238,7048,NTS,C,9
4,10,test,4,C,circle.png,1,z,Mon Mar 10 2025 16:53:09 GMT-0500 (Central Daylight Time),864496.6999999881,1400,O,z,1365,4,1,2794.399999976158,861702.3000000119,7048,NTS,C,10
6,11,test,4,C,triangle.png,1,m,Mon Mar 10 2025 16:53:09 GMT-0500 (Central Daylight Time),866878.5,1000,O,m,1356,13,1,2376.5,864502.0,7048,NTS,C,11
9,12,test,4,C,triangle.png,1,z,Mon Mar 10 2025 16:53:09 GMT-0500 (Central Daylight Time),869577.1999999881,1400,O,z,1277,16,1,2693.5,866883.6999999881,7048,NTS,C,12
2,13,test,4,C,triangle.png,1,m,Mon Mar 10 2025 16:53:09 GMT-0500 (Central Daylight Time),872609.8999999762,2000,O,m,1010,2,1,3028.599999964237,869581.3000000119,7048,NTS,C,13
7,14,test,4,C,triangle.png,1,z,Mon Mar 10 2025 16:53:09 GMT-0500 (Central Daylight Time),875493.3000000119,1700,O,z,1164,22,1,2875.199999988079,872618.1000000238,7048,NTS,C,14
3,15,test,4,C,triangle.png,1,z,Mon Mar 10 2025 16:53:09 GMT-0500 (Central Daylight Time),877607.1999999881,1200,O,z,882,19,1,2109.099999964237,875498.1000000238,7048,NTS,C,15
3,16,test,4,C,triangle.png,1,z,Mon Mar 10 2025 16:53:09 GMT-0500 (Central Daylight Time),879525.1000000238,1200,O,z,692,3,1,1912.800000011921,877612.3000000119,7048,NTS,C,16
8,17,test,4,C,triangle.png,1,m,Mon Mar 10 2025 16:53:09 GMT-0500 (Central Daylight Time),882357.5,1600,O,m,1200,23,1,2828.300000011921,879529.1999999881,7048,NTS,C,17
9,18,test,4,C,circle.png,1,m,Mon Mar 10 2025 16:53:09 GMT-0500 (Central Daylight Time),885040.8000000119,1500,O,m,1168,8,1,2677.900000035763,882362.8999999762,7048,NTS,C,18
2,19,test,4,C,circle.png,1,z,Mon Mar 10 2025 16:53:09 GMT-0500 (Central Daylight Time),888223.8999999762,1700,O,z,1467,10,1,3179.5,885044.3999999762,7048,NTS,C,19
6,20,test,4,C,circle.png,1,m,Mon Mar 10 2025 16:53:09 GMT-0500 (Central Daylight Time),891370.5,1900,O,m,1219,21,1,3140.399999976158,888230.1000000238,7048,NTS,C,20
8,21,test,4,C,circle.png,1,m,Mon Mar 10 2025 16:53:09 GMT-0500 (Central Daylight Time),893436.8000000119,1200,O,m,833,15,1,2060.100000023842,891376.6999999881,7048,NTS,C,21
1,22,test,4,C,circle.png,1,z,Mon Mar 10 2025 16:53:09 GMT-0500 (Central Daylight Time),895487.5,1000,O,z,1033,1,1,2046.3999999761581,893441.1000000238,7048,NTS,C,22
4,23,test,4,C,triangle.png,1,m,Mon Mar 10 2025 16:53:09 GMT-0500 (Central Daylight Time),897951.6999999881,1500,O,m,947,12,1,2458.599999964237,895493.1000000238,7048,NTS,C,23
7,24,test,4,C,triangle.png,1,z,Mon Mar 10 2025 16:53:09 GMT-0500 (Central Daylight Time),900551.1000000238,1700,O,z,871,6,1,2593.300000011921,897957.8000000119,7048,NTS,C,24
