acc_sum,block,block_c,change,condition,correct,correct_response,datetime,endtime,face,project,response,response_time,row_sel,session_number,start_end,starttime,subject_id,task,task_vers,trial
0,prac,1,,1-Back,,,Wed Mar 05 2025 10:20:29 GMT-0600 (Central Standard Time),,093_m_f_n_a.png,O,space,8565,1,1,,,7086,NNB,C,0
1,prac,1,0.0,1-Back,1,m,Wed Mar 05 2025 10:20:29 GMT-0600 (Central Standard Time),131984.29999995232,098_y_f_n_a.png,O,m,906,2,1,1753.2999999523163,130231.0,7086,NNB,C,1
2,prac,1,1.0,1-Back,1,z,Wed Mar 05 2025 10:20:29 GMT-0600 (Central Standard Time),134184.10000002384,098_y_f_n_a.png,O,z,1408,3,1,2190.8000000715256,131993.29999995232,7086,NNB,C,2
3,prac,1,0.0,1-Back,1,m,Wed Mar 05 2025 10:20:29 GMT-0600 (Central Standard Time),136017.5,059_o_m_n_a.png,O,m,958,4,1,1823.3999999761581,134194.10000002384,7086,NNB,C,3
4,prac,1,0.0,1-Back,1,m,Wed Mar 05 2025 10:20:29 GMT-0600 (Central Standard Time),137932.20000004768,092_m_m_n_a.png,O,m,1054,5,1,1907.5,136024.70000004768,7086,NNB,C,4
5,prac,1,1.0,1-Back,1,z,Wed Mar 05 2025 10:20:29 GMT-0600 (Central Standard Time),139281.39999997616,092_m_m_n_a.png,O,z,566,6,1,1341.3999999761581,137940.0,7086,NNB,C,5
6,prac,1,0.0,1-Back,1,m,Wed Mar 05 2025 10:20:29 GMT-0600 (Central Standard Time),141032.60000002384,130_o_f_n_a.png,O,m,867,7,1,1741.3999999761581,139291.20000004768,7086,NNB,C,6
6,prac,1,0.0,1-Back,0,m,Wed Mar 05 2025 10:20:29 GMT-0600 (Central Standard Time),142631.29999995232,082_m_m_n_a.png,O,z,720,8,1,1589.0999999046326,141042.20000004768,7086,NNB,C,7
7,prac,1,0.0,1-Back,1,m,Wed Mar 05 2025 10:20:29 GMT-0600 (Central Standard Time),145131.10000002384,093_m_f_n_a.png,O,m,1628,9,1,2491.0,142640.10000002384,7086,NNB,C,8
8,prac,1,1.0,1-Back,1,z,Wed Mar 05 2025 10:20:29 GMT-0600 (Central Standard Time),146663.79999995232,093_m_f_n_a.png,O,z,750,10,1,1523.7999999523163,145140.0,7086,NNB,C,9
9,prac,1,0.0,1-Back,1,m,Wed Mar 05 2025 10:20:29 GMT-0600 (Central Standard Time),148278.29999995232,059_o_m_n_a.png,O,m,834,11,1,1605.6999999284744,146672.60000002384,7086,NNB,C,10
10,prac,1,0.0,1-Back,1,m,Wed Mar 05 2025 10:20:29 GMT-0600 (Central Standard Time),149912.0,028_y_f_n_a.png,O,m,752,12,1,1622.7999999523163,148289.20000004768,7086,NNB,C,11
0,test,1,0.0,1-Back,,,Wed Mar 05 2025 10:20:29 GMT-0600 (Central Standard Time),149912.0,098_y_f_n_a.png,O,space,7938,1,1,1622.7999999523163,148289.20000004768,7086,NNB,C,0
1,test,1,0.0,1-Back,1,m,Wed Mar 05 2025 10:20:29 GMT-0600 (Central Standard Time),170788.20000004768,006_m_f_n_a.png,O,m,1730,2,1,2748.0,168040.20000004768,7086,NNB,C,1
2,test,1,0.0,1-Back,1,m,Wed Mar 05 2025 10:20:29 GMT-0600 (Central Standard Time),172705.60000002384,028_y_f_n_a.png,O,m,884,3,1,1913.5,170792.10000002384,7086,NNB,C,2
3,test,1,1.0,1-Back,1,z,Wed Mar 05 2025 10:20:29 GMT-0600 (Central Standard Time),174471.29999995232,028_y_f_n_a.png,O,z,736,4,1,1762.0999999046326,172709.20000004768,7086,NNB,C,3
4,test,1,0.0,1-Back,1,m,Wed Mar 05 2025 10:20:29 GMT-0600 (Central Standard Time),176119.70000004768,006_m_f_n_a.png,O,m,625,5,1,1640.4000000953674,174479.29999995232,7086,NNB,C,4
5,test,1,0.0,1-Back,1,m,Wed Mar 05 2025 10:20:29 GMT-0600 (Central Standard Time),177920.20000004768,059_o_m_n_a.png,O,m,767,6,1,1793.3000000715256,176126.89999997616,7086,NNB,C,5
6,test,1,1.0,1-Back,1,z,Wed Mar 05 2025 10:20:29 GMT-0600 (Central Standard Time),179619.79999995232,059_o_m_n_a.png,O,z,672,7,1,1693.2999999523163,177926.5,7086,NNB,C,6
7,test,1,0.0,1-Back,1,m,Wed Mar 05 2025 10:20:29 GMT-0600 (Central Standard Time),181354.0,092_m_m_n_a.png,O,m,717,8,1,1727.1000000238419,179626.89999997616,7086,NNB,C,7
8,test,1,0.0,1-Back,1,m,Wed Mar 05 2025 10:20:29 GMT-0600 (Central Standard Time),183334.79999995232,130_o_f_n_a.png,O,m,951,9,1,1975.5,181359.29999995232,7086,NNB,C,8
9,test,1,0.0,1-Back,1,m,Wed Mar 05 2025 10:20:29 GMT-0600 (Central Standard Time),185283.79999995232,092_m_m_n_a.png,O,m,916,10,1,1940.6999999284744,183343.10000002384,7086,NNB,C,9
10,test,1,0.0,1-Back,1,m,Wed Mar 05 2025 10:20:29 GMT-0600 (Central Standard Time),187085.10000002384,057_y_m_n_a.png,O,m,767,11,1,1794.5,185290.60000002384,7086,NNB,C,10
11,test,1,1.0,1-Back,1,z,Wed Mar 05 2025 10:20:29 GMT-0600 (Central Standard Time),188666.20000004768,057_y_m_n_a.png,O,z,564,12,1,1575.0,187091.20000004768,7086,NNB,C,11
12,test,1,0.0,1-Back,1,m,Wed Mar 05 2025 10:20:29 GMT-0600 (Central Standard Time),190498.29999995232,030_o_f_n_a.png,O,m,805,13,1,1827.1999999284744,188671.10000002384,7086,NNB,C,12
13,test,1,1.0,1-Back,1,z,Wed Mar 05 2025 10:20:29 GMT-0600 (Central Standard Time),192214.5,030_o_f_n_a.png,O,z,695,14,1,1709.8999999761581,190504.60000002384,7086,NNB,C,13
14,test,1,0.0,1-Back,1,m,Wed Mar 05 2025 10:20:29 GMT-0600 (Central Standard Time),194232.79999995232,031_y_m_n_a.png,O,m,985,15,1,2011.1999999284744,192221.60000002384,7086,NNB,C,14
15,test,1,0.0,1-Back,1,m,Wed Mar 05 2025 10:20:29 GMT-0600 (Central Standard Time),195862.70000004768,093_m_f_n_a.png,O,m,609,16,1,1621.3000000715256,194241.39999997616,7086,NNB,C,15
16,test,1,0.0,1-Back,1,m,Wed Mar 05 2025 10:20:29 GMT-0600 (Central Standard Time),197730.70000004768,146_o_m_n_a.png,O,m,840,17,1,1861.0,195869.70000004768,7086,NNB,C,16
17,test,1,0.0,1-Back,1,m,Wed Mar 05 2025 10:20:29 GMT-0600 (Central Standard Time),199546.10000002384,093_m_f_n_a.png,O,m,791,18,1,1807.6000000238419,197738.5,7086,NNB,C,17
0,test,2,0.0,1-Back,,,Wed Mar 05 2025 10:20:29 GMT-0600 (Central Standard Time),199546.10000002384,092_m_m_n_a.png,O,space,3686,1,1,1807.6000000238419,197738.5,7086,NNB,C,0
1,test,2,0.0,1-Back,1,m,Wed Mar 05 2025 10:20:29 GMT-0600 (Central Standard Time),207577.79999995232,006_m_f_n_a.png,O,m,1299,2,1,2308.2999999523163,205269.5,7086,NNB,C,1
2,test,2,1.0,1-Back,1,z,Wed Mar 05 2025 10:20:29 GMT-0600 (Central Standard Time),209608.39999997616,006_m_f_n_a.png,O,z,1006,3,1,2024.6000000238419,207583.79999995232,7086,NNB,C,2
3,test,2,0.0,1-Back,1,m,Wed Mar 05 2025 10:20:29 GMT-0600 (Central Standard Time),211342.20000004768,092_m_m_n_a.png,O,m,704,4,1,1728.2000000476837,209614.0,7086,NNB,C,3
4,test,2,0.0,1-Back,1,m,Wed Mar 05 2025 10:20:29 GMT-0600 (Central Standard Time),213326.70000004768,057_y_m_n_a.png,O,m,960,5,1,1977.1000000238419,211349.60000002384,7086,NNB,C,4
5,test,2,0.0,1-Back,1,m,Wed Mar 05 2025 10:20:29 GMT-0600 (Central Standard Time),215242.0,098_y_f_n_a.png,O,m,901,6,1,1912.2000000476837,213329.79999995232,7086,NNB,C,5
6,test,2,1.0,1-Back,1,z,Wed Mar 05 2025 10:20:29 GMT-0600 (Central Standard Time),216890.39999997616,098_y_f_n_a.png,O,z,622,7,1,1643.2999999523163,215247.10000002384,7086,NNB,C,6
7,test,2,0.0,1-Back,1,m,Wed Mar 05 2025 10:20:29 GMT-0600 (Central Standard Time),218507.0,057_y_m_n_a.png,O,m,591,8,1,1608.7999999523163,216898.20000004768,7086,NNB,C,7
8,test,2,0.0,1-Back,1,m,Wed Mar 05 2025 10:20:29 GMT-0600 (Central Standard Time),220455.0,030_o_f_n_a.png,O,m,918,9,1,1939.5,218515.5,7086,NNB,C,8
9,test,2,0.0,1-Back,1,m,Wed Mar 05 2025 10:20:29 GMT-0600 (Central Standard Time),222157.0,082_m_m_n_a.png,O,m,684,10,1,1695.7000000476837,220461.29999995232,7086,NNB,C,9
10,test,2,1.0,1-Back,1,z,Wed Mar 05 2025 10:20:29 GMT-0600 (Central Standard Time),223854.60000002384,082_m_m_n_a.png,O,z,677,11,1,1690.2000000476837,222164.39999997616,7086,NNB,C,10
11,test,2,0.0,1-Back,1,m,Wed Mar 05 2025 10:20:29 GMT-0600 (Central Standard Time),225504.89999997616,030_o_f_n_a.png,O,m,617,12,1,1643.7999999523163,223861.10000002384,7086,NNB,C,11
12,test,2,0.0,1-Back,1,m,Wed Mar 05 2025 10:20:29 GMT-0600 (Central Standard Time),227220.10000002384,130_o_f_n_a.png,O,m,697,13,1,1707.8000000715256,225512.29999995232,7086,NNB,C,12
13,test,2,0.0,1-Back,1,m,Wed Mar 05 2025 10:20:29 GMT-0600 (Central Standard Time),229105.0,059_o_m_n_a.png,O,m,860,14,1,1876.1000000238419,227228.89999997616,7086,NNB,C,13
14,test,2,0.0,1-Back,1,m,Wed Mar 05 2025 10:20:29 GMT-0600 (Central Standard Time),231268.79999995232,146_o_m_n_a.png,O,m,1138,15,1,2157.0,229111.79999995232,7086,NNB,C,14
15,test,2,1.0,1-Back,1,z,Wed Mar 05 2025 10:20:29 GMT-0600 (Central Standard Time),233018.70000004768,146_o_m_n_a.png,O,z,724,16,1,1743.1000000238419,231275.60000002384,7086,NNB,C,15
16,test,2,0.0,1-Back,1,m,Wed Mar 05 2025 10:20:29 GMT-0600 (Central Standard Time),234834.39999997616,031_y_m_n_a.png,O,m,799,17,1,1807.8999999761581,233026.5,7086,NNB,C,16
17,test,2,1.0,1-Back,1,z,Wed Mar 05 2025 10:20:29 GMT-0600 (Central Standard Time),236600.29999995232,031_y_m_n_a.png,O,z,744,18,1,1761.0999999046326,234839.20000004768,7086,NNB,C,17
0,test,3,1.0,1-Back,,,Wed Mar 05 2025 10:20:29 GMT-0600 (Central Standard Time),236600.29999995232,028_y_f_n_a.png,O,space,1584,1,1,1761.0999999046326,234839.20000004768,7086,NNB,C,0
1,test,3,0.0,1-Back,1,m,Wed Mar 05 2025 10:20:29 GMT-0600 (Central Standard Time),241965.39999997616,146_o_m_n_a.png,O,m,638,1,1,1659.5,240305.89999997616,7086,NNB,C,1
2,test,3,1.0,1-Back,1,z,Wed Mar 05 2025 10:20:29 GMT-0600 (Central Standard Time),243665.10000002384,146_o_m_n_a.png,O,z,675,1,1,1692.3000000715256,241972.79999995232,7086,NNB,C,2
3,test,3,0.0,1-Back,1,m,Wed Mar 05 2025 10:20:29 GMT-0600 (Central Standard Time),245398.0,093_m_f_n_a.png,O,m,702,1,1,1726.7999999523163,243671.20000004768,7086,NNB,C,3
4,test,3,1.0,1-Back,1,z,Wed Mar 05 2025 10:20:29 GMT-0600 (Central Standard Time),247114.60000002384,093_m_f_n_a.png,O,z,700,1,1,1710.2000000476837,245404.39999997616,7086,NNB,C,4
5,test,3,0.0,1-Back,1,m,Wed Mar 05 2025 10:20:29 GMT-0600 (Central Standard Time),248799.20000004768,030_o_f_n_a.png,O,m,668,1,1,1680.1000000238419,247119.10000002384,7086,NNB,C,5
6,test,3,0.0,1-Back,1,m,Wed Mar 05 2025 10:20:29 GMT-0600 (Central Standard Time),250529.39999997616,057_y_m_n_a.png,O,m,709,1,1,1723.1000000238419,248806.29999995232,7086,NNB,C,6
7,test,3,0.0,1-Back,1,m,Wed Mar 05 2025 10:20:29 GMT-0600 (Central Standard Time),252131.10000002384,030_o_f_n_a.png,O,m,568,1,1,1594.1000000238419,250537.0,7086,NNB,C,7
8,test,3,0.0,1-Back,1,m,Wed Mar 05 2025 10:20:29 GMT-0600 (Central Standard Time),253894.39999997616,031_y_m_n_a.png,O,m,743,1,1,1756.7999999523163,252137.60000002384,7086,NNB,C,8
9,test,3,1.0,1-Back,1,z,Wed Mar 05 2025 10:20:29 GMT-0600 (Central Standard Time),255427.60000002384,031_y_m_n_a.png,O,z,506,1,1,1526.6000000238419,253901.0,7086,NNB,C,9
10,test,3,0.0,1-Back,1,m,Wed Mar 05 2025 10:20:29 GMT-0600 (Central Standard Time),257077.89999997616,006_m_f_n_a.png,O,m,620,1,1,1644.6000000238419,255433.29999995232,7086,NNB,C,10
11,test,3,0.0,1-Back,1,m,Wed Mar 05 2025 10:20:29 GMT-0600 (Central Standard Time),258845.0,098_y_f_n_a.png,O,m,738,1,1,1758.7000000476837,257086.29999995232,7086,NNB,C,11
12,test,3,1.0,1-Back,1,z,Wed Mar 05 2025 10:20:29 GMT-0600 (Central Standard Time),260477.29999995232,098_y_f_n_a.png,O,z,613,1,1,1624.5999999046326,258852.70000004768,7086,NNB,C,12
13,test,3,0.0,1-Back,1,m,Wed Mar 05 2025 10:20:29 GMT-0600 (Central Standard Time),262059.70000004768,006_m_f_n_a.png,O,m,556,1,1,1579.7000000476837,260480.0,7086,NNB,C,13
14,test,3,0.0,1-Back,1,m,Wed Mar 05 2025 10:20:29 GMT-0600 (Central Standard Time),263725.10000002384,092_m_m_n_a.png,O,m,637,1,1,1656.8000000715256,262068.29999995232,7086,NNB,C,14
15,test,3,1.0,1-Back,1,z,Wed Mar 05 2025 10:20:29 GMT-0600 (Central Standard Time),265443.5,092_m_m_n_a.png,O,z,685,1,1,1710.8999999761581,263732.60000002384,7086,NNB,C,15
16,test,3,0.0,1-Back,1,m,Wed Mar 05 2025 10:20:29 GMT-0600 (Central Standard Time),267090.89999997616,130_o_f_n_a.png,O,m,631,1,1,1640.6000000238419,265450.2999999523,7086,NNB,C,16
17,test,3,1.0,1-Back,1,z,Wed Mar 05 2025 10:20:29 GMT-0600 (Central Standard Time),268856.89999997616,130_o_f_n_a.png,O,z,741,1,1,1758.2999999523163,267098.60000002384,7086,NNB,C,17
0,test,4,1.0,1-Back,,,Wed Mar 05 2025 10:20:29 GMT-0600 (Central Standard Time),268856.89999997616,093_m_f_n_a.png,O,space,1720,1,1,1758.2999999523163,267098.60000002384,7086,NNB,C,0
1,test,4,0.0,1-Back,1,m,Wed Mar 05 2025 10:20:29 GMT-0600 (Central Standard Time),274539.39999997616,146_o_m_n_a.png,O,m,833,2,1,1841.1999999284744,272698.2000000477,7086,NNB,C,1
2,test,4,0.0,1-Back,1,m,Wed Mar 05 2025 10:20:29 GMT-0600 (Central Standard Time),276254.5,093_m_f_n_a.png,O,m,693,3,1,1708.2999999523163,274546.2000000477,7086,NNB,C,2
3,test,4,0.0,1-Back,1,m,Wed Mar 05 2025 10:20:29 GMT-0600 (Central Standard Time),277971.60000002384,030_o_f_n_a.png,O,m,688,4,1,1709.7000000476837,276261.89999997616,7086,NNB,C,3
4,test,4,1.0,1-Back,1,z,Wed Mar 05 2025 10:20:29 GMT-0600 (Central Standard Time),279669.7999999523,030_o_f_n_a.png,O,z,669,5,1,1693.5999999046326,277976.2000000477,7086,NNB,C,4
5,test,4,0.0,1-Back,1,m,Wed Mar 05 2025 10:20:29 GMT-0600 (Central Standard Time),281269.5,098_y_f_n_a.png,O,m,570,6,1,1591.7000000476837,279677.7999999523,7086,NNB,C,5
6,test,4,0.0,1-Back,1,m,Wed Mar 05 2025 10:20:29 GMT-0600 (Central Standard Time),282902.7999999523,057_y_m_n_a.png,O,m,612,7,1,1625.6999999284744,281277.10000002384,7086,NNB,C,6
7,test,4,1.0,1-Back,1,z,Wed Mar 05 2025 10:20:29 GMT-0600 (Central Standard Time),284568.2999999523,057_y_m_n_a.png,O,z,641,8,1,1658.0999999046326,282910.2000000477,7086,NNB,C,7
8,test,4,0.0,1-Back,1,m,Wed Mar 05 2025 10:20:29 GMT-0600 (Central Standard Time),286267.2999999523,098_y_f_n_a.png,O,m,672,9,1,1692.0,284575.2999999523,7086,NNB,C,8
9,test,4,0.0,1-Back,1,m,Wed Mar 05 2025 10:20:29 GMT-0600 (Central Standard Time),288035.5,082_m_m_n_a.png,O,m,749,10,1,1761.2000000476837,286274.2999999523,7086,NNB,C,9
10,test,4,1.0,1-Back,1,z,Wed Mar 05 2025 10:20:29 GMT-0600 (Central Standard Time),289883.10000002384,082_m_m_n_a.png,O,z,831,11,1,1840.8000000715256,288042.2999999523,7086,NNB,C,10
11,test,4,0.0,1-Back,1,m,Wed Mar 05 2025 10:20:29 GMT-0600 (Central Standard Time),291483.7999999523,130_o_f_n_a.png,O,m,582,12,1,1597.8999999761581,289885.89999997616,7086,NNB,C,11
12,test,4,0.0,1-Back,1,m,Wed Mar 05 2025 10:20:29 GMT-0600 (Central Standard Time),293132.5,059_o_m_n_a.png,O,m,629,13,1,1641.2000000476837,291491.2999999523,7086,NNB,C,12
13,test,4,0.0,1-Back,1,m,Wed Mar 05 2025 10:20:29 GMT-0600 (Central Standard Time),294932.2000000477,130_o_f_n_a.png,O,m,769,14,1,1792.4000000953674,293139.7999999523,7086,NNB,C,13
14,test,4,0.0,1-Back,1,m,Wed Mar 05 2025 10:20:29 GMT-0600 (Central Standard Time),297082.5,028_y_f_n_a.png,O,m,1133,15,1,2144.5,294938.0,7086,NNB,C,14
15,test,4,1.0,1-Back,1,z,Wed Mar 05 2025 10:20:29 GMT-0600 (Central Standard Time),298631.2999999523,028_y_f_n_a.png,O,z,527,16,1,1544.3999999761581,297086.89999997616,7086,NNB,C,15
16,test,4,0.0,1-Back,1,m,Wed Mar 05 2025 10:20:29 GMT-0600 (Central Standard Time),301298.60000002384,006_m_f_n_a.png,O,m,1649,17,1,2660.5,298638.10000002384,7086,NNB,C,16
17,test,4,1.0,1-Back,1,z,Wed Mar 05 2025 10:20:29 GMT-0600 (Central Standard Time),303379.2000000477,006_m_f_n_a.png,O,z,1065,18,1,2072.7000000476837,301306.5,7086,NNB,C,17
0,test,5,1.0,1-Back,,,Wed Mar 05 2025 10:20:29 GMT-0600 (Central Standard Time),303379.2000000477,059_o_m_n_a.png,O,space,1341,1,1,2072.7000000476837,301306.5,7086,NNB,C,0
1,test,5,1.0,1-Back,1,z,Wed Mar 05 2025 10:20:29 GMT-0600 (Central Standard Time),308528.2000000477,059_o_m_n_a.png,O,z,754,2,1,1776.1000000238419,306752.10000002384,7086,NNB,C,1
2,test,5,0.0,1-Back,1,m,Wed Mar 05 2025 10:20:29 GMT-0600 (Central Standard Time),310143.10000002384,098_y_f_n_a.png,O,m,592,3,1,1607.1000000238419,308536.0,7086,NNB,C,2
3,test,5,0.0,1-Back,1,m,Wed Mar 05 2025 10:20:29 GMT-0600 (Central Standard Time),311993.7000000477,057_y_m_n_a.png,O,m,825,4,1,1844.6000000238419,310149.10000002384,7086,NNB,C,3
4,test,5,0.0,1-Back,1,m,Wed Mar 05 2025 10:20:29 GMT-0600 (Central Standard Time),313608.89999997616,098_y_f_n_a.png,O,m,584,5,1,1610.6000000238419,311998.2999999523,7086,NNB,C,4
5,test,5,0.0,1-Back,1,m,Wed Mar 05 2025 10:20:29 GMT-0600 (Central Standard Time),315259.7999999523,092_m_m_n_a.png,O,m,622,6,1,1641.5999999046326,313618.2000000477,7086,NNB,C,5
6,test,5,1.0,1-Back,1,z,Wed Mar 05 2025 10:20:29 GMT-0600 (Central Standard Time),317058.2999999523,092_m_m_n_a.png,O,z,772,7,1,1791.5999999046326,315266.7000000477,7086,NNB,C,6
7,test,5,0.0,1-Back,1,m,Wed Mar 05 2025 10:20:29 GMT-0600 (Central Standard Time),318740.7000000477,028_y_f_n_a.png,O,m,653,8,1,1676.0,317064.7000000477,7086,NNB,C,7
8,test,5,0.0,1-Back,1,m,Wed Mar 05 2025 10:20:29 GMT-0600 (Central Standard Time),320924.0,031_y_m_n_a.png,O,m,1165,9,1,2177.5,318746.5,7086,NNB,C,8
9,test,5,0.0,1-Back,1,m,Wed Mar 05 2025 10:20:29 GMT-0600 (Central Standard Time),322840.2000000477,028_y_f_n_a.png,O,m,892,10,1,1908.5,320931.7000000477,7086,NNB,C,9
10,test,5,0.0,1-Back,1,m,Wed Mar 05 2025 10:20:29 GMT-0600 (Central Standard Time),324623.0,130_o_f_n_a.png,O,m,759,11,1,1775.7000000476837,322847.2999999523,7086,NNB,C,10
11,test,5,1.0,1-Back,1,z,Wed Mar 05 2025 10:20:29 GMT-0600 (Central Standard Time),326307.5,130_o_f_n_a.png,O,z,667,12,1,1677.5,324630.0,7086,NNB,C,11
12,test,5,0.0,1-Back,1,m,Wed Mar 05 2025 10:20:29 GMT-0600 (Central Standard Time),327971.5,146_o_m_n_a.png,O,m,631,13,1,1658.1000000238419,326313.39999997616,7086,NNB,C,12
13,test,5,0.0,1-Back,1,m,Wed Mar 05 2025 10:20:29 GMT-0600 (Central Standard Time),329688.5,093_m_f_n_a.png,O,m,685,14,1,1710.6000000238419,327977.89999997616,7086,NNB,C,13
14,test,5,1.0,1-Back,1,z,Wed Mar 05 2025 10:20:29 GMT-0600 (Central Standard Time),331338.0,093_m_f_n_a.png,O,z,631,15,1,1643.0,329695.0,7086,NNB,C,14
15,test,5,0.0,1-Back,1,m,Wed Mar 05 2025 10:20:29 GMT-0600 (Central Standard Time),332938.10000002384,146_o_m_n_a.png,O,m,583,16,1,1596.6000000238419,331341.5,7086,NNB,C,15
16,test,5,0.0,1-Back,1,m,Wed Mar 05 2025 10:20:29 GMT-0600 (Central Standard Time),334619.2000000477,006_m_f_n_a.png,O,m,662,17,1,1673.7000000476837,332945.5,7086,NNB,C,16
17,test,5,0.0,1-Back,1,m,Wed Mar 05 2025 10:20:29 GMT-0600 (Central Standard Time),336518.2000000477,082_m_m_n_a.png,O,m,868,18,1,1892.2000000476837,334626.0,7086,NNB,C,17
0,prac,1,0.0,2-Back,,,Wed Mar 05 2025 10:20:29 GMT-0600 (Central Standard Time),336518.2000000477,031_y_m_n_a.png,O,space,5343,1,1,1892.2000000476837,334626.0,7086,NNB,C,0
0,prac,1,0.0,2-Back,,,Wed Mar 05 2025 10:20:29 GMT-0600 (Central Standard Time),336518.2000000477,006_m_f_n_a.png,O,space,5343,2,1,1892.2000000476837,334626.0,7086,NNB,C,0
1,prac,1,1.0,2-Back,1,m,Wed Mar 05 2025 10:20:29 GMT-0600 (Central Standard Time),497152.5,146_o_m_n_a.png,O,m,1564,3,1,2443.100000023842,494709.39999997616,7086,NNB,C,1
2,prac,1,0.0,2-Back,1,m,Wed Mar 05 2025 10:20:29 GMT-0600 (Central Standard Time),499768.5,130_o_f_n_a.png,O,m,1741,4,1,2608.0,497160.5,7086,NNB,C,2
3,prac,1,0.0,2-Back,1,z,Wed Mar 05 2025 10:20:29 GMT-0600 (Central Standard Time),501683.2000000477,146_o_m_n_a.png,O,z,1143,5,1,1906.6000000238419,499776.60000002384,7086,NNB,C,3
3,prac,1,1.0,2-Back,0,z,Wed Mar 05 2025 10:20:29 GMT-0600 (Central Standard Time),504466.5,130_o_f_n_a.png,O,None,2007,6,1,2775.100000023842,501691.39999997616,7086,NNB,C,4
3,prac,1,0.0,2-Back,0,m,Wed Mar 05 2025 10:20:29 GMT-0600 (Central Standard Time),507331.39999997616,082_m_m_n_a.png,O,None,2004,7,1,2856.6999999284744,504474.7000000477,7086,NNB,C,5
3,prac,1,0.0,2-Back,0,m,Wed Mar 05 2025 10:20:29 GMT-0600 (Central Standard Time),509530.89999997616,059_o_m_n_a.png,O,z,1332,8,1,2191.7999999523163,507339.10000002384,7086,NNB,C,6
3,prac,1,0.0,2-Back,0,m,Wed Mar 05 2025 10:20:29 GMT-0600 (Central Standard Time),511763.60000002384,028_y_f_n_a.png,O,z,1356,9,1,2223.100000023842,509540.5,7086,NNB,C,7
3,prac,1,1.0,2-Back,0,z,Wed Mar 05 2025 10:20:29 GMT-0600 (Central Standard Time),513629.2000000477,059_o_m_n_a.png,O,m,1078,10,1,1857.2000000476837,511772.0,7086,NNB,C,8
3,prac,1,0.0,2-Back,0,m,Wed Mar 05 2025 10:20:29 GMT-0600 (Central Standard Time),516363.10000002384,098_y_f_n_a.png,O,z,1867,11,1,2725.899999976158,513637.2000000477,7086,NNB,C,9
3,prac,1,0.0,2-Back,0,m,Wed Mar 05 2025 10:20:29 GMT-0600 (Central Standard Time),518644.0,082_m_m_n_a.png,O,z,1492,12,1,2270.7000000476837,516373.2999999523,7086,NNB,C,10
0,prac,2,0.0,2-Back,,,Wed Mar 05 2025 10:20:29 GMT-0600 (Central Standard Time),518644.0,031_y_m_n_a.png,O,a,8277,1,1,2270.7000000476837,516373.2999999523,7086,NNB,C,0
0,prac,2,0.0,2-Back,,,Wed Mar 05 2025 10:20:29 GMT-0600 (Central Standard Time),518644.0,006_m_f_n_a.png,O,a,8277,2,1,2270.7000000476837,516373.2999999523,7086,NNB,C,0
1,prac,2,1.0,2-Back,1,m,Wed Mar 05 2025 10:20:29 GMT-0600 (Central Standard Time),534057.8999999762,146_o_m_n_a.png,O,m,1013,3,1,1891.0,532166.8999999762,7086,NNB,C,1
2,prac,2,0.0,2-Back,1,m,Wed Mar 05 2025 10:20:29 GMT-0600 (Central Standard Time),536488.2000000477,130_o_f_n_a.png,O,m,1535,4,1,2422.3000000715256,534065.8999999762,7086,NNB,C,2
3,prac,2,0.0,2-Back,1,z,Wed Mar 05 2025 10:20:29 GMT-0600 (Central Standard Time),538088.8999999762,146_o_m_n_a.png,O,z,811,5,1,1591.8999999761581,536497.0,7086,NNB,C,3
4,prac,2,1.0,2-Back,1,z,Wed Mar 05 2025 10:20:29 GMT-0600 (Central Standard Time),540322.6000000238,130_o_f_n_a.png,O,z,1465,6,1,2227.5,538095.1000000238,7086,NNB,C,4
4,prac,2,0.0,2-Back,0,m,Wed Mar 05 2025 10:20:29 GMT-0600 (Central Standard Time),543103.5,082_m_m_n_a.png,O,None,2008,7,1,2773.0,540330.5,7086,NNB,C,5
5,prac,2,0.0,2-Back,1,m,Wed Mar 05 2025 10:20:29 GMT-0600 (Central Standard Time),545869.7999999523,059_o_m_n_a.png,O,m,1911,8,1,2757.0,543112.7999999523,7086,NNB,C,6
6,prac,2,0.0,2-Back,1,m,Wed Mar 05 2025 10:20:29 GMT-0600 (Central Standard Time),547785.7999999523,028_y_f_n_a.png,O,m,1044,9,1,1909.1999999284744,545876.6000000238,7086,NNB,C,7
7,prac,2,1.0,2-Back,1,z,Wed Mar 05 2025 10:20:29 GMT-0600 (Central Standard Time),549452.6000000238,059_o_m_n_a.png,O,z,880,10,1,1659.1000000238419,547793.5,7086,NNB,C,8
8,prac,2,0.0,2-Back,1,m,Wed Mar 05 2025 10:20:29 GMT-0600 (Central Standard Time),551767.5,098_y_f_n_a.png,O,m,1460,11,1,2306.7999999523163,549460.7000000477,7086,NNB,C,9
8,prac,2,0.0,2-Back,0,m,Wed Mar 05 2025 10:20:29 GMT-0600 (Central Standard Time),553600.5,082_m_m_n_a.png,O,z,1058,12,1,1824.7999999523163,551775.7000000477,7086,NNB,C,10
0,test,1,0.0,2-Back,,,Wed Mar 05 2025 10:20:29 GMT-0600 (Central Standard Time),553600.5,057_y_m_n_a.png,O,space,19476,1,1,1824.7999999523163,551775.7000000477,7086,NNB,C,0
0,test,1,0.0,2-Back,,,Wed Mar 05 2025 10:20:29 GMT-0600 (Central Standard Time),553600.5,057_y_m_n_a.png,O,space,19476,2,1,1824.7999999523163,551775.7000000477,7086,NNB,C,0
1,test,1,0.0,2-Back,1,m,Wed Mar 05 2025 10:20:29 GMT-0600 (Central Standard Time),590421.7000000477,130_o_f_n_a.png,O,m,950,3,1,1974.6000000238419,588447.1000000238,7086,NNB,C,1
2,test,1,0.0,2-Back,1,m,Wed Mar 05 2025 10:20:29 GMT-0600 (Central Standard Time),592386.2999999523,092_m_m_n_a.png,O,m,939,4,1,1956.7999999523163,590429.5,7086,NNB,C,2
3,test,1,1.0,2-Back,1,z,Wed Mar 05 2025 10:20:29 GMT-0600 (Central Standard Time),594404.1000000238,130_o_f_n_a.png,O,z,990,5,1,2011.3999999761581,592392.7000000477,7086,NNB,C,3
4,test,1,0.0,2-Back,1,m,Wed Mar 05 2025 10:20:29 GMT-0600 (Central Standard Time),596520.2000000477,098_y_f_n_a.png,O,m,1084,6,1,2108.7000000476837,594411.5,7086,NNB,C,4
4,test,1,0.0,2-Back,0,m,Wed Mar 05 2025 10:20:29 GMT-0600 (Central Standard Time),598685.7999999523,092_m_m_n_a.png,O,z,1149,7,1,2159.899999976158,596525.8999999762,7086,NNB,C,5
5,test,1,1.0,2-Back,1,z,Wed Mar 05 2025 10:20:29 GMT-0600 (Central Standard Time),601101.7000000477,098_y_f_n_a.png,O,z,1394,8,1,2410.2000000476837,598691.5,7086,NNB,C,6
6,test,1,0.0,2-Back,1,m,Wed Mar 05 2025 10:20:29 GMT-0600 (Central Standard Time),603684.2999999523,031_y_m_n_a.png,O,m,1553,9,1,2574.5999999046326,601109.7000000477,7086,NNB,C,7
7,test,1,0.0,2-Back,1,m,Wed Mar 05 2025 10:20:29 GMT-0600 (Central Standard Time),606015.5,030_o_f_n_a.png,O,m,1308,10,1,2324.2999999523163,603691.2000000477,7086,NNB,C,8
8,test,1,1.0,2-Back,1,z,Wed Mar 05 2025 10:20:29 GMT-0600 (Central Standard Time),608199.6000000238,031_y_m_n_a.png,O,z,1152,11,1,2176.899999976158,606022.7000000477,7086,NNB,C,9
9,test,1,0.0,2-Back,1,m,Wed Mar 05 2025 10:20:29 GMT-0600 (Central Standard Time),610268.2000000477,006_m_f_n_a.png,O,m,1051,12,1,2061.100000023842,608207.1000000238,7086,NNB,C,10
10,test,1,0.0,2-Back,1,m,Wed Mar 05 2025 10:20:29 GMT-0600 (Central Standard Time),613082.7999999523,006_m_f_n_a.png,O,m,1799,13,1,2807.399999976158,610275.3999999762,7086,NNB,C,11
11,test,1,0.0,2-Back,1,m,Wed Mar 05 2025 10:20:29 GMT-0600 (Central Standard Time),615298.2999999523,146_o_m_n_a.png,O,m,1190,14,1,2210.1999999284744,613088.1000000238,7086,NNB,C,12
12,test,1,0.0,2-Back,1,m,Wed Mar 05 2025 10:20:29 GMT-0600 (Central Standard Time),617845.7000000477,030_o_f_n_a.png,O,m,1519,15,1,2540.5,615305.2000000477,7086,NNB,C,13
13,test,1,1.0,2-Back,1,z,Wed Mar 05 2025 10:20:29 GMT-0600 (Central Standard Time),619677.7999999523,146_o_m_n_a.png,O,z,801,16,1,1825.5999999046326,617852.2000000477,7086,NNB,C,14
14,test,1,0.0,2-Back,1,m,Wed Mar 05 2025 10:20:29 GMT-0600 (Central Standard Time),621562.5,093_m_f_n_a.png,O,m,865,17,1,1877.0,619685.5,7086,NNB,C,15
15,test,1,0.0,2-Back,1,m,Wed Mar 05 2025 10:20:29 GMT-0600 (Central Standard Time),623745.1000000238,082_m_m_n_a.png,O,m,1150,18,1,2176.600000023842,621568.5,7086,NNB,C,16
0,test,2,0.0,2-Back,,,Wed Mar 05 2025 10:20:29 GMT-0600 (Central Standard Time),623745.1000000238,082_m_m_n_a.png,O,space,2466,1,1,2176.600000023842,621568.5,7086,NNB,C,0
0,test,2,0.0,2-Back,,,Wed Mar 05 2025 10:20:29 GMT-0600 (Central Standard Time),623745.1000000238,028_y_f_n_a.png,O,space,2466,2,1,2176.600000023842,621568.5,7086,NNB,C,0
1,test,2,1.0,2-Back,1,z,Wed Mar 05 2025 10:20:29 GMT-0600 (Central Standard Time),633457.7000000477,082_m_m_n_a.png,O,z,1084,3,1,2107.3000000715256,631350.3999999762,7086,NNB,C,1
2,test,2,0.0,2-Back,1,m,Wed Mar 05 2025 10:20:29 GMT-0600 (Central Standard Time),635240.5,093_m_f_n_a.png,O,m,758,4,1,1774.7999999523163,633465.7000000477,7086,NNB,C,2
2,test,2,0.0,2-Back,0,m,Wed Mar 05 2025 10:20:29 GMT-0600 (Central Standard Time),637590.5,028_y_f_n_a.png,O,z,1318,5,1,2342.600000023842,635247.8999999762,7086,NNB,C,3
3,test,2,0.0,2-Back,1,m,Wed Mar 05 2025 10:20:29 GMT-0600 (Central Standard Time),639522.7000000477,146_o_m_n_a.png,O,m,913,6,1,1925.2000000476837,637597.5,7086,NNB,C,4
4,test,2,0.0,2-Back,1,m,Wed Mar 05 2025 10:20:29 GMT-0600 (Central Standard Time),641588.3999999762,098_y_f_n_a.png,O,m,1046,7,1,2058.399999976158,639530.0,7086,NNB,C,5
5,test,2,1.0,2-Back,1,z,Wed Mar 05 2025 10:20:29 GMT-0600 (Central Standard Time),643572.0,146_o_m_n_a.png,O,z,965,8,1,1979.8999999761581,641592.1000000238,7086,NNB,C,6
6,test,2,0.0,2-Back,1,m,Wed Mar 05 2025 10:20:29 GMT-0600 (Central Standard Time),645621.1000000238,031_y_m_n_a.png,O,m,1020,9,1,2044.6000000238419,643576.5,7086,NNB,C,7
7,test,2,0.0,2-Back,1,m,Wed Mar 05 2025 10:20:29 GMT-0600 (Central Standard Time),647886.8999999762,031_y_m_n_a.png,O,m,1233,10,1,2258.1999999284744,645628.7000000477,7086,NNB,C,8
8,test,2,0.0,2-Back,1,m,Wed Mar 05 2025 10:20:29 GMT-0600 (Central Standard Time),649852.7000000477,006_m_f_n_a.png,O,m,946,11,1,1959.4000000953674,647893.2999999523,7086,NNB,C,9
9,test,2,0.0,2-Back,1,m,Wed Mar 05 2025 10:20:29 GMT-0600 (Central Standard Time),651967.6000000238,028_y_f_n_a.png,O,m,1081,12,1,2109.399999976158,649858.2000000477,7086,NNB,C,10
9,test,2,1.0,2-Back,0,z,Wed Mar 05 2025 10:20:29 GMT-0600 (Central Standard Time),655002.3999999762,006_m_f_n_a.png,O,None,2016,13,1,3032.399999976158,651970.0,7086,NNB,C,11
10,test,2,0.0,2-Back,1,m,Wed Mar 05 2025 10:20:29 GMT-0600 (Central Standard Time),656783.7000000477,059_o_m_n_a.png,O,m,750,14,1,1774.6000000238419,655009.1000000238,7086,NNB,C,12
11,test,2,0.0,2-Back,1,m,Wed Mar 05 2025 10:20:29 GMT-0600 (Central Standard Time),658999.2000000477,059_o_m_n_a.png,O,m,1186,15,1,2209.7000000476837,656789.5,7086,NNB,C,13
12,test,2,0.0,2-Back,1,m,Wed Mar 05 2025 10:20:29 GMT-0600 (Central Standard Time),660900.7999999523,030_o_f_n_a.png,O,m,884,16,1,1895.0,659005.7999999523,7086,NNB,C,14
13,test,2,0.0,2-Back,1,m,Wed Mar 05 2025 10:20:29 GMT-0600 (Central Standard Time),662799.2000000477,092_m_m_n_a.png,O,m,870,17,1,1892.7000000476837,660906.5,7086,NNB,C,15
14,test,2,1.0,2-Back,1,z,Wed Mar 05 2025 10:20:29 GMT-0600 (Central Standard Time),664465.1000000238,030_o_f_n_a.png,O,z,644,18,1,1659.0,662806.1000000238,7086,NNB,C,16
0,test,3,1.0,2-Back,,,Wed Mar 05 2025 10:20:29 GMT-0600 (Central Standard Time),664465.1000000238,057_y_m_n_a.png,O,space,1720,1,1,1659.0,662806.1000000238,7086,NNB,C,0
0,test,3,1.0,2-Back,,,Wed Mar 05 2025 10:20:29 GMT-0600 (Central Standard Time),664465.1000000238,057_y_m_n_a.png,O,space,1720,2,1,1659.0,662806.1000000238,7086,NNB,C,0
1,test,3,0.0,2-Back,1,m,Wed Mar 05 2025 10:20:29 GMT-0600 (Central Standard Time),673413.2999999523,030_o_f_n_a.png,O,m,1055,3,1,2074.5,671338.7999999523,7086,NNB,C,1
2,test,3,0.0,2-Back,1,m,Wed Mar 05 2025 10:20:29 GMT-0600 (Central Standard Time),675228.2000000477,082_m_m_n_a.png,O,m,788,4,1,1807.2000000476837,673421.0,7086,NNB,C,2
3,test,3,1.0,2-Back,1,z,Wed Mar 05 2025 10:20:29 GMT-0600 (Central Standard Time),676828.1000000238,030_o_f_n_a.png,O,z,582,5,1,1593.1000000238419,675235.0,7086,NNB,C,3
4,test,3,0.0,2-Back,1,m,Wed Mar 05 2025 10:20:29 GMT-0600 (Central Standard Time),678994.2000000477,031_y_m_n_a.png,O,m,1150,6,1,2157.600000023842,676836.6000000238,7086,NNB,C,4
5,test,3,0.0,2-Back,1,m,Wed Mar 05 2025 10:20:29 GMT-0600 (Central Standard Time),681661.5,082_m_m_n_a.png,O,m,1649,7,1,2660.399999976158,679001.1000000238,7086,NNB,C,5
6,test,3,1.0,2-Back,1,z,Wed Mar 05 2025 10:20:29 GMT-0600 (Central Standard Time),683357.5,031_y_m_n_a.png,O,z,669,8,1,1687.8999999761581,681669.6000000238,7086,NNB,C,6
7,test,3,0.0,2-Back,1,m,Wed Mar 05 2025 10:20:29 GMT-0600 (Central Standard Time),685241.0,028_y_f_n_a.png,O,m,858,9,1,1876.1000000238419,683364.8999999762,7086,NNB,C,7
8,test,3,0.0,2-Back,1,m,Wed Mar 05 2025 10:20:29 GMT-0600 (Central Standard Time),687990.7999999523,092_m_m_n_a.png,O,m,1718,10,1,2742.899999976158,685247.8999999762,7086,NNB,C,8
9,test,3,1.0,2-Back,1,z,Wed Mar 05 2025 10:20:29 GMT-0600 (Central Standard Time),689757.6000000238,028_y_f_n_a.png,O,z,749,11,1,1760.5,687997.1000000238,7086,NNB,C,9
9,test,3,1.0,2-Back,0,z,Wed Mar 05 2025 10:20:29 GMT-0600 (Central Standard Time),691640.2999999523,092_m_m_n_a.png,O,m,860,12,1,1875.5999999046326,689764.7000000477,7086,NNB,C,10
10,test,3,0.0,2-Back,1,m,Wed Mar 05 2025 10:20:29 GMT-0600 (Central Standard Time),693604.7000000477,030_o_f_n_a.png,O,m,947,13,1,1957.4000000953674,691647.2999999523,7086,NNB,C,11
11,test,3,0.0,2-Back,1,m,Wed Mar 05 2025 10:20:29 GMT-0600 (Central Standard Time),695354.7999999523,093_m_f_n_a.png,O,m,722,14,1,1742.0,693612.7999999523,7086,NNB,C,12
12,test,3,0.0,2-Back,1,m,Wed Mar 05 2025 10:20:29 GMT-0600 (Central Standard Time),697105.8999999762,146_o_m_n_a.png,O,m,734,15,1,1744.1999999284744,695361.7000000477,7086,NNB,C,13
13,test,3,1.0,2-Back,1,z,Wed Mar 05 2025 10:20:29 GMT-0600 (Central Standard Time),699236.6000000238,093_m_f_n_a.png,O,z,1099,16,1,2124.3000000715256,697112.2999999523,7086,NNB,C,14
14,test,3,0.0,2-Back,1,m,Wed Mar 05 2025 10:20:29 GMT-0600 (Central Standard Time),701236.3999999762,130_o_f_n_a.png,O,m,983,17,1,1993.0,699243.3999999762,7086,NNB,C,15
15,test,3,0.0,2-Back,1,m,Wed Mar 05 2025 10:20:29 GMT-0600 (Central Standard Time),703768.6000000238,130_o_f_n_a.png,O,m,1508,18,1,2525.600000023842,701243.0,7086,NNB,C,16
0,test,4,0.0,2-Back,,,Wed Mar 05 2025 10:20:29 GMT-0600 (Central Standard Time),703768.6000000238,059_o_m_n_a.png,O,space,1272,1,1,2525.600000023842,701243.0,7086,NNB,C,0
0,test,4,0.0,2-Back,,,Wed Mar 05 2025 10:20:29 GMT-0600 (Central Standard Time),703768.6000000238,098_y_f_n_a.png,O,space,1272,2,1,2525.600000023842,701243.0,7086,NNB,C,0
1,test,4,1.0,2-Back,1,z,Wed Mar 05 2025 10:20:29 GMT-0600 (Central Standard Time),712481.7000000477,059_o_m_n_a.png,O,z,1165,3,1,2191.4000000953674,710290.2999999523,7086,NNB,C,1
2,test,4,1.0,2-Back,1,z,Wed Mar 05 2025 10:20:29 GMT-0600 (Central Standard Time),714715.6000000238,098_y_f_n_a.png,O,z,1205,4,1,2231.5,712484.1000000238,7086,NNB,C,2
3,test,4,0.0,2-Back,1,m,Wed Mar 05 2025 10:20:29 GMT-0600 (Central Standard Time),716531.5,030_o_f_n_a.png,O,m,788,5,1,1808.8999999761581,714722.6000000238,7086,NNB,C,3
4,test,4,0.0,2-Back,1,m,Wed Mar 05 2025 10:20:29 GMT-0600 (Central Standard Time),718514.2999999523,030_o_f_n_a.png,O,m,948,6,1,1977.5,716536.7999999523,7086,NNB,C,4
5,test,4,0.0,2-Back,1,m,Wed Mar 05 2025 10:20:29 GMT-0600 (Central Standard Time),720363.0,006_m_f_n_a.png,O,m,831,7,1,1842.7999999523163,718520.2000000477,7086,NNB,C,5
6,test,4,0.0,2-Back,1,m,Wed Mar 05 2025 10:20:29 GMT-0600 (Central Standard Time),722148.3999999762,031_y_m_n_a.png,O,m,767,8,1,1779.0,720369.3999999762,7086,NNB,C,6
6,test,4,1.0,2-Back,0,z,Wed Mar 05 2025 10:20:29 GMT-0600 (Central Standard Time),724194.2000000477,006_m_f_n_a.png,O,m,1020,9,1,2039.0,722155.2000000477,7086,NNB,C,7
7,test,4,0.0,2-Back,1,m,Wed Mar 05 2025 10:20:29 GMT-0600 (Central Standard Time),726078.3999999762,092_m_m_n_a.png,O,m,852,10,1,1877.2999999523163,724201.1000000238,7086,NNB,C,8
8,test,4,0.0,2-Back,1,m,Wed Mar 05 2025 10:20:29 GMT-0600 (Central Standard Time),727977.0,031_y_m_n_a.png,O,m,874,11,1,1890.8999999761581,726086.1000000238,7086,NNB,C,9
9,test,4,0.0,2-Back,1,m,Wed Mar 05 2025 10:20:29 GMT-0600 (Central Standard Time),730028.0,130_o_f_n_a.png,O,m,1017,12,1,2045.1000000238419,727982.8999999762,7086,NNB,C,10
9,test,4,0.0,2-Back,0,m,Wed Mar 05 2025 10:20:29 GMT-0600 (Central Standard Time),732142.5,057_y_m_n_a.png,O,z,1081,13,1,2108.5,730034.0,7086,NNB,C,11
10,test,4,1.0,2-Back,1,z,Wed Mar 05 2025 10:20:29 GMT-0600 (Central Standard Time),734042.2999999523,130_o_f_n_a.png,O,z,873,14,1,1893.1999999284744,732149.1000000238,7086,NNB,C,12
11,test,4,1.0,2-Back,1,z,Wed Mar 05 2025 10:20:29 GMT-0600 (Central Standard Time),735793.2000000477,057_y_m_n_a.png,O,z,734,15,1,1745.4000000953674,734047.7999999523,7086,NNB,C,13
12,test,4,0.0,2-Back,1,m,Wed Mar 05 2025 10:20:29 GMT-0600 (Central Standard Time),737640.7999999523,082_m_m_n_a.png,O,m,823,16,1,1842.1999999284744,735798.6000000238,7086,NNB,C,14
13,test,4,0.0,2-Back,1,m,Wed Mar 05 2025 10:20:29 GMT-0600 (Central Standard Time),739558.3999999762,093_m_f_n_a.png,O,m,899,17,1,1911.5,737646.8999999762,7086,NNB,C,15
14,test,4,1.0,2-Back,1,z,Wed Mar 05 2025 10:20:29 GMT-0600 (Central Standard Time),741440.7999999523,082_m_m_n_a.png,O,z,860,18,1,1875.3999999761581,739565.3999999762,7086,NNB,C,16
0,test,5,1.0,2-Back,,,Wed Mar 05 2025 10:20:29 GMT-0600 (Central Standard Time),741440.7999999523,057_y_m_n_a.png,O,space,1265,1,1,1875.3999999761581,739565.3999999762,7086,NNB,C,0
0,test,5,1.0,2-Back,,,Wed Mar 05 2025 10:20:29 GMT-0600 (Central Standard Time),741440.7999999523,093_m_f_n_a.png,O,space,1265,2,1,1875.3999999761581,739565.3999999762,7086,NNB,C,0
1,test,5,1.0,2-Back,1,z,Wed Mar 05 2025 10:20:29 GMT-0600 (Central Standard Time),749755.2000000477,057_y_m_n_a.png,O,z,982,3,1,1992.5,747762.7000000477,7086,NNB,C,1
2,test,5,1.0,2-Back,1,z,Wed Mar 05 2025 10:20:29 GMT-0600 (Central Standard Time),751653.7000000477,093_m_f_n_a.png,O,z,869,4,1,1890.7000000476837,749763.0,7086,NNB,C,2
3,test,5,0.0,2-Back,1,m,Wed Mar 05 2025 10:20:29 GMT-0600 (Central Standard Time),753488.1000000238,130_o_f_n_a.png,O,m,800,5,1,1828.1000000238419,751660.0,7086,NNB,C,3
4,test,5,0.0,2-Back,1,m,Wed Mar 05 2025 10:20:29 GMT-0600 (Central Standard Time),755502.1000000238,057_y_m_n_a.png,O,m,985,6,1,2007.0,753495.1000000238,7086,NNB,C,4
5,test,5,0.0,2-Back,1,m,Wed Mar 05 2025 10:20:29 GMT-0600 (Central Standard Time),757552.3999999762,028_y_f_n_a.png,O,m,1016,7,1,2043.8999999761581,755508.5,7086,NNB,C,5
6,test,5,0.0,2-Back,1,m,Wed Mar 05 2025 10:20:29 GMT-0600 (Central Standard Time),759600.8999999762,130_o_f_n_a.png,O,m,1024,8,1,2042.6000000238419,757558.2999999523,7086,NNB,C,6
7,test,5,1.0,2-Back,1,z,Wed Mar 05 2025 10:20:29 GMT-0600 (Central Standard Time),761166.6000000238,028_y_f_n_a.png,O,z,534,9,1,1558.8000000715256,759607.7999999523,7086,NNB,C,7
8,test,5,0.0,2-Back,1,m,Wed Mar 05 2025 10:20:29 GMT-0600 (Central Standard Time),763568.2999999523,146_o_m_n_a.png,O,m,1377,10,1,2394.7999999523163,761173.5,7086,NNB,C,8
9,test,5,0.0,2-Back,1,m,Wed Mar 05 2025 10:20:29 GMT-0600 (Central Standard Time),765333.0,006_m_f_n_a.png,O,m,748,11,1,1758.5,763574.5,7086,NNB,C,9
10,test,5,0.0,2-Back,1,m,Wed Mar 05 2025 10:20:29 GMT-0600 (Central Standard Time),767249.7999999523,092_m_m_n_a.png,O,m,898,12,1,1910.0999999046326,765339.7000000477,7086,NNB,C,10
11,test,5,0.0,2-Back,1,m,Wed Mar 05 2025 10:20:29 GMT-0600 (Central Standard Time),769697.7999999523,146_o_m_n_a.png,O,m,1422,13,1,2442.2999999523163,767255.5,7086,NNB,C,11
12,test,5,1.0,2-Back,1,z,Wed Mar 05 2025 10:20:29 GMT-0600 (Central Standard Time),771448.2000000477,092_m_m_n_a.png,O,z,720,14,1,1742.2000000476837,769706.0,7086,NNB,C,12
13,test,5,0.0,2-Back,1,m,Wed Mar 05 2025 10:20:29 GMT-0600 (Central Standard Time),773480.0,098_y_f_n_a.png,O,m,1010,15,1,2026.0,771454.0,7086,NNB,C,13
14,test,5,0.0,2-Back,1,m,Wed Mar 05 2025 10:20:29 GMT-0600 (Central Standard Time),775413.3999999762,059_o_m_n_a.png,O,m,912,16,1,1926.1999999284744,773487.2000000477,7086,NNB,C,14
15,test,5,0.0,2-Back,1,m,Wed Mar 05 2025 10:20:29 GMT-0600 (Central Standard Time),777428.2000000477,006_m_f_n_a.png,O,m,987,17,1,2005.8000000715256,775422.3999999762,7086,NNB,C,15
16,test,5,1.0,2-Back,1,z,Wed Mar 05 2025 10:20:29 GMT-0600 (Central Standard Time),779162.3999999762,059_o_m_n_a.png,O,z,715,18,1,1726.6000000238419,777435.7999999523,7086,NNB,C,16
