acc_sum,block,block_c,change,condition,correct,correct_response,datetime,endtime,face,project,response,response_time,row_sel,session_number,start_end,starttime,subject_id,task,task_vers,trial
0,prac,1,,1-Back,,,Wed Apr 16 2025 12:33:48 GMT-0500 (Central Daylight Time),,005_o_f_d_a.png,I,space,6794,1,2,,,8022,VNB,B,0
1,prac,1,0.0,1-Back,1,m,Wed Apr 16 2025 12:33:48 GMT-0500 (Central Daylight Time),117883.30000001192,020_y_f_n_a.png,I,m,1516,2,2,2370.199999988079,115513.10000002384,8022,VNB,B,1
2,prac,1,0.0,1-Back,1,m,Wed Apr 16 2025 12:33:48 GMT-0500 (Central Daylight Time),120315.0,007_m_m_h_a.png,I,m,1547,3,2,2420.699999988079,117894.30000001192,8022,VNB,B,2
3,prac,1,0.0,1-Back,1,m,Wed Apr 16 2025 12:33:48 GMT-0500 (Central Daylight Time),122297.10000002384,016_y_m_d_a.png,I,m,1088,4,2,1973.699999988079,120323.40000003576,8022,VNB,B,3
4,prac,1,0.0,1-Back,1,m,Wed Apr 16 2025 12:33:48 GMT-0500 (Central Daylight Time),124561.80000001192,005_o_f_n_a.png,I,m,1370,5,2,2255.399999976158,122306.40000003576,8022,VNB,B,4
5,prac,1,1.0,1-Back,1,z,Wed Apr 16 2025 12:33:48 GMT-0500 (Central Daylight Time),126446.90000003576,016_y_m_n_a.png,I,z,989,6,2,1880.9000000357628,124566.0,8022,VNB,B,5
6,prac,1,0.0,1-Back,1,m,Wed Apr 16 2025 12:33:48 GMT-0500 (Central Daylight Time),128263.0,004_o_m_h_a.png,I,m,963,7,2,1803.8999999761581,126459.10000002384,8022,VNB,B,6
7,prac,1,0.0,1-Back,1,m,Wed Apr 16 2025 12:33:48 GMT-0500 (Central Daylight Time),131127.10000002384,011_m_f_d_a.png,I,m,1975,8,2,2856.199999988079,128270.90000003576,8022,VNB,B,7
8,prac,1,1.0,1-Back,1,z,Wed Apr 16 2025 12:33:48 GMT-0500 (Central Daylight Time),133077.60000002384,020_y_f_d_a.png,I,z,1082,9,2,1942.300000011921,131135.30000001192,8022,VNB,B,8
9,prac,1,0.0,1-Back,1,m,Wed Apr 16 2025 12:33:48 GMT-0500 (Central Daylight Time),135027.20000004768,007_m_m_n_a.png,I,m,1068,10,2,1940.6000000238419,133086.60000002384,8022,VNB,B,9
10,prac,1,0.0,1-Back,1,m,Wed Apr 16 2025 12:33:48 GMT-0500 (Central Daylight Time),136844.20000004768,005_o_f_h_a.png,I,m,954,11,2,1808.2000000476837,135036.0,8022,VNB,B,10
11,prac,1,0.0,1-Back,1,m,Wed Apr 16 2025 12:33:48 GMT-0500 (Central Daylight Time),138793.60000002384,016_y_m_d_a.png,I,m,1056,12,2,1941.300000011921,136852.30000001192,8022,VNB,B,11
0,test,1,0.0,1-Back,,,Wed Apr 16 2025 12:33:48 GMT-0500 (Central Daylight Time),138793.60000002384,020_y_f_d_a.png,I,space,16861,1,2,1941.300000011921,136852.30000001192,8022,VNB,B,0
1,test,1,0.0,1-Back,1,m,Wed Apr 16 2025 12:33:48 GMT-0500 (Central Daylight Time),166234.90000003576,011_m_f_n_a.png,I,m,1367,2,2,2375.5,163859.40000003576,8022,VNB,B,1
2,test,1,0.0,1-Back,1,m,Wed Apr 16 2025 12:33:48 GMT-0500 (Central Daylight Time),168149.60000002384,004_o_m_h_a.png,I,m,883,3,2,1905.199999988079,166244.40000003576,8022,VNB,B,2
3,test,1,1.0,1-Back,1,z,Wed Apr 16 2025 12:33:48 GMT-0500 (Central Daylight Time),170099.10000002384,007_m_m_h_a.png,I,z,921,4,2,1943.1000000238419,168156.0,8022,VNB,B,3
4,test,1,0.0,1-Back,1,m,Wed Apr 16 2025 12:33:48 GMT-0500 (Central Daylight Time),171881.20000004768,005_o_f_n_a.png,I,m,757,5,2,1774.2000000476837,170107.0,8022,VNB,B,4
5,test,1,0.0,1-Back,1,m,Wed Apr 16 2025 12:33:48 GMT-0500 (Central Daylight Time),173847.5,016_y_m_d_a.png,I,m,941,6,2,1957.7999999523163,171889.70000004768,8022,VNB,B,5
6,test,1,1.0,1-Back,1,z,Wed Apr 16 2025 12:33:48 GMT-0500 (Central Daylight Time),175796.10000002384,011_m_f_d_a.png,I,z,931,7,2,1941.199999988079,173854.90000003576,8022,VNB,B,6
7,test,1,0.0,1-Back,1,m,Wed Apr 16 2025 12:33:48 GMT-0500 (Central Daylight Time),177664.70000004768,020_y_f_h_a.png,I,m,834,8,2,1861.1000000238419,175803.60000002384,8022,VNB,B,7
8,test,1,0.0,1-Back,1,m,Wed Apr 16 2025 12:33:48 GMT-0500 (Central Daylight Time),179796.60000002384,004_o_m_n_a.png,I,m,1114,9,2,2125.300000011921,177671.30000001192,8022,VNB,B,8
9,test,1,0.0,1-Back,1,m,Wed Apr 16 2025 12:33:48 GMT-0500 (Central Daylight Time),181612.30000001192,016_y_m_h_a.png,I,m,791,10,2,1810.800000011921,179801.5,8022,VNB,B,9
10,test,1,0.0,1-Back,1,m,Wed Apr 16 2025 12:33:48 GMT-0500 (Central Daylight Time),183477.70000004768,004_o_m_d_a.png,I,m,838,11,2,1858.6000000238419,181619.10000002384,8022,VNB,B,10
11,test,1,1.0,1-Back,1,z,Wed Apr 16 2025 12:33:48 GMT-0500 (Central Daylight Time),185460.70000004768,005_o_f_d_a.png,I,z,962,12,2,1975.300000011921,183485.40000003576,8022,VNB,B,11
12,test,1,0.0,1-Back,1,m,Wed Apr 16 2025 12:33:48 GMT-0500 (Central Daylight Time),187426.30000001192,007_m_m_n_a.png,I,m,939,13,2,1957.0999999642372,185469.20000004768,8022,VNB,B,12
13,test,1,1.0,1-Back,1,z,Wed Apr 16 2025 12:33:48 GMT-0500 (Central Daylight Time),189542.90000003576,020_y_f_n_a.png,I,z,1093,14,2,2108.300000011921,187434.60000002384,8022,VNB,B,13
14,test,1,0.0,1-Back,1,m,Wed Apr 16 2025 12:33:48 GMT-0500 (Central Daylight Time),191692.0,011_m_f_h_a.png,I,m,1131,15,2,2141.2999999523163,189550.70000004768,8022,VNB,B,14
15,test,1,0.0,1-Back,1,m,Wed Apr 16 2025 12:33:48 GMT-0500 (Central Daylight Time),193740.20000004768,007_m_m_d_a.png,I,m,1029,16,2,2040.1000000238419,191700.10000002384,8022,VNB,B,15
16,test,1,0.0,1-Back,1,m,Wed Apr 16 2025 12:33:48 GMT-0500 (Central Daylight Time),195841.20000004768,016_y_m_n_a.png,I,m,1075,17,2,2092.300000011921,193748.90000003576,8022,VNB,B,16
17,test,1,0.0,1-Back,1,m,Wed Apr 16 2025 12:33:48 GMT-0500 (Central Daylight Time),197758.10000002384,005_o_f_h_a.png,I,m,888,18,2,1908.699999988079,195849.40000003576,8022,VNB,B,17
0,test,2,0.0,1-Back,,,Wed Apr 16 2025 12:33:48 GMT-0500 (Central Daylight Time),197758.10000002384,016_y_m_n_a.png,I,space,1723,1,2,1908.699999988079,195849.40000003576,8022,VNB,B,0
1,test,2,0.0,1-Back,1,m,Wed Apr 16 2025 12:33:48 GMT-0500 (Central Daylight Time),203588.30000001192,020_y_f_h_a.png,I,m,1062,2,2,2070.5,201517.80000001192,8022,VNB,B,1
2,test,2,1.0,1-Back,1,m,Wed Apr 16 2025 12:33:48 GMT-0500 (Central Daylight Time),205372.10000002384,004_o_m_n_a.png,I,m,765,3,2,1774.1000000238419,203598.0,8022,VNB,B,2
3,test,2,0.0,1-Back,1,m,Wed Apr 16 2025 12:33:48 GMT-0500 (Central Daylight Time),207302.5,011_m_f_d_a.png,I,m,900,4,2,1921.5999999642372,205380.90000003576,8022,VNB,B,3
4,test,2,0.0,1-Back,1,z,Wed Apr 16 2025 12:33:48 GMT-0500 (Central Daylight Time),209321.10000002384,007_m_m_d_a.png,I,z,984,5,2,2010.5,207310.60000002384,8022,VNB,B,4
5,test,2,0.0,1-Back,1,m,Wed Apr 16 2025 12:33:48 GMT-0500 (Central Daylight Time),211170.0,016_y_m_h_a.png,I,m,808,6,2,1833.5999999642372,209336.40000003576,8022,VNB,B,5
6,test,2,1.0,1-Back,1,z,Wed Apr 16 2025 12:33:48 GMT-0500 (Central Daylight Time),213018.40000003576,005_o_f_h_a.png,I,z,823,7,2,1841.4000000357628,211177.0,8022,VNB,B,6
7,test,2,0.0,1-Back,1,m,Wed Apr 16 2025 12:33:48 GMT-0500 (Central Daylight Time),214868.10000002384,011_m_f_n_a.png,I,m,822,8,2,1841.300000011921,213026.80000001192,8022,VNB,B,7
8,test,2,0.0,1-Back,1,m,Wed Apr 16 2025 12:33:48 GMT-0500 (Central Daylight Time),217000.70000004768,020_y_f_d_a.png,I,m,1108,9,2,2123.7000000476837,214877.0,8022,VNB,B,8
9,test,2,0.0,1-Back,1,m,Wed Apr 16 2025 12:33:48 GMT-0500 (Central Daylight Time),219149.70000004768,007_m_m_n_a.png,I,m,1120,10,2,2140.300000011921,217009.40000003576,8022,VNB,B,9
10,test,2,1.0,1-Back,1,m,Wed Apr 16 2025 12:33:48 GMT-0500 (Central Daylight Time),221149.30000001192,011_m_f_h_a.png,I,m,965,11,2,1992.300000011921,219157.0,8022,VNB,B,10
11,test,2,0.0,1-Back,1,z,Wed Apr 16 2025 12:33:48 GMT-0500 (Central Daylight Time),223100.20000004768,004_o_m_h_a.png,I,z,931,12,2,1942.2000000476837,221158.0,8022,VNB,B,11
12,test,2,0.0,1-Back,1,m,Wed Apr 16 2025 12:33:48 GMT-0500 (Central Daylight Time),224831.70000004768,016_y_m_d_a.png,I,m,711,13,2,1723.6000000238419,223108.10000002384,8022,VNB,B,12
13,test,2,0.0,1-Back,1,m,Wed Apr 16 2025 12:33:48 GMT-0500 (Central Daylight Time),226780.60000002384,005_o_f_n_a.png,I,m,930,14,2,1940.699999988079,224839.90000003576,8022,VNB,B,13
14,test,2,0.0,1-Back,1,z,Wed Apr 16 2025 12:33:48 GMT-0500 (Central Daylight Time),228747.30000001192,020_y_f_n_a.png,I,z,948,15,2,1958.699999988079,226788.60000002384,8022,VNB,B,14
15,test,2,1.0,1-Back,1,m,Wed Apr 16 2025 12:33:48 GMT-0500 (Central Daylight Time),230662.80000001192,007_m_m_h_a.png,I,m,885,16,2,1910.8999999761581,228751.90000003576,8022,VNB,B,15
16,test,2,0.0,1-Back,1,m,Wed Apr 16 2025 12:33:48 GMT-0500 (Central Daylight Time),232661.20000004768,005_o_f_d_a.png,I,m,978,17,2,1990.800000011921,230670.40000003576,8022,VNB,B,16
17,test,2,1.0,1-Back,1,z,Wed Apr 16 2025 12:33:48 GMT-0500 (Central Daylight Time),234695.0,004_o_m_d_a.png,I,z,1002,18,2,2027.5999999642372,232667.40000003576,8022,VNB,B,17
0,test,3,1.0,1-Back,,,Wed Apr 16 2025 12:33:48 GMT-0500 (Central Daylight Time),234695.0,005_o_f_h_a.png,I,space,1579,1,2,2027.5999999642372,232667.40000003576,8022,VNB,B,0
1,test,3,0.0,1-Back,1,m,Wed Apr 16 2025 12:33:48 GMT-0500 (Central Daylight Time),240226.90000003576,011_m_f_d_a.png,I,m,806,2,2,1824.6000000238419,238402.30000001192,8022,VNB,B,1
2,test,3,1.0,1-Back,1,m,Wed Apr 16 2025 12:33:48 GMT-0500 (Central Daylight Time),242176.10000002384,007_m_m_n_a.png,I,m,919,3,2,1942.3999999761581,240233.70000004768,8022,VNB,B,2
3,test,3,0.0,1-Back,1,z,Wed Apr 16 2025 12:33:48 GMT-0500 (Central Daylight Time),244125.10000002384,005_o_f_n_a.png,I,z,920,4,2,1939.6000000238419,242185.5,8022,VNB,B,3
4,test,3,1.0,1-Back,1,m,Wed Apr 16 2025 12:33:48 GMT-0500 (Central Daylight Time),245891.10000002384,004_o_m_d_a.png,I,m,748,5,2,1758.1000000238419,244133.0,8022,VNB,B,4
5,test,3,0.0,1-Back,1,m,Wed Apr 16 2025 12:33:48 GMT-0500 (Central Daylight Time),247857.20000004768,020_y_f_h_a.png,I,m,941,6,2,1957.7000000476837,245899.5,8022,VNB,B,5
6,test,3,0.0,1-Back,1,z,Wed Apr 16 2025 12:33:48 GMT-0500 (Central Daylight Time),249806.90000003576,016_y_m_h_a.png,I,z,919,7,2,1941.300000011921,247865.60000002384,8022,VNB,B,6
7,test,3,0.0,1-Back,1,m,Wed Apr 16 2025 12:33:48 GMT-0500 (Central Daylight Time),251723.0,011_m_f_n_a.png,I,m,883,8,2,1908.5999999642372,249814.40000003576,8022,VNB,B,7
8,test,3,0.0,1-Back,1,m,Wed Apr 16 2025 12:33:48 GMT-0500 (Central Daylight Time),253655.0,020_y_f_d_a.png,I,m,910,9,2,1924.199999988079,251730.80000001192,8022,VNB,B,8
9,test,3,1.0,1-Back,1,m,Wed Apr 16 2025 12:33:48 GMT-0500 (Central Daylight Time),255604.20000004768,004_o_m_n_a.png,I,m,929,10,2,1940.9000000357628,253663.30000001192,8022,VNB,B,9
10,test,3,0.0,1-Back,1,m,Wed Apr 16 2025 12:33:48 GMT-0500 (Central Daylight Time),257620.70000004768,007_m_m_h_a.png,I,m,987,11,2,2008.0,255612.70000004768,8022,VNB,B,10
11,test,3,0.0,1-Back,1,z,Wed Apr 16 2025 12:33:48 GMT-0500 (Central Daylight Time),259503.80000001192,011_m_f_h_a.png,I,z,851,12,2,1876.5999999642372,257627.20000004768,8022,VNB,B,11
12,test,3,1.0,1-Back,1,m,Wed Apr 16 2025 12:33:48 GMT-0500 (Central Daylight Time),261286.10000002384,005_o_f_d_a.png,I,m,761,13,2,1773.699999988079,259512.40000003576,8022,VNB,B,12
13,test,3,0.0,1-Back,1,z,Wed Apr 16 2025 12:33:48 GMT-0500 (Central Daylight Time),263301.3000000119,007_m_m_d_a.png,I,z,992,14,2,2006.8999999761581,261294.40000003576,8022,VNB,B,13
14,test,3,0.0,1-Back,1,m,Wed Apr 16 2025 12:33:48 GMT-0500 (Central Daylight Time),265236.0,016_y_m_n_a.png,I,m,915,15,2,1927.7999999523163,263308.2000000477,8022,VNB,B,14
15,test,3,1.0,1-Back,1,m,Wed Apr 16 2025 12:33:48 GMT-0500 (Central Daylight Time),267069.0,004_o_m_h_a.png,I,m,816,16,2,1824.8999999761581,265244.10000002384,8022,VNB,B,15
16,test,3,0.0,1-Back,1,m,Wed Apr 16 2025 12:33:48 GMT-0500 (Central Daylight Time),268967.90000003576,016_y_m_d_a.png,I,m,868,17,2,1890.800000011921,267077.10000002384,8022,VNB,B,16
17,test,3,1.0,1-Back,1,m,Wed Apr 16 2025 12:33:48 GMT-0500 (Central Daylight Time),270765.3000000119,020_y_f_n_a.png,I,m,768,18,2,1790.199999988079,268975.10000002384,8022,VNB,B,17
0,test,4,1.0,1-Back,,,Wed Apr 16 2025 12:33:48 GMT-0500 (Central Daylight Time),270765.3000000119,007_m_m_d_a.png,I,space,1220,1,2,1790.199999988079,268975.10000002384,8022,VNB,B,0
1,test,4,0.0,1-Back,1,z,Wed Apr 16 2025 12:33:48 GMT-0500 (Central Daylight Time),275864.5,004_o_m_d_a.png,I,z,824,2,2,1840.7999999523163,274023.7000000477,8022,VNB,B,1
2,test,4,0.0,1-Back,1,m,Wed Apr 16 2025 12:33:48 GMT-0500 (Central Daylight Time),277548.60000002384,016_y_m_h_a.png,I,m,654,3,2,1680.5,275868.10000002384,8022,VNB,B,2
3,test,4,0.0,1-Back,1,m,Wed Apr 16 2025 12:33:48 GMT-0500 (Central Daylight Time),279564.2000000477,011_m_f_n_a.png,I,m,988,4,2,2007.2000000476837,277557.0,8022,VNB,B,3
4,test,4,1.0,1-Back,1,m,Wed Apr 16 2025 12:33:48 GMT-0500 (Central Daylight Time),281496.40000003576,005_o_f_h_a.png,I,m,901,5,2,1925.800000011921,279570.60000002384,8022,VNB,B,4
5,test,4,0.0,1-Back,1,m,Wed Apr 16 2025 12:33:48 GMT-0500 (Central Daylight Time),283462.5,007_m_m_n_a.png,I,m,935,6,2,1959.699999988079,281502.8000000119,8022,VNB,B,5
6,test,4,0.0,1-Back,1,m,Wed Apr 16 2025 12:33:48 GMT-0500 (Central Daylight Time),285510.10000002384,016_y_m_d_a.png,I,m,1024,7,2,2039.699999988079,283470.40000003576,8022,VNB,B,6
7,test,4,1.0,1-Back,1,z,Wed Apr 16 2025 12:33:48 GMT-0500 (Central Daylight Time),287379.5,020_y_f_d_a.png,I,z,848,8,2,1866.199999988079,285513.3000000119,8022,VNB,B,7
8,test,4,0.0,1-Back,1,m,Wed Apr 16 2025 12:33:48 GMT-0500 (Central Daylight Time),289212.10000002384,011_m_f_h_a.png,I,m,816,9,2,1826.300000011921,287385.8000000119,8022,VNB,B,8
9,test,4,0.0,1-Back,1,z,Wed Apr 16 2025 12:33:48 GMT-0500 (Central Daylight Time),291026.90000003576,004_o_m_h_a.png,I,z,790,10,2,1805.699999988079,289221.2000000477,8022,VNB,B,9
10,test,4,1.0,1-Back,1,m,Wed Apr 16 2025 12:33:48 GMT-0500 (Central Daylight Time),292861.0,005_o_f_n_a.png,I,m,816,11,2,1826.3999999761581,291034.60000002384,8022,VNB,B,10
10,test,4,0.0,1-Back,0,m,Wed Apr 16 2025 12:33:48 GMT-0500 (Central Daylight Time),295176.5,011_m_f_d_a.png,I,z,1293,12,2,2306.5,292870.0,8022,VNB,B,11
11,test,4,0.0,1-Back,1,m,Wed Apr 16 2025 12:33:48 GMT-0500 (Central Daylight Time),297158.2000000477,020_y_f_n_a.png,I,m,953,13,2,1975.1000000238419,295183.10000002384,8022,VNB,B,12
12,test,4,0.0,1-Back,1,m,Wed Apr 16 2025 12:33:48 GMT-0500 (Central Daylight Time),299140.7000000477,005_o_f_d_a.png,I,m,955,14,2,1974.7000000476837,297166.0,8022,VNB,B,13
13,test,4,0.0,1-Back,1,m,Wed Apr 16 2025 12:33:48 GMT-0500 (Central Daylight Time),301158.40000003576,020_y_f_h_a.png,I,m,987,15,2,2009.300000011921,299149.10000002384,8022,VNB,B,14
14,test,4,1.0,1-Back,1,z,Wed Apr 16 2025 12:33:48 GMT-0500 (Central Daylight Time),302822.7000000477,007_m_m_h_a.png,I,z,635,16,2,1656.7000000476837,301166.0,8022,VNB,B,15
15,test,4,0.0,1-Back,1,m,Wed Apr 16 2025 12:33:48 GMT-0500 (Central Daylight Time),304622.5,004_o_m_n_a.png,I,m,770,17,2,1792.699999988079,302829.8000000119,8022,VNB,B,16
16,test,4,1.0,1-Back,1,z,Wed Apr 16 2025 12:33:48 GMT-0500 (Central Daylight Time),306507.10000002384,016_y_m_n_a.png,I,z,866,18,2,1878.3999999761581,304628.7000000477,8022,VNB,B,17
0,test,5,1.0,1-Back,,,Wed Apr 16 2025 12:33:48 GMT-0500 (Central Daylight Time),306507.10000002384,004_o_m_n_a.png,I,space,1246,1,2,1878.3999999761581,304628.7000000477,8022,VNB,B,0
1,test,5,1.0,1-Back,1,m,Wed Apr 16 2025 12:33:48 GMT-0500 (Central Daylight Time),311554.60000002384,005_o_f_h_a.png,I,m,758,2,2,1775.1000000238419,309779.5,8022,VNB,B,1
2,test,5,0.0,1-Back,1,m,Wed Apr 16 2025 12:33:48 GMT-0500 (Central Daylight Time),313253.5,016_y_m_d_a.png,I,m,682,3,2,1692.5999999642372,311560.90000003576,8022,VNB,B,2
3,test,5,0.0,1-Back,1,z,Wed Apr 16 2025 12:33:48 GMT-0500 (Central Daylight Time),315170.0,004_o_m_d_a.png,I,z,883,4,2,1913.0,313257.0,8022,VNB,B,3
4,test,5,0.0,1-Back,1,m,Wed Apr 16 2025 12:33:48 GMT-0500 (Central Daylight Time),316936.0,011_m_f_h_a.png,I,m,733,5,2,1758.199999988079,315177.8000000119,8022,VNB,B,4
5,test,5,0.0,1-Back,1,m,Wed Apr 16 2025 12:33:48 GMT-0500 (Central Daylight Time),318735.10000002384,020_y_f_n_a.png,I,m,770,6,2,1792.199999988079,316942.90000003576,8022,VNB,B,5
6,test,5,1.0,1-Back,1,z,Wed Apr 16 2025 12:33:48 GMT-0500 (Central Daylight Time),320716.10000002384,005_o_f_n_a.png,I,z,953,7,2,1973.300000011921,318742.8000000119,8022,VNB,B,6
7,test,5,0.0,1-Back,1,m,Wed Apr 16 2025 12:33:48 GMT-0500 (Central Daylight Time),322683.60000002384,011_m_f_d_a.png,I,m,939,8,2,1961.0,320722.60000002384,8022,VNB,B,7
8,test,5,0.0,1-Back,1,m,Wed Apr 16 2025 12:33:48 GMT-0500 (Central Daylight Time),324632.0,016_y_m_h_a.png,I,m,923,9,2,1941.0999999642372,322690.90000003576,8022,VNB,B,8
9,test,5,0.0,1-Back,1,m,Wed Apr 16 2025 12:33:48 GMT-0500 (Central Daylight Time),326416.0,020_y_f_d_a.png,I,m,760,10,2,1776.2999999523163,324639.7000000477,8022,VNB,B,9
10,test,5,0.0,1-Back,1,m,Wed Apr 16 2025 12:33:48 GMT-0500 (Central Daylight Time),328631.5,007_m_m_n_a.png,I,m,1184,11,2,2205.399999976158,326426.10000002384,8022,VNB,B,10
10,test,5,1.0,1-Back,0,z,Wed Apr 16 2025 12:33:48 GMT-0500 (Central Daylight Time),330747.2000000477,011_m_f_n_a.png,I,m,1097,12,2,2106.900000035763,328640.3000000119,8022,VNB,B,11
11,test,5,0.0,1-Back,1,m,Wed Apr 16 2025 12:33:48 GMT-0500 (Central Daylight Time),332831.60000002384,004_o_m_h_a.png,I,m,1053,13,2,2074.300000011921,330757.3000000119,8022,VNB,B,12
12,test,5,0.0,1-Back,1,z,Wed Apr 16 2025 12:33:48 GMT-0500 (Central Daylight Time),334829.8000000119,007_m_m_h_a.png,I,z,970,14,2,1986.699999988079,332843.10000002384,8022,VNB,B,13
13,test,5,1.0,1-Back,1,m,Wed Apr 16 2025 12:33:48 GMT-0500 (Central Daylight Time),336662.7000000477,005_o_f_d_a.png,I,m,802,15,2,1825.800000011921,334836.90000003576,8022,VNB,B,14
14,test,5,0.0,1-Back,1,m,Wed Apr 16 2025 12:33:48 GMT-0500 (Central Daylight Time),338495.8000000119,016_y_m_n_a.png,I,m,801,16,2,1824.5999999642372,336671.2000000477,8022,VNB,B,15
15,test,5,0.0,1-Back,1,m,Wed Apr 16 2025 12:33:48 GMT-0500 (Central Daylight Time),340347.0,020_y_f_h_a.png,I,m,834,17,2,1843.699999988079,338503.3000000119,8022,VNB,B,16
16,test,5,0.0,1-Back,1,m,Wed Apr 16 2025 12:33:48 GMT-0500 (Central Daylight Time),342343.40000003576,007_m_m_d_a.png,I,m,968,18,2,1990.9000000357628,340352.5,8022,VNB,B,17
0,prac,1,0.0,2-Back,,,Wed Apr 16 2025 12:33:48 GMT-0500 (Central Daylight Time),342343.40000003576,011_m_f_n_a.png,I,space,1787,1,2,1990.9000000357628,340352.5,8022,VNB,B,0
0,prac,1,0.0,2-Back,,,Wed Apr 16 2025 12:33:48 GMT-0500 (Central Daylight Time),342343.40000003576,005_o_f_h_a.png,I,space,1787,2,2,1990.9000000357628,340352.5,8022,VNB,B,0
1,prac,1,0.0,2-Back,1,m,Wed Apr 16 2025 12:33:48 GMT-0500 (Central Daylight Time),463589.3000000119,004_o_m_d_a.png,I,m,1647,3,2,2508.099999964237,461081.2000000477,8022,VNB,B,1
2,prac,1,1.0,2-Back,1,z,Wed Apr 16 2025 12:33:48 GMT-0500 (Central Daylight Time),465604.10000002384,007_m_m_h_a.png,I,z,1118,4,2,2004.800000011921,463599.3000000119,8022,VNB,B,2
3,prac,1,0.0,2-Back,1,m,Wed Apr 16 2025 12:33:48 GMT-0500 (Central Daylight Time),467688.0,020_y_f_n_a.png,I,m,1232,5,2,2074.899999976158,465613.10000002384,8022,VNB,B,3
3,prac,1,1.0,2-Back,0,z,Wed Apr 16 2025 12:33:48 GMT-0500 (Central Daylight Time),469754.40000003576,004_o_m_h_a.png,I,m,1289,6,2,2057.600000023842,467696.8000000119,8022,VNB,B,4
3,prac,1,1.0,2-Back,0,z,Wed Apr 16 2025 12:33:48 GMT-0500 (Central Daylight Time),471505.2000000477,016_y_m_n_a.png,I,m,875,7,2,1741.6000000238419,469763.60000002384,8022,VNB,B,5
3,prac,1,0.0,2-Back,0,m,Wed Apr 16 2025 12:33:48 GMT-0500 (Central Daylight Time),473885.8000000119,011_m_f_d_a.png,I,z,1494,8,2,2370.599999964237,471515.2000000477,8022,VNB,B,6
3,prac,1,0.0,2-Back,0,m,Wed Apr 16 2025 12:33:48 GMT-0500 (Central Daylight Time),475850.5,005_o_f_d_a.png,I,z,1064,9,2,1956.199999988079,473894.3000000119,8022,VNB,B,7
4,prac,1,0.0,2-Back,1,m,Wed Apr 16 2025 12:33:48 GMT-0500 (Central Daylight Time),477602.2000000477,007_m_m_h_a.png,I,m,966,10,2,1742.6000000238419,475859.60000002384,8022,VNB,B,8
4,prac,1,1.0,2-Back,0,z,Wed Apr 16 2025 12:33:48 GMT-0500 (Central Daylight Time),480000.3000000119,020_y_f_d_a.png,I,m,1522,11,2,2394.599999964237,477605.7000000477,8022,VNB,B,9
5,prac,1,0.0,2-Back,1,m,Wed Apr 16 2025 12:33:48 GMT-0500 (Central Daylight Time),482715.60000002384,004_o_m_n_a.png,I,m,1848,12,2,2707.100000023842,480008.5,8022,VNB,B,10
0,prac,2,0.0,2-Back,,,Wed Apr 16 2025 12:33:48 GMT-0500 (Central Daylight Time),482715.60000002384,011_m_f_n_a.png,I,a,3615,1,2,2707.100000023842,480008.5,8022,VNB,B,0
0,prac,2,0.0,2-Back,,,Wed Apr 16 2025 12:33:48 GMT-0500 (Central Daylight Time),482715.60000002384,005_o_f_h_a.png,I,a,3615,2,2,2707.100000023842,480008.5,8022,VNB,B,0
1,prac,2,0.0,2-Back,1,m,Wed Apr 16 2025 12:33:48 GMT-0500 (Central Daylight Time),493894.8000000119,004_o_m_d_a.png,I,m,1457,3,2,2306.399999976158,491588.40000003576,8022,VNB,B,1
2,prac,2,1.0,2-Back,1,z,Wed Apr 16 2025 12:33:48 GMT-0500 (Central Daylight Time),495729.2000000477,007_m_m_h_a.png,I,z,1042,4,2,1824.800000011921,493904.40000003576,8022,VNB,B,2
2,prac,2,0.0,2-Back,0,m,Wed Apr 16 2025 12:33:48 GMT-0500 (Central Daylight Time),498011.0,020_y_f_n_a.png,I,z,1406,5,2,2274.099999964237,495736.90000003576,8022,VNB,B,3
2,prac,2,1.0,2-Back,0,z,Wed Apr 16 2025 12:33:48 GMT-0500 (Central Daylight Time),500493.7000000477,004_o_m_h_a.png,I,m,1597,6,2,2474.5,498019.2000000477,8022,VNB,B,4
2,prac,2,1.0,2-Back,0,z,Wed Apr 16 2025 12:33:48 GMT-0500 (Central Daylight Time),502226.40000003576,016_y_m_n_a.png,I,m,839,7,2,1724.6000000238419,500501.8000000119,8022,VNB,B,5
3,prac,2,0.0,2-Back,1,m,Wed Apr 16 2025 12:33:48 GMT-0500 (Central Daylight Time),504127.0,011_m_f_d_a.png,I,m,1034,8,2,1892.0,502235.0,8022,VNB,B,6
3,prac,2,0.0,2-Back,0,m,Wed Apr 16 2025 12:33:48 GMT-0500 (Central Daylight Time),506542.7000000477,005_o_f_d_a.png,I,z,1542,9,2,2407.2000000476837,504135.5,8022,VNB,B,7
4,prac,2,0.0,2-Back,1,m,Wed Apr 16 2025 12:33:48 GMT-0500 (Central Daylight Time),508805.3000000119,007_m_m_h_a.png,I,m,1472,10,2,2254.0,506551.3000000119,8022,VNB,B,8
4,prac,2,1.0,2-Back,0,z,Wed Apr 16 2025 12:33:48 GMT-0500 (Central Daylight Time),510788.7000000477,020_y_f_d_a.png,I,m,1117,11,2,1979.300000011921,508809.40000003576,8022,VNB,B,9
5,prac,2,0.0,2-Back,1,m,Wed Apr 16 2025 12:33:48 GMT-0500 (Central Daylight Time),512973.8000000119,004_o_m_n_a.png,I,m,1322,12,2,2180.599999964237,510793.2000000477,8022,VNB,B,10
0,test,1,0.0,2-Back,,,Wed Apr 16 2025 12:33:48 GMT-0500 (Central Daylight Time),512973.8000000119,016_y_m_h_a.png,I,space,7983,1,2,2180.599999964237,510793.2000000477,8022,VNB,B,0
0,test,1,0.0,2-Back,,,Wed Apr 16 2025 12:33:48 GMT-0500 (Central Daylight Time),512973.8000000119,005_o_f_n_a.png,I,space,7983,2,2,2180.599999964237,510793.2000000477,8022,VNB,B,0
1,test,1,0.0,2-Back,1,z,Wed Apr 16 2025 12:33:48 GMT-0500 (Central Daylight Time),547445.0,004_o_m_h_a.png,I,z,1361,3,2,2375.5,545069.5,8022,VNB,B,1
2,test,1,0.0,2-Back,1,m,Wed Apr 16 2025 12:33:48 GMT-0500 (Central Daylight Time),549676.2000000477,011_m_f_d_a.png,I,m,1210,4,2,2221.600000023842,547454.6000000238,8022,VNB,B,2
3,test,1,1.0,2-Back,1,m,Wed Apr 16 2025 12:33:48 GMT-0500 (Central Daylight Time),551895.2000000477,016_y_m_n_a.png,I,m,1195,5,2,2213.400000035763,549681.8000000119,8022,VNB,B,3
3,test,1,0.0,2-Back,0,z,Wed Apr 16 2025 12:33:48 GMT-0500 (Central Daylight Time),554910.3000000119,020_y_f_d_a.png,I,m,1985,6,2,3005.5,551904.8000000119,8022,VNB,B,4
3,test,1,0.0,2-Back,0,m,Wed Apr 16 2025 12:33:48 GMT-0500 (Central Daylight Time),556725.1000000238,007_m_m_h_a.png,I,z,785,7,2,1805.1000000238419,554920.0,8022,VNB,B,5
4,test,1,1.0,2-Back,1,m,Wed Apr 16 2025 12:33:48 GMT-0500 (Central Daylight Time),558559.2000000477,020_y_f_n_a.png,I,m,809,8,2,1826.6000000238419,556732.6000000238,8022,VNB,B,6
4,test,1,0.0,2-Back,0,z,Wed Apr 16 2025 12:33:48 GMT-0500 (Central Daylight Time),560659.0,005_o_f_h_a.png,I,m,1082,9,2,2093.5,558565.5,8022,VNB,B,7
5,test,1,0.0,2-Back,1,m,Wed Apr 16 2025 12:33:48 GMT-0500 (Central Daylight Time),562924.8000000119,004_o_m_d_a.png,I,m,1248,10,2,2256.300000011921,560668.5,8022,VNB,B,8
5,test,1,1.0,2-Back,0,m,Wed Apr 16 2025 12:33:48 GMT-0500 (Central Daylight Time),565605.5,007_m_m_d_a.png,I,z,1659,11,2,2671.399999976158,562934.1000000238,8022,VNB,B,9
6,test,1,0.0,2-Back,1,m,Wed Apr 16 2025 12:33:48 GMT-0500 (Central Daylight Time),567738.8000000119,011_m_f_n_a.png,I,m,1104,12,2,2124.899999976158,565613.9000000358,8022,VNB,B,10
7,test,1,0.0,2-Back,1,m,Wed Apr 16 2025 12:33:48 GMT-0500 (Central Daylight Time),570204.2000000477,020_y_f_h_a.png,I,m,1438,13,2,2456.600000023842,567747.6000000238,8022,VNB,B,11
7,test,1,0.0,2-Back,0,z,Wed Apr 16 2025 12:33:48 GMT-0500 (Central Daylight Time),573237.7000000477,007_m_m_n_a.png,I,None,2016,14,2,3023.900000035763,570213.8000000119,8022,VNB,B,12
8,test,1,0.0,2-Back,1,m,Wed Apr 16 2025 12:33:48 GMT-0500 (Central Daylight Time),575303.4000000358,016_y_m_d_a.png,I,m,1035,15,2,2057.300000011921,573246.1000000238,8022,VNB,B,13
9,test,1,1.0,2-Back,1,m,Wed Apr 16 2025 12:33:48 GMT-0500 (Central Daylight Time),578135.5,011_m_f_h_a.png,I,m,1802,16,2,2824.199999988079,575311.3000000119,8022,VNB,B,14
9,test,1,0.0,2-Back,0,z,Wed Apr 16 2025 12:33:48 GMT-0500 (Central Daylight Time),580501.0,005_o_f_d_a.png,I,m,1337,17,2,2357.199999988079,578143.8000000119,8022,VNB,B,15
9,test,1,0.0,2-Back,0,m,Wed Apr 16 2025 12:33:48 GMT-0500 (Central Daylight Time),583000.6000000238,004_o_m_n_a.png,I,z,1476,18,2,2491.100000023842,580509.5,8022,VNB,B,16
0,test,2,0.0,2-Back,,,Wed Apr 16 2025 12:33:48 GMT-0500 (Central Daylight Time),583000.6000000238,007_m_m_h_a.png,I,space,26791,1,2,2491.100000023842,580509.5,8022,VNB,B,0
0,test,2,0.0,2-Back,,,Wed Apr 16 2025 12:33:48 GMT-0500 (Central Daylight Time),583000.6000000238,020_y_f_n_a.png,I,space,26791,2,2,2491.100000023842,580509.5,8022,VNB,B,0
1,test,2,1.0,2-Back,1,z,Wed Apr 16 2025 12:33:48 GMT-0500 (Central Daylight Time),616940.9000000358,005_o_f_h_a.png,I,z,863,3,2,1877.6000000238419,615063.3000000119,8022,VNB,B,1
2,test,2,0.0,2-Back,1,m,Wed Apr 16 2025 12:33:48 GMT-0500 (Central Daylight Time),618739.0,004_o_m_d_a.png,I,m,773,4,2,1790.0,616949.0,8022,VNB,B,2
3,test,2,0.0,2-Back,1,m,Wed Apr 16 2025 12:33:48 GMT-0500 (Central Daylight Time),620622.3000000119,011_m_f_d_a.png,I,m,851,5,2,1876.300000011921,618746.0,8022,VNB,B,3
4,test,2,0.0,2-Back,1,m,Wed Apr 16 2025 12:33:48 GMT-0500 (Central Daylight Time),623453.8000000119,016_y_m_h_a.png,I,m,1811,6,2,2823.399999976158,620630.4000000358,8022,VNB,B,4
5,test,2,0.0,2-Back,1,m,Wed Apr 16 2025 12:33:48 GMT-0500 (Central Daylight Time),626004.1000000238,005_o_f_n_a.png,I,m,1523,7,2,2544.100000023842,623460.0,8022,VNB,B,5
5,test,2,1.0,2-Back,0,z,Wed Apr 16 2025 12:33:48 GMT-0500 (Central Daylight Time),628236.5,004_o_m_h_a.png,I,m,1215,8,2,2225.7999999523163,626010.7000000477,8022,VNB,B,6
6,test,2,0.0,2-Back,1,m,Wed Apr 16 2025 12:33:48 GMT-0500 (Central Daylight Time),629969.2000000477,020_y_f_d_a.png,I,m,708,9,2,1726.300000011921,628242.9000000358,8022,VNB,B,7
6,test,2,0.0,2-Back,0,m,Wed Apr 16 2025 12:33:48 GMT-0500 (Central Daylight Time),632084.9000000358,016_y_m_d_a.png,I,z,1096,10,2,2108.800000011921,629976.1000000238,8022,VNB,B,8
7,test,2,0.0,2-Back,1,m,Wed Apr 16 2025 12:33:48 GMT-0500 (Central Daylight Time),634118.0,007_m_m_n_a.png,I,m,1003,11,2,2024.699999988079,632093.3000000119,8022,VNB,B,9
7,test,2,0.0,2-Back,0,m,Wed Apr 16 2025 12:33:48 GMT-0500 (Central Daylight Time),636433.0,011_m_f_h_a.png,I,z,1291,12,2,2307.7999999523163,634125.2000000477,8022,VNB,B,10
7,test,2,1.0,2-Back,0,z,Wed Apr 16 2025 12:33:48 GMT-0500 (Central Daylight Time),638749.3000000119,004_o_m_n_a.png,I,m,1286,13,2,2310.0,636439.3000000119,8022,VNB,B,11
8,test,2,0.0,2-Back,1,m,Wed Apr 16 2025 12:33:48 GMT-0500 (Central Daylight Time),640999.8000000119,005_o_f_d_a.png,I,m,1219,14,2,2241.800000011921,638758.0,8022,VNB,B,12
9,test,2,0.0,2-Back,1,m,Wed Apr 16 2025 12:33:48 GMT-0500 (Central Daylight Time),643265.8000000119,020_y_f_h_a.png,I,m,1241,15,2,2260.199999988079,641005.6000000238,8022,VNB,B,13
9,test,2,0.0,2-Back,0,z,Wed Apr 16 2025 12:33:48 GMT-0500 (Central Daylight Time),645613.2000000477,007_m_m_d_a.png,I,m,1326,16,2,2339.2000000476837,643274.0,8022,VNB,B,14
9,test,2,0.0,2-Back,0,m,Wed Apr 16 2025 12:33:48 GMT-0500 (Central Daylight Time),648113.1000000238,016_y_m_n_a.png,I,z,1465,17,2,2494.199999988079,645618.9000000358,8022,VNB,B,15
10,test,2,1.0,2-Back,1,m,Wed Apr 16 2025 12:33:48 GMT-0500 (Central Daylight Time),650196.3000000119,011_m_f_n_a.png,I,m,1056,18,2,2076.399999976158,648119.9000000358,8022,VNB,B,16
0,test,3,1.0,2-Back,,,Wed Apr 16 2025 12:33:48 GMT-0500 (Central Daylight Time),650196.3000000119,004_o_m_n_a.png,I,space,5333,1,2,2076.399999976158,648119.9000000358,8022,VNB,B,0
0,test,3,1.0,2-Back,,,Wed Apr 16 2025 12:33:48 GMT-0500 (Central Daylight Time),650196.3000000119,005_o_f_d_a.png,I,space,5333,2,2,2076.399999976158,648119.9000000358,8022,VNB,B,0
0,test,3,0.0,2-Back,0,m,Wed Apr 16 2025 12:33:48 GMT-0500 (Central Daylight Time),663624.9000000358,020_y_f_h_a.png,I,None,2014,3,2,3024.5,660600.4000000358,8022,VNB,B,1
1,test,3,0.0,2-Back,1,z,Wed Apr 16 2025 12:33:48 GMT-0500 (Central Daylight Time),665774.4000000358,011_m_f_d_a.png,I,z,1128,4,2,2141.199999988079,663633.2000000477,8022,VNB,B,2
2,test,3,1.0,2-Back,1,m,Wed Apr 16 2025 12:33:48 GMT-0500 (Central Daylight Time),667841.8000000119,016_y_m_n_a.png,I,m,1049,5,2,2058.599999964237,665783.2000000477,8022,VNB,B,3
3,test,3,0.0,2-Back,1,m,Wed Apr 16 2025 12:33:48 GMT-0500 (Central Daylight Time),670255.6000000238,004_o_m_h_a.png,I,m,1384,6,2,2407.100000023842,667848.5,8022,VNB,B,4
3,test,3,0.0,2-Back,0,z,Wed Apr 16 2025 12:33:48 GMT-0500 (Central Daylight Time),672305.7000000477,020_y_f_n_a.png,I,m,1018,7,2,2044.0,670261.7000000477,8022,VNB,B,5
4,test,3,1.0,2-Back,1,m,Wed Apr 16 2025 12:33:48 GMT-0500 (Central Daylight Time),674273.0,007_m_m_d_a.png,I,m,932,8,2,1951.5999999642372,672321.4000000358,8022,VNB,B,6
5,test,3,0.0,2-Back,1,m,Wed Apr 16 2025 12:33:48 GMT-0500 (Central Daylight Time),676505.4000000358,016_y_m_d_a.png,I,m,1199,9,2,2224.300000011921,674281.1000000238,8022,VNB,B,7
6,test,3,0.0,2-Back,1,m,Wed Apr 16 2025 12:33:48 GMT-0500 (Central Daylight Time),678386.9000000358,005_o_f_h_a.png,I,m,854,10,2,1873.300000011921,676513.6000000238,8022,VNB,B,8
7,test,3,1.0,2-Back,1,m,Wed Apr 16 2025 12:33:48 GMT-0500 (Central Daylight Time),680470.0,011_m_f_n_a.png,I,m,1062,11,2,2075.2999999523163,678394.7000000477,8022,VNB,B,9
8,test,3,1.0,2-Back,1,z,Wed Apr 16 2025 12:33:48 GMT-0500 (Central Daylight Time),682602.7000000477,007_m_m_h_a.png,I,z,1108,12,2,2124.5,680478.2000000477,8022,VNB,B,10
8,test,3,0.0,2-Back,0,m,Wed Apr 16 2025 12:33:48 GMT-0500 (Central Daylight Time),684620.3000000119,020_y_f_d_a.png,I,z,1001,13,2,2010.300000011921,682610.0,8022,VNB,B,11
8,test,3,0.0,2-Back,0,m,Wed Apr 16 2025 12:33:48 GMT-0500 (Central Daylight Time),686752.8000000119,005_o_f_n_a.png,I,z,1111,14,2,2124.399999976158,684628.4000000358,8022,VNB,B,12
9,test,3,0.0,2-Back,1,z,Wed Apr 16 2025 12:33:48 GMT-0500 (Central Daylight Time),689100.1000000238,004_o_m_d_a.png,I,z,1321,15,2,2340.100000023842,686760.0,8022,VNB,B,13
10,test,3,1.0,2-Back,1,m,Wed Apr 16 2025 12:33:48 GMT-0500 (Central Daylight Time),690932.1000000238,011_m_f_h_a.png,I,m,813,16,2,1821.300000011921,689110.8000000119,8022,VNB,B,14
11,test,3,0.0,2-Back,1,m,Wed Apr 16 2025 12:33:48 GMT-0500 (Central Daylight Time),692965.6000000238,007_m_m_n_a.png,I,m,1014,17,2,2025.300000011921,690940.3000000119,8022,VNB,B,15
12,test,3,0.0,2-Back,1,z,Wed Apr 16 2025 12:33:48 GMT-0500 (Central Daylight Time),694931.1000000238,016_y_m_h_a.png,I,z,938,18,2,1955.6000000238419,692975.5,8022,VNB,B,16
0,test,4,0.0,2-Back,,,Wed Apr 16 2025 12:33:48 GMT-0500 (Central Daylight Time),694931.1000000238,011_m_f_n_a.png,I,space,1558,1,2,1955.6000000238419,692975.5,8022,VNB,B,0
0,test,4,0.0,2-Back,,,Wed Apr 16 2025 12:33:48 GMT-0500 (Central Daylight Time),694931.1000000238,004_o_m_n_a.png,I,space,1558,2,2,1955.6000000238419,692975.5,8022,VNB,B,0
1,test,4,1.0,2-Back,1,m,Wed Apr 16 2025 12:33:48 GMT-0500 (Central Daylight Time),703429.0,016_y_m_h_a.png,I,m,696,3,2,1706.5,701722.5,8022,VNB,B,1
2,test,4,1.0,2-Back,1,m,Wed Apr 16 2025 12:33:48 GMT-0500 (Central Daylight Time),705494.5,005_o_f_d_a.png,I,m,1043,4,2,2057.699999988079,703436.8000000119,8022,VNB,B,2
3,test,4,0.0,2-Back,1,z,Wed Apr 16 2025 12:33:48 GMT-0500 (Central Daylight Time),707643.8000000119,004_o_m_h_a.png,I,z,1130,5,2,2142.899999976158,705500.9000000358,8022,VNB,B,3
4,test,4,0.0,2-Back,1,m,Wed Apr 16 2025 12:33:48 GMT-0500 (Central Daylight Time),709674.8000000119,007_m_m_n_a.png,I,m,1011,6,2,2024.3999999761581,707650.4000000358,8022,VNB,B,4
5,test,4,0.0,2-Back,1,m,Wed Apr 16 2025 12:33:48 GMT-0500 (Central Daylight Time),711926.1000000238,011_m_f_d_a.png,I,m,1226,7,2,2248.600000023842,709677.5,8022,VNB,B,5
6,test,4,0.0,2-Back,1,z,Wed Apr 16 2025 12:33:48 GMT-0500 (Central Daylight Time),714477.2000000477,020_y_f_n_a.png,I,z,1534,8,2,2541.600000023842,711935.6000000238,8022,VNB,B,6
7,test,4,1.0,2-Back,1,m,Wed Apr 16 2025 12:33:48 GMT-0500 (Central Daylight Time),716774.2000000477,005_o_f_h_a.png,I,m,1269,9,2,2290.5,714483.7000000477,8022,VNB,B,7
8,test,4,0.0,2-Back,1,m,Wed Apr 16 2025 12:33:48 GMT-0500 (Central Daylight Time),719006.3000000119,007_m_m_h_a.png,I,m,1200,10,2,2224.5,716781.8000000119,8022,VNB,B,8
9,test,4,0.0,2-Back,1,m,Wed Apr 16 2025 12:33:48 GMT-0500 (Central Daylight Time),721156.3000000119,020_y_f_d_a.png,I,m,1130,11,2,2143.699999988079,719012.6000000238,8022,VNB,B,9
10,test,4,0.0,2-Back,1,m,Wed Apr 16 2025 12:33:48 GMT-0500 (Central Daylight Time),723306.5,016_y_m_n_a.png,I,m,1116,12,2,2143.899999976158,721162.6000000238,8022,VNB,B,10
11,test,4,0.0,2-Back,1,z,Wed Apr 16 2025 12:33:48 GMT-0500 (Central Daylight Time),725288.0,004_o_m_d_a.png,I,z,962,13,2,1973.0999999642372,723314.9000000358,8022,VNB,B,11
12,test,4,1.0,2-Back,1,m,Wed Apr 16 2025 12:33:48 GMT-0500 (Central Daylight Time),727204.4000000358,011_m_f_h_a.png,I,m,888,14,2,1910.1000000238419,725294.3000000119,8022,VNB,B,12
13,test,4,1.0,2-Back,1,m,Wed Apr 16 2025 12:33:48 GMT-0500 (Central Daylight Time),729221.4000000358,020_y_f_h_a.png,I,m,988,15,2,2008.5,727212.9000000358,8022,VNB,B,13
14,test,4,0.0,2-Back,1,m,Wed Apr 16 2025 12:33:48 GMT-0500 (Central Daylight Time),731269.3000000119,005_o_f_n_a.png,I,m,1020,16,2,2042.5,729226.8000000119,8022,VNB,B,14
14,test,4,0.0,2-Back,0,m,Wed Apr 16 2025 12:33:48 GMT-0500 (Central Daylight Time),733319.0,016_y_m_d_a.png,I,z,1017,17,2,2042.0999999642372,731276.9000000358,8022,VNB,B,15
15,test,4,1.0,2-Back,1,m,Wed Apr 16 2025 12:33:48 GMT-0500 (Central Daylight Time),735752.2000000477,007_m_m_d_a.png,I,m,1401,18,2,2426.300000011921,733325.9000000358,8022,VNB,B,16
0,test,5,1.0,2-Back,,,Wed Apr 16 2025 12:33:48 GMT-0500 (Central Daylight Time),735752.2000000477,020_y_f_d_a.png,I,space,2904,1,2,2426.300000011921,733325.9000000358,8022,VNB,B,0
0,test,5,1.0,2-Back,,,Wed Apr 16 2025 12:33:48 GMT-0500 (Central Daylight Time),735752.2000000477,005_o_f_h_a.png,I,space,2904,2,2,2426.300000011921,733325.9000000358,8022,VNB,B,0
0,test,5,1.0,2-Back,0,z,Wed Apr 16 2025 12:33:48 GMT-0500 (Central Daylight Time),745948.9000000358,004_o_m_d_a.png,I,m,1017,3,2,2042.9000000357628,743906.0,8022,VNB,B,1
1,test,5,1.0,2-Back,1,m,Wed Apr 16 2025 12:33:48 GMT-0500 (Central Daylight Time),748099.6000000238,011_m_f_n_a.png,I,m,1124,4,2,2143.800000011921,745955.8000000119,8022,VNB,B,2
1,test,5,0.0,2-Back,0,m,Wed Apr 16 2025 12:33:48 GMT-0500 (Central Daylight Time),750080.1000000238,007_m_m_h_a.png,I,z,958,5,2,1972.800000011921,748107.3000000119,8022,VNB,B,3
2,test,5,0.0,2-Back,1,z,Wed Apr 16 2025 12:33:48 GMT-0500 (Central Daylight Time),751880.2000000477,020_y_f_n_a.png,I,z,768,6,2,1792.9000000357628,750087.3000000119,8022,VNB,B,4
3,test,5,0.0,2-Back,1,m,Wed Apr 16 2025 12:33:48 GMT-0500 (Central Daylight Time),753645.1000000238,005_o_f_d_a.png,I,m,737,7,2,1757.5,751887.6000000238,8022,VNB,B,5
4,test,5,0.0,2-Back,1,m,Wed Apr 16 2025 12:33:48 GMT-0500 (Central Daylight Time),755962.0,004_o_m_h_a.png,I,m,1288,8,2,2307.199999988079,753654.8000000119,8022,VNB,B,6
5,test,5,1.0,2-Back,1,z,Wed Apr 16 2025 12:33:48 GMT-0500 (Central Daylight Time),757796.7000000477,011_m_f_d_a.png,I,z,816,9,2,1826.800000011921,755969.9000000358,8022,VNB,B,7
6,test,5,0.0,2-Back,1,m,Wed Apr 16 2025 12:33:48 GMT-0500 (Central Daylight Time),759545.9000000358,016_y_m_n_a.png,I,m,732,10,2,1742.1000000238419,757803.8000000119,8022,VNB,B,8
7,test,5,0.0,2-Back,1,m,Wed Apr 16 2025 12:33:48 GMT-0500 (Central Daylight Time),761411.4000000358,007_m_m_n_a.png,I,m,850,11,2,1860.300000011921,759551.1000000238,8022,VNB,B,9
7,test,5,0.0,2-Back,0,m,Wed Apr 16 2025 12:33:48 GMT-0500 (Central Daylight Time),763109.6000000238,020_y_f_h_a.png,I,z,679,12,2,1689.699999988079,761419.9000000358,8022,VNB,B,10
8,test,5,0.0,2-Back,1,m,Wed Apr 16 2025 12:33:48 GMT-0500 (Central Daylight Time),765109.7000000477,016_y_m_d_a.png,I,m,971,13,2,1992.1000000238419,763117.6000000238,8022,VNB,B,11
9,test,5,1.0,2-Back,1,z,Wed Apr 16 2025 12:33:48 GMT-0500 (Central Daylight Time),767008.6000000238,011_m_f_h_a.png,I,z,867,14,2,1890.0,765118.6000000238,8022,VNB,B,12
9,test,5,0.0,2-Back,0,m,Wed Apr 16 2025 12:33:48 GMT-0500 (Central Daylight Time),768940.8000000119,004_o_m_n_a.png,I,z,911,15,2,1923.0999999642372,767017.7000000477,8022,VNB,B,13
10,test,5,0.0,2-Back,1,m,Wed Apr 16 2025 12:33:48 GMT-0500 (Central Daylight Time),770740.7000000477,007_m_m_d_a.png,I,m,771,16,2,1791.5,768949.2000000477,8022,VNB,B,14
10,test,5,0.0,2-Back,0,z,Wed Apr 16 2025 12:33:48 GMT-0500 (Central Daylight Time),772939.3000000119,005_o_f_n_a.png,I,m,1172,17,2,2190.599999964237,770748.7000000477,8022,VNB,B,15
11,test,5,1.0,2-Back,1,m,Wed Apr 16 2025 12:33:48 GMT-0500 (Central Daylight Time),774690.9000000358,016_y_m_h_a.png,I,m,733,18,2,1745.4000000357628,772945.5,8022,VNB,B,16
