acc_sum,block,block_c,change,condition,correct,correct_response,datetime,endtime,face,project,response,response_time,row_sel,session_number,start_end,starttime,subject_id,task,task_vers,trial
0,prac,1,,1-Back,,,Thu Feb 06 2025 11:40:03 GMT-0600 (Central Standard Time),,124_o_f_d_a.png,I,space,11986,1,1,,,8022,VNB,A,0
1,prac,1,0.0,1-Back,1,m,Thu Feb 06 2025 11:40:03 GMT-0600 (Central Standard Time),186742.5,071_y_f_n_a.png,I,m,1723,2,1,2533.5999999940395,184208.90000000596,8022,VNB,A,1
2,prac,1,0.0,1-Back,1,m,Thu Feb 06 2025 11:40:03 GMT-0600 (Central Standard Time),188541.79999998212,165_m_m_h_a.png,I,m,979,3,1,1787.0,186754.79999998212,8022,VNB,A,2
3,prac,1,0.0,1-Back,1,m,Thu Feb 06 2025 11:40:03 GMT-0600 (Central Standard Time),190441.40000000596,109_y_m_d_a.png,I,m,1073,4,1,1887.300000011921,188554.09999999404,8022,VNB,A,3
4,prac,1,0.0,1-Back,1,m,Thu Feb 06 2025 11:40:03 GMT-0600 (Central Standard Time),192557.29999998212,124_o_f_n_a.png,I,m,1267,5,1,2104.0,190453.29999998212,8022,VNB,A,4
5,prac,1,1.0,1-Back,1,z,Thu Feb 06 2025 11:40:03 GMT-0600 (Central Standard Time),194923.19999998808,109_y_m_n_a.png,I,z,1545,6,1,2354.0,192569.19999998808,8022,VNB,A,5
6,prac,1,0.0,1-Back,1,m,Thu Feb 06 2025 11:40:03 GMT-0600 (Central Standard Time),196522.79999998212,039_o_m_h_a.png,I,m,791,7,1,1585.5999999940395,194937.19999998808,8022,VNB,A,6
7,prac,1,0.0,1-Back,1,m,Thu Feb 06 2025 11:40:03 GMT-0600 (Central Standard Time),198372.0,139_m_f_d_a.png,I,m,1040,8,1,1836.9000000059605,196535.09999999404,8022,VNB,A,7
8,prac,1,1.0,1-Back,1,z,Thu Feb 06 2025 11:40:03 GMT-0600 (Central Standard Time),200621.5,071_y_f_d_a.png,I,z,1431,9,1,2237.5999999940395,198383.90000000596,8022,VNB,A,8
9,prac,1,0.0,1-Back,1,m,Thu Feb 06 2025 11:40:03 GMT-0600 (Central Standard Time),202753.90000000596,165_m_m_n_a.png,I,m,1317,10,1,2120.300000011921,200633.59999999404,8022,VNB,A,9
10,prac,1,0.0,1-Back,1,m,Thu Feb 06 2025 11:40:03 GMT-0600 (Central Standard Time),204470.59999999404,124_o_f_h_a.png,I,m,880,11,1,1704.800000011921,202765.79999998212,8022,VNB,A,10
11,prac,1,0.0,1-Back,1,m,Thu Feb 06 2025 11:40:03 GMT-0600 (Central Standard Time),206319.90000000596,109_y_m_d_a.png,I,m,1061,12,1,1836.7000000178814,204483.19999998808,8022,VNB,A,11
0,test,1,0.0,1-Back,,,Thu Feb 06 2025 11:40:03 GMT-0600 (Central Standard Time),206319.90000000596,071_y_f_d_a.png,I,space,6950,1,1,1836.7000000178814,204483.19999998808,8022,VNB,A,0
1,test,1,0.0,1-Back,1,m,Thu Feb 06 2025 11:40:03 GMT-0600 (Central Standard Time),223280.90000000596,139_m_f_n_a.png,I,m,1274,2,1,2288.600000023842,220992.29999998212,8022,VNB,A,1
2,test,1,0.0,1-Back,1,m,Thu Feb 06 2025 11:40:03 GMT-0600 (Central Standard Time),225113.79999998212,039_o_m_h_a.png,I,m,807,3,1,1821.5999999940395,223292.19999998808,8022,VNB,A,2
3,test,1,1.0,1-Back,1,z,Thu Feb 06 2025 11:40:03 GMT-0600 (Central Standard Time),227146.5,165_m_m_h_a.png,I,z,1014,4,1,2021.5999999940395,225124.90000000596,8022,VNB,A,3
4,test,1,0.0,1-Back,1,m,Thu Feb 06 2025 11:40:03 GMT-0600 (Central Standard Time),229478.90000000596,124_o_f_n_a.png,I,m,1302,5,1,2321.2000000178814,227157.69999998808,8022,VNB,A,4
4,test,1,0.0,1-Back,0,m,Thu Feb 06 2025 11:40:03 GMT-0600 (Central Standard Time),231395.0,109_y_m_d_a.png,I,z,882,6,1,1904.9000000059605,229490.09999999404,8022,VNB,A,5
4,test,1,1.0,1-Back,0,z,Thu Feb 06 2025 11:40:03 GMT-0600 (Central Standard Time),233527.69999998808,139_m_f_d_a.png,I,m,1101,7,1,2122.0999999940395,231405.59999999404,8022,VNB,A,6
5,test,1,0.0,1-Back,1,m,Thu Feb 06 2025 11:40:03 GMT-0600 (Central Standard Time),235527.09999999404,071_y_f_h_a.png,I,m,976,8,1,1987.0999999940395,233540.0,8022,VNB,A,7
6,test,1,0.0,1-Back,1,m,Thu Feb 06 2025 11:40:03 GMT-0600 (Central Standard Time),237593.19999998808,039_o_m_n_a.png,I,m,1032,9,1,2055.2999999821186,235537.90000000596,8022,VNB,A,8
7,test,1,0.0,1-Back,1,m,Thu Feb 06 2025 11:40:03 GMT-0600 (Central Standard Time),239575.90000000596,109_y_m_h_a.png,I,m,951,10,1,1971.9000000059605,237604.0,8022,VNB,A,9
8,test,1,0.0,1-Back,1,m,Thu Feb 06 2025 11:40:03 GMT-0600 (Central Standard Time),241741.90000000596,039_o_m_d_a.png,I,m,1136,11,1,2154.5,239587.40000000596,8022,VNB,A,10
9,test,1,1.0,1-Back,1,z,Thu Feb 06 2025 11:40:03 GMT-0600 (Central Standard Time),243741.40000000596,124_o_f_d_a.png,I,z,978,12,1,1985.800000011921,241755.59999999404,8022,VNB,A,11
10,test,1,0.0,1-Back,1,m,Thu Feb 06 2025 11:40:03 GMT-0600 (Central Standard Time),245966.09999999404,165_m_m_n_a.png,I,m,1189,13,1,2213.4000000059605,243752.69999998808,8022,VNB,A,12
11,test,1,1.0,1-Back,1,z,Thu Feb 06 2025 11:40:03 GMT-0600 (Central Standard Time),248189.79999998212,071_y_f_n_a.png,I,z,1186,14,1,2208.899999976158,245980.90000000596,8022,VNB,A,13
12,test,1,0.0,1-Back,1,m,Thu Feb 06 2025 11:40:03 GMT-0600 (Central Standard Time),250089.29999998212,139_m_f_h_a.png,I,m,866,15,1,1888.2999999821186,248201.0,8022,VNB,A,14
13,test,1,0.0,1-Back,1,m,Thu Feb 06 2025 11:40:03 GMT-0600 (Central Standard Time),252205.29999998212,165_m_m_d_a.png,I,m,1088,16,1,2102.0999999940395,250103.19999998808,8022,VNB,A,15
14,test,1,0.0,1-Back,1,m,Thu Feb 06 2025 11:40:03 GMT-0600 (Central Standard Time),254354.59999999404,109_y_m_n_a.png,I,m,1116,17,1,2138.4000000059605,252216.19999998808,8022,VNB,A,16
15,test,1,0.0,1-Back,1,m,Thu Feb 06 2025 11:40:03 GMT-0600 (Central Standard Time),256270.5,124_o_f_h_a.png,I,m,893,18,1,1904.800000011921,254365.69999998808,8022,VNB,A,17
0,test,2,0.0,1-Back,,,Thu Feb 06 2025 11:40:03 GMT-0600 (Central Standard Time),256270.5,109_y_m_n_a.png,I,space,1922,1,1,1904.800000011921,254365.69999998808,8022,VNB,A,0
1,test,2,0.0,1-Back,1,m,Thu Feb 06 2025 11:40:03 GMT-0600 (Central Standard Time),262185.40000000596,071_y_f_h_a.png,I,m,940,2,1,1954.5,260230.90000000596,8022,VNB,A,1
2,test,2,1.0,1-Back,1,m,Thu Feb 06 2025 11:40:03 GMT-0600 (Central Standard Time),264751.59999999404,039_o_m_n_a.png,I,m,1534,3,1,2555.0999999940395,262196.5,8022,VNB,A,2
2,test,2,0.0,1-Back,0,m,Thu Feb 06 2025 11:40:03 GMT-0600 (Central Standard Time),266983.5,139_m_f_d_a.png,I,z,1208,4,1,2218.0,264765.5,8022,VNB,A,3
2,test,2,0.0,1-Back,0,z,Thu Feb 06 2025 11:40:03 GMT-0600 (Central Standard Time),269461.90000000596,165_m_m_d_a.png,I,m,1313,5,1,2463.300000011921,266998.59999999404,8022,VNB,A,4
3,test,2,0.0,1-Back,1,m,Thu Feb 06 2025 11:40:03 GMT-0600 (Central Standard Time),271315.7999999821,109_y_m_h_a.png,I,m,822,6,1,1839.3999999761581,269476.40000000596,8022,VNB,A,5
4,test,2,1.0,1-Back,1,z,Thu Feb 06 2025 11:40:03 GMT-0600 (Central Standard Time),273298.5,124_o_f_h_a.png,I,z,949,7,1,1972.0,271326.5,8022,VNB,A,6
5,test,2,0.0,1-Back,1,m,Thu Feb 06 2025 11:40:03 GMT-0600 (Central Standard Time),275414.5,139_m_f_n_a.png,I,m,1086,8,1,2104.7000000178814,273309.7999999821,8022,VNB,A,7
6,test,2,0.0,1-Back,1,m,Thu Feb 06 2025 11:40:03 GMT-0600 (Central Standard Time),277464.0,071_y_f_d_a.png,I,m,1025,9,1,2038.4000000059605,275425.59999999404,8022,VNB,A,8
7,test,2,0.0,1-Back,1,m,Thu Feb 06 2025 11:40:03 GMT-0600 (Central Standard Time),279613.5,165_m_m_n_a.png,I,m,1129,10,1,2139.0,277474.5,8022,VNB,A,9
8,test,2,1.0,1-Back,1,m,Thu Feb 06 2025 11:40:03 GMT-0600 (Central Standard Time),281612.59999999404,139_m_f_h_a.png,I,m,970,11,1,1985.9000000059605,279626.6999999881,8022,VNB,A,10
9,test,2,0.0,1-Back,1,z,Thu Feb 06 2025 11:40:03 GMT-0600 (Central Standard Time),283695.5,039_o_m_h_a.png,I,z,1060,12,1,2070.5999999940395,281624.90000000596,8022,VNB,A,11
10,test,2,0.0,1-Back,1,m,Thu Feb 06 2025 11:40:03 GMT-0600 (Central Standard Time),285694.7999999821,109_y_m_d_a.png,I,m,977,13,1,1988.199999988079,283706.59999999404,8022,VNB,A,12
11,test,2,0.0,1-Back,1,m,Thu Feb 06 2025 11:40:03 GMT-0600 (Central Standard Time),287777.59999999404,124_o_f_n_a.png,I,m,1049,14,1,2071.5999999940395,285706.0,8022,VNB,A,13
11,test,2,0.0,1-Back,0,z,Thu Feb 06 2025 11:40:03 GMT-0600 (Central Standard Time),290026.90000000596,071_y_f_n_a.png,I,m,1215,15,1,2238.2000000178814,287788.6999999881,8022,VNB,A,14
12,test,2,1.0,1-Back,1,m,Thu Feb 06 2025 11:40:03 GMT-0600 (Central Standard Time),292126.2999999821,165_m_m_h_a.png,I,m,1070,16,1,2087.399999976158,290038.90000000596,8022,VNB,A,15
12,test,2,0.0,1-Back,0,m,Thu Feb 06 2025 11:40:03 GMT-0600 (Central Standard Time),295158.59999999404,124_o_f_d_a.png,I,None,2014,17,1,3021.699999988079,292136.90000000596,8022,VNB,A,16
13,test,2,1.0,1-Back,1,z,Thu Feb 06 2025 11:40:03 GMT-0600 (Central Standard Time),297224.2999999821,039_o_m_d_a.png,I,z,1033,18,1,2054.0999999940395,295170.1999999881,8022,VNB,A,17
0,test,3,1.0,1-Back,,,Thu Feb 06 2025 11:40:03 GMT-0600 (Central Standard Time),297224.2999999821,124_o_f_h_a.png,I,space,1297,1,1,2054.0999999940395,295170.1999999881,8022,VNB,A,0
1,test,3,0.0,1-Back,1,m,Thu Feb 06 2025 11:40:03 GMT-0600 (Central Standard Time),303356.0,139_m_f_d_a.png,I,m,1746,2,1,2754.800000011921,300601.1999999881,8022,VNB,A,1
2,test,3,1.0,1-Back,1,m,Thu Feb 06 2025 11:40:03 GMT-0600 (Central Standard Time),305555.0,165_m_m_n_a.png,I,m,1181,3,1,2189.300000011921,303365.6999999881,8022,VNB,A,2
3,test,3,0.0,1-Back,1,z,Thu Feb 06 2025 11:40:03 GMT-0600 (Central Standard Time),307704.40000000596,124_o_f_n_a.png,I,z,1125,4,1,2138.4000000059605,305566.0,8022,VNB,A,3
4,test,3,1.0,1-Back,1,m,Thu Feb 06 2025 11:40:03 GMT-0600 (Central Standard Time),309803.7999999821,039_o_m_d_a.png,I,m,1071,5,1,2088.0,307715.7999999821,8022,VNB,A,4
5,test,3,0.0,1-Back,1,m,Thu Feb 06 2025 11:40:03 GMT-0600 (Central Standard Time),311620.0,071_y_f_h_a.png,I,m,796,6,1,1805.0,309815.0,8022,VNB,A,5
6,test,3,0.0,1-Back,1,z,Thu Feb 06 2025 11:40:03 GMT-0600 (Central Standard Time),313769.59999999404,109_y_m_h_a.png,I,z,1123,7,1,2138.800000011921,311630.7999999821,8022,VNB,A,6
7,test,3,0.0,1-Back,1,m,Thu Feb 06 2025 11:40:03 GMT-0600 (Central Standard Time),315768.90000000596,139_m_f_n_a.png,I,m,968,8,1,1988.6000000238419,313780.2999999821,8022,VNB,A,7
8,test,3,0.0,1-Back,1,m,Thu Feb 06 2025 11:40:03 GMT-0600 (Central Standard Time),317734.90000000596,071_y_f_d_a.png,I,m,935,9,1,1954.5,315780.40000000596,8022,VNB,A,8
9,test,3,1.0,1-Back,1,m,Thu Feb 06 2025 11:40:03 GMT-0600 (Central Standard Time),319950.6999999881,039_o_m_n_a.png,I,m,1193,10,1,2205.0,317745.6999999881,8022,VNB,A,9
10,test,3,0.0,1-Back,1,m,Thu Feb 06 2025 11:40:03 GMT-0600 (Central Standard Time),322116.6999999881,165_m_m_h_a.png,I,m,1138,11,1,2155.4000000059605,319961.2999999821,8022,VNB,A,10
11,test,3,0.0,1-Back,1,z,Thu Feb 06 2025 11:40:03 GMT-0600 (Central Standard Time),324082.6999999881,139_m_f_h_a.png,I,z,939,12,1,1955.0999999940395,322127.59999999404,8022,VNB,A,11
12,test,3,1.0,1-Back,1,m,Thu Feb 06 2025 11:40:03 GMT-0600 (Central Standard Time),326098.7999999821,124_o_f_d_a.png,I,m,990,13,1,2005.2999999821186,324093.5,8022,VNB,A,12
13,test,3,0.0,1-Back,1,z,Thu Feb 06 2025 11:40:03 GMT-0600 (Central Standard Time),328248.09999999404,165_m_m_d_a.png,I,z,1117,14,1,2137.5999999940395,326110.5,8022,VNB,A,13
14,test,3,0.0,1-Back,1,m,Thu Feb 06 2025 11:40:03 GMT-0600 (Central Standard Time),330147.59999999404,109_y_m_n_a.png,I,m,873,15,1,1886.199999988079,328261.40000000596,8022,VNB,A,14
15,test,3,1.0,1-Back,1,m,Thu Feb 06 2025 11:40:03 GMT-0600 (Central Standard Time),332230.1999999881,039_o_m_h_a.png,I,m,1060,16,1,2070.5,330159.6999999881,8022,VNB,A,15
16,test,3,0.0,1-Back,1,m,Thu Feb 06 2025 11:40:03 GMT-0600 (Central Standard Time),334429.59999999404,109_y_m_d_a.png,I,m,1170,17,1,2187.5999999940395,332242.0,8022,VNB,A,16
16,test,3,1.0,1-Back,0,m,Thu Feb 06 2025 11:40:03 GMT-0600 (Central Standard Time),336795.2999999821,071_y_f_n_a.png,I,z,1347,18,1,2353.2999999821186,334442.0,8022,VNB,A,17
0,test,4,1.0,1-Back,,,Thu Feb 06 2025 11:40:03 GMT-0600 (Central Standard Time),336795.2999999821,165_m_m_d_a.png,I,space,1182,1,1,2353.2999999821186,334442.0,8022,VNB,A,0
1,test,4,0.0,1-Back,1,z,Thu Feb 06 2025 11:40:03 GMT-0600 (Central Standard Time),342360.5,039_o_m_d_a.png,I,z,1192,2,1,2207.4000000059605,340153.09999999404,8022,VNB,A,1
2,test,4,0.0,1-Back,1,m,Thu Feb 06 2025 11:40:03 GMT-0600 (Central Standard Time),344259.59999999404,109_y_m_h_a.png,I,m,872,3,1,1888.0999999940395,342371.5,8022,VNB,A,2
3,test,4,0.0,1-Back,1,m,Thu Feb 06 2025 11:40:03 GMT-0600 (Central Standard Time),346625.59999999404,139_m_f_n_a.png,I,m,1332,4,1,2355.0,344270.59999999404,8022,VNB,A,3
4,test,4,1.0,1-Back,1,m,Thu Feb 06 2025 11:40:03 GMT-0600 (Central Standard Time),348541.6999999881,124_o_f_h_a.png,I,m,895,5,1,1904.699999988079,346637.0,8022,VNB,A,4
5,test,4,0.0,1-Back,1,m,Thu Feb 06 2025 11:40:03 GMT-0600 (Central Standard Time),350774.5,165_m_m_n_a.png,I,m,1203,6,1,2221.5999999940395,348552.90000000596,8022,VNB,A,5
6,test,4,0.0,1-Back,1,m,Thu Feb 06 2025 11:40:03 GMT-0600 (Central Standard Time),352773.90000000596,109_y_m_d_a.png,I,m,978,7,1,1987.1000000238419,350786.7999999821,8022,VNB,A,6
7,test,4,1.0,1-Back,1,z,Thu Feb 06 2025 11:40:03 GMT-0600 (Central Standard Time),354873.1999999881,071_y_f_d_a.png,I,z,1066,8,1,2088.699999988079,352784.5,8022,VNB,A,7
8,test,4,0.0,1-Back,1,m,Thu Feb 06 2025 11:40:03 GMT-0600 (Central Standard Time),356689.2999999821,139_m_f_h_a.png,I,m,791,9,1,1802.3999999761581,354886.90000000596,8022,VNB,A,8
9,test,4,0.0,1-Back,1,z,Thu Feb 06 2025 11:40:03 GMT-0600 (Central Standard Time),358705.2999999821,039_o_m_h_a.png,I,z,991,10,1,2004.5999999940395,356700.6999999881,8022,VNB,A,9
10,test,4,1.0,1-Back,1,m,Thu Feb 06 2025 11:40:03 GMT-0600 (Central Standard Time),361321.09999999404,124_o_f_n_a.png,I,m,1592,11,1,2604.5,358716.59999999404,8022,VNB,A,10
11,test,4,0.0,1-Back,1,m,Thu Feb 06 2025 11:40:03 GMT-0600 (Central Standard Time),363371.7999999821,139_m_f_d_a.png,I,m,1032,12,1,2039.699999988079,361332.09999999404,8022,VNB,A,11
12,test,4,0.0,1-Back,1,m,Thu Feb 06 2025 11:40:03 GMT-0600 (Central Standard Time),365869.7999999821,071_y_f_n_a.png,I,m,1477,13,1,2484.199999988079,363385.59999999404,8022,VNB,A,12
12,test,4,0.0,1-Back,0,m,Thu Feb 06 2025 11:40:03 GMT-0600 (Central Standard Time),368302.2999999821,124_o_f_d_a.png,I,z,1411,14,1,2421.199999988079,365881.09999999404,8022,VNB,A,13
13,test,4,0.0,1-Back,1,m,Thu Feb 06 2025 11:40:03 GMT-0600 (Central Standard Time),370268.40000000596,071_y_f_h_a.png,I,m,946,15,1,1954.0,368314.40000000596,8022,VNB,A,14
14,test,4,1.0,1-Back,1,z,Thu Feb 06 2025 11:40:03 GMT-0600 (Central Standard Time),372684.1999999881,165_m_m_h_a.png,I,z,1395,16,1,2404.7999999821186,370279.40000000596,8022,VNB,A,15
15,test,4,0.0,1-Back,1,m,Thu Feb 06 2025 11:40:03 GMT-0600 (Central Standard Time),374983.59999999404,039_o_m_n_a.png,I,m,1268,17,1,2288.199999988079,372695.40000000596,8022,VNB,A,16
15,test,4,1.0,1-Back,0,z,Thu Feb 06 2025 11:40:03 GMT-0600 (Central Standard Time),378016.09999999404,109_y_m_n_a.png,I,None,2014,18,1,3021.4000000059605,374994.6999999881,8022,VNB,A,17
0,test,5,1.0,1-Back,,,Thu Feb 06 2025 11:40:03 GMT-0600 (Central Standard Time),378016.09999999404,039_o_m_n_a.png,I,space,2017,1,1,3021.4000000059605,374994.6999999881,8022,VNB,A,0
1,test,5,1.0,1-Back,1,m,Thu Feb 06 2025 11:40:03 GMT-0600 (Central Standard Time),384215.09999999404,124_o_f_h_a.png,I,m,1120,2,1,2138.199999988079,382076.90000000596,8022,VNB,A,1
2,test,5,0.0,1-Back,1,m,Thu Feb 06 2025 11:40:03 GMT-0600 (Central Standard Time),386463.2999999821,109_y_m_d_a.png,I,m,1219,3,1,2237.899999976158,384225.40000000596,8022,VNB,A,2
3,test,5,0.0,1-Back,1,z,Thu Feb 06 2025 11:40:03 GMT-0600 (Central Standard Time),388762.6999999881,039_o_m_d_a.png,I,z,1273,4,1,2288.4000000059605,386474.2999999821,8022,VNB,A,3
3,test,5,0.0,1-Back,0,m,Thu Feb 06 2025 11:40:03 GMT-0600 (Central Standard Time),391628.40000000596,139_m_f_h_a.png,I,z,1846,5,1,2855.100000023842,388773.2999999821,8022,VNB,A,4
4,test,5,0.0,1-Back,1,m,Thu Feb 06 2025 11:40:03 GMT-0600 (Central Standard Time),393760.90000000596,071_y_f_n_a.png,I,m,1099,6,1,2120.0,391640.90000000596,8022,VNB,A,5
5,test,5,1.0,1-Back,1,z,Thu Feb 06 2025 11:40:03 GMT-0600 (Central Standard Time),395877.0,124_o_f_n_a.png,I,z,1087,7,1,2105.0,393772.0,8022,VNB,A,6
6,test,5,0.0,1-Back,1,m,Thu Feb 06 2025 11:40:03 GMT-0600 (Central Standard Time),397893.0,139_m_f_d_a.png,I,m,996,8,1,2005.4000000059605,395887.59999999404,8022,VNB,A,7
7,test,5,0.0,1-Back,1,m,Thu Feb 06 2025 11:40:03 GMT-0600 (Central Standard Time),400659.09999999404,109_y_m_h_a.png,I,m,1732,9,1,2752.199999988079,397906.90000000596,8022,VNB,A,8
8,test,5,0.0,1-Back,1,m,Thu Feb 06 2025 11:40:03 GMT-0600 (Central Standard Time),403291.40000000596,071_y_f_d_a.png,I,m,1605,10,1,2620.2000000178814,400671.1999999881,8022,VNB,A,9
8,test,5,0.0,1-Back,0,m,Thu Feb 06 2025 11:40:03 GMT-0600 (Central Standard Time),406323.59999999404,165_m_m_n_a.png,I,None,2013,11,1,3020.800000011921,403302.7999999821,8022,VNB,A,10
9,test,5,1.0,1-Back,1,z,Thu Feb 06 2025 11:40:03 GMT-0600 (Central Standard Time),408439.7999999821,139_m_f_n_a.png,I,z,1085,12,1,2103.5999999940395,406336.1999999881,8022,VNB,A,11
10,test,5,0.0,1-Back,1,m,Thu Feb 06 2025 11:40:03 GMT-0600 (Central Standard Time),410339.1999999881,039_o_m_h_a.png,I,m,872,13,1,1888.5,408450.6999999881,8022,VNB,A,12
11,test,5,0.0,1-Back,1,z,Thu Feb 06 2025 11:40:03 GMT-0600 (Central Standard Time),412455.1999999881,165_m_m_h_a.png,I,z,1093,14,1,2104.699999988079,410350.5,8022,VNB,A,13
12,test,5,1.0,1-Back,1,m,Thu Feb 06 2025 11:40:03 GMT-0600 (Central Standard Time),414571.09999999404,124_o_f_d_a.png,I,m,1090,15,1,2104.5,412466.59999999404,8022,VNB,A,14
13,test,5,0.0,1-Back,1,m,Thu Feb 06 2025 11:40:03 GMT-0600 (Central Standard Time),416687.1999999881,109_y_m_n_a.png,I,m,1086,16,1,2105.2999999821186,414581.90000000596,8022,VNB,A,15
14,test,5,0.0,1-Back,1,m,Thu Feb 06 2025 11:40:03 GMT-0600 (Central Standard Time),418703.1999999881,071_y_f_h_a.png,I,m,984,17,1,2004.5999999940395,416698.59999999404,8022,VNB,A,16
15,test,5,0.0,1-Back,1,m,Thu Feb 06 2025 11:40:03 GMT-0600 (Central Standard Time),420785.7999999821,165_m_m_d_a.png,I,m,1048,18,1,2071.5,418714.2999999821,8022,VNB,A,17
0,prac,1,0.0,2-Back,,,Thu Feb 06 2025 11:40:03 GMT-0600 (Central Standard Time),420785.7999999821,139_m_f_n_a.png,I,space,2925,1,1,2071.5,418714.2999999821,8022,VNB,A,0
0,prac,1,0.0,2-Back,,,Thu Feb 06 2025 11:40:03 GMT-0600 (Central Standard Time),420785.7999999821,124_o_f_h_a.png,I,space,2925,2,1,2071.5,418714.2999999821,8022,VNB,A,0
0,prac,1,0.0,2-Back,0,m,Thu Feb 06 2025 11:40:03 GMT-0600 (Central Standard Time),551195.099999994,039_o_m_d_a.png,I,None,2013,3,1,2803.800000011921,548391.2999999821,8022,VNB,A,1
0,prac,1,1.0,2-Back,0,z,Thu Feb 06 2025 11:40:03 GMT-0600 (Central Standard Time),554011.0,165_m_m_h_a.png,I,None,2012,4,1,2805.2000000178814,551205.7999999821,8022,VNB,A,2
1,prac,1,0.0,2-Back,1,m,Thu Feb 06 2025 11:40:03 GMT-0600 (Central Standard Time),556576.599999994,071_y_f_n_a.png,I,m,1753,5,1,2553.9000000059605,554022.6999999881,8022,VNB,A,3
2,prac,1,1.0,2-Back,1,z,Thu Feb 06 2025 11:40:03 GMT-0600 (Central Standard Time),558543.0,039_o_m_h_a.png,I,z,1149,6,1,1954.9000000059605,556588.099999994,8022,VNB,A,4
2,prac,1,1.0,2-Back,0,z,Thu Feb 06 2025 11:40:03 GMT-0600 (Central Standard Time),561008.5,109_y_m_n_a.png,I,m,1647,7,1,2453.0,558555.5,8022,VNB,A,5
3,prac,1,0.0,2-Back,1,m,Thu Feb 06 2025 11:40:03 GMT-0600 (Central Standard Time),563124.6999999881,139_m_f_d_a.png,I,m,1300,8,1,2104.7999999821186,561019.900000006,8022,VNB,A,6
3,prac,1,0.0,2-Back,0,m,Thu Feb 06 2025 11:40:03 GMT-0600 (Central Standard Time),565057.5,124_o_f_d_a.png,I,z,1080,9,1,1921.0999999940395,563136.400000006,8022,VNB,A,7
3,prac,1,0.0,2-Back,0,m,Thu Feb 06 2025 11:40:03 GMT-0600 (Central Standard Time),567840.1999999881,165_m_m_h_a.png,I,None,2002,10,1,2770.0,565070.1999999881,8022,VNB,A,8
3,prac,1,1.0,2-Back,0,z,Thu Feb 06 2025 11:40:03 GMT-0600 (Central Standard Time),570655.6999999881,071_y_f_d_a.png,I,None,2007,11,1,2799.0,567856.6999999881,8022,VNB,A,9
3,prac,1,0.0,2-Back,0,m,Thu Feb 06 2025 11:40:03 GMT-0600 (Central Standard Time),573471.7999999821,039_o_m_n_a.png,I,None,2003,12,1,2804.699999988079,570667.099999994,8022,VNB,A,10
0,prac,2,0.0,2-Back,,,Thu Feb 06 2025 11:40:03 GMT-0600 (Central Standard Time),573471.7999999821,139_m_f_n_a.png,I,a,9845,1,1,2804.699999988079,570667.099999994,8022,VNB,A,0
0,prac,2,0.0,2-Back,,,Thu Feb 06 2025 11:40:03 GMT-0600 (Central Standard Time),573471.7999999821,124_o_f_h_a.png,I,a,9845,2,1,2804.699999988079,570667.099999994,8022,VNB,A,0
0,prac,2,0.0,2-Back,0,m,Thu Feb 06 2025 11:40:03 GMT-0600 (Central Standard Time),591283.900000006,039_o_m_d_a.png,I,None,2010,3,1,2804.300000011921,588479.599999994,8022,VNB,A,1
0,prac,2,1.0,2-Back,0,z,Thu Feb 06 2025 11:40:03 GMT-0600 (Central Standard Time),594065.099999994,165_m_m_h_a.png,I,None,2001,4,1,2768.699999988079,591296.400000006,8022,VNB,A,2
0,prac,2,0.0,2-Back,0,m,Thu Feb 06 2025 11:40:03 GMT-0600 (Central Standard Time),596880.6999999881,071_y_f_n_a.png,I,None,2011,5,1,2804.0999999940395,594076.599999994,8022,VNB,A,3
0,prac,2,1.0,2-Back,0,z,Thu Feb 06 2025 11:40:03 GMT-0600 (Central Standard Time),599696.6999999881,039_o_m_h_a.png,I,None,2013,6,1,2805.0999999940395,596891.599999994,8022,VNB,A,4
0,prac,2,1.0,2-Back,0,z,Thu Feb 06 2025 11:40:03 GMT-0600 (Central Standard Time),602512.599999994,109_y_m_n_a.png,I,None,2003,7,1,2802.800000011921,599709.7999999821,8022,VNB,A,5
0,prac,2,0.0,2-Back,0,m,Thu Feb 06 2025 11:40:03 GMT-0600 (Central Standard Time),605328.5,139_m_f_d_a.png,I,None,2008,8,1,2801.5999999940395,602526.900000006,8022,VNB,A,6
0,prac,2,0.0,2-Back,0,m,Thu Feb 06 2025 11:40:03 GMT-0600 (Central Standard Time),608177.1999999881,124_o_f_d_a.png,I,None,2012,9,1,2836.0,605341.1999999881,8022,VNB,A,7
0,prac,2,0.0,2-Back,0,m,Thu Feb 06 2025 11:40:03 GMT-0600 (Central Standard Time),610960.0,165_m_m_h_a.png,I,None,2003,10,1,2771.0999999940395,608188.900000006,8022,VNB,A,8
0,prac,2,1.0,2-Back,0,z,Thu Feb 06 2025 11:40:03 GMT-0600 (Central Standard Time),613775.599999994,071_y_f_d_a.png,I,None,2012,11,1,2804.4000000059605,610971.1999999881,8022,VNB,A,9
0,prac,2,0.0,2-Back,0,m,Thu Feb 06 2025 11:40:03 GMT-0600 (Central Standard Time),616591.599999994,039_o_m_n_a.png,I,None,2012,12,1,2804.699999988079,613786.900000006,8022,VNB,A,10
0,test,1,0.0,2-Back,,,Thu Feb 06 2025 11:40:03 GMT-0600 (Central Standard Time),616591.599999994,109_y_m_h_a.png,I,space,8530,1,1,2804.699999988079,613786.900000006,8022,VNB,A,0
0,test,1,0.0,2-Back,,,Thu Feb 06 2025 11:40:03 GMT-0600 (Central Standard Time),616591.599999994,124_o_f_n_a.png,I,space,8530,2,1,2804.699999988079,613786.900000006,8022,VNB,A,0
1,test,1,0.0,2-Back,1,z,Thu Feb 06 2025 11:40:03 GMT-0600 (Central Standard Time),659528.099999994,039_o_m_h_a.png,I,z,1826,3,1,2838.9000000059605,656689.1999999881,8022,VNB,A,1
2,test,1,0.0,2-Back,1,m,Thu Feb 06 2025 11:40:03 GMT-0600 (Central Standard Time),661761.0,139_m_f_d_a.png,I,m,1209,4,1,2221.2000000178814,659539.7999999821,8022,VNB,A,2
2,test,1,1.0,2-Back,0,m,Thu Feb 06 2025 11:40:03 GMT-0600 (Central Standard Time),664143.1999999881,109_y_m_n_a.png,I,z,1351,5,1,2370.5,661772.6999999881,8022,VNB,A,3
3,test,1,0.0,2-Back,1,z,Thu Feb 06 2025 11:40:03 GMT-0600 (Central Standard Time),667142.2999999821,071_y_f_d_a.png,I,z,1969,6,1,2988.0,664154.2999999821,8022,VNB,A,4
4,test,1,0.0,2-Back,1,m,Thu Feb 06 2025 11:40:03 GMT-0600 (Central Standard Time),669375.099999994,165_m_m_h_a.png,I,m,1202,7,1,2219.0,667156.099999994,8022,VNB,A,5
5,test,1,1.0,2-Back,1,m,Thu Feb 06 2025 11:40:03 GMT-0600 (Central Standard Time),671557.599999994,071_y_f_n_a.png,I,m,1162,8,1,2172.5,669385.099999994,8022,VNB,A,6
6,test,1,0.0,2-Back,1,z,Thu Feb 06 2025 11:40:03 GMT-0600 (Central Standard Time),673807.0,124_o_f_h_a.png,I,z,1227,9,1,2239.0999999940395,671567.900000006,8022,VNB,A,7
7,test,1,0.0,2-Back,1,m,Thu Feb 06 2025 11:40:03 GMT-0600 (Central Standard Time),675923.0,039_o_m_d_a.png,I,m,1098,10,1,2105.4000000059605,673817.599999994,8022,VNB,A,8
7,test,1,1.0,2-Back,0,m,Thu Feb 06 2025 11:40:03 GMT-0600 (Central Standard Time),678355.2999999821,165_m_m_d_a.png,I,z,1406,11,1,2421.7999999821186,675933.5,8022,VNB,A,9
8,test,1,0.0,2-Back,1,m,Thu Feb 06 2025 11:40:03 GMT-0600 (Central Standard Time),680854.6999999881,139_m_f_n_a.png,I,m,1477,12,1,2487.0999999940395,678367.599999994,8022,VNB,A,10
9,test,1,0.0,2-Back,1,m,Thu Feb 06 2025 11:40:03 GMT-0600 (Central Standard Time),683720.5,071_y_f_h_a.png,I,m,1834,13,1,2852.300000011921,680868.1999999881,8022,VNB,A,11
9,test,1,0.0,2-Back,0,z,Thu Feb 06 2025 11:40:03 GMT-0600 (Central Standard Time),686119.599999994,165_m_m_n_a.png,I,m,1376,14,1,2388.4000000059605,683731.1999999881,8022,VNB,A,12
10,test,1,0.0,2-Back,1,m,Thu Feb 06 2025 11:40:03 GMT-0600 (Central Standard Time),688352.400000006,109_y_m_d_a.png,I,m,1201,15,1,2222.0,686130.400000006,8022,VNB,A,13
11,test,1,1.0,2-Back,1,m,Thu Feb 06 2025 11:40:03 GMT-0600 (Central Standard Time),690951.599999994,139_m_f_h_a.png,I,m,1576,16,1,2588.800000011921,688362.7999999821,8022,VNB,A,14
11,test,1,0.0,2-Back,0,z,Thu Feb 06 2025 11:40:03 GMT-0600 (Central Standard Time),693100.900000006,124_o_f_d_a.png,I,m,1121,17,1,2138.300000011921,690962.599999994,8022,VNB,A,15
12,test,1,0.0,2-Back,1,m,Thu Feb 06 2025 11:40:03 GMT-0600 (Central Standard Time),695283.599999994,039_o_m_n_a.png,I,m,1156,18,1,2171.4000000059605,693112.1999999881,8022,VNB,A,16
0,test,2,0.0,2-Back,,,Thu Feb 06 2025 11:40:03 GMT-0600 (Central Standard Time),695283.599999994,165_m_m_h_a.png,I,space,3414,1,1,2171.4000000059605,693112.1999999881,8022,VNB,A,0
0,test,2,0.0,2-Back,,,Thu Feb 06 2025 11:40:03 GMT-0600 (Central Standard Time),695283.599999994,071_y_f_n_a.png,I,space,3414,2,1,2171.4000000059605,693112.1999999881,8022,VNB,A,0
1,test,2,1.0,2-Back,1,z,Thu Feb 06 2025 11:40:03 GMT-0600 (Central Standard Time),706096.900000006,124_o_f_h_a.png,I,z,1259,3,1,2272.2000000178814,703824.6999999881,8022,VNB,A,1
2,test,2,0.0,2-Back,1,m,Thu Feb 06 2025 11:40:03 GMT-0600 (Central Standard Time),708246.0,039_o_m_d_a.png,I,m,1128,4,1,2138.4000000059605,706107.599999994,8022,VNB,A,2
3,test,2,0.0,2-Back,1,m,Thu Feb 06 2025 11:40:03 GMT-0600 (Central Standard Time),710778.5,139_m_f_d_a.png,I,m,1507,5,1,2521.5999999940395,708256.900000006,8022,VNB,A,3
4,test,2,0.0,2-Back,1,m,Thu Feb 06 2025 11:40:03 GMT-0600 (Central Standard Time),713294.599999994,109_y_m_h_a.png,I,m,1486,6,1,2503.0,710791.599999994,8022,VNB,A,4
4,test,2,0.0,2-Back,0,m,Thu Feb 06 2025 11:40:03 GMT-0600 (Central Standard Time),715477.1999999881,124_o_f_n_a.png,I,z,1162,7,1,2172.0999999940395,713305.099999994,8022,VNB,A,5
5,test,2,1.0,2-Back,1,z,Thu Feb 06 2025 11:40:03 GMT-0600 (Central Standard Time),717593.1999999881,039_o_m_h_a.png,I,z,1090,8,1,2105.5,715487.6999999881,8022,VNB,A,6
6,test,2,0.0,2-Back,1,m,Thu Feb 06 2025 11:40:03 GMT-0600 (Central Standard Time),719759.0,071_y_f_d_a.png,I,m,1143,9,1,2155.4000000059605,717603.599999994,8022,VNB,A,7
6,test,2,0.0,2-Back,0,m,Thu Feb 06 2025 11:40:03 GMT-0600 (Central Standard Time),722791.6999999881,109_y_m_d_a.png,I,None,2014,10,1,3021.5,719770.1999999881,8022,VNB,A,8
7,test,2,0.0,2-Back,1,m,Thu Feb 06 2025 11:40:03 GMT-0600 (Central Standard Time),724974.099999994,165_m_m_n_a.png,I,m,1161,11,1,2172.199999988079,722801.900000006,8022,VNB,A,9
7,test,2,0.0,2-Back,0,m,Thu Feb 06 2025 11:40:03 GMT-0600 (Central Standard Time),727523.599999994,139_m_f_h_a.png,I,z,1514,12,1,2535.5999999940395,724988.0,8022,VNB,A,10
8,test,2,1.0,2-Back,1,z,Thu Feb 06 2025 11:40:03 GMT-0600 (Central Standard Time),730189.2999999821,039_o_m_n_a.png,I,z,1645,13,1,2655.2999999821186,727534.0,8022,VNB,A,11
9,test,2,0.0,2-Back,1,m,Thu Feb 06 2025 11:40:03 GMT-0600 (Central Standard Time),732421.7999999821,124_o_f_d_a.png,I,m,1203,14,1,2222.2999999821186,730199.5,8022,VNB,A,12
10,test,2,0.0,2-Back,1,m,Thu Feb 06 2025 11:40:03 GMT-0600 (Central Standard Time),734971.0,071_y_f_h_a.png,I,m,1523,15,1,2537.2000000178814,732433.7999999821,8022,VNB,A,13
10,test,2,0.0,2-Back,0,z,Thu Feb 06 2025 11:40:03 GMT-0600 (Central Standard Time),737886.7999999821,165_m_m_d_a.png,I,m,1894,16,1,2904.399999976158,734982.400000006,8022,VNB,A,14
11,test,2,0.0,2-Back,1,m,Thu Feb 06 2025 11:40:03 GMT-0600 (Central Standard Time),739886.099999994,109_y_m_n_a.png,I,m,970,17,1,1988.699999988079,737897.400000006,8022,VNB,A,15
11,test,2,1.0,2-Back,0,m,Thu Feb 06 2025 11:40:03 GMT-0600 (Central Standard Time),742118.7999999821,139_m_f_n_a.png,I,z,1211,18,1,2222.399999976158,739896.400000006,8022,VNB,A,16
0,test,3,1.0,2-Back,,,Thu Feb 06 2025 11:40:03 GMT-0600 (Central Standard Time),742118.7999999821,039_o_m_n_a.png,I,space,3299,1,1,2222.399999976158,739896.400000006,8022,VNB,A,0
0,test,3,1.0,2-Back,,,Thu Feb 06 2025 11:40:03 GMT-0600 (Central Standard Time),742118.7999999821,124_o_f_d_a.png,I,space,3299,2,1,2222.399999976158,739896.400000006,8022,VNB,A,0
1,test,3,0.0,2-Back,1,m,Thu Feb 06 2025 11:40:03 GMT-0600 (Central Standard Time),752498.900000006,071_y_f_h_a.png,I,m,957,3,1,1972.0,750526.900000006,8022,VNB,A,1
2,test,3,0.0,2-Back,1,z,Thu Feb 06 2025 11:40:03 GMT-0600 (Central Standard Time),754898.1999999881,139_m_f_d_a.png,I,z,1374,4,1,2384.5999999940395,752513.599999994,8022,VNB,A,2
3,test,3,1.0,2-Back,1,m,Thu Feb 06 2025 11:40:03 GMT-0600 (Central Standard Time),757430.6999999881,109_y_m_n_a.png,I,m,1502,5,1,2521.9000000059605,754908.7999999821,8022,VNB,A,3
4,test,3,0.0,2-Back,1,m,Thu Feb 06 2025 11:40:03 GMT-0600 (Central Standard Time),759829.900000006,039_o_m_h_a.png,I,m,1378,6,1,2385.100000023842,757444.7999999821,8022,VNB,A,4
5,test,3,0.0,2-Back,1,z,Thu Feb 06 2025 11:40:03 GMT-0600 (Central Standard Time),761829.400000006,071_y_f_n_a.png,I,z,971,7,1,1988.300000011921,759841.099999994,8022,VNB,A,5
5,test,3,1.0,2-Back,0,m,Thu Feb 06 2025 11:40:03 GMT-0600 (Central Standard Time),764428.5,165_m_m_d_a.png,I,z,1571,8,1,2588.300000011921,761840.1999999881,8022,VNB,A,6
6,test,3,0.0,2-Back,1,m,Thu Feb 06 2025 11:40:03 GMT-0600 (Central Standard Time),766827.7999999821,109_y_m_d_a.png,I,m,1372,9,1,2388.899999976158,764438.900000006,8022,VNB,A,7
6,test,3,0.0,2-Back,0,m,Thu Feb 06 2025 11:40:03 GMT-0600 (Central Standard Time),769027.2999999821,124_o_f_h_a.png,I,z,1181,10,1,2185.699999988079,766841.599999994,8022,VNB,A,8
7,test,3,1.0,2-Back,1,m,Thu Feb 06 2025 11:40:03 GMT-0600 (Central Standard Time),770959.7999999821,139_m_f_n_a.png,I,m,902,11,1,1920.7999999821186,769039.0,8022,VNB,A,9
7,test,3,1.0,2-Back,0,z,Thu Feb 06 2025 11:40:03 GMT-0600 (Central Standard Time),773325.900000006,165_m_m_h_a.png,I,m,1337,12,1,2355.0,770970.900000006,8022,VNB,A,10
8,test,3,0.0,2-Back,1,m,Thu Feb 06 2025 11:40:03 GMT-0600 (Central Standard Time),775841.6999999881,071_y_f_d_a.png,I,m,1491,13,1,2503.2999999821186,773338.400000006,8022,VNB,A,11
9,test,3,0.0,2-Back,1,m,Thu Feb 06 2025 11:40:03 GMT-0600 (Central Standard Time),778374.099999994,124_o_f_n_a.png,I,m,1511,14,1,2521.300000011921,775852.7999999821,8022,VNB,A,12
10,test,3,0.0,2-Back,1,z,Thu Feb 06 2025 11:40:03 GMT-0600 (Central Standard Time),780591.1999999881,039_o_m_d_a.png,I,z,1187,15,1,2206.7999999821186,778384.400000006,8022,VNB,A,13
10,test,3,1.0,2-Back,0,m,Thu Feb 06 2025 11:40:03 GMT-0600 (Central Standard Time),783439.099999994,139_m_f_h_a.png,I,z,1818,16,1,2836.5999999940395,780602.5,8022,VNB,A,14
11,test,3,0.0,2-Back,1,m,Thu Feb 06 2025 11:40:03 GMT-0600 (Central Standard Time),785671.900000006,165_m_m_n_a.png,I,m,1202,17,1,2221.7000000178814,783450.1999999881,8022,VNB,A,15
12,test,3,0.0,2-Back,1,z,Thu Feb 06 2025 11:40:03 GMT-0600 (Central Standard Time),787737.599999994,109_y_m_h_a.png,I,z,1041,18,1,2054.5999999940395,785683.0,8022,VNB,A,16
0,test,4,0.0,2-Back,,,Thu Feb 06 2025 11:40:03 GMT-0600 (Central Standard Time),787737.599999994,139_m_f_n_a.png,I,space,1384,1,1,2054.5999999940395,785683.0,8022,VNB,A,0
0,test,4,0.0,2-Back,,,Thu Feb 06 2025 11:40:03 GMT-0600 (Central Standard Time),787737.599999994,039_o_m_n_a.png,I,space,1384,2,1,2054.5999999940395,785683.0,8022,VNB,A,0
1,test,4,1.0,2-Back,1,m,Thu Feb 06 2025 11:40:03 GMT-0600 (Central Standard Time),796035.2999999821,109_y_m_h_a.png,I,m,789,3,1,1805.0999999940395,794230.1999999881,8022,VNB,A,1
2,test,4,1.0,2-Back,1,m,Thu Feb 06 2025 11:40:03 GMT-0600 (Central Standard Time),798317.900000006,124_o_f_d_a.png,I,m,1254,4,1,2271.5,796046.400000006,8022,VNB,A,2
3,test,4,0.0,2-Back,1,z,Thu Feb 06 2025 11:40:03 GMT-0600 (Central Standard Time),800234.0,039_o_m_h_a.png,I,z,883,5,1,1904.5999999940395,798329.400000006,8022,VNB,A,3
4,test,4,0.0,2-Back,1,m,Thu Feb 06 2025 11:40:03 GMT-0600 (Central Standard Time),802149.7999999821,165_m_m_n_a.png,I,m,887,6,1,1904.199999988079,800245.599999994,8022,VNB,A,4
5,test,4,0.0,2-Back,1,m,Thu Feb 06 2025 11:40:03 GMT-0600 (Central Standard Time),804549.400000006,139_m_f_d_a.png,I,m,1371,7,1,2388.0,802161.400000006,8022,VNB,A,5
6,test,4,0.0,2-Back,1,z,Thu Feb 06 2025 11:40:03 GMT-0600 (Central Standard Time),806965.1999999881,071_y_f_n_a.png,I,z,1388,8,1,2404.699999988079,804560.5,8022,VNB,A,6
7,test,4,1.0,2-Back,1,m,Thu Feb 06 2025 11:40:03 GMT-0600 (Central Standard Time),808831.2999999821,124_o_f_h_a.png,I,m,844,9,1,1852.3999999761581,806978.900000006,8022,VNB,A,7
8,test,4,0.0,2-Back,1,m,Thu Feb 06 2025 11:40:03 GMT-0600 (Central Standard Time),811530.400000006,165_m_m_h_a.png,I,m,1673,10,1,2688.7000000178814,808841.6999999881,8022,VNB,A,8
9,test,4,0.0,2-Back,1,m,Thu Feb 06 2025 11:40:03 GMT-0600 (Central Standard Time),813663.2999999821,071_y_f_d_a.png,I,m,1110,11,1,2122.0999999940395,811541.1999999881,8022,VNB,A,9
10,test,4,0.0,2-Back,1,m,Thu Feb 06 2025 11:40:03 GMT-0600 (Central Standard Time),815979.1999999881,109_y_m_n_a.png,I,m,1288,12,1,2305.2999999821186,813673.900000006,8022,VNB,A,10
11,test,4,0.0,2-Back,1,z,Thu Feb 06 2025 11:40:03 GMT-0600 (Central Standard Time),818395.1999999881,039_o_m_d_a.png,I,z,1382,13,1,2403.7999999821186,815991.400000006,8022,VNB,A,11
12,test,4,1.0,2-Back,1,m,Thu Feb 06 2025 11:40:03 GMT-0600 (Central Standard Time),820394.599999994,139_m_f_h_a.png,I,m,974,14,1,1988.5999999940395,818406.0,8022,VNB,A,12
12,test,4,1.0,2-Back,0,m,Thu Feb 06 2025 11:40:03 GMT-0600 (Central Standard Time),822660.5,071_y_f_h_a.png,I,z,1246,15,1,2254.300000011921,820406.1999999881,8022,VNB,A,13
13,test,4,0.0,2-Back,1,m,Thu Feb 06 2025 11:40:03 GMT-0600 (Central Standard Time),824743.099999994,124_o_f_n_a.png,I,m,1060,16,1,2071.9000000059605,822671.1999999881,8022,VNB,A,14
14,test,4,0.0,2-Back,1,m,Thu Feb 06 2025 11:40:03 GMT-0600 (Central Standard Time),827059.0,109_y_m_d_a.png,I,m,1290,17,1,2305.300000011921,824753.6999999881,8022,VNB,A,15
15,test,4,1.0,2-Back,1,m,Thu Feb 06 2025 11:40:03 GMT-0600 (Central Standard Time),829641.5,165_m_m_d_a.png,I,m,1550,18,1,2571.800000011921,827069.6999999881,8022,VNB,A,16
0,test,5,1.0,2-Back,,,Thu Feb 06 2025 11:40:03 GMT-0600 (Central Standard Time),829641.5,071_y_f_d_a.png,I,space,1592,1,1,2571.800000011921,827069.6999999881,8022,VNB,A,0
0,test,5,1.0,2-Back,,,Thu Feb 06 2025 11:40:03 GMT-0600 (Central Standard Time),829641.5,124_o_f_h_a.png,I,space,1592,2,1,2571.800000011921,827069.6999999881,8022,VNB,A,0
1,test,5,1.0,2-Back,1,z,Thu Feb 06 2025 11:40:03 GMT-0600 (Central Standard Time),838538.7999999821,039_o_m_d_a.png,I,z,1140,3,1,2155.199999988079,836383.599999994,8022,VNB,A,1
2,test,5,1.0,2-Back,1,m,Thu Feb 06 2025 11:40:03 GMT-0600 (Central Standard Time),840921.2999999821,139_m_f_n_a.png,I,m,1358,4,1,2371.5999999940395,838549.6999999881,8022,VNB,A,2
2,test,5,0.0,2-Back,0,m,Thu Feb 06 2025 11:40:03 GMT-0600 (Central Standard Time),843004.099999994,165_m_m_h_a.png,I,z,1055,5,1,2070.9000000059605,840933.1999999881,8022,VNB,A,3
3,test,5,0.0,2-Back,1,z,Thu Feb 06 2025 11:40:03 GMT-0600 (Central Standard Time),845436.400000006,071_y_f_n_a.png,I,z,1413,6,1,2421.9000000059605,843014.5,8022,VNB,A,4
4,test,5,0.0,2-Back,1,m,Thu Feb 06 2025 11:40:03 GMT-0600 (Central Standard Time),847419.1999999881,124_o_f_d_a.png,I,m,956,7,1,1970.9000000059605,845448.2999999821,8022,VNB,A,5
5,test,5,0.0,2-Back,1,m,Thu Feb 06 2025 11:40:03 GMT-0600 (Central Standard Time),849918.5,039_o_m_h_a.png,I,m,1469,8,1,2488.5999999940395,847429.900000006,8022,VNB,A,6
6,test,5,1.0,2-Back,1,z,Thu Feb 06 2025 11:40:03 GMT-0600 (Central Standard Time),852051.099999994,139_m_f_d_a.png,I,z,1099,9,1,2122.0,849929.099999994,8022,VNB,A,7
7,test,5,0.0,2-Back,1,m,Thu Feb 06 2025 11:40:03 GMT-0600 (Central Standard Time),854650.400000006,109_y_m_n_a.png,I,m,1566,10,1,2588.0,852062.400000006,8022,VNB,A,8
7,test,5,0.0,2-Back,0,m,Thu Feb 06 2025 11:40:03 GMT-0600 (Central Standard Time),856933.099999994,165_m_m_n_a.png,I,z,1254,11,1,2271.800000011921,854661.2999999821,8022,VNB,A,9
7,test,5,0.0,2-Back,0,m,Thu Feb 06 2025 11:40:03 GMT-0600 (Central Standard Time),859498.900000006,071_y_f_h_a.png,I,z,1532,12,1,2555.2000000178814,856943.6999999881,8022,VNB,A,10
8,test,5,0.0,2-Back,1,m,Thu Feb 06 2025 11:40:03 GMT-0600 (Central Standard Time),861649.2999999821,109_y_m_d_a.png,I,m,1118,13,1,2138.399999976158,859510.900000006,8022,VNB,A,11
9,test,5,1.0,2-Back,1,z,Thu Feb 06 2025 11:40:03 GMT-0600 (Central Standard Time),863797.400000006,139_m_f_h_a.png,I,z,1121,14,1,2137.100000023842,861660.2999999821,8022,VNB,A,12
10,test,5,0.0,2-Back,1,m,Thu Feb 06 2025 11:40:03 GMT-0600 (Central Standard Time),866114.5,039_o_m_n_a.png,I,m,1284,15,1,2305.4000000059605,863809.099999994,8022,VNB,A,13
11,test,5,0.0,2-Back,1,m,Thu Feb 06 2025 11:40:03 GMT-0600 (Central Standard Time),868612.7999999821,165_m_m_d_a.png,I,m,1471,16,1,2487.5999999940395,866125.1999999881,8022,VNB,A,14
12,test,5,0.0,2-Back,1,z,Thu Feb 06 2025 11:40:03 GMT-0600 (Central Standard Time),870912.099999994,124_o_f_n_a.png,I,z,1268,17,1,2288.800000011921,868623.2999999821,8022,VNB,A,15
13,test,5,1.0,2-Back,1,m,Thu Feb 06 2025 11:40:03 GMT-0600 (Central Standard Time),872827.7999999821,109_y_m_h_a.png,I,m,897,18,1,1905.199999988079,870922.599999994,8022,VNB,A,16
