acc_sum,block,block_c,change,condition,correct,correct_response,datetime,endtime,face,project,response,response_time,row_sel,session_number,start_end,starttime,subject_id,task,task_vers,trial
0,prac,1,,1-Back,,,Tue Apr 08 2025 14:26:35 GMT-0500 (Central Daylight Time),,097_m_f_n_a.png,I,space,8130,1,2,,,8017,NNB,B,0
1,prac,1,0.0,1-Back,1,m,Tue Apr 08 2025 14:26:35 GMT-0500 (Central Daylight Time),112547.09999996424,152_y_f_n_a.png,I,m,1095,2,2,1942.5,110604.59999996424,8017,NNB,B,1
2,prac,1,1.0,1-Back,1,z,Tue Apr 08 2025 14:26:35 GMT-0500 (Central Daylight Time),114129.59999996424,152_y_f_n_a.png,I,z,789,3,2,1572.0999999642372,112557.5,8017,NNB,B,2
3,prac,1,0.0,1-Back,1,m,Tue Apr 08 2025 14:26:35 GMT-0500 (Central Daylight Time),115877.59999996424,176_o_m_n_a.png,I,m,871,4,2,1739.5999999642372,114138.0,8017,NNB,B,3
4,prac,1,0.0,1-Back,1,m,Tue Apr 08 2025 14:26:35 GMT-0500 (Central Daylight Time),117394.0,126_m_m_n_a.png,I,m,733,5,2,1508.9000000357628,115885.09999996424,8017,NNB,B,4
5,prac,1,1.0,1-Back,1,z,Tue Apr 08 2025 14:26:35 GMT-0500 (Central Daylight Time),118741.59999996424,126_m_m_n_a.png,I,z,574,6,2,1338.5,117403.09999996424,8017,NNB,B,5
6,prac,1,0.0,1-Back,1,m,Tue Apr 08 2025 14:26:35 GMT-0500 (Central Daylight Time),120074.29999995232,086_o_f_n_a.png,I,m,556,7,2,1324.5,118749.79999995232,8017,NNB,B,6
7,prac,1,0.0,1-Back,1,m,Tue Apr 08 2025 14:26:35 GMT-0500 (Central Daylight Time),121576.19999998808,178_m_m_n_a.png,I,m,643,8,2,1494.0,120082.19999998808,8017,NNB,B,7
8,prac,1,0.0,1-Back,1,m,Tue Apr 08 2025 14:26:35 GMT-0500 (Central Daylight Time),123194.69999998808,097_m_f_n_a.png,I,m,825,9,2,1609.5,121585.19999998808,8017,NNB,B,8
9,prac,1,1.0,1-Back,1,z,Tue Apr 08 2025 14:26:35 GMT-0500 (Central Daylight Time),124575.5,097_m_f_n_a.png,I,z,600,10,2,1372.7000000476837,123202.79999995232,8017,NNB,B,9
10,prac,1,0.0,1-Back,1,m,Tue Apr 08 2025 14:26:35 GMT-0500 (Central Daylight Time),126058.59999996424,176_o_m_n_a.png,I,m,707,11,2,1475.300000011921,124583.29999995232,8017,NNB,B,10
11,prac,1,0.0,1-Back,1,m,Tue Apr 08 2025 14:26:35 GMT-0500 (Central Daylight Time),127658.5,173_y_f_n_a.png,I,m,745,12,2,1593.4000000357628,126065.09999996424,8017,NNB,B,11
0,test,1,0.0,1-Back,,,Tue Apr 08 2025 14:26:35 GMT-0500 (Central Daylight Time),127658.5,152_y_f_n_a.png,I,space,5957,1,2,1593.4000000357628,126065.09999996424,8017,NNB,B,0
1,test,1,0.0,1-Back,1,m,Tue Apr 08 2025 14:26:35 GMT-0500 (Central Daylight Time),143255.0,029_m_f_n_a.png,I,m,1622,2,2,2645.2000000476837,140609.79999995232,8017,NNB,B,1
2,test,1,0.0,1-Back,1,m,Tue Apr 08 2025 14:26:35 GMT-0500 (Central Daylight Time),145069.39999997616,173_y_f_n_a.png,I,m,788,3,2,1806.1000000238419,143263.29999995232,8017,NNB,B,2
3,test,1,1.0,1-Back,1,z,Tue Apr 08 2025 14:26:35 GMT-0500 (Central Daylight Time),146603.59999996424,173_y_f_n_a.png,I,z,509,4,2,1526.199999988079,145077.39999997616,8017,NNB,B,3
4,test,1,0.0,1-Back,1,m,Tue Apr 08 2025 14:26:35 GMT-0500 (Central Daylight Time),148252.69999998808,029_m_f_n_a.png,I,m,615,5,2,1634.6000000238419,146618.09999996424,8017,NNB,B,4
5,test,1,0.0,1-Back,1,m,Tue Apr 08 2025 14:26:35 GMT-0500 (Central Daylight Time),149835.79999995232,176_o_m_n_a.png,I,m,567,6,2,1575.0999999642372,148260.69999998808,8017,NNB,B,5
6,test,1,1.0,1-Back,1,z,Tue Apr 08 2025 14:26:35 GMT-0500 (Central Daylight Time),151435.09999996424,176_o_m_n_a.png,I,z,583,7,2,1595.699999988079,149839.39999997616,8017,NNB,B,6
7,test,1,0.0,1-Back,1,m,Tue Apr 08 2025 14:26:35 GMT-0500 (Central Daylight Time),153051.5,126_m_m_n_a.png,I,m,600,8,2,1611.2000000476837,151440.29999995232,8017,NNB,B,7
8,test,1,0.0,1-Back,1,m,Tue Apr 08 2025 14:26:35 GMT-0500 (Central Daylight Time),154632.29999995232,086_o_f_n_a.png,I,m,560,9,2,1576.199999988079,153056.09999996424,8017,NNB,B,8
9,test,1,0.0,1-Back,1,m,Tue Apr 08 2025 14:26:35 GMT-0500 (Central Daylight Time),156349.0,126_m_m_n_a.png,I,m,689,10,2,1710.2000000476837,154638.79999995232,8017,NNB,B,9
10,test,1,0.0,1-Back,1,m,Tue Apr 08 2025 14:26:35 GMT-0500 (Central Daylight Time),157998.29999995232,153_y_m_n_a.png,I,m,631,11,2,1643.0,156355.29999995232,8017,NNB,B,10
11,test,1,1.0,1-Back,1,z,Tue Apr 08 2025 14:26:35 GMT-0500 (Central Daylight Time),159580.79999995232,153_y_m_n_a.png,I,z,564,12,2,1574.8999999761581,158005.89999997616,8017,NNB,B,11
12,test,1,0.0,1-Back,1,m,Tue Apr 08 2025 14:26:35 GMT-0500 (Central Daylight Time),161264.19999998808,110_o_f_n_a.png,I,m,663,13,2,1673.800000011921,159590.39999997616,8017,NNB,B,12
13,test,1,1.0,1-Back,1,z,Tue Apr 08 2025 14:26:35 GMT-0500 (Central Daylight Time),162863.89999997616,110_o_f_n_a.png,I,z,567,14,2,1592.5,161271.39999997616,8017,NNB,B,13
14,test,1,0.0,1-Back,1,m,Tue Apr 08 2025 14:26:35 GMT-0500 (Central Daylight Time),164548.0,013_y_m_n_a.png,I,m,665,15,2,1677.0,162871.0,8017,NNB,B,14
15,test,1,0.0,1-Back,1,m,Tue Apr 08 2025 14:26:35 GMT-0500 (Central Daylight Time),166112.89999997616,097_m_f_n_a.png,I,m,544,16,2,1556.5,164556.39999997616,8017,NNB,B,15
16,test,1,0.0,1-Back,1,m,Tue Apr 08 2025 14:26:35 GMT-0500 (Central Daylight Time),167661.79999995232,065_o_m_n_a.png,I,m,530,17,2,1541.5999999642372,166120.19999998808,8017,NNB,B,16
17,test,1,0.0,1-Back,1,m,Tue Apr 08 2025 14:26:35 GMT-0500 (Central Daylight Time),169178.39999997616,097_m_f_n_a.png,I,m,484,18,2,1509.5,167668.89999997616,8017,NNB,B,17
0,test,2,0.0,1-Back,,,Tue Apr 08 2025 14:26:35 GMT-0500 (Central Daylight Time),169178.39999997616,126_m_m_n_a.png,I,space,1976,1,2,1509.5,167668.89999997616,8017,NNB,B,0
1,test,2,0.0,1-Back,1,m,Tue Apr 08 2025 14:26:35 GMT-0500 (Central Daylight Time),174759.0,029_m_f_n_a.png,I,m,553,2,2,1575.300000011921,173183.69999998808,8017,NNB,B,1
2,test,2,1.0,1-Back,1,z,Tue Apr 08 2025 14:26:35 GMT-0500 (Central Daylight Time),176356.59999996424,029_m_f_n_a.png,I,z,578,3,2,1589.199999988079,174767.39999997616,8017,NNB,B,2
3,test,2,0.0,1-Back,1,m,Tue Apr 08 2025 14:26:35 GMT-0500 (Central Daylight Time),177908.89999997616,126_m_m_n_a.png,I,m,523,4,2,1549.199999988079,176359.69999998808,8017,NNB,B,3
4,test,2,0.0,1-Back,1,m,Tue Apr 08 2025 14:26:35 GMT-0500 (Central Daylight Time),179408.79999995232,153_y_m_n_a.png,I,m,470,5,2,1491.7999999523163,177917.0,8017,NNB,B,4
5,test,2,0.0,1-Back,1,m,Tue Apr 08 2025 14:26:35 GMT-0500 (Central Daylight Time),181073.29999995232,152_y_f_n_a.png,I,m,640,6,2,1657.0999999642372,179416.19999998808,8017,NNB,B,5
6,test,2,1.0,1-Back,1,z,Tue Apr 08 2025 14:26:35 GMT-0500 (Central Daylight Time),182607.29999995232,152_y_f_n_a.png,I,z,503,7,2,1530.2999999523163,181077.0,8017,NNB,B,6
7,test,2,0.0,1-Back,1,m,Tue Apr 08 2025 14:26:35 GMT-0500 (Central Daylight Time),184240.5,153_y_m_n_a.png,I,m,602,8,2,1625.7000000476837,182614.79999995232,8017,NNB,B,7
8,test,2,0.0,1-Back,1,m,Tue Apr 08 2025 14:26:35 GMT-0500 (Central Daylight Time),185856.5,110_o_f_n_a.png,I,m,585,9,2,1609.6000000238419,184246.89999997616,8017,NNB,B,8
9,test,2,0.0,1-Back,1,m,Tue Apr 08 2025 14:26:35 GMT-0500 (Central Daylight Time),187441.29999995232,178_m_m_n_a.png,I,m,561,10,2,1579.5999999642372,185861.69999998808,8017,NNB,B,9
10,test,2,1.0,1-Back,1,z,Tue Apr 08 2025 14:26:35 GMT-0500 (Central Daylight Time),188971.29999995232,178_m_m_n_a.png,I,z,506,11,2,1523.0,187448.29999995232,8017,NNB,B,10
11,test,2,0.0,1-Back,1,m,Tue Apr 08 2025 14:26:35 GMT-0500 (Central Daylight Time),190554.19999998808,110_o_f_n_a.png,I,m,555,12,2,1579.0,188975.19999998808,8017,NNB,B,11
12,test,2,0.0,1-Back,1,m,Tue Apr 08 2025 14:26:35 GMT-0500 (Central Daylight Time),192087.29999995232,086_o_f_n_a.png,I,m,511,13,2,1527.699999988079,190559.59999996424,8017,NNB,B,12
13,test,2,0.0,1-Back,1,m,Tue Apr 08 2025 14:26:35 GMT-0500 (Central Daylight Time),193653.29999995232,176_o_m_n_a.png,I,m,549,14,2,1557.2999999523163,192096.0,8017,NNB,B,13
14,test,2,0.0,1-Back,1,m,Tue Apr 08 2025 14:26:35 GMT-0500 (Central Daylight Time),195238.09999996424,065_o_m_n_a.png,I,m,568,15,2,1577.3999999761581,193660.69999998808,8017,NNB,B,14
15,test,2,1.0,1-Back,1,z,Tue Apr 08 2025 14:26:35 GMT-0500 (Central Daylight Time),196719.59999996424,065_o_m_n_a.png,I,z,454,16,2,1475.8999999761581,195243.69999998808,8017,NNB,B,15
16,test,2,0.0,1-Back,1,m,Tue Apr 08 2025 14:26:35 GMT-0500 (Central Daylight Time),198235.19999998808,013_y_m_n_a.png,I,m,490,17,2,1507.1000000238419,196728.09999996424,8017,NNB,B,16
17,test,2,1.0,1-Back,1,z,Tue Apr 08 2025 14:26:35 GMT-0500 (Central Daylight Time),199852.79999995232,013_y_m_n_a.png,I,z,598,18,2,1610.7999999523163,198242.0,8017,NNB,B,17
0,test,3,1.0,1-Back,,,Tue Apr 08 2025 14:26:35 GMT-0500 (Central Daylight Time),199852.79999995232,173_y_f_n_a.png,I,space,1604,1,2,1610.7999999523163,198242.0,8017,NNB,B,0
1,test,3,0.0,1-Back,1,m,Tue Apr 08 2025 14:26:35 GMT-0500 (Central Daylight Time),205167.39999997616,065_o_m_n_a.png,I,m,569,1,2,1591.6000000238419,203575.79999995232,8017,NNB,B,1
2,test,3,1.0,1-Back,1,z,Tue Apr 08 2025 14:26:35 GMT-0500 (Central Daylight Time),206815.79999995232,065_o_m_n_a.png,I,z,626,1,2,1640.5,205175.29999995232,8017,NNB,B,2
3,test,3,0.0,1-Back,1,m,Tue Apr 08 2025 14:26:35 GMT-0500 (Central Daylight Time),208399.39999997616,097_m_f_n_a.png,I,m,553,1,2,1575.800000011921,206823.59999996424,8017,NNB,B,3
4,test,3,1.0,1-Back,1,z,Tue Apr 08 2025 14:26:35 GMT-0500 (Central Daylight Time),209997.59999996424,097_m_f_n_a.png,I,z,578,1,2,1591.800000011921,208405.79999995232,8017,NNB,B,4
5,test,3,0.0,1-Back,1,m,Tue Apr 08 2025 14:26:35 GMT-0500 (Central Daylight Time),211563.69999998808,110_o_f_n_a.png,I,m,548,1,2,1558.199999988079,210005.5,8017,NNB,B,5
6,test,3,0.0,1-Back,1,m,Tue Apr 08 2025 14:26:35 GMT-0500 (Central Daylight Time),213080.29999995232,153_y_m_n_a.png,I,m,493,1,2,1510.699999988079,211569.59999996424,8017,NNB,B,6
7,test,3,0.0,1-Back,1,m,Tue Apr 08 2025 14:26:35 GMT-0500 (Central Daylight Time),214647.69999998808,110_o_f_n_a.png,I,m,537,1,2,1560.300000011921,213087.39999997616,8017,NNB,B,7
8,test,3,0.0,1-Back,1,m,Tue Apr 08 2025 14:26:35 GMT-0500 (Central Daylight Time),216213.29999995232,013_y_m_n_a.png,I,m,538,1,2,1557.0,214656.29999995232,8017,NNB,B,8
9,test,3,1.0,1-Back,1,z,Tue Apr 08 2025 14:26:35 GMT-0500 (Central Daylight Time),217729.39999997616,013_y_m_n_a.png,I,z,485,1,2,1508.5,216220.89999997616,8017,NNB,B,9
10,test,3,0.0,1-Back,1,m,Tue Apr 08 2025 14:26:35 GMT-0500 (Central Daylight Time),219379.09999996424,029_m_f_n_a.png,I,m,624,1,2,1644.800000011921,217734.29999995232,8017,NNB,B,10
11,test,3,0.0,1-Back,1,m,Tue Apr 08 2025 14:26:35 GMT-0500 (Central Daylight Time),220961.29999995232,152_y_f_n_a.png,I,m,561,1,2,1575.199999988079,219386.09999996424,8017,NNB,B,11
12,test,3,1.0,1-Back,1,z,Tue Apr 08 2025 14:26:35 GMT-0500 (Central Daylight Time),222611.5,152_y_f_n_a.png,I,z,622,1,2,1642.6000000238419,220968.89999997616,8017,NNB,B,12
13,test,3,0.0,1-Back,1,m,Tue Apr 08 2025 14:26:35 GMT-0500 (Central Daylight Time),224143.89999997616,029_m_f_n_a.png,I,m,510,1,2,1526.699999988079,222617.19999998808,8017,NNB,B,13
14,test,3,0.0,1-Back,1,m,Tue Apr 08 2025 14:26:35 GMT-0500 (Central Daylight Time),225676.0,126_m_m_n_a.png,I,m,506,1,2,1526.7000000476837,224149.29999995232,8017,NNB,B,14
15,test,3,1.0,1-Back,1,z,Tue Apr 08 2025 14:26:35 GMT-0500 (Central Daylight Time),227309.5,126_m_m_n_a.png,I,z,604,1,2,1627.300000011921,225682.19999998808,8017,NNB,B,15
16,test,3,0.0,1-Back,1,m,Tue Apr 08 2025 14:26:35 GMT-0500 (Central Daylight Time),228925.59999996424,086_o_f_n_a.png,I,m,587,1,2,1609.800000011921,227315.79999995232,8017,NNB,B,16
17,test,3,1.0,1-Back,1,z,Tue Apr 08 2025 14:26:35 GMT-0500 (Central Daylight Time),230492.59999996424,086_o_f_n_a.png,I,z,539,1,2,1559.800000011921,228932.79999995232,8017,NNB,B,17
0,test,4,1.0,1-Back,,,Tue Apr 08 2025 14:26:35 GMT-0500 (Central Daylight Time),230492.59999996424,097_m_f_n_a.png,I,space,1317,1,2,1559.800000011921,228932.79999995232,8017,NNB,B,0
1,test,4,0.0,1-Back,1,m,Tue Apr 08 2025 14:26:35 GMT-0500 (Central Daylight Time),235724.5,065_o_m_n_a.png,I,m,766,2,2,1791.7000000476837,233932.79999995232,8017,NNB,B,1
2,test,4,0.0,1-Back,1,m,Tue Apr 08 2025 14:26:35 GMT-0500 (Central Daylight Time),237539.69999998808,097_m_f_n_a.png,I,m,792,3,2,1808.6000000238419,235731.09999996424,8017,NNB,B,2
3,test,4,0.0,1-Back,1,m,Tue Apr 08 2025 14:26:35 GMT-0500 (Central Daylight Time),239106.09999996424,110_o_f_n_a.png,I,m,532,4,2,1558.800000011921,237547.29999995232,8017,NNB,B,3
4,test,4,1.0,1-Back,1,z,Tue Apr 08 2025 14:26:35 GMT-0500 (Central Daylight Time),240572.79999995232,110_o_f_n_a.png,I,z,442,5,2,1460.7999999523163,239112.0,8017,NNB,B,4
5,test,4,0.0,1-Back,1,m,Tue Apr 08 2025 14:26:35 GMT-0500 (Central Daylight Time),242004.59999996424,152_y_f_n_a.png,I,m,399,6,2,1423.300000011921,240581.29999995232,8017,NNB,B,5
6,test,4,0.0,1-Back,1,m,Tue Apr 08 2025 14:26:35 GMT-0500 (Central Daylight Time),243471.19999998808,153_y_m_n_a.png,I,m,435,7,2,1459.0,242012.19999998808,8017,NNB,B,6
7,test,4,1.0,1-Back,1,z,Tue Apr 08 2025 14:26:35 GMT-0500 (Central Daylight Time),245154.59999996424,153_y_m_n_a.png,I,z,651,8,2,1676.699999988079,243477.89999997616,8017,NNB,B,7
8,test,4,0.0,1-Back,1,m,Tue Apr 08 2025 14:26:35 GMT-0500 (Central Daylight Time),246670.59999996424,152_y_f_n_a.png,I,m,483,9,2,1506.8999999761581,245163.69999998808,8017,NNB,B,8
9,test,4,0.0,1-Back,1,m,Tue Apr 08 2025 14:26:35 GMT-0500 (Central Daylight Time),248254.39999997616,178_m_m_n_a.png,I,m,565,10,2,1577.1000000238419,246677.29999995232,8017,NNB,B,9
10,test,4,1.0,1-Back,1,z,Tue Apr 08 2025 14:26:35 GMT-0500 (Central Daylight Time),249734.59999996424,178_m_m_n_a.png,I,z,461,11,2,1473.3999999761581,248261.19999998808,8017,NNB,B,10
11,test,4,0.0,1-Back,1,m,Tue Apr 08 2025 14:26:35 GMT-0500 (Central Daylight Time),251385.0,086_o_f_n_a.png,I,m,627,12,2,1643.800000011921,249741.19999998808,8017,NNB,B,11
12,test,4,0.0,1-Back,1,m,Tue Apr 08 2025 14:26:35 GMT-0500 (Central Daylight Time),252967.5,176_o_m_n_a.png,I,m,560,13,2,1573.9000000357628,251393.59999996424,8017,NNB,B,12
13,test,4,0.0,1-Back,1,m,Tue Apr 08 2025 14:26:35 GMT-0500 (Central Daylight Time),254487.5,086_o_f_n_a.png,I,m,501,14,2,1512.5,252975.0,8017,NNB,B,13
14,test,4,0.0,1-Back,1,m,Tue Apr 08 2025 14:26:35 GMT-0500 (Central Daylight Time),256069.69999998808,173_y_f_n_a.png,I,m,559,15,2,1575.9000000357628,254493.79999995232,8017,NNB,B,14
15,test,4,1.0,1-Back,1,z,Tue Apr 08 2025 14:26:35 GMT-0500 (Central Daylight Time),257483.59999996424,173_y_f_n_a.png,I,z,391,16,2,1406.5,256077.09999996424,8017,NNB,B,15
16,test,4,0.0,1-Back,1,m,Tue Apr 08 2025 14:26:35 GMT-0500 (Central Daylight Time),259067.39999997616,029_m_f_n_a.png,I,m,559,17,2,1576.6000000238419,257490.79999995232,8017,NNB,B,16
17,test,4,1.0,1-Back,1,z,Tue Apr 08 2025 14:26:35 GMT-0500 (Central Daylight Time),260601.59999996424,029_m_f_n_a.png,I,z,504,18,2,1528.5,259073.09999996424,8017,NNB,B,17
0,test,5,1.0,1-Back,,,Tue Apr 08 2025 14:26:35 GMT-0500 (Central Daylight Time),260601.59999996424,176_o_m_n_a.png,I,space,1183,1,2,1528.5,259073.09999996424,8017,NNB,B,0
1,test,5,1.0,1-Back,1,z,Tue Apr 08 2025 14:26:35 GMT-0500 (Central Daylight Time),265663.59999996424,176_o_m_n_a.png,I,z,827,2,2,1841.300000011921,263822.2999999523,8017,NNB,B,1
2,test,5,0.0,1-Back,1,m,Tue Apr 08 2025 14:26:35 GMT-0500 (Central Daylight Time),267197.5,152_y_f_n_a.png,I,m,515,3,2,1528.300000011921,265669.1999999881,8017,NNB,B,2
3,test,5,0.0,1-Back,1,m,Tue Apr 08 2025 14:26:35 GMT-0500 (Central Daylight Time),268813.09999996424,153_y_m_n_a.png,I,m,588,4,2,1610.3999999761581,267202.6999999881,8017,NNB,B,3
4,test,5,0.0,1-Back,1,m,Tue Apr 08 2025 14:26:35 GMT-0500 (Central Daylight Time),270446.0,152_y_f_n_a.png,I,m,605,5,2,1625.6000000238419,268820.39999997616,8017,NNB,B,4
5,test,5,0.0,1-Back,1,m,Tue Apr 08 2025 14:26:35 GMT-0500 (Central Daylight Time),271978.6999999881,126_m_m_n_a.png,I,m,501,6,2,1526.199999988079,270452.5,8017,NNB,B,5
6,test,5,1.0,1-Back,1,z,Tue Apr 08 2025 14:26:35 GMT-0500 (Central Daylight Time),273561.7999999523,126_m_m_n_a.png,I,z,560,7,2,1575.699999988079,271986.09999996424,8017,NNB,B,6
7,test,5,0.0,1-Back,1,m,Tue Apr 08 2025 14:26:35 GMT-0500 (Central Daylight Time),275194.5,173_y_f_n_a.png,I,m,615,8,2,1626.1000000238419,273568.39999997616,8017,NNB,B,7
8,test,5,0.0,1-Back,1,m,Tue Apr 08 2025 14:26:35 GMT-0500 (Central Daylight Time),276760.1999999881,013_y_m_n_a.png,I,m,535,9,2,1561.4000000357628,275198.7999999523,8017,NNB,B,8
9,test,5,0.0,1-Back,1,m,Tue Apr 08 2025 14:26:35 GMT-0500 (Central Daylight Time),278428.0,173_y_f_n_a.png,I,m,640,10,2,1660.300000011921,276767.6999999881,8017,NNB,B,9
10,test,5,0.0,1-Back,1,m,Tue Apr 08 2025 14:26:35 GMT-0500 (Central Daylight Time),280043.89999997616,086_o_f_n_a.png,I,m,591,11,2,1609.5,278434.39999997616,8017,NNB,B,10
11,test,5,1.0,1-Back,1,z,Tue Apr 08 2025 14:26:35 GMT-0500 (Central Daylight Time),281526.2999999523,086_o_f_n_a.png,I,z,453,12,2,1474.699999988079,280051.59999996424,8017,NNB,B,11
12,test,5,0.0,1-Back,1,m,Tue Apr 08 2025 14:26:35 GMT-0500 (Central Daylight Time),283027.5,065_o_m_n_a.png,I,m,476,13,2,1494.6000000238419,281532.89999997616,8017,NNB,B,12
13,test,5,0.0,1-Back,1,m,Tue Apr 08 2025 14:26:35 GMT-0500 (Central Daylight Time),284507.09999996424,097_m_f_n_a.png,I,m,454,14,2,1473.3999999761581,283033.6999999881,8017,NNB,B,13
14,test,5,1.0,1-Back,1,z,Tue Apr 08 2025 14:26:35 GMT-0500 (Central Daylight Time),285957.7999999523,097_m_f_n_a.png,I,z,430,15,2,1445.5999999642372,284512.1999999881,8017,NNB,B,14
15,test,5,0.0,1-Back,1,m,Tue Apr 08 2025 14:26:35 GMT-0500 (Central Daylight Time),287490.1999999881,065_o_m_n_a.png,I,m,508,16,2,1526.300000011921,285963.89999997616,8017,NNB,B,15
16,test,5,0.0,1-Back,1,m,Tue Apr 08 2025 14:26:35 GMT-0500 (Central Daylight Time),288907.0,029_m_f_n_a.png,I,m,397,17,2,1411.7000000476837,287495.2999999523,8017,NNB,B,16
17,test,5,0.0,1-Back,1,m,Tue Apr 08 2025 14:26:35 GMT-0500 (Central Daylight Time),290406.59999996424,178_m_m_n_a.png,I,m,480,18,2,1493.3999999761581,288913.1999999881,8017,NNB,B,17
0,prac,1,0.0,2-Back,,,Tue Apr 08 2025 14:26:35 GMT-0500 (Central Daylight Time),290406.59999996424,013_y_m_n_a.png,I,space,3899,1,2,1493.3999999761581,288913.1999999881,8017,NNB,B,0
0,prac,1,0.0,2-Back,,,Tue Apr 08 2025 14:26:35 GMT-0500 (Central Daylight Time),290406.59999996424,029_m_f_n_a.png,I,space,3899,2,2,1493.3999999761581,288913.1999999881,8017,NNB,B,0
1,prac,1,1.0,2-Back,1,m,Tue Apr 08 2025 14:26:35 GMT-0500 (Central Daylight Time),383093.1999999881,065_o_m_n_a.png,I,m,1007,3,2,1872.199999988079,381221.0,8017,NNB,B,1
2,prac,1,0.0,2-Back,1,m,Tue Apr 08 2025 14:26:35 GMT-0500 (Central Daylight Time),384927.09999996424,086_o_f_n_a.png,I,m,948,4,2,1825.0,383102.09999996424,8017,NNB,B,2
3,prac,1,0.0,2-Back,1,z,Tue Apr 08 2025 14:26:35 GMT-0500 (Central Daylight Time),386427.5,065_o_m_n_a.png,I,z,714,5,2,1491.2000000476837,384936.2999999523,8017,NNB,B,3
4,prac,1,1.0,2-Back,1,z,Tue Apr 08 2025 14:26:35 GMT-0500 (Central Daylight Time),387992.7999999523,086_o_f_n_a.png,I,z,776,6,2,1557.3999999761581,386435.39999997616,8017,NNB,B,4
5,prac,1,0.0,2-Back,1,m,Tue Apr 08 2025 14:26:35 GMT-0500 (Central Daylight Time),389794.09999996424,178_m_m_n_a.png,I,m,949,7,2,1793.5,388000.59999996424,8017,NNB,B,5
6,prac,1,0.0,2-Back,1,m,Tue Apr 08 2025 14:26:35 GMT-0500 (Central Daylight Time),391407.59999996424,176_o_m_n_a.png,I,m,743,8,2,1604.8999999761581,389802.6999999881,8017,NNB,B,6
7,prac,1,0.0,2-Back,1,m,Tue Apr 08 2025 14:26:35 GMT-0500 (Central Daylight Time),393041.6999999881,173_y_f_n_a.png,I,m,762,9,2,1626.199999988079,391415.5,8017,NNB,B,7
8,prac,1,1.0,2-Back,1,z,Tue Apr 08 2025 14:26:35 GMT-0500 (Central Daylight Time),394491.09999996424,176_o_m_n_a.png,I,z,668,10,2,1443.0999999642372,393048.0,8017,NNB,B,8
9,prac,1,0.0,2-Back,1,m,Tue Apr 08 2025 14:26:35 GMT-0500 (Central Daylight Time),396007.5,152_y_f_n_a.png,I,m,671,11,2,1508.0,394499.5,8017,NNB,B,9
9,prac,1,0.0,2-Back,0,m,Tue Apr 08 2025 14:26:35 GMT-0500 (Central Daylight Time),397573.5,178_m_m_n_a.png,I,z,790,12,2,1557.4000000357628,396016.09999996424,8017,NNB,B,10
0,test,1,0.0,2-Back,,,Tue Apr 08 2025 14:26:35 GMT-0500 (Central Daylight Time),397573.5,153_y_m_n_a.png,I,space,5142,1,2,1557.4000000357628,396016.09999996424,8017,NNB,B,0
0,test,1,0.0,2-Back,,,Tue Apr 08 2025 14:26:35 GMT-0500 (Central Daylight Time),397573.5,153_y_m_n_a.png,I,space,5142,2,2,1557.4000000357628,396016.09999996424,8017,NNB,B,0
1,test,1,0.0,2-Back,1,m,Tue Apr 08 2025 14:26:35 GMT-0500 (Central Daylight Time),416667.09999996424,086_o_f_n_a.png,I,m,1350,3,2,2374.300000011921,414292.7999999523,8017,NNB,B,1
2,test,1,0.0,2-Back,1,m,Tue Apr 08 2025 14:26:35 GMT-0500 (Central Daylight Time),418382.6999999881,126_m_m_n_a.png,I,m,682,4,2,1708.699999988079,416674.0,8017,NNB,B,2
3,test,1,1.0,2-Back,1,z,Tue Apr 08 2025 14:26:35 GMT-0500 (Central Daylight Time),419981.2999999523,086_o_f_n_a.png,I,z,572,5,2,1592.8999999761581,418388.39999997616,8017,NNB,B,3
4,test,1,0.0,2-Back,1,m,Tue Apr 08 2025 14:26:35 GMT-0500 (Central Daylight Time),421515.6999999881,152_y_f_n_a.png,I,m,509,6,2,1528.1000000238419,419987.59999996424,8017,NNB,B,4
4,test,1,0.0,2-Back,0,m,Tue Apr 08 2025 14:26:35 GMT-0500 (Central Daylight Time),423197.1999999881,126_m_m_n_a.png,I,z,654,7,2,1675.6000000238419,421521.59999996424,8017,NNB,B,5
5,test,1,1.0,2-Back,1,z,Tue Apr 08 2025 14:26:35 GMT-0500 (Central Daylight Time),425261.89999997616,152_y_f_n_a.png,I,z,1046,8,2,2057.199999988079,423204.6999999881,8017,NNB,B,6
6,test,1,0.0,2-Back,1,m,Tue Apr 08 2025 14:26:35 GMT-0500 (Central Daylight Time),427045.89999997616,013_y_m_n_a.png,I,m,763,9,2,1777.8999999761581,425268.0,8017,NNB,B,7
7,test,1,0.0,2-Back,1,m,Tue Apr 08 2025 14:26:35 GMT-0500 (Central Daylight Time),428962.0,110_o_f_n_a.png,I,m,893,10,2,1907.300000011921,427054.6999999881,8017,NNB,B,8
8,test,1,1.0,2-Back,1,z,Tue Apr 08 2025 14:26:35 GMT-0500 (Central Daylight Time),430811.89999997616,013_y_m_n_a.png,I,z,825,11,2,1843.300000011921,428968.59999996424,8017,NNB,B,9
9,test,1,0.0,2-Back,1,m,Tue Apr 08 2025 14:26:35 GMT-0500 (Central Daylight Time),432612.39999997616,029_m_f_n_a.png,I,m,782,12,2,1794.1000000238419,430818.2999999523,8017,NNB,B,10
10,test,1,0.0,2-Back,1,m,Tue Apr 08 2025 14:26:35 GMT-0500 (Central Daylight Time),434443.09999996424,029_m_f_n_a.png,I,m,799,13,2,1823.3999999761581,432619.6999999881,8017,NNB,B,11
11,test,1,0.0,2-Back,1,m,Tue Apr 08 2025 14:26:35 GMT-0500 (Central Daylight Time),436393.5,065_o_m_n_a.png,I,m,918,14,2,1947.0,434446.5,8017,NNB,B,12
12,test,1,0.0,2-Back,1,m,Tue Apr 08 2025 14:26:35 GMT-0500 (Central Daylight Time),438610.1999999881,110_o_f_n_a.png,I,m,1184,15,2,2210.0,436400.1999999881,8017,NNB,B,13
13,test,1,1.0,2-Back,1,z,Tue Apr 08 2025 14:26:35 GMT-0500 (Central Daylight Time),440310.6999999881,065_o_m_n_a.png,I,z,682,16,2,1694.9000000357628,438615.7999999523,8017,NNB,B,14
14,test,1,0.0,2-Back,1,m,Tue Apr 08 2025 14:26:35 GMT-0500 (Central Daylight Time),441941.6999999881,097_m_f_n_a.png,I,m,604,17,2,1624.699999988079,440317.0,8017,NNB,B,15
15,test,1,0.0,2-Back,1,m,Tue Apr 08 2025 14:26:35 GMT-0500 (Central Daylight Time),443890.5,178_m_m_n_a.png,I,m,917,18,2,1941.6000000238419,441948.89999997616,8017,NNB,B,16
0,test,2,0.0,2-Back,,,Tue Apr 08 2025 14:26:35 GMT-0500 (Central Daylight Time),443890.5,178_m_m_n_a.png,I,space,1304,1,2,1941.6000000238419,441948.89999997616,8017,NNB,B,0
0,test,2,0.0,2-Back,,,Tue Apr 08 2025 14:26:35 GMT-0500 (Central Daylight Time),443890.5,173_y_f_n_a.png,I,space,1304,2,2,1941.6000000238419,441948.89999997616,8017,NNB,B,0
1,test,2,1.0,2-Back,1,z,Tue Apr 08 2025 14:26:35 GMT-0500 (Central Daylight Time),452271.7999999523,178_m_m_n_a.png,I,z,903,3,2,1924.2999999523163,450347.5,8017,NNB,B,1
2,test,2,0.0,2-Back,1,m,Tue Apr 08 2025 14:26:35 GMT-0500 (Central Daylight Time),453804.5,097_m_f_n_a.png,I,m,505,4,2,1525.300000011921,452279.1999999881,8017,NNB,B,2
2,test,2,0.0,2-Back,0,m,Tue Apr 08 2025 14:26:35 GMT-0500 (Central Daylight Time),455970.5,173_y_f_n_a.png,I,z,1142,5,2,2159.2000000476837,453811.2999999523,8017,NNB,B,3
3,test,2,0.0,2-Back,1,m,Tue Apr 08 2025 14:26:35 GMT-0500 (Central Daylight Time),457752.5,065_o_m_n_a.png,I,m,759,6,2,1774.5,455978.0,8017,NNB,B,4
4,test,2,0.0,2-Back,1,m,Tue Apr 08 2025 14:26:35 GMT-0500 (Central Daylight Time),459586.09999996424,152_y_f_n_a.png,I,m,808,7,2,1826.0,457760.09999996424,8017,NNB,B,5
5,test,2,1.0,2-Back,1,z,Tue Apr 08 2025 14:26:35 GMT-0500 (Central Daylight Time),461835.1999999881,065_o_m_n_a.png,I,z,1225,8,2,2243.199999988079,459592.0,8017,NNB,B,6
6,test,2,0.0,2-Back,1,m,Tue Apr 08 2025 14:26:35 GMT-0500 (Central Daylight Time),463717.39999997616,013_y_m_n_a.png,I,m,854,9,2,1876.199999988079,461841.1999999881,8017,NNB,B,7
7,test,2,0.0,2-Back,1,m,Tue Apr 08 2025 14:26:35 GMT-0500 (Central Daylight Time),465551.0,013_y_m_n_a.png,I,m,816,10,2,1827.300000011921,463723.6999999881,8017,NNB,B,8
8,test,2,0.0,2-Back,1,m,Tue Apr 08 2025 14:26:35 GMT-0500 (Central Daylight Time),467268.0,029_m_f_n_a.png,I,m,691,11,2,1710.4000000357628,465557.59999996424,8017,NNB,B,9
9,test,2,0.0,2-Back,1,m,Tue Apr 08 2025 14:26:35 GMT-0500 (Central Daylight Time),469215.1999999881,173_y_f_n_a.png,I,m,919,12,2,1941.199999988079,467274.0,8017,NNB,B,10
10,test,2,1.0,2-Back,1,z,Tue Apr 08 2025 14:26:35 GMT-0500 (Central Daylight Time),470898.5,029_m_f_n_a.png,I,z,657,13,2,1675.4000000357628,469223.09999996424,8017,NNB,B,11
11,test,2,0.0,2-Back,1,m,Tue Apr 08 2025 14:26:35 GMT-0500 (Central Daylight Time),472498.7999999523,176_o_m_n_a.png,I,m,565,14,2,1593.699999988079,470905.09999996424,8017,NNB,B,12
12,test,2,0.0,2-Back,1,m,Tue Apr 08 2025 14:26:35 GMT-0500 (Central Daylight Time),474781.0,176_o_m_n_a.png,I,m,1265,15,2,2274.600000023842,472506.39999997616,8017,NNB,B,13
13,test,2,0.0,2-Back,1,m,Tue Apr 08 2025 14:26:35 GMT-0500 (Central Daylight Time),476566.59999996424,110_o_f_n_a.png,I,m,768,16,2,1780.699999988079,474785.89999997616,8017,NNB,B,14
14,test,2,0.0,2-Back,1,m,Tue Apr 08 2025 14:26:35 GMT-0500 (Central Daylight Time),478397.0,126_m_m_n_a.png,I,m,805,17,2,1822.9000000357628,476574.09999996424,8017,NNB,B,15
15,test,2,1.0,2-Back,1,z,Tue Apr 08 2025 14:26:35 GMT-0500 (Central Daylight Time),480181.09999996424,110_o_f_n_a.png,I,z,767,18,2,1777.800000011921,478403.2999999523,8017,NNB,B,16
0,test,3,1.0,2-Back,,,Tue Apr 08 2025 14:26:35 GMT-0500 (Central Daylight Time),480181.09999996424,153_y_m_n_a.png,I,space,1005,1,2,1777.800000011921,478403.2999999523,8017,NNB,B,0
0,test,3,1.0,2-Back,,,Tue Apr 08 2025 14:26:35 GMT-0500 (Central Daylight Time),480181.09999996424,153_y_m_n_a.png,I,space,1005,2,2,1777.800000011921,478403.2999999523,8017,NNB,B,0
1,test,3,0.0,2-Back,1,m,Tue Apr 08 2025 14:26:35 GMT-0500 (Central Daylight Time),488291.09999996424,110_o_f_n_a.png,I,m,947,3,2,1957.800000011921,486333.2999999523,8017,NNB,B,1
2,test,3,0.0,2-Back,1,m,Tue Apr 08 2025 14:26:35 GMT-0500 (Central Daylight Time),490060.59999996424,178_m_m_n_a.png,I,m,732,4,2,1766.5999999642372,488294.0,8017,NNB,B,2
3,test,3,1.0,2-Back,1,z,Tue Apr 08 2025 14:26:35 GMT-0500 (Central Daylight Time),491725.7999999523,110_o_f_n_a.png,I,z,638,5,2,1658.0999999642372,490067.6999999881,8017,NNB,B,3
4,test,3,0.0,2-Back,1,m,Tue Apr 08 2025 14:26:35 GMT-0500 (Central Daylight Time),493308.1999999881,013_y_m_n_a.png,I,m,557,6,2,1574.699999988079,491733.5,8017,NNB,B,4
5,test,3,0.0,2-Back,1,m,Tue Apr 08 2025 14:26:35 GMT-0500 (Central Daylight Time),495091.6999999881,178_m_m_n_a.png,I,m,758,7,2,1775.5,493316.1999999881,8017,NNB,B,5
6,test,3,1.0,2-Back,1,z,Tue Apr 08 2025 14:26:35 GMT-0500 (Central Daylight Time),496874.6999999881,013_y_m_n_a.png,I,z,758,8,2,1775.699999988079,495099.0,8017,NNB,B,6
7,test,3,0.0,2-Back,1,m,Tue Apr 08 2025 14:26:35 GMT-0500 (Central Daylight Time),498557.2999999523,173_y_f_n_a.png,I,m,656,9,2,1676.5999999642372,496880.6999999881,8017,NNB,B,7
8,test,3,0.0,2-Back,1,m,Tue Apr 08 2025 14:26:35 GMT-0500 (Central Daylight Time),500239.1999999881,126_m_m_n_a.png,I,m,662,10,2,1672.800000011921,498566.39999997616,8017,NNB,B,8
9,test,3,1.0,2-Back,1,z,Tue Apr 08 2025 14:26:35 GMT-0500 (Central Daylight Time),501973.0,173_y_f_n_a.png,I,z,715,11,2,1726.2000000476837,500246.7999999523,8017,NNB,B,9
9,test,3,1.0,2-Back,0,z,Tue Apr 08 2025 14:26:35 GMT-0500 (Central Daylight Time),503804.1999999881,126_m_m_n_a.png,I,m,805,12,2,1823.9000000357628,501980.2999999523,8017,NNB,B,10
10,test,3,0.0,2-Back,1,m,Tue Apr 08 2025 14:26:35 GMT-0500 (Central Daylight Time),505489.6999999881,110_o_f_n_a.png,I,m,661,13,2,1679.300000011921,503810.39999997616,8017,NNB,B,11
11,test,3,0.0,2-Back,1,m,Tue Apr 08 2025 14:26:35 GMT-0500 (Central Daylight Time),507089.6999999881,097_m_f_n_a.png,I,m,568,14,2,1592.4000000357628,505497.2999999523,8017,NNB,B,12
12,test,3,0.0,2-Back,1,m,Tue Apr 08 2025 14:26:35 GMT-0500 (Central Daylight Time),508756.2999999523,065_o_m_n_a.png,I,m,651,15,2,1659.699999988079,507096.59999996424,8017,NNB,B,13
13,test,3,1.0,2-Back,1,z,Tue Apr 08 2025 14:26:35 GMT-0500 (Central Daylight Time),510420.6999999881,097_m_f_n_a.png,I,z,649,16,2,1657.0,508763.6999999881,8017,NNB,B,14
14,test,3,0.0,2-Back,1,m,Tue Apr 08 2025 14:26:35 GMT-0500 (Central Daylight Time),511952.7999999523,086_o_f_n_a.png,I,m,511,17,2,1525.5,510427.2999999523,8017,NNB,B,15
15,test,3,0.0,2-Back,1,m,Tue Apr 08 2025 14:26:35 GMT-0500 (Central Daylight Time),513636.0,086_o_f_n_a.png,I,m,658,18,2,1675.9000000357628,511960.09999996424,8017,NNB,B,16
0,test,4,0.0,2-Back,,,Tue Apr 08 2025 14:26:35 GMT-0500 (Central Daylight Time),513636.0,176_o_m_n_a.png,I,space,1126,1,2,1675.9000000357628,511960.09999996424,8017,NNB,B,0
0,test,4,0.0,2-Back,,,Tue Apr 08 2025 14:26:35 GMT-0500 (Central Daylight Time),513636.0,152_y_f_n_a.png,I,space,1126,2,2,1675.9000000357628,511960.09999996424,8017,NNB,B,0
1,test,4,1.0,2-Back,1,z,Tue Apr 08 2025 14:26:35 GMT-0500 (Central Daylight Time),522201.2999999523,176_o_m_n_a.png,I,z,1186,3,2,2208.5,519992.7999999523,8017,NNB,B,1
2,test,4,1.0,2-Back,1,z,Tue Apr 08 2025 14:26:35 GMT-0500 (Central Daylight Time),523900.0,152_y_f_n_a.png,I,z,683,4,2,1692.2000000476837,522207.7999999523,8017,NNB,B,2
3,test,4,0.0,2-Back,1,m,Tue Apr 08 2025 14:26:35 GMT-0500 (Central Daylight Time),525648.8999999762,110_o_f_n_a.png,I,m,719,5,2,1740.8999999761581,523908.0,8017,NNB,B,3
4,test,4,0.0,2-Back,1,m,Tue Apr 08 2025 14:26:35 GMT-0500 (Central Daylight Time),527414.8999999762,110_o_f_n_a.png,I,m,748,6,2,1758.6000000238419,525656.2999999523,8017,NNB,B,4
5,test,4,0.0,2-Back,1,m,Tue Apr 08 2025 14:26:35 GMT-0500 (Central Daylight Time),529446.5,029_m_f_n_a.png,I,m,1011,7,2,2023.9000000357628,527422.5999999642,8017,NNB,B,5
6,test,4,0.0,2-Back,1,m,Tue Apr 08 2025 14:26:35 GMT-0500 (Central Daylight Time),531331.1999999881,013_y_m_n_a.png,I,m,867,8,2,1877.300000011921,529453.8999999762,8017,NNB,B,6
7,test,4,1.0,2-Back,1,z,Tue Apr 08 2025 14:26:35 GMT-0500 (Central Daylight Time),532912.2999999523,029_m_f_n_a.png,I,z,561,9,2,1574.0,531338.2999999523,8017,NNB,B,7
8,test,4,0.0,2-Back,1,m,Tue Apr 08 2025 14:26:35 GMT-0500 (Central Daylight Time),534580.0999999642,126_m_m_n_a.png,I,m,649,10,2,1660.800000011921,532919.2999999523,8017,NNB,B,8
8,test,4,0.0,2-Back,0,m,Tue Apr 08 2025 14:26:35 GMT-0500 (Central Daylight Time),536413.0999999642,013_y_m_n_a.png,I,z,799,11,2,1825.8999999761581,534587.1999999881,8017,NNB,B,9
9,test,4,0.0,2-Back,1,m,Tue Apr 08 2025 14:26:35 GMT-0500 (Central Daylight Time),538061.2999999523,086_o_f_n_a.png,I,m,622,12,2,1645.199999988079,536416.0999999642,8017,NNB,B,10
10,test,4,0.0,2-Back,1,m,Tue Apr 08 2025 14:26:35 GMT-0500 (Central Daylight Time),540260.8999999762,153_y_m_n_a.png,I,m,1174,13,2,2192.5,538068.3999999762,8017,NNB,B,11
10,test,4,1.0,2-Back,0,z,Tue Apr 08 2025 14:26:35 GMT-0500 (Central Daylight Time),542545.2999999523,086_o_f_n_a.png,I,m,1260,14,2,2277.899999976158,540267.3999999762,8017,NNB,B,12
10,test,4,1.0,2-Back,0,z,Tue Apr 08 2025 14:26:35 GMT-0500 (Central Daylight Time),545073.5,153_y_m_n_a.png,I,m,1508,15,2,2524.0,542549.5,8017,NNB,B,13
11,test,4,0.0,2-Back,1,m,Tue Apr 08 2025 14:26:35 GMT-0500 (Central Daylight Time),546925.0,178_m_m_n_a.png,I,m,831,16,2,1845.0,545080.0,8017,NNB,B,14
12,test,4,0.0,2-Back,1,m,Tue Apr 08 2025 14:26:35 GMT-0500 (Central Daylight Time),548573.6999999881,097_m_f_n_a.png,I,m,629,17,2,1642.1000000238419,546931.5999999642,8017,NNB,B,15
12,test,4,1.0,2-Back,0,z,Tue Apr 08 2025 14:26:35 GMT-0500 (Central Daylight Time),550190.3999999762,178_m_m_n_a.png,I,m,599,18,2,1609.5,548580.8999999762,8017,NNB,B,16
0,test,5,1.0,2-Back,,,Tue Apr 08 2025 14:26:35 GMT-0500 (Central Daylight Time),550190.3999999762,153_y_m_n_a.png,I,space,1092,1,2,1609.5,548580.8999999762,8017,NNB,B,0
0,test,5,1.0,2-Back,,,Tue Apr 08 2025 14:26:35 GMT-0500 (Central Daylight Time),550190.3999999762,097_m_f_n_a.png,I,space,1092,2,2,1609.5,548580.8999999762,8017,NNB,B,0
1,test,5,1.0,2-Back,1,z,Tue Apr 08 2025 14:26:35 GMT-0500 (Central Daylight Time),558189.0999999642,153_y_m_n_a.png,I,z,833,3,2,1844.0999999642372,556345.0,8017,NNB,B,1
2,test,5,1.0,2-Back,1,z,Tue Apr 08 2025 14:26:35 GMT-0500 (Central Daylight Time),559870.5999999642,097_m_f_n_a.png,I,z,653,4,2,1674.3999999761581,558196.1999999881,8017,NNB,B,2
3,test,5,0.0,2-Back,1,m,Tue Apr 08 2025 14:26:35 GMT-0500 (Central Daylight Time),561703.0999999642,086_o_f_n_a.png,I,m,811,5,2,1825.5999999642372,559877.5,8017,NNB,B,3
3,test,5,0.0,2-Back,0,m,Tue Apr 08 2025 14:26:35 GMT-0500 (Central Daylight Time),564736.2999999523,153_y_m_n_a.png,I,None,2016,6,2,3028.199999988079,561708.0999999642,8017,NNB,B,4
4,test,5,0.0,2-Back,1,m,Tue Apr 08 2025 14:26:35 GMT-0500 (Central Daylight Time),566585.1999999881,173_y_f_n_a.png,I,m,818,7,2,1841.5,564743.6999999881,8017,NNB,B,5
4,test,5,0.0,2-Back,0,m,Tue Apr 08 2025 14:26:35 GMT-0500 (Central Daylight Time),569618.5999999642,086_o_f_n_a.png,I,None,2016,8,2,3026.399999976158,566592.1999999881,8017,NNB,B,6
5,test,5,1.0,2-Back,1,z,Tue Apr 08 2025 14:26:35 GMT-0500 (Central Daylight Time),571433.6999999881,173_y_f_n_a.png,I,z,783,9,2,1809.1000000238419,569624.5999999642,8017,NNB,B,7
6,test,5,0.0,2-Back,1,m,Tue Apr 08 2025 14:26:35 GMT-0500 (Central Daylight Time),573166.5999999642,065_o_m_n_a.png,I,m,705,10,2,1726.0,571440.5999999642,8017,NNB,B,8
7,test,5,0.0,2-Back,1,m,Tue Apr 08 2025 14:26:35 GMT-0500 (Central Daylight Time),574664.7999999523,029_m_f_n_a.png,I,m,476,11,2,1491.0,573173.7999999523,8017,NNB,B,9
8,test,5,0.0,2-Back,1,m,Tue Apr 08 2025 14:26:35 GMT-0500 (Central Daylight Time),576349.6999999881,126_m_m_n_a.png,I,m,657,12,2,1677.9000000357628,574671.7999999523,8017,NNB,B,10
9,test,5,0.0,2-Back,1,m,Tue Apr 08 2025 14:26:35 GMT-0500 (Central Daylight Time),578447.8999999762,065_o_m_n_a.png,I,m,1068,13,2,2091.0,576356.8999999762,8017,NNB,B,11
9,test,5,1.0,2-Back,0,z,Tue Apr 08 2025 14:26:35 GMT-0500 (Central Daylight Time),580115.1999999881,126_m_m_n_a.png,I,m,643,14,2,1660.699999988079,578454.5,8017,NNB,B,12
10,test,5,0.0,2-Back,1,m,Tue Apr 08 2025 14:26:35 GMT-0500 (Central Daylight Time),581814.2999999523,152_y_f_n_a.png,I,m,672,15,2,1691.8999999761581,580122.3999999762,8017,NNB,B,13
11,test,5,0.0,2-Back,1,m,Tue Apr 08 2025 14:26:35 GMT-0500 (Central Daylight Time),583480.5,176_o_m_n_a.png,I,m,637,16,2,1659.9000000357628,581820.5999999642,8017,NNB,B,14
12,test,5,0.0,2-Back,1,m,Tue Apr 08 2025 14:26:35 GMT-0500 (Central Daylight Time),584980.0999999642,029_m_f_n_a.png,I,m,482,17,2,1492.699999988079,583487.3999999762,8017,NNB,B,15
13,test,5,1.0,2-Back,1,z,Tue Apr 08 2025 14:26:35 GMT-0500 (Central Daylight Time),586895.0,176_o_m_n_a.png,I,z,886,18,2,1908.7000000476837,584986.2999999523,8017,NNB,B,16
