acc_sum,block,block_c,condition,correct,correct_response,datetime,endtime,flanker,jitter,project,response,response_test_buffer_response,response_test_target_response,response_time,response_time_test_buffer_response,response_time_test_target_response,row_sel,session_number,start_end,starttime,subject_id,target,task,task_vers,time_test_buffer,time_test_buffer_response,time_test_constants,time_test_flanker,time_test_jitter,time_test_logger,time_test_target,time_test_target_response,time_test_variables,trial
1,prac,1,inc,1,z,Wed Apr 02 2025 16:08:54 GMT-0400 (Eastern Daylight Time),385633.7999997139,lead,1100,I,z,,,829,,,8,1,3224.0,382409.7999997139,9010,plum,NF,C,,,,,,,,,,1
2,prac,1,inc,1,z,Wed Apr 02 2025 16:08:54 GMT-0400 (Eastern Daylight Time),388716.90000009537,cobalt,1100,I,z,,,668,,,4,1,3071.0,385645.90000009537,9010,raisin,NF,C,,,,,,,,,,2
3,prac,1,con,1,m,Wed Apr 02 2025 16:08:54 GMT-0400 (Eastern Daylight Time),391450.09999990463,bronze,800,I,m,,,621,,,9,1,2722.9000000953674,388727.19999980927,9010,bronze,NF,C,,,,,,,,,,3
4,prac,1,con,1,m,Wed Apr 02 2025 16:08:54 GMT-0400 (Eastern Daylight Time),394316.90000009537,zinc,1000,I,m,,,553,,,15,1,2856.7000002861023,391460.19999980927,9010,zinc,NF,C,,,,,,,,,,4
5,prac,1,con,1,z,Wed Apr 02 2025 16:08:54 GMT-0400 (Eastern Daylight Time),397183.59999990463,banana,800,I,z,,,749,,,1,1,2856.699999809265,394326.90000009537,9010,banana,NF,C,,,,,,,,,,5
6,prac,1,inc,1,m,Wed Apr 02 2025 16:08:54 GMT-0400 (Eastern Daylight Time),399916.90000009537,pear,900,I,m,,,519,,,14,1,2723.0,397193.90000009537,9010,iron,NF,C,,,,,,,,,,6
7,prac,1,con,1,m,Wed Apr 02 2025 16:08:54 GMT-0400 (Eastern Daylight Time),402683.5,gold,800,I,m,,,653,,,13,1,2756.5,399927.0,9010,gold,NF,C,,,,,,,,,,7
8,prac,1,inc,1,m,Wed Apr 02 2025 16:08:54 GMT-0400 (Eastern Daylight Time),405783.40000009537,plum,1100,I,m,,,691,,,16,1,3090.300000190735,402693.09999990463,9010,lead,NF,C,,,,,,,,,,8
9,prac,1,inc,1,z,Wed Apr 02 2025 16:08:54 GMT-0400 (Eastern Daylight Time),408683.19999980927,copper,900,I,z,,,687,,,2,1,2891.0,405792.19999980927,9010,cherry,NF,C,,,,,,,,,,9
10,prac,1,con,1,m,Wed Apr 02 2025 16:08:54 GMT-0400 (Eastern Daylight Time),411616.7999997139,silver,1000,I,m,,,615,,,11,1,2922.5,408694.2999997139,9010,silver,NF,C,,,,,,,,,,10
11,prac,1,inc,1,m,Wed Apr 02 2025 16:08:54 GMT-0400 (Eastern Daylight Time),414450.0,cherry,900,I,m,,,630,,,10,1,2822.5999999046326,411627.40000009537,9010,copper,NF,C,,,,,,,,,,11
12,prac,1,inc,1,m,Wed Apr 02 2025 16:08:54 GMT-0400 (Eastern Daylight Time),417466.90000009537,raisin,1100,I,m,,,605,,,12,1,3007.1000003814697,414459.7999997139,9010,cobalt,NF,C,,,,,,,,,,12
13,prac,1,con,1,z,Wed Apr 02 2025 16:08:54 GMT-0400 (Eastern Daylight Time),420300.19999980927,kiwi,1000,I,z,,,519,,,7,1,2824.0999999046326,417476.09999990463,9010,kiwi,NF,C,,,,,,,,,,13
13,prac,1,inc,0,z,Wed Apr 02 2025 16:08:54 GMT-0400 (Eastern Daylight Time),423033.2999997139,iron,900,I,m,,,522,,,6,1,2721.699999809265,420311.59999990463,9010,pear,NF,C,,,,,,,,,,14
14,prac,1,con,1,z,Wed Apr 02 2025 16:08:54 GMT-0400 (Eastern Daylight Time),425716.40000009537,lime,800,I,z,,,577,,,5,1,2674.2000002861023,423042.19999980927,9010,lime,NF,C,,,,,,,,,,15
15,prac,1,con,1,z,Wed Apr 02 2025 16:08:54 GMT-0400 (Eastern Daylight Time),428566.5,orange,1000,I,z,,,542,,,3,1,2841.0999999046326,425725.40000009537,9010,orange,NF,C,,,,,,,,,,16
1,test,1,con,1,m,Wed Apr 02 2025 16:08:54 GMT-0400 (Eastern Daylight Time),449216.90000009537,copper,800,I,m,m,None,466,267.0,199.0,73,1,1808.7000002861023,447408.19999980927,9010,copper,NF,C,172731,172731,171205,172014,171206,173014,172531,172531,173014,1
2,test,1,con,1,m,Wed Apr 02 2025 16:08:54 GMT-0400 (Eastern Daylight Time),451216.7999997139,copper,1000,I,m,m,None,449,250.0,199.0,75,1,1988.7999997138977,449228.0,9010,copper,NF,C,174748,174748,173025,174031,173026,175014,174548,174548,175014,2
3,test,1,con,1,z,Wed Apr 02 2025 16:08:54 GMT-0400 (Eastern Daylight Time),453267.59999990463,plum,1100,I,z,z,None,413,214.0,199.0,60,1,2040.6999998092651,451226.90000009537,9010,plum,NF,C,176848,176848,175024,176131,175025,177065,176648,176648,177065,3
4,test,1,con,1,z,Wed Apr 02 2025 16:08:54 GMT-0400 (Eastern Daylight Time),455216.59999990463,pear,1000,I,z,z,None,399,200.0,199.0,43,1,1938.1999998092651,453278.40000009537,9010,pear,NF,C,178797,178798,177075,178081,177076,179014,178598,178598,179014,4
5,test,1,inc,1,m,Wed Apr 02 2025 16:08:54 GMT-0400 (Eastern Daylight Time),457149.90000009537,lime,800,I,m,m,None,586,387.0,199.0,125,1,1924.1000003814697,455225.7999997139,9010,lead,NF,C,180547,180547,179023,179831,179023,180947,180348,180348,180947,5
6,test,1,con,1,m,Wed Apr 02 2025 16:08:54 GMT-0400 (Eastern Daylight Time),459216.59999990463,copper,1100,I,m,m,None,416,217.0,199.0,76,1,2057.199999809265,457159.40000009537,9010,copper,NF,C,182781,182781,180956,182064,180957,183014,182581,182581,183014,6
7,test,1,inc,1,z,Wed Apr 02 2025 16:08:54 GMT-0400 (Eastern Daylight Time),461216.40000009537,copper,900,I,z,z,None,549,350.0,199.0,22,1,1990.3000001907349,459226.09999990463,9010,orange,NF,C,184647,184648,183023,183931,183024,185014,184448,184448,185013,7
8,test,1,con,1,m,Wed Apr 02 2025 16:08:54 GMT-0400 (Eastern Daylight Time),463250.0,zinc,900,I,m,m,None,582,383.0,199.0,114,1,2022.5,461227.5,9010,zinc,NF,C,186647,186648,185025,185930,185025,187047,186448,186448,187047,8
9,test,1,con,1,m,Wed Apr 02 2025 16:08:54 GMT-0400 (Eastern Daylight Time),465366.59999990463,zinc,1000,I,m,m,None,576,377.0,199.0,115,1,2106.800000190735,463259.7999997139,9010,zinc,NF,C,188781,188781,187057,188064,187057,189164,188581,188581,189164,9
10,test,1,con,1,m,Wed Apr 02 2025 16:08:54 GMT-0400 (Eastern Daylight Time),467149.7999997139,gold,800,I,m,m,None,435,236.0,199.0,97,1,1773.1999998092651,465376.59999990463,9010,gold,NF,C,190698,190698,189174,189980,189174,190947,190498,190498,190947,10
11,test,1,inc,1,z,Wed Apr 02 2025 16:08:54 GMT-0400 (Eastern Daylight Time),469050.0,gold,800,I,z,z,None,556,357.0,199.0,61,1,1890.5999999046326,467159.40000009537,9010,plum,NF,C,192481,192481,190956,191764,190957,192847,192281,192281,192847,11
12,test,1,con,1,m,Wed Apr 02 2025 16:08:54 GMT-0400 (Eastern Daylight Time),471233.40000009537,iron,1000,I,m,m,None,633,434.0,199.0,107,1,2173.9000000953674,469059.5,9010,iron,NF,C,194581,194581,192857,193864,192857,195030,194381,194381,195030,12
13,test,1,con,1,z,Wed Apr 02 2025 16:08:54 GMT-0400 (Eastern Daylight Time),473333.2999997139,orange,1100,I,z,z,None,460,245.0,215.0,20,1,2090.3999996185303,471242.90000009537,9010,orange,NF,C,196881,196881,195040,196147,195040,197130,196665,196665,197130,13
14,test,1,con,1,z,Wed Apr 02 2025 16:08:54 GMT-0400 (Eastern Daylight Time),475216.59999990463,kiwi,900,I,z,z,None,433,234.0,199.0,50,1,1872.9000000953674,473343.69999980927,9010,kiwi,NF,C,198764,198764,197141,198048,197141,199014,198564,198564,199014,14
15,test,1,inc,1,m,Wed Apr 02 2025 16:08:54 GMT-0400 (Eastern Daylight Time),477283.09999990463,orange,1000,I,m,m,None,530,331.0,199.0,71,1,2057.800000190735,475225.2999997139,9010,bronze,NF,C,200747,200747,199022,200031,199023,201080,200548,200548,201080,15
16,test,1,con,1,m,Wed Apr 02 2025 16:08:54 GMT-0400 (Eastern Daylight Time),479299.90000009537,lead,800,I,m,m,None,679,480.0,199.0,121,1,2005.7000002861023,477294.19999980927,9010,lead,NF,C,202614,202614,201091,201897,201092,203097,202414,202414,203097,16
17,test,1,con,1,z,Wed Apr 02 2025 16:08:54 GMT-0400 (Eastern Daylight Time),481250.2999997139,plum,800,I,z,z,None,615,416.0,199.0,57,1,1941.2999997138977,479309.0,9010,plum,NF,C,204631,204631,203106,203914,203107,205047,204431,204431,205047,17
18,test,1,inc,1,z,Wed Apr 02 2025 16:08:54 GMT-0400 (Eastern Daylight Time),483166.5,bronze,800,I,z,z,None,569,370.0,199.0,5,1,1907.8000001907349,481258.69999980927,9010,banana,NF,C,206580,206580,205056,205864,205056,206964,206381,206381,206964,18
19,test,1,inc,1,z,Wed Apr 02 2025 16:08:54 GMT-0400 (Eastern Daylight Time),485166.59999990463,bronze,800,I,z,z,None,651,452.0,199.0,13,1,1992.0,483174.59999990463,9010,cherry,NF,C,208497,208498,206972,207781,206972,208964,208298,208298,208964,19
20,test,1,con,1,m,Wed Apr 02 2025 16:08:54 GMT-0400 (Eastern Daylight Time),487266.0,lead,1100,I,m,m,None,463,248.0,215.0,124,1,2088.7000002861023,485177.2999997139,9010,lead,NF,C,210813,210814,208974,210081,208975,211063,210598,210598,211063,20
21,test,1,con,1,m,Wed Apr 02 2025 16:08:54 GMT-0400 (Eastern Daylight Time),489099.90000009537,bronze,800,I,m,m,None,487,288.0,199.0,65,1,1824.6000003814697,487275.2999997139,9010,bronze,NF,C,212598,212598,211072,211881,211073,212897,212398,212398,212897,21
22,test,1,con,1,z,Wed Apr 02 2025 16:08:54 GMT-0400 (Eastern Daylight Time),491083.19999980927,lime,1000,I,z,z,None,439,240.0,199.0,35,1,1972.7999997138977,489110.40000009537,9010,lime,NF,C,214630,214630,212907,213914,212908,214880,214431,214431,214880,22
23,test,1,con,1,m,Wed Apr 02 2025 16:08:54 GMT-0400 (Eastern Daylight Time),492916.5,iron,900,I,m,m,None,396,197.0,199.0,106,1,1824.4000000953674,491092.09999990463,9010,iron,NF,C,216514,216514,214889,215798,214890,216714,216314,216314,216714,23
24,test,1,con,1,z,Wed Apr 02 2025 16:08:54 GMT-0400 (Eastern Daylight Time),494733.19999980927,cherry,900,I,z,z,None,370,171.0,199.0,10,1,1804.0999999046326,492929.09999990463,9010,cherry,NF,C,218347,218347,216726,217631,216726,218530,218148,218148,218530,24
25,test,1,inc,1,z,Wed Apr 02 2025 16:08:54 GMT-0400 (Eastern Daylight Time),496816.5,gold,800,I,z,z,None,733,534.0,199.0,53,1,2073.5,494743.0,9010,kiwi,NF,C,220064,220064,218540,219347,218541,220614,219864,219864,220614,25
26,test,1,inc,1,m,Wed Apr 02 2025 16:08:54 GMT-0400 (Eastern Daylight Time),498799.90000009537,pear,900,I,m,m,None,534,335.0,199.0,102,1,1974.7000002861023,496825.19999980927,9010,gold,NF,C,222247,222247,220622,221531,220623,222597,222048,222048,222597,26
27,test,1,inc,1,m,Wed Apr 02 2025 16:08:54 GMT-0400 (Eastern Daylight Time),501116.5,plum,1100,I,m,m,None,670,471.0,199.0,128,1,2308.300000190735,498808.19999980927,9010,lead,NF,C,224431,224431,222605,223714,222606,224914,224231,224231,224913,27
28,test,1,con,1,z,Wed Apr 02 2025 16:08:54 GMT-0400 (Eastern Daylight Time),503316.5,pear,1100,I,z,z,None,565,364.0,201.0,44,1,2188.5999999046326,501127.90000009537,9010,pear,NF,C,226747,226747,224925,226031,224925,227114,226546,226546,227114,28
29,test,1,inc,1,m,Wed Apr 02 2025 16:08:54 GMT-0400 (Eastern Daylight Time),505333.09999990463,cherry,900,I,m,m,None,578,379.0,199.0,78,1,2008.3000001907349,503324.7999997139,9010,copper,NF,C,228747,228747,227122,228031,227122,229130,228548,228548,229130,29
30,test,1,con,1,m,Wed Apr 02 2025 16:08:54 GMT-0400 (Eastern Daylight Time),507633.19999980927,silver,1100,I,m,m,None,649,450.0,199.0,84,1,2291.9000000953674,505341.2999997139,9010,silver,NF,C,230964,230964,229138,230248,229139,231430,230764,230764,231430,30
31,test,1,con,1,z,Wed Apr 02 2025 16:08:54 GMT-0400 (Eastern Daylight Time),509450.0,orange,800,I,z,z,None,473,274.0,199.0,17,1,1808.3000001907349,507641.69999980927,9010,orange,NF,C,232964,232964,231439,232247,231439,233247,232764,232764,233247,31
32,test,1,inc,1,m,Wed Apr 02 2025 16:08:54 GMT-0400 (Eastern Daylight Time),511349.90000009537,banana,800,I,m,m,None,560,361.0,199.0,93,1,1890.1000003814697,509459.7999997139,9010,cobalt,NF,C,234781,234781,233257,234064,233257,235147,234581,234581,235147,32
33,test,1,inc,1,z,Wed Apr 02 2025 16:08:54 GMT-0400 (Eastern Daylight Time),513149.90000009537,bronze,800,I,z,z,None,452,253.0,199.0,29,1,1791.4000000953674,511358.5,9010,raisin,NF,C,236681,236681,235156,235964,235156,236947,236481,236481,236947,33
34,test,1,con,1,z,Wed Apr 02 2025 16:08:54 GMT-0400 (Eastern Daylight Time),514999.90000009537,pear,900,I,z,z,None,409,210.0,199.0,42,1,1841.0,513158.90000009537,9010,pear,NF,C,238581,238581,236956,237864,236956,238797,238381,238381,238797,34
35,test,1,con,1,m,Wed Apr 02 2025 16:08:54 GMT-0400 (Eastern Daylight Time),516816.5,copper,900,I,m,m,None,366,167.0,199.0,74,1,1807.7000002861023,515008.7999997139,9010,copper,NF,C,240431,240431,238806,239714,238806,240614,240231,240231,240613,35
36,test,1,inc,1,z,Wed Apr 02 2025 16:08:54 GMT-0400 (Eastern Daylight Time),518999.7999997139,lead,1100,I,z,z,None,542,343.0,199.0,56,1,2174.2999997138977,516825.5,9010,kiwi,NF,C,242447,242447,240623,241731,240623,242797,242248,242248,242797,36
37,test,1,inc,1,z,Wed Apr 02 2025 16:08:54 GMT-0400 (Eastern Daylight Time),521099.7999997139,copper,900,I,z,z,None,654,455.0,199.0,30,1,2089.5999999046326,519010.19999980927,9010,raisin,NF,C,244431,244431,242807,243714,242808,244897,244231,244231,244897,37
38,test,1,inc,1,m,Wed Apr 02 2025 16:08:54 GMT-0400 (Eastern Daylight Time),522883.09999990463,lime,800,I,m,m,None,446,247.0,199.0,117,1,1774.3000001907349,521108.7999997139,9010,zinc,NF,C,246431,246431,244906,245714,244906,246680,246231,246231,246680,38
39,test,1,con,1,m,Wed Apr 02 2025 16:08:54 GMT-0400 (Eastern Daylight Time),525083.0999999046,gold,1100,I,m,m,None,555,340.0,215.0,100,1,2191.0999999046326,522892.0,9010,gold,NF,C,248531,248531,246689,247797,246690,248880,248314,248315,248880,39
40,test,1,inc,1,z,Wed Apr 02 2025 16:08:54 GMT-0400 (Eastern Daylight Time),527149.6999998093,silver,1000,I,z,z,None,519,320.0,199.0,31,1,2057.199999809265,525092.5,9010,raisin,NF,C,250614,250614,248890,249898,248890,250947,250414,250414,250947,40
40,test,1,inc,0,z,Wed Apr 02 2025 16:08:54 GMT-0400 (Eastern Daylight Time),529216.5999999046,zinc,1000,I,m,m,None,516,317.0,199.0,39,1,2058.5999999046326,527158.0,9010,lime,NF,C,252681,252681,250955,251964,250955,253014,252481,252481,253014,41
41,test,1,con,1,z,Wed Apr 02 2025 16:08:54 GMT-0400 (Eastern Daylight Time),531266.1999998093,banana,1100,I,z,z,None,415,215.0,200.0,4,1,2041.0999999046326,529225.0999999046,9010,banana,NF,C,254847,254847,253022,254131,253023,255063,254647,254647,255063,42
42,test,1,con,1,z,Wed Apr 02 2025 16:08:54 GMT-0400 (Eastern Daylight Time),533249.5999999046,cherry,1000,I,z,z,None,433,234.0,199.0,11,1,1970.3000001907349,531279.2999997139,9010,cherry,NF,C,256797,256797,255076,256081,255077,257047,256598,256598,257047,43
43,test,1,inc,1,m,Wed Apr 02 2025 16:08:54 GMT-0400 (Eastern Daylight Time),535366.4000000954,raisin,1100,I,m,m,None,477,278.0,199.0,80,1,2106.2000002861023,533260.1999998093,9010,copper,NF,C,258881,258881,257057,258164,257058,259164,258681,258681,259163,44
44,test,1,con,1,m,Wed Apr 02 2025 16:08:54 GMT-0400 (Eastern Daylight Time),537566.5,cobalt,900,I,m,m,None,753,553.0,200.0,90,1,2191.4000000953674,535375.0999999046,9010,cobalt,NF,C,260797,260797,259172,260081,259173,261364,260597,260597,261363,45
45,test,1,inc,1,m,Wed Apr 02 2025 16:08:54 GMT-0400 (Eastern Daylight Time),539783.0999999046,plum,1100,I,m,m,None,576,377.0,199.0,120,1,2207.699999809265,537575.4000000954,9010,zinc,NF,C,263197,263197,261372,262481,261373,263580,262998,262998,263580,46
46,test,1,inc,1,m,Wed Apr 02 2025 16:08:54 GMT-0400 (Eastern Daylight Time),541899.9000000954,kiwi,1000,I,m,m,None,571,372.0,199.0,119,1,2106.1000003814697,539793.7999997139,9010,zinc,NF,C,265314,265314,263591,264598,263591,265697,265114,265114,265697,47
47,test,1,inc,1,m,Wed Apr 02 2025 16:08:54 GMT-0400 (Eastern Daylight Time),544166.5999999046,raisin,1100,I,m,m,None,626,427.0,199.0,72,1,2258.4000000953674,541908.1999998093,9010,bronze,NF,C,267530,267531,265705,266814,265706,267964,267331,267331,267963,48
48,test,1,inc,1,m,Wed Apr 02 2025 16:08:54 GMT-0400 (Eastern Daylight Time),546416.4000000954,orange,1000,I,m,m,None,701,501.0,200.0,87,1,2240.7000002861023,544175.6999998093,9010,silver,NF,C,269697,269697,267973,268981,267973,270213,269497,269497,270213,49
49,test,1,inc,1,z,Wed Apr 02 2025 16:08:54 GMT-0400 (Eastern Daylight Time),548399.6999998093,iron,900,I,z,z,None,534,335.0,199.0,54,1,1974.0,546425.6999998093,9010,kiwi,NF,C,271847,271847,270223,271131,270223,272197,271648,271648,272197,50
50,test,1,con,1,z,Wed Apr 02 2025 16:08:54 GMT-0400 (Eastern Daylight Time),550783.0999999046,kiwi,1100,I,z,z,None,734,535.0,199.0,52,1,2374.800000190735,548408.2999997139,9010,kiwi,NF,C,274031,274031,272205,273314,272206,274580,273831,273831,274580,51
51,test,1,inc,1,z,Wed Apr 02 2025 16:08:54 GMT-0400 (Eastern Daylight Time),552899.5999999046,silver,1000,I,z,z,None,579,380.0,199.0,15,1,2106.4000000953674,550793.1999998093,9010,cherry,NF,C,276314,276314,274590,275597,274591,276697,276114,276114,276697,52
52,test,1,inc,1,m,Wed Apr 02 2025 16:08:54 GMT-0400 (Eastern Daylight Time),555132.9000000954,raisin,1100,I,m,m,None,586,387.0,199.0,88,1,2224.2000002861023,552908.6999998093,9010,silver,NF,C,278531,278531,276706,277814,276706,278930,278331,278331,278930,53
53,test,1,inc,1,z,Wed Apr 02 2025 16:08:54 GMT-0400 (Eastern Daylight Time),557283.0,lead,1100,I,z,z,None,514,315.0,199.0,48,1,2140.5,555142.5,9010,pear,NF,C,280764,280764,278940,280047,278940,281080,280564,280564,281080,54
54,test,1,inc,1,z,Wed Apr 02 2025 16:08:54 GMT-0400 (Eastern Daylight Time),559299.5999999046,gold,800,I,z,z,None,679,480.0,199.0,37,1,2008.0,557291.5999999046,9010,lime,NF,C,282614,282614,281089,281897,281089,283097,282414,282414,283097,55
55,test,1,inc,1,z,Wed Apr 02 2025 16:08:54 GMT-0400 (Eastern Daylight Time),561416.2999997139,lead,1100,I,z,z,None,475,276.0,199.0,40,1,2107.8999996185303,559308.4000000954,9010,lime,NF,C,284930,284930,283105,284214,283106,285213,284731,284731,285213,56
56,test,1,inc,1,z,Wed Apr 02 2025 16:08:54 GMT-0400 (Eastern Daylight Time),563383.1999998093,zinc,1000,I,z,z,None,427,227.0,200.0,63,1,1957.7999997138977,561425.4000000954,9010,plum,NF,C,286947,286947,285222,286231,285223,287180,286747,286747,287180,57
57,test,1,con,1,z,Wed Apr 02 2025 16:08:54 GMT-0400 (Eastern Daylight Time),565399.7999997139,banana,1000,I,z,z,None,475,276.0,199.0,3,1,2008.3999996185303,563391.4000000954,9010,banana,NF,C,288914,288914,287188,288198,287189,289197,288714,288714,289197,58
58,test,1,inc,1,m,Wed Apr 02 2025 16:08:54 GMT-0400 (Eastern Daylight Time),567216.5,banana,800,I,m,m,None,466,267.0,199.0,69,1,1807.5,565409.0,9010,bronze,NF,C,290731,290731,289206,290014,289206,291014,290531,290531,291013,59
59,test,1,con,1,z,Wed Apr 02 2025 16:08:54 GMT-0400 (Eastern Daylight Time),569249.6999998093,banana,900,I,z,z,None,584,384.0,200.0,2,1,2024.7999997138977,567224.9000000954,9010,banana,NF,C,292647,292647,291022,291931,291022,293047,292447,292447,293047,60
60,test,1,inc,1,m,Wed Apr 02 2025 16:08:54 GMT-0400 (Eastern Daylight Time),571416.4000000954,orange,1000,I,m,m,None,624,425.0,199.0,95,1,2156.9000000953674,569259.5,9010,cobalt,NF,C,294780,294781,293057,294064,293057,295213,294581,294581,295213,61
61,test,1,inc,1,m,Wed Apr 02 2025 16:08:54 GMT-0400 (Eastern Daylight Time),573566.5,kiwi,1000,I,m,m,None,602,403.0,199.0,111,1,2140.5999999046326,571425.9000000954,9010,iron,NF,C,296947,296947,295223,296231,295223,297364,296748,296748,297364,62
62,test,1,inc,1,z,Wed Apr 02 2025 16:08:54 GMT-0400 (Eastern Daylight Time),575433.1999998093,copper,900,I,z,z,None,425,225.0,200.0,6,1,1857.5999999046326,573575.5999999046,9010,banana,NF,C,298997,298997,297373,298281,297373,299230,298797,298797,299230,63
63,test,1,inc,1,m,Wed Apr 02 2025 16:08:54 GMT-0400 (Eastern Daylight Time),577316.2999997139,lime,800,I,m,m,None,545,346.0,199.0,101,1,1874.2999997138977,575442.0,9010,gold,NF,C,300764,300764,299239,300047,299239,301113,300564,300564,301113,64
64,test,1,con,1,m,Wed Apr 02 2025 16:08:54 GMT-0400 (Eastern Daylight Time),579483.0,gold,1000,I,m,m,None,622,423.0,199.0,99,1,2158.5999999046326,577324.4000000954,9010,gold,NF,C,302847,302847,301121,302131,301122,303280,302647,302648,303280,65
65,test,1,con,1,m,Wed Apr 02 2025 16:08:54 GMT-0400 (Eastern Daylight Time),581533.0999999046,cobalt,1000,I,m,m,None,503,304.0,199.0,91,1,2039.9000000953674,579493.1999998093,9010,cobalt,NF,C,305014,305014,303290,304297,303291,305330,304814,304814,305330,66
66,test,1,con,1,z,Wed Apr 02 2025 16:08:54 GMT-0400 (Eastern Daylight Time),583265.9000000954,pear,800,I,z,z,None,397,198.0,199.0,41,1,1724.6000003814697,581541.2999997139,9010,pear,NF,C,306864,306864,305338,306147,305339,307063,306664,306664,307063,67
67,test,1,con,1,m,Wed Apr 02 2025 16:08:54 GMT-0400 (Eastern Daylight Time),585633.0999999046,iron,1100,I,m,m,None,717,517.0,200.0,108,1,2358.5,583274.5999999046,9010,iron,NF,C,308897,308897,307072,308181,307072,309430,308697,308697,309430,68
68,test,1,con,1,z,Wed Apr 02 2025 16:08:54 GMT-0400 (Eastern Daylight Time),587783.1999998093,orange,1000,I,z,z,None,609,410.0,199.0,19,1,2141.2999997138977,585641.9000000954,9010,orange,NF,C,311164,311164,309439,310447,309439,311580,310964,310964,311580,69
69,test,1,con,1,m,Wed Apr 02 2025 16:08:54 GMT-0400 (Eastern Daylight Time),589999.4000000954,bronze,1100,I,m,m,None,568,369.0,199.0,68,1,2207.4000000953674,587792.0,9010,bronze,NF,C,313414,313414,311589,312697,311589,313796,313214,313214,313796,70
69,test,1,con,0,z,Wed Apr 02 2025 16:08:54 GMT-0400 (Eastern Daylight Time),592032.5999999046,plum,1000,I,m,m,None,482,283.0,199.0,59,1,2026.9000000953674,590005.6999998093,9010,plum,NF,C,315531,315531,313803,314814,313803,315830,315331,315331,315830,71
70,test,1,inc,1,m,Wed Apr 02 2025 16:08:54 GMT-0400 (Eastern Daylight Time),594349.6999998093,kiwi,1000,I,m,m,None,769,570.0,199.0,103,1,2311.5,592038.1999998093,9010,gold,NF,C,317564,317564,315835,316847,315836,318147,317364,317364,318147,72
71,test,1,con,1,m,Wed Apr 02 2025 16:08:54 GMT-0400 (Eastern Daylight Time),596949.7999997139,silver,1000,I,m,m,None,1060,861.0,199.0,83,1,2591.199999809265,594358.5999999046,9010,silver,NF,C,319881,319881,318156,319164,318156,320747,319681,319681,320747,73
72,test,1,con,1,m,Wed Apr 02 2025 16:08:54 GMT-0400 (Eastern Daylight Time),598883.0,bronze,900,I,m,m,None,496,297.0,199.0,66,1,1924.9000000953674,596958.0999999046,9010,bronze,NF,C,322380,322381,320755,321664,320755,322680,322181,322181,322680,74
73,test,1,con,1,z,Wed Apr 02 2025 16:08:54 GMT-0400 (Eastern Daylight Time),600583.0,lime,800,I,z,z,None,359,160.0,199.0,33,1,1690.8000001907349,598892.1999998093,9010,lime,NF,C,324214,324214,322689,323497,322690,324380,324014,324014,324380,75
74,test,1,inc,1,z,Wed Apr 02 2025 16:08:54 GMT-0400 (Eastern Daylight Time),602633.0999999046,silver,1000,I,z,z,None,507,308.0,199.0,23,1,2041.0999999046326,600592.0,9010,orange,NF,C,326114,326114,324389,325397,324389,326430,325914,325914,326430,76
75,test,1,inc,1,z,Wed Apr 02 2025 16:08:54 GMT-0400 (Eastern Daylight Time),604566.2999997139,silver,1000,I,z,z,None,393,194.0,199.0,7,1,1925.3999996185303,602640.9000000954,9010,banana,NF,C,328164,328164,326438,327448,326438,328363,327964,327964,328363,77
76,test,1,inc,1,m,Wed Apr 02 2025 16:08:54 GMT-0400 (Eastern Daylight Time),606616.4000000954,cherry,900,I,m,m,None,609,409.0,200.0,70,1,2041.5,604574.9000000954,9010,bronze,NF,C,329997,329997,328372,329280,328372,330414,329797,329797,330413,78
77,test,1,inc,1,m,Wed Apr 02 2025 16:08:54 GMT-0400 (Eastern Daylight Time),608716.2999997139,cherry,900,I,m,m,None,654,455.0,199.0,94,1,2090.8999996185303,606625.4000000954,9010,cobalt,NF,C,332047,332047,330422,331331,330423,332513,331847,331847,332513,79
78,test,1,inc,1,m,Wed Apr 02 2025 16:08:54 GMT-0400 (Eastern Daylight Time),610749.5,pear,900,I,m,m,None,585,370.0,215.0,126,1,2024.3000001907349,608725.1999998093,9010,lead,NF,C,334164,334164,332522,333431,332523,334547,333948,333948,334547,80
79,test,1,con,1,z,Wed Apr 02 2025 16:08:54 GMT-0400 (Eastern Daylight Time),612783.0999999046,orange,900,I,z,z,None,584,385.0,199.0,18,1,2023.1999998092651,610759.9000000954,9010,orange,NF,C,336180,336181,334557,335464,334557,336580,335981,335981,336580,81
80,test,1,inc,1,z,Wed Apr 02 2025 16:08:54 GMT-0400 (Eastern Daylight Time),615099.5999999046,lead,1100,I,z,z,None,671,472.0,199.0,64,1,2305.0,612794.5999999046,9010,plum,NF,C,338414,338414,336592,337697,336592,338897,338214,338214,338897,82
81,test,1,inc,1,z,Wed Apr 02 2025 16:08:54 GMT-0400 (Eastern Daylight Time),617066.4000000954,zinc,1000,I,z,z,None,422,223.0,199.0,55,1,1956.1000003814697,615110.2999997139,9010,kiwi,NF,C,340631,340631,338907,339914,338908,340863,340431,340431,340863,83
82,test,1,con,1,z,Wed Apr 02 2025 16:08:54 GMT-0400 (Eastern Daylight Time),618999.5999999046,plum,900,I,z,z,None,492,293.0,199.0,58,1,1925.3000001907349,617074.2999997139,9010,plum,NF,C,342497,342497,340871,341781,340872,342797,342297,342297,342797,84
83,test,1,inc,1,m,Wed Apr 02 2025 16:08:54 GMT-0400 (Eastern Daylight Time),621149.5999999046,plum,1100,I,m,m,None,503,304.0,199.0,112,1,2139.4000000953674,619010.1999998093,9010,iron,NF,C,344630,344630,342807,343914,342808,344947,344431,344431,344947,85
84,test,1,con,1,z,Wed Apr 02 2025 16:08:54 GMT-0400 (Eastern Daylight Time),623149.0999999046,raisin,800,I,z,z,None,652,453.0,199.0,25,1,1990.8000001907349,621158.2999997139,9010,raisin,NF,C,346480,346480,344955,345764,344956,346946,346281,346281,346946,86
85,test,1,inc,1,z,Wed Apr 02 2025 16:08:54 GMT-0400 (Eastern Daylight Time),625433.0999999046,cobalt,1100,I,z,z,None,641,442.0,199.0,8,1,2277.699999809265,623155.4000000954,9010,banana,NF,C,348780,348780,346952,348064,346953,349230,348581,348581,349230,87
86,test,1,con,1,m,Wed Apr 02 2025 16:08:54 GMT-0400 (Eastern Daylight Time),627483.0,zinc,800,I,m,m,None,705,506.0,199.0,113,1,2041.4000000953674,625441.5999999046,9010,zinc,NF,C,350764,350764,349239,350047,349239,351280,350564,350564,351280,88
87,test,1,con,1,m,Wed Apr 02 2025 16:08:54 GMT-0400 (Eastern Daylight Time),629667.2999997139,cobalt,1100,I,m,m,None,547,348.0,199.0,92,1,2176.2999997138977,627491.0,9010,cobalt,NF,C,353114,353114,351288,352397,351288,353464,352914,352914,353464,89
88,test,1,con,1,z,Wed Apr 02 2025 16:08:54 GMT-0400 (Eastern Daylight Time),631733.0999999046,cherry,1100,I,z,z,None,430,230.0,200.0,12,1,2054.9000000953674,629678.1999998093,9010,cherry,NF,C,355297,355297,353475,354581,353476,355530,355097,355097,355530,90
89,test,1,inc,1,z,Wed Apr 02 2025 16:08:54 GMT-0400 (Eastern Daylight Time),633833.0,iron,900,I,z,z,None,657,458.0,199.0,38,1,2091.300000190735,631741.6999998093,9010,lime,NF,C,357164,357164,355539,356448,355539,357630,356964,356964,357630,91
90,test,1,con,1,m,Wed Apr 02 2025 16:08:54 GMT-0400 (Eastern Daylight Time),635716.0999999046,silver,900,I,m,m,None,445,246.0,199.0,82,1,1874.5,633841.5999999046,9010,silver,NF,C,359264,359264,357639,358547,357639,359513,359064,359064,359513,92
91,test,1,inc,1,m,Wed Apr 02 2025 16:08:54 GMT-0400 (Eastern Daylight Time),637649.6999998093,banana,800,I,m,m,None,583,383.0,200.0,85,1,1925.0,635724.6999998093,9010,silver,NF,C,361047,361047,359522,360331,359522,361447,360847,360847,361447,93
92,test,1,con,1,m,Wed Apr 02 2025 16:08:54 GMT-0400 (Eastern Daylight Time),639416.2999997139,silver,800,I,m,m,None,425,226.0,199.0,81,1,1757.8999996185303,637658.4000000954,9010,silver,NF,C,362980,362980,361455,362264,361456,363213,362781,362781,363213,94
93,test,1,con,1,m,Wed Apr 02 2025 16:08:54 GMT-0400 (Eastern Daylight Time),641249.6999998093,cobalt,800,I,m,m,None,482,283.0,199.0,89,1,1824.1999998092651,639425.5,9010,cobalt,NF,C,364747,364747,363222,364031,363223,365047,364547,364547,365047,95
94,test,1,inc,1,m,Wed Apr 02 2025 16:08:54 GMT-0400 (Eastern Daylight Time),643432.7999997139,kiwi,1000,I,m,m,None,641,442.0,199.0,127,1,2174.8999996185303,641257.9000000954,9010,lead,NF,C,366780,366780,365055,366063,365055,367230,366581,366581,367230,96
95,test,1,con,1,m,Wed Apr 02 2025 16:08:54 GMT-0400 (Eastern Daylight Time),645733.0,zinc,1100,I,m,m,None,661,462.0,199.0,116,1,2291.800000190735,643441.1999998093,9010,zinc,NF,C,369064,369064,367238,368347,367239,369530,368864,368864,369530,97
96,test,1,con,1,z,Wed Apr 02 2025 16:08:54 GMT-0400 (Eastern Daylight Time),647816.1999998093,raisin,1100,I,z,z,None,441,242.0,199.0,28,1,2074.5,645741.6999998093,9010,raisin,NF,C,371364,371364,369539,370647,369539,371613,371164,371164,371613,98
97,test,1,inc,1,m,Wed Apr 02 2025 16:08:54 GMT-0400 (Eastern Daylight Time),649849.5,cherry,900,I,m,m,None,590,390.0,200.0,86,1,2022.7000002861023,647826.7999997139,9010,silver,NF,C,373247,373247,371624,372531,371624,373647,373047,373047,373646,99
98,test,1,inc,1,m,Wed Apr 02 2025 16:08:54 GMT-0400 (Eastern Daylight Time),651916.1999998093,pear,900,I,m,m,None,621,422.0,199.0,110,1,2057.5999999046326,649858.5999999046,9010,iron,NF,C,375280,375280,373656,374564,373657,375713,375081,375081,375713,100
99,test,1,inc,1,z,Wed Apr 02 2025 16:08:54 GMT-0400 (Eastern Daylight Time),654082.6999998093,cobalt,1100,I,z,z,None,530,331.0,199.0,16,1,2158.4000000953674,651924.2999997139,9010,cherry,NF,C,377547,377547,375721,376830,375722,377880,377347,377347,377880,101
100,test,1,inc,1,m,Wed Apr 02 2025 16:08:54 GMT-0400 (Eastern Daylight Time),656065.9000000954,lime,800,I,m,m,None,647,448.0,199.0,109,1,1975.4000000953674,654090.5,9010,iron,NF,C,379414,379414,377888,378697,377888,379863,379214,379214,379863,102
101,test,1,inc,1,z,Wed Apr 02 2025 16:08:54 GMT-0400 (Eastern Daylight Time),657933.0,bronze,800,I,z,z,None,521,321.0,200.0,21,1,1859.5999999046326,656073.4000000954,9010,orange,NF,C,381397,381397,379870,380681,379871,381730,381197,381197,381730,103
102,test,1,inc,1,z,Wed Apr 02 2025 16:08:54 GMT-0400 (Eastern Daylight Time),659966.2999997139,iron,900,I,z,z,None,585,386.0,199.0,46,1,2022.2999997138977,657944.0,9010,pear,NF,C,383364,383364,381741,382647,381741,383763,383164,383164,383763,104
103,test,1,con,1,m,Wed Apr 02 2025 16:08:54 GMT-0400 (Eastern Daylight Time),662049.5,bronze,1000,I,m,m,None,549,350.0,199.0,67,1,2074.5999999046326,659974.9000000954,9010,bronze,NF,C,385496,385496,383772,384781,383772,385847,385297,385297,385847,105
104,test,1,con,1,z,Wed Apr 02 2025 16:08:54 GMT-0400 (Eastern Daylight Time),663833.5,banana,800,I,z,z,None,441,242.0,199.0,1,1,1769.7000002861023,662063.7999997139,9010,banana,NF,C,387380,387380,385861,386664,385862,387631,387180,387180,387631,106
105,test,1,inc,1,z,Wed Apr 02 2025 16:08:54 GMT-0400 (Eastern Daylight Time),665816.1999998093,zinc,1000,I,z,z,None,458,259.0,199.0,47,1,1975.7999997138977,663840.4000000954,9010,pear,NF,C,389347,389347,387637,388646,387638,389613,389147,389147,389613,107
106,test,1,con,1,z,Wed Apr 02 2025 16:08:54 GMT-0400 (Eastern Daylight Time),667649.7999997139,raisin,900,I,z,z,None,399,200.0,199.0,26,1,1825.3999996185303,665824.4000000954,9010,raisin,NF,C,391246,391246,389621,390530,389622,391447,391047,391047,391447,108
107,test,1,inc,1,m,Wed Apr 02 2025 16:08:54 GMT-0400 (Eastern Daylight Time),669498.9000000954,banana,800,I,m,m,None,505,305.0,200.0,77,1,1839.5,667659.4000000954,9010,copper,NF,C,392980,392980,391456,392263,391457,393296,392780,392780,393296,109
108,test,1,inc,1,z,Wed Apr 02 2025 16:08:54 GMT-0400 (Eastern Daylight Time),671449.0999999046,copper,900,I,z,z,None,506,307.0,199.0,14,1,1944.4000000953674,669504.6999998093,9010,cherry,NF,C,394930,394930,393302,394213,393302,395246,394730,394730,395246,110
109,test,1,con,1,m,Wed Apr 02 2025 16:08:54 GMT-0400 (Eastern Daylight Time),673615.9000000954,lead,1000,I,m,m,None,616,417.0,199.0,123,1,2159.4000000953674,671456.5,9010,lead,NF,C,396980,396980,395254,396264,395254,397413,396780,396780,397413,111
110,test,1,con,1,m,Wed Apr 02 2025 16:08:54 GMT-0400 (Eastern Daylight Time),675899.0,gold,900,I,m,m,None,838,638.0,200.0,98,1,2275.0999999046326,673623.9000000954,9010,gold,NF,C,399047,399047,397421,398331,397422,399696,398847,398847,399696,112
111,test,1,inc,1,m,Wed Apr 02 2025 16:08:54 GMT-0400 (Eastern Daylight Time),678082.7999997139,orange,1000,I,m,m,None,648,448.0,200.0,79,1,2177.0,675905.7999997139,9010,copper,NF,C,401430,401430,399703,400713,399703,401880,401230,401230,401880,113
111,test,1,inc,0,m,Wed Apr 02 2025 16:08:54 GMT-0400 (Eastern Daylight Time),679999.0,pear,900,I,z,z,None,466,267.0,199.0,118,1,1905.8000001907349,678093.1999998093,9010,zinc,NF,C,403514,403514,401890,402796,401891,403796,403314,403314,403796,114
112,test,1,con,1,z,Wed Apr 02 2025 16:08:54 GMT-0400 (Eastern Daylight Time),681815.5999999046,kiwi,800,I,z,z,None,475,276.0,199.0,49,1,1808.6999998092651,680006.9000000954,9010,kiwi,NF,C,405329,405329,403804,404613,403804,405613,405130,405130,405613,115
113,test,1,inc,1,z,Wed Apr 02 2025 16:08:54 GMT-0400 (Eastern Daylight Time),684032.6999998093,cobalt,1100,I,z,z,None,583,383.0,200.0,32,1,2211.7999997138977,681820.9000000954,9010,raisin,NF,C,407446,407446,405618,406730,405618,407830,407246,407246,407830,116
114,test,1,con,1,z,Wed Apr 02 2025 16:08:54 GMT-0400 (Eastern Daylight Time),686049.5,raisin,1000,I,z,z,None,465,266.0,199.0,27,1,2011.5,684038.0,9010,raisin,NF,C,409564,409564,407835,408847,407836,409847,409364,409364,409846,117
115,test,1,inc,1,m,Wed Apr 02 2025 16:08:54 GMT-0400 (Eastern Daylight Time),688132.9000000954,raisin,1100,I,m,m,None,445,246.0,199.0,96,1,2074.2000002861023,686058.6999998093,9010,cobalt,NF,C,411680,411680,409856,410964,409856,411930,411481,411481,411930,118
116,test,1,con,1,z,Wed Apr 02 2025 16:08:54 GMT-0400 (Eastern Daylight Time),690266.0999999046,lime,1100,I,z,z,None,489,290.0,199.0,36,1,2124.0,688142.0999999046,9010,lime,NF,C,413764,413764,411939,413047,411939,414063,413564,413564,414063,119
117,test,1,inc,1,m,Wed Apr 02 2025 16:08:54 GMT-0400 (Eastern Daylight Time),692499.4000000954,plum,1100,I,m,m,None,596,397.0,199.0,104,1,2224.6000003814697,690274.7999997139,9010,gold,NF,C,415897,415897,414072,415180,414072,416297,415697,415697,416296,120
118,test,1,inc,1,z,Wed Apr 02 2025 16:08:54 GMT-0400 (Eastern Daylight Time),694816.2999997139,cobalt,1100,I,z,z,None,667,468.0,199.0,24,1,2306.2999997138977,692510.0,9010,orange,NF,C,418130,418130,416307,417414,416307,418613,417931,417931,418613,121
118,test,1,con,0,z,Wed Apr 02 2025 16:08:54 GMT-0400 (Eastern Daylight Time),698149.5,cherry,800,I,None,None,None,1799,1799.0,199.0,9,1,3324.2000002861023,694825.2999997139,9010,cherry,NF,C,420147,420147,418622,419430,418623,421947,419947,419947,421946,122
118,test,1,con,0,m,Wed Apr 02 2025 16:08:54 GMT-0400 (Eastern Daylight Time),701582.7999997139,lead,900,I,None,None,None,1800,1800.0,199.0,122,1,3423.7999997138977,698159.0,9010,lead,NF,C,423580,423580,421956,422864,421957,425380,423381,423381,425380,123
119,test,1,con,1,z,Wed Apr 02 2025 16:08:54 GMT-0400 (Eastern Daylight Time),703782.0999999046,lime,900,I,z,z,None,758,559.0,199.0,34,1,2190.4000000953674,701591.6999998093,9010,lime,NF,C,427014,427014,425389,426297,425389,427579,426814,426814,427579,124
120,test,1,inc,1,z,Wed Apr 02 2025 16:08:54 GMT-0400 (Eastern Daylight Time),705899.4000000954,iron,900,I,z,z,None,671,472.0,199.0,62,1,2112.1000003814697,703787.2999997139,9010,plum,NF,C,429214,429214,427584,428497,427585,429696,429014,429014,429696,125
121,test,1,con,1,m,Wed Apr 02 2025 16:08:54 GMT-0400 (Eastern Daylight Time),707782.7999997139,iron,800,I,m,m,None,543,344.0,199.0,105,1,1873.6999998092651,705909.0999999046,9010,iron,NF,C,431230,431230,429706,430513,429706,431580,431031,431031,431580,126
122,test,1,con,1,z,Wed Apr 02 2025 16:08:54 GMT-0400 (Eastern Daylight Time),710065.7999997139,kiwi,1000,I,z,z,None,747,548.0,199.0,51,1,2272.699999809265,707793.0999999046,9010,kiwi,NF,C,433314,433314,431590,432597,431591,433863,433114,433114,433863,127
123,test,1,inc,1,z,Wed Apr 02 2025 16:08:54 GMT-0400 (Eastern Daylight Time),712016.0999999046,gold,800,I,z,z,None,600,401.0,199.0,45,1,1941.6999998092651,710074.4000000954,9010,pear,NF,C,435397,435397,433871,434680,433872,435813,435197,435197,435813,128
