acc_sum,block,block_c,condition,correct,correct_response,datetime,endtime,flanker,jitter,project,response,response_test_buffer_response,response_test_target_response,response_time,response_time_test_buffer_response,response_time_test_target_response,row_sel,session_number,start_end,starttime,subject_id,target,task,task_vers,time_test_buffer,time_test_buffer_response,time_test_constants,time_test_flanker,time_test_jitter,time_test_logger,time_test_target,time_test_target_response,time_test_variables,trial
1,prac,1,inc,1,z,Wed Mar 05 2025 10:33:46 GMT-0600 (Central Standard Time),89307.10000002384,film,900,O,z,,,1031,,,14,1,3243.5,86063.60000002384,7087,hate,AF,B,,,,,,,,,,1
2,prac,1,inc,1,m,Wed Mar 05 2025 10:33:46 GMT-0600 (Central Standard Time),92174.0,kind,900,O,m,,,645,,,2,1,2840.899999976158,89333.10000002384,7087,rock,AF,B,,,,,,,,,,2
3,prac,1,con,1,z,Wed Mar 05 2025 10:33:46 GMT-0600 (Central Standard Time),95421.40000009537,brutal,800,O,z,,,1120,,,13,1,3222.100000023842,92199.30000007153,7087,brutal,AF,B,,,,,,,,,,3
4,prac,1,inc,1,m,Wed Mar 05 2025 10:33:46 GMT-0600 (Central Standard Time),98486.90000009537,brutal,1100,O,m,,,635,,,8,1,3040.8000000715256,95446.10000002384,7087,window,AF,B,,,,,,,,,,4
5,prac,1,inc,1,z,Wed Mar 05 2025 10:33:46 GMT-0600 (Central Standard Time),102002.70000004768,napkin,1100,O,z,,,1097,,,12,1,3490.7999999523163,98511.90000009537,7087,friend,AF,B,,,,,,,,,,5
6,prac,1,con,1,m,Wed Mar 05 2025 10:33:46 GMT-0600 (Central Standard Time),104918.40000009537,step,800,O,m,,,794,,,1,1,2890.8000000715256,102027.60000002384,7087,step,AF,B,,,,,,,,,,6
7,prac,1,inc,1,z,Wed Mar 05 2025 10:33:46 GMT-0600 (Central Standard Time),107833.80000007153,rock,900,O,z,,,690,,,10,1,2894.8000000715256,104939.0,7087,kind,AF,B,,,,,,,,,,7
8,prac,1,con,1,z,Wed Mar 05 2025 10:33:46 GMT-0600 (Central Standard Time),110733.10000002384,elated,800,O,z,,,778,,,9,1,2876.5,107856.60000002384,7087,elated,AF,B,,,,,,,,,,8
9,prac,1,con,1,z,Wed Mar 05 2025 10:33:46 GMT-0600 (Central Standard Time),113582.10000002384,rage,1000,O,z,,,519,,,15,1,2825.6999999284744,110756.40000009537,7087,rage,AF,B,,,,,,,,,,9
10,prac,1,con,1,m,Wed Mar 05 2025 10:33:46 GMT-0600 (Central Standard Time),116664.20000004768,bell,1000,O,m,,,750,,,3,1,3058.600000023842,113605.60000002384,7087,bell,AF,B,,,,,,,,,,10
11,prac,1,con,1,m,Wed Mar 05 2025 10:33:46 GMT-0600 (Central Standard Time),119363.5,jacket,800,O,m,,,571,,,5,1,2672.7999999523163,116690.70000004768,7087,jacket,AF,B,,,,,,,,,,11
12,prac,1,inc,1,m,Wed Mar 05 2025 10:33:46 GMT-0600 (Central Standard Time),122279.20000004768,elated,900,O,m,,,694,,,6,1,2892.5,119386.70000004768,7087,napkin,AF,B,,,,,,,,,,12
13,prac,1,inc,1,m,Wed Mar 05 2025 10:33:46 GMT-0600 (Central Standard Time),125378.30000007153,hate,1100,O,m,,,665,,,4,1,3076.7000000476837,122301.60000002384,7087,film,AF,B,,,,,,,,,,13
14,prac,1,con,1,m,Wed Mar 05 2025 10:33:46 GMT-0600 (Central Standard Time),128327.20000004768,remote,1000,O,m,,,618,,,7,1,2928.7000000476837,125398.5,7087,remote,AF,B,,,,,,,,,,14
15,prac,1,con,1,z,Wed Mar 05 2025 10:33:46 GMT-0600 (Central Standard Time),131226.10000002384,love,1000,O,z,,,573,,,11,1,2882.399999976158,128343.70000004768,7087,love,AF,B,,,,,,,,,,15
16,prac,1,inc,1,z,Wed Mar 05 2025 10:33:46 GMT-0600 (Central Standard Time),134274.60000002384,window,1100,O,z,,,622,,,16,1,3026.7999999523163,131247.80000007153,7087,temper,AF,B,,,,,,,,,,16
1,test,1,con,1,m,Wed Mar 05 2025 10:33:46 GMT-0600 (Central Standard Time),151202.60000002384,napkin,800,O,m,m,None,848,633.0,215.0,105,1,2195.399999976158,149007.20000004768,7087,napkin,AF,B,147269,147269,145722,146536,145723,147918,147053,147053,147918,1
2,test,1,con,1,m,Wed Mar 05 2025 10:33:46 GMT-0600 (Central Standard Time),153386.0,window,1100,O,m,m,None,535,336.0,199.0,124,1,2176.399999976158,151209.60000002384,7087,window,AF,B,149751,149751,147925,149035,147925,150101,149552,149552,150101,2
3,test,1,con,1,m,Wed Mar 05 2025 10:33:46 GMT-0600 (Central Standard Time),155219.5,step,800,O,m,m,None,466,251.0,215.0,65,1,1811.3999999761581,153408.10000002384,7087,step,AF,B,151668,151668,150123,150935,150125,151935,151452,151452,151935,3
4,test,1,con,1,m,Wed Mar 05 2025 10:33:46 GMT-0600 (Central Standard Time),157317.60000002384,bell,1100,O,m,m,None,438,223.0,215.0,84,1,2076.399999976158,155241.20000004768,7087,bell,AF,B,153800,153800,151956,153067,151958,154033,153584,153584,154033,4
5,test,1,con,1,z,Wed Mar 05 2025 10:33:46 GMT-0600 (Central Standard Time),159417.20000004768,kind,1100,O,z,z,None,444,245.0,199.0,12,1,2077.399999976158,157339.80000007153,7087,kind,AF,B,155883,155883,154055,155166,154057,156132,155683,155683,156132,5
6,test,1,inc,1,z,Wed Mar 05 2025 10:33:46 GMT-0600 (Central Standard Time),161699.60000002384,window,1100,O,z,z,None,614,400.0,214.0,32,1,2260.5,159439.10000002384,7087,friend,AF,B,157999,157999,156154,157267,156156,158415,157784,157784,158415,6
7,test,1,inc,1,m,Wed Mar 05 2025 10:33:46 GMT-0600 (Central Standard Time),163882.20000004768,love,1000,O,m,m,None,617,418.0,199.0,79,1,2160.899999976158,161721.30000007153,7087,rock,AF,B,160165,160165,158436,159449,158438,160597,159965,159965,160597,7
8,test,1,con,1,z,Wed Mar 05 2025 10:33:46 GMT-0600 (Central Standard Time),166131.5,friend,1000,O,z,z,None,697,484.0,213.0,27,1,2227.1999999284744,163904.30000007153,7087,friend,AF,B,162347,162347,160619,161630,160621,162847,162133,162133,162846,8
9,test,1,con,1,z,Wed Mar 05 2025 10:33:46 GMT-0600 (Central Standard Time),168147.5,love,1000,O,z,z,None,449,250.0,199.0,19,1,1993.7999999523163,166153.70000004768,7087,love,AF,B,164596,164597,162869,163880,162871,164863,164397,164397,164862,9
10,test,1,con,1,z,Wed Mar 05 2025 10:33:46 GMT-0600 (Central Standard Time),169963.5,kind,800,O,z,z,None,449,250.0,199.0,9,1,1792.8999999761581,168170.60000002384,7087,kind,AF,B,166412,166413,164886,165696,164887,166679,166213,166213,166679,10
11,test,1,con,1,z,Wed Mar 05 2025 10:33:46 GMT-0600 (Central Standard Time),172046.0,rage,1100,O,z,z,None,430,231.0,199.0,52,1,2060.399999976158,169985.60000002384,7087,rage,AF,B,168528,168528,166701,167812,166703,168761,168329,168329,168761,11
12,test,1,inc,1,m,Wed Mar 05 2025 10:33:46 GMT-0600 (Central Standard Time),174145.40000009537,temper,1000,O,m,m,None,534,319.0,215.0,111,1,2077.7000000476837,172067.70000004768,7087,napkin,AF,B,170528,170528,168783,169795,168785,170861,170312,170312,170860,12
13,test,1,con,1,m,Wed Mar 05 2025 10:33:46 GMT-0600 (Central Standard Time),176061.20000004768,remote,900,O,m,m,None,463,264.0,199.0,114,1,1901.3999999761581,174159.80000007153,7087,remote,AF,B,172510,172511,170875,171794,170877,172776,172311,172311,172776,13
14,test,1,inc,1,m,Wed Mar 05 2025 10:33:46 GMT-0600 (Central Standard Time),177977.60000002384,elated,800,O,m,m,None,576,377.0,199.0,101,1,1902.6000000238419,176075.0,7087,jacket,AF,B,174310,174310,172790,173594,172791,174693,174110,174110,174693,14
15,test,1,inc,1,m,Wed Mar 05 2025 10:33:46 GMT-0600 (Central Standard Time),180292.80000007153,friend,1100,O,m,m,None,656,457.0,199.0,120,1,2294.100000023842,177998.70000004768,7087,remote,AF,B,176542,176542,174714,175826,174716,177008,176343,176343,177008,15
16,test,1,con,1,m,Wed Mar 05 2025 10:33:46 GMT-0600 (Central Standard Time),182158.70000004768,jacket,900,O,m,m,None,427,212.0,215.0,98,1,1852.5,180306.20000004768,7087,jacket,AF,B,178658,178658,177021,177926,177022,178874,178442,178442,178874,16
17,test,1,inc,1,m,Wed Mar 05 2025 10:33:46 GMT-0600 (Central Standard Time),184025.70000004768,rage,800,O,m,m,None,527,328.0,199.0,85,1,1860.0,182165.70000004768,7087,bell,AF,B,180407,180407,178881,179690,178881,180741,180207,180207,180741,17
18,test,1,con,1,z,Wed Mar 05 2025 10:33:46 GMT-0600 (Central Standard Time),186107.70000004768,rage,1000,O,z,z,None,523,323.0,200.0,51,1,2061.5,184046.20000004768,7087,rage,AF,B,182491,182491,180761,181775,180763,182823,182290,182290,182823,18
19,test,1,con,1,m,Wed Mar 05 2025 10:33:46 GMT-0600 (Central Standard Time),188290.80000007153,film,1100,O,m,m,None,541,342.0,199.0,92,1,2171.899999976158,186118.90000009537,7087,film,AF,B,184657,184657,182834,183940,182835,185006,184457,184457,185006,19
20,test,1,con,1,m,Wed Mar 05 2025 10:33:46 GMT-0600 (Central Standard Time),190323.5,step,1000,O,m,m,None,475,276.0,199.0,67,1,2013.5999999046326,188309.90000009537,7087,step,AF,B,186756,186756,185025,186040,185026,187039,186556,186556,187039,20
21,test,1,inc,1,m,Wed Mar 05 2025 10:33:46 GMT-0600 (Central Standard Time),192456.10000002384,friend,1100,O,m,m,None,477,278.0,199.0,112,1,2111.399999976158,190344.70000004768,7087,napkin,AF,B,188889,188889,187060,188172,187062,189171,188689,188689,189171,21
22,test,1,con,1,z,Wed Mar 05 2025 10:33:46 GMT-0600 (Central Standard Time),194372.20000004768,hate,900,O,z,z,None,456,241.0,215.0,42,1,1891.3999999761581,192480.80000007153,7087,hate,AF,B,190838,190838,189196,190105,189197,191087,190622,190622,191087,22
23,test,1,con,1,z,Wed Mar 05 2025 10:33:46 GMT-0600 (Central Standard Time),196271.90000009537,brutal,900,O,z,z,None,436,221.0,215.0,34,1,1877.5,194394.40000009537,7087,brutal,AF,B,192754,192754,191109,192021,191111,192987,192538,192538,192987,23
24,test,1,inc,1,z,Wed Mar 05 2025 10:33:46 GMT-0600 (Central Standard Time),198354.20000004768,bell,1000,O,z,z,None,525,310.0,215.0,23,1,2060.100000023842,196294.10000002384,7087,love,AF,B,194753,194753,193009,194020,193011,195069,194537,194537,195069,24
25,test,1,con,1,z,Wed Mar 05 2025 10:33:46 GMT-0600 (Central Standard Time),200437.40000009537,brutal,1100,O,z,z,None,430,216.0,214.0,36,1,2062.7000000476837,198374.70000004768,7087,brutal,AF,B,196936,196936,195090,196203,195092,197152,196721,196721,197152,25
26,test,1,inc,1,m,Wed Mar 05 2025 10:33:46 GMT-0600 (Central Standard Time),202569.10000002384,hate,1100,O,m,m,None,476,277.0,199.0,72,1,2112.0,200457.10000002384,7087,step,AF,B,199002,199002,197172,198286,197173,199284,198802,198802,199284,26
26,test,1,inc,0,m,Wed Mar 05 2025 10:33:46 GMT-0600 (Central Standard Time),204469.60000002384,kind,900,O,z,z,None,465,266.0,199.0,78,1,1886.2999999523163,202583.30000007153,7087,rock,AF,B,200918,200918,199298,200202,199299,201185,200718,200718,201185,27
27,test,1,inc,1,m,Wed Mar 05 2025 10:33:46 GMT-0600 (Central Standard Time),206600.60000002384,temper,1000,O,m,m,None,575,376.0,199.0,127,1,2108.399999976158,204492.20000004768,7087,window,AF,B,202934,202934,201207,202218,201209,203316,202734,202734,203316,28
28,test,1,inc,1,z,Wed Mar 05 2025 10:33:46 GMT-0600 (Central Standard Time),208517.60000002384,jacket,800,O,z,z,None,573,374.0,199.0,5,1,1911.3999999761581,206606.20000004768,7087,elated,AF,B,204850,204850,203321,204133,203322,205233,204650,204650,205233,29
29,test,1,con,1,z,Wed Mar 05 2025 10:33:46 GMT-0600 (Central Standard Time),210433.70000004768,rage,900,O,z,z,None,451,252.0,199.0,50,1,1896.2000000476837,208537.5,7087,rage,AF,B,206883,206883,205253,206166,205254,207149,206683,206683,207149,30
30,test,1,con,1,m,Wed Mar 05 2025 10:33:46 GMT-0600 (Central Standard Time),212616.10000002384,rock,1100,O,m,m,None,529,330.0,199.0,76,1,2162.1999999284744,210453.90000009537,7087,rock,AF,B,208998,208998,207169,208282,207170,209331,208799,208799,209331,31
31,test,1,con,1,m,Wed Mar 05 2025 10:33:46 GMT-0600 (Central Standard Time),214532.10000002384,remote,800,O,m,m,None,548,333.0,215.0,113,1,1894.2999999523163,212637.80000007153,7087,remote,AF,B,210898,210898,209353,210165,209354,211247,210681,210682,211247,32
32,test,1,inc,1,m,Wed Mar 05 2025 10:33:46 GMT-0600 (Central Standard Time),216715.0,friend,1100,O,m,m,None,518,317.0,201.0,128,1,2163.0,214552.0,7087,window,AF,B,213098,213098,211267,212381,211269,213430,212896,212896,213430,33
33,test,1,inc,1,z,Wed Mar 05 2025 10:33:46 GMT-0600 (Central Standard Time),218747.60000002384,rock,900,O,z,z,None,573,374.0,199.0,14,1,2012.7999999523163,216734.80000007153,7087,kind,AF,B,215081,215081,213450,214364,213451,215463,214881,214881,215463,34
34,test,1,con,1,m,Wed Mar 05 2025 10:33:46 GMT-0600 (Central Standard Time),220879.10000002384,rock,1000,O,m,m,None,568,369.0,199.0,75,1,2110.7999999523163,218768.30000007153,7087,rock,AF,B,217213,217213,215483,216496,215485,217594,217013,217013,217594,35
35,test,1,inc,1,z,Wed Mar 05 2025 10:33:46 GMT-0600 (Central Standard Time),223029.20000004768,rock,900,O,z,z,None,708,509.0,199.0,54,1,2144.399999976158,220884.80000007153,7087,rage,AF,B,219227,219227,217600,218511,217601,219744,219028,219028,219744,36
36,test,1,con,1,z,Wed Mar 05 2025 10:33:46 GMT-0600 (Central Standard Time),224878.30000007153,love,800,O,z,z,None,494,295.0,199.0,17,1,1828.6000000238419,223049.70000004768,7087,love,AF,B,221295,221295,219765,220578,219766,221593,221095,221095,221593,37
37,test,1,inc,1,m,Wed Mar 05 2025 10:33:46 GMT-0600 (Central Standard Time),226844.30000007153,kind,900,O,m,m,None,530,315.0,215.0,70,1,1956.7000000476837,224887.60000002384,7087,step,AF,B,223244,223244,221603,222511,221603,223559,223028,223028,223559,38
38,test,1,con,1,z,Wed Mar 05 2025 10:33:46 GMT-0600 (Central Standard Time),228677.70000004768,elated,800,O,z,z,None,488,289.0,199.0,1,1,1822.7000000476837,226855.0,7087,elated,AF,B,225093,225094,223570,224377,223571,225393,224894,224894,225393,39
39,test,1,con,1,z,Wed Mar 05 2025 10:33:46 GMT-0600 (Central Standard Time),230826.90000009537,elated,1100,O,z,z,None,483,284.0,199.0,4,1,2128.4000000953674,228698.5,7087,elated,AF,B,227243,227243,225413,226527,225415,227542,227043,227043,227542,40
40,test,1,inc,1,z,Wed Mar 05 2025 10:33:46 GMT-0600 (Central Standard Time),232992.0,remote,1000,O,z,z,None,609,394.0,215.0,39,1,2145.5999999046326,230846.40000009537,7087,brutal,AF,B,229308,229308,227561,228576,227562,229707,229093,229093,229707,41
40,test,1,con,0,z,Wed Mar 05 2025 10:33:46 GMT-0600 (Central Standard Time),234975.40000009537,rage,800,O,m,m,None,645,446.0,199.0,49,1,1975.2000000476837,233000.20000004768,7087,rage,AF,B,231241,231242,229715,230524,229716,231691,231042,231042,231690,42
41,test,1,inc,1,m,Wed Mar 05 2025 10:33:46 GMT-0600 (Central Standard Time),237191.5,love,1000,O,m,m,None,661,462.0,199.0,87,1,2195.399999976158,234996.10000002384,7087,bell,AF,B,233441,233441,231711,232724,231713,233907,233241,233241,233906,43
42,test,1,con,1,m,Wed Mar 05 2025 10:33:46 GMT-0600 (Central Standard Time),239207.5,napkin,1000,O,m,m,None,454,239.0,215.0,107,1,1995.7999999523163,237211.70000004768,7087,napkin,AF,B,235672,235672,233927,234940,233929,235923,235457,235457,235923,44
43,test,1,con,1,z,Wed Mar 05 2025 10:33:46 GMT-0600 (Central Standard Time),241389.80000007153,elated,900,O,z,z,None,729,530.0,199.0,2,1,2161.5,239228.30000007153,7087,elated,AF,B,237573,237573,235943,236856,235945,238105,237373,237373,238105,45
44,test,1,inc,1,z,Wed Mar 05 2025 10:33:46 GMT-0600 (Central Standard Time),243556.40000009537,bell,1000,O,z,z,None,598,399.0,199.0,55,1,2147.5,241408.90000009537,7087,rage,AF,B,239856,239856,238124,239139,238125,240272,239656,239656,240271,46
45,test,1,inc,1,m,Wed Mar 05 2025 10:33:46 GMT-0600 (Central Standard Time),245788.70000004768,hate,1100,O,m,m,None,574,375.0,199.0,80,1,2209.899999976158,243578.80000007153,7087,rock,AF,B,242121,242121,240294,241405,240295,242504,241922,241922,242504,47
46,test,1,inc,1,m,Wed Mar 05 2025 10:33:46 GMT-0600 (Central Standard Time),247887.90000009537,brutal,900,O,m,m,None,636,437.0,199.0,126,1,2079.2000000476837,245808.70000004768,7087,window,AF,B,244154,244154,242524,243438,242525,244603,243954,243954,244603,48
47,test,1,inc,1,z,Wed Mar 05 2025 10:33:46 GMT-0600 (Central Standard Time),250087.20000004768,film,1100,O,z,z,None,546,347.0,199.0,48,1,2178.7999999523163,247908.40000009537,7087,hate,AF,B,246453,246453,244623,245737,244625,246802,246253,246253,246802,49
48,test,1,con,1,z,Wed Mar 05 2025 10:33:46 GMT-0600 (Central Standard Time),252203.30000007153,hate,1000,O,z,z,None,556,342.0,214.0,43,1,2096.0,250107.30000007153,7087,hate,AF,B,248569,248569,246822,247836,246823,248918,248354,248354,248918,50
49,test,1,inc,1,z,Wed Mar 05 2025 10:33:46 GMT-0600 (Central Standard Time),254069.40000009537,step,800,O,z,z,None,505,290.0,215.0,45,1,1846.0,252223.40000009537,7087,hate,AF,B,250485,250485,248938,249752,248940,250785,250269,250269,250784,51
50,test,1,con,1,z,Wed Mar 05 2025 10:33:46 GMT-0600 (Central Standard Time),255935.30000007153,temper,800,O,z,z,None,513,314.0,199.0,57,1,1845.3000000715256,254090.0,7087,temper,AF,B,252334,252334,250805,251618,250807,252650,252135,252135,252650,52
50,test,1,con,0,m,Wed Mar 05 2025 10:33:46 GMT-0600 (Central Standard Time),257917.60000002384,bell,800,O,z,z,None,629,414.0,215.0,81,1,1961.2999999523163,255956.30000007153,7087,bell,AF,B,254217,254217,252671,253485,252672,254633,254001,254001,254633,53
51,test,1,inc,1,z,Wed Mar 05 2025 10:33:46 GMT-0600 (Central Standard Time),260200.5,window,1100,O,z,z,None,627,428.0,199.0,64,1,2263.2999999523163,257937.20000004768,7087,temper,AF,B,256483,256483,254652,255767,254653,256916,256283,256283,256916,54
52,test,1,con,1,m,Wed Mar 05 2025 10:33:46 GMT-0600 (Central Standard Time),262250.0,rock,900,O,m,m,None,584,385.0,199.0,74,1,2031.0,260219.0,7087,rock,AF,B,258566,258566,256934,257849,256935,258965,258366,258366,258965,55
53,test,1,con,1,m,Wed Mar 05 2025 10:33:46 GMT-0600 (Central Standard Time),264549.0,step,900,O,m,m,None,839,640.0,199.0,66,1,2277.5,262271.5,7087,step,AF,B,260615,260615,258987,259899,258988,261264,260415,260415,261264,56
54,test,1,inc,1,m,Wed Mar 05 2025 10:33:46 GMT-0600 (Central Standard Time),266532.2000000477,elated,800,O,m,m,None,616,401.0,215.0,125,1,1963.2000000476837,264569.0,7087,window,AF,B,262831,262831,261284,262098,261285,263247,262615,262615,263247,57
55,test,1,inc,1,z,Wed Mar 05 2025 10:33:46 GMT-0600 (Central Standard Time),268481.0,step,800,O,z,z,None,594,395.0,199.0,53,1,1928.5,266552.5,7087,rage,AF,B,264797,264797,263268,264081,263269,265196,264597,264597,265196,58
56,test,1,inc,1,z,Wed Mar 05 2025 10:33:46 GMT-0600 (Central Standard Time),270747.40000009537,film,1100,O,z,z,None,599,384.0,215.0,16,1,2249.4000000953674,268498.0,7087,kind,AF,B,267063,267063,265213,266330,265214,267463,266847,266847,267462,59
57,test,1,con,1,z,Wed Mar 05 2025 10:33:46 GMT-0600 (Central Standard Time),272713.2000000477,hate,800,O,z,z,None,609,394.0,215.0,41,1,1945.0,270768.2000000477,7087,hate,AF,B,269029,269029,267483,268296,267485,269428,268813,268813,269428,60
58,test,1,con,1,m,Wed Mar 05 2025 10:33:46 GMT-0600 (Central Standard Time),275012.8000000715,step,1100,O,m,m,None,647,432.0,215.0,68,1,2279.600000023842,272733.2000000477,7087,step,AF,B,271295,271295,269448,270562,269450,271728,271079,271079,271728,61
59,test,1,con,1,m,Wed Mar 05 2025 10:33:46 GMT-0600 (Central Standard Time),276945.2000000477,window,800,O,m,m,None,570,371.0,199.0,121,1,1911.3999999761581,275033.8000000715,7087,window,AF,B,273277,273277,271749,272561,271750,273660,273078,273078,273660,62
60,test,1,inc,1,z,Wed Mar 05 2025 10:33:46 GMT-0600 (Central Standard Time),278911.10000002384,napkin,900,O,z,z,None,512,313.0,199.0,38,1,1945.2999999523163,276965.8000000715,7087,brutal,AF,B,275310,275310,273681,274594,273682,275626,275110,275110,275626,63
61,test,1,con,1,z,Wed Mar 05 2025 10:33:46 GMT-0600 (Central Standard Time),281045.60000002384,love,1100,O,z,z,None,482,267.0,215.0,20,1,2113.6999999284744,278931.90000009537,7087,love,AF,B,277493,277493,275647,276760,275648,277761,277277,277277,277761,64
62,test,1,con,1,z,Wed Mar 05 2025 10:33:46 GMT-0600 (Central Standard Time),283026.5,love,900,O,z,z,None,518,319.0,199.0,18,1,1960.5999999046326,281065.90000009537,7087,love,AF,B,279408,279408,277781,278693,277782,279742,279209,279209,279742,65
63,test,1,inc,1,z,Wed Mar 05 2025 10:33:46 GMT-0600 (Central Standard Time),285242.40000009537,bell,1000,O,z,z,None,650,451.0,199.0,47,1,2195.4000000953674,283047.0,7087,hate,AF,B,281492,281492,279762,280775,279763,281958,281292,281292,281957,66
64,test,1,inc,1,z,Wed Mar 05 2025 10:33:46 GMT-0600 (Central Standard Time),287475.0,window,1100,O,z,z,None,568,369.0,199.0,8,1,2210.5,285264.5,7087,elated,AF,B,283807,283807,281979,283091,281981,284190,283608,283608,284190,67
65,test,1,con,1,m,Wed Mar 05 2025 10:33:46 GMT-0600 (Central Standard Time),289724.3000000715,film,1000,O,m,m,None,682,483.0,199.0,91,1,2228.5,287495.8000000715,7087,film,AF,B,285940,285940,284211,285224,284212,286439,285740,285740,286439,68
66,test,1,con,1,m,Wed Mar 05 2025 10:33:46 GMT-0600 (Central Standard Time),291706.90000009537,rock,800,O,m,m,None,617,418.0,199.0,73,1,1962.6000000238419,289744.3000000715,7087,rock,AF,B,287989,287989,286459,287273,286461,288422,287790,287790,288422,69
67,test,1,con,1,m,Wed Mar 05 2025 10:33:46 GMT-0600 (Central Standard Time),293973.0,bell,1000,O,m,m,None,707,508.0,199.0,83,1,2245.399999976158,291727.60000002384,7087,bell,AF,B,290172,290172,288443,289456,288444,290688,289972,289972,290688,70
68,test,1,con,1,z,Wed Mar 05 2025 10:33:46 GMT-0600 (Central Standard Time),296138.90000009537,temper,1100,O,z,z,None,500,301.0,199.0,60,1,2144.3000000715256,293994.60000002384,7087,temper,AF,B,292538,292538,290710,291822,290711,292854,292338,292338,292854,71
69,test,1,con,1,m,Wed Mar 05 2025 10:33:46 GMT-0600 (Central Standard Time),298204.90000009537,bell,900,O,m,m,None,599,400.0,199.0,82,1,2046.8000000715256,296158.10000002384,7087,bell,AF,B,294504,294504,292873,293787,292874,294920,294304,294304,294920,72
70,test,1,inc,1,z,Wed Mar 05 2025 10:33:46 GMT-0600 (Central Standard Time),300337.3000000715,remote,1000,O,z,z,None,568,353.0,215.0,7,1,2112.600000023842,298224.7000000477,7087,elated,AF,B,296687,296687,294940,295953,294941,297052,296471,296471,297052,73
71,test,1,con,1,m,Wed Mar 05 2025 10:33:46 GMT-0600 (Central Standard Time),302553.0,remote,1000,O,m,m,None,660,461.0,199.0,115,1,2196.0999999046326,300356.90000009537,7087,remote,AF,B,298802,298802,297072,298086,297073,299268,298603,298603,299268,74
72,test,1,inc,1,m,Wed Mar 05 2025 10:33:46 GMT-0600 (Central Standard Time),304569.40000009537,rage,800,O,m,m,None,676,477.0,199.0,77,1,2003.4000000953674,302566.0,7087,rock,AF,B,300802,300802,299281,300086,299282,301285,300602,300602,301284,75
73,test,1,inc,1,z,Wed Mar 05 2025 10:33:46 GMT-0600 (Central Standard Time),306635.5,napkin,900,O,z,z,None,609,410.0,199.0,30,1,2047.0,304588.5,7087,friend,AF,B,302934,302934,301304,302218,301305,303351,302735,302735,303350,76
74,test,1,inc,1,z,Wed Mar 05 2025 10:33:46 GMT-0600 (Central Standard Time),308601.40000009537,step,800,O,z,z,None,611,412.0,199.0,13,1,1945.3000000715256,306656.10000002384,7087,kind,AF,B,304900,304900,303371,304185,303372,305317,304701,304701,305316,77
75,test,1,con,1,m,Wed Mar 05 2025 10:33:46 GMT-0600 (Central Standard Time),310883.10000002384,remote,1100,O,m,m,None,622,423.0,199.0,116,1,2261.600000023842,308621.5,7087,remote,AF,B,307167,307167,305337,306450,305338,307598,306967,306967,307598,78
76,test,1,con,1,z,Wed Mar 05 2025 10:33:46 GMT-0600 (Central Standard Time),313116.40000009537,kind,1000,O,z,z,None,682,483.0,199.0,11,1,2227.100000023842,310889.3000000715,7087,kind,AF,B,309333,309333,307604,308616,307605,309831,309133,309133,309831,79
77,test,1,inc,1,z,Wed Mar 05 2025 10:33:46 GMT-0600 (Central Standard Time),315116.0,jacket,800,O,z,z,None,632,433.0,199.0,29,1,1980.0,313136.0,7087,friend,AF,B,311382,311382,309851,310666,309852,311831,311182,311182,311831,80
78,test,1,inc,1,z,Wed Mar 05 2025 10:33:46 GMT-0600 (Central Standard Time),317097.8000000715,jacket,800,O,z,z,None,616,417.0,199.0,37,1,1962.2000000476837,315135.60000002384,7087,brutal,AF,B,313381,313381,311851,312665,311852,313813,313181,313181,313813,81
79,test,1,inc,1,m,Wed Mar 05 2025 10:33:46 GMT-0600 (Central Standard Time),319081.2000000477,brutal,900,O,m,m,None,543,328.0,215.0,110,1,1977.7999999523163,317103.40000009537,7087,napkin,AF,B,315464,315464,313818,314731,313819,315796,315248,315248,315796,82
80,test,1,con,1,m,Wed Mar 05 2025 10:33:46 GMT-0600 (Central Standard Time),321013.8000000715,jacket,800,O,m,m,None,580,381.0,199.0,97,1,1911.7000000476837,319102.10000002384,7087,jacket,AF,B,317347,317347,315817,316630,315819,317729,317147,317147,317729,83
81,test,1,inc,1,z,Wed Mar 05 2025 10:33:46 GMT-0600 (Central Standard Time),322963.40000009537,rock,900,O,z,z,None,490,275.0,215.0,22,1,1929.7000000476837,321033.7000000477,7087,love,AF,B,319396,319396,317749,318663,317750,319679,319180,319180,319678,84
82,test,1,con,1,m,Wed Mar 05 2025 10:33:46 GMT-0600 (Central Standard Time),325095.90000009537,jacket,1000,O,m,m,None,573,372.0,201.0,99,1,2111.7000000476837,322984.2000000477,7087,jacket,AF,B,321428,321428,319699,320712,319701,321811,321227,321227,321811,85
83,test,1,inc,1,m,Wed Mar 05 2025 10:33:46 GMT-0600 (Central Standard Time),327211.3000000715,temper,1000,O,m,m,None,563,348.0,215.0,103,1,2095.0,325116.3000000715,7087,jacket,AF,B,323578,323578,321831,322845,321833,323926,323361,323362,323926,86
84,test,1,con,1,m,Wed Mar 05 2025 10:33:46 GMT-0600 (Central Standard Time),329228.2000000477,napkin,900,O,m,m,None,566,351.0,215.0,106,1,2011.5,327216.7000000477,7087,napkin,AF,B,325577,325577,323932,324844,323932,325943,325361,325361,325943,87
85,test,1,inc,1,z,Wed Mar 05 2025 10:33:46 GMT-0600 (Central Standard Time),331460.8000000715,film,1100,O,z,z,None,566,367.0,199.0,56,1,2213.899999976158,329246.90000009537,7087,rage,AF,B,327793,327793,325962,327077,325963,328176,327593,327593,328176,88
86,test,1,inc,1,m,Wed Mar 05 2025 10:33:46 GMT-0600 (Central Standard Time),333559.90000009537,love,1000,O,m,m,None,546,347.0,199.0,95,1,2079.4000000953674,331480.5,7087,film,AF,B,329925,329925,328196,329209,328197,330275,329726,329726,330275,89
87,test,1,inc,1,m,Wed Mar 05 2025 10:33:46 GMT-0600 (Central Standard Time),335476.0,rage,800,O,m,m,None,549,334.0,215.0,69,1,1895.3999999761581,333580.60000002384,7087,step,AF,B,331841,331841,330296,331109,330297,332191,331626,331626,332191,90
88,test,1,con,1,z,Wed Mar 05 2025 10:33:46 GMT-0600 (Central Standard Time),337641.5,hate,1100,O,z,z,None,510,311.0,199.0,44,1,2146.0999999046326,335495.40000009537,7087,hate,AF,B,334041,334041,332210,333325,332212,334357,333840,333841,334356,91
89,test,1,con,1,z,Wed Mar 05 2025 10:33:46 GMT-0600 (Central Standard Time),339824.60000002384,brutal,800,O,z,z,None,820,605.0,215.0,33,1,2162.6999999284744,337661.90000009537,7087,brutal,AF,B,335923,335923,334377,335191,334378,336540,335708,335708,336540,92
90,test,1,con,1,m,Wed Mar 05 2025 10:33:46 GMT-0600 (Central Standard Time),341757.60000002384,film,800,O,m,m,None,581,382.0,199.0,89,1,1911.1000000238419,339846.5,7087,film,AF,B,338090,338090,336562,337373,336563,338473,337890,337890,338473,93
91,test,1,inc,1,m,Wed Mar 05 2025 10:33:46 GMT-0600 (Central Standard Time),343823.3000000715,kind,900,O,m,m,None,613,414.0,199.0,94,1,2045.6000000238419,341777.7000000477,7087,film,AF,B,340122,340122,338493,339406,338494,340538,339923,339923,340538,94
92,test,1,inc,1,z,Wed Mar 05 2025 10:33:46 GMT-0600 (Central Standard Time),345789.10000002384,napkin,900,O,z,z,None,498,283.0,215.0,6,1,1945.8999999761581,343843.2000000477,7087,elated,AF,B,342205,342205,340558,341472,340560,342504,341989,341989,342504,95
93,test,1,con,1,z,Wed Mar 05 2025 10:33:46 GMT-0600 (Central Standard Time),347905.3000000715,elated,1000,O,z,z,None,560,345.0,215.0,3,1,2097.8000000715256,345807.5,7087,elated,AF,B,344271,344271,342523,343538,342523,344620,344055,344055,344620,96
94,test,1,con,1,z,Wed Mar 05 2025 10:33:46 GMT-0600 (Central Standard Time),350071.2000000477,friend,1100,O,z,z,None,504,289.0,215.0,28,1,2143.899999976158,347927.3000000715,7087,friend,AF,B,346487,346487,344642,345754,344644,346786,346271,346271,346786,97
95,test,1,inc,1,m,Wed Mar 05 2025 10:33:46 GMT-0600 (Central Standard Time),351987.3000000715,elated,800,O,m,m,None,558,343.0,215.0,117,1,1896.6000000238419,350090.7000000477,7087,remote,AF,B,348353,348353,346806,347620,346807,348702,348137,348137,348702,98
96,test,1,inc,1,m,Wed Mar 05 2025 10:33:46 GMT-0600 (Central Standard Time),354236.8000000715,temper,1000,O,m,m,None,681,466.0,215.0,119,1,2229.8000000715256,352007.0,7087,remote,AF,B,350470,350470,348722,349736,348724,350952,350253,350253,350952,99
97,test,1,inc,1,z,Wed Mar 05 2025 10:33:46 GMT-0600 (Central Standard Time),356385.7000000477,film,1100,O,z,z,None,494,295.0,199.0,24,1,2128.600000023842,354257.10000002384,7087,love,AF,B,352801,352801,350972,352085,350974,353101,352602,352602,353101,100
98,test,1,inc,1,z,Wed Mar 05 2025 10:33:46 GMT-0600 (Central Standard Time),358501.7000000477,remote,1000,O,z,z,None,564,365.0,199.0,63,1,2095.7000000476837,356406.0,7087,temper,AF,B,354851,354851,353121,354135,353123,355217,354651,354651,355217,101
99,test,1,inc,1,m,Wed Mar 05 2025 10:33:46 GMT-0600 (Central Standard Time),360601.10000002384,love,1000,O,m,m,None,536,337.0,199.0,71,1,2079.899999976158,358521.2000000477,7087,step,AF,B,356967,356967,355236,356251,355238,357316,356767,356767,357316,102
100,test,1,inc,1,z,Wed Mar 05 2025 10:33:46 GMT-0600 (Central Standard Time),362483.8000000715,step,800,O,z,z,None,523,308.0,215.0,21,1,1863.2000000476837,360620.60000002384,7087,love,AF,B,358883,358883,357336,358150,357337,359199,358666,358667,359199,103
101,test,1,con,1,m,Wed Mar 05 2025 10:33:46 GMT-0600 (Central Standard Time),364683.10000002384,jacket,1100,O,m,m,None,542,343.0,199.0,100,1,2179.1999999284744,362503.90000009537,7087,jacket,AF,B,361049,361049,359219,360332,359220,361398,360849,360849,361398,104
102,test,1,con,1,z,Wed Mar 05 2025 10:33:46 GMT-0600 (Central Standard Time),366649.0,friend,900,O,z,z,None,513,312.0,201.0,26,1,1946.1999999284744,364702.8000000715,7087,friend,AF,B,363048,363048,361418,362332,361419,363364,362847,362847,363364,105
103,test,1,con,1,m,Wed Mar 05 2025 10:33:46 GMT-0600 (Central Standard Time),368748.60000002384,window,1000,O,m,m,None,532,333.0,199.0,123,1,2080.2999999523163,366668.3000000715,7087,window,AF,B,365114,365114,363383,364398,363385,365464,364914,364914,365464,106
104,test,1,inc,1,m,Wed Mar 05 2025 10:33:46 GMT-0600 (Central Standard Time),370681.0,elated,800,O,m,m,None,569,370.0,199.0,109,1,1911.7999999523163,368769.2000000477,7087,napkin,AF,B,367013,367014,365484,366297,365486,367396,366814,366814,367396,107
105,test,1,con,1,z,Wed Mar 05 2025 10:33:46 GMT-0600 (Central Standard Time),372713.8000000715,temper,1000,O,z,z,None,468,253.0,215.0,59,1,2010.8000000715256,370703.0,7087,temper,AF,B,369163,369163,367418,368430,367420,369429,368946,368947,369429,108
106,test,1,inc,1,z,Wed Mar 05 2025 10:33:46 GMT-0600 (Central Standard Time),374663.3000000715,jacket,800,O,z,z,None,588,389.0,199.0,61,1,1929.2000000476837,372734.10000002384,7087,temper,AF,B,370979,370979,369449,370263,369451,371378,370779,370779,371378,109
107,test,1,con,1,m,Wed Mar 05 2025 10:33:46 GMT-0600 (Central Standard Time),376695.8000000715,film,900,O,m,m,None,572,372.0,200.0,90,1,2012.6000000238419,374683.2000000477,7087,film,AF,B,373028,373028,371398,372312,371400,373411,372827,372827,373411,110
108,test,1,inc,1,z,Wed Mar 05 2025 10:33:46 GMT-0600 (Central Standard Time),378828.40000009537,bell,1000,O,z,z,None,574,375.0,199.0,15,1,2112.100000023842,376716.3000000715,7087,kind,AF,B,375161,375161,373431,374445,373433,375544,374961,374961,375543,111
109,test,1,con,1,z,Wed Mar 05 2025 10:33:46 GMT-0600 (Central Standard Time),380694.0,friend,800,O,z,z,None,513,314.0,199.0,25,1,1844.0,378850.0,7087,friend,AF,B,377093,377094,375565,376377,375567,377409,376894,376894,377409,112
110,test,1,inc,1,m,Wed Mar 05 2025 10:33:46 GMT-0600 (Central Standard Time),382943.8000000715,hate,1100,O,m,m,None,595,380.0,215.0,88,1,2230.8000000715256,380713.0,7087,bell,AF,B,379276,379276,377428,378543,377429,379659,379060,379060,379659,113
111,test,1,inc,1,m,Wed Mar 05 2025 10:33:46 GMT-0600 (Central Standard Time),385193.10000002384,hate,1100,O,m,m,None,587,372.0,215.0,96,1,2230.1999999284744,382962.90000009537,7087,film,AF,B,381524,381524,379678,380792,379679,381908,381309,381309,381908,114
112,test,1,inc,1,m,Wed Mar 05 2025 10:33:46 GMT-0600 (Central Standard Time),387441.3000000715,friend,1100,O,m,m,None,592,377.0,215.0,104,1,2227.0,385214.3000000715,7087,jacket,AF,B,383773,383773,381929,383042,381931,384156,383558,383558,384156,115
113,test,1,inc,1,z,Wed Mar 05 2025 10:33:46 GMT-0600 (Central Standard Time),389608.3000000715,window,1100,O,z,z,None,522,322.0,200.0,40,1,2161.399999976158,387446.90000009537,7087,brutal,AF,B,385990,385990,384162,385274,384162,386323,385790,385790,386323,116
114,test,1,inc,1,m,Wed Mar 05 2025 10:33:46 GMT-0600 (Central Standard Time),391640.3000000715,brutal,900,O,m,m,None,577,378.0,199.0,118,1,2012.6000000238419,389627.7000000477,7087,remote,AF,B,387973,387973,386343,387257,386344,388355,387774,387774,388355,117
115,test,1,inc,1,z,Wed Mar 05 2025 10:33:46 GMT-0600 (Central Standard Time),393640.2000000477,remote,1000,O,z,z,None,463,263.0,200.0,31,1,1990.3999999761581,391649.8000000715,7087,friend,AF,B,390089,390089,388365,389373,388365,390355,389889,389889,390355,118
116,test,1,con,1,z,Wed Mar 05 2025 10:33:46 GMT-0600 (Central Standard Time),395589.5,temper,900,O,z,z,None,497,298.0,199.0,58,1,1930.6999999284744,393658.8000000715,7087,temper,AF,B,392005,392005,390374,391289,390374,392305,391806,391806,392305,119
117,test,1,con,1,z,Wed Mar 05 2025 10:33:46 GMT-0600 (Central Standard Time),397771.7000000477,brutal,1000,O,z,z,None,632,433.0,199.0,35,1,2164.0,395607.7000000477,7087,brutal,AF,B,394054,394054,392323,393338,392323,394487,393855,393855,394487,120
118,test,1,con,1,z,Wed Mar 05 2025 10:33:46 GMT-0600 (Central Standard Time),399738.10000002384,kind,900,O,z,z,None,518,319.0,199.0,10,1,1957.1999999284744,397780.90000009537,7087,kind,AF,B,396121,396121,394496,395404,394497,396453,395921,395921,396453,121
118,test,1,con,0,m,Wed Mar 05 2025 10:33:46 GMT-0600 (Central Standard Time),401671.0,window,900,O,z,z,None,471,256.0,215.0,122,1,1913.0,399758.0,7087,window,AF,B,398120,398120,396473,397388,396475,398386,397904,397904,398386,122
119,test,1,inc,1,m,Wed Mar 05 2025 10:33:46 GMT-0600 (Central Standard Time),403770.3000000715,kind,900,O,m,m,None,635,420.0,215.0,86,1,2078.600000023842,401691.7000000477,7087,bell,AF,B,400052,400052,398407,399320,398408,400485,399837,399837,400485,123
120,test,1,inc,1,m,Wed Mar 05 2025 10:33:46 GMT-0600 (Central Standard Time),405836.3000000715,brutal,900,O,m,m,None,600,401.0,199.0,102,1,2046.8999999761581,403789.40000009537,7087,jacket,AF,B,402135,402135,400504,401419,400506,402551,401936,401936,402551,124
121,test,1,con,1,m,Wed Mar 05 2025 10:33:46 GMT-0600 (Central Standard Time),408018.90000009537,napkin,1100,O,m,m,None,524,325.0,199.0,108,1,2163.600000023842,405855.3000000715,7087,napkin,AF,B,404403,404403,402570,403685,402572,404734,404203,404203,404734,125
122,test,1,inc,1,z,Wed Mar 05 2025 10:33:46 GMT-0600 (Central Standard Time),410001.90000009537,rock,900,O,z,z,None,527,328.0,199.0,46,1,1962.8000000715256,408039.10000002384,7087,hate,AF,B,406384,406384,404754,405667,404756,406717,406184,406184,406717,126
123,test,1,inc,1,z,Wed Mar 05 2025 10:33:46 GMT-0600 (Central Standard Time),412267.7000000477,napkin,900,O,z,z,None,801,602.0,199.0,62,1,2246.7000000476837,410021.0,7087,temper,AF,B,408366,408367,406736,407650,406737,408983,408167,408167,408983,127
124,test,1,inc,1,m,Wed Mar 05 2025 10:33:46 GMT-0600 (Central Standard Time),414183.2000000477,rage,800,O,m,m,None,562,363.0,199.0,93,1,1896.1000000238419,412287.10000002384,7087,film,AF,B,410533,410533,409002,409818,409003,410898,410333,410333,410898,128
