acc_sum,block,block_c,change,condition,correct,correct_response,datetime,endtime,face,project,response,response_time,row_sel,session_number,start_end,starttime,subject_id,task,task_vers,trial
0,prac,1,,1-Back,,,Mon Apr 28 2025 15:53:48 GMT-0500 (Central Daylight Time),,124_o_f_d_a.png,O,space,6545,1,1,,,7133,VNB,A,0
1,prac,1,0.0,1-Back,1,m,Mon Apr 28 2025 15:53:48 GMT-0500 (Central Daylight Time),104516.59999999404,071_y_f_n_a.png,O,m,940,2,1,1758.5,102758.09999999404,7133,VNB,A,1
2,prac,1,0.0,1-Back,1,m,Mon Apr 28 2025 15:53:48 GMT-0500 (Central Daylight Time),106515.80000001192,165_m_m_h_a.png,O,m,1147,3,1,1973.0999999940395,104542.70000001788,7133,VNB,A,2
3,prac,1,0.0,1-Back,1,m,Mon Apr 28 2025 15:53:48 GMT-0500 (Central Daylight Time),108148.70000001788,109_y_m_d_a.png,O,m,770,4,1,1597.300000011921,106551.40000000596,7133,VNB,A,3
4,prac,1,0.0,1-Back,1,m,Mon Apr 28 2025 15:53:48 GMT-0500 (Central Daylight Time),109997.09999999404,124_o_f_n_a.png,O,m,951,5,1,1811.699999988079,108185.40000000596,7133,VNB,A,4
5,prac,1,1.0,1-Back,1,z,Mon Apr 28 2025 15:53:48 GMT-0500 (Central Daylight Time),111731.20000001788,109_y_m_n_a.png,O,z,904,6,1,1717.4000000059605,110013.80000001192,7133,VNB,A,5
6,prac,1,0.0,1-Back,1,m,Mon Apr 28 2025 15:53:48 GMT-0500 (Central Daylight Time),113413.59999999404,039_o_m_h_a.png,O,m,837,7,1,1652.699999988079,111760.90000000596,7133,VNB,A,6
6,prac,1,0.0,1-Back,0,m,Mon Apr 28 2025 15:53:48 GMT-0500 (Central Daylight Time),115645.80000001192,139_m_f_d_a.png,O,z,1375,8,1,2203.9000000059605,113441.90000000596,7133,VNB,A,7
7,prac,1,1.0,1-Back,1,z,Mon Apr 28 2025 15:53:48 GMT-0500 (Central Daylight Time),117929.30000001192,071_y_f_d_a.png,O,z,1414,9,1,2244.5999999940395,115684.70000001788,7133,VNB,A,8
8,prac,1,0.0,1-Back,1,m,Mon Apr 28 2025 15:53:48 GMT-0500 (Central Daylight Time),119878.09999999404,165_m_m_n_a.png,O,m,1100,10,1,1922.5,117955.59999999404,7133,VNB,A,9
9,prac,1,0.0,1-Back,1,m,Mon Apr 28 2025 15:53:48 GMT-0500 (Central Daylight Time),121678.0,124_o_f_h_a.png,O,m,912,11,1,1763.0999999940395,119914.90000000596,7133,VNB,A,10
10,prac,1,0.0,1-Back,1,m,Mon Apr 28 2025 15:53:48 GMT-0500 (Central Daylight Time),123461.0,109_y_m_d_a.png,O,m,967,12,1,1745.4000000059605,121715.59999999404,7133,VNB,A,11
0,test,1,0.0,1-Back,,,Mon Apr 28 2025 15:53:48 GMT-0500 (Central Daylight Time),123461.0,071_y_f_d_a.png,O,space,10127,1,1,1745.4000000059605,121715.59999999404,7133,VNB,A,0
1,test,1,0.0,1-Back,1,m,Mon Apr 28 2025 15:53:48 GMT-0500 (Central Daylight Time),143753.5,139_m_f_n_a.png,O,m,893,2,1,1905.9000000059605,141847.59999999404,7133,VNB,A,1
2,test,1,0.0,1-Back,1,m,Mon Apr 28 2025 15:53:48 GMT-0500 (Central Daylight Time),145653.09999999404,039_o_m_h_a.png,O,m,847,3,1,1868.0,143785.09999999404,7133,VNB,A,2
3,test,1,1.0,1-Back,1,z,Mon Apr 28 2025 15:53:48 GMT-0500 (Central Daylight Time),147768.70000001788,165_m_m_h_a.png,O,z,1077,4,1,2084.9000000059605,145683.80000001192,7133,VNB,A,3
4,test,1,0.0,1-Back,1,m,Mon Apr 28 2025 15:53:48 GMT-0500 (Central Daylight Time),149717.20000001788,124_o_f_n_a.png,O,m,912,5,1,1924.6000000238419,147792.59999999404,7133,VNB,A,4
4,test,1,0.0,1-Back,0,m,Mon Apr 28 2025 15:53:48 GMT-0500 (Central Daylight Time),151868.70000001788,109_y_m_d_a.png,O,z,1117,6,1,2142.2000000178814,149726.5,7133,VNB,A,5
5,test,1,1.0,1-Back,1,z,Mon Apr 28 2025 15:53:48 GMT-0500 (Central Daylight Time),154200.09999999404,139_m_f_d_a.png,O,z,1269,7,1,2298.2999999821186,151901.80000001192,7133,VNB,A,6
6,test,1,0.0,1-Back,1,m,Mon Apr 28 2025 15:53:48 GMT-0500 (Central Daylight Time),156084.59999999404,071_y_f_h_a.png,O,m,834,8,1,1849.8999999761581,154234.70000001788,7133,VNB,A,7
7,test,1,0.0,1-Back,1,m,Mon Apr 28 2025 15:53:48 GMT-0500 (Central Daylight Time),158465.40000000596,039_o_m_n_a.png,O,m,1335,9,1,2360.0999999940395,156105.30000001192,7133,VNB,A,8
8,test,1,0.0,1-Back,1,m,Mon Apr 28 2025 15:53:48 GMT-0500 (Central Daylight Time),160514.40000000596,109_y_m_h_a.png,O,m,1011,10,1,2019.300000011921,158495.09999999404,7133,VNB,A,9
9,test,1,0.0,1-Back,1,m,Mon Apr 28 2025 15:53:48 GMT-0500 (Central Daylight Time),162897.20000001788,039_o_m_d_a.png,O,m,1344,11,1,2359.800000011921,160537.40000000596,7133,VNB,A,10
10,test,1,1.0,1-Back,1,z,Mon Apr 28 2025 15:53:48 GMT-0500 (Central Daylight Time),164779.80000001192,124_o_f_d_a.png,O,z,816,12,1,1848.9000000059605,162930.90000000596,7133,VNB,A,11
11,test,1,0.0,1-Back,1,m,Mon Apr 28 2025 15:53:48 GMT-0500 (Central Daylight Time),166795.90000000596,165_m_m_n_a.png,O,m,958,13,1,1983.300000011921,164812.59999999404,7133,VNB,A,12
11,test,1,1.0,1-Back,0,z,Mon Apr 28 2025 15:53:48 GMT-0500 (Central Daylight Time),168662.09999999404,071_y_f_n_a.png,O,m,805,14,1,1832.7999999821186,166829.30000001192,7133,VNB,A,13
11,test,1,0.0,1-Back,0,m,Mon Apr 28 2025 15:53:48 GMT-0500 (Central Daylight Time),171560.59999999404,139_m_f_h_a.png,O,z,1860,15,1,2866.899999976158,168693.70000001788,7133,VNB,A,14
12,test,1,0.0,1-Back,1,m,Mon Apr 28 2025 15:53:48 GMT-0500 (Central Daylight Time),173743.5,165_m_m_d_a.png,O,m,1137,16,1,2154.5,171589.0,7133,VNB,A,15
13,test,1,0.0,1-Back,1,m,Mon Apr 28 2025 15:53:48 GMT-0500 (Central Daylight Time),176059.5,109_y_m_n_a.png,O,m,1273,17,1,2288.7999999821186,173770.70000001788,7133,VNB,A,16
14,test,1,0.0,1-Back,1,m,Mon Apr 28 2025 15:53:48 GMT-0500 (Central Daylight Time),178975.20000001788,124_o_f_h_a.png,O,m,1878,18,1,2891.0,176084.20000001788,7133,VNB,A,17
0,test,2,0.0,1-Back,,,Mon Apr 28 2025 15:53:48 GMT-0500 (Central Daylight Time),178975.20000001788,109_y_m_n_a.png,O,space,2826,1,1,2891.0,176084.20000001788,7133,VNB,A,0
1,test,2,0.0,1-Back,1,m,Mon Apr 28 2025 15:53:48 GMT-0500 (Central Daylight Time),185923.0,071_y_f_h_a.png,O,m,1025,2,1,2049.4000000059605,183873.59999999404,7133,VNB,A,1
2,test,2,1.0,1-Back,1,m,Mon Apr 28 2025 15:53:48 GMT-0500 (Central Daylight Time),188155.40000000596,039_o_m_n_a.png,O,m,1191,3,1,2205.0999999940395,185950.30000001192,7133,VNB,A,2
3,test,2,0.0,1-Back,1,m,Mon Apr 28 2025 15:53:48 GMT-0500 (Central Daylight Time),190471.40000000596,139_m_f_d_a.png,O,m,1253,4,1,2282.5,188188.90000000596,7133,VNB,A,3
4,test,2,0.0,1-Back,1,z,Mon Apr 28 2025 15:53:48 GMT-0500 (Central Daylight Time),192204.30000001192,165_m_m_d_a.png,O,z,666,5,1,1700.0,190504.30000001192,7133,VNB,A,4
5,test,2,0.0,1-Back,1,m,Mon Apr 28 2025 15:53:48 GMT-0500 (Central Daylight Time),194353.5,109_y_m_h_a.png,O,m,1093,6,1,2115.699999988079,192237.80000001192,7133,VNB,A,5
6,test,2,1.0,1-Back,1,z,Mon Apr 28 2025 15:53:48 GMT-0500 (Central Daylight Time),196369.20000001788,124_o_f_h_a.png,O,z,974,7,1,1989.0,194380.20000001788,7133,VNB,A,6
7,test,2,0.0,1-Back,1,m,Mon Apr 28 2025 15:53:48 GMT-0500 (Central Daylight Time),198401.40000000596,139_m_f_n_a.png,O,m,996,8,1,2013.4000000059605,196388.0,7133,VNB,A,7
7,test,2,0.0,1-Back,0,m,Mon Apr 28 2025 15:53:48 GMT-0500 (Central Daylight Time),200284.5,071_y_f_d_a.png,O,z,864,9,1,1874.5,198410.0,7133,VNB,A,8
8,test,2,0.0,1-Back,1,m,Mon Apr 28 2025 15:53:48 GMT-0500 (Central Daylight Time),203037.09999999404,165_m_m_n_a.png,O,m,1717,10,1,2733.899999976158,200303.20000001788,7133,VNB,A,9
9,test,2,1.0,1-Back,1,m,Mon Apr 28 2025 15:53:48 GMT-0500 (Central Daylight Time),205366.40000000596,139_m_f_h_a.png,O,m,1271,11,1,2296.4000000059605,203070.0,7133,VNB,A,10
10,test,2,0.0,1-Back,1,z,Mon Apr 28 2025 15:53:48 GMT-0500 (Central Daylight Time),207465.90000000596,039_o_m_h_a.png,O,z,1051,12,1,2072.4000000059605,205393.5,7133,VNB,A,11
11,test,2,0.0,1-Back,1,m,Mon Apr 28 2025 15:53:48 GMT-0500 (Central Daylight Time),209582.20000001788,109_y_m_d_a.png,O,m,1055,13,1,2083.100000023842,207499.09999999404,7133,VNB,A,12
12,test,2,0.0,1-Back,1,m,Mon Apr 28 2025 15:53:48 GMT-0500 (Central Daylight Time),211514.59999999404,124_o_f_n_a.png,O,m,884,14,1,1900.8999999761581,209613.70000001788,7133,VNB,A,13
13,test,2,0.0,1-Back,1,z,Mon Apr 28 2025 15:53:48 GMT-0500 (Central Daylight Time),213730.30000001192,071_y_f_n_a.png,O,z,1175,15,1,2191.2000000178814,211539.09999999404,7133,VNB,A,14
14,test,2,1.0,1-Back,1,m,Mon Apr 28 2025 15:53:48 GMT-0500 (Central Daylight Time),215846.30000001192,165_m_m_h_a.png,O,m,1078,16,1,2087.7000000178814,213758.59999999404,7133,VNB,A,15
15,test,2,0.0,1-Back,1,m,Mon Apr 28 2025 15:53:48 GMT-0500 (Central Daylight Time),217912.59999999404,124_o_f_d_a.png,O,m,1002,17,1,2033.5,215879.09999999404,7133,VNB,A,16
16,test,2,1.0,1-Back,1,z,Mon Apr 28 2025 15:53:48 GMT-0500 (Central Daylight Time),219911.59999999404,039_o_m_d_a.png,O,z,946,18,1,1967.3999999761581,217944.20000001788,7133,VNB,A,17
0,test,3,1.0,1-Back,,,Mon Apr 28 2025 15:53:48 GMT-0500 (Central Daylight Time),219911.59999999404,124_o_f_h_a.png,O,space,1378,1,1,1967.3999999761581,217944.20000001788,7133,VNB,A,0
1,test,3,0.0,1-Back,1,m,Mon Apr 28 2025 15:53:48 GMT-0500 (Central Daylight Time),225460.59999999404,139_m_f_d_a.png,O,m,982,2,1,2016.7999999821186,223443.80000001192,7133,VNB,A,1
2,test,3,1.0,1-Back,1,m,Mon Apr 28 2025 15:53:48 GMT-0500 (Central Daylight Time),227693.5,165_m_m_n_a.png,O,m,1198,3,1,2205.9000000059605,225487.59999999404,7133,VNB,A,2
3,test,3,0.0,1-Back,1,z,Mon Apr 28 2025 15:53:48 GMT-0500 (Central Daylight Time),229592.0,124_o_f_n_a.png,O,z,836,4,1,1864.7999999821186,227727.20000001788,7133,VNB,A,3
4,test,3,1.0,1-Back,1,m,Mon Apr 28 2025 15:53:48 GMT-0500 (Central Daylight Time),231474.70000001788,039_o_m_d_a.png,O,m,834,5,1,1850.800000011921,229623.90000000596,7133,VNB,A,4
5,test,3,0.0,1-Back,1,m,Mon Apr 28 2025 15:53:48 GMT-0500 (Central Daylight Time),233324.0,071_y_f_h_a.png,O,m,809,6,1,1829.0999999940395,231494.90000000596,7133,VNB,A,5
6,test,3,0.0,1-Back,1,z,Mon Apr 28 2025 15:53:48 GMT-0500 (Central Daylight Time),235390.20000001788,109_y_m_h_a.png,O,z,1021,7,1,2039.6000000238419,233350.59999999404,7133,VNB,A,6
7,test,3,0.0,1-Back,1,m,Mon Apr 28 2025 15:53:48 GMT-0500 (Central Daylight Time),237206.09999999404,139_m_f_n_a.png,O,m,771,8,1,1789.0,235417.09999999404,7133,VNB,A,7
7,test,3,0.0,1-Back,0,m,Mon Apr 28 2025 15:53:48 GMT-0500 (Central Daylight Time),239568.20000001788,071_y_f_d_a.png,O,z,1311,9,1,2329.2000000178814,237239.0,7133,VNB,A,8
8,test,3,1.0,1-Back,1,m,Mon Apr 28 2025 15:53:48 GMT-0500 (Central Daylight Time),241654.80000001192,039_o_m_n_a.png,O,m,1054,10,1,2073.4000000059605,239581.40000000596,7133,VNB,A,9
9,test,3,0.0,1-Back,1,m,Mon Apr 28 2025 15:53:48 GMT-0500 (Central Daylight Time),244303.70000001788,165_m_m_h_a.png,O,m,1611,11,1,2617.300000011921,241686.40000000596,7133,VNB,A,10
10,test,3,0.0,1-Back,1,z,Mon Apr 28 2025 15:53:48 GMT-0500 (Central Daylight Time),246286.59999999404,139_m_f_h_a.png,O,z,938,12,1,1958.199999988079,244328.40000000596,7133,VNB,A,11
11,test,3,1.0,1-Back,1,m,Mon Apr 28 2025 15:53:48 GMT-0500 (Central Daylight Time),248302.59999999404,124_o_f_d_a.png,O,m,971,13,1,1988.699999988079,246313.90000000596,7133,VNB,A,12
12,test,3,0.0,1-Back,1,z,Mon Apr 28 2025 15:53:48 GMT-0500 (Central Daylight Time),250368.40000000596,165_m_m_d_a.png,O,z,1027,14,1,2033.9000000059605,248334.5,7133,VNB,A,13
13,test,3,0.0,1-Back,1,m,Mon Apr 28 2025 15:53:48 GMT-0500 (Central Daylight Time),252667.80000001192,109_y_m_n_a.png,O,m,1249,15,1,2275.0,250392.80000001192,7133,VNB,A,14
14,test,3,1.0,1-Back,1,m,Mon Apr 28 2025 15:53:48 GMT-0500 (Central Daylight Time),254766.80000001192,039_o_m_h_a.png,O,m,1061,16,1,2069.7000000178814,252697.09999999404,7133,VNB,A,15
15,test,3,0.0,1-Back,1,m,Mon Apr 28 2025 15:53:48 GMT-0500 (Central Daylight Time),256933.0,109_y_m_d_a.png,O,m,1123,17,1,2137.4000000059605,254795.59999999404,7133,VNB,A,16
16,test,3,1.0,1-Back,1,m,Mon Apr 28 2025 15:53:48 GMT-0500 (Central Daylight Time),259035.30000001192,071_y_f_n_a.png,O,m,1068,18,1,2075.0999999940395,256960.20000001788,7133,VNB,A,17
0,test,4,1.0,1-Back,,,Mon Apr 28 2025 15:53:48 GMT-0500 (Central Daylight Time),259035.30000001192,165_m_m_d_a.png,O,space,1456,1,1,2075.0999999940395,256960.20000001788,7133,VNB,A,0
0,test,4,0.0,1-Back,0,z,Mon Apr 28 2025 15:53:48 GMT-0500 (Central Daylight Time),264430.5,039_o_m_d_a.png,O,m,838,2,1,1867.2999999821186,262563.2000000179,7133,VNB,A,1
1,test,4,0.0,1-Back,1,m,Mon Apr 28 2025 15:53:48 GMT-0500 (Central Daylight Time),266229.8000000119,109_y_m_h_a.png,O,m,762,3,1,1771.5999999940395,264458.2000000179,7133,VNB,A,2
2,test,4,0.0,1-Back,1,m,Mon Apr 28 2025 15:53:48 GMT-0500 (Central Daylight Time),268346.0,139_m_f_n_a.png,O,m,1076,4,1,2088.9000000059605,266257.09999999404,7133,VNB,A,3
3,test,4,1.0,1-Back,1,m,Mon Apr 28 2025 15:53:48 GMT-0500 (Central Daylight Time),270528.59999999404,124_o_f_h_a.png,O,m,1126,5,1,2149.199999988079,268379.40000000596,7133,VNB,A,4
4,test,4,0.0,1-Back,1,m,Mon Apr 28 2025 15:53:48 GMT-0500 (Central Daylight Time),272411.40000000596,165_m_m_n_a.png,O,m,833,6,1,1858.5,270552.90000000596,7133,VNB,A,5
5,test,4,0.0,1-Back,1,m,Mon Apr 28 2025 15:53:48 GMT-0500 (Central Daylight Time),274427.3000000119,109_y_m_d_a.png,O,m,965,7,1,1989.2000000178814,272438.09999999404,7133,VNB,A,6
6,test,4,1.0,1-Back,1,z,Mon Apr 28 2025 15:53:48 GMT-0500 (Central Daylight Time),276643.0,071_y_f_d_a.png,O,z,1175,8,1,2191.5,274451.5,7133,VNB,A,7
7,test,4,0.0,1-Back,1,m,Mon Apr 28 2025 15:53:48 GMT-0500 (Central Daylight Time),278475.7000000179,139_m_f_h_a.png,O,m,781,9,1,1806.4000000059605,276669.3000000119,7133,VNB,A,8
8,test,4,0.0,1-Back,1,z,Mon Apr 28 2025 15:53:48 GMT-0500 (Central Daylight Time),280242.2000000179,039_o_m_h_a.png,O,z,717,10,1,1742.300000011921,278499.90000000596,7133,VNB,A,9
9,test,4,1.0,1-Back,1,m,Mon Apr 28 2025 15:53:48 GMT-0500 (Central Daylight Time),281974.5,124_o_f_n_a.png,O,m,695,11,1,1704.199999988079,280270.3000000119,7133,VNB,A,10
9,test,4,0.0,1-Back,0,m,Mon Apr 28 2025 15:53:48 GMT-0500 (Central Daylight Time),284307.5,139_m_f_d_a.png,O,z,1282,12,1,2302.4000000059605,282005.09999999404,7133,VNB,A,11
10,test,4,0.0,1-Back,1,m,Mon Apr 28 2025 15:53:48 GMT-0500 (Central Daylight Time),286523.2000000179,071_y_f_n_a.png,O,m,1158,13,1,2180.2000000178814,284343.0,7133,VNB,A,12
11,test,4,0.0,1-Back,1,m,Mon Apr 28 2025 15:53:48 GMT-0500 (Central Daylight Time),288789.2000000179,124_o_f_d_a.png,O,m,1205,14,1,2231.9000000059605,286557.3000000119,7133,VNB,A,13
12,test,4,0.0,1-Back,1,m,Mon Apr 28 2025 15:53:48 GMT-0500 (Central Daylight Time),290921.8000000119,071_y_f_h_a.png,O,m,1093,15,1,2104.4000000059605,288817.40000000596,7133,VNB,A,14
13,test,4,1.0,1-Back,1,z,Mon Apr 28 2025 15:53:48 GMT-0500 (Central Daylight Time),292754.8000000119,165_m_m_h_a.png,O,z,783,16,1,1805.9000000059605,290948.90000000596,7133,VNB,A,15
14,test,4,0.0,1-Back,1,m,Mon Apr 28 2025 15:53:48 GMT-0500 (Central Daylight Time),294687.2000000179,039_o_m_n_a.png,O,m,887,17,1,1904.9000000059605,292782.3000000119,7133,VNB,A,16
14,test,4,1.0,1-Back,0,z,Mon Apr 28 2025 15:53:48 GMT-0500 (Central Daylight Time),297136.7000000179,109_y_m_n_a.png,O,m,1394,18,1,2417.4000000059605,294719.3000000119,7133,VNB,A,17
0,test,5,1.0,1-Back,,,Mon Apr 28 2025 15:53:48 GMT-0500 (Central Daylight Time),297136.7000000179,039_o_m_n_a.png,O,space,1833,1,1,2417.4000000059605,294719.3000000119,7133,VNB,A,0
1,test,5,1.0,1-Back,1,m,Mon Apr 28 2025 15:53:48 GMT-0500 (Central Daylight Time),302884.7000000179,124_o_f_h_a.png,O,m,798,2,1,1834.0,301050.7000000179,7133,VNB,A,1
2,test,5,0.0,1-Back,1,m,Mon Apr 28 2025 15:53:48 GMT-0500 (Central Daylight Time),304950.7000000179,109_y_m_d_a.png,O,m,1029,3,1,2035.0,302915.7000000179,7133,VNB,A,2
3,test,5,0.0,1-Back,1,z,Mon Apr 28 2025 15:53:48 GMT-0500 (Central Daylight Time),307199.8000000119,039_o_m_d_a.png,O,z,1194,4,1,2216.0999999940395,304983.7000000179,7133,VNB,A,3
4,test,5,0.0,1-Back,1,m,Mon Apr 28 2025 15:53:48 GMT-0500 (Central Daylight Time),309049.59999999404,139_m_f_h_a.png,O,m,786,5,1,1815.699999988079,307233.90000000596,7133,VNB,A,4
5,test,5,0.0,1-Back,1,m,Mon Apr 28 2025 15:53:48 GMT-0500 (Central Daylight Time),311015.2000000179,071_y_f_n_a.png,O,m,919,6,1,1932.5,309082.7000000179,7133,VNB,A,5
6,test,5,1.0,1-Back,1,z,Mon Apr 28 2025 15:53:48 GMT-0500 (Central Daylight Time),312997.90000000596,124_o_f_n_a.png,O,z,922,7,1,1950.5999999940395,311047.3000000119,7133,VNB,A,6
7,test,5,0.0,1-Back,1,m,Mon Apr 28 2025 15:53:48 GMT-0500 (Central Daylight Time),315030.5,139_m_f_d_a.png,O,m,996,8,1,2002.7999999821186,313027.7000000179,7133,VNB,A,7
8,test,5,0.0,1-Back,1,m,Mon Apr 28 2025 15:53:48 GMT-0500 (Central Daylight Time),316981.0,109_y_m_h_a.png,O,m,898,9,1,1917.5999999940395,315063.40000000596,7133,VNB,A,8
9,test,5,0.0,1-Back,1,m,Mon Apr 28 2025 15:53:48 GMT-0500 (Central Daylight Time),318945.90000000596,071_y_f_d_a.png,O,m,909,10,1,1928.199999988079,317017.7000000179,7133,VNB,A,9
10,test,5,0.0,1-Back,1,m,Mon Apr 28 2025 15:53:48 GMT-0500 (Central Daylight Time),320828.90000000596,165_m_m_n_a.png,O,m,816,11,1,1849.800000011921,318979.09999999404,7133,VNB,A,10
11,test,5,1.0,1-Back,1,z,Mon Apr 28 2025 15:53:48 GMT-0500 (Central Daylight Time),322794.0,139_m_f_n_a.png,O,z,899,12,1,1929.5,320864.5,7133,VNB,A,11
12,test,5,0.0,1-Back,1,m,Mon Apr 28 2025 15:53:48 GMT-0500 (Central Daylight Time),324611.3000000119,039_o_m_h_a.png,O,m,783,13,1,1806.300000011921,322805.0,7133,VNB,A,12
13,test,5,0.0,1-Back,1,z,Mon Apr 28 2025 15:53:48 GMT-0500 (Central Daylight Time),326660.2000000179,165_m_m_h_a.png,O,z,982,14,1,2016.1000000238419,324644.09999999404,7133,VNB,A,13
14,test,5,1.0,1-Back,1,m,Mon Apr 28 2025 15:53:48 GMT-0500 (Central Daylight Time),328426.09999999404,124_o_f_d_a.png,O,m,718,15,1,1735.0,326691.09999999404,7133,VNB,A,14
15,test,5,0.0,1-Back,1,m,Mon Apr 28 2025 15:53:48 GMT-0500 (Central Daylight Time),330691.2000000179,109_y_m_n_a.png,O,m,1206,16,1,2229.5,328461.7000000179,7133,VNB,A,15
16,test,5,0.0,1-Back,1,m,Mon Apr 28 2025 15:53:48 GMT-0500 (Central Daylight Time),332458.2000000179,071_y_f_h_a.png,O,m,734,17,1,1756.7000000178814,330701.5,7133,VNB,A,16
17,test,5,0.0,1-Back,1,m,Mon Apr 28 2025 15:53:48 GMT-0500 (Central Daylight Time),334557.5,165_m_m_d_a.png,O,m,1063,18,1,2073.4000000059605,332484.09999999404,7133,VNB,A,17
0,prac,1,0.0,2-Back,,,Mon Apr 28 2025 15:53:48 GMT-0500 (Central Daylight Time),334557.5,139_m_f_n_a.png,O,space,8382,1,1,2073.4000000059605,332484.09999999404,7133,VNB,A,0
0,prac,1,0.0,2-Back,,,Mon Apr 28 2025 15:53:48 GMT-0500 (Central Daylight Time),334557.5,124_o_f_h_a.png,O,space,8382,2,1,2073.4000000059605,332484.09999999404,7133,VNB,A,0
1,prac,1,0.0,2-Back,1,m,Mon Apr 28 2025 15:53:48 GMT-0500 (Central Daylight Time),416597.7000000179,039_o_m_d_a.png,O,m,1100,3,1,1938.6000000238419,414659.09999999404,7133,VNB,A,1
2,prac,1,1.0,2-Back,1,z,Mon Apr 28 2025 15:53:48 GMT-0500 (Central Daylight Time),418981.2000000179,165_m_m_h_a.png,O,z,1498,4,1,2348.0,416633.2000000179,7133,VNB,A,2
3,prac,1,0.0,2-Back,1,m,Mon Apr 28 2025 15:53:48 GMT-0500 (Central Daylight Time),421129.09999999404,071_y_f_n_a.png,O,m,1278,5,1,2113.0,419016.09999999404,7133,VNB,A,3
3,prac,1,1.0,2-Back,0,z,Mon Apr 28 2025 15:53:48 GMT-0500 (Central Daylight Time),423260.90000000596,039_o_m_h_a.png,O,m,1268,6,1,2096.800000011921,421164.09999999404,7133,VNB,A,4
3,prac,1,1.0,2-Back,0,z,Mon Apr 28 2025 15:53:48 GMT-0500 (Central Daylight Time),425794.3000000119,109_y_m_n_a.png,O,m,1680,7,1,2516.4000000059605,423277.90000000596,7133,VNB,A,5
4,prac,1,0.0,2-Back,1,m,Mon Apr 28 2025 15:53:48 GMT-0500 (Central Daylight Time),428159.7000000179,139_m_f_d_a.png,O,m,1506,8,1,2336.0,425823.7000000179,7133,VNB,A,6
5,prac,1,0.0,2-Back,1,m,Mon Apr 28 2025 15:53:48 GMT-0500 (Central Daylight Time),430576.3000000119,124_o_f_d_a.png,O,m,1539,9,1,2398.7000000178814,428177.59999999404,7133,VNB,A,7
6,prac,1,0.0,2-Back,1,m,Mon Apr 28 2025 15:53:48 GMT-0500 (Central Daylight Time),432992.0,165_m_m_h_a.png,O,m,1556,10,1,2379.2999999821186,430612.7000000179,7133,VNB,A,8
7,prac,1,1.0,2-Back,1,z,Mon Apr 28 2025 15:53:48 GMT-0500 (Central Daylight Time),435524.7000000179,071_y_f_d_a.png,O,z,1681,11,1,2505.800000011921,433018.90000000596,7133,VNB,A,9
8,prac,1,0.0,2-Back,1,m,Mon Apr 28 2025 15:53:48 GMT-0500 (Central Daylight Time),437573.7000000179,039_o_m_n_a.png,O,m,1180,12,1,2011.9000000059605,435561.8000000119,7133,VNB,A,10
0,test,1,0.0,2-Back,,,Mon Apr 28 2025 15:53:48 GMT-0500 (Central Daylight Time),437573.7000000179,109_y_m_h_a.png,O,space,9202,1,1,2011.9000000059605,435561.8000000119,7133,VNB,A,0
0,test,1,0.0,2-Back,,,Mon Apr 28 2025 15:53:48 GMT-0500 (Central Daylight Time),437573.7000000179,124_o_f_n_a.png,O,space,9202,2,1,2011.9000000059605,435561.8000000119,7133,VNB,A,0
1,test,1,0.0,2-Back,1,z,Mon Apr 28 2025 15:53:48 GMT-0500 (Central Daylight Time),461733.40000000596,039_o_m_h_a.png,O,z,1064,3,1,2073.0999999940395,459660.3000000119,7133,VNB,A,1
2,test,1,0.0,2-Back,1,m,Mon Apr 28 2025 15:53:48 GMT-0500 (Central Daylight Time),464648.09999999404,139_m_f_d_a.png,O,m,1862,4,1,2882.2999999821186,461765.8000000119,7133,VNB,A,2
3,test,1,1.0,2-Back,1,m,Mon Apr 28 2025 15:53:48 GMT-0500 (Central Daylight Time),467130.7000000179,109_y_m_n_a.png,O,m,1426,5,1,2448.4000000059605,464682.3000000119,7133,VNB,A,3
4,test,1,0.0,2-Back,1,z,Mon Apr 28 2025 15:53:48 GMT-0500 (Central Daylight Time),468980.0,071_y_f_d_a.png,O,z,799,6,1,1823.2999999821186,467156.7000000179,7133,VNB,A,4
4,test,1,0.0,2-Back,0,m,Mon Apr 28 2025 15:53:48 GMT-0500 (Central Daylight Time),472046.40000000596,165_m_m_h_a.png,O,None,2015,7,1,3034.199999988079,469012.2000000179,7133,VNB,A,5
5,test,1,1.0,2-Back,1,m,Mon Apr 28 2025 15:53:48 GMT-0500 (Central Daylight Time),474544.90000000596,071_y_f_n_a.png,O,m,1452,8,1,2470.800000011921,472074.09999999404,7133,VNB,A,6
5,test,1,0.0,2-Back,0,z,Mon Apr 28 2025 15:53:48 GMT-0500 (Central Daylight Time),476660.7000000179,124_o_f_h_a.png,O,m,1056,9,1,2080.800000011921,474579.90000000596,7133,VNB,A,7
6,test,1,0.0,2-Back,1,m,Mon Apr 28 2025 15:53:48 GMT-0500 (Central Daylight Time),478660.3000000119,039_o_m_d_a.png,O,m,949,10,1,1969.0999999940395,476691.2000000179,7133,VNB,A,8
7,test,1,1.0,2-Back,1,m,Mon Apr 28 2025 15:53:48 GMT-0500 (Central Daylight Time),480726.59999999404,165_m_m_d_a.png,O,m,1005,11,1,2031.699999988079,478694.90000000596,7133,VNB,A,9
8,test,1,0.0,2-Back,1,m,Mon Apr 28 2025 15:53:48 GMT-0500 (Central Daylight Time),482825.5,139_m_f_n_a.png,O,m,1043,12,1,2063.2999999821186,480762.2000000179,7133,VNB,A,10
8,test,1,0.0,2-Back,0,m,Mon Apr 28 2025 15:53:48 GMT-0500 (Central Daylight Time),485124.8000000119,071_y_f_h_a.png,O,z,1239,13,1,2261.9000000059605,482862.90000000596,7133,VNB,A,11
8,test,1,0.0,2-Back,0,z,Mon Apr 28 2025 15:53:48 GMT-0500 (Central Daylight Time),487674.09999999404,165_m_m_n_a.png,O,m,1504,14,1,2519.0999999940395,485155.0,7133,VNB,A,12
9,test,1,0.0,2-Back,1,m,Mon Apr 28 2025 15:53:48 GMT-0500 (Central Daylight Time),489873.3000000119,109_y_m_d_a.png,O,m,1159,15,1,2170.2000000178814,487703.09999999404,7133,VNB,A,13
10,test,1,1.0,2-Back,1,m,Mon Apr 28 2025 15:53:48 GMT-0500 (Central Daylight Time),492222.5,139_m_f_h_a.png,O,m,1305,16,1,2325.0,489897.5,7133,VNB,A,14
11,test,1,0.0,2-Back,1,z,Mon Apr 28 2025 15:53:48 GMT-0500 (Central Daylight Time),494455.2000000179,124_o_f_d_a.png,O,z,1179,17,1,2197.7000000178814,492257.5,7133,VNB,A,15
12,test,1,0.0,2-Back,1,m,Mon Apr 28 2025 15:53:48 GMT-0500 (Central Daylight Time),497104.09999999404,039_o_m_n_a.png,O,m,1611,18,1,2619.399999976158,494484.7000000179,7133,VNB,A,16
0,test,2,0.0,2-Back,,,Mon Apr 28 2025 15:53:48 GMT-0500 (Central Daylight Time),497104.09999999404,165_m_m_h_a.png,O,space,2027,1,1,2619.399999976158,494484.7000000179,7133,VNB,A,0
0,test,2,0.0,2-Back,,,Mon Apr 28 2025 15:53:48 GMT-0500 (Central Daylight Time),497104.09999999404,071_y_f_n_a.png,O,space,2027,2,1,2619.399999976158,494484.7000000179,7133,VNB,A,0
1,test,2,1.0,2-Back,1,z,Mon Apr 28 2025 15:53:48 GMT-0500 (Central Daylight Time),506101.3000000119,124_o_f_h_a.png,O,z,706,3,1,1731.2000000178814,504370.09999999404,7133,VNB,A,1
2,test,2,0.0,2-Back,1,m,Mon Apr 28 2025 15:53:48 GMT-0500 (Central Daylight Time),508717.09999999404,039_o_m_d_a.png,O,m,1572,4,1,2589.0999999940395,506128.0,7133,VNB,A,2
3,test,2,0.0,2-Back,1,m,Mon Apr 28 2025 15:53:48 GMT-0500 (Central Daylight Time),511333.09999999404,139_m_f_d_a.png,O,m,1566,5,1,2592.899999976158,508740.2000000179,7133,VNB,A,3
4,test,2,0.0,2-Back,1,m,Mon Apr 28 2025 15:53:48 GMT-0500 (Central Daylight Time),513583.0,109_y_m_h_a.png,O,m,1197,6,1,2215.0999999940395,511367.90000000596,7133,VNB,A,4
5,test,2,0.0,2-Back,1,m,Mon Apr 28 2025 15:53:48 GMT-0500 (Central Daylight Time),516014.7000000179,124_o_f_n_a.png,O,m,1371,7,1,2393.100000023842,513621.59999999404,7133,VNB,A,5
6,test,2,1.0,2-Back,1,z,Mon Apr 28 2025 15:53:48 GMT-0500 (Central Daylight Time),517997.2000000179,039_o_m_h_a.png,O,z,925,8,1,1947.800000011921,516049.40000000596,7133,VNB,A,6
6,test,2,0.0,2-Back,0,m,Mon Apr 28 2025 15:53:48 GMT-0500 (Central Daylight Time),520513.3000000119,071_y_f_d_a.png,O,z,1453,9,1,2483.4000000059605,518029.90000000596,7133,VNB,A,7
7,test,2,0.0,2-Back,1,m,Mon Apr 28 2025 15:53:48 GMT-0500 (Central Daylight Time),522879.09999999404,109_y_m_d_a.png,O,m,1305,10,1,2329.899999976158,520549.2000000179,7133,VNB,A,8
8,test,2,0.0,2-Back,1,m,Mon Apr 28 2025 15:53:48 GMT-0500 (Central Daylight Time),525128.5,165_m_m_n_a.png,O,m,1195,11,1,2214.199999988079,522914.3000000119,7133,VNB,A,9
9,test,2,0.0,2-Back,1,m,Mon Apr 28 2025 15:53:48 GMT-0500 (Central Daylight Time),527427.599999994,139_m_f_h_a.png,O,m,1233,12,1,2262.5999999940395,525165.0,7133,VNB,A,10
9,test,2,1.0,2-Back,0,z,Mon Apr 28 2025 15:53:48 GMT-0500 (Central Daylight Time),530276.8000000119,039_o_m_n_a.png,O,m,1807,13,1,2822.0,527454.8000000119,7133,VNB,A,11
9,test,2,0.0,2-Back,0,m,Mon Apr 28 2025 15:53:48 GMT-0500 (Central Daylight Time),532558.3000000119,124_o_f_d_a.png,O,z,1246,14,1,2252.0999999940395,530306.2000000179,7133,VNB,A,12
10,test,2,0.0,2-Back,1,m,Mon Apr 28 2025 15:53:48 GMT-0500 (Central Daylight Time),534959.599999994,071_y_f_h_a.png,O,m,1373,15,1,2391.2999999821186,532568.3000000119,7133,VNB,A,13
10,test,2,0.0,2-Back,0,z,Mon Apr 28 2025 15:53:48 GMT-0500 (Central Daylight Time),537207.900000006,165_m_m_d_a.png,O,m,1203,16,1,2219.699999988079,534988.2000000179,7133,VNB,A,14
11,test,2,0.0,2-Back,1,m,Mon Apr 28 2025 15:53:48 GMT-0500 (Central Daylight Time),539174.0,109_y_m_n_a.png,O,m,923,17,1,1938.5,537235.5,7133,VNB,A,15
11,test,2,1.0,2-Back,0,m,Mon Apr 28 2025 15:53:48 GMT-0500 (Central Daylight Time),541439.599999994,139_m_f_n_a.png,O,z,1220,18,1,2243.699999988079,539195.900000006,7133,VNB,A,16
0,test,3,1.0,2-Back,,,Mon Apr 28 2025 15:53:48 GMT-0500 (Central Daylight Time),541439.599999994,039_o_m_n_a.png,O,space,2163,1,1,2243.699999988079,539195.900000006,7133,VNB,A,0
0,test,3,1.0,2-Back,,,Mon Apr 28 2025 15:53:48 GMT-0500 (Central Daylight Time),541439.599999994,124_o_f_d_a.png,O,space,2163,2,1,2243.699999988079,539195.900000006,7133,VNB,A,0
1,test,3,0.0,2-Back,1,m,Mon Apr 28 2025 15:53:48 GMT-0500 (Central Daylight Time),551353.0,071_y_f_h_a.png,O,m,1610,3,1,2632.4000000059605,548720.599999994,7133,VNB,A,1
2,test,3,0.0,2-Back,1,z,Mon Apr 28 2025 15:53:48 GMT-0500 (Central Daylight Time),553918.8000000119,139_m_f_d_a.png,O,z,1512,4,1,2530.0,551388.8000000119,7133,VNB,A,2
2,test,3,1.0,2-Back,0,m,Mon Apr 28 2025 15:53:48 GMT-0500 (Central Daylight Time),556968.3000000119,109_y_m_n_a.png,O,None,2014,5,1,3022.7000000178814,553945.599999994,7133,VNB,A,3
3,test,3,0.0,2-Back,1,m,Mon Apr 28 2025 15:53:48 GMT-0500 (Central Daylight Time),559867.2000000179,039_o_m_h_a.png,O,m,1833,6,1,2865.9000000059605,557001.3000000119,7133,VNB,A,4
4,test,3,0.0,2-Back,1,z,Mon Apr 28 2025 15:53:48 GMT-0500 (Central Daylight Time),561916.5,071_y_f_n_a.png,O,z,991,7,1,2013.4000000059605,559903.099999994,7133,VNB,A,5
5,test,3,1.0,2-Back,1,m,Mon Apr 28 2025 15:53:48 GMT-0500 (Central Daylight Time),564248.900000006,165_m_m_d_a.png,O,m,1277,8,1,2299.199999988079,561949.7000000179,7133,VNB,A,6
6,test,3,0.0,2-Back,1,m,Mon Apr 28 2025 15:53:48 GMT-0500 (Central Daylight Time),566414.7000000179,109_y_m_d_a.png,O,m,1130,9,1,2141.4000000059605,564273.3000000119,7133,VNB,A,7
7,test,3,0.0,2-Back,1,m,Mon Apr 28 2025 15:53:48 GMT-0500 (Central Daylight Time),568547.7000000179,124_o_f_h_a.png,O,m,1066,10,1,2098.2000000178814,566449.5,7133,VNB,A,8
7,test,3,1.0,2-Back,0,m,Mon Apr 28 2025 15:53:48 GMT-0500 (Central Daylight Time),570713.400000006,139_m_f_n_a.png,O,z,1110,11,1,2133.199999988079,568580.2000000179,7133,VNB,A,9
8,test,3,1.0,2-Back,1,z,Mon Apr 28 2025 15:53:48 GMT-0500 (Central Daylight Time),572878.8000000119,165_m_m_h_a.png,O,z,1128,12,1,2135.4000000059605,570743.400000006,7133,VNB,A,10
9,test,3,0.0,2-Back,1,m,Mon Apr 28 2025 15:53:48 GMT-0500 (Central Daylight Time),575212.3000000119,071_y_f_d_a.png,O,m,1299,13,1,2319.0999999940395,572893.2000000179,7133,VNB,A,11
9,test,3,0.0,2-Back,0,m,Mon Apr 28 2025 15:53:48 GMT-0500 (Central Daylight Time),577511.3000000119,124_o_f_n_a.png,O,z,1255,14,1,2268.800000011921,575242.5,7133,VNB,A,12
9,test,3,0.0,2-Back,0,z,Mon Apr 28 2025 15:53:48 GMT-0500 (Central Daylight Time),579693.900000006,039_o_m_d_a.png,O,m,1124,15,1,2147.199999988079,577546.7000000179,7133,VNB,A,13
9,test,3,1.0,2-Back,0,m,Mon Apr 28 2025 15:53:48 GMT-0500 (Central Daylight Time),582409.8000000119,139_m_f_h_a.png,O,z,1652,16,1,2680.300000011921,579729.5,7133,VNB,A,14
9,test,3,0.0,2-Back,0,m,Mon Apr 28 2025 15:53:48 GMT-0500 (Central Daylight Time),584592.099999994,165_m_m_n_a.png,O,z,1128,17,1,2149.0,582443.099999994,7133,VNB,A,15
9,test,3,0.0,2-Back,0,z,Mon Apr 28 2025 15:53:48 GMT-0500 (Central Daylight Time),587074.7000000179,109_y_m_h_a.png,O,m,1416,18,1,2446.800000011921,584627.900000006,7133,VNB,A,16
0,test,4,0.0,2-Back,,,Mon Apr 28 2025 15:53:48 GMT-0500 (Central Daylight Time),587074.7000000179,139_m_f_n_a.png,O,space,1592,1,1,2446.800000011921,584627.900000006,7133,VNB,A,0
0,test,4,0.0,2-Back,,,Mon Apr 28 2025 15:53:48 GMT-0500 (Central Daylight Time),587074.7000000179,039_o_m_n_a.png,O,space,1592,2,1,2446.800000011921,584627.900000006,7133,VNB,A,0
1,test,4,1.0,2-Back,1,m,Mon Apr 28 2025 15:53:48 GMT-0500 (Central Daylight Time),596071.7000000179,109_y_m_h_a.png,O,m,1204,3,1,2231.7000000178814,593840.0,7133,VNB,A,1
2,test,4,1.0,2-Back,1,m,Mon Apr 28 2025 15:53:48 GMT-0500 (Central Daylight Time),598171.400000006,124_o_f_d_a.png,O,m,1058,4,1,2072.5,596098.900000006,7133,VNB,A,2
3,test,4,0.0,2-Back,1,z,Mon Apr 28 2025 15:53:48 GMT-0500 (Central Daylight Time),600403.599999994,039_o_m_h_a.png,O,z,1183,5,1,2203.0,598200.599999994,7133,VNB,A,3
3,test,4,0.0,2-Back,0,m,Mon Apr 28 2025 15:53:48 GMT-0500 (Central Daylight Time),603102.599999994,165_m_m_n_a.png,O,z,1646,6,1,2663.2999999821186,600439.3000000119,7133,VNB,A,4
4,test,4,0.0,2-Back,1,m,Mon Apr 28 2025 15:53:48 GMT-0500 (Central Daylight Time),606069.400000006,139_m_f_d_a.png,O,m,1915,7,1,2932.0,603137.400000006,7133,VNB,A,5
5,test,4,0.0,2-Back,1,z,Mon Apr 28 2025 15:53:48 GMT-0500 (Central Daylight Time),608284.900000006,071_y_f_n_a.png,O,z,1149,8,1,2178.199999988079,606106.7000000179,7133,VNB,A,6
6,test,4,1.0,2-Back,1,m,Mon Apr 28 2025 15:53:48 GMT-0500 (Central Daylight Time),610483.5,124_o_f_h_a.png,O,m,1133,9,1,2161.7999999821186,608321.7000000179,7133,VNB,A,7
6,test,4,0.0,2-Back,0,m,Mon Apr 28 2025 15:53:48 GMT-0500 (Central Daylight Time),613416.0,165_m_m_h_a.png,O,z,1878,10,1,2896.5999999940395,610519.400000006,7133,VNB,A,8
7,test,4,0.0,2-Back,1,m,Mon Apr 28 2025 15:53:48 GMT-0500 (Central Daylight Time),616198.2000000179,071_y_f_d_a.png,O,m,1730,11,1,2746.2000000178814,613452.0,7133,VNB,A,9
8,test,4,0.0,2-Back,1,m,Mon Apr 28 2025 15:53:48 GMT-0500 (Central Daylight Time),618297.900000006,109_y_m_n_a.png,O,m,1060,12,1,2072.4000000059605,616225.5,7133,VNB,A,10
8,test,4,0.0,2-Back,0,z,Mon Apr 28 2025 15:53:48 GMT-0500 (Central Daylight Time),620797.099999994,039_o_m_d_a.png,O,m,1449,13,1,2472.0,618325.099999994,7133,VNB,A,11
9,test,4,1.0,2-Back,1,m,Mon Apr 28 2025 15:53:48 GMT-0500 (Central Daylight Time),622863.0,139_m_f_h_a.png,O,m,1006,14,1,2028.4000000059605,620834.599999994,7133,VNB,A,12
10,test,4,1.0,2-Back,1,m,Mon Apr 28 2025 15:53:48 GMT-0500 (Central Daylight Time),624995.0,071_y_f_h_a.png,O,m,1083,15,1,2104.2999999821186,622890.7000000179,7133,VNB,A,13
11,test,4,0.0,2-Back,1,m,Mon Apr 28 2025 15:53:48 GMT-0500 (Central Daylight Time),627046.5,124_o_f_n_a.png,O,m,1015,16,1,2034.2999999821186,625012.2000000179,7133,VNB,A,14
11,test,4,0.0,2-Back,0,m,Mon Apr 28 2025 15:53:48 GMT-0500 (Central Daylight Time),629393.599999994,109_y_m_d_a.png,O,z,1291,17,1,2310.199999988079,627083.400000006,7133,VNB,A,15
11,test,4,1.0,2-Back,0,m,Mon Apr 28 2025 15:53:48 GMT-0500 (Central Daylight Time),632192.400000006,165_m_m_d_a.png,O,z,1776,18,1,2785.800000011921,629406.599999994,7133,VNB,A,16
0,test,5,1.0,2-Back,,,Mon Apr 28 2025 15:53:48 GMT-0500 (Central Daylight Time),632192.400000006,071_y_f_d_a.png,O,space,1371,1,1,2785.800000011921,629406.599999994,7133,VNB,A,0
0,test,5,1.0,2-Back,,,Mon Apr 28 2025 15:53:48 GMT-0500 (Central Daylight Time),632192.400000006,124_o_f_h_a.png,O,space,1371,2,1,2785.800000011921,629406.599999994,7133,VNB,A,0
1,test,5,1.0,2-Back,1,z,Mon Apr 28 2025 15:53:48 GMT-0500 (Central Daylight Time),641190.3000000119,039_o_m_d_a.png,O,z,1405,3,1,2423.800000011921,638766.5,7133,VNB,A,1
2,test,5,1.0,2-Back,1,m,Mon Apr 28 2025 15:53:48 GMT-0500 (Central Daylight Time),643273.2000000179,139_m_f_n_a.png,O,m,1038,4,1,2054.4000000059605,641218.8000000119,7133,VNB,A,2
2,test,5,0.0,2-Back,0,m,Mon Apr 28 2025 15:53:48 GMT-0500 (Central Daylight Time),645588.8000000119,165_m_m_h_a.png,O,z,1249,5,1,2280.9000000059605,643307.900000006,7133,VNB,A,3
3,test,5,0.0,2-Back,1,z,Mon Apr 28 2025 15:53:48 GMT-0500 (Central Daylight Time),648354.599999994,071_y_f_n_a.png,O,z,1726,6,1,2734.199999988079,645620.400000006,7133,VNB,A,4
3,test,5,0.0,2-Back,0,m,Mon Apr 28 2025 15:53:48 GMT-0500 (Central Daylight Time),651403.7000000179,124_o_f_d_a.png,O,None,2014,7,1,3020.300000011921,648383.400000006,7133,VNB,A,5
4,test,5,0.0,2-Back,1,m,Mon Apr 28 2025 15:53:48 GMT-0500 (Central Daylight Time),653719.8000000119,039_o_m_h_a.png,O,m,1254,8,1,2280.0,651439.8000000119,7133,VNB,A,6
5,test,5,1.0,2-Back,1,z,Mon Apr 28 2025 15:53:48 GMT-0500 (Central Daylight Time),656018.7000000179,139_m_f_d_a.png,O,z,1233,9,1,2267.0,653751.7000000179,7133,VNB,A,7
6,test,5,0.0,2-Back,1,m,Mon Apr 28 2025 15:53:48 GMT-0500 (Central Daylight Time),658284.2000000179,109_y_m_n_a.png,O,m,1206,10,1,2229.2000000178814,656055.0,7133,VNB,A,8
6,test,5,0.0,2-Back,0,m,Mon Apr 28 2025 15:53:48 GMT-0500 (Central Daylight Time),660536.599999994,165_m_m_n_a.png,O,z,1231,11,1,2237.7999999821186,658298.8000000119,7133,VNB,A,9
7,test,5,0.0,2-Back,1,m,Mon Apr 28 2025 15:53:48 GMT-0500 (Central Daylight Time),662683.400000006,071_y_f_h_a.png,O,m,1103,12,1,2118.699999988079,660564.7000000179,7133,VNB,A,10
8,test,5,0.0,2-Back,1,m,Mon Apr 28 2025 15:53:48 GMT-0500 (Central Daylight Time),664649.2000000179,109_y_m_d_a.png,O,m,911,13,1,1929.7000000178814,662719.5,7133,VNB,A,11
8,test,5,1.0,2-Back,0,z,Mon Apr 28 2025 15:53:48 GMT-0500 (Central Daylight Time),666631.599999994,139_m_f_h_a.png,O,m,936,14,1,1955.199999988079,664676.400000006,7133,VNB,A,12
9,test,5,0.0,2-Back,1,m,Mon Apr 28 2025 15:53:48 GMT-0500 (Central Daylight Time),668631.599999994,039_o_m_n_a.png,O,m,954,15,1,1983.5,666648.099999994,7133,VNB,A,13
9,test,5,0.0,2-Back,0,m,Mon Apr 28 2025 15:53:48 GMT-0500 (Central Daylight Time),670896.900000006,165_m_m_d_a.png,O,z,1218,16,1,2235.5,668661.400000006,7133,VNB,A,14
9,test,5,0.0,2-Back,0,z,Mon Apr 28 2025 15:53:48 GMT-0500 (Central Daylight Time),673796.7000000179,124_o_f_n_a.png,O,m,1850,17,1,2876.800000011921,670919.900000006,7133,VNB,A,15
10,test,5,1.0,2-Back,1,m,Mon Apr 28 2025 15:53:48 GMT-0500 (Central Daylight Time),675847.0,109_y_m_h_a.png,O,m,1015,18,1,2021.5,673825.5,7133,VNB,A,16
