block_c,block_dur,condition,countdown,datetime,endtime,list,multichar_response,project,response,response_time,session_number,start_end,starttime,subject_id,task,task_vers,trial
,,,,Fri Feb 28 2025 16:32:38 GMT-0600 (Central Standard Time),,,,O,space,772,1,,,7073,WL,A,
prac,,0,,Fri Feb 28 2025 16:32:38 GMT-0600 (Central Standard Time),,NA,b,O,b,3871,1,,,7073,WL,A,1.0
prac,,0,,Fri Feb 28 2025 16:32:38 GMT-0600 (Central Standard Time),,NA,bo,O,o,679,1,,,7073,WL,A,1.0
prac,,0,,Fri Feb 28 2025 16:32:38 GMT-0600 (Central Standard Time),,NA,boo,O,o,165,1,,,7073,WL,A,1.0
prac,,0,,Fri Feb 28 2025 16:32:38 GMT-0600 (Central Standard Time),,NA,boos,O,s,181,1,,,7073,WL,A,1.0
prac,,0,,Fri Feb 28 2025 16:32:38 GMT-0600 (Central Standard Time),,NA,boost,O,t,198,1,,,7073,WL,A,1.0
prac,,0,,Fri Feb 28 2025 16:32:38 GMT-0600 (Central Standard Time),,NA,boostenter,O,enter,5869,1,,,7073,WL,A,1.0
1,2.365999937057495,learn,57634.000062942505,Fri Feb 28 2025 16:32:38 GMT-0600 (Central Standard Time),160551.40000000037,A,b,O,b,2348,1,2365.7000000001863,158185.7000000002,7073,WL,A,1.0
1,2.799999952316284,learn,57200.000047683716,Fri Feb 28 2025 16:32:38 GMT-0600 (Central Standard Time),160984.7000000002,A,bo,O,o,422,1,2799.0,158185.7000000002,7073,WL,A,1.0
1,2.9830000400543213,learn,57016.99995994568,Fri Feb 28 2025 16:32:38 GMT-0600 (Central Standard Time),161167.90000000037,A,boo,O,o,173,1,2982.2000000001863,158185.7000000002,7073,WL,A,1.0
1,3.200000047683716,learn,56799.999952316284,Fri Feb 28 2025 16:32:38 GMT-0600 (Central Standard Time),161384.60000000056,A,book,O,k,206,1,3198.9000000003725,158185.7000000002,7073,WL,A,1.0
1,8.330999851226807,learn,51669.00014877319,Fri Feb 28 2025 16:32:38 GMT-0600 (Central Standard Time),166515.90000000037,A,bookenter,O,enter,5125,1,8330.200000000186,158185.7000000002,7073,WL,A,1.0
1,10.730000019073486,learn,49269.999980926514,Fri Feb 28 2025 16:32:38 GMT-0600 (Central Standard Time),168915.30000000075,A,s,O,s,2378,1,2399.0,166516.30000000075,7073,WL,A,2.0
1,11.079999923706055,learn,48920.000076293945,Fri Feb 28 2025 16:32:38 GMT-0600 (Central Standard Time),169265.2000000002,A,sa,O,a,338,1,2748.899999999441,166516.30000000075,7073,WL,A,2.0
1,11.329999923706055,learn,48670.000076293945,Fri Feb 28 2025 16:32:38 GMT-0600 (Central Standard Time),169515.30000000075,A,sak,O,k,244,1,2999.0,166516.30000000075,7073,WL,A,2.0
1,12.29699993133545,learn,47703.00006866455,Fri Feb 28 2025 16:32:38 GMT-0600 (Central Standard Time),170481.5,A,sa,O,backspace,955,1,3965.199999999255,166516.30000000075,7073,WL,A,2.0
1,13.329999923706055,learn,46670.000076293945,Fri Feb 28 2025 16:32:38 GMT-0600 (Central Standard Time),171514.60000000056,A,sal,O,l,1020,1,4998.299999999814,166516.30000000075,7073,WL,A,2.0
1,13.546000003814697,learn,46453.9999961853,Fri Feb 28 2025 16:32:38 GMT-0600 (Central Standard Time),171731.40000000037,A,salt,O,t,210,1,5215.0999999996275,166516.30000000075,7073,WL,A,2.0
1,13.878999948501587,learn,46121.00005149841,Fri Feb 28 2025 16:32:38 GMT-0600 (Central Standard Time),172064.40000000037,A,saltenter,O,enter,322,1,5548.0999999996275,166516.30000000075,7073,WL,A,2.0
1,14.178999900817871,learn,45821.00009918213,Fri Feb 28 2025 16:32:38 GMT-0600 (Central Standard Time),172364.30000000075,A,f,O,f,293,1,299.5,172064.80000000075,7073,WL,A,3.0
1,14.46399998664856,learn,45536.00001335144,Fri Feb 28 2025 16:32:38 GMT-0600 (Central Standard Time),172648.90000000037,A,fi,O,i,274,1,584.0999999996275,172064.80000000075,7073,WL,A,3.0
1,14.746000051498413,learn,45253.99994850159,Fri Feb 28 2025 16:32:38 GMT-0600 (Central Standard Time),172930.90000000037,A,fin,O,n,269,1,866.0999999996275,172064.80000000075,7073,WL,A,3.0
1,15.029000043869019,learn,44970.99995613098,Fri Feb 28 2025 16:32:38 GMT-0600 (Central Standard Time),173214.10000000056,A,fing,O,g,275,1,1149.2999999998137,172064.80000000075,7073,WL,A,3.0
1,15.145999908447266,learn,44854.000091552734,Fri Feb 28 2025 16:32:38 GMT-0600 (Central Standard Time),173330.90000000037,A,finge,O,e,104,1,1266.0999999996275,172064.80000000075,7073,WL,A,3.0
1,15.378999948501587,learn,44621.00005149841,Fri Feb 28 2025 16:32:38 GMT-0600 (Central Standard Time),173564.10000000056,A,finger,O,r,219,1,1499.2999999998137,172064.80000000075,7073,WL,A,3.0
1,15.596999883651733,learn,44403.00011634827,Fri Feb 28 2025 16:32:38 GMT-0600 (Central Standard Time),173782.30000000075,A,fingerenter,O,enter,210,1,1717.5,172064.80000000075,7073,WL,A,3.0
1,16.562000036239624,learn,43437.999963760376,Fri Feb 28 2025 16:32:38 GMT-0600 (Central Standard Time),174746.90000000037,A,m,O,m,943,1,964.4000000003725,173782.5,7073,WL,A,4.0
1,16.644999980926514,learn,43355.000019073486,Fri Feb 28 2025 16:32:38 GMT-0600 (Central Standard Time),174829.90000000037,A,me,O,e,62,1,1047.4000000003725,173782.5,7073,WL,A,4.0
1,16.895999908447266,learn,43104.000091552734,Fri Feb 28 2025 16:32:38 GMT-0600 (Central Standard Time),175080.5,A,mea,O,a,231,1,1298.0,173782.5,7073,WL,A,4.0
1,17.17899990081787,learn,42821.00009918213,Fri Feb 28 2025 16:32:38 GMT-0600 (Central Standard Time),175363.5,A,mead,O,d,262,1,1581.0,173782.5,7073,WL,A,4.0
1,17.34500002861023,learn,42654.99997138977,Fri Feb 28 2025 16:32:38 GMT-0600 (Central Standard Time),175530.2000000002,A,meado,O,o,153,1,1747.7000000001863,173782.5,7073,WL,A,4.0
1,17.527999877929688,learn,42472.00012207031,Fri Feb 28 2025 16:32:38 GMT-0600 (Central Standard Time),175713.5,A,meadow,O,w,164,1,1931.0,173782.5,7073,WL,A,4.0
1,18.16100001335144,learn,41838.99998664856,Fri Feb 28 2025 16:32:38 GMT-0600 (Central Standard Time),176346.5,A,meadowenter,O,enter,612,1,2564.0,173782.5,7073,WL,A,4.0
1,22.825999975204468,learn,37174.00002479553,Fri Feb 28 2025 16:32:38 GMT-0600 (Central Standard Time),181011.7000000002,A,k,O,k,4651,1,4664.700000000186,176347.0,7073,WL,A,5.0
1,23.075999975204468,learn,36924.00002479553,Fri Feb 28 2025 16:32:38 GMT-0600 (Central Standard Time),181261.5,A,ke,O,e,242,1,4914.5,176347.0,7073,WL,A,5.0
1,23.359999895095825,learn,36640.000104904175,Fri Feb 28 2025 16:32:38 GMT-0600 (Central Standard Time),181545.0,A,key,O,y,272,1,5198.0,176347.0,7073,WL,A,5.0
1,25.108999967575073,learn,34891.00003242493,Fri Feb 28 2025 16:32:38 GMT-0600 (Central Standard Time),183294.40000000037,A,keyenter,O,enter,1732,1,6947.4000000003725,176347.0,7073,WL,A,5.0
1,39.13800001144409,learn,20861.99998855591,Fri Feb 28 2025 16:32:38 GMT-0600 (Central Standard Time),197323.40000000037,A,enter,O,enter,14024,1,14028.599999999627,183294.80000000075,7073,WL,A,6.0
1,39.520999908447266,learn,20479.000091552734,Fri Feb 28 2025 16:32:38 GMT-0600 (Central Standard Time),197706.5,A,enter,O,enter,370,1,382.69999999925494,197323.80000000075,7073,WL,A,7.0
1,41.919999837875366,learn,18080.000162124634,Fri Feb 28 2025 16:32:38 GMT-0600 (Central Standard Time),200105.90000000037,A,enter,O,enter,2387,1,2399.0,197706.90000000037,7073,WL,A,8.0
1,42.30399990081787,learn,17696.00009918213,Fri Feb 28 2025 16:32:38 GMT-0600 (Central Standard Time),200488.90000000037,A,enter,O,enter,372,1,382.59999999962747,200106.30000000075,7073,WL,A,9.0
1,42.63599991798401,learn,17364.00008201599,Fri Feb 28 2025 16:32:38 GMT-0600 (Central Standard Time),200821.80000000075,A,enter,O,enter,316,1,332.30000000074506,200489.5,7073,WL,A,10.0
1,43.23699998855591,learn,16763.00001144409,Fri Feb 28 2025 16:32:38 GMT-0600 (Central Standard Time),201422.0,A,enter,O,enter,583,1,599.7999999998137,200822.2000000002,7073,WL,A,11.0
1,43.769999980926514,learn,16230.000019073486,Fri Feb 28 2025 16:32:38 GMT-0600 (Central Standard Time),201955.2000000002,A,enter,O,enter,512,1,532.7999999998137,201422.40000000037,7073,WL,A,12.0
1,44.22000002861023,learn,15779.99997138977,Fri Feb 28 2025 16:32:38 GMT-0600 (Central Standard Time),202405.10000000056,A,enter,O,enter,435,1,449.5,201955.60000000056,7073,WL,A,13.0
1,44.668999910354614,learn,15331.000089645386,Fri Feb 28 2025 16:32:38 GMT-0600 (Central Standard Time),202854.90000000037,A,enter,O,enter,433,1,449.40000000037253,202405.5,7073,WL,A,14.0
1,45.18599987030029,learn,14814.000129699707,Fri Feb 28 2025 16:32:38 GMT-0600 (Central Standard Time),203371.60000000056,A,enter,O,enter,511,1,516.2000000001863,202855.40000000037,7073,WL,A,15.0
2,1.0290000438690186,learn,58970.99995613098,Fri Feb 28 2025 16:32:38 GMT-0600 (Central Standard Time),276110.9000000004,A,b,O,b,1023,1,1028.5,275082.4000000004,7073,WL,A,1.0
2,1.3500001430511475,learn,58649.99985694885,Fri Feb 28 2025 16:32:38 GMT-0600 (Central Standard Time),276431.60000000056,A,bo,O,o,302,1,1349.2000000001863,275082.4000000004,7073,WL,A,1.0
2,1.5329999923706055,learn,58467.000007629395,Fri Feb 28 2025 16:32:38 GMT-0600 (Central Standard Time),276615.2000000002,A,boo,O,o,166,1,1532.7999999998137,275082.4000000004,7073,WL,A,1.0
2,1.7330000400543213,learn,58266.99995994568,Fri Feb 28 2025 16:32:38 GMT-0600 (Central Standard Time),276814.80000000075,A,book,O,k,183,1,1732.4000000003725,275082.4000000004,7073,WL,A,1.0
2,2.25,learn,57750.0,Fri Feb 28 2025 16:32:38 GMT-0600 (Central Standard Time),277331.80000000075,A,bookenter,O,enter,495,1,2249.4000000003725,275082.4000000004,7073,WL,A,1.0
2,2.883000135421753,learn,57116.99986457825,Fri Feb 28 2025 16:32:38 GMT-0600 (Central Standard Time),277964.60000000056,A,f,O,f,627,1,632.5,277332.10000000056,7073,WL,A,2.0
2,3.133000135421753,learn,56866.99986457825,Fri Feb 28 2025 16:32:38 GMT-0600 (Central Standard Time),278214.7000000002,A,fl,O,l,234,1,882.5999999996275,277332.10000000056,7073,WL,A,2.0
2,3.3500001430511475,learn,56649.99985694885,Fri Feb 28 2025 16:32:38 GMT-0600 (Central Standard Time),278431.4000000004,A,flo,O,o,200,1,1099.2999999998137,277332.10000000056,7073,WL,A,2.0
2,3.4830000400543213,learn,56516.99995994568,Fri Feb 28 2025 16:32:38 GMT-0600 (Central Standard Time),278564.60000000056,A,flow,O,w,119,1,1232.5,277332.10000000056,7073,WL,A,2.0
2,3.7160000801086426,learn,56283.99991989136,Fri Feb 28 2025 16:32:38 GMT-0600 (Central Standard Time),278797.80000000075,A,flowe,O,e,218,1,1465.7000000001863,277332.10000000056,7073,WL,A,2.0
2,3.949000120162964,learn,56050.999879837036,Fri Feb 28 2025 16:32:38 GMT-0600 (Central Standard Time),279030.9000000004,A,flower,O,r,217,1,1698.7999999998137,277332.10000000056,7073,WL,A,2.0
2,4.365000009536743,learn,55634.99999046326,Fri Feb 28 2025 16:32:38 GMT-0600 (Central Standard Time),279447.30000000075,A,flowerenter,O,enter,407,1,2115.2000000001863,277332.10000000056,7073,WL,A,2.0
2,4.898999929428101,learn,55101.0000705719,Fri Feb 28 2025 16:32:38 GMT-0600 (Central Standard Time),279980.80000000075,A,r,O,r,527,1,533.2000000001863,279447.60000000056,7073,WL,A,3.0
2,5.164999961853027,learn,54835.00003814697,Fri Feb 28 2025 16:32:38 GMT-0600 (Central Standard Time),280247.30000000075,A,ru,O,u,249,1,799.7000000001863,279447.60000000056,7073,WL,A,3.0
2,5.381999969482422,learn,54618.00003051758,Fri Feb 28 2025 16:32:38 GMT-0600 (Central Standard Time),280463.9000000004,A,rug,O,g,199,1,1016.2999999998137,279447.60000000056,7073,WL,A,3.0
2,5.7820000648498535,learn,54217.99993515015,Fri Feb 28 2025 16:32:38 GMT-0600 (Central Standard Time),280863.9000000004,A,rugenter,O,enter,382,1,1416.2999999998137,279447.60000000056,7073,WL,A,3.0
2,6.215000152587891,learn,53784.99984741211,Fri Feb 28 2025 16:32:38 GMT-0600 (Central Standard Time),281297.10000000056,A,t,O,t,422,1,432.79999999981374,280864.30000000075,7073,WL,A,4.0
2,6.414999961853027,learn,53585.00003814697,Fri Feb 28 2025 16:32:38 GMT-0600 (Central Standard Time),281496.9000000004,A,tr,O,r,189,1,632.5999999996275,280864.30000000075,7073,WL,A,4.0
2,6.648000001907349,learn,53351.99999809265,Fri Feb 28 2025 16:32:38 GMT-0600 (Central Standard Time),281730.10000000056,A,tra,O,a,221,1,865.7999999998137,280864.30000000075,7073,WL,A,4.0
2,6.865000009536743,learn,53134.99999046326,Fri Feb 28 2025 16:32:38 GMT-0600 (Central Standard Time),281946.80000000075,A,trai,O,i,196,1,1082.5,280864.30000000075,7073,WL,A,4.0
2,7.13100004196167,learn,52868.99995803833,Fri Feb 28 2025 16:32:38 GMT-0600 (Central Standard Time),282213.2000000002,A,train,O,n,260,1,1348.8999999994412,280864.30000000075,7073,WL,A,4.0
2,7.54800009727478,learn,52451.99990272522,Fri Feb 28 2025 16:32:38 GMT-0600 (Central Standard Time),282630.10000000056,A,trainenter,O,enter,401,1,1765.7999999998137,280864.30000000075,7073,WL,A,4.0
2,9.980999946594238,learn,50019.00005340576,Fri Feb 28 2025 16:32:38 GMT-0600 (Central Standard Time),285062.4000000004,A,m,O,m,2424,1,2431.9000000003725,282630.5,7073,WL,A,5.0
2,10.13100004196167,learn,49868.99995803833,Fri Feb 28 2025 16:32:38 GMT-0600 (Central Standard Time),285212.30000000075,A,me,O,e,144,1,2581.800000000745,282630.5,7073,WL,A,5.0
2,10.579999923706055,learn,49420.000076293945,Fri Feb 28 2025 16:32:38 GMT-0600 (Central Standard Time),285662.2000000002,A,mea,O,a,442,1,3031.7000000001863,282630.5,7073,WL,A,5.0
2,10.914000034332275,learn,49085.999965667725,Fri Feb 28 2025 16:32:38 GMT-0600 (Central Standard Time),285995.60000000056,A,mead,O,d,328,1,3365.100000000559,282630.5,7073,WL,A,5.0
2,11.19700002670288,learn,48802.99997329712,Fri Feb 28 2025 16:32:38 GMT-0600 (Central Standard Time),286278.60000000056,A,meado,O,o,267,1,3648.100000000559,282630.5,7073,WL,A,5.0
2,11.36300015449524,learn,48636.99984550476,Fri Feb 28 2025 16:32:38 GMT-0600 (Central Standard Time),286445.4000000004,A,meadow,O,w,151,1,3814.9000000003725,282630.5,7073,WL,A,5.0
2,11.680000066757202,learn,48319.9999332428,Fri Feb 28 2025 16:32:38 GMT-0600 (Central Standard Time),286761.9000000004,A,meadowenter,O,enter,297,1,4131.4000000003725,282630.5,7073,WL,A,5.0
2,12.11300015449524,learn,47886.99984550476,Fri Feb 28 2025 16:32:38 GMT-0600 (Central Standard Time),287195.10000000056,A,h,O,h,420,1,432.79999999981374,286762.30000000075,7073,WL,A,6.0
2,12.246000051498413,learn,47753.99994850159,Fri Feb 28 2025 16:32:38 GMT-0600 (Central Standard Time),287328.30000000075,A,ha,O,a,122,1,566.0,286762.30000000075,7073,WL,A,6.0
2,12.562999963760376,learn,47437.000036239624,Fri Feb 28 2025 16:32:38 GMT-0600 (Central Standard Time),287645.10000000056,A,har,O,r,310,1,882.7999999998137,286762.30000000075,7073,WL,A,6.0
2,12.746000051498413,learn,47253.99994850159,Fri Feb 28 2025 16:32:38 GMT-0600 (Central Standard Time),287828.30000000075,A,harp,O,p,169,1,1066.0,286762.30000000075,7073,WL,A,6.0
2,13.095999956130981,learn,46904.00004386902,Fri Feb 28 2025 16:32:38 GMT-0600 (Central Standard Time),288178.2000000002,A,harpenter,O,enter,338,1,1415.8999999994412,286762.30000000075,7073,WL,A,6.0
2,14.562000036239624,learn,45437.999963760376,Fri Feb 28 2025 16:32:38 GMT-0600 (Central Standard Time),289644.30000000075,A,r,O,r,1452,1,1465.7000000001863,288178.60000000056,7073,WL,A,7.0
2,14.67900013923645,learn,45320.99986076355,Fri Feb 28 2025 16:32:38 GMT-0600 (Central Standard Time),289761.30000000075,A,ra,O,a,106,1,1582.7000000001863,288178.60000000056,7073,WL,A,7.0
2,14.796000003814697,learn,45203.9999961853,Fri Feb 28 2025 16:32:38 GMT-0600 (Central Standard Time),289877.5,A,rat,O,t,109,1,1698.8999999994412,288178.60000000056,7073,WL,A,7.0
2,14.979000091552734,learn,45020.999908447266,Fri Feb 28 2025 16:32:38 GMT-0600 (Central Standard Time),290060.9000000004,A,ratt,O,t,169,1,1882.2999999998137,288178.60000000056,7073,WL,A,7.0
2,15.411999940872192,learn,44588.00005912781,Fri Feb 28 2025 16:32:38 GMT-0600 (Central Standard Time),290494.2000000002,A,rattl,O,l,425,1,2315.5999999996275,288178.60000000056,7073,WL,A,7.0
2,15.611999988555908,learn,44388.00001144409,Fri Feb 28 2025 16:32:38 GMT-0600 (Central Standard Time),290694.2000000002,A,rattle,O,e,184,1,2515.5999999996275,288178.60000000056,7073,WL,A,7.0
2,16.045000076293945,learn,43954.999923706055,Fri Feb 28 2025 16:32:38 GMT-0600 (Central Standard Time),291127.30000000075,A,rattleenter,O,enter,424,1,2948.7000000001863,288178.60000000056,7073,WL,A,7.0
2,17.161999940872192,learn,42838.00005912781,Fri Feb 28 2025 16:32:38 GMT-0600 (Central Standard Time),292243.7000000002,A,s,O,s,1111,1,1116.0999999996275,291127.60000000056,7073,WL,A,8.0
2,17.462000131607056,learn,42537.999868392944,Fri Feb 28 2025 16:32:38 GMT-0600 (Central Standard Time),292543.5,A,sa,O,a,283,1,1415.8999999994412,291127.60000000056,7073,WL,A,8.0
2,17.628000020980835,learn,42371.999979019165,Fri Feb 28 2025 16:32:38 GMT-0600 (Central Standard Time),292710.0,A,sal,O,l,158,1,1582.3999999994412,291127.60000000056,7073,WL,A,8.0
2,17.84500002861023,learn,42154.99997138977,Fri Feb 28 2025 16:32:38 GMT-0600 (Central Standard Time),292926.7000000002,A,salt,O,t,200,1,1799.0999999996275,291127.60000000056,7073,WL,A,8.0
2,18.16100001335144,learn,41838.99998664856,Fri Feb 28 2025 16:32:38 GMT-0600 (Central Standard Time),293243.4000000004,A,saltenter,O,enter,311,1,2115.7999999998137,291127.60000000056,7073,WL,A,8.0
2,18.49500012397766,learn,41504.99987602234,Fri Feb 28 2025 16:32:38 GMT-0600 (Central Standard Time),293576.5,A,f,O,f,315,1,332.79999999981374,293243.7000000002,7073,WL,A,9.0
2,18.74399995803833,learn,41256.00004196167,Fri Feb 28 2025 16:32:38 GMT-0600 (Central Standard Time),293826.4000000004,A,fi,O,i,230,1,582.7000000001863,293243.7000000002,7073,WL,A,9.0
2,19.01099991798401,learn,40989.00008201599,Fri Feb 28 2025 16:32:38 GMT-0600 (Central Standard Time),294092.7000000002,A,fin,O,n,260,1,849.0,293243.7000000002,7073,WL,A,9.0
2,19.26099991798401,learn,40739.00008201599,Fri Feb 28 2025 16:32:38 GMT-0600 (Central Standard Time),294342.9000000004,A,fing,O,g,241,1,1099.2000000001863,293243.7000000002,7073,WL,A,9.0
2,19.41100001335144,learn,40588.99998664856,Fri Feb 28 2025 16:32:38 GMT-0600 (Central Standard Time),294492.7000000002,A,finge,O,e,136,1,1249.0,293243.7000000002,7073,WL,A,9.0
2,19.544000148773193,learn,40455.99985122681,Fri Feb 28 2025 16:32:38 GMT-0600 (Central Standard Time),294626.30000000075,A,finger,O,r,121,1,1382.6000000005588,293243.7000000002,7073,WL,A,9.0
2,20.044000148773193,learn,39955.99985122681,Fri Feb 28 2025 16:32:38 GMT-0600 (Central Standard Time),295126.10000000056,A,fingerenter,O,enter,484,1,1882.4000000003725,293243.7000000002,7073,WL,A,9.0
2,20.49399995803833,learn,39506.00004196167,Fri Feb 28 2025 16:32:38 GMT-0600 (Central Standard Time),295575.9000000004,A,c,O,c,440,1,449.29999999981374,295126.60000000056,7073,WL,A,10.0
2,20.844000101089478,learn,39155.99989891052,Fri Feb 28 2025 16:32:38 GMT-0600 (Central Standard Time),295925.80000000075,A,ch,O,h,343,1,799.2000000001863,295126.60000000056,7073,WL,A,10.0
2,21.094000101089478,learn,38905.99989891052,Fri Feb 28 2025 16:32:38 GMT-0600 (Central Standard Time),296175.5,A,chi,O,i,233,1,1048.8999999994412,295126.60000000056,7073,WL,A,10.0
2,21.627000093460083,learn,38372.99990653992,Fri Feb 28 2025 16:32:38 GMT-0600 (Central Standard Time),296708.9000000004,A,chim,O,m,519,1,1582.2999999998137,295126.60000000056,7073,WL,A,10.0
2,21.842999935150146,learn,38157.00006484985,Fri Feb 28 2025 16:32:38 GMT-0600 (Central Standard Time),296925.4000000004,A,chimn,O,n,209,1,1798.7999999998137,295126.60000000056,7073,WL,A,10.0
2,22.125999927520752,learn,37874.00007247925,Fri Feb 28 2025 16:32:38 GMT-0600 (Central Standard Time),297208.7000000002,A,chimne,O,e,265,1,2082.0999999996275,295126.60000000056,7073,WL,A,10.0
2,23.292999982833862,learn,36707.00001716614,Fri Feb 28 2025 16:32:38 GMT-0600 (Central Standard Time),298374.9000000004,A,chimney,O,y,1157,1,3248.2999999998137,295126.60000000056,7073,WL,A,10.0
2,24.70300006866455,learn,35296.99993133545,Fri Feb 28 2025 16:32:38 GMT-0600 (Central Standard Time),299785.60000000056,A,chimneyenter,O,enter,1405,1,4659.0,295126.60000000056,7073,WL,A,10.0
2,27.44099998474121,learn,32559.00001525879,Fri Feb 28 2025 16:32:38 GMT-0600 (Central Standard Time),302523.7000000002,A,t,O,t,2725,1,2737.7999999998137,299785.9000000004,7073,WL,A,11.0
2,27.625,learn,32375.0,Fri Feb 28 2025 16:32:38 GMT-0600 (Central Standard Time),302706.9000000004,A,tr,O,r,162,1,2921.0,299785.9000000004,7073,WL,A,11.0
2,27.725000143051147,learn,32274.999856948853,Fri Feb 28 2025 16:32:38 GMT-0600 (Central Standard Time),302807.0,A,tra,O,a,84,1,3021.0999999996275,299785.9000000004,7073,WL,A,11.0
2,28.058000087738037,learn,31941.999912261963,Fri Feb 28 2025 16:32:38 GMT-0600 (Central Standard Time),303140.0,A,trai,O,i,327,1,3354.0999999996275,299785.9000000004,7073,WL,A,11.0
2,28.341000080108643,learn,31658.999919891357,Fri Feb 28 2025 16:32:38 GMT-0600 (Central Standard Time),303423.4000000004,A,train,O,n,275,1,3637.5,299785.9000000004,7073,WL,A,11.0
2,31.373000144958496,learn,28626.999855041504,Fri Feb 28 2025 16:32:38 GMT-0600 (Central Standard Time),306455.80000000075,A,trainenter,O,enter,3023,1,6669.9000000003725,299785.9000000004,7073,WL,A,11.0
2,31.873000144958496,learn,28126.999855041504,Fri Feb 28 2025 16:32:38 GMT-0600 (Central Standard Time),306955.60000000056,A,g,O,g,479,1,499.5,306456.10000000056,7073,WL,A,12.0
2,32.07299995422363,learn,27927.000045776367,Fri Feb 28 2025 16:32:38 GMT-0600 (Central Standard Time),307155.30000000075,A,go,O,o,178,1,699.2000000001863,306456.10000000056,7073,WL,A,12.0
2,32.27300000190735,learn,27726.99999809265,Fri Feb 28 2025 16:32:38 GMT-0600 (Central Standard Time),307355.7000000002,A,gol,O,l,187,1,899.5999999996275,306456.10000000056,7073,WL,A,12.0
2,32.50699996948242,learn,27493.000030517578,Fri Feb 28 2025 16:32:38 GMT-0600 (Central Standard Time),307588.9000000004,A,gold,O,d,226,1,1132.7999999998137,306456.10000000056,7073,WL,A,12.0
2,33.32299995422363,learn,26677.000045776367,Fri Feb 28 2025 16:32:38 GMT-0600 (Central Standard Time),308405.30000000075,A,goldk,O,k,809,1,1949.2000000001863,306456.10000000056,7073,WL,A,12.0
2,33.473000049591064,learn,26526.999950408936,Fri Feb 28 2025 16:32:38 GMT-0600 (Central Standard Time),308555.2000000002,A,goldke,O,e,145,1,2099.0999999996275,306456.10000000056,7073,WL,A,12.0
2,33.640000104904175,learn,26359.999895095825,Fri Feb 28 2025 16:32:38 GMT-0600 (Central Standard Time),308722.2000000002,A,goldkey,O,y,155,1,2266.0999999996275,306456.10000000056,7073,WL,A,12.0
2,35.08899998664856,learn,24911.00001335144,Fri Feb 28 2025 16:32:38 GMT-0600 (Central Standard Time),310171.5,A,goldke,O,backspace,1436,1,3715.399999999441,306456.10000000056,7073,WL,A,12.0
2,35.289000034332275,learn,24710.999965667725,Fri Feb 28 2025 16:32:38 GMT-0600 (Central Standard Time),310371.2000000002,A,goldk,O,backspace,179,1,3915.0999999996275,306456.10000000056,7073,WL,A,12.0
2,35.6560001373291,learn,24343.9998626709,Fri Feb 28 2025 16:32:38 GMT-0600 (Central Standard Time),310738.0,A,gold,O,backspace,347,1,4281.899999999441,306456.10000000056,7073,WL,A,12.0
2,36.8050000667572,learn,23194.999933242798,Fri Feb 28 2025 16:32:38 GMT-0600 (Central Standard Time),311887.2000000002,A,goldenter,O,enter,1132,1,5431.0999999996275,306456.10000000056,7073,WL,A,12.0
2,37.40499997138977,learn,22595.00002861023,Fri Feb 28 2025 16:32:38 GMT-0600 (Central Standard Time),312487.2000000002,A,k,O,k,583,1,599.5999999996275,311887.60000000056,7073,WL,A,13.0
2,37.605000019073486,learn,22394.999980926514,Fri Feb 28 2025 16:32:38 GMT-0600 (Central Standard Time),312687.10000000056,A,ke,O,e,191,1,799.5,311887.60000000056,7073,WL,A,13.0
2,37.855000019073486,learn,22144.999980926514,Fri Feb 28 2025 16:32:38 GMT-0600 (Central Standard Time),312937.0,A,key,O,y,239,1,1049.3999999994412,311887.60000000056,7073,WL,A,13.0
2,38.82100009918213,learn,21178.99990081787,Fri Feb 28 2025 16:32:38 GMT-0600 (Central Standard Time),313903.4000000004,A,keyenter,O,enter,957,1,2015.7999999998137,311887.60000000056,7073,WL,A,13.0
2,43.736000061035156,learn,16263.999938964844,Fri Feb 28 2025 16:32:38 GMT-0600 (Central Standard Time),318818.5,A,enter,O,enter,4903,1,4914.899999999441,313903.60000000056,7073,WL,A,14.0
2,44.019999980926514,learn,15980.000019073486,Fri Feb 28 2025 16:32:38 GMT-0600 (Central Standard Time),319101.9000000004,A,enter,O,enter,275,1,282.90000000037253,318819.0,7073,WL,A,15.0
3,1.1329998970031738,learn,58867.000102996826,Fri Feb 28 2025 16:32:38 GMT-0600 (Central Standard Time),389363.30000000075,A,b,O,b,1113,1,1133.0,388230.30000000075,7073,WL,A,1.0
3,1.5499999523162842,learn,58450.000047683716,Fri Feb 28 2025 16:32:38 GMT-0600 (Central Standard Time),389780.0,A,bo,O,o,402,1,1549.699999999255,388230.30000000075,7073,WL,A,1.0
3,1.7330000400543213,learn,58266.99995994568,Fri Feb 28 2025 16:32:38 GMT-0600 (Central Standard Time),389963.0,A,boo,O,o,168,1,1732.699999999255,388230.30000000075,7073,WL,A,1.0
3,1.9500000476837158,learn,58049.999952316284,Fri Feb 28 2025 16:32:38 GMT-0600 (Central Standard Time),390179.80000000075,A,book,O,k,196,1,1949.5,388230.30000000075,7073,WL,A,1.0
3,2.382999897003174,learn,57617.000102996826,Fri Feb 28 2025 16:32:38 GMT-0600 (Central Standard Time),390612.9000000004,A,bookenter,O,enter,427,1,2382.5999999996275,388230.30000000075,7073,WL,A,1.0
3,3.0160000324249268,learn,56983.99996757507,Fri Feb 28 2025 16:32:38 GMT-0600 (Central Standard Time),391246.0,A,f,O,f,625,1,632.7999999998137,390613.2000000002,7073,WL,A,2.0
3,3.2160000801086426,learn,56783.99991989136,Fri Feb 28 2025 16:32:38 GMT-0600 (Central Standard Time),391446.0,A,fl,O,l,185,1,832.7999999998137,390613.2000000002,7073,WL,A,2.0
3,3.4159998893737793,learn,56584.00011062622,Fri Feb 28 2025 16:32:38 GMT-0600 (Central Standard Time),391645.9000000004,A,flo,O,o,192,1,1032.7000000001863,390613.2000000002,7073,WL,A,2.0
3,4.165999889373779,learn,55834.00011062622,Fri Feb 28 2025 16:32:38 GMT-0600 (Central Standard Time),392395.7000000002,A,flow,O,w,728,1,1782.5,390613.2000000002,7073,WL,A,2.0
3,4.431999921798706,learn,55568.000078201294,Fri Feb 28 2025 16:32:38 GMT-0600 (Central Standard Time),392662.10000000056,A,flowe,O,e,258,1,2048.9000000003725,390613.2000000002,7073,WL,A,2.0
3,4.665999889373779,learn,55334.00011062622,Fri Feb 28 2025 16:32:38 GMT-0600 (Central Standard Time),392895.5,A,flower,O,r,216,1,2282.2999999998137,390613.2000000002,7073,WL,A,2.0
3,5.0320000648498535,learn,54967.99993515015,Fri Feb 28 2025 16:32:38 GMT-0600 (Central Standard Time),393262.10000000056,A,flowerenter,O,enter,359,1,2648.9000000003725,390613.2000000002,7073,WL,A,2.0
3,5.578000068664551,learn,54421.99993133545,Fri Feb 28 2025 16:32:38 GMT-0600 (Central Standard Time),393808.10000000056,A,t,O,t,541,1,545.7000000001863,393262.4000000004,7073,WL,A,3.0
3,5.764999866485596,learn,54235.000133514404,Fri Feb 28 2025 16:32:38 GMT-0600 (Central Standard Time),393995.0,A,tr,O,r,181,1,732.5999999996275,393262.4000000004,7073,WL,A,3.0
3,5.980999946594238,learn,54019.00005340576,Fri Feb 28 2025 16:32:38 GMT-0600 (Central Standard Time),394211.10000000056,A,tra,O,a,211,1,948.7000000001863,393262.4000000004,7073,WL,A,3.0
3,6.2149999141693115,learn,53785.00008583069,Fri Feb 28 2025 16:32:38 GMT-0600 (Central Standard Time),394445.0,A,trai,O,i,219,1,1182.5999999996275,393262.4000000004,7073,WL,A,3.0
3,6.514999866485596,learn,53485.000133514404,Fri Feb 28 2025 16:32:38 GMT-0600 (Central Standard Time),394744.80000000075,A,train,O,n,281,1,1482.4000000003725,393262.4000000004,7073,WL,A,3.0
3,7.047999858856201,learn,52952.0001411438,Fri Feb 28 2025 16:32:38 GMT-0600 (Central Standard Time),395278.10000000056,A,trainenter,O,enter,518,1,2015.7000000001863,393262.4000000004,7073,WL,A,3.0
3,7.447999954223633,learn,52552.00004577637,Fri Feb 28 2025 16:32:38 GMT-0600 (Central Standard Time),395677.9000000004,A,r,O,r,392,1,399.40000000037253,395278.5,7073,WL,A,4.0
3,7.7149999141693115,learn,52285.00008583069,Fri Feb 28 2025 16:32:38 GMT-0600 (Central Standard Time),395944.4000000004,A,ru,O,u,248,1,665.9000000003725,395278.5,7073,WL,A,4.0
3,7.9649999141693115,learn,52035.00008583069,Fri Feb 28 2025 16:32:38 GMT-0600 (Central Standard Time),396194.4000000004,A,rug,O,g,238,1,915.9000000003725,395278.5,7073,WL,A,4.0
3,8.430999994277954,learn,51569.000005722046,Fri Feb 28 2025 16:32:38 GMT-0600 (Central Standard Time),396660.7000000002,A,rugenter,O,enter,460,1,1382.2000000001863,395278.5,7073,WL,A,4.0
3,8.930999994277954,learn,51069.000005722046,Fri Feb 28 2025 16:32:38 GMT-0600 (Central Standard Time),397160.5,A,s,O,s,482,1,499.59999999962747,396660.9000000004,7073,WL,A,5.0
3,9.496999979019165,learn,50503.000020980835,Fri Feb 28 2025 16:32:38 GMT-0600 (Central Standard Time),397727.10000000056,A,sa,O,a,557,1,1066.2000000001863,396660.9000000004,7073,WL,A,5.0
3,9.664000034332275,learn,50335.999965667725,Fri Feb 28 2025 16:32:38 GMT-0600 (Central Standard Time),397893.9000000004,A,sal,O,l,151,1,1233.0,396660.9000000004,7073,WL,A,5.0
3,9.996999979019165,learn,50003.000020980835,Fri Feb 28 2025 16:32:38 GMT-0600 (Central Standard Time),398227.10000000056,A,salt,O,t,320,1,1566.2000000001863,396660.9000000004,7073,WL,A,5.0
3,10.46399998664856,learn,49536.00001335144,Fri Feb 28 2025 16:32:38 GMT-0600 (Central Standard Time),398693.60000000056,A,saltenter,O,enter,460,1,2032.7000000001863,396660.9000000004,7073,WL,A,5.0
3,10.77999997138977,learn,49220.00002861023,Fri Feb 28 2025 16:32:38 GMT-0600 (Central Standard Time),399010.10000000056,A,f,O,f,296,1,316.1000000005588,398694.0,7073,WL,A,6.0
3,10.980999946594238,learn,49019.00005340576,Fri Feb 28 2025 16:32:38 GMT-0600 (Central Standard Time),399210.30000000075,A,fi,O,i,188,1,516.3000000007451,398694.0,7073,WL,A,6.0
3,11.29699993133545,learn,48703.00006866455,Fri Feb 28 2025 16:32:38 GMT-0600 (Central Standard Time),399526.80000000075,A,fin,O,n,300,1,832.8000000007451,398694.0,7073,WL,A,6.0
3,11.596999883651733,learn,48403.00011634827,Fri Feb 28 2025 16:32:38 GMT-0600 (Central Standard Time),399826.9000000004,A,fing,O,g,280,1,1132.9000000003725,398694.0,7073,WL,A,6.0
3,11.746999979019165,learn,48253.000020980835,Fri Feb 28 2025 16:32:38 GMT-0600 (Central Standard Time),399976.4000000004,A,finge,O,e,130,1,1282.4000000003725,398694.0,7073,WL,A,6.0
3,11.930000066757202,learn,48069.9999332428,Fri Feb 28 2025 16:32:38 GMT-0600 (Central Standard Time),400159.7000000002,A,finger,O,r,166,1,1465.7000000001863,398694.0,7073,WL,A,6.0
3,12.496999979019165,learn,47503.000020980835,Fri Feb 28 2025 16:32:38 GMT-0600 (Central Standard Time),400726.4000000004,A,fingerenter,O,enter,551,1,2032.4000000003725,398694.0,7073,WL,A,6.0
3,12.845999956130981,learn,47154.00004386902,Fri Feb 28 2025 16:32:38 GMT-0600 (Central Standard Time),401075.9000000004,A,r,O,r,344,1,349.20000000018626,400726.7000000002,7073,WL,A,7.0
3,13.096999883651733,learn,46903.00011634827,Fri Feb 28 2025 16:32:38 GMT-0600 (Central Standard Time),401326.2000000002,A,ru,O,u,243,1,599.5,400726.7000000002,7073,WL,A,7.0
3,13.329999923706055,learn,46670.000076293945,Fri Feb 28 2025 16:32:38 GMT-0600 (Central Standard Time),401559.30000000075,A,rug,O,g,224,1,832.6000000005588,400726.7000000002,7073,WL,A,7.0
3,13.69599986076355,learn,46304.00013923645,Fri Feb 28 2025 16:32:38 GMT-0600 (Central Standard Time),401925.9000000004,A,rugenter,O,enter,359,1,1199.2000000001863,400726.7000000002,7073,WL,A,7.0
3,14.11299991607666,learn,45887.00008392334,Fri Feb 28 2025 16:32:38 GMT-0600 (Central Standard Time),402342.4000000004,A,c,O,c,400,1,416.09999999962747,401926.30000000075,7073,WL,A,8.0
3,14.312999963760376,learn,45687.000036239624,Fri Feb 28 2025 16:32:38 GMT-0600 (Central Standard Time),402542.5,A,ch,O,h,192,1,616.1999999992549,401926.30000000075,7073,WL,A,8.0
3,14.562999963760376,learn,45437.000036239624,Fri Feb 28 2025 16:32:38 GMT-0600 (Central Standard Time),402792.30000000075,A,chi,O,i,240,1,866.0,401926.30000000075,7073,WL,A,8.0
3,14.845999956130981,learn,45154.00004386902,Fri Feb 28 2025 16:32:38 GMT-0600 (Central Standard Time),403075.5,A,chim,O,m,270,1,1149.199999999255,401926.30000000075,7073,WL,A,8.0
3,15.078999996185303,learn,44921.0000038147,Fri Feb 28 2025 16:32:38 GMT-0600 (Central Standard Time),403308.7000000002,A,chimn,O,n,227,1,1382.3999999994412,401926.30000000075,7073,WL,A,8.0
3,15.26199984550476,learn,44738.00015449524,Fri Feb 28 2025 16:32:38 GMT-0600 (Central Standard Time),403491.9000000004,A,chimne,O,e,178,1,1565.5999999996275,401926.30000000075,7073,WL,A,8.0
3,15.428999900817871,learn,44571.00009918213,Fri Feb 28 2025 16:32:38 GMT-0600 (Central Standard Time),403658.7000000002,A,chimney,O,y,155,1,1732.3999999994412,401926.30000000075,7073,WL,A,8.0
3,16.045000076293945,learn,43954.999923706055,Fri Feb 28 2025 16:32:38 GMT-0600 (Central Standard Time),404275.2000000002,A,chimneyenter,O,enter,596,1,2348.899999999441,401926.30000000075,7073,WL,A,8.0
3,16.777999877929688,learn,43222.00012207031,Fri Feb 28 2025 16:32:38 GMT-0600 (Central Standard Time),405008.30000000075,A,l,O,l,715,1,732.8000000007451,404275.5,7073,WL,A,9.0
3,17.01199984550476,learn,42988.00015449524,Fri Feb 28 2025 16:32:38 GMT-0600 (Central Standard Time),405241.60000000056,A,lo,O,o,214,1,966.1000000005588,404275.5,7073,WL,A,9.0
3,17.244999885559082,learn,42755.00011444092,Fri Feb 28 2025 16:32:38 GMT-0600 (Central Standard Time),405474.9000000004,A,log,O,g,213,1,1199.4000000003725,404275.5,7073,WL,A,9.0
3,17.727999925613403,learn,42272.0000743866,Fri Feb 28 2025 16:32:38 GMT-0600 (Central Standard Time),405958.2000000002,A,logenter,O,enter,467,1,1682.7000000001863,404275.5,7073,WL,A,9.0
3,18.09500002861023,learn,41904.99997138977,Fri Feb 28 2025 16:32:38 GMT-0600 (Central Standard Time),406324.4000000004,A,a,O,a,360,1,365.90000000037253,405958.5,7073,WL,A,10.0
3,18.26199984550476,learn,41738.00015449524,Fri Feb 28 2025 16:32:38 GMT-0600 (Central Standard Time),406491.5,A,ap,O,p,154,1,533.0,405958.5,7073,WL,A,10.0
3,18.44599986076355,learn,41554.00013923645,Fri Feb 28 2025 16:32:38 GMT-0600 (Central Standard Time),406675.7000000002,A,app,O,p,163,1,717.2000000001863,405958.5,7073,WL,A,10.0
3,18.67799997329712,learn,41322.00002670288,Fri Feb 28 2025 16:32:38 GMT-0600 (Central Standard Time),406907.7000000002,A,appl,O,l,219,1,949.2000000001863,405958.5,7073,WL,A,10.0
3,18.878000020980835,learn,41121.999979019165,Fri Feb 28 2025 16:32:38 GMT-0600 (Central Standard Time),407107.60000000056,A,apple,O,e,187,1,1149.1000000005588,405958.5,7073,WL,A,10.0
3,19.310999870300293,learn,40689.00012969971,Fri Feb 28 2025 16:32:38 GMT-0600 (Central Standard Time),407541.0,A,appleenter,O,enter,427,1,1582.5,405958.5,7073,WL,A,10.0
3,19.793999910354614,learn,40206.000089645386,Fri Feb 28 2025 16:32:38 GMT-0600 (Central Standard Time),408024.2000000002,A,r,O,r,465,1,482.8999999994412,407541.30000000075,7073,WL,A,11.0
3,19.944000005722046,learn,40055.999994277954,Fri Feb 28 2025 16:32:38 GMT-0600 (Central Standard Time),408174.10000000056,A,ra,O,a,142,1,632.7999999998137,407541.30000000075,7073,WL,A,11.0
3,20.07699990272522,learn,39923.00009727478,Fri Feb 28 2025 16:32:38 GMT-0600 (Central Standard Time),408307.10000000056,A,rat,O,t,112,1,765.7999999998137,407541.30000000075,7073,WL,A,11.0
3,20.26099991798401,learn,39739.00008201599,Fri Feb 28 2025 16:32:38 GMT-0600 (Central Standard Time),408490.7000000002,A,ratt,O,t,163,1,949.3999999994412,407541.30000000075,7073,WL,A,11.0
3,20.677000045776367,learn,39322.99995422363,Fri Feb 28 2025 16:32:38 GMT-0600 (Central Standard Time),408907.2000000002,A,rattl,O,l,404,1,1365.8999999994412,407541.30000000075,7073,WL,A,11.0
3,20.82699990272522,learn,39173.00009727478,Fri Feb 28 2025 16:32:38 GMT-0600 (Central Standard Time),409057.10000000056,A,rattle,O,e,139,1,1515.7999999998137,407541.30000000075,7073,WL,A,11.0
3,21.89400005340576,learn,38105.99994659424,Fri Feb 28 2025 16:32:38 GMT-0600 (Central Standard Time),410123.7000000002,A,rattleenter,O,enter,1045,1,2582.399999999441,407541.30000000075,7073,WL,A,11.0
3,23.14299988746643,learn,36857.00011253357,Fri Feb 28 2025 16:32:38 GMT-0600 (Central Standard Time),411373.0,A,k,O,k,1234,1,1248.8999999994412,410124.10000000056,7073,WL,A,12.0
3,23.342999935150146,learn,36657.00006484985,Fri Feb 28 2025 16:32:38 GMT-0600 (Central Standard Time),411572.9000000004,A,ke,O,e,185,1,1448.7999999998137,410124.10000000056,7073,WL,A,12.0
3,23.509999990463257,learn,36490.00000953674,Fri Feb 28 2025 16:32:38 GMT-0600 (Central Standard Time),411739.5,A,key,O,y,161,1,1615.3999999994412,410124.10000000056,7073,WL,A,12.0
3,24.026000022888184,learn,35973.99997711182,Fri Feb 28 2025 16:32:38 GMT-0600 (Central Standard Time),412256.10000000056,A,keyenter,O,enter,499,1,2132.0,410124.10000000056,7073,WL,A,12.0
3,24.608999967575073,learn,35391.00003242493,Fri Feb 28 2025 16:32:38 GMT-0600 (Central Standard Time),412839.10000000056,A,g,O,g,566,1,582.7000000001863,412256.4000000004,7073,WL,A,13.0
3,24.80900001525879,learn,35190.99998474121,Fri Feb 28 2025 16:32:38 GMT-0600 (Central Standard Time),413039.10000000056,A,go,O,o,183,1,782.7000000001863,412256.4000000004,7073,WL,A,13.0
3,25.05900001525879,learn,34940.99998474121,Fri Feb 28 2025 16:32:38 GMT-0600 (Central Standard Time),413289.0,A,gol,O,l,231,1,1032.5999999996275,412256.4000000004,7073,WL,A,13.0
3,25.241999864578247,learn,34758.00013542175,Fri Feb 28 2025 16:32:38 GMT-0600 (Central Standard Time),413472.30000000075,A,gold,O,d,173,1,1215.9000000003725,412256.4000000004,7073,WL,A,13.0
3,25.759000062942505,learn,34240.999937057495,Fri Feb 28 2025 16:32:38 GMT-0600 (Central Standard Time),413988.7000000002,A,goldenter,O,enter,510,1,1732.2999999998137,412256.4000000004,7073,WL,A,13.0
3,26.526000022888184,learn,33473.99997711182,Fri Feb 28 2025 16:32:38 GMT-0600 (Central Standard Time),414755.30000000075,A,b,O,b,746,1,766.2000000001863,413989.10000000056,7073,WL,A,14.0
3,26.774999856948853,learn,33225.00014305115,Fri Feb 28 2025 16:32:38 GMT-0600 (Central Standard Time),415004.9000000004,A,bu,O,u,243,1,1015.7999999998137,413989.10000000056,7073,WL,A,14.0
3,26.97499990463257,learn,33025.00009536743,Fri Feb 28 2025 16:32:38 GMT-0600 (Central Standard Time),415205.2000000002,A,but,O,t,185,1,1216.0999999996275,413989.10000000056,7073,WL,A,14.0
3,27.174999952316284,learn,32825.000047683716,Fri Feb 28 2025 16:32:38 GMT-0600 (Central Standard Time),415405.10000000056,A,butt,O,t,185,1,1416.0,413989.10000000056,7073,WL,A,14.0
3,27.40999984741211,learn,32590.00015258789,Fri Feb 28 2025 16:32:38 GMT-0600 (Central Standard Time),415639.5,A,butto,O,o,225,1,1650.3999999994412,413989.10000000056,7073,WL,A,14.0
3,27.741999864578247,learn,32258.000135421753,Fri Feb 28 2025 16:32:38 GMT-0600 (Central Standard Time),415971.4000000004,A,button,O,n,311,1,1982.2999999998137,413989.10000000056,7073,WL,A,14.0
3,28.374000072479248,learn,31625.999927520752,Fri Feb 28 2025 16:32:38 GMT-0600 (Central Standard Time),416604.4000000004,A,buttonenter,O,enter,627,1,2615.2999999998137,413989.10000000056,7073,WL,A,14.0
3,30.874000072479248,learn,29125.999927520752,Fri Feb 28 2025 16:32:38 GMT-0600 (Central Standard Time),419104.0,A,enter,O,enter,2490,1,2499.399999999441,416604.60000000056,7073,WL,A,15.0
4,5.518999814987183,learn,54481.00018501282,Fri Feb 28 2025 16:32:38 GMT-0600 (Central Standard Time),493630.80000000075,A,r,O,r,5502,1,5518.9000000003725,488111.9000000004,7073,WL,A,1.0
4,5.751999855041504,learn,54248.000144958496,Fri Feb 28 2025 16:32:38 GMT-0600 (Central Standard Time),493863.7000000002,A,ru,O,u,223,1,5751.799999999814,488111.9000000004,7073,WL,A,1.0
4,6.03600001335144,learn,53963.99998664856,Fri Feb 28 2025 16:32:38 GMT-0600 (Central Standard Time),494147.30000000075,A,rug,O,g,270,1,6035.4000000003725,488111.9000000004,7073,WL,A,1.0
4,6.6519999504089355,learn,53348.000049591064,Fri Feb 28 2025 16:32:38 GMT-0600 (Central Standard Time),494763.5,A,rugenter,O,enter,603,1,6651.5999999996275,488111.9000000004,7073,WL,A,1.0
4,9.301999807357788,learn,50698.00019264221,Fri Feb 28 2025 16:32:38 GMT-0600 (Central Standard Time),497412.9000000004,A,m,O,m,2643,1,2649.0,494763.9000000004,7073,WL,A,2.0
4,9.51799988746643,learn,50482.00011253357,Fri Feb 28 2025 16:32:38 GMT-0600 (Central Standard Time),497629.5,A,me,O,e,201,1,2865.5999999996275,494763.9000000004,7073,WL,A,2.0
4,9.817999839782715,learn,50182.000160217285,Fri Feb 28 2025 16:32:38 GMT-0600 (Central Standard Time),497929.30000000075,A,mea,O,a,281,1,3165.4000000003725,494763.9000000004,7073,WL,A,2.0
4,10.151000022888184,learn,49848.99997711182,Fri Feb 28 2025 16:32:38 GMT-0600 (Central Standard Time),498262.5,A,mead,O,d,325,1,3498.5999999996275,494763.9000000004,7073,WL,A,2.0
4,10.333999872207642,learn,49666.00012779236,Fri Feb 28 2025 16:32:38 GMT-0600 (Central Standard Time),498445.80000000075,A,meado,O,o,168,1,3681.9000000003725,494763.9000000004,7073,WL,A,2.0
4,10.550999879837036,learn,49449.000120162964,Fri Feb 28 2025 16:32:38 GMT-0600 (Central Standard Time),498662.30000000075,A,meadow,O,w,200,1,3898.4000000003725,494763.9000000004,7073,WL,A,2.0
4,10.934000015258789,learn,49065.99998474121,Fri Feb 28 2025 16:32:38 GMT-0600 (Central Standard Time),499045.5,A,meadowenter,O,enter,376,1,4281.5999999996275,494763.9000000004,7073,WL,A,2.0
4,11.316999912261963,learn,48683.00008773804,Fri Feb 28 2025 16:32:38 GMT-0600 (Central Standard Time),499428.80000000075,A,g,O,g,376,1,382.90000000037253,499045.9000000004,7073,WL,A,3.0
4,11.566999912261963,learn,48433.00008773804,Fri Feb 28 2025 16:32:38 GMT-0600 (Central Standard Time),499678.7000000002,A,go,O,o,234,1,632.7999999998137,499045.9000000004,7073,WL,A,3.0
4,11.800999879837036,learn,48199.000120162964,Fri Feb 28 2025 16:32:38 GMT-0600 (Central Standard Time),499912.0,A,gol,O,l,224,1,866.0999999996275,499045.9000000004,7073,WL,A,3.0
4,11.984999895095825,learn,48015.000104904175,Fri Feb 28 2025 16:32:38 GMT-0600 (Central Standard Time),500096.4000000004,A,gold,O,d,175,1,1050.5,499045.9000000004,7073,WL,A,3.0
4,12.184000015258789,learn,47815.99998474121,Fri Feb 28 2025 16:32:38 GMT-0600 (Central Standard Time),500295.2000000002,A,goldenter,O,enter,190,1,1249.2999999998137,499045.9000000004,7073,WL,A,3.0
4,12.699999809265137,learn,47300.00019073486,Fri Feb 28 2025 16:32:38 GMT-0600 (Central Standard Time),500811.60000000056,A,k,O,k,503,1,516.1000000005588,500295.5,7073,WL,A,4.0
4,12.949999809265137,learn,47050.00019073486,Fri Feb 28 2025 16:32:38 GMT-0600 (Central Standard Time),501061.30000000075,A,ke,O,e,235,1,765.8000000007451,500295.5,7073,WL,A,4.0
4,13.299999952316284,learn,46700.000047683716,Fri Feb 28 2025 16:32:38 GMT-0600 (Central Standard Time),501411.5,A,key,O,y,330,1,1116.0,500295.5,7073,WL,A,4.0
4,13.816999912261963,learn,46183.00008773804,Fri Feb 28 2025 16:32:38 GMT-0600 (Central Standard Time),501928.10000000056,A,keyenter,O,enter,507,1,1632.6000000005588,500295.5,7073,WL,A,4.0
4,14.282999992370605,learn,45717.000007629395,Fri Feb 28 2025 16:32:38 GMT-0600 (Central Standard Time),502394.5,A,f,O,f,455,1,466.09999999962747,501928.4000000004,7073,WL,A,5.0
4,14.532999992370605,learn,45467.000007629395,Fri Feb 28 2025 16:32:38 GMT-0600 (Central Standard Time),502644.5,A,fi,O,i,236,1,716.0999999996275,501928.4000000004,7073,WL,A,5.0
4,14.849999904632568,learn,45150.00009536743,Fri Feb 28 2025 16:32:38 GMT-0600 (Central Standard Time),502961.2000000002,A,fin,O,n,298,1,1032.7999999998137,501928.4000000004,7073,WL,A,5.0
4,15.099999904632568,learn,44900.00009536743,Fri Feb 28 2025 16:32:38 GMT-0600 (Central Standard Time),503211.0,A,fing,O,g,229,1,1282.5999999996275,501928.4000000004,7073,WL,A,5.0
4,15.25,learn,44750.0,Fri Feb 28 2025 16:32:38 GMT-0600 (Central Standard Time),503360.9000000004,A,finge,O,e,139,1,1432.5,501928.4000000004,7073,WL,A,5.0
4,15.382999897003174,learn,44617.000102996826,Fri Feb 28 2025 16:32:38 GMT-0600 (Central Standard Time),503494.2000000002,A,finger,O,r,117,1,1565.7999999998137,501928.4000000004,7073,WL,A,5.0
4,16.81599998474121,learn,43184.00001525879,Fri Feb 28 2025 16:32:38 GMT-0600 (Central Standard Time),504927.10000000056,A,fingerenter,O,enter,1424,1,2998.7000000001863,501928.4000000004,7073,WL,A,5.0
4,17.365999937057495,learn,42634.000062942505,Fri Feb 28 2025 16:32:38 GMT-0600 (Central Standard Time),505477.0,A,s,O,s,543,1,549.5,504927.5,7073,WL,A,6.0
4,17.899999856948853,learn,42100.00014305115,Fri Feb 28 2025 16:32:38 GMT-0600 (Central Standard Time),506011.2000000002,A,sa,O,a,514,1,1083.7000000001863,504927.5,7073,WL,A,6.0
4,18.082000017166138,learn,41917.99998283386,Fri Feb 28 2025 16:32:38 GMT-0600 (Central Standard Time),506193.30000000075,A,sal,O,l,163,1,1265.800000000745,504927.5,7073,WL,A,6.0
4,18.365000009536743,learn,41634.99999046326,Fri Feb 28 2025 16:32:38 GMT-0600 (Central Standard Time),506476.4000000004,A,salt,O,t,277,1,1548.9000000003725,504927.5,7073,WL,A,6.0
4,18.832000017166138,learn,41167.99998283386,Fri Feb 28 2025 16:32:38 GMT-0600 (Central Standard Time),506943.10000000056,A,saltenter,O,enter,458,1,2015.6000000005588,504927.5,7073,WL,A,6.0
4,19.21499991416931,learn,40785.00008583069,Fri Feb 28 2025 16:32:38 GMT-0600 (Central Standard Time),507326.2000000002,A,l,O,l,375,1,382.79999999981374,506943.4000000004,7073,WL,A,7.0
4,19.447999954223633,learn,40552.00004577637,Fri Feb 28 2025 16:32:38 GMT-0600 (Central Standard Time),507559.60000000056,A,lo,O,o,224,1,616.2000000001863,506943.4000000004,7073,WL,A,7.0
4,19.597999811172485,learn,40402.000188827515,Fri Feb 28 2025 16:32:38 GMT-0600 (Central Standard Time),507709.60000000056,A,log,O,g,143,1,766.2000000001863,506943.4000000004,7073,WL,A,7.0
4,20.197999954223633,learn,39802.00004577637,Fri Feb 28 2025 16:32:38 GMT-0600 (Central Standard Time),508309.30000000075,A,logenter,O,enter,593,1,1365.9000000003725,506943.4000000004,7073,WL,A,7.0
4,20.56499981880188,learn,39435.00018119812,Fri Feb 28 2025 16:32:38 GMT-0600 (Central Standard Time),508675.9000000004,A,c,O,c,346,1,366.20000000018626,508309.7000000002,7073,WL,A,8.0
4,20.697999954223633,learn,39302.00004577637,Fri Feb 28 2025 16:32:38 GMT-0600 (Central Standard Time),508809.2000000002,A,ch,O,h,122,1,499.5,508309.7000000002,7073,WL,A,8.0
4,20.914000034332275,learn,39085.999965667725,Fri Feb 28 2025 16:32:38 GMT-0600 (Central Standard Time),509025.80000000075,A,chi,O,i,205,1,716.1000000005588,508309.7000000002,7073,WL,A,8.0
4,21.197999954223633,learn,38802.00004577637,Fri Feb 28 2025 16:32:38 GMT-0600 (Central Standard Time),509309.10000000056,A,chim,O,m,277,1,999.4000000003725,508309.7000000002,7073,WL,A,8.0
4,21.430999994277954,learn,38569.000005722046,Fri Feb 28 2025 16:32:38 GMT-0600 (Central Standard Time),509542.2000000002,A,chimn,O,n,225,1,1232.5,508309.7000000002,7073,WL,A,8.0
4,21.597999811172485,learn,38402.000188827515,Fri Feb 28 2025 16:32:38 GMT-0600 (Central Standard Time),509708.9000000004,A,chimne,O,e,160,1,1399.2000000001863,508309.7000000002,7073,WL,A,8.0
4,21.73099994659424,learn,38269.00005340576,Fri Feb 28 2025 16:32:38 GMT-0600 (Central Standard Time),509842.4000000004,A,chimney,O,y,121,1,1532.7000000001863,508309.7000000002,7073,WL,A,8.0
4,24.429999828338623,learn,35570.00017166138,Fri Feb 28 2025 16:32:38 GMT-0600 (Central Standard Time),512541.4000000004,A,chimneyenter,O,enter,2692,1,4231.700000000186,508309.7000000002,7073,WL,A,8.0
4,24.62999987602234,learn,35370.00012397766,Fri Feb 28 2025 16:32:38 GMT-0600 (Central Standard Time),512741.5,A,enter,O,enter,193,1,199.79999999981374,512541.7000000002,7073,WL,A,9.0
4,24.829999923706055,learn,35170.000076293945,Fri Feb 28 2025 16:32:38 GMT-0600 (Central Standard Time),512941.30000000075,A,enter,O,enter,184,1,199.40000000037253,512741.9000000004,7073,WL,A,10.0
4,25.263000011444092,learn,34736.99998855591,Fri Feb 28 2025 16:32:38 GMT-0600 (Central Standard Time),513374.5,A,enter,O,enter,425,1,432.79999999981374,512941.7000000002,7073,WL,A,11.0
4,25.562999963760376,learn,34437.000036239624,Fri Feb 28 2025 16:32:38 GMT-0600 (Central Standard Time),513674.4000000004,A,enter,O,enter,288,1,299.59999999962747,513374.80000000075,7073,WL,A,12.0
4,25.995999813079834,learn,34004.000186920166,Fri Feb 28 2025 16:32:38 GMT-0600 (Central Standard Time),514107.60000000056,A,enter,O,enter,412,1,432.79999999981374,513674.80000000075,7073,WL,A,13.0
4,26.412999868392944,learn,33587.000131607056,Fri Feb 28 2025 16:32:38 GMT-0600 (Central Standard Time),514524.10000000056,A,enter,O,enter,403,1,416.0,514108.10000000056,7073,WL,A,14.0
4,26.84599995613098,learn,33154.00004386902,Fri Feb 28 2025 16:32:38 GMT-0600 (Central Standard Time),514957.5,A,enter,O,enter,418,1,433.09999999962747,514524.4000000004,7073,WL,A,15.0
5,0.8179998397827148,learn,60000.0,Fri Feb 28 2025 16:32:38 GMT-0600 (Central Standard Time),584370.2000000002,A,b,O,b,807,1,817.5,583552.7000000002,7073,WL,A,1.0
5,1.0,learn,60000.0,Fri Feb 28 2025 16:32:38 GMT-0600 (Central Standard Time),584552.4000000004,A,bo,O,o,172,1,999.7000000001863,583552.7000000002,7073,WL,A,1.0
5,1.182999849319458,learn,60000.0,Fri Feb 28 2025 16:32:38 GMT-0600 (Central Standard Time),584735.4000000004,A,boo,O,o,173,1,1182.7000000001863,583552.7000000002,7073,WL,A,1.0
5,1.3829998970031738,learn,60000.0,Fri Feb 28 2025 16:32:38 GMT-0600 (Central Standard Time),584935.3000000007,A,book,O,k,191,1,1382.6000000005588,583552.7000000002,7073,WL,A,1.0
5,1.7829999923706055,learn,60000.0,Fri Feb 28 2025 16:32:38 GMT-0600 (Central Standard Time),585335.6000000006,A,bookenter,O,enter,383,1,1782.9000000003725,583552.7000000002,7073,WL,A,1.0
5,2.2330000400543213,learn,60000.0,Fri Feb 28 2025 16:32:38 GMT-0600 (Central Standard Time),585785.2000000002,A,f,O,f,431,1,449.29999999981374,585335.9000000004,7073,WL,A,2.0
5,2.498999834060669,learn,60000.0,Fri Feb 28 2025 16:32:38 GMT-0600 (Central Standard Time),586051.7000000002,A,fl,O,l,261,1,715.7999999998137,585335.9000000004,7073,WL,A,2.0
5,2.7159998416900635,learn,60000.0,Fri Feb 28 2025 16:32:38 GMT-0600 (Central Standard Time),586268.2000000002,A,flo,O,o,203,1,932.2999999998137,585335.9000000004,7073,WL,A,2.0
5,3.248999834060669,learn,60000.0,Fri Feb 28 2025 16:32:38 GMT-0600 (Central Standard Time),586801.4000000004,A,flow,O,w,522,1,1465.5,585335.9000000004,7073,WL,A,2.0
5,3.498999834060669,learn,60000.0,Fri Feb 28 2025 16:32:38 GMT-0600 (Central Standard Time),587051.5,A,flowe,O,e,229,1,1715.5999999996275,585335.9000000004,7073,WL,A,2.0
5,3.6989998817443848,learn,60000.0,Fri Feb 28 2025 16:32:38 GMT-0600 (Central Standard Time),587251.4000000004,A,flower,O,r,195,1,1915.5,585335.9000000004,7073,WL,A,2.0
5,3.9149999618530273,learn,60000.0,Fri Feb 28 2025 16:32:38 GMT-0600 (Central Standard Time),587467.8000000007,A,flowerenter,O,enter,211,1,2131.9000000003725,585335.9000000004,7073,WL,A,2.0
5,4.431999921798706,learn,60000.0,Fri Feb 28 2025 16:32:38 GMT-0600 (Central Standard Time),587984.7000000002,A,t,O,t,499,1,516.5999999996275,587468.1000000006,7073,WL,A,3.0
5,4.615000009536743,learn,60000.0,Fri Feb 28 2025 16:32:38 GMT-0600 (Central Standard Time),588167.8000000007,A,tr,O,r,175,1,699.7000000001863,587468.1000000006,7073,WL,A,3.0
5,4.865000009536743,learn,60000.0,Fri Feb 28 2025 16:32:38 GMT-0600 (Central Standard Time),588417.9000000004,A,tra,O,a,231,1,949.7999999998137,587468.1000000006,7073,WL,A,3.0
5,5.082000017166138,learn,60000.0,Fri Feb 28 2025 16:32:38 GMT-0600 (Central Standard Time),588634.2000000002,A,trai,O,i,196,1,1166.0999999996275,587468.1000000006,7073,WL,A,3.0
5,5.381999969482422,learn,60000.0,Fri Feb 28 2025 16:32:38 GMT-0600 (Central Standard Time),588934.3000000007,A,train,O,n,292,1,1466.2000000001863,587468.1000000006,7073,WL,A,3.0
5,5.898000001907349,learn,60000.0,Fri Feb 28 2025 16:32:38 GMT-0600 (Central Standard Time),589450.6000000006,A,trainenter,O,enter,496,1,1982.5,587468.1000000006,7073,WL,A,3.0
5,6.414999961853027,learn,60000.0,Fri Feb 28 2025 16:32:38 GMT-0600 (Central Standard Time),589967.1000000006,A,r,O,r,500,1,516.2000000001863,589450.9000000004,7073,WL,A,4.0
5,6.680999994277954,learn,60000.0,Fri Feb 28 2025 16:32:38 GMT-0600 (Central Standard Time),590233.6000000006,A,ru,O,u,255,1,782.7000000001863,589450.9000000004,7073,WL,A,4.0
5,6.930999994277954,learn,60000.0,Fri Feb 28 2025 16:32:38 GMT-0600 (Central Standard Time),590483.9000000004,A,rug,O,g,230,1,1033.0,589450.9000000004,7073,WL,A,4.0
5,7.414000034332275,learn,60000.0,Fri Feb 28 2025 16:32:38 GMT-0600 (Central Standard Time),590967.0,A,rugenter,O,enter,475,1,1516.0999999996275,589450.9000000004,7073,WL,A,4.0
5,8.146999835968018,learn,60000.0,Fri Feb 28 2025 16:32:38 GMT-0600 (Central Standard Time),591700.0,A,h,O,h,719,1,732.7999999998137,590967.2000000002,7073,WL,A,5.0
5,8.346999883651733,learn,60000.0,Fri Feb 28 2025 16:32:38 GMT-0600 (Central Standard Time),591900.0,A,ha,O,a,186,1,932.7999999998137,590967.2000000002,7073,WL,A,5.0
5,8.563999891281128,learn,60000.0,Fri Feb 28 2025 16:32:38 GMT-0600 (Central Standard Time),592116.6000000006,A,har,O,r,202,1,1149.4000000003725,590967.2000000002,7073,WL,A,5.0
5,8.996999979019165,learn,60000.0,Fri Feb 28 2025 16:32:38 GMT-0600 (Central Standard Time),592549.6000000006,A,harp,O,p,426,1,1582.4000000003725,590967.2000000002,7073,WL,A,5.0
5,9.396999835968018,learn,60000.0,Fri Feb 28 2025 16:32:38 GMT-0600 (Central Standard Time),592949.5,A,harpenter,O,enter,393,1,1982.2999999998137,590967.2000000002,7073,WL,A,5.0
5,9.664000034332275,learn,60000.0,Fri Feb 28 2025 16:32:38 GMT-0600 (Central Standard Time),593216.4000000004,A,s,O,s,249,1,266.59999999962747,592949.8000000007,7073,WL,A,6.0
5,9.929999828338623,learn,60000.0,Fri Feb 28 2025 16:32:38 GMT-0600 (Central Standard Time),593482.8000000007,A,sa,O,a,246,1,533.0,592949.8000000007,7073,WL,A,6.0
5,10.129999876022339,learn,60000.0,Fri Feb 28 2025 16:32:38 GMT-0600 (Central Standard Time),593682.7000000002,A,sal,O,l,189,1,732.8999999994412,592949.8000000007,7073,WL,A,6.0
5,11.746000051498413,learn,60000.0,Fri Feb 28 2025 16:32:38 GMT-0600 (Central Standard Time),595298.9000000004,A,salt,O,t,1604,1,2349.0999999996275,592949.8000000007,7073,WL,A,6.0
5,12.595999956130981,learn,60000.0,Fri Feb 28 2025 16:32:38 GMT-0600 (Central Standard Time),596148.5,A,saltenter,O,enter,843,1,3198.699999999255,592949.8000000007,7073,WL,A,6.0
5,12.962999820709229,learn,60000.0,Fri Feb 28 2025 16:32:38 GMT-0600 (Central Standard Time),596515.9000000004,A,f,O,f,363,1,367.09999999962747,596148.8000000007,7073,WL,A,7.0
5,13.161999940872192,learn,60000.0,Fri Feb 28 2025 16:32:38 GMT-0600 (Central Standard Time),596715.1000000006,A,fi,O,i,179,1,566.2999999998137,596148.8000000007,7073,WL,A,7.0
5,13.461999893188477,learn,60000.0,Fri Feb 28 2025 16:32:38 GMT-0600 (Central Standard Time),597015.0,A,fin,O,n,283,1,866.1999999992549,596148.8000000007,7073,WL,A,7.0
5,13.728999853134155,learn,60000.0,Fri Feb 28 2025 16:32:38 GMT-0600 (Central Standard Time),597281.6000000006,A,fing,O,g,255,1,1132.7999999998137,596148.8000000007,7073,WL,A,7.0
5,13.861999988555908,learn,60000.0,Fri Feb 28 2025 16:32:38 GMT-0600 (Central Standard Time),597414.8000000007,A,finge,O,e,117,1,1266.0,596148.8000000007,7073,WL,A,7.0
5,14.09500002861023,learn,60000.0,Fri Feb 28 2025 16:32:38 GMT-0600 (Central Standard Time),597648.1000000006,A,finger,O,r,216,1,1499.2999999998137,596148.8000000007,7073,WL,A,7.0
5,14.328999996185303,learn,60000.0,Fri Feb 28 2025 16:32:38 GMT-0600 (Central Standard Time),597881.4000000004,A,fingerenter,O,enter,214,1,1732.5999999996275,596148.8000000007,7073,WL,A,7.0
5,14.878000020980835,learn,60000.0,Fri Feb 28 2025 16:32:38 GMT-0600 (Central Standard Time),598431.1000000006,A,m,O,m,541,1,549.4000000003725,597881.7000000002,7073,WL,A,8.0
5,15.111999988555908,learn,60000.0,Fri Feb 28 2025 16:32:38 GMT-0600 (Central Standard Time),598664.9000000004,A,me,O,e,215,1,783.2000000001863,597881.7000000002,7073,WL,A,8.0
5,15.378000020980835,learn,60000.0,Fri Feb 28 2025 16:32:38 GMT-0600 (Central Standard Time),598931.0,A,mea,O,a,254,1,1049.2999999998137,597881.7000000002,7073,WL,A,8.0
5,15.644999980926514,learn,60000.0,Fri Feb 28 2025 16:32:38 GMT-0600 (Central Standard Time),599197.5,A,mead,O,d,260,1,1315.7999999998137,597881.7000000002,7073,WL,A,8.0
5,15.827999830245972,learn,60000.0,Fri Feb 28 2025 16:32:38 GMT-0600 (Central Standard Time),599380.8000000007,A,meado,O,o,177,1,1499.1000000005588,597881.7000000002,7073,WL,A,8.0
5,16.044999837875366,learn,60000.0,Fri Feb 28 2025 16:32:38 GMT-0600 (Central Standard Time),599597.4000000004,A,meadow,O,w,202,1,1715.7000000001863,597881.7000000002,7073,WL,A,8.0
5,16.460999965667725,learn,60000.0,Fri Feb 28 2025 16:32:38 GMT-0600 (Central Standard Time),600013.8000000007,A,meadowenter,O,enter,409,1,2132.100000000559,597881.7000000002,7073,WL,A,8.0
5,16.82799983024597,learn,60000.0,Fri Feb 28 2025 16:32:38 GMT-0600 (Central Standard Time),600380.4000000004,A,b,O,b,361,1,366.29999999981374,600014.1000000006,7073,WL,A,9.0
5,17.128000020980835,learn,60000.0,Fri Feb 28 2025 16:32:38 GMT-0600 (Central Standard Time),600680.6000000006,A,bu,O,u,290,1,666.5,600014.1000000006,7073,WL,A,9.0
5,17.360999822616577,learn,60000.0,Fri Feb 28 2025 16:32:38 GMT-0600 (Central Standard Time),600913.6000000006,A,but,O,t,222,1,899.5,600014.1000000006,7073,WL,A,9.0
5,17.527999877929688,learn,60000.0,Fri Feb 28 2025 16:32:38 GMT-0600 (Central Standard Time),601080.6000000006,A,butt,O,t,149,1,1066.5,600014.1000000006,7073,WL,A,9.0
5,17.710999965667725,learn,60000.0,Fri Feb 28 2025 16:32:38 GMT-0600 (Central Standard Time),601263.6000000006,A,butto,O,o,167,1,1249.5,600014.1000000006,7073,WL,A,9.0
5,17.99399995803833,learn,60000.0,Fri Feb 28 2025 16:32:38 GMT-0600 (Central Standard Time),601546.8000000007,A,button,O,n,263,1,1532.7000000001863,600014.1000000006,7073,WL,A,9.0
5,18.47699999809265,learn,60000.0,Fri Feb 28 2025 16:32:38 GMT-0600 (Central Standard Time),602030.0,A,buttonenter,O,enter,467,1,2015.8999999994412,600014.1000000006,7073,WL,A,9.0
5,19.026999950408936,learn,60000.0,Fri Feb 28 2025 16:32:38 GMT-0600 (Central Standard Time),602579.9000000004,A,g,O,g,546,1,549.5999999996275,602030.3000000007,7073,WL,A,10.0
5,19.194000005722046,learn,60000.0,Fri Feb 28 2025 16:32:38 GMT-0600 (Central Standard Time),602746.5,A,go,O,o,155,1,716.1999999992549,602030.3000000007,7073,WL,A,10.0
5,19.427000045776367,learn,60000.0,Fri Feb 28 2025 16:32:38 GMT-0600 (Central Standard Time),602979.8000000007,A,gol,O,l,220,1,949.5,602030.3000000007,7073,WL,A,10.0
5,19.82699990272522,learn,60000.0,Fri Feb 28 2025 16:32:38 GMT-0600 (Central Standard Time),603379.9000000004,A,gold,O,d,380,1,1349.5999999996275,602030.3000000007,7073,WL,A,10.0
5,20.126999855041504,learn,60000.0,Fri Feb 28 2025 16:32:38 GMT-0600 (Central Standard Time),603679.5,A,goldenter,O,enter,282,1,1649.199999999255,602030.3000000007,7073,WL,A,10.0
5,20.609999895095825,learn,60000.0,Fri Feb 28 2025 16:32:38 GMT-0600 (Central Standard Time),604162.7000000002,A,k,O,k,463,1,482.79999999981374,603679.9000000004,7073,WL,A,11.0
5,20.842999935150146,learn,60000.0,Fri Feb 28 2025 16:32:38 GMT-0600 (Central Standard Time),604396.2000000002,A,ke,O,e,219,1,716.2999999998137,603679.9000000004,7073,WL,A,11.0
5,21.042999982833862,learn,60000.0,Fri Feb 28 2025 16:32:38 GMT-0600 (Central Standard Time),604596.0,A,key,O,y,186,1,916.0999999996275,603679.9000000004,7073,WL,A,11.0
5,21.80999994277954,learn,60000.0,Fri Feb 28 2025 16:32:38 GMT-0600 (Central Standard Time),605362.2000000002,A,keyenter,O,enter,746,1,1682.2999999998137,603679.9000000004,7073,WL,A,11.0
5,22.253999948501587,learn,60000.0,Fri Feb 28 2025 16:32:38 GMT-0600 (Central Standard Time),605807.1000000006,A,l,O,l,440,1,444.40000000037253,605362.7000000002,7073,WL,A,12.0
5,22.47599983215332,learn,60000.0,Fri Feb 28 2025 16:32:38 GMT-0600 (Central Standard Time),606028.8000000007,A,lo,O,o,207,1,666.1000000005588,605362.7000000002,7073,WL,A,12.0
5,24.45899987220764,learn,60000.0,Fri Feb 28 2025 16:32:38 GMT-0600 (Central Standard Time),608011.5,A,log,O,g,1978,1,2648.7999999998137,605362.7000000002,7073,WL,A,12.0
5,26.125,learn,60000.0,Fri Feb 28 2025 16:32:38 GMT-0600 (Central Standard Time),609677.6000000006,A,logenter,O,enter,1659,1,4314.9000000003725,605362.7000000002,7073,WL,A,12.0
5,26.95799994468689,learn,60000.0,Fri Feb 28 2025 16:32:38 GMT-0600 (Central Standard Time),610510.7000000002,A,a,O,a,825,1,832.7999999998137,609677.9000000004,7073,WL,A,13.0
5,27.20799994468689,learn,60000.0,Fri Feb 28 2025 16:32:38 GMT-0600 (Central Standard Time),610760.6000000006,A,ap,O,p,240,1,1082.7000000001863,609677.9000000004,7073,WL,A,13.0
5,27.340999841690063,learn,60000.0,Fri Feb 28 2025 16:32:38 GMT-0600 (Central Standard Time),610894.1000000006,A,app,O,p,126,1,1216.2000000001863,609677.9000000004,7073,WL,A,13.0
5,27.573999881744385,learn,60000.0,Fri Feb 28 2025 16:32:38 GMT-0600 (Central Standard Time),611127.2000000002,A,appl,O,l,224,1,1449.2999999998137,609677.9000000004,7073,WL,A,13.0
5,27.757999897003174,learn,60000.0,Fri Feb 28 2025 16:32:38 GMT-0600 (Central Standard Time),611310.5,A,apple,O,e,168,1,1632.5999999996275,609677.9000000004,7073,WL,A,13.0
5,28.674000024795532,learn,60000.0,Fri Feb 28 2025 16:32:38 GMT-0600 (Central Standard Time),612226.9000000004,A,appleenter,O,enter,904,1,2549.0,609677.9000000004,7073,WL,A,13.0
5,29.10699987411499,learn,60000.0,Fri Feb 28 2025 16:32:38 GMT-0600 (Central Standard Time),612659.9000000004,A,enter,O,enter,428,1,432.70000000018626,612227.2000000002,7073,WL,A,14.0
5,29.54099988937378,learn,60000.0,Fri Feb 28 2025 16:32:38 GMT-0600 (Central Standard Time),613093.3000000007,A,enter,O,enter,427,1,433.1000000005588,612660.2000000002,7073,WL,A,15.0
6,0.38300013542175293,distr,59616.99986457825,Fri Feb 28 2025 16:32:38 GMT-0600 (Central Standard Time),695717.5,B,b,O,b,376,1,383.19999999925494,695334.3000000007,7073,WL,A,1.0
6,0.7000000476837158,distr,59299.999952316284,Fri Feb 28 2025 16:32:38 GMT-0600 (Central Standard Time),696034.2000000002,B,bo,O,o,297,1,699.8999999994412,695334.3000000007,7073,WL,A,1.0
6,1.433000087738037,distr,58566.99991226196,Fri Feb 28 2025 16:32:38 GMT-0600 (Central Standard Time),696767.3000000007,B,bow,O,w,724,1,1433.0,695334.3000000007,7073,WL,A,1.0
6,1.633000135421753,distr,58366.99986457825,Fri Feb 28 2025 16:32:38 GMT-0600 (Central Standard Time),696967.1000000006,B,bowl,O,l,191,1,1632.7999999998137,695334.3000000007,7073,WL,A,1.0
6,2.4830000400543213,distr,57516.99995994568,Fri Feb 28 2025 16:32:38 GMT-0600 (Central Standard Time),697816.7000000002,B,bowlenter,O,enter,831,1,2482.399999999441,695334.3000000007,7073,WL,A,1.0
6,3.1660001277923584,distr,56833.99987220764,Fri Feb 28 2025 16:32:38 GMT-0600 (Central Standard Time),698499.9000000004,B,j,O,j,669,1,682.5,697817.4000000004,7073,WL,A,2.0
6,3.3989999294281006,distr,56601.0000705719,Fri Feb 28 2025 16:32:38 GMT-0600 (Central Standard Time),698733.3000000007,B,ju,O,u,227,1,915.9000000003725,697817.4000000004,7073,WL,A,2.0
6,3.633000135421753,distr,56366.99986457825,Fri Feb 28 2025 16:32:38 GMT-0600 (Central Standard Time),698966.5,B,jud,O,d,217,1,1149.0999999996275,697817.4000000004,7073,WL,A,2.0
6,3.815999984741211,distr,56184.00001525879,Fri Feb 28 2025 16:32:38 GMT-0600 (Central Standard Time),699149.7000000002,B,judg,O,g,168,1,1332.2999999998137,697817.4000000004,7073,WL,A,2.0
6,3.9660000801086426,distr,56033.99991989136,Fri Feb 28 2025 16:32:38 GMT-0600 (Central Standard Time),699299.7000000002,B,judge,O,e,129,1,1482.2999999998137,697817.4000000004,7073,WL,A,2.0
6,4.76800012588501,distr,55231.99987411499,Fri Feb 28 2025 16:32:38 GMT-0600 (Central Standard Time),700102.2000000002,B,judgeenter,O,enter,788,1,2284.7999999998137,697817.4000000004,7073,WL,A,2.0
6,7.3480000495910645,distr,52651.999950408936,Fri Feb 28 2025 16:32:38 GMT-0600 (Central Standard Time),702681.9000000004,B,enter,O,enter,2568,1,2579.4000000003725,700102.5,7073,WL,A,3.0
6,7.515000104904175,distr,52484.999895095825,Fri Feb 28 2025 16:32:38 GMT-0600 (Central Standard Time),702848.6000000006,B,enter,O,enter,156,1,166.29999999981374,702682.3000000007,7073,WL,A,4.0
6,7.664999961853027,distr,52335.00003814697,Fri Feb 28 2025 16:32:38 GMT-0600 (Central Standard Time),702998.6000000006,B,enter,O,enter,143,1,149.70000000018626,702848.9000000004,7073,WL,A,5.0
6,7.814000129699707,distr,52185.99987030029,Fri Feb 28 2025 16:32:38 GMT-0600 (Central Standard Time),703148.2000000002,B,enter,O,enter,144,1,149.29999999981374,702998.9000000004,7073,WL,A,6.0
6,7.980999946594238,distr,52019.00005340576,Fri Feb 28 2025 16:32:38 GMT-0600 (Central Standard Time),703315.1000000006,B,enter,O,enter,146,1,166.6000000005588,703148.5,7073,WL,A,7.0
6,8.38100004196167,distr,51618.99995803833,Fri Feb 28 2025 16:32:38 GMT-0600 (Central Standard Time),703715.0,B,enter,O,enter,387,1,399.5,703315.5,7073,WL,A,8.0
6,8.598000049591064,distr,51401.999950408936,Fri Feb 28 2025 16:32:38 GMT-0600 (Central Standard Time),703931.5,B,enter,O,enter,196,1,216.19999999925494,703715.3000000007,7073,WL,A,9.0
6,8.79800009727478,distr,51201.99990272522,Fri Feb 28 2025 16:32:38 GMT-0600 (Central Standard Time),704131.6000000006,B,enter,O,enter,179,1,199.70000000018626,703931.9000000004,7073,WL,A,10.0
6,8.998000144958496,distr,51001.999855041504,Fri Feb 28 2025 16:32:38 GMT-0600 (Central Standard Time),704331.6000000006,B,enter,O,enter,179,1,199.6000000005588,704132.0,7073,WL,A,11.0
6,9.21399998664856,distr,50786.00001335144,Fri Feb 28 2025 16:32:38 GMT-0600 (Central Standard Time),704548.0,B,enter,O,enter,203,1,216.09999999962747,704331.9000000004,7073,WL,A,12.0
6,9.46399998664856,distr,50536.00001335144,Fri Feb 28 2025 16:32:38 GMT-0600 (Central Standard Time),704798.0,B,enter,O,enter,243,1,249.69999999925494,704548.3000000007,7073,WL,A,13.0
6,9.71399998664856,distr,50286.00001335144,Fri Feb 28 2025 16:32:38 GMT-0600 (Central Standard Time),705047.9000000004,B,enter,O,enter,241,1,249.59999999962747,704798.3000000007,7073,WL,A,14.0
6,9.94700002670288,distr,50052.99997329712,Fri Feb 28 2025 16:32:38 GMT-0600 (Central Standard Time),705281.3000000007,B,enter,O,enter,214,1,233.0,705048.3000000007,7073,WL,A,15.0
7,0.9659998416900635,immed,59034.00015830994,Fri Feb 28 2025 16:32:38 GMT-0600 (Central Standard Time),731706.3000000007,A,b,O,b,947,1,966.3000000007451,730740.0,7073,WL,A,1.0
7,1.315999984741211,immed,58684.00001525879,Fri Feb 28 2025 16:32:38 GMT-0600 (Central Standard Time),732056.1000000006,A,bo,O,o,340,1,1316.1000000005588,730740.0,7073,WL,A,1.0
7,1.498999834060669,immed,58501.00016593933,Fri Feb 28 2025 16:32:38 GMT-0600 (Central Standard Time),732239.4000000004,A,boo,O,o,174,1,1499.4000000003725,730740.0,7073,WL,A,1.0
7,1.6989998817443848,immed,58301.000118255615,Fri Feb 28 2025 16:32:38 GMT-0600 (Central Standard Time),732439.3000000007,A,book,O,k,191,1,1699.300000000745,730740.0,7073,WL,A,1.0
7,2.048999786376953,immed,57951.00021362305,Fri Feb 28 2025 16:32:38 GMT-0600 (Central Standard Time),732789.3000000007,A,bookenter,O,enter,343,1,2049.300000000745,730740.0,7073,WL,A,1.0
7,2.3489999771118164,immed,57651.00002288818,Fri Feb 28 2025 16:32:38 GMT-0600 (Central Standard Time),733089.1000000006,A,f,O,f,281,1,299.5,732789.6000000006,7073,WL,A,2.0
7,2.615000009536743,immed,57384.99999046326,Fri Feb 28 2025 16:32:38 GMT-0600 (Central Standard Time),733355.7000000002,A,fl,O,l,246,1,566.0999999996275,732789.6000000006,7073,WL,A,2.0
7,2.815999984741211,immed,57184.00001525879,Fri Feb 28 2025 16:32:38 GMT-0600 (Central Standard Time),733555.8000000007,A,flo,O,o,180,1,766.2000000001863,732789.6000000006,7073,WL,A,2.0
7,3.3489999771118164,immed,56651.00002288818,Fri Feb 28 2025 16:32:38 GMT-0600 (Central Standard Time),734088.9000000004,A,flow,O,w,524,1,1299.2999999998137,732789.6000000006,7073,WL,A,2.0
7,3.5989999771118164,immed,56401.00002288818,Fri Feb 28 2025 16:32:38 GMT-0600 (Central Standard Time),734338.6000000006,A,flowe,O,e,237,1,1549.0,732789.6000000006,7073,WL,A,2.0
7,3.81499981880188,immed,56185.00018119812,Fri Feb 28 2025 16:32:38 GMT-0600 (Central Standard Time),734555.5,A,flower,O,r,196,1,1765.8999999994412,732789.6000000006,7073,WL,A,2.0
7,4.115000009536743,immed,55884.99999046326,Fri Feb 28 2025 16:32:38 GMT-0600 (Central Standard Time),734855.2000000002,A,flowerenter,O,enter,291,1,2065.5999999996275,732789.6000000006,7073,WL,A,2.0
7,4.648999929428101,immed,55351.0000705719,Fri Feb 28 2025 16:32:38 GMT-0600 (Central Standard Time),735389.5,A,r,O,r,527,1,533.8999999994412,734855.6000000006,7073,WL,A,3.0
7,4.931999921798706,immed,55068.000078201294,Fri Feb 28 2025 16:32:38 GMT-0600 (Central Standard Time),735671.7000000002,A,ru,O,u,273,1,816.0999999996275,734855.6000000006,7073,WL,A,3.0
7,5.097999811172485,immed,54902.000188827515,Fri Feb 28 2025 16:32:38 GMT-0600 (Central Standard Time),735838.2000000002,A,rug,O,g,160,1,982.5999999996275,734855.6000000006,7073,WL,A,3.0
7,5.398000001907349,immed,54601.99999809265,Fri Feb 28 2025 16:32:38 GMT-0600 (Central Standard Time),736138.2000000002,A,rugenter,O,enter,288,1,1282.5999999996275,734855.6000000006,7073,WL,A,3.0
7,5.830999851226807,immed,54169.00014877319,Fri Feb 28 2025 16:32:38 GMT-0600 (Central Standard Time),736571.4000000004,A,t,O,t,421,1,432.90000000037253,736138.5,7073,WL,A,4.0
7,6.0309998989105225,immed,53969.00010108948,Fri Feb 28 2025 16:32:38 GMT-0600 (Central Standard Time),736771.4000000004,A,tr,O,r,178,1,632.9000000003725,736138.5,7073,WL,A,4.0
7,6.2809998989105225,immed,53719.00010108948,Fri Feb 28 2025 16:32:38 GMT-0600 (Central Standard Time),737021.4000000004,A,tra,O,a,235,1,882.9000000003725,736138.5,7073,WL,A,4.0
7,6.480999946594238,immed,53519.00005340576,Fri Feb 28 2025 16:32:38 GMT-0600 (Central Standard Time),737221.2000000002,A,trai,O,i,185,1,1082.7000000001863,736138.5,7073,WL,A,4.0
7,6.763999938964844,immed,53236.000061035156,Fri Feb 28 2025 16:32:38 GMT-0600 (Central Standard Time),737504.5,A,train,O,n,265,1,1366.0,736138.5,7073,WL,A,4.0
7,7.096999883651733,immed,52903.00011634827,Fri Feb 28 2025 16:32:38 GMT-0600 (Central Standard Time),737837.7000000002,A,trainenter,O,enter,318,1,1699.2000000001863,736138.5,7073,WL,A,4.0
7,7.363999843597412,immed,52636.00015640259,Fri Feb 28 2025 16:32:38 GMT-0600 (Central Standard Time),738104.1000000006,A,s,O,s,257,1,266.1000000005588,737838.0,7073,WL,A,5.0
7,7.613999843597412,immed,52386.00015640259,Fri Feb 28 2025 16:32:38 GMT-0600 (Central Standard Time),738354.2000000002,A,sa,O,a,231,1,516.2000000001863,737838.0,7073,WL,A,5.0
7,7.796999931335449,immed,52203.00006866455,Fri Feb 28 2025 16:32:38 GMT-0600 (Central Standard Time),738537.4000000004,A,sal,O,l,172,1,699.4000000003725,737838.0,7073,WL,A,5.0
7,7.996999979019165,immed,52003.000020980835,Fri Feb 28 2025 16:32:38 GMT-0600 (Central Standard Time),738737.5,A,salt,O,t,181,1,899.5,737838.0,7073,WL,A,5.0
7,8.363999843597412,immed,51636.00015640259,Fri Feb 28 2025 16:32:38 GMT-0600 (Central Standard Time),739103.8000000007,A,saltenter,O,enter,358,1,1265.800000000745,737838.0,7073,WL,A,5.0
7,8.763999938964844,immed,51236.000061035156,Fri Feb 28 2025 16:32:38 GMT-0600 (Central Standard Time),739503.8000000007,A,f,O,f,390,1,399.6000000005588,739104.2000000002,7073,WL,A,6.0
7,9.080999851226807,immed,50919.00014877319,Fri Feb 28 2025 16:32:38 GMT-0600 (Central Standard Time),739821.5,A,fi,O,i,311,1,717.2999999998137,739104.2000000002,7073,WL,A,6.0
7,9.429999828338623,immed,50570.00017166138,Fri Feb 28 2025 16:32:38 GMT-0600 (Central Standard Time),740170.2000000002,A,fin,O,n,337,1,1066.0,739104.2000000002,7073,WL,A,6.0
7,9.696999788284302,immed,50303.0002117157,Fri Feb 28 2025 16:32:38 GMT-0600 (Central Standard Time),740436.9000000004,A,fing,O,g,260,1,1332.7000000001863,739104.2000000002,7073,WL,A,6.0
7,9.829999923706055,immed,50170.000076293945,Fri Feb 28 2025 16:32:38 GMT-0600 (Central Standard Time),740570.1000000006,A,finge,O,e,114,1,1465.9000000003725,739104.2000000002,7073,WL,A,6.0
7,10.062999963760376,immed,49937.000036239624,Fri Feb 28 2025 16:32:38 GMT-0600 (Central Standard Time),740803.4000000004,A,finger,O,r,221,1,1699.2000000001863,739104.2000000002,7073,WL,A,6.0
7,10.212999820709229,immed,49787.00017929077,Fri Feb 28 2025 16:32:38 GMT-0600 (Central Standard Time),740953.4000000004,A,fingerenter,O,enter,140,1,1849.2000000001863,739104.2000000002,7073,WL,A,6.0
7,10.61299991607666,immed,49387.00008392334,Fri Feb 28 2025 16:32:38 GMT-0600 (Central Standard Time),741353.7000000002,A,h,O,h,381,1,399.79999999981374,740953.9000000004,7073,WL,A,7.0
7,10.77999997138977,immed,49220.00002861023,Fri Feb 28 2025 16:32:38 GMT-0600 (Central Standard Time),741520.0,A,ha,O,a,149,1,566.0999999996275,740953.9000000004,7073,WL,A,7.0
7,11.078999996185303,immed,48921.0000038147,Fri Feb 28 2025 16:32:38 GMT-0600 (Central Standard Time),741819.6000000006,A,har,O,r,295,1,865.7000000001863,740953.9000000004,7073,WL,A,7.0
7,11.27999997138977,immed,48720.00002861023,Fri Feb 28 2025 16:32:38 GMT-0600 (Central Standard Time),742019.8000000007,A,harp,O,p,180,1,1065.9000000003725,740953.9000000004,7073,WL,A,7.0
7,11.595999956130981,immed,48404.00004386902,Fri Feb 28 2025 16:32:38 GMT-0600 (Central Standard Time),742336.3000000007,A,harpenter,O,enter,299,1,1382.4000000003725,740953.9000000004,7073,WL,A,7.0
7,11.879999876022339,immed,48120.00012397766,Fri Feb 28 2025 16:32:38 GMT-0600 (Central Standard Time),742619.7000000002,A,c,O,c,278,1,283.09999999962747,742336.6000000006,7073,WL,A,8.0
7,12.078999996185303,immed,47921.0000038147,Fri Feb 28 2025 16:32:38 GMT-0600 (Central Standard Time),742819.5,A,ch,O,h,179,1,482.8999999994412,742336.6000000006,7073,WL,A,8.0
7,12.27899980545044,immed,47721.00019454956,Fri Feb 28 2025 16:32:38 GMT-0600 (Central Standard Time),743019.4000000004,A,chi,O,i,195,1,682.7999999998137,742336.6000000006,7073,WL,A,8.0
7,12.51199984550476,immed,47488.00015449524,Fri Feb 28 2025 16:32:38 GMT-0600 (Central Standard Time),743252.5,A,chim,O,m,227,1,915.8999999994412,742336.6000000006,7073,WL,A,8.0
7,12.745999813079834,immed,47254.000186920166,Fri Feb 28 2025 16:32:38 GMT-0600 (Central Standard Time),743485.7000000002,A,chimn,O,n,226,1,1149.0999999996275,742336.6000000006,7073,WL,A,8.0
7,12.911999940872192,immed,47088.00005912781,Fri Feb 28 2025 16:32:38 GMT-0600 (Central Standard Time),743652.4000000004,A,chimne,O,e,153,1,1315.7999999998137,742336.6000000006,7073,WL,A,8.0
7,13.01199984550476,immed,46988.00015449524,Fri Feb 28 2025 16:32:38 GMT-0600 (Central Standard Time),743752.3000000007,A,chimney,O,y,90,1,1415.7000000001863,742336.6000000006,7073,WL,A,8.0
7,13.461999893188477,immed,46538.00010681152,Fri Feb 28 2025 16:32:38 GMT-0600 (Central Standard Time),744202.5,A,chimneyenter,O,enter,438,1,1865.8999999994412,742336.6000000006,7073,WL,A,8.0
7,14.328999996185303,immed,45671.0000038147,Fri Feb 28 2025 16:32:38 GMT-0600 (Central Standard Time),745068.7000000002,A,g,O,g,852,1,865.8999999994412,744202.8000000007,7073,WL,A,9.0
7,14.544999837875366,immed,45455.000162124634,Fri Feb 28 2025 16:32:38 GMT-0600 (Central Standard Time),745285.4000000004,A,go,O,o,202,1,1082.5999999996275,744202.8000000007,7073,WL,A,9.0
7,14.76199984550476,immed,45238.00015449524,Fri Feb 28 2025 16:32:38 GMT-0600 (Central Standard Time),745501.8000000007,A,gol,O,l,201,1,1299.0,744202.8000000007,7073,WL,A,9.0
7,15.01199984550476,immed,44988.00015449524,Fri Feb 28 2025 16:32:38 GMT-0600 (Central Standard Time),745751.9000000004,A,gold,O,d,233,1,1549.0999999996275,744202.8000000007,7073,WL,A,9.0
7,15.244999885559082,immed,44755.00011444092,Fri Feb 28 2025 16:32:38 GMT-0600 (Central Standard Time),745985.0,A,goldenter,O,enter,223,1,1782.199999999255,744202.8000000007,7073,WL,A,9.0
7,15.727999925613403,immed,44272.0000743866,Fri Feb 28 2025 16:32:38 GMT-0600 (Central Standard Time),746468.4000000004,A,k,O,k,470,1,483.20000000018626,745985.2000000002,7073,WL,A,10.0
7,16.027999877929688,immed,43972.00012207031,Fri Feb 28 2025 16:32:38 GMT-0600 (Central Standard Time),746768.2000000002,A,ke,O,e,282,1,783.0,745985.2000000002,7073,WL,A,10.0
7,16.39299988746643,immed,43607.00011253357,Fri Feb 28 2025 16:32:38 GMT-0600 (Central Standard Time),747133.0,A,key,O,y,339,1,1147.7999999998137,745985.2000000002,7073,WL,A,10.0
7,16.560999870300293,immed,43439.00012969971,Fri Feb 28 2025 16:32:38 GMT-0600 (Central Standard Time),747301.2000000002,A,keya,O,a,161,1,1316.0,745985.2000000002,7073,WL,A,10.0
7,16.810999870300293,immed,43189.00012969971,Fri Feb 28 2025 16:32:38 GMT-0600 (Central Standard Time),747551.2000000002,A,keyap,O,p,233,1,1566.0,745985.2000000002,7073,WL,A,10.0
7,16.977999925613403,immed,43022.0000743866,Fri Feb 28 2025 16:32:38 GMT-0600 (Central Standard Time),747717.8000000007,A,keyapp,O,p,159,1,1732.6000000005588,745985.2000000002,7073,WL,A,10.0
7,17.17799997329712,immed,42822.00002670288,Fri Feb 28 2025 16:32:38 GMT-0600 (Central Standard Time),747917.8000000007,A,keyappl,O,l,192,1,1932.6000000005588,745985.2000000002,7073,WL,A,10.0
7,17.42799997329712,immed,42572.00002670288,Fri Feb 28 2025 16:32:38 GMT-0600 (Central Standard Time),748167.7000000002,A,keyapple,O,e,233,1,2182.5,745985.2000000002,7073,WL,A,10.0
7,17.82699990272522,immed,42173.00009727478,Fri Feb 28 2025 16:32:38 GMT-0600 (Central Standard Time),748567.5,A,keyappleenter,O,enter,390,1,2582.2999999998137,745985.2000000002,7073,WL,A,10.0
7,18.610999822616577,immed,41389.00017738342,Fri Feb 28 2025 16:32:38 GMT-0600 (Central Standard Time),749350.7000000002,A,m,O,m,775,1,782.7999999998137,748567.9000000004,7073,WL,A,11.0
7,18.793999910354614,immed,41206.000089645386,Fri Feb 28 2025 16:32:38 GMT-0600 (Central Standard Time),749533.8000000007,A,me,O,e,176,1,965.9000000003725,748567.9000000004,7073,WL,A,11.0
7,19.026999950408936,immed,40973.000049591064,Fri Feb 28 2025 16:32:38 GMT-0600 (Central Standard Time),749767.3000000007,A,mea,O,a,225,1,1199.4000000003725,748567.9000000004,7073,WL,A,11.0
7,19.310999870300293,immed,40689.00012969971,Fri Feb 28 2025 16:32:38 GMT-0600 (Central Standard Time),750050.6000000006,A,mead,O,d,263,1,1482.7000000001863,748567.9000000004,7073,WL,A,11.0
7,19.509999990463257,immed,40490.00000953674,Fri Feb 28 2025 16:32:38 GMT-0600 (Central Standard Time),750250.3000000007,A,meado,O,o,180,1,1682.4000000003725,748567.9000000004,7073,WL,A,11.0
7,19.65999984741211,immed,40340.00015258789,Fri Feb 28 2025 16:32:38 GMT-0600 (Central Standard Time),750400.5,A,meadow,O,w,140,1,1832.5999999996275,748567.9000000004,7073,WL,A,11.0
7,20.942999839782715,immed,39057.000160217285,Fri Feb 28 2025 16:32:38 GMT-0600 (Central Standard Time),751683.4000000004,A,meadowenter,O,enter,1261,1,3115.5,748567.9000000004,7073,WL,A,11.0
7,27.640999794006348,immed,32359.000205993652,Fri Feb 28 2025 16:32:38 GMT-0600 (Central Standard Time),758380.9000000004,A,f,O,f,6683,1,6697.200000000186,751683.7000000002,7073,WL,A,12.0
7,27.890999794006348,immed,32109.000205993652,Fri Feb 28 2025 16:32:38 GMT-0600 (Central Standard Time),758631.3000000007,A,fl,O,l,232,1,6947.600000000559,751683.7000000002,7073,WL,A,12.0
7,28.090999841690063,immed,31909.000158309937,Fri Feb 28 2025 16:32:38 GMT-0600 (Central Standard Time),758831.0,A,flo,O,o,191,1,7147.299999999814,751683.7000000002,7073,WL,A,12.0
7,28.5239999294281,immed,31476.0000705719,Fri Feb 28 2025 16:32:38 GMT-0600 (Central Standard Time),759264.4000000004,A,flow,O,w,415,1,7580.700000000186,751683.7000000002,7073,WL,A,12.0
7,28.723999977111816,immed,31276.000022888184,Fri Feb 28 2025 16:32:38 GMT-0600 (Central Standard Time),759464.3000000007,A,flowe,O,e,190,1,7780.600000000559,751683.7000000002,7073,WL,A,12.0
7,28.957000017166138,immed,31042.999982833862,Fri Feb 28 2025 16:32:38 GMT-0600 (Central Standard Time),759697.5,A,flower,O,r,214,1,8013.799999999814,751683.7000000002,7073,WL,A,12.0
7,30.256999969482422,immed,29743.000030517578,Fri Feb 28 2025 16:32:38 GMT-0600 (Central Standard Time),760997.1000000006,A,flowerenter,O,enter,1285,1,9313.400000000373,751683.7000000002,7073,WL,A,12.0
7,30.872999906539917,immed,29127.000093460083,Fri Feb 28 2025 16:32:38 GMT-0600 (Central Standard Time),761613.5,A,b,O,b,609,1,616.0,760997.5,7073,WL,A,13.0
7,31.156999826431274,immed,28843.000173568726,Fri Feb 28 2025 16:32:38 GMT-0600 (Central Standard Time),761896.9000000004,A,bu,O,u,265,1,899.4000000003725,760997.5,7073,WL,A,13.0
7,31.405999898910522,immed,28594.000101089478,Fri Feb 28 2025 16:32:38 GMT-0600 (Central Standard Time),762146.6000000006,A,but,O,t,229,1,1149.1000000005588,760997.5,7073,WL,A,13.0
7,31.572999954223633,immed,28427.000045776367,Fri Feb 28 2025 16:32:38 GMT-0600 (Central Standard Time),762313.1000000006,A,butt,O,t,148,1,1315.6000000005588,760997.5,7073,WL,A,13.0
7,31.905999898910522,immed,28094.000101089478,Fri Feb 28 2025 16:32:38 GMT-0600 (Central Standard Time),762646.4000000004,A,butto,O,o,325,1,1648.9000000003725,760997.5,7073,WL,A,13.0
7,32.222999811172485,immed,27777.000188827515,Fri Feb 28 2025 16:32:38 GMT-0600 (Central Standard Time),762963.1000000006,A,button,O,n,296,1,1965.6000000005588,760997.5,7073,WL,A,13.0
7,32.57299995422363,immed,27427.000045776367,Fri Feb 28 2025 16:32:38 GMT-0600 (Central Standard Time),763312.9000000004,A,buttonenter,O,enter,339,1,2315.4000000003725,760997.5,7073,WL,A,13.0
7,33.02300000190735,immed,26976.99999809265,Fri Feb 28 2025 16:32:38 GMT-0600 (Central Standard Time),763762.7000000002,A,r,O,r,438,1,449.3999999994412,763313.3000000007,7073,WL,A,14.0
7,33.288999795913696,immed,26711.000204086304,Fri Feb 28 2025 16:32:38 GMT-0600 (Central Standard Time),764029.5,A,rt,O,t,252,1,716.1999999992549,763313.3000000007,7073,WL,A,14.0
7,34.85499978065491,immed,25145.000219345093,Fri Feb 28 2025 16:32:38 GMT-0600 (Central Standard Time),765595.6000000006,A,r,O,backspace,1553,1,2282.2999999998137,763313.3000000007,7073,WL,A,14.0
7,35.204999923706055,immed,24795.000076293945,Fri Feb 28 2025 16:32:38 GMT-0600 (Central Standard Time),765945.5,A,ra,O,a,331,1,2632.199999999255,763313.3000000007,7073,WL,A,14.0
7,35.48899984359741,immed,24511.000156402588,Fri Feb 28 2025 16:32:38 GMT-0600 (Central Standard Time),766228.9000000004,A,rat,O,t,269,1,2915.5999999996275,763313.3000000007,7073,WL,A,14.0
7,35.67199993133545,immed,24328.00006866455,Fri Feb 28 2025 16:32:38 GMT-0600 (Central Standard Time),766412.1000000006,A,ratt,O,t,163,1,3098.7999999998137,763313.3000000007,7073,WL,A,14.0
7,36.85499978065491,immed,23145.000219345093,Fri Feb 28 2025 16:32:38 GMT-0600 (Central Standard Time),767595.4000000004,A,rattl,O,l,1172,1,4282.0999999996275,763313.3000000007,7073,WL,A,14.0
7,37.120999813079834,immed,22879.000186920166,Fri Feb 28 2025 16:32:38 GMT-0600 (Central Standard Time),767861.6000000006,A,rattle,O,e,259,1,4548.299999999814,763313.3000000007,7073,WL,A,14.0
7,38.020999908447266,immed,21979.000091552734,Fri Feb 28 2025 16:32:38 GMT-0600 (Central Standard Time),768761.3000000007,A,rattleenter,O,enter,889,1,5448.0,763313.3000000007,7073,WL,A,14.0
7,38.48799991607666,immed,21512.00008392334,Fri Feb 28 2025 16:32:38 GMT-0600 (Central Standard Time),769228.0,A,enter,O,enter,445,1,466.5,768761.5,7073,WL,A,15.0
