acc_sum,block,block_c,change,condition,correct,correct_response,datetime,endtime,face,project,response,response_time,row_sel,session_number,start_end,starttime,subject_id,task,task_vers,trial
0,prac,1,,1-Back,,,Fri Apr 04 2025 13:48:52 GMT-0500 (Central Daylight Time),,005_o_f_d_a.png,O,space,9917,1,1,,,7097,VNB,B,0
1,prac,1,0.0,1-Back,1,m,Fri Apr 04 2025 13:48:52 GMT-0500 (Central Daylight Time),187816.69999998808,020_y_f_n_a.png,O,m,1489,2,1,2394.199999988079,185422.5,7097,VNB,B,1
2,prac,1,0.0,1-Back,1,m,Fri Apr 04 2025 13:48:52 GMT-0500 (Central Daylight Time),189899.39999997616,007_m_m_h_a.png,O,m,1112,3,1,2046.699999988079,187852.69999998808,7097,VNB,B,2
3,prac,1,0.0,1-Back,1,m,Fri Apr 04 2025 13:48:52 GMT-0500 (Central Daylight Time),191881.19999998808,016_y_m_d_a.png,O,m,1023,4,1,1954.6000000238419,189926.59999996424,7097,VNB,B,3
4,prac,1,0.0,1-Back,1,m,Fri Apr 04 2025 13:48:52 GMT-0500 (Central Daylight Time),193698.09999996424,005_o_f_n_a.png,O,m,884,5,1,1798.3999999761581,191899.69999998808,7097,VNB,B,4
5,prac,1,1.0,1-Back,1,z,Fri Apr 04 2025 13:48:52 GMT-0500 (Central Daylight Time),195750.59999996424,016_y_m_n_a.png,O,z,1088,6,1,2014.5999999642372,193736.0,7097,VNB,B,5
6,prac,1,0.0,1-Back,1,m,Fri Apr 04 2025 13:48:52 GMT-0500 (Central Daylight Time),197813.09999996424,004_o_m_h_a.png,O,m,1142,7,1,2037.8999999761581,195775.19999998808,7097,VNB,B,6
7,prac,1,0.0,1-Back,1,m,Fri Apr 04 2025 13:48:52 GMT-0500 (Central Daylight Time),200162.29999995232,011_m_f_d_a.png,O,m,1395,8,1,2316.2999999523163,197846.0,7097,VNB,B,7
7,prac,1,1.0,1-Back,0,z,Fri Apr 04 2025 13:48:52 GMT-0500 (Central Daylight Time),202128.39999997616,020_y_f_d_a.png,O,m,1021,9,1,1929.199999988079,200199.19999998808,7097,VNB,B,8
8,prac,1,0.0,1-Back,1,m,Fri Apr 04 2025 13:48:52 GMT-0500 (Central Daylight Time),204477.79999995232,007_m_m_n_a.png,O,m,1384,10,1,2315.2999999523163,202162.5,7097,VNB,B,9
9,prac,1,0.0,1-Back,1,m,Fri Apr 04 2025 13:48:52 GMT-0500 (Central Daylight Time),206559.29999995232,005_o_f_h_a.png,O,m,1140,11,1,2050.099999964237,204509.19999998808,7097,VNB,B,10
9,prac,1,0.0,1-Back,0,m,Fri Apr 04 2025 13:48:52 GMT-0500 (Central Daylight Time),209109.39999997616,016_y_m_d_a.png,O,z,1614,12,1,2540.300000011921,206569.09999996424,7097,VNB,B,11
0,test,1,0.0,1-Back,,,Fri Apr 04 2025 13:48:52 GMT-0500 (Central Daylight Time),209109.39999997616,020_y_f_d_a.png,O,space,14383,1,1,2540.300000011921,206569.09999996424,7097,VNB,B,0
1,test,1,0.0,1-Back,1,m,Fri Apr 04 2025 13:48:52 GMT-0500 (Central Daylight Time),234067.79999995232,011_m_f_n_a.png,O,m,1324,2,1,2334.899999976158,231732.89999997616,7097,VNB,B,1
2,test,1,0.0,1-Back,1,m,Fri Apr 04 2025 13:48:52 GMT-0500 (Central Daylight Time),236083.89999997616,004_o_m_h_a.png,O,m,974,3,1,1986.3999999761581,234097.5,7097,VNB,B,2
3,test,1,1.0,1-Back,1,z,Fri Apr 04 2025 13:48:52 GMT-0500 (Central Daylight Time),238282.69999998808,007_m_m_h_a.png,O,z,1149,4,1,2168.100000023842,236114.59999996424,7097,VNB,B,3
4,test,1,0.0,1-Back,1,m,Fri Apr 04 2025 13:48:52 GMT-0500 (Central Daylight Time),240215.59999996424,005_o_f_n_a.png,O,m,912,5,1,1921.300000011921,238294.29999995232,7097,VNB,B,4
5,test,1,0.0,1-Back,1,m,Fri Apr 04 2025 13:48:52 GMT-0500 (Central Daylight Time),242498.39999997616,016_y_m_d_a.png,O,m,1242,6,1,2254.0,240244.39999997616,7097,VNB,B,5
6,test,1,1.0,1-Back,1,z,Fri Apr 04 2025 13:48:52 GMT-0500 (Central Daylight Time),244564.29999995232,011_m_f_d_a.png,O,z,1015,7,1,2041.2999999523163,242523.0,7097,VNB,B,6
7,test,1,0.0,1-Back,1,m,Fri Apr 04 2025 13:48:52 GMT-0500 (Central Daylight Time),246663.59999996424,020_y_f_h_a.png,O,m,1061,8,1,2073.800000011921,244589.79999995232,7097,VNB,B,7
8,test,1,0.0,1-Back,1,m,Fri Apr 04 2025 13:48:52 GMT-0500 (Central Daylight Time),249046.0,004_o_m_n_a.png,O,m,1329,9,1,2352.0,246694.0,7097,VNB,B,8
9,test,1,0.0,1-Back,1,m,Fri Apr 04 2025 13:48:52 GMT-0500 (Central Daylight Time),251112.19999998808,016_y_m_h_a.png,O,m,1019,10,1,2041.699999988079,249070.5,7097,VNB,B,9
10,test,1,0.0,1-Back,1,m,Fri Apr 04 2025 13:48:52 GMT-0500 (Central Daylight Time),253294.59999996424,004_o_m_d_a.png,O,m,1145,11,1,2157.300000011921,251137.29999995232,7097,VNB,B,10
11,test,1,1.0,1-Back,1,z,Fri Apr 04 2025 13:48:52 GMT-0500 (Central Daylight Time),255544.0,005_o_f_d_a.png,O,z,1211,12,1,2218.600000023842,253325.39999997616,7097,VNB,B,11
12,test,1,0.0,1-Back,1,m,Fri Apr 04 2025 13:48:52 GMT-0500 (Central Daylight Time),257509.79999995232,007_m_m_n_a.png,O,m,928,13,1,1943.5,255566.29999995232,7097,VNB,B,12
12,test,1,1.0,1-Back,0,z,Fri Apr 04 2025 13:48:52 GMT-0500 (Central Daylight Time),259359.5,020_y_f_n_a.png,O,m,803,14,1,1824.5,257535.0,7097,VNB,B,13
13,test,1,0.0,1-Back,1,m,Fri Apr 04 2025 13:48:52 GMT-0500 (Central Daylight Time),261408.89999997616,011_m_f_h_a.png,O,m,1003,15,1,2023.0,259385.89999997616,7097,VNB,B,14
14,test,1,0.0,1-Back,1,m,Fri Apr 04 2025 13:48:52 GMT-0500 (Central Daylight Time),263708.09999996424,007_m_m_d_a.png,O,m,1248,16,1,2270.300000011921,261437.79999995232,7097,VNB,B,15
15,test,1,0.0,1-Back,1,m,Fri Apr 04 2025 13:48:52 GMT-0500 (Central Daylight Time),266473.7999999523,016_y_m_n_a.png,O,m,1708,17,1,2735.199999988079,263738.59999996424,7097,VNB,B,16
16,test,1,0.0,1-Back,1,m,Fri Apr 04 2025 13:48:52 GMT-0500 (Central Daylight Time),268673.1999999881,005_o_f_h_a.png,O,m,1143,18,1,2169.900000035763,266503.2999999523,7097,VNB,B,17
0,test,2,0.0,1-Back,,,Fri Apr 04 2025 13:48:52 GMT-0500 (Central Daylight Time),268673.1999999881,016_y_m_n_a.png,O,space,1920,1,1,2169.900000035763,266503.2999999523,7097,VNB,B,0
1,test,2,0.0,1-Back,1,m,Fri Apr 04 2025 13:48:52 GMT-0500 (Central Daylight Time),274754.39999997616,020_y_f_h_a.png,O,m,1093,2,1,2102.399999976158,272652.0,7097,VNB,B,1
1,test,2,1.0,1-Back,0,m,Fri Apr 04 2025 13:48:52 GMT-0500 (Central Daylight Time),277803.6999999881,004_o_m_n_a.png,O,None,2014,3,1,3024.600000023842,274779.09999996424,7097,VNB,B,2
2,test,2,0.0,1-Back,1,m,Fri Apr 04 2025 13:48:52 GMT-0500 (Central Daylight Time),280602.5,011_m_f_d_a.png,O,m,1750,4,1,2773.600000023842,277828.89999997616,7097,VNB,B,3
3,test,2,0.0,1-Back,1,z,Fri Apr 04 2025 13:48:52 GMT-0500 (Central Daylight Time),282701.39999997616,007_m_m_d_a.png,O,z,1063,5,1,2068.899999976158,280632.5,7097,VNB,B,4
4,test,2,0.0,1-Back,1,m,Fri Apr 04 2025 13:48:52 GMT-0500 (Central Daylight Time),284834.39999997616,016_y_m_h_a.png,O,m,1075,6,1,2102.5,282731.89999997616,7097,VNB,B,5
4,test,2,1.0,1-Back,0,z,Fri Apr 04 2025 13:48:52 GMT-0500 (Central Daylight Time),287717.2999999523,005_o_f_h_a.png,O,m,1830,7,1,2846.2999999523163,284871.0,7097,VNB,B,6
5,test,2,0.0,1-Back,1,m,Fri Apr 04 2025 13:48:52 GMT-0500 (Central Daylight Time),289916.1999999881,011_m_f_n_a.png,O,m,1153,8,1,2169.900000035763,287746.2999999523,7097,VNB,B,7
6,test,2,0.0,1-Back,1,m,Fri Apr 04 2025 13:48:52 GMT-0500 (Central Daylight Time),292298.59999996424,020_y_f_d_a.png,O,m,1317,9,1,2357.099999964237,289941.5,7097,VNB,B,8
7,test,2,0.0,1-Back,1,m,Fri Apr 04 2025 13:48:52 GMT-0500 (Central Daylight Time),294314.7999999523,007_m_m_n_a.png,O,m,967,10,1,1991.7999999523163,292323.0,7097,VNB,B,9
8,test,2,1.0,1-Back,1,m,Fri Apr 04 2025 13:48:52 GMT-0500 (Central Daylight Time),296430.2999999523,011_m_f_h_a.png,O,m,1080,11,1,2085.899999976158,294344.39999997616,7097,VNB,B,10
9,test,2,0.0,1-Back,1,z,Fri Apr 04 2025 13:48:52 GMT-0500 (Central Daylight Time),298412.7999999523,004_o_m_h_a.png,O,z,938,12,1,1959.199999988079,296453.59999996424,7097,VNB,B,11
10,test,2,0.0,1-Back,1,m,Fri Apr 04 2025 13:48:52 GMT-0500 (Central Daylight Time),300962.5,016_y_m_d_a.png,O,m,1508,13,1,2534.800000011921,298427.6999999881,7097,VNB,B,12
11,test,2,0.0,1-Back,1,m,Fri Apr 04 2025 13:48:52 GMT-0500 (Central Daylight Time),302944.59999996424,005_o_f_n_a.png,O,m,942,14,1,1956.0,300988.59999996424,7097,VNB,B,13
12,test,2,0.0,1-Back,1,z,Fri Apr 04 2025 13:48:52 GMT-0500 (Central Daylight Time),305094.39999997616,020_y_f_n_a.png,O,z,1121,15,1,2136.600000023842,302957.7999999523,7097,VNB,B,14
13,test,2,1.0,1-Back,1,m,Fri Apr 04 2025 13:48:52 GMT-0500 (Central Daylight Time),307810.39999997616,007_m_m_h_a.png,O,m,1667,16,1,2687.899999976158,305122.5,7097,VNB,B,15
14,test,2,0.0,1-Back,1,m,Fri Apr 04 2025 13:48:52 GMT-0500 (Central Daylight Time),310342.59999996424,005_o_f_d_a.png,O,m,1496,17,1,2508.199999988079,307834.39999997616,7097,VNB,B,16
15,test,2,1.0,1-Back,1,z,Fri Apr 04 2025 13:48:52 GMT-0500 (Central Daylight Time),312425.39999997616,004_o_m_d_a.png,O,z,1043,18,1,2056.399999976158,310369.0,7097,VNB,B,17
0,test,3,1.0,1-Back,,,Fri Apr 04 2025 13:48:52 GMT-0500 (Central Daylight Time),312425.39999997616,005_o_f_h_a.png,O,space,2113,1,1,2056.399999976158,310369.0,7097,VNB,B,0
1,test,3,0.0,1-Back,1,m,Fri Apr 04 2025 13:48:52 GMT-0500 (Central Daylight Time),318873.1999999881,011_m_f_d_a.png,O,m,1144,2,1,2160.0,316713.1999999881,7097,VNB,B,1
2,test,3,1.0,1-Back,1,m,Fri Apr 04 2025 13:48:52 GMT-0500 (Central Daylight Time),321088.59999996424,007_m_m_n_a.png,O,m,1175,3,1,2185.199999988079,318903.39999997616,7097,VNB,B,2
3,test,3,0.0,1-Back,1,z,Fri Apr 04 2025 13:48:52 GMT-0500 (Central Daylight Time),323338.39999997616,005_o_f_n_a.png,O,z,1218,4,1,2241.699999988079,321096.6999999881,7097,VNB,B,3
4,test,3,1.0,1-Back,1,m,Fri Apr 04 2025 13:48:52 GMT-0500 (Central Daylight Time),325654.5,004_o_m_d_a.png,O,m,1271,5,1,2292.300000011921,323362.1999999881,7097,VNB,B,4
5,test,3,0.0,1-Back,1,m,Fri Apr 04 2025 13:48:52 GMT-0500 (Central Daylight Time),327986.59999996424,020_y_f_h_a.png,O,m,1291,6,1,2303.699999988079,325682.89999997616,7097,VNB,B,5
6,test,3,0.0,1-Back,1,z,Fri Apr 04 2025 13:48:52 GMT-0500 (Central Daylight Time),330069.6999999881,016_y_m_h_a.png,O,z,1049,7,1,2066.300000011921,328003.39999997616,7097,VNB,B,6
7,test,3,0.0,1-Back,1,m,Fri Apr 04 2025 13:48:52 GMT-0500 (Central Daylight Time),332102.09999996424,011_m_f_n_a.png,O,m,997,8,1,2005.0999999642372,330097.0,7097,VNB,B,7
8,test,3,0.0,1-Back,1,m,Fri Apr 04 2025 13:48:52 GMT-0500 (Central Daylight Time),334634.89999997616,020_y_f_d_a.png,O,m,1491,9,1,2508.199999988079,332126.6999999881,7097,VNB,B,8
9,test,3,1.0,1-Back,1,m,Fri Apr 04 2025 13:48:52 GMT-0500 (Central Daylight Time),336584.09999996424,004_o_m_n_a.png,O,m,911,10,1,1919.0,334665.09999996424,7097,VNB,B,9
10,test,3,0.0,1-Back,1,m,Fri Apr 04 2025 13:48:52 GMT-0500 (Central Daylight Time),338683.5,007_m_m_h_a.png,O,m,1057,11,1,2070.0,336613.5,7097,VNB,B,10
11,test,3,0.0,1-Back,1,z,Fri Apr 04 2025 13:48:52 GMT-0500 (Central Daylight Time),340616.39999997616,011_m_f_h_a.png,O,z,895,12,1,1907.0,338709.39999997616,7097,VNB,B,11
12,test,3,1.0,1-Back,1,m,Fri Apr 04 2025 13:48:52 GMT-0500 (Central Daylight Time),342749.1999999881,005_o_f_d_a.png,O,m,1097,13,1,2110.0,340639.1999999881,7097,VNB,B,12
13,test,3,0.0,1-Back,1,z,Fri Apr 04 2025 13:48:52 GMT-0500 (Central Daylight Time),344781.2999999523,007_m_m_d_a.png,O,z,997,14,1,2010.0999999642372,342771.1999999881,7097,VNB,B,13
14,test,3,0.0,1-Back,1,m,Fri Apr 04 2025 13:48:52 GMT-0500 (Central Daylight Time),346864.09999996424,016_y_m_n_a.png,O,m,1044,15,1,2057.300000011921,344806.7999999523,7097,VNB,B,14
15,test,3,1.0,1-Back,1,m,Fri Apr 04 2025 13:48:52 GMT-0500 (Central Daylight Time),349213.2999999523,004_o_m_h_a.png,O,m,1289,16,1,2315.599999964237,346897.6999999881,7097,VNB,B,15
16,test,3,0.0,1-Back,1,m,Fri Apr 04 2025 13:48:52 GMT-0500 (Central Daylight Time),351462.6999999881,016_y_m_d_a.png,O,m,1205,17,1,2221.100000023842,349241.59999996424,7097,VNB,B,16
17,test,3,1.0,1-Back,1,m,Fri Apr 04 2025 13:48:52 GMT-0500 (Central Daylight Time),353745.1999999881,020_y_f_n_a.png,O,m,1218,18,1,2249.800000011921,351495.39999997616,7097,VNB,B,17
0,test,4,1.0,1-Back,,,Fri Apr 04 2025 13:48:52 GMT-0500 (Central Daylight Time),353745.1999999881,007_m_m_d_a.png,O,space,1832,1,1,2249.800000011921,351495.39999997616,7097,VNB,B,0
1,test,4,0.0,1-Back,1,z,Fri Apr 04 2025 13:48:52 GMT-0500 (Central Daylight Time),359276.89999997616,004_o_m_d_a.png,O,z,616,2,1,1637.0,357639.89999997616,7097,VNB,B,1
2,test,4,0.0,1-Back,1,m,Fri Apr 04 2025 13:48:52 GMT-0500 (Central Daylight Time),361359.39999997616,016_y_m_h_a.png,O,m,1045,3,1,2058.699999988079,359300.6999999881,7097,VNB,B,2
3,test,4,0.0,1-Back,1,m,Fri Apr 04 2025 13:48:52 GMT-0500 (Central Daylight Time),363925.0,011_m_f_n_a.png,O,m,1498,4,1,2532.900000035763,361392.09999996424,7097,VNB,B,3
4,test,4,1.0,1-Back,1,m,Fri Apr 04 2025 13:48:52 GMT-0500 (Central Daylight Time),366357.7999999523,005_o_f_h_a.png,O,m,1388,5,1,2405.0,363952.7999999523,7097,VNB,B,4
5,test,4,0.0,1-Back,1,m,Fri Apr 04 2025 13:48:52 GMT-0500 (Central Daylight Time),368390.2999999523,007_m_m_n_a.png,O,m,988,6,1,2009.8999999761581,366380.39999997616,7097,VNB,B,5
6,test,4,0.0,1-Back,1,m,Fri Apr 04 2025 13:48:52 GMT-0500 (Central Daylight Time),370673.0,016_y_m_d_a.png,O,m,1235,7,1,2256.400000035763,368416.59999996424,7097,VNB,B,6
7,test,4,1.0,1-Back,1,z,Fri Apr 04 2025 13:48:52 GMT-0500 (Central Daylight Time),372838.89999997616,020_y_f_d_a.png,O,z,1121,8,1,2140.300000011921,370698.59999996424,7097,VNB,B,7
8,test,4,0.0,1-Back,1,m,Fri Apr 04 2025 13:48:52 GMT-0500 (Central Daylight Time),374904.7999999523,011_m_f_h_a.png,O,m,1020,9,1,2038.0,372866.7999999523,7097,VNB,B,8
9,test,4,0.0,1-Back,1,z,Fri Apr 04 2025 13:48:52 GMT-0500 (Central Daylight Time),377070.7999999523,004_o_m_h_a.png,O,z,1121,10,1,2140.5,374930.2999999523,7097,VNB,B,9
10,test,4,1.0,1-Back,1,m,Fri Apr 04 2025 13:48:52 GMT-0500 (Central Daylight Time),379253.5,005_o_f_n_a.png,O,m,1138,11,1,2157.0,377096.5,7097,VNB,B,10
11,test,4,0.0,1-Back,1,m,Fri Apr 04 2025 13:48:52 GMT-0500 (Central Daylight Time),381502.59999996424,011_m_f_d_a.png,O,m,1212,12,1,2222.399999976158,379280.1999999881,7097,VNB,B,11
12,test,4,0.0,1-Back,1,m,Fri Apr 04 2025 13:48:52 GMT-0500 (Central Daylight Time),383535.39999997616,020_y_f_n_a.png,O,m,970,13,1,1998.300000011921,381537.09999996424,7097,VNB,B,12
13,test,4,0.0,1-Back,1,m,Fri Apr 04 2025 13:48:52 GMT-0500 (Central Daylight Time),386134.5,005_o_f_d_a.png,O,m,1538,14,1,2563.2000000476837,383571.2999999523,7097,VNB,B,13
14,test,4,0.0,1-Back,1,m,Fri Apr 04 2025 13:48:52 GMT-0500 (Central Daylight Time),388301.0,020_y_f_h_a.png,O,m,1114,15,1,2124.800000011921,386176.1999999881,7097,VNB,B,14
15,test,4,1.0,1-Back,1,z,Fri Apr 04 2025 13:48:52 GMT-0500 (Central Daylight Time),390466.2999999523,007_m_m_h_a.png,O,z,1117,16,1,2141.699999988079,388324.59999996424,7097,VNB,B,15
16,test,4,0.0,1-Back,1,m,Fri Apr 04 2025 13:48:52 GMT-0500 (Central Daylight Time),392465.59999996424,004_o_m_n_a.png,O,m,957,17,1,1972.3999999761581,390493.1999999881,7097,VNB,B,16
16,test,4,1.0,1-Back,0,z,Fri Apr 04 2025 13:48:52 GMT-0500 (Central Daylight Time),394381.6999999881,016_y_m_n_a.png,O,m,874,18,1,1895.800000011921,392485.89999997616,7097,VNB,B,17
0,test,5,1.0,1-Back,,,Fri Apr 04 2025 13:48:52 GMT-0500 (Central Daylight Time),394381.6999999881,004_o_m_n_a.png,O,space,4262,1,1,1895.800000011921,392485.89999997616,7097,VNB,B,0
1,test,5,1.0,1-Back,1,m,Fri Apr 04 2025 13:48:52 GMT-0500 (Central Daylight Time),403012.39999997616,005_o_f_h_a.png,O,m,1290,2,1,2314.199999988079,400698.1999999881,7097,VNB,B,1
2,test,5,0.0,1-Back,1,m,Fri Apr 04 2025 13:48:52 GMT-0500 (Central Daylight Time),405245.39999997616,016_y_m_d_a.png,O,m,1198,3,1,2207.199999988079,403038.1999999881,7097,VNB,B,2
2,test,5,0.0,1-Back,0,z,Fri Apr 04 2025 13:48:52 GMT-0500 (Central Daylight Time),408294.1999999881,004_o_m_d_a.png,O,None,2014,4,1,3028.300000011921,405265.89999997616,7097,VNB,B,3
3,test,5,0.0,1-Back,1,m,Fri Apr 04 2025 13:48:52 GMT-0500 (Central Daylight Time),410626.5,011_m_f_h_a.png,O,m,1293,5,1,2307.300000011921,408319.1999999881,7097,VNB,B,4
4,test,5,0.0,1-Back,1,m,Fri Apr 04 2025 13:48:52 GMT-0500 (Central Daylight Time),412775.6999999881,020_y_f_n_a.png,O,m,1086,6,1,2117.699999988079,410658.0,7097,VNB,B,5
5,test,5,1.0,1-Back,1,z,Fri Apr 04 2025 13:48:52 GMT-0500 (Central Daylight Time),414909.09999996424,005_o_f_n_a.png,O,z,1081,7,1,2091.699999988079,412817.39999997616,7097,VNB,B,6
6,test,5,0.0,1-Back,1,m,Fri Apr 04 2025 13:48:52 GMT-0500 (Central Daylight Time),417474.39999997616,011_m_f_d_a.png,O,m,1508,8,1,2533.800000011921,414940.59999996424,7097,VNB,B,7
7,test,5,0.0,1-Back,1,m,Fri Apr 04 2025 13:48:52 GMT-0500 (Central Daylight Time),419523.5,016_y_m_h_a.png,O,m,1010,9,1,2026.0,417497.5,7097,VNB,B,8
8,test,5,0.0,1-Back,1,m,Fri Apr 04 2025 13:48:52 GMT-0500 (Central Daylight Time),421672.89999997616,020_y_f_d_a.png,O,m,1111,10,1,2123.300000011921,419549.59999996424,7097,VNB,B,9
8,test,5,0.0,1-Back,0,m,Fri Apr 04 2025 13:48:52 GMT-0500 (Central Daylight Time),424472.0,007_m_m_n_a.png,O,z,1753,11,1,2774.5,421697.5,7097,VNB,B,10
9,test,5,1.0,1-Back,1,z,Fri Apr 04 2025 13:48:52 GMT-0500 (Central Daylight Time),427137.89999997616,011_m_f_n_a.png,O,z,1625,12,1,2635.5,424502.39999997616,7097,VNB,B,11
10,test,5,0.0,1-Back,1,m,Fri Apr 04 2025 13:48:52 GMT-0500 (Central Daylight Time),429037.39999997616,004_o_m_h_a.png,O,m,865,13,1,1869.800000011921,427167.59999996424,7097,VNB,B,12
11,test,5,0.0,1-Back,1,z,Fri Apr 04 2025 13:48:52 GMT-0500 (Central Daylight Time),431853.0,007_m_m_h_a.png,O,z,1766,14,1,2789.7000000476837,429063.2999999523,7097,VNB,B,13
12,test,5,1.0,1-Back,1,m,Fri Apr 04 2025 13:48:52 GMT-0500 (Central Daylight Time),433869.39999997616,005_o_f_d_a.png,O,m,982,15,1,1987.1000000238419,431882.2999999523,7097,VNB,B,14
12,test,5,0.0,1-Back,0,m,Fri Apr 04 2025 13:48:52 GMT-0500 (Central Daylight Time),436917.89999997616,016_y_m_n_a.png,O,None,2014,16,1,3022.899999976158,433895.0,7097,VNB,B,15
13,test,5,0.0,1-Back,1,m,Fri Apr 04 2025 13:48:52 GMT-0500 (Central Daylight Time),438983.89999997616,020_y_f_h_a.png,O,m,1020,17,1,2041.8999999761581,436942.0,7097,VNB,B,16
14,test,5,0.0,1-Back,1,m,Fri Apr 04 2025 13:48:52 GMT-0500 (Central Daylight Time),441032.89999997616,007_m_m_d_a.png,O,m,1014,18,1,2021.6000000238419,439011.2999999523,7097,VNB,B,17
0,prac,1,0.0,2-Back,,,Fri Apr 04 2025 13:48:52 GMT-0500 (Central Daylight Time),441032.89999997616,011_m_f_n_a.png,O,space,9266,1,1,2021.6000000238419,439011.2999999523,7097,VNB,B,0
0,prac,1,0.0,2-Back,,,Fri Apr 04 2025 13:48:52 GMT-0500 (Central Daylight Time),441032.89999997616,005_o_f_h_a.png,O,space,9266,2,1,2021.6000000238419,439011.2999999523,7097,VNB,B,0
1,prac,1,0.0,2-Back,1,m,Fri Apr 04 2025 13:48:52 GMT-0500 (Central Daylight Time),559560.5999999642,004_o_m_d_a.png,O,m,1349,3,1,2258.5,557302.0999999642,7097,VNB,B,1
1,prac,1,1.0,2-Back,0,z,Fri Apr 04 2025 13:48:52 GMT-0500 (Central Daylight Time),562525.7999999523,007_m_m_h_a.png,O,None,2013,4,1,2948.2999999523163,559577.5,7097,VNB,B,2
2,prac,1,0.0,2-Back,1,m,Fri Apr 04 2025 13:48:52 GMT-0500 (Central Daylight Time),564991.7999999523,020_y_f_n_a.png,O,m,1538,5,1,2454.0,562537.7999999523,7097,VNB,B,3
3,prac,1,1.0,2-Back,1,z,Fri Apr 04 2025 13:48:52 GMT-0500 (Central Daylight Time),566974.5999999642,004_o_m_h_a.png,O,z,1067,6,1,1974.199999988079,565000.3999999762,7097,VNB,B,4
3,prac,1,1.0,2-Back,0,z,Fri Apr 04 2025 13:48:52 GMT-0500 (Central Daylight Time),569290.5,016_y_m_n_a.png,O,m,1361,7,1,2296.600000023842,566993.8999999762,7097,VNB,B,5
4,prac,1,0.0,2-Back,1,m,Fri Apr 04 2025 13:48:52 GMT-0500 (Central Daylight Time),571406.3999999762,011_m_f_d_a.png,O,m,1182,8,1,2107.5,569298.8999999762,7097,VNB,B,6
5,prac,1,0.0,2-Back,1,m,Fri Apr 04 2025 13:48:52 GMT-0500 (Central Daylight Time),573605.5,005_o_f_d_a.png,O,m,1261,9,1,2189.0,571416.5,7097,VNB,B,7
6,prac,1,0.0,2-Back,1,m,Fri Apr 04 2025 13:48:52 GMT-0500 (Central Daylight Time),575521.5999999642,007_m_m_h_a.png,O,m,986,10,1,1907.8999999761581,573613.6999999881,7097,VNB,B,8
7,prac,1,1.0,2-Back,1,z,Fri Apr 04 2025 13:48:52 GMT-0500 (Central Daylight Time),578170.8999999762,020_y_f_d_a.png,O,z,1733,11,1,2639.699999988079,575531.1999999881,7097,VNB,B,9
8,prac,1,0.0,2-Back,1,m,Fri Apr 04 2025 13:48:52 GMT-0500 (Central Daylight Time),580153.5,004_o_m_n_a.png,O,m,1071,12,1,1974.300000011921,578179.1999999881,7097,VNB,B,10
0,test,1,0.0,2-Back,,,Fri Apr 04 2025 13:48:52 GMT-0500 (Central Daylight Time),580153.5,016_y_m_h_a.png,O,space,13390,1,1,1974.300000011921,578179.1999999881,7097,VNB,B,0
0,test,1,0.0,2-Back,,,Fri Apr 04 2025 13:48:52 GMT-0500 (Central Daylight Time),580153.5,005_o_f_n_a.png,O,space,13390,2,1,1974.300000011921,578179.1999999881,7097,VNB,B,0
1,test,1,0.0,2-Back,1,z,Fri Apr 04 2025 13:48:52 GMT-0500 (Central Daylight Time),608477.3999999762,004_o_m_h_a.png,O,z,1013,3,1,2025.3999999761581,606452.0,7097,VNB,B,1
2,test,1,0.0,2-Back,1,m,Fri Apr 04 2025 13:48:52 GMT-0500 (Central Daylight Time),610993.1999999881,011_m_f_d_a.png,O,m,1493,4,1,2511.100000023842,608482.0999999642,7097,VNB,B,2
3,test,1,1.0,2-Back,1,m,Fri Apr 04 2025 13:48:52 GMT-0500 (Central Daylight Time),613792.3999999762,016_y_m_n_a.png,O,m,1776,5,1,2794.399999976158,610998.0,7097,VNB,B,3
4,test,1,0.0,2-Back,1,z,Fri Apr 04 2025 13:48:52 GMT-0500 (Central Daylight Time),615958.3999999762,020_y_f_d_a.png,O,z,1138,6,1,2160.300000011921,613798.0999999642,7097,VNB,B,4
5,test,1,0.0,2-Back,1,m,Fri Apr 04 2025 13:48:52 GMT-0500 (Central Daylight Time),618524.2999999523,007_m_m_h_a.png,O,m,1540,7,1,2560.699999988079,615963.5999999642,7097,VNB,B,5
6,test,1,1.0,2-Back,1,m,Fri Apr 04 2025 13:48:52 GMT-0500 (Central Daylight Time),620523.3999999762,020_y_f_n_a.png,O,m,982,8,1,1994.0,618529.3999999762,7097,VNB,B,6
7,test,1,0.0,2-Back,1,z,Fri Apr 04 2025 13:48:52 GMT-0500 (Central Daylight Time),622572.7999999523,005_o_f_h_a.png,O,z,1031,9,1,2043.199999988079,620529.5999999642,7097,VNB,B,7
8,test,1,0.0,2-Back,1,m,Fri Apr 04 2025 13:48:52 GMT-0500 (Central Daylight Time),624739.5999999642,004_o_m_d_a.png,O,m,1131,10,1,2162.199999988079,622577.3999999762,7097,VNB,B,8
8,test,1,1.0,2-Back,0,m,Fri Apr 04 2025 13:48:52 GMT-0500 (Central Daylight Time),627788.0999999642,007_m_m_d_a.png,O,None,2016,11,1,3023.099999964237,624765.0,7097,VNB,B,9
9,test,1,0.0,2-Back,1,m,Fri Apr 04 2025 13:48:52 GMT-0500 (Central Daylight Time),630403.5,011_m_f_n_a.png,O,m,1582,12,1,2610.300000011921,627793.1999999881,7097,VNB,B,10
10,test,1,0.0,2-Back,1,m,Fri Apr 04 2025 13:48:52 GMT-0500 (Central Daylight Time),632619.6999999881,020_y_f_h_a.png,O,m,1191,13,1,2211.600000023842,630408.0999999642,7097,VNB,B,11
11,test,1,0.0,2-Back,1,z,Fri Apr 04 2025 13:48:52 GMT-0500 (Central Daylight Time),634735.5,007_m_m_n_a.png,O,z,1086,14,1,2110.300000011921,632625.1999999881,7097,VNB,B,12
12,test,1,0.0,2-Back,1,m,Fri Apr 04 2025 13:48:52 GMT-0500 (Central Daylight Time),636818.0999999642,016_y_m_d_a.png,O,m,1059,15,1,2077.800000011921,634740.2999999523,7097,VNB,B,13
13,test,1,1.0,2-Back,1,m,Fri Apr 04 2025 13:48:52 GMT-0500 (Central Daylight Time),639383.7999999523,011_m_f_h_a.png,O,m,1536,16,1,2560.7999999523163,636823.0,7097,VNB,B,14
14,test,1,0.0,2-Back,1,z,Fri Apr 04 2025 13:48:52 GMT-0500 (Central Daylight Time),641500.0,005_o_f_d_a.png,O,z,1090,17,1,2111.400000035763,639388.5999999642,7097,VNB,B,15
15,test,1,0.0,2-Back,1,m,Fri Apr 04 2025 13:48:52 GMT-0500 (Central Daylight Time),643932.3999999762,004_o_m_n_a.png,O,m,1406,18,1,2425.800000011921,641506.5999999642,7097,VNB,B,16
0,test,2,0.0,2-Back,,,Fri Apr 04 2025 13:48:52 GMT-0500 (Central Daylight Time),643932.3999999762,007_m_m_h_a.png,O,space,2749,1,1,2425.800000011921,641506.5999999642,7097,VNB,B,0
0,test,2,0.0,2-Back,,,Fri Apr 04 2025 13:48:52 GMT-0500 (Central Daylight Time),643932.3999999762,020_y_f_n_a.png,O,space,2749,2,1,2425.800000011921,641506.5999999642,7097,VNB,B,0
1,test,2,1.0,2-Back,1,z,Fri Apr 04 2025 13:48:52 GMT-0500 (Central Daylight Time),653762.5999999642,005_o_f_h_a.png,O,z,742,3,1,1760.0,652002.5999999642,7097,VNB,B,1
2,test,2,0.0,2-Back,1,m,Fri Apr 04 2025 13:48:52 GMT-0500 (Central Daylight Time),656095.0,004_o_m_d_a.png,O,m,1308,4,1,2325.2000000476837,653769.7999999523,7097,VNB,B,2
3,test,2,0.0,2-Back,1,m,Fri Apr 04 2025 13:48:52 GMT-0500 (Central Daylight Time),658427.6999999881,011_m_f_d_a.png,O,m,1315,5,1,2326.900000035763,656100.7999999523,7097,VNB,B,3
4,test,2,0.0,2-Back,1,m,Fri Apr 04 2025 13:48:52 GMT-0500 (Central Daylight Time),660743.5,016_y_m_h_a.png,O,m,1295,6,1,2309.900000035763,658433.5999999642,7097,VNB,B,4
5,test,2,0.0,2-Back,1,m,Fri Apr 04 2025 13:48:52 GMT-0500 (Central Daylight Time),662892.7999999523,005_o_f_n_a.png,O,m,1130,7,1,2143.2999999523163,660749.5,7097,VNB,B,5
6,test,2,1.0,2-Back,1,z,Fri Apr 04 2025 13:48:52 GMT-0500 (Central Daylight Time),664792.1999999881,004_o_m_h_a.png,O,z,869,8,1,1893.0,662899.1999999881,7097,VNB,B,6
7,test,2,0.0,2-Back,1,m,Fri Apr 04 2025 13:48:52 GMT-0500 (Central Daylight Time),666958.0999999642,020_y_f_d_a.png,O,m,1146,9,1,2159.699999988079,664798.3999999762,7097,VNB,B,7
8,test,2,0.0,2-Back,1,m,Fri Apr 04 2025 13:48:52 GMT-0500 (Central Daylight Time),669507.2999999523,016_y_m_d_a.png,O,m,1524,10,1,2544.399999976158,666962.8999999762,7097,VNB,B,8
8,test,2,0.0,2-Back,0,m,Fri Apr 04 2025 13:48:52 GMT-0500 (Central Daylight Time),672206.3999999762,007_m_m_n_a.png,O,z,1679,11,1,2694.899999976158,669511.5,7097,VNB,B,9
9,test,2,0.0,2-Back,1,m,Fri Apr 04 2025 13:48:52 GMT-0500 (Central Daylight Time),674605.6999999881,011_m_f_h_a.png,O,m,1372,12,1,2392.5,672213.1999999881,7097,VNB,B,10
10,test,2,1.0,2-Back,1,z,Fri Apr 04 2025 13:48:52 GMT-0500 (Central Daylight Time),677221.6999999881,004_o_m_n_a.png,O,z,1596,13,1,2607.699999988079,674614.0,7097,VNB,B,11
10,test,2,0.0,2-Back,0,m,Fri Apr 04 2025 13:48:52 GMT-0500 (Central Daylight Time),680254.1999999881,005_o_f_d_a.png,O,None,2016,14,1,3026.199999988079,677228.0,7097,VNB,B,12
11,test,2,0.0,2-Back,1,m,Fri Apr 04 2025 13:48:52 GMT-0500 (Central Daylight Time),682736.3999999762,020_y_f_h_a.png,O,m,1460,15,1,2476.600000023842,680259.7999999523,7097,VNB,B,13
11,test,2,0.0,2-Back,0,z,Fri Apr 04 2025 13:48:52 GMT-0500 (Central Daylight Time),685485.6999999881,007_m_m_d_a.png,O,m,1730,16,1,2744.0,682741.6999999881,7097,VNB,B,14
12,test,2,0.0,2-Back,1,m,Fri Apr 04 2025 13:48:52 GMT-0500 (Central Daylight Time),687834.6999999881,016_y_m_n_a.png,O,m,1325,17,1,2344.699999988079,685490.0,7097,VNB,B,15
12,test,2,1.0,2-Back,0,m,Fri Apr 04 2025 13:48:52 GMT-0500 (Central Daylight Time),689933.8999999762,011_m_f_n_a.png,O,z,1079,18,1,2094.699999988079,687839.1999999881,7097,VNB,B,16
0,test,3,1.0,2-Back,,,Fri Apr 04 2025 13:48:52 GMT-0500 (Central Daylight Time),689933.8999999762,004_o_m_n_a.png,O,space,1674,1,1,2094.699999988079,687839.1999999881,7097,VNB,B,0
0,test,3,1.0,2-Back,,,Fri Apr 04 2025 13:48:52 GMT-0500 (Central Daylight Time),689933.8999999762,005_o_f_d_a.png,O,space,1674,2,1,2094.699999988079,687839.1999999881,7097,VNB,B,0
1,test,3,0.0,2-Back,1,m,Fri Apr 04 2025 13:48:52 GMT-0500 (Central Daylight Time),699597.6999999881,020_y_f_h_a.png,O,m,1672,3,1,2694.900000035763,696902.7999999523,7097,VNB,B,1
2,test,3,0.0,2-Back,1,z,Fri Apr 04 2025 13:48:52 GMT-0500 (Central Daylight Time),701880.0999999642,011_m_f_d_a.png,O,z,1261,4,1,2272.599999964237,699607.5,7097,VNB,B,2
3,test,3,1.0,2-Back,1,m,Fri Apr 04 2025 13:48:52 GMT-0500 (Central Daylight Time),703979.5,016_y_m_n_a.png,O,m,1075,5,1,2094.400000035763,701885.0999999642,7097,VNB,B,3
3,test,3,0.0,2-Back,0,m,Fri Apr 04 2025 13:48:52 GMT-0500 (Central Daylight Time),706162.0999999642,004_o_m_h_a.png,O,z,1151,6,1,2176.800000011921,703985.2999999523,7097,VNB,B,4
4,test,3,0.0,2-Back,1,z,Fri Apr 04 2025 13:48:52 GMT-0500 (Central Daylight Time),708261.1999999881,020_y_f_n_a.png,O,z,1080,7,1,2092.199999988079,706169.0,7097,VNB,B,5
5,test,3,1.0,2-Back,1,m,Fri Apr 04 2025 13:48:52 GMT-0500 (Central Daylight Time),710144.0,007_m_m_d_a.png,O,m,853,8,1,1876.0,708268.0,7097,VNB,B,6
6,test,3,0.0,2-Back,1,m,Fri Apr 04 2025 13:48:52 GMT-0500 (Central Daylight Time),712560.0,016_y_m_d_a.png,O,m,1386,9,1,2406.5,710153.5,7097,VNB,B,7
7,test,3,0.0,2-Back,1,m,Fri Apr 04 2025 13:48:52 GMT-0500 (Central Daylight Time),714842.6999999881,005_o_f_h_a.png,O,m,1258,10,1,2277.600000023842,712565.0999999642,7097,VNB,B,8
8,test,3,1.0,2-Back,1,m,Fri Apr 04 2025 13:48:52 GMT-0500 (Central Daylight Time),717041.8999999762,011_m_f_n_a.png,O,m,1176,11,1,2194.100000023842,714847.7999999523,7097,VNB,B,9
9,test,3,1.0,2-Back,1,z,Fri Apr 04 2025 13:48:52 GMT-0500 (Central Daylight Time),718841.1999999881,007_m_m_h_a.png,O,z,777,12,1,1794.4000000357628,717046.7999999523,7097,VNB,B,10
10,test,3,0.0,2-Back,1,m,Fri Apr 04 2025 13:48:52 GMT-0500 (Central Daylight Time),721057.0,020_y_f_d_a.png,O,m,1193,13,1,2211.100000023842,718845.8999999762,7097,VNB,B,11
11,test,3,0.0,2-Back,1,m,Fri Apr 04 2025 13:48:52 GMT-0500 (Central Daylight Time),723389.6999999881,005_o_f_n_a.png,O,m,1304,14,1,2328.100000023842,721061.5999999642,7097,VNB,B,12
12,test,3,0.0,2-Back,1,z,Fri Apr 04 2025 13:48:52 GMT-0500 (Central Daylight Time),726155.3999999762,004_o_m_d_a.png,O,z,1740,15,1,2758.5,723396.8999999762,7097,VNB,B,13
13,test,3,1.0,2-Back,1,m,Fri Apr 04 2025 13:48:52 GMT-0500 (Central Daylight Time),729037.8999999762,011_m_f_h_a.png,O,m,1862,16,1,2877.800000011921,726160.0999999642,7097,VNB,B,14
13,test,3,0.0,2-Back,0,m,Fri Apr 04 2025 13:48:52 GMT-0500 (Central Daylight Time),731270.3999999762,007_m_m_n_a.png,O,z,1212,17,1,2227.699999988079,729042.6999999881,7097,VNB,B,15
13,test,3,0.0,2-Back,0,z,Fri Apr 04 2025 13:48:52 GMT-0500 (Central Daylight Time),733503.0,016_y_m_h_a.png,O,m,1212,18,1,2228.300000011921,731274.6999999881,7097,VNB,B,16
0,test,4,0.0,2-Back,,,Fri Apr 04 2025 13:48:52 GMT-0500 (Central Daylight Time),733503.0,011_m_f_n_a.png,O,space,1923,1,1,2228.300000011921,731274.6999999881,7097,VNB,B,0
0,test,4,0.0,2-Back,,,Fri Apr 04 2025 13:48:52 GMT-0500 (Central Daylight Time),733503.0,004_o_m_n_a.png,O,space,1923,2,1,2228.300000011921,731274.6999999881,7097,VNB,B,0
1,test,4,1.0,2-Back,1,m,Fri Apr 04 2025 13:48:52 GMT-0500 (Central Daylight Time),742766.5999999642,016_y_m_h_a.png,O,m,1012,3,1,2024.199999988079,740742.3999999762,7097,VNB,B,1
2,test,4,1.0,2-Back,1,m,Fri Apr 04 2025 13:48:52 GMT-0500 (Central Daylight Time),745499.0999999642,005_o_f_d_a.png,O,m,1707,4,1,2727.300000011921,742771.7999999523,7097,VNB,B,2
3,test,4,0.0,2-Back,1,z,Fri Apr 04 2025 13:48:52 GMT-0500 (Central Daylight Time),748298.3999999762,004_o_m_h_a.png,O,z,1767,5,1,2794.399999976158,745504.0,7097,VNB,B,3
4,test,4,0.0,2-Back,1,m,Fri Apr 04 2025 13:48:52 GMT-0500 (Central Daylight Time),751247.1999999881,007_m_m_n_a.png,O,m,1928,6,1,2942.199999988079,748305.0,7097,VNB,B,4
4,test,4,0.0,2-Back,0,m,Fri Apr 04 2025 13:48:52 GMT-0500 (Central Daylight Time),753763.0,011_m_f_d_a.png,O,z,1491,7,1,2507.300000011921,751255.6999999881,7097,VNB,B,5
5,test,4,0.0,2-Back,1,z,Fri Apr 04 2025 13:48:52 GMT-0500 (Central Daylight Time),755928.8999999762,020_y_f_n_a.png,O,z,1143,8,1,2159.899999976158,753769.0,7097,VNB,B,6
6,test,4,1.0,2-Back,1,m,Fri Apr 04 2025 13:48:52 GMT-0500 (Central Daylight Time),758044.8999999762,005_o_f_h_a.png,O,m,1097,9,1,2111.199999988079,755933.6999999881,7097,VNB,B,7
7,test,4,0.0,2-Back,1,m,Fri Apr 04 2025 13:48:52 GMT-0500 (Central Daylight Time),760510.6999999881,007_m_m_h_a.png,O,m,1437,10,1,2461.199999988079,758049.5,7097,VNB,B,8
8,test,4,0.0,2-Back,1,m,Fri Apr 04 2025 13:48:52 GMT-0500 (Central Daylight Time),762693.5,020_y_f_d_a.png,O,m,1155,11,1,2178.0,760515.5,7097,VNB,B,9
9,test,4,0.0,2-Back,1,m,Fri Apr 04 2025 13:48:52 GMT-0500 (Central Daylight Time),764842.5999999642,016_y_m_n_a.png,O,m,1125,12,1,2144.399999976158,762698.1999999881,7097,VNB,B,10
10,test,4,0.0,2-Back,1,z,Fri Apr 04 2025 13:48:52 GMT-0500 (Central Daylight Time),767392.0,004_o_m_d_a.png,O,z,1519,13,1,2544.7000000476837,764847.2999999523,7097,VNB,B,11
11,test,4,1.0,2-Back,1,m,Fri Apr 04 2025 13:48:52 GMT-0500 (Central Daylight Time),769524.5,011_m_f_h_a.png,O,m,1115,14,1,2127.5,767397.0,7097,VNB,B,12
12,test,4,1.0,2-Back,1,m,Fri Apr 04 2025 13:48:52 GMT-0500 (Central Daylight Time),771957.1999999881,020_y_f_h_a.png,O,m,1406,15,1,2424.900000035763,769532.2999999523,7097,VNB,B,13
13,test,4,0.0,2-Back,1,m,Fri Apr 04 2025 13:48:52 GMT-0500 (Central Daylight Time),774323.0,005_o_f_n_a.png,O,m,1341,16,1,2361.100000023842,771961.8999999762,7097,VNB,B,14
14,test,4,0.0,2-Back,1,m,Fri Apr 04 2025 13:48:52 GMT-0500 (Central Daylight Time),776488.8999999762,016_y_m_d_a.png,O,m,1143,17,1,2159.0,774329.8999999762,7097,VNB,B,15
15,test,4,1.0,2-Back,1,m,Fri Apr 04 2025 13:48:52 GMT-0500 (Central Daylight Time),778671.6999999881,007_m_m_d_a.png,O,m,1153,18,1,2178.300000011921,776493.3999999762,7097,VNB,B,16
0,test,5,1.0,2-Back,,,Fri Apr 04 2025 13:48:52 GMT-0500 (Central Daylight Time),778671.6999999881,020_y_f_d_a.png,O,space,2419,1,1,2178.300000011921,776493.3999999762,7097,VNB,B,0
0,test,5,1.0,2-Back,,,Fri Apr 04 2025 13:48:52 GMT-0500 (Central Daylight Time),778671.6999999881,005_o_f_h_a.png,O,space,2419,2,1,2178.300000011921,776493.3999999762,7097,VNB,B,0
1,test,5,1.0,2-Back,1,z,Fri Apr 04 2025 13:48:52 GMT-0500 (Central Daylight Time),788535.0,004_o_m_d_a.png,O,z,1112,3,1,2125.300000011921,786409.6999999881,7097,VNB,B,1
2,test,5,1.0,2-Back,1,m,Fri Apr 04 2025 13:48:52 GMT-0500 (Central Daylight Time),790950.7999999523,011_m_f_n_a.png,O,m,1395,4,1,2410.7999999523163,788540.0,7097,VNB,B,2
2,test,5,0.0,2-Back,0,m,Fri Apr 04 2025 13:48:52 GMT-0500 (Central Daylight Time),793716.5999999642,007_m_m_h_a.png,O,z,1747,5,1,2759.5,790957.0999999642,7097,VNB,B,3
2,test,5,0.0,2-Back,0,z,Fri Apr 04 2025 13:48:52 GMT-0500 (Central Daylight Time),796465.5999999642,020_y_f_n_a.png,O,m,1723,6,1,2744.300000011921,793721.2999999523,7097,VNB,B,4
2,test,5,0.0,2-Back,0,m,Fri Apr 04 2025 13:48:52 GMT-0500 (Central Daylight Time),798765.0,005_o_f_d_a.png,O,z,1273,7,1,2294.2000000476837,796470.7999999523,7097,VNB,B,5
3,test,5,0.0,2-Back,1,m,Fri Apr 04 2025 13:48:52 GMT-0500 (Central Daylight Time),801097.5,004_o_m_h_a.png,O,m,1309,8,1,2327.400000035763,798770.0999999642,7097,VNB,B,6
4,test,5,1.0,2-Back,1,z,Fri Apr 04 2025 13:48:52 GMT-0500 (Central Daylight Time),803130.1999999881,011_m_f_d_a.png,O,z,1001,9,1,2026.800000011921,801103.3999999762,7097,VNB,B,7
5,test,5,0.0,2-Back,1,m,Fri Apr 04 2025 13:48:52 GMT-0500 (Central Daylight Time),805079.5,016_y_m_n_a.png,O,m,928,10,1,1944.6000000238419,803134.8999999762,7097,VNB,B,8
6,test,5,0.0,2-Back,1,m,Fri Apr 04 2025 13:48:52 GMT-0500 (Central Daylight Time),808095.2999999523,007_m_m_n_a.png,O,m,1986,11,1,3008.699999988079,805086.5999999642,7097,VNB,B,9
7,test,5,0.0,2-Back,1,m,Fri Apr 04 2025 13:48:52 GMT-0500 (Central Daylight Time),810644.3999999762,020_y_f_h_a.png,O,m,1531,12,1,2539.699999988079,808104.6999999881,7097,VNB,B,10
8,test,5,0.0,2-Back,1,m,Fri Apr 04 2025 13:48:52 GMT-0500 (Central Daylight Time),813026.8999999762,016_y_m_d_a.png,O,m,1349,13,1,2377.800000011921,810649.0999999642,7097,VNB,B,11
9,test,5,1.0,2-Back,1,z,Fri Apr 04 2025 13:48:52 GMT-0500 (Central Daylight Time),815093.0,011_m_f_h_a.png,O,z,1039,14,1,2058.800000011921,813034.1999999881,7097,VNB,B,12
10,test,5,0.0,2-Back,1,m,Fri Apr 04 2025 13:48:52 GMT-0500 (Central Daylight Time),818058.6999999881,004_o_m_n_a.png,O,m,1933,15,1,2959.300000011921,815099.3999999762,7097,VNB,B,13
10,test,5,0.0,2-Back,0,m,Fri Apr 04 2025 13:48:52 GMT-0500 (Central Daylight Time),820207.8999999762,007_m_m_d_a.png,O,z,1129,16,1,2140.5,818067.3999999762,7097,VNB,B,14
11,test,5,0.0,2-Back,1,z,Fri Apr 04 2025 13:48:52 GMT-0500 (Central Daylight Time),823206.8999999762,005_o_f_n_a.png,O,z,1970,17,1,2991.0,820215.8999999762,7097,VNB,B,15
12,test,5,1.0,2-Back,1,m,Fri Apr 04 2025 13:48:52 GMT-0500 (Central Daylight Time),825456.3999999762,016_y_m_h_a.png,O,m,1219,18,1,2244.300000011921,823212.0999999642,7097,VNB,B,16
