acc_sum,block,block_c,change,condition,correct,correct_response,datetime,endtime,face,project,response,response_time,row_sel,session_number,start_end,starttime,subject_id,task,task_vers,trial
0,prac,1,,1-Back,,,Wed Nov 06 2024 14:29:48 GMT-0600 (Central Standard Time),,012_o_f_d_a.png,O,space,9142,1,1,,,7033,VNB,C,0
1,prac,1,0.0,1-Back,1,m,Wed Nov 06 2024 14:29:48 GMT-0600 (Central Standard Time),155330.80000019073,022_y_f_n_a.png,O,m,1672,2,1,2595.100000143051,152735.70000004768,7033,VNB,C,1
2,prac,1,0.0,1-Back,1,m,Wed Nov 06 2024 14:29:48 GMT-0600 (Central Standard Time),158146.60000014305,014_m_m_h_a.png,O,m,1872,3,1,2784.9000000953674,155361.70000004768,7033,VNB,C,2
3,prac,1,0.0,1-Back,1,m,Wed Nov 06 2024 14:29:48 GMT-0600 (Central Standard Time),160495.70000004768,025_y_m_d_a.png,O,m,1357,4,1,2248.7000000476837,158247.0,7033,VNB,C,3
4,prac,1,0.0,1-Back,1,m,Wed Nov 06 2024 14:29:48 GMT-0600 (Central Standard Time),162744.90000009537,012_o_f_n_a.png,O,m,1296,5,1,2221.2000000476837,160523.70000004768,7033,VNB,C,4
5,prac,1,1.0,1-Back,1,z,Wed Nov 06 2024 14:29:48 GMT-0600 (Central Standard Time),165560.70000004768,025_y_m_n_a.png,O,z,1844,6,1,2730.5999999046326,162830.10000014305,7033,VNB,C,5
6,prac,1,0.0,1-Back,1,m,Wed Nov 06 2024 14:29:48 GMT-0600 (Central Standard Time),167460.0,015_o_m_h_a.png,O,m,938,7,1,1868.5999999046326,165591.40000009537,7033,VNB,C,6
7,prac,1,0.0,1-Back,1,m,Wed Nov 06 2024 14:29:48 GMT-0600 (Central Standard Time),169859.30000019073,019_m_f_d_a.png,O,m,1384,8,1,2293.300000190735,167566.0,7033,VNB,C,7
8,prac,1,1.0,1-Back,1,z,Wed Nov 06 2024 14:29:48 GMT-0600 (Central Standard Time),172025.0,022_y_f_d_a.png,O,z,1108,9,1,2068.7999999523163,169956.20000004768,7033,VNB,C,8
9,prac,1,0.0,1-Back,1,m,Wed Nov 06 2024 14:29:48 GMT-0600 (Central Standard Time),174091.0,014_m_m_n_a.png,O,m,1138,10,1,2034.0999999046326,172056.90000009537,7033,VNB,C,9
10,prac,1,0.0,1-Back,1,m,Wed Nov 06 2024 14:29:48 GMT-0600 (Central Standard Time),176090.40000009537,012_o_f_h_a.png,O,m,1039,11,1,1966.2000000476837,174124.20000004768,7033,VNB,C,10
11,prac,1,0.0,1-Back,1,m,Wed Nov 06 2024 14:29:48 GMT-0600 (Central Standard Time),178523.0,025_y_m_d_a.png,O,m,1499,12,1,2392.5,176130.5,7033,VNB,C,11
0,test,1,0.0,1-Back,,,Wed Nov 06 2024 14:29:48 GMT-0600 (Central Standard Time),178523.0,022_y_f_d_a.png,O,space,10008,1,1,2392.5,176130.5,7033,VNB,C,0
1,test,1,0.0,1-Back,1,m,Wed Nov 06 2024 14:29:48 GMT-0600 (Central Standard Time),199449.40000009537,019_m_f_n_a.png,O,m,1027,2,1,2050.0,197399.40000009537,7033,VNB,C,1
2,test,1,0.0,1-Back,1,m,Wed Nov 06 2024 14:29:48 GMT-0600 (Central Standard Time),201565.20000004768,015_o_m_h_a.png,O,m,1014,3,1,2028.8999998569489,199536.30000019073,7033,VNB,C,2
3,test,1,1.0,1-Back,1,z,Wed Nov 06 2024 14:29:48 GMT-0600 (Central Standard Time),203248.0,014_m_m_h_a.png,O,z,570,4,1,1653.7999999523163,201594.20000004768,7033,VNB,C,3
4,test,1,0.0,1-Back,1,m,Wed Nov 06 2024 14:29:48 GMT-0600 (Central Standard Time),205263.70000004768,012_o_f_n_a.png,O,m,913,5,1,1920.0999999046326,203343.60000014305,7033,VNB,C,4
5,test,1,0.0,1-Back,1,m,Wed Nov 06 2024 14:29:48 GMT-0600 (Central Standard Time),207429.80000019073,025_y_m_d_a.png,O,m,1064,6,1,2139.600000143051,205290.20000004768,7033,VNB,C,5
6,test,1,1.0,1-Back,1,z,Wed Nov 06 2024 14:29:48 GMT-0600 (Central Standard Time),209595.90000009537,019_m_f_d_a.png,O,z,1049,7,1,2141.7000000476837,207454.20000004768,7033,VNB,C,6
7,test,1,0.0,1-Back,1,m,Wed Nov 06 2024 14:29:48 GMT-0600 (Central Standard Time),211595.0,022_y_f_h_a.png,O,m,867,8,1,1897.5999999046326,209697.40000009537,7033,VNB,C,7
8,test,1,0.0,1-Back,1,m,Wed Nov 06 2024 14:29:48 GMT-0600 (Central Standard Time),213611.20000004768,015_o_m_n_a.png,O,m,908,9,1,1989.5999999046326,211621.60000014305,7033,VNB,C,8
9,test,1,0.0,1-Back,1,m,Wed Nov 06 2024 14:29:48 GMT-0600 (Central Standard Time),215960.30000019073,025_y_m_h_a.png,O,m,1244,10,1,2255.2000000476837,213705.10000014305,7033,VNB,C,9
10,test,1,0.0,1-Back,1,m,Wed Nov 06 2024 14:29:48 GMT-0600 (Central Standard Time),217943.10000014305,015_o_m_d_a.png,O,m,854,11,1,1954.2000000476837,215988.90000009537,7033,VNB,C,10
11,test,1,1.0,1-Back,1,z,Wed Nov 06 2024 14:29:48 GMT-0600 (Central Standard Time),219992.30000019073,012_o_f_d_a.png,O,z,944,12,1,2015.9000000953674,217976.40000009537,7033,VNB,C,11
12,test,1,0.0,1-Back,1,m,Wed Nov 06 2024 14:29:48 GMT-0600 (Central Standard Time),222041.5,014_m_m_n_a.png,O,m,935,13,1,1955.0999999046326,220086.40000009537,7033,VNB,C,12
13,test,1,1.0,1-Back,1,z,Wed Nov 06 2024 14:29:48 GMT-0600 (Central Standard Time),224191.10000014305,022_y_f_n_a.png,O,z,1038,14,1,2126.9000000953674,222064.20000004768,7033,VNB,C,13
14,test,1,0.0,1-Back,1,m,Wed Nov 06 2024 14:29:48 GMT-0600 (Central Standard Time),226372.70000004768,019_m_f_h_a.png,O,m,1079,15,1,2089.399999856949,224283.30000019073,7033,VNB,C,14
15,test,1,0.0,1-Back,1,m,Wed Nov 06 2024 14:29:48 GMT-0600 (Central Standard Time),228606.30000019073,014_m_m_d_a.png,O,m,1205,16,1,2228.2000000476837,226378.10000014305,7033,VNB,C,15
16,test,1,0.0,1-Back,1,m,Wed Nov 06 2024 14:29:48 GMT-0600 (Central Standard Time),231238.70000004768,025_y_m_n_a.png,O,m,1521,17,1,2604.899999856949,228633.80000019073,7033,VNB,C,16
17,test,1,0.0,1-Back,1,m,Wed Nov 06 2024 14:29:48 GMT-0600 (Central Standard Time),233254.70000004768,012_o_f_h_a.png,O,m,913,18,1,1920.0999999046326,231334.60000014305,7033,VNB,C,17
0,test,2,0.0,1-Back,,,Wed Nov 06 2024 14:29:48 GMT-0600 (Central Standard Time),233254.70000004768,025_y_m_n_a.png,O,space,1699,1,1,1920.0999999046326,231334.60000014305,7033,VNB,C,0
1,test,2,0.0,1-Back,1,m,Wed Nov 06 2024 14:29:48 GMT-0600 (Central Standard Time),238819.5,022_y_f_h_a.png,O,m,807,2,1,1820.0999999046326,236999.40000009537,7033,VNB,C,1
2,test,2,1.0,1-Back,1,m,Wed Nov 06 2024 14:29:48 GMT-0600 (Central Standard Time),240668.80000019073,015_o_m_n_a.png,O,m,798,3,1,1815.8000001907349,238853.0,7033,VNB,C,2
3,test,2,0.0,1-Back,1,m,Wed Nov 06 2024 14:29:48 GMT-0600 (Central Standard Time),242618.30000019073,019_m_f_d_a.png,O,m,843,4,1,1856.0,240762.30000019073,7033,VNB,C,3
4,test,2,0.0,1-Back,1,z,Wed Nov 06 2024 14:29:48 GMT-0600 (Central Standard Time),244417.70000004768,014_m_m_d_a.png,O,z,693,5,1,1774.3999998569489,242643.30000019073,7033,VNB,C,4
5,test,2,0.0,1-Back,1,m,Wed Nov 06 2024 14:29:48 GMT-0600 (Central Standard Time),246300.5,025_y_m_h_a.png,O,m,775,6,1,1855.6999998092651,244444.80000019073,7033,VNB,C,5
6,test,2,1.0,1-Back,1,z,Wed Nov 06 2024 14:29:48 GMT-0600 (Central Standard Time),248199.80000019073,012_o_f_h_a.png,O,z,795,7,1,1869.7000000476837,246330.10000014305,7033,VNB,C,6
7,test,2,0.0,1-Back,1,m,Wed Nov 06 2024 14:29:48 GMT-0600 (Central Standard Time),250065.80000019073,019_m_f_n_a.png,O,m,760,8,1,1778.3000001907349,248287.5,7033,VNB,C,7
8,test,2,0.0,1-Back,1,m,Wed Nov 06 2024 14:29:48 GMT-0600 (Central Standard Time),252398.30000019073,022_y_f_d_a.png,O,m,1213,9,1,2227.100000143051,250171.20000004768,7033,VNB,C,8
9,test,2,0.0,1-Back,1,m,Wed Nov 06 2024 14:29:48 GMT-0600 (Central Standard Time),254347.90000009537,014_m_m_n_a.png,O,m,833,10,1,1860.7999999523163,252487.10000014305,7033,VNB,C,9
10,test,2,1.0,1-Back,1,m,Wed Nov 06 2024 14:29:48 GMT-0600 (Central Standard Time),256363.80000019073,019_m_f_h_a.png,O,m,900,11,1,1992.3000001907349,254371.5,7033,VNB,C,10
11,test,2,0.0,1-Back,1,z,Wed Nov 06 2024 14:29:48 GMT-0600 (Central Standard Time),258079.90000009537,015_o_m_h_a.png,O,z,612,12,1,1695.2999999523163,256384.60000014305,7033,VNB,C,11
12,test,2,0.0,1-Back,1,m,Wed Nov 06 2024 14:29:48 GMT-0600 (Central Standard Time),259912.90000009537,025_y_m_d_a.png,O,m,703,13,1,1733.7999999523163,258179.10000014305,7033,VNB,C,12
13,test,2,0.0,1-Back,1,m,Wed Nov 06 2024 14:29:48 GMT-0600 (Central Standard Time),262031.10000014305,012_o_f_n_a.png,O,m,1017,14,1,2021.6000001430511,260009.5,7033,VNB,C,13
14,test,2,0.0,1-Back,1,z,Wed Nov 06 2024 14:29:48 GMT-0600 (Central Standard Time),263978.0,022_y_f_n_a.png,O,z,843,15,1,1923.5,262054.5,7033,VNB,C,14
15,test,2,1.0,1-Back,1,m,Wed Nov 06 2024 14:29:48 GMT-0600 (Central Standard Time),266060.60000014305,014_m_m_h_a.png,O,m,949,16,1,2054.2999999523163,264006.30000019073,7033,VNB,C,15
16,test,2,0.0,1-Back,1,m,Wed Nov 06 2024 14:29:48 GMT-0600 (Central Standard Time),268126.60000014305,012_o_f_d_a.png,O,m,938,17,1,1965.7999999523163,266160.80000019073,7033,VNB,C,16
17,test,2,1.0,1-Back,1,z,Wed Nov 06 2024 14:29:48 GMT-0600 (Central Standard Time),270442.7000000477,015_o_m_d_a.png,O,z,1184,18,1,2292.0,268150.7000000477,7033,VNB,C,17
0,test,3,1.0,1-Back,,,Wed Nov 06 2024 14:29:48 GMT-0600 (Central Standard Time),270442.7000000477,012_o_f_h_a.png,O,space,1471,1,1,2292.0,268150.7000000477,7033,VNB,C,0
1,test,3,0.0,1-Back,1,m,Wed Nov 06 2024 14:29:48 GMT-0600 (Central Standard Time),276123.30000019073,019_m_f_d_a.png,O,m,907,2,1,1990.8000001907349,274132.5,7033,VNB,C,1
2,test,3,1.0,1-Back,1,m,Wed Nov 06 2024 14:29:48 GMT-0600 (Central Standard Time),278056.80000019073,014_m_m_n_a.png,O,m,853,3,1,1924.8000001907349,276132.0,7033,VNB,C,2
3,test,3,0.0,1-Back,1,z,Wed Nov 06 2024 14:29:48 GMT-0600 (Central Standard Time),279839.30000019073,012_o_f_n_a.png,O,z,679,4,1,1684.2000000476837,278155.10000014305,7033,VNB,C,3
4,test,3,1.0,1-Back,1,m,Wed Nov 06 2024 14:29:48 GMT-0600 (Central Standard Time),281705.5,015_o_m_d_a.png,O,m,760,5,1,1773.5999999046326,279931.90000009537,7033,VNB,C,4
5,test,3,0.0,1-Back,1,m,Wed Nov 06 2024 14:29:48 GMT-0600 (Central Standard Time),283537.5,022_y_f_h_a.png,O,m,784,6,1,1805.5999999046326,281731.90000009537,7033,VNB,C,5
6,test,3,0.0,1-Back,1,z,Wed Nov 06 2024 14:29:48 GMT-0600 (Central Standard Time),285154.40000009537,025_y_m_h_a.png,O,z,592,7,1,1604.7999999523163,283549.60000014305,7033,VNB,C,6
7,test,3,0.0,1-Back,1,m,Wed Nov 06 2024 14:29:48 GMT-0600 (Central Standard Time),286970.40000009537,019_m_f_n_a.png,O,m,684,8,1,1714.5,285255.90000009537,7033,VNB,C,7
8,test,3,0.0,1-Back,1,m,Wed Nov 06 2024 14:29:48 GMT-0600 (Central Standard Time),288903.10000014305,022_y_f_d_a.png,O,m,830,9,1,1905.6000001430511,286997.5,7033,VNB,C,8
9,test,3,1.0,1-Back,1,m,Wed Nov 06 2024 14:29:48 GMT-0600 (Central Standard Time),290835.7000000477,015_o_m_n_a.png,O,m,800,10,1,1829.7999999523163,289005.90000009537,7033,VNB,C,9
10,test,3,0.0,1-Back,1,m,Wed Nov 06 2024 14:29:48 GMT-0600 (Central Standard Time),292801.80000019073,014_m_m_h_a.png,O,m,851,11,1,1938.1000001430511,290863.7000000477,7033,VNB,C,10
11,test,3,0.0,1-Back,1,z,Wed Nov 06 2024 14:29:48 GMT-0600 (Central Standard Time),294467.80000019073,019_m_f_h_a.png,O,z,541,12,1,1562.3000001907349,292905.5,7033,VNB,C,11
12,test,3,1.0,1-Back,1,m,Wed Nov 06 2024 14:29:48 GMT-0600 (Central Standard Time),296333.80000019073,012_o_f_d_a.png,O,m,763,13,1,1837.3000001907349,294496.5,7033,VNB,C,12
13,test,3,0.0,1-Back,1,z,Wed Nov 06 2024 14:29:48 GMT-0600 (Central Standard Time),298883.10000014305,014_m_m_d_a.png,O,z,1434,14,1,2523.2999999523163,296359.80000019073,7033,VNB,C,13
14,test,3,0.0,1-Back,1,m,Wed Nov 06 2024 14:29:48 GMT-0600 (Central Standard Time),300915.90000009537,025_y_m_n_a.png,O,m,916,15,1,2007.4000000953674,298908.5,7033,VNB,C,14
15,test,3,1.0,1-Back,1,m,Wed Nov 06 2024 14:29:48 GMT-0600 (Central Standard Time),302731.90000009537,015_o_m_h_a.png,O,m,759,16,1,1783.2000000476837,300948.7000000477,7033,VNB,C,15
16,test,3,0.0,1-Back,1,m,Wed Nov 06 2024 14:29:48 GMT-0600 (Central Standard Time),304547.10000014305,025_y_m_d_a.png,O,m,699,17,1,1794.0,302753.10000014305,7033,VNB,C,16
17,test,3,1.0,1-Back,1,m,Wed Nov 06 2024 14:29:48 GMT-0600 (Central Standard Time),306913.7000000477,022_y_f_n_a.png,O,m,1336,18,1,2361.7999999523163,304551.90000009537,7033,VNB,C,17
0,test,4,1.0,1-Back,,,Wed Nov 06 2024 14:29:48 GMT-0600 (Central Standard Time),306913.7000000477,014_m_m_d_a.png,O,space,1281,1,1,2361.7999999523163,304551.90000009537,7033,VNB,C,0
1,test,4,0.0,1-Back,1,z,Wed Nov 06 2024 14:29:48 GMT-0600 (Central Standard Time),312562.0,015_o_m_d_a.png,O,z,1152,2,1,2175.699999809265,310386.30000019073,7033,VNB,C,1
2,test,4,0.0,1-Back,1,m,Wed Nov 06 2024 14:29:48 GMT-0600 (Central Standard Time),314411.10000014305,025_y_m_h_a.png,O,m,741,3,1,1756.2999999523163,312654.80000019073,7033,VNB,C,2
3,test,4,0.0,1-Back,1,m,Wed Nov 06 2024 14:29:48 GMT-0600 (Central Standard Time),316610.60000014305,019_m_f_n_a.png,O,m,1083,4,1,2169.9000000953674,314440.7000000477,7033,VNB,C,3
4,test,4,1.0,1-Back,1,m,Wed Nov 06 2024 14:29:48 GMT-0600 (Central Standard Time),318492.90000009537,012_o_f_h_a.png,O,m,780,5,1,1793.0,316699.90000009537,7033,VNB,C,4
5,test,4,0.0,1-Back,1,m,Wed Nov 06 2024 14:29:48 GMT-0600 (Central Standard Time),320342.80000019073,014_m_m_n_a.png,O,m,804,6,1,1832.9000000953674,318509.90000009537,7033,VNB,C,5
6,test,4,0.0,1-Back,1,m,Wed Nov 06 2024 14:29:48 GMT-0600 (Central Standard Time),322241.80000019073,025_y_m_d_a.png,O,m,775,7,1,1869.2000000476837,320372.60000014305,7033,VNB,C,6
7,test,4,1.0,1-Back,1,z,Wed Nov 06 2024 14:29:48 GMT-0600 (Central Standard Time),324041.60000014305,022_y_f_d_a.png,O,z,777,8,1,1786.5,322255.10000014305,7033,VNB,C,7
8,test,4,0.0,1-Back,1,m,Wed Nov 06 2024 14:29:48 GMT-0600 (Central Standard Time),326024.2000000477,019_m_f_h_a.png,O,m,870,9,1,1886.7000000476837,324137.5,7033,VNB,C,8
9,test,4,0.0,1-Back,1,z,Wed Nov 06 2024 14:29:48 GMT-0600 (Central Standard Time),328140.2000000477,015_o_m_h_a.png,O,z,999,10,1,2022.8999998569489,326117.30000019073,7033,VNB,C,9
10,test,4,1.0,1-Back,1,m,Wed Nov 06 2024 14:29:48 GMT-0600 (Central Standard Time),330156.5,012_o_f_n_a.png,O,m,883,11,1,1987.1999998092651,328169.30000019073,7033,VNB,C,10
11,test,4,0.0,1-Back,1,m,Wed Nov 06 2024 14:29:48 GMT-0600 (Central Standard Time),332672.10000014305,019_m_f_d_a.png,O,m,1478,12,1,2488.0,330184.10000014305,7033,VNB,C,11
12,test,4,0.0,1-Back,1,m,Wed Nov 06 2024 14:29:48 GMT-0600 (Central Standard Time),334771.40000009537,022_y_f_n_a.png,O,m,992,13,1,2078.0,332693.40000009537,7033,VNB,C,12
13,test,4,0.0,1-Back,1,m,Wed Nov 06 2024 14:29:48 GMT-0600 (Central Standard Time),336670.90000009537,012_o_f_d_a.png,O,m,863,14,1,1879.7999999523163,334791.10000014305,7033,VNB,C,13
14,test,4,0.0,1-Back,1,m,Wed Nov 06 2024 14:29:48 GMT-0600 (Central Standard Time),338953.40000009537,022_y_f_h_a.png,O,m,1177,15,1,2185.0,336768.40000009537,7033,VNB,C,14
15,test,4,1.0,1-Back,1,z,Wed Nov 06 2024 14:29:48 GMT-0600 (Central Standard Time),340619.30000019073,014_m_m_h_a.png,O,z,550,16,1,1572.6000001430511,339046.7000000477,7033,VNB,C,15
16,test,4,0.0,1-Back,1,m,Wed Nov 06 2024 14:29:48 GMT-0600 (Central Standard Time),342552.10000014305,015_o_m_n_a.png,O,m,820,17,1,1907.7999999523163,340644.30000019073,7033,VNB,C,16
17,test,4,1.0,1-Back,1,z,Wed Nov 06 2024 14:29:48 GMT-0600 (Central Standard Time),344284.80000019073,025_y_m_n_a.png,O,z,681,18,1,1699.2000000476837,342585.60000014305,7033,VNB,C,17
0,test,5,1.0,1-Back,,,Wed Nov 06 2024 14:29:48 GMT-0600 (Central Standard Time),344284.80000019073,015_o_m_n_a.png,O,space,1206,1,1,1699.2000000476837,342585.60000014305,7033,VNB,C,0
1,test,5,1.0,1-Back,1,m,Wed Nov 06 2024 14:29:48 GMT-0600 (Central Standard Time),349333.30000019073,012_o_f_h_a.png,O,m,774,2,1,1791.9000000953674,347541.40000009537,7033,VNB,C,1
2,test,5,0.0,1-Back,1,m,Wed Nov 06 2024 14:29:48 GMT-0600 (Central Standard Time),351232.7000000477,025_y_m_d_a.png,O,m,861,3,1,1873.5999999046326,349359.10000014305,7033,VNB,C,2
3,test,5,0.0,1-Back,1,z,Wed Nov 06 2024 14:29:48 GMT-0600 (Central Standard Time),353148.7000000477,015_o_m_d_a.png,O,z,815,4,1,1887.7000000476837,351261.0,7033,VNB,C,3
4,test,5,0.0,1-Back,1,m,Wed Nov 06 2024 14:29:48 GMT-0600 (Central Standard Time),354948.60000014305,019_m_f_h_a.png,O,m,700,5,1,1708.7000000476837,353239.90000009537,7033,VNB,C,4
5,test,5,0.0,1-Back,1,m,Wed Nov 06 2024 14:29:48 GMT-0600 (Central Standard Time),356981.30000019073,022_y_f_n_a.png,O,m,931,6,1,2008.2000000476837,354973.10000014305,7033,VNB,C,5
6,test,5,1.0,1-Back,1,z,Wed Nov 06 2024 14:29:48 GMT-0600 (Central Standard Time),359063.0,012_o_f_n_a.png,O,z,1046,7,1,2057.199999809265,357005.80000019073,7033,VNB,C,6
7,test,5,0.0,1-Back,1,m,Wed Nov 06 2024 14:29:48 GMT-0600 (Central Standard Time),360979.2000000477,019_m_f_d_a.png,O,m,800,8,1,1890.0,359089.2000000477,7033,VNB,C,7
8,test,5,0.0,1-Back,1,m,Wed Nov 06 2024 14:29:48 GMT-0600 (Central Standard Time),362895.40000009537,025_y_m_h_a.png,O,m,812,9,1,1887.7999999523163,361007.60000014305,7033,VNB,C,8
9,test,5,0.0,1-Back,1,m,Wed Nov 06 2024 14:29:48 GMT-0600 (Central Standard Time),364961.30000019073,022_y_f_d_a.png,O,m,960,10,1,2041.5,362919.80000019073,7033,VNB,C,9
10,test,5,0.0,1-Back,1,m,Wed Nov 06 2024 14:29:48 GMT-0600 (Central Standard Time),367077.2000000477,014_m_m_n_a.png,O,m,1014,11,1,2023.0999999046326,365054.10000014305,7033,VNB,C,10
11,test,5,1.0,1-Back,1,z,Wed Nov 06 2024 14:29:48 GMT-0600 (Central Standard Time),368776.80000019073,019_m_f_n_a.png,O,z,653,12,1,1675.4000000953674,367101.40000009537,7033,VNB,C,11
12,test,5,0.0,1-Back,1,m,Wed Nov 06 2024 14:29:48 GMT-0600 (Central Standard Time),370659.7000000477,015_o_m_h_a.png,O,m,750,13,1,1779.0,368880.7000000477,7033,VNB,C,12
13,test,5,0.0,1-Back,1,z,Wed Nov 06 2024 14:29:48 GMT-0600 (Central Standard Time),372325.80000019073,014_m_m_h_a.png,O,z,556,14,1,1639.5,370686.30000019073,7033,VNB,C,13
14,test,5,1.0,1-Back,1,m,Wed Nov 06 2024 14:29:48 GMT-0600 (Central Standard Time),374074.90000009537,012_o_f_d_a.png,O,m,634,15,1,1720.2999999523163,372354.60000014305,7033,VNB,C,14
15,test,5,0.0,1-Back,1,m,Wed Nov 06 2024 14:29:48 GMT-0600 (Central Standard Time),375924.7000000477,025_y_m_n_a.png,O,m,749,16,1,1759.2999999523163,374165.40000009537,7033,VNB,C,15
16,test,5,0.0,1-Back,1,m,Wed Nov 06 2024 14:29:48 GMT-0600 (Central Standard Time),377724.0,022_y_f_h_a.png,O,m,674,17,1,1766.0999999046326,375957.90000009537,7033,VNB,C,16
17,test,5,0.0,1-Back,1,m,Wed Nov 06 2024 14:29:48 GMT-0600 (Central Standard Time),379506.60000014305,014_m_m_d_a.png,O,m,734,18,1,1762.2999999523163,377744.30000019073,7033,VNB,C,17
0,prac,1,0.0,2-Back,,,Wed Nov 06 2024 14:29:48 GMT-0600 (Central Standard Time),379506.60000014305,019_m_f_n_a.png,O,space,8632,1,1,1762.2999999523163,377744.30000019073,7033,VNB,C,0
0,prac,1,0.0,2-Back,,,Wed Nov 06 2024 14:29:48 GMT-0600 (Central Standard Time),379506.60000014305,012_o_f_h_a.png,O,space,8632,2,1,1762.2999999523163,377744.30000019073,7033,VNB,C,0
0,prac,1,0.0,2-Back,0,m,Wed Nov 06 2024 14:29:48 GMT-0600 (Central Standard Time),487487.0,015_o_m_d_a.png,O,None,2011,3,1,2974.7999999523163,484512.2000000477,7033,VNB,C,1
0,prac,1,1.0,2-Back,0,z,Wed Nov 06 2024 14:29:48 GMT-0600 (Central Standard Time),490403.90000009537,014_m_m_h_a.png,O,None,2015,4,1,2902.7999999523163,487501.10000014305,7033,VNB,C,2
0,prac,1,0.0,2-Back,0,m,Wed Nov 06 2024 14:29:48 GMT-0600 (Central Standard Time),493285.90000009537,022_y_f_n_a.png,O,z,1831,5,1,2791.4000000953674,490494.5,7033,VNB,C,3
0,prac,1,1.0,2-Back,0,z,Wed Nov 06 2024 14:29:48 GMT-0600 (Central Standard Time),496318.0,015_o_m_h_a.png,O,None,2013,6,1,2945.7999999523163,493372.2000000477,7033,VNB,C,4
1,prac,1,1.0,2-Back,1,z,Wed Nov 06 2024 14:29:48 GMT-0600 (Central Standard Time),498967.5,025_y_m_n_a.png,O,z,1660,7,1,2562.699999809265,496404.80000019073,7033,VNB,C,5
2,prac,1,0.0,2-Back,1,m,Wed Nov 06 2024 14:29:48 GMT-0600 (Central Standard Time),501766.5,019_m_f_d_a.png,O,m,1744,8,1,2693.5999999046326,499072.90000009537,7033,VNB,C,6
3,prac,1,0.0,2-Back,1,m,Wed Nov 06 2024 14:29:48 GMT-0600 (Central Standard Time),504698.90000009537,012_o_f_d_a.png,O,m,1958,9,1,2894.7999999523163,501804.10000014305,7033,VNB,C,7
4,prac,1,0.0,2-Back,1,m,Wed Nov 06 2024 14:29:48 GMT-0600 (Central Standard Time),507513.40000009537,014_m_m_h_a.png,O,m,1798,10,1,2692.9000000953674,504820.5,7033,VNB,C,8
4,prac,1,1.0,2-Back,0,z,Wed Nov 06 2024 14:29:48 GMT-0600 (Central Standard Time),509947.10000014305,022_y_f_d_a.png,O,m,1492,11,1,2426.2999999523163,507520.80000019073,7033,VNB,C,9
4,prac,1,0.0,2-Back,0,m,Wed Nov 06 2024 14:29:48 GMT-0600 (Central Standard Time),512795.2000000477,015_o_m_n_a.png,O,z,1821,12,1,2752.2000000476837,510043.0,7033,VNB,C,10
0,prac,2,0.0,2-Back,,,Wed Nov 06 2024 14:29:48 GMT-0600 (Central Standard Time),512795.2000000477,019_m_f_n_a.png,O,a,18360,1,1,2752.2000000476837,510043.0,7033,VNB,C,0
0,prac,2,0.0,2-Back,,,Wed Nov 06 2024 14:29:48 GMT-0600 (Central Standard Time),512795.2000000477,012_o_f_h_a.png,O,a,18360,2,1,2752.2000000476837,510043.0,7033,VNB,C,0
1,prac,2,0.0,2-Back,1,m,Wed Nov 06 2024 14:29:48 GMT-0600 (Central Standard Time),538571.2000000477,015_o_m_d_a.png,O,m,1002,3,1,1951.2000000476837,536620.0,7033,VNB,C,1
1,prac,2,1.0,2-Back,0,z,Wed Nov 06 2024 14:29:48 GMT-0600 (Central Standard Time),541553.5,014_m_m_h_a.png,O,None,2005,4,1,2891.899999856949,538661.600000143,7033,VNB,C,2
1,prac,2,0.0,2-Back,0,m,Wed Nov 06 2024 14:29:48 GMT-0600 (Central Standard Time),544219.3000001907,022_y_f_n_a.png,O,z,1642,5,1,2563.9000000953674,541655.4000000954,7033,VNB,C,3
1,prac,2,1.0,2-Back,0,z,Wed Nov 06 2024 14:29:48 GMT-0600 (Central Standard Time),546818.2000000477,015_o_m_h_a.png,O,m,1642,6,1,2568.5,544249.7000000477,7033,VNB,C,4
2,prac,2,1.0,2-Back,1,z,Wed Nov 06 2024 14:29:48 GMT-0600 (Central Standard Time),549534.4000000954,025_y_m_n_a.png,O,z,1790,7,1,2682.7000000476837,546851.7000000477,7033,VNB,C,5
3,prac,2,0.0,2-Back,1,m,Wed Nov 06 2024 14:29:48 GMT-0600 (Central Standard Time),551633.8000001907,019_m_f_d_a.png,O,m,1081,8,1,1997.9000000953674,549635.9000000954,7033,VNB,C,6
3,prac,2,0.0,2-Back,0,m,Wed Nov 06 2024 14:29:48 GMT-0600 (Central Standard Time),553949.4000000954,012_o_f_d_a.png,O,z,1299,9,1,2213.0999999046326,551736.3000001907,7033,VNB,C,7
4,prac,2,0.0,2-Back,1,m,Wed Nov 06 2024 14:29:48 GMT-0600 (Central Standard Time),556715.3000001907,014_m_m_h_a.png,O,m,1886,10,1,2669.4000000953674,554045.9000000954,7033,VNB,C,8
4,prac,2,1.0,2-Back,0,z,Wed Nov 06 2024 14:29:48 GMT-0600 (Central Standard Time),558864.5,022_y_f_d_a.png,O,m,1188,11,1,2111.899999856949,556752.600000143,7033,VNB,C,9
4,prac,2,0.0,2-Back,0,m,Wed Nov 06 2024 14:29:48 GMT-0600 (Central Standard Time),561829.8000001907,015_o_m_n_a.png,O,None,2003,12,1,2931.300000190735,558898.5,7033,VNB,C,10
0,test,1,0.0,2-Back,,,Wed Nov 06 2024 14:29:48 GMT-0600 (Central Standard Time),561829.8000001907,025_y_m_h_a.png,O,space,13121,1,1,2931.300000190735,558898.5,7033,VNB,C,0
0,test,1,0.0,2-Back,,,Wed Nov 06 2024 14:29:48 GMT-0600 (Central Standard Time),561829.8000001907,012_o_f_n_a.png,O,space,13121,2,1,2931.300000190735,558898.5,7033,VNB,C,0
1,test,1,0.0,2-Back,1,z,Wed Nov 06 2024 14:29:48 GMT-0600 (Central Standard Time),590337.4000000954,015_o_m_h_a.png,O,z,1102,3,1,2122.0,588215.4000000954,7033,VNB,C,1
2,test,1,0.0,2-Back,1,m,Wed Nov 06 2024 14:29:48 GMT-0600 (Central Standard Time),592570.100000143,019_m_f_d_a.png,O,m,1119,4,1,2136.100000143051,590434.0,7033,VNB,C,2
2,test,1,1.0,2-Back,0,m,Wed Nov 06 2024 14:29:48 GMT-0600 (Central Standard Time),594752.7000000477,025_y_m_n_a.png,O,z,1062,5,1,2073.0999999046326,592679.600000143,7033,VNB,C,3
2,test,1,0.0,2-Back,0,z,Wed Nov 06 2024 14:29:48 GMT-0600 (Central Standard Time),596568.5,022_y_f_d_a.png,O,m,711,6,1,1787.0999999046326,594781.4000000954,7033,VNB,C,4
3,test,1,0.0,2-Back,1,m,Wed Nov 06 2024 14:29:48 GMT-0600 (Central Standard Time),599001.100000143,014_m_m_h_a.png,O,m,1327,7,1,2404.7999999523163,596596.3000001907,7033,VNB,C,5
4,test,1,1.0,2-Back,1,m,Wed Nov 06 2024 14:29:48 GMT-0600 (Central Standard Time),601483.600000143,022_y_f_n_a.png,O,m,1358,8,1,2381.2000000476837,599102.4000000954,7033,VNB,C,6
5,test,1,0.0,2-Back,1,z,Wed Nov 06 2024 14:29:48 GMT-0600 (Central Standard Time),603416.3000001907,012_o_f_h_a.png,O,z,828,9,1,1906.6000001430511,601509.7000000477,7033,VNB,C,7
6,test,1,0.0,2-Back,1,m,Wed Nov 06 2024 14:29:48 GMT-0600 (Central Standard Time),605998.7000000477,015_o_m_d_a.png,O,m,1471,10,1,2489.2999999523163,603509.4000000954,7033,VNB,C,8
7,test,1,1.0,2-Back,1,m,Wed Nov 06 2024 14:29:48 GMT-0600 (Central Standard Time),608281.2000000477,014_m_m_d_a.png,O,m,1169,11,1,2258.0999999046326,606023.100000143,7033,VNB,C,9
7,test,1,0.0,2-Back,0,m,Wed Nov 06 2024 14:29:48 GMT-0600 (Central Standard Time),610114.3000001907,019_m_f_n_a.png,O,z,726,12,1,1749.3000001907349,608365.0,7033,VNB,C,10
8,test,1,0.0,2-Back,1,m,Wed Nov 06 2024 14:29:48 GMT-0600 (Central Standard Time),612180.7000000477,022_y_f_h_a.png,O,m,966,13,1,1981.3999998569489,610199.3000001907,7033,VNB,C,11
8,test,1,0.0,2-Back,0,z,Wed Nov 06 2024 14:29:48 GMT-0600 (Central Standard Time),614929.2000000477,014_m_m_n_a.png,O,m,1635,14,1,2724.2000000476837,612205.0,7033,VNB,C,12
9,test,1,0.0,2-Back,1,m,Wed Nov 06 2024 14:29:48 GMT-0600 (Central Standard Time),617411.9000000954,025_y_m_d_a.png,O,m,1366,15,1,2453.0999999046326,614958.8000001907,7033,VNB,C,13
9,test,1,1.0,2-Back,0,m,Wed Nov 06 2024 14:29:48 GMT-0600 (Central Standard Time),620544.100000143,019_m_f_h_a.png,O,None,2015,16,1,3023.2999999523163,617520.8000001907,7033,VNB,C,14
10,test,1,0.0,2-Back,1,z,Wed Nov 06 2024 14:29:48 GMT-0600 (Central Standard Time),622776.600000143,012_o_f_d_a.png,O,z,1128,17,1,2141.7000000476837,620634.9000000954,7033,VNB,C,15
11,test,1,0.0,2-Back,1,m,Wed Nov 06 2024 14:29:48 GMT-0600 (Central Standard Time),625476.0,015_o_m_n_a.png,O,m,1574,18,1,2597.699999809265,622878.3000001907,7033,VNB,C,16
0,test,2,0.0,2-Back,,,Wed Nov 06 2024 14:29:48 GMT-0600 (Central Standard Time),625476.0,014_m_m_h_a.png,O,space,1670,1,1,2597.699999809265,622878.3000001907,7033,VNB,C,0
0,test,2,0.0,2-Back,,,Wed Nov 06 2024 14:29:48 GMT-0600 (Central Standard Time),625476.0,022_y_f_n_a.png,O,space,1670,2,1,2597.699999809265,622878.3000001907,7033,VNB,C,0
1,test,2,1.0,2-Back,1,z,Wed Nov 06 2024 14:29:48 GMT-0600 (Central Standard Time),634739.3000001907,012_o_f_h_a.png,O,z,1084,3,1,2102.800000190735,632636.5,7033,VNB,C,1
2,test,2,0.0,2-Back,1,m,Wed Nov 06 2024 14:29:48 GMT-0600 (Central Standard Time),636755.3000001907,015_o_m_d_a.png,O,m,975,4,1,1992.2000000476837,634763.100000143,7033,VNB,C,2
3,test,2,0.0,2-Back,1,m,Wed Nov 06 2024 14:29:48 GMT-0600 (Central Standard Time),638704.7000000477,019_m_f_d_a.png,O,m,911,5,1,1921.0,636783.7000000477,7033,VNB,C,3
4,test,2,0.0,2-Back,1,m,Wed Nov 06 2024 14:29:48 GMT-0600 (Central Standard Time),640904.100000143,025_y_m_h_a.png,O,m,1095,6,1,2169.5,638734.600000143,7033,VNB,C,4
4,test,2,0.0,2-Back,0,m,Wed Nov 06 2024 14:29:48 GMT-0600 (Central Standard Time),642820.0,012_o_f_n_a.png,O,z,866,7,1,1893.6999998092651,640926.3000001907,7033,VNB,C,5
4,test,2,1.0,2-Back,0,z,Wed Nov 06 2024 14:29:48 GMT-0600 (Central Standard Time),645269.3000001907,015_o_m_h_a.png,O,m,1347,8,1,2420.100000143051,642849.2000000477,7033,VNB,C,6
5,test,2,0.0,2-Back,1,m,Wed Nov 06 2024 14:29:48 GMT-0600 (Central Standard Time),647335.100000143,022_y_f_d_a.png,O,m,954,9,1,2037.5,645297.600000143,7033,VNB,C,7
6,test,2,0.0,2-Back,1,m,Wed Nov 06 2024 14:29:48 GMT-0600 (Central Standard Time),649766.9000000954,025_y_m_d_a.png,O,m,1311,10,1,2332.5,647434.4000000954,7033,VNB,C,8
7,test,2,0.0,2-Back,1,m,Wed Nov 06 2024 14:29:48 GMT-0600 (Central Standard Time),652616.8000001907,014_m_m_n_a.png,O,m,1829,11,1,2845.7000000476837,649771.100000143,7033,VNB,C,9
8,test,2,0.0,2-Back,1,m,Wed Nov 06 2024 14:29:48 GMT-0600 (Central Standard Time),655449.3000001907,019_m_f_h_a.png,O,m,1785,12,1,2803.7000000476837,652645.600000143,7033,VNB,C,10
9,test,2,1.0,2-Back,1,z,Wed Nov 06 2024 14:29:48 GMT-0600 (Central Standard Time),657515.3000001907,015_o_m_n_a.png,O,z,958,13,1,1975.1000001430511,655540.2000000477,7033,VNB,C,11
10,test,2,0.0,2-Back,1,m,Wed Nov 06 2024 14:29:48 GMT-0600 (Central Standard Time),659730.9000000954,012_o_f_d_a.png,O,m,1100,14,1,2186.9000000953674,657544.0,7033,VNB,C,12
11,test,2,0.0,2-Back,1,m,Wed Nov 06 2024 14:29:48 GMT-0600 (Central Standard Time),661863.7000000477,022_y_f_h_a.png,O,m,1029,15,1,2036.2000000476837,659827.5,7033,VNB,C,13
11,test,2,0.0,2-Back,0,z,Wed Nov 06 2024 14:29:48 GMT-0600 (Central Standard Time),664229.7000000477,014_m_m_d_a.png,O,m,1239,16,1,2336.5,661893.2000000477,7033,VNB,C,14
11,test,2,0.0,2-Back,0,m,Wed Nov 06 2024 14:29:48 GMT-0600 (Central Standard Time),667178.7000000477,025_y_m_n_a.png,O,z,1842,17,1,2917.5,664261.2000000477,7033,VNB,C,15
12,test,2,1.0,2-Back,1,m,Wed Nov 06 2024 14:29:48 GMT-0600 (Central Standard Time),669594.600000143,019_m_f_n_a.png,O,m,1301,18,1,2325.7000000476837,667268.9000000954,7033,VNB,C,16
0,test,3,1.0,2-Back,,,Wed Nov 06 2024 14:29:48 GMT-0600 (Central Standard Time),669594.600000143,015_o_m_n_a.png,O,space,1932,1,1,2325.7000000476837,667268.9000000954,7033,VNB,C,0
0,test,3,1.0,2-Back,,,Wed Nov 06 2024 14:29:48 GMT-0600 (Central Standard Time),669594.600000143,012_o_f_d_a.png,O,space,1932,2,1,2325.7000000476837,667268.9000000954,7033,VNB,C,0
1,test,3,0.0,2-Back,1,m,Wed Nov 06 2024 14:29:48 GMT-0600 (Central Standard Time),679341.4000000954,022_y_f_h_a.png,O,m,1333,3,1,2342.0,676999.4000000954,7033,VNB,C,1
2,test,3,0.0,2-Back,1,z,Wed Nov 06 2024 14:29:48 GMT-0600 (Central Standard Time),681573.9000000954,019_m_f_d_a.png,O,z,1189,4,1,2215.9000000953674,679358.0,7033,VNB,C,2
3,test,3,1.0,2-Back,1,m,Wed Nov 06 2024 14:29:48 GMT-0600 (Central Standard Time),684156.0,025_y_m_n_a.png,O,m,1539,5,1,2551.399999856949,681604.600000143,7033,VNB,C,3
4,test,3,0.0,2-Back,1,m,Wed Nov 06 2024 14:29:48 GMT-0600 (Central Standard Time),686771.2000000477,015_o_m_h_a.png,O,m,1597,6,1,2602.2000000476837,684169.0,7033,VNB,C,4
5,test,3,0.0,2-Back,1,z,Wed Nov 06 2024 14:29:48 GMT-0600 (Central Standard Time),688338.2000000477,022_y_f_n_a.png,O,z,542,7,1,1562.7000000476837,686775.5,7033,VNB,C,5
6,test,3,1.0,2-Back,1,m,Wed Nov 06 2024 14:29:48 GMT-0600 (Central Standard Time),690271.0,014_m_m_d_a.png,O,m,896,8,1,1907.1999998092651,688363.8000001907,7033,VNB,C,6
7,test,3,0.0,2-Back,1,m,Wed Nov 06 2024 14:29:48 GMT-0600 (Central Standard Time),692786.3000001907,025_y_m_d_a.png,O,m,1450,9,1,2482.9000000953674,690303.4000000954,7033,VNB,C,7
8,test,3,0.0,2-Back,1,m,Wed Nov 06 2024 14:29:48 GMT-0600 (Central Standard Time),695786.0,012_o_f_h_a.png,O,m,1968,10,1,2986.2999999523163,692799.7000000477,7033,VNB,C,8
9,test,3,1.0,2-Back,1,m,Wed Nov 06 2024 14:29:48 GMT-0600 (Central Standard Time),698168.100000143,019_m_f_n_a.png,O,m,1335,11,1,2353.600000143051,695814.5,7033,VNB,C,9
10,test,3,1.0,2-Back,1,z,Wed Nov 06 2024 14:29:48 GMT-0600 (Central Standard Time),700167.8000001907,014_m_m_h_a.png,O,z,962,12,1,1972.8000001907349,698195.0,7033,VNB,C,10
11,test,3,0.0,2-Back,1,m,Wed Nov 06 2024 14:29:48 GMT-0600 (Central Standard Time),702300.5,022_y_f_d_a.png,O,m,1082,13,1,2105.699999809265,700194.8000001907,7033,VNB,C,11
12,test,3,0.0,2-Back,1,m,Wed Nov 06 2024 14:29:48 GMT-0600 (Central Standard Time),704399.9000000954,012_o_f_n_a.png,O,m,1062,14,1,2070.7000000476837,702329.2000000477,7033,VNB,C,12
12,test,3,0.0,2-Back,0,z,Wed Nov 06 2024 14:29:48 GMT-0600 (Central Standard Time),706982.100000143,015_o_m_d_a.png,O,m,1546,15,1,2554.5,704427.600000143,7033,VNB,C,13
13,test,3,1.0,2-Back,1,m,Wed Nov 06 2024 14:29:48 GMT-0600 (Central Standard Time),709364.8000001907,019_m_f_h_a.png,O,m,1281,16,1,2286.2000000476837,707078.600000143,7033,VNB,C,14
14,test,3,0.0,2-Back,1,m,Wed Nov 06 2024 14:29:48 GMT-0600 (Central Standard Time),711947.2000000477,014_m_m_n_a.png,O,m,1467,17,1,2557.5,709389.7000000477,7033,VNB,C,15
15,test,3,0.0,2-Back,1,z,Wed Nov 06 2024 14:29:48 GMT-0600 (Central Standard Time),714080.0,025_y_m_h_a.png,O,z,1007,18,1,2107.699999809265,711972.3000001907,7033,VNB,C,16
0,test,4,0.0,2-Back,,,Wed Nov 06 2024 14:29:48 GMT-0600 (Central Standard Time),714080.0,019_m_f_n_a.png,O,space,1330,1,1,2107.699999809265,711972.3000001907,7033,VNB,C,0
0,test,4,0.0,2-Back,,,Wed Nov 06 2024 14:29:48 GMT-0600 (Central Standard Time),714080.0,015_o_m_n_a.png,O,space,1330,2,1,2107.699999809265,711972.3000001907,7033,VNB,C,0
1,test,4,1.0,2-Back,1,m,Wed Nov 06 2024 14:29:48 GMT-0600 (Central Standard Time),723177.0,025_y_m_h_a.png,O,m,1344,3,1,2354.899999856949,720822.100000143,7033,VNB,C,1
2,test,4,1.0,2-Back,1,m,Wed Nov 06 2024 14:29:48 GMT-0600 (Central Standard Time),725209.8000001907,012_o_f_d_a.png,O,m,902,4,1,1932.3000001907349,723277.5,7033,VNB,C,2
2,test,4,0.0,2-Back,0,z,Wed Nov 06 2024 14:29:48 GMT-0600 (Central Standard Time),727592.2000000477,015_o_m_h_a.png,O,m,1287,5,1,2358.2999999523163,725233.9000000954,7033,VNB,C,3
2,test,4,0.0,2-Back,0,m,Wed Nov 06 2024 14:29:48 GMT-0600 (Central Standard Time),729308.600000143,014_m_m_n_a.png,O,z,612,6,1,1685.1000001430511,727623.5,7033,VNB,C,4
3,test,4,0.0,2-Back,1,m,Wed Nov 06 2024 14:29:48 GMT-0600 (Central Standard Time),731690.9000000954,019_m_f_d_a.png,O,m,1275,7,1,2289.4000000953674,729401.5,7033,VNB,C,5
3,test,4,0.0,2-Back,0,z,Wed Nov 06 2024 14:29:48 GMT-0600 (Central Standard Time),734106.7000000477,022_y_f_n_a.png,O,m,1309,8,1,2328.7999999523163,731777.9000000954,7033,VNB,C,6
4,test,4,1.0,2-Back,1,m,Wed Nov 06 2024 14:29:48 GMT-0600 (Central Standard Time),736139.9000000954,012_o_f_h_a.png,O,m,986,9,1,2005.7000000476837,734134.2000000477,7033,VNB,C,7
4,test,4,0.0,2-Back,0,m,Wed Nov 06 2024 14:29:48 GMT-0600 (Central Standard Time),738738.600000143,014_m_m_h_a.png,O,z,1453,10,1,2474.600000143051,736264.0,7033,VNB,C,8
5,test,4,0.0,2-Back,1,m,Wed Nov 06 2024 14:29:48 GMT-0600 (Central Standard Time),741021.2000000477,022_y_f_d_a.png,O,m,1148,11,1,2170.5,738850.7000000477,7033,VNB,C,9
6,test,4,0.0,2-Back,1,m,Wed Nov 06 2024 14:29:48 GMT-0600 (Central Standard Time),743136.9000000954,025_y_m_n_a.png,O,m,987,12,1,2005.0999999046326,741131.8000001907,7033,VNB,C,10
7,test,4,0.0,2-Back,1,z,Wed Nov 06 2024 14:29:48 GMT-0600 (Central Standard Time),745369.7000000477,015_o_m_d_a.png,O,z,1119,13,1,2140.2999999523163,743229.4000000954,7033,VNB,C,11
8,test,4,1.0,2-Back,1,m,Wed Nov 06 2024 14:29:48 GMT-0600 (Central Standard Time),747668.8000001907,019_m_f_h_a.png,O,m,1191,14,1,2209.2000000476837,745459.600000143,7033,VNB,C,12
9,test,4,1.0,2-Back,1,m,Wed Nov 06 2024 14:29:48 GMT-0600 (Central Standard Time),750400.600000143,022_y_f_h_a.png,O,m,1626,15,1,2634.7999999523163,747765.8000001907,7033,VNB,C,13
9,test,4,0.0,2-Back,0,m,Wed Nov 06 2024 14:29:48 GMT-0600 (Central Standard Time),753449.9000000954,012_o_f_n_a.png,O,None,2029,16,1,3043.5999999046326,750406.3000001907,7033,VNB,C,14
10,test,4,0.0,2-Back,1,m,Wed Nov 06 2024 14:29:48 GMT-0600 (Central Standard Time),755483.100000143,025_y_m_d_a.png,O,m,951,17,1,2021.9000000953674,753461.2000000477,7033,VNB,C,15
11,test,4,1.0,2-Back,1,m,Wed Nov 06 2024 14:29:48 GMT-0600 (Central Standard Time),757349.0,014_m_m_d_a.png,O,m,740,18,1,1832.8999998569489,755516.100000143,7033,VNB,C,16
0,test,5,1.0,2-Back,,,Wed Nov 06 2024 14:29:48 GMT-0600 (Central Standard Time),757349.0,022_y_f_d_a.png,O,space,1396,1,1,1832.8999998569489,755516.100000143,7033,VNB,C,0
0,test,5,1.0,2-Back,,,Wed Nov 06 2024 14:29:48 GMT-0600 (Central Standard Time),757349.0,012_o_f_h_a.png,O,space,1396,2,1,1832.8999998569489,755516.100000143,7033,VNB,C,0
0,test,5,1.0,2-Back,0,z,Wed Nov 06 2024 14:29:48 GMT-0600 (Central Standard Time),766462.9000000954,015_o_m_d_a.png,O,m,1288,3,1,2302.9000000953674,764160.0,7033,VNB,C,1
0,test,5,1.0,2-Back,0,m,Wed Nov 06 2024 14:29:48 GMT-0600 (Central Standard Time),768362.100000143,019_m_f_n_a.png,O,z,859,4,1,1875.2000000476837,766486.9000000954,7033,VNB,C,2
1,test,5,0.0,2-Back,1,m,Wed Nov 06 2024 14:29:48 GMT-0600 (Central Standard Time),771127.8000001907,014_m_m_h_a.png,O,m,1662,5,1,2740.100000143051,768387.7000000477,7033,VNB,C,3
1,test,5,0.0,2-Back,0,z,Wed Nov 06 2024 14:29:48 GMT-0600 (Central Standard Time),773243.9000000954,022_y_f_n_a.png,O,m,1008,6,1,2090.5999999046326,771153.3000001907,7033,VNB,C,4
2,test,5,0.0,2-Back,1,m,Wed Nov 06 2024 14:29:48 GMT-0600 (Central Standard Time),775243.100000143,012_o_f_d_a.png,O,m,877,7,1,1899.9000000953674,773343.2000000477,7033,VNB,C,5
2,test,5,0.0,2-Back,0,m,Wed Nov 06 2024 14:29:48 GMT-0600 (Central Standard Time),777192.2000000477,015_o_m_h_a.png,O,z,828,8,1,1919.7000000476837,775272.5,7033,VNB,C,6
2,test,5,1.0,2-Back,0,z,Wed Nov 06 2024 14:29:48 GMT-0600 (Central Standard Time),779691.8000001907,019_m_f_d_a.png,O,m,1367,9,1,2392.2000000476837,777299.600000143,7033,VNB,C,7
3,test,5,0.0,2-Back,1,m,Wed Nov 06 2024 14:29:48 GMT-0600 (Central Standard Time),781791.0,025_y_m_n_a.png,O,m,992,10,1,2005.5999999046326,779785.4000000954,7033,VNB,C,8
4,test,5,0.0,2-Back,1,m,Wed Nov 06 2024 14:29:48 GMT-0600 (Central Standard Time),784106.7000000477,014_m_m_n_a.png,O,m,1209,11,1,2286.2000000476837,781820.5,7033,VNB,C,9
5,test,5,0.0,2-Back,1,m,Wed Nov 06 2024 14:29:48 GMT-0600 (Central Standard Time),786805.7000000477,022_y_f_h_a.png,O,m,1597,12,1,2606.899999856949,784198.8000001907,7033,VNB,C,10
6,test,5,0.0,2-Back,1,m,Wed Nov 06 2024 14:29:48 GMT-0600 (Central Standard Time),788738.8000001907,025_y_m_d_a.png,O,m,826,13,1,1904.2000000476837,786834.600000143,7033,VNB,C,11
7,test,5,1.0,2-Back,1,z,Wed Nov 06 2024 14:29:48 GMT-0600 (Central Standard Time),790521.4000000954,019_m_f_h_a.png,O,z,669,14,1,1758.5999999046326,788762.8000001907,7033,VNB,C,12
8,test,5,0.0,2-Back,1,m,Wed Nov 06 2024 14:29:48 GMT-0600 (Central Standard Time),792820.9000000954,015_o_m_n_a.png,O,m,1198,15,1,2202.7999999523163,790618.100000143,7033,VNB,C,13
9,test,5,0.0,2-Back,1,m,Wed Nov 06 2024 14:29:48 GMT-0600 (Central Standard Time),794936.4000000954,014_m_m_d_a.png,O,m,997,16,1,2083.9000000953674,792852.5,7033,VNB,C,14
9,test,5,0.0,2-Back,0,z,Wed Nov 06 2024 14:29:48 GMT-0600 (Central Standard Time),798052.5,012_o_f_n_a.png,O,None,2015,17,1,3020.0,795032.5,7033,VNB,C,15
10,test,5,1.0,2-Back,1,m,Wed Nov 06 2024 14:29:48 GMT-0600 (Central Standard Time),800251.7000000477,025_y_m_h_a.png,O,m,1075,18,1,2098.399999856949,798153.3000001907,7033,VNB,C,16
