acc_sum,block,block_c,change,condition,correct,correct_response,datetime,endtime,face,project,response,response_time,row_sel,session_number,start_end,starttime,subject_id,task,task_vers,trial
0,prac,1,,1-Back,,,Wed Mar 19 2025 11:19:40 GMT-0500 (Central Daylight Time),,097_m_f_n_a.png,O,space,8729,1,1,,,7089,NNB,B,0
1,prac,1,0.0,1-Back,1,m,Wed Mar 19 2025 11:19:40 GMT-0500 (Central Daylight Time),134981.59999996424,152_y_f_n_a.png,O,m,1438,2,1,2337.399999976158,132644.19999998808,7089,NNB,B,1
2,prac,1,1.0,1-Back,1,z,Wed Mar 19 2025 11:19:40 GMT-0500 (Central Daylight Time),136648.0,152_y_f_n_a.png,O,z,851,3,1,1634.1000000238419,135013.89999997616,7089,NNB,B,2
3,prac,1,0.0,1-Back,1,m,Wed Mar 19 2025 11:19:40 GMT-0500 (Central Daylight Time),138413.39999997616,176_o_m_n_a.png,O,m,840,4,1,1741.6000000238419,136671.79999995232,7089,NNB,B,3
4,prac,1,0.0,1-Back,1,m,Wed Mar 19 2025 11:19:40 GMT-0500 (Central Daylight Time),140046.29999995232,126_m_m_n_a.png,O,m,704,5,1,1607.699999988079,138438.59999996424,7089,NNB,B,4
5,prac,1,1.0,1-Back,1,z,Wed Mar 19 2025 11:19:40 GMT-0500 (Central Daylight Time),141529.09999996424,126_m_m_n_a.png,O,z,665,6,1,1449.5999999642372,140079.5,7089,NNB,B,5
6,prac,1,0.0,1-Back,1,m,Wed Mar 19 2025 11:19:40 GMT-0500 (Central Daylight Time),143335.5,086_o_f_n_a.png,O,m,825,7,1,1776.300000011921,141559.19999998808,7089,NNB,B,6
7,prac,1,0.0,1-Back,1,m,Wed Mar 19 2025 11:19:40 GMT-0500 (Central Daylight Time),144945.0,178_m_m_n_a.png,O,m,708,8,1,1600.9000000357628,143344.09999996424,7089,NNB,B,7
8,prac,1,0.0,1-Back,1,m,Wed Mar 19 2025 11:19:40 GMT-0500 (Central Daylight Time),146610.69999998808,097_m_f_n_a.png,O,m,734,9,1,1634.800000011921,144975.89999997616,7089,NNB,B,8
9,prac,1,1.0,1-Back,1,z,Wed Mar 19 2025 11:19:40 GMT-0500 (Central Daylight Time),148093.69999998808,097_m_f_n_a.png,O,z,672,10,1,1451.699999988079,146642.0,7089,NNB,B,9
10,prac,1,0.0,1-Back,1,m,Wed Mar 19 2025 11:19:40 GMT-0500 (Central Daylight Time),149876.39999997616,176_o_m_n_a.png,O,m,832,11,1,1749.1000000238419,148127.29999995232,7089,NNB,B,10
11,prac,1,0.0,1-Back,1,m,Wed Mar 19 2025 11:19:40 GMT-0500 (Central Daylight Time),151409.0,173_y_f_n_a.png,O,m,611,12,1,1507.5,149901.5,7089,NNB,B,11
0,test,1,0.0,1-Back,,,Wed Mar 19 2025 11:19:40 GMT-0500 (Central Daylight Time),151409.0,152_y_f_n_a.png,O,space,7921,1,1,1507.5,149901.5,7089,NNB,B,0
1,test,1,0.0,1-Back,1,m,Wed Mar 19 2025 11:19:40 GMT-0500 (Central Daylight Time),170386.5,029_m_f_n_a.png,O,m,817,2,1,1841.2000000476837,168545.29999995232,7089,NNB,B,1
2,test,1,0.0,1-Back,1,m,Wed Mar 19 2025 11:19:40 GMT-0500 (Central Daylight Time),172019.09999996424,173_y_f_n_a.png,O,m,585,3,1,1611.699999988079,170407.39999997616,7089,NNB,B,2
3,test,1,1.0,1-Back,1,z,Wed Mar 19 2025 11:19:40 GMT-0500 (Central Daylight Time),173601.69999998808,173_y_f_n_a.png,O,z,542,4,1,1562.4000000357628,172039.29999995232,7089,NNB,B,3
4,test,1,0.0,1-Back,1,m,Wed Mar 19 2025 11:19:40 GMT-0500 (Central Daylight Time),175201.39999997616,029_m_f_n_a.png,O,m,561,5,1,1580.0,173621.39999997616,7089,NNB,B,4
5,test,1,0.0,1-Back,1,m,Wed Mar 19 2025 11:19:40 GMT-0500 (Central Daylight Time),176833.89999997616,176_o_m_n_a.png,O,m,592,6,1,1614.199999988079,175219.69999998808,7089,NNB,B,5
6,test,1,1.0,1-Back,1,z,Wed Mar 19 2025 11:19:40 GMT-0500 (Central Daylight Time),178366.79999995232,176_o_m_n_a.png,O,z,487,7,1,1513.2999999523163,176853.5,7089,NNB,B,6
7,test,1,0.0,1-Back,1,m,Wed Mar 19 2025 11:19:40 GMT-0500 (Central Daylight Time),180032.89999997616,126_m_m_n_a.png,O,m,625,8,1,1646.8999999761581,178386.0,7089,NNB,B,7
8,test,1,0.0,1-Back,1,m,Wed Mar 19 2025 11:19:40 GMT-0500 (Central Daylight Time),181632.39999997616,086_o_f_n_a.png,O,m,553,9,1,1580.699999988079,180051.69999998808,7089,NNB,B,8
9,test,1,0.0,1-Back,1,m,Wed Mar 19 2025 11:19:40 GMT-0500 (Central Daylight Time),183364.29999995232,126_m_m_n_a.png,O,m,687,10,1,1711.699999988079,181652.59999996424,7089,NNB,B,9
10,test,1,0.0,1-Back,1,m,Wed Mar 19 2025 11:19:40 GMT-0500 (Central Daylight Time),185048.0,153_y_m_n_a.png,O,m,663,11,1,1679.6000000238419,183368.39999997616,7089,NNB,B,10
11,test,1,1.0,1-Back,1,z,Wed Mar 19 2025 11:19:40 GMT-0500 (Central Daylight Time),186680.69999998808,153_y_m_n_a.png,O,z,585,12,1,1612.9000000357628,185067.79999995232,7089,NNB,B,11
12,test,1,0.0,1-Back,1,m,Wed Mar 19 2025 11:19:40 GMT-0500 (Central Daylight Time),188347.0,110_o_f_n_a.png,O,m,617,13,1,1644.300000011921,186702.69999998808,7089,NNB,B,12
13,test,1,1.0,1-Back,1,z,Wed Mar 19 2025 11:19:40 GMT-0500 (Central Daylight Time),190079.89999997616,110_o_f_n_a.png,O,z,687,14,1,1711.6000000238419,188368.29999995232,7089,NNB,B,13
14,test,1,0.0,1-Back,1,m,Wed Mar 19 2025 11:19:40 GMT-0500 (Central Daylight Time),191695.89999997616,013_y_m_n_a.png,O,m,571,15,1,1586.3999999761581,190109.5,7089,NNB,B,14
15,test,1,0.0,1-Back,1,m,Wed Mar 19 2025 11:19:40 GMT-0500 (Central Daylight Time),193395.19999998808,097_m_f_n_a.png,O,m,649,16,1,1680.0,191715.19999998808,7089,NNB,B,15
16,test,1,0.0,1-Back,1,m,Wed Mar 19 2025 11:19:40 GMT-0500 (Central Daylight Time),194961.39999997616,065_o_m_n_a.png,O,m,526,17,1,1539.5,193421.89999997616,7089,NNB,B,16
17,test,1,0.0,1-Back,1,m,Wed Mar 19 2025 11:19:40 GMT-0500 (Central Daylight Time),196527.5,097_m_f_n_a.png,O,m,528,18,1,1539.1000000238419,194988.39999997616,7089,NNB,B,17
0,test,2,0.0,1-Back,,,Wed Mar 19 2025 11:19:40 GMT-0500 (Central Daylight Time),196527.5,126_m_m_n_a.png,O,space,2594,1,1,1539.1000000238419,194988.39999997616,7089,NNB,B,0
1,test,2,0.0,1-Back,1,m,Wed Mar 19 2025 11:19:40 GMT-0500 (Central Daylight Time),203092.19999998808,029_m_f_n_a.png,O,m,900,2,1,1926.199999988079,201166.0,7089,NNB,B,1
2,test,2,1.0,1-Back,1,z,Wed Mar 19 2025 11:19:40 GMT-0500 (Central Daylight Time),204741.39999997616,029_m_f_n_a.png,O,z,605,3,1,1629.8999999761581,203111.5,7089,NNB,B,2
3,test,2,0.0,1-Back,1,m,Wed Mar 19 2025 11:19:40 GMT-0500 (Central Daylight Time),206424.29999995232,126_m_m_n_a.png,O,m,644,4,1,1654.7999999523163,204769.5,7089,NNB,B,3
4,test,2,0.0,1-Back,1,m,Wed Mar 19 2025 11:19:40 GMT-0500 (Central Daylight Time),208140.09999996424,153_y_m_n_a.png,O,m,666,5,1,1695.699999988079,206444.39999997616,7089,NNB,B,4
5,test,2,0.0,1-Back,1,m,Wed Mar 19 2025 11:19:40 GMT-0500 (Central Daylight Time),209790.0,152_y_f_n_a.png,O,m,605,6,1,1630.4000000357628,208159.59999996424,7089,NNB,B,5
6,test,2,1.0,1-Back,1,z,Wed Mar 19 2025 11:19:40 GMT-0500 (Central Daylight Time),211339.29999995232,152_y_f_n_a.png,O,z,508,7,1,1530.0,209809.29999995232,7089,NNB,B,6
7,test,2,0.0,1-Back,1,m,Wed Mar 19 2025 11:19:40 GMT-0500 (Central Daylight Time),212939.0,153_y_m_n_a.png,O,m,550,8,1,1581.0,211358.0,7089,NNB,B,7
8,test,2,0.0,1-Back,1,m,Wed Mar 19 2025 11:19:40 GMT-0500 (Central Daylight Time),214588.19999998808,110_o_f_n_a.png,O,m,607,9,1,1629.5,212958.69999998808,7089,NNB,B,8
9,test,2,0.0,1-Back,1,m,Wed Mar 19 2025 11:19:40 GMT-0500 (Central Daylight Time),216187.69999998808,178_m_m_n_a.png,O,m,549,10,1,1569.9000000357628,214617.79999995232,7089,NNB,B,9
10,test,2,1.0,1-Back,1,z,Wed Mar 19 2025 11:19:40 GMT-0500 (Central Daylight Time),217670.59999996424,178_m_m_n_a.png,O,z,446,11,1,1461.5,216209.09999996424,7089,NNB,B,10
11,test,2,0.0,1-Back,1,m,Wed Mar 19 2025 11:19:40 GMT-0500 (Central Daylight Time),219220.09999996424,110_o_f_n_a.png,O,m,507,12,1,1529.699999988079,217690.39999997616,7089,NNB,B,11
12,test,2,0.0,1-Back,1,m,Wed Mar 19 2025 11:19:40 GMT-0500 (Central Daylight Time),220869.39999997616,086_o_f_n_a.png,O,m,605,13,1,1630.1000000238419,219239.29999995232,7089,NNB,B,12
13,test,2,0.0,1-Back,1,m,Wed Mar 19 2025 11:19:40 GMT-0500 (Central Daylight Time),222419.09999996424,176_o_m_n_a.png,O,m,500,14,1,1521.199999988079,220897.89999997616,7089,NNB,B,13
14,test,2,0.0,1-Back,1,m,Wed Mar 19 2025 11:19:40 GMT-0500 (Central Daylight Time),223951.89999997616,065_o_m_n_a.png,O,m,494,15,1,1512.0,222439.89999997616,7089,NNB,B,14
15,test,2,1.0,1-Back,1,z,Wed Mar 19 2025 11:19:40 GMT-0500 (Central Daylight Time),225485.39999997616,065_o_m_n_a.png,O,z,499,16,1,1515.199999988079,223970.19999998808,7089,NNB,B,15
16,test,2,0.0,1-Back,1,m,Wed Mar 19 2025 11:19:40 GMT-0500 (Central Daylight Time),226917.59999996424,013_y_m_n_a.png,O,m,389,17,1,1416.3999999761581,225501.19999998808,7089,NNB,B,16
17,test,2,1.0,1-Back,1,z,Wed Mar 19 2025 11:19:40 GMT-0500 (Central Daylight Time),228550.19999998808,013_y_m_n_a.png,O,z,596,18,1,1611.199999988079,226939.0,7089,NNB,B,17
0,test,3,1.0,1-Back,,,Wed Mar 19 2025 11:19:40 GMT-0500 (Central Daylight Time),228550.19999998808,173_y_f_n_a.png,O,space,1844,1,1,1611.199999988079,226939.0,7089,NNB,B,0
1,test,3,0.0,1-Back,1,m,Wed Mar 19 2025 11:19:40 GMT-0500 (Central Daylight Time),234181.89999997616,065_o_m_n_a.png,O,m,588,1,1,1609.800000011921,232572.09999996424,7089,NNB,B,1
2,test,3,1.0,1-Back,1,z,Wed Mar 19 2025 11:19:40 GMT-0500 (Central Daylight Time),235781.5,065_o_m_n_a.png,O,z,564,1,1,1574.4000000357628,234207.09999996424,7089,NNB,B,2
3,test,3,0.0,1-Back,1,m,Wed Mar 19 2025 11:19:40 GMT-0500 (Central Daylight Time),237381.39999997616,097_m_f_n_a.png,O,m,565,1,1,1579.300000011921,235802.09999996424,7089,NNB,B,3
4,test,3,1.0,1-Back,1,z,Wed Mar 19 2025 11:19:40 GMT-0500 (Central Daylight Time),239030.09999996424,097_m_f_n_a.png,O,z,613,1,1,1629.300000011921,237400.79999995232,7089,NNB,B,4
5,test,3,0.0,1-Back,1,m,Wed Mar 19 2025 11:19:40 GMT-0500 (Central Daylight Time),240696.59999996424,110_o_f_n_a.png,O,m,627,1,1,1647.300000011921,239049.29999995232,7089,NNB,B,5
6,test,3,0.0,1-Back,1,m,Wed Mar 19 2025 11:19:40 GMT-0500 (Central Daylight Time),242379.29999995232,153_y_m_n_a.png,O,m,633,1,1,1661.8999999761581,240717.39999997616,7089,NNB,B,6
7,test,3,0.0,1-Back,1,m,Wed Mar 19 2025 11:19:40 GMT-0500 (Central Daylight Time),243928.69999998808,110_o_f_n_a.png,O,m,512,1,1,1530.199999988079,242398.5,7089,NNB,B,7
8,test,3,0.0,1-Back,1,m,Wed Mar 19 2025 11:19:40 GMT-0500 (Central Daylight Time),245494.69999998808,013_y_m_n_a.png,O,m,529,1,1,1543.1000000238419,243951.59999996424,7089,NNB,B,8
9,test,3,1.0,1-Back,1,z,Wed Mar 19 2025 11:19:40 GMT-0500 (Central Daylight Time),247010.89999997616,013_y_m_n_a.png,O,z,476,1,1,1498.3999999761581,245512.5,7089,NNB,B,9
10,test,3,0.0,1-Back,1,m,Wed Mar 19 2025 11:19:40 GMT-0500 (Central Daylight Time),248644.09999996424,029_m_f_n_a.png,O,m,582,1,1,1613.699999988079,247030.39999997616,7089,NNB,B,10
11,test,3,0.0,1-Back,1,m,Wed Mar 19 2025 11:19:40 GMT-0500 (Central Daylight Time),250259.89999997616,152_y_f_n_a.png,O,m,565,1,1,1597.199999988079,248662.69999998808,7089,NNB,B,11
12,test,3,1.0,1-Back,1,z,Wed Mar 19 2025 11:19:40 GMT-0500 (Central Daylight Time),251759.5,152_y_f_n_a.png,O,z,453,1,1,1480.1000000238419,250279.39999997616,7089,NNB,B,12
13,test,3,0.0,1-Back,1,m,Wed Mar 19 2025 11:19:40 GMT-0500 (Central Daylight Time),253375.69999998808,029_m_f_n_a.png,O,m,570,1,1,1594.1000000238419,251781.59999996424,7089,NNB,B,13
14,test,3,0.0,1-Back,1,m,Wed Mar 19 2025 11:19:40 GMT-0500 (Central Daylight Time),254991.5,126_m_m_n_a.png,O,m,570,1,1,1596.7000000476837,253394.79999995232,7089,NNB,B,14
15,test,3,1.0,1-Back,1,z,Wed Mar 19 2025 11:19:40 GMT-0500 (Central Daylight Time),256507.0,126_m_m_n_a.png,O,z,473,1,1,1493.0,255014.0,7089,NNB,B,15
16,test,3,0.0,1-Back,1,m,Wed Mar 19 2025 11:19:40 GMT-0500 (Central Daylight Time),258090.69999998808,086_o_f_n_a.png,O,m,550,1,1,1579.699999988079,256511.0,7089,NNB,B,16
17,test,3,1.0,1-Back,1,z,Wed Mar 19 2025 11:19:40 GMT-0500 (Central Daylight Time),259823.39999997616,086_o_f_n_a.png,O,z,687,1,1,1714.3999999761581,258109.0,7089,NNB,B,17
0,test,4,1.0,1-Back,,,Wed Mar 19 2025 11:19:40 GMT-0500 (Central Daylight Time),259823.39999997616,097_m_f_n_a.png,O,space,1410,1,1,1714.3999999761581,258109.0,7089,NNB,B,0
1,test,4,0.0,1-Back,1,m,Wed Mar 19 2025 11:19:40 GMT-0500 (Central Daylight Time),265055.09999996424,065_o_m_n_a.png,O,m,620,2,1,1647.0999999642372,263408.0,7089,NNB,B,1
2,test,4,0.0,1-Back,1,m,Wed Mar 19 2025 11:19:40 GMT-0500 (Central Daylight Time),266671.0,097_m_f_n_a.png,O,m,570,3,1,1596.2000000476837,265074.7999999523,7089,NNB,B,2
3,test,4,0.0,1-Back,1,m,Wed Mar 19 2025 11:19:40 GMT-0500 (Central Daylight Time),268420.89999997616,110_o_f_n_a.png,O,m,699,4,1,1731.1000000238419,266689.7999999523,7089,NNB,B,3
4,test,4,1.0,1-Back,1,z,Wed Mar 19 2025 11:19:40 GMT-0500 (Central Daylight Time),269986.59999996424,110_o_f_n_a.png,O,z,525,5,1,1544.300000011921,268442.2999999523,7089,NNB,B,4
5,test,4,0.0,1-Back,1,m,Wed Mar 19 2025 11:19:40 GMT-0500 (Central Daylight Time),271619.6999999881,152_y_f_n_a.png,O,m,591,6,1,1614.300000011921,270005.39999997616,7089,NNB,B,5
6,test,4,0.0,1-Back,1,m,Wed Mar 19 2025 11:19:40 GMT-0500 (Central Daylight Time),273202.39999997616,153_y_m_n_a.png,O,m,542,7,1,1563.699999988079,271638.6999999881,7089,NNB,B,6
6,test,4,1.0,1-Back,0,z,Wed Mar 19 2025 11:19:40 GMT-0500 (Central Daylight Time),274752.2999999523,153_y_m_n_a.png,O,m,503,8,1,1530.699999988079,273221.59999996424,7089,NNB,B,7
6,test,4,0.0,1-Back,0,m,Wed Mar 19 2025 11:19:40 GMT-0500 (Central Daylight Time),277801.1999999881,152_y_f_n_a.png,O,None,2016,9,1,3029.600000023842,274771.59999996424,7089,NNB,B,8
7,test,4,0.0,1-Back,1,m,Wed Mar 19 2025 11:19:40 GMT-0500 (Central Daylight Time),279650.2999999523,178_m_m_n_a.png,O,m,808,10,1,1826.7999999523163,277823.5,7089,NNB,B,9
8,test,4,1.0,1-Back,1,z,Wed Mar 19 2025 11:19:40 GMT-0500 (Central Daylight Time),281183.39999997616,178_m_m_n_a.png,O,z,495,11,1,1513.300000011921,279670.09999996424,7089,NNB,B,10
9,test,4,0.0,1-Back,1,m,Wed Mar 19 2025 11:19:40 GMT-0500 (Central Daylight Time),282882.5,086_o_f_n_a.png,O,m,650,12,1,1677.4000000357628,281205.09999996424,7089,NNB,B,11
10,test,4,0.0,1-Back,1,m,Wed Mar 19 2025 11:19:40 GMT-0500 (Central Daylight Time),284698.6999999881,176_o_m_n_a.png,O,m,767,13,1,1794.6000000238419,282904.09999996424,7089,NNB,B,12
11,test,4,0.0,1-Back,1,m,Wed Mar 19 2025 11:19:40 GMT-0500 (Central Daylight Time),286648.0,086_o_f_n_a.png,O,m,911,14,1,1928.7000000476837,284719.2999999523,7089,NNB,B,13
12,test,4,0.0,1-Back,1,m,Wed Mar 19 2025 11:19:40 GMT-0500 (Central Daylight Time),288347.39999997616,173_y_f_n_a.png,O,m,649,15,1,1677.699999988079,286669.6999999881,7089,NNB,B,14
13,test,4,1.0,1-Back,1,z,Wed Mar 19 2025 11:19:40 GMT-0500 (Central Daylight Time),289829.7999999523,173_y_f_n_a.png,O,z,447,16,1,1459.5,288370.2999999523,7089,NNB,B,15
14,test,4,0.0,1-Back,1,m,Wed Mar 19 2025 11:19:40 GMT-0500 (Central Daylight Time),291596.5,029_m_f_n_a.png,O,m,716,17,1,1748.1000000238419,289848.39999997616,7089,NNB,B,16
15,test,4,1.0,1-Back,1,z,Wed Mar 19 2025 11:19:40 GMT-0500 (Central Daylight Time),293312.7999999523,029_m_f_n_a.png,O,z,669,18,1,1696.2999999523163,291616.5,7089,NNB,B,17
0,test,5,1.0,1-Back,,,Wed Mar 19 2025 11:19:40 GMT-0500 (Central Daylight Time),293312.7999999523,176_o_m_n_a.png,O,space,1505,1,1,1696.2999999523163,291616.5,7089,NNB,B,0
1,test,5,1.0,1-Back,1,z,Wed Mar 19 2025 11:19:40 GMT-0500 (Central Daylight Time),298527.59999996424,176_o_m_n_a.png,O,z,495,2,1,1512.0,297015.59999996424,7089,NNB,B,1
2,test,5,0.0,1-Back,1,m,Wed Mar 19 2025 11:19:40 GMT-0500 (Central Daylight Time),300177.09999996424,152_y_f_n_a.png,O,m,611,3,1,1630.199999988079,298546.89999997616,7089,NNB,B,2
3,test,5,0.0,1-Back,1,m,Wed Mar 19 2025 11:19:40 GMT-0500 (Central Daylight Time),301826.5,153_y_m_n_a.png,O,m,601,4,1,1631.1000000238419,300195.39999997616,7089,NNB,B,3
4,test,5,0.0,1-Back,1,m,Wed Mar 19 2025 11:19:40 GMT-0500 (Central Daylight Time),303426.09999996424,152_y_f_n_a.png,O,m,551,5,1,1579.300000011921,301846.7999999523,7089,NNB,B,4
5,test,5,0.0,1-Back,1,m,Wed Mar 19 2025 11:19:40 GMT-0500 (Central Daylight Time),305041.89999997616,126_m_m_n_a.png,O,m,576,6,1,1598.3999999761581,303443.5,7089,NNB,B,5
6,test,5,1.0,1-Back,1,z,Wed Mar 19 2025 11:19:40 GMT-0500 (Central Daylight Time),306541.2999999523,126_m_m_n_a.png,O,z,463,7,1,1480.5,305060.7999999523,7089,NNB,B,6
7,test,5,0.0,1-Back,1,m,Wed Mar 19 2025 11:19:40 GMT-0500 (Central Daylight Time),308207.59999996424,173_y_f_n_a.png,O,m,628,8,1,1647.0,306560.59999996424,7089,NNB,B,7
8,test,5,0.0,1-Back,1,m,Wed Mar 19 2025 11:19:40 GMT-0500 (Central Daylight Time),309907.09999996424,013_y_m_n_a.png,O,m,659,9,1,1679.3999999761581,308227.6999999881,7089,NNB,B,8
8,test,5,0.0,1-Back,0,m,Wed Mar 19 2025 11:19:40 GMT-0500 (Central Daylight Time),311473.1999999881,173_y_f_n_a.png,O,z,527,10,1,1548.300000011921,309924.89999997616,7089,NNB,B,9
9,test,5,0.0,1-Back,1,m,Wed Mar 19 2025 11:19:40 GMT-0500 (Central Daylight Time),313273.1999999881,086_o_f_n_a.png,O,m,752,11,1,1784.300000011921,311488.89999997616,7089,NNB,B,10
10,test,5,1.0,1-Back,1,z,Wed Mar 19 2025 11:19:40 GMT-0500 (Central Daylight Time),314888.59999996424,086_o_f_n_a.png,O,z,577,12,1,1592.5,313296.09999996424,7089,NNB,B,11
11,test,5,0.0,1-Back,1,m,Wed Mar 19 2025 11:19:40 GMT-0500 (Central Daylight Time),316571.7999999523,065_o_m_n_a.png,O,m,633,13,1,1666.199999988079,314905.59999996424,7089,NNB,B,12
12,test,5,0.0,1-Back,1,m,Wed Mar 19 2025 11:19:40 GMT-0500 (Central Daylight Time),318187.59999996424,097_m_f_n_a.png,O,m,574,14,1,1597.3999999761581,316590.1999999881,7089,NNB,B,13
13,test,5,1.0,1-Back,1,z,Wed Mar 19 2025 11:19:40 GMT-0500 (Central Daylight Time),319803.7999999523,097_m_f_n_a.png,O,z,574,15,1,1599.2999999523163,318204.5,7089,NNB,B,14
14,test,5,0.0,1-Back,1,m,Wed Mar 19 2025 11:19:40 GMT-0500 (Central Daylight Time),321553.09999996424,065_o_m_n_a.png,O,m,703,16,1,1730.5999999642372,319822.5,7089,NNB,B,15
15,test,5,0.0,1-Back,1,m,Wed Mar 19 2025 11:19:40 GMT-0500 (Central Daylight Time),323452.6999999881,029_m_f_n_a.png,O,m,856,17,1,1878.9000000357628,321573.7999999523,7089,NNB,B,16
16,test,5,0.0,1-Back,1,m,Wed Mar 19 2025 11:19:40 GMT-0500 (Central Daylight Time),325101.7999999523,178_m_m_n_a.png,O,m,613,18,1,1630.5999999642372,323471.1999999881,7089,NNB,B,17
0,prac,1,0.0,2-Back,,,Wed Mar 19 2025 11:19:40 GMT-0500 (Central Daylight Time),325101.7999999523,013_y_m_n_a.png,O,space,5005,1,1,1630.5999999642372,323471.1999999881,7089,NNB,B,0
0,prac,1,0.0,2-Back,,,Wed Mar 19 2025 11:19:40 GMT-0500 (Central Daylight Time),325101.7999999523,029_m_f_n_a.png,O,space,5005,2,1,1630.5999999642372,323471.1999999881,7089,NNB,B,0
1,prac,1,1.0,2-Back,1,m,Wed Mar 19 2025 11:19:40 GMT-0500 (Central Daylight Time),438132.09999996424,065_o_m_n_a.png,O,m,1186,3,1,2183.5,435948.59999996424,7089,NNB,B,1
1,prac,1,0.0,2-Back,0,m,Wed Mar 19 2025 11:19:40 GMT-0500 (Central Daylight Time),441148.09999996424,086_o_f_n_a.png,O,None,2015,4,1,2980.800000011921,438167.2999999523,7089,NNB,B,2
1,prac,1,0.0,2-Back,0,z,Wed Mar 19 2025 11:19:40 GMT-0500 (Central Daylight Time),444112.2999999523,065_o_m_n_a.png,O,None,2005,5,1,2935.5,441176.7999999523,7089,NNB,B,3
1,prac,1,1.0,2-Back,0,z,Wed Mar 19 2025 11:19:40 GMT-0500 (Central Daylight Time),447062.09999996424,086_o_f_n_a.png,O,None,2010,6,1,2940.599999964237,444121.5,7089,NNB,B,4
1,prac,1,0.0,2-Back,0,m,Wed Mar 19 2025 11:19:40 GMT-0500 (Central Daylight Time),450010.2999999523,178_m_m_n_a.png,O,None,2007,7,1,2918.5,447091.7999999523,7089,NNB,B,5
1,prac,1,0.0,2-Back,0,m,Wed Mar 19 2025 11:19:40 GMT-0500 (Central Daylight Time),452943.2999999523,176_o_m_n_a.png,O,None,2016,8,1,2922.599999964237,450020.6999999881,7089,NNB,B,6
1,prac,1,0.0,2-Back,0,m,Wed Mar 19 2025 11:19:40 GMT-0500 (Central Daylight Time),455875.7999999523,173_y_f_n_a.png,O,None,2011,9,1,2904.699999988079,452971.09999996424,7089,NNB,B,7
1,prac,1,1.0,2-Back,0,z,Wed Mar 19 2025 11:19:40 GMT-0500 (Central Daylight Time),458808.09999996424,176_o_m_n_a.png,O,None,2002,10,1,2900.800000011921,455907.2999999523,7089,NNB,B,8
1,prac,1,0.0,2-Back,0,m,Wed Mar 19 2025 11:19:40 GMT-0500 (Central Daylight Time),461740.6999999881,152_y_f_n_a.png,O,None,2001,11,1,2902.0,458838.6999999881,7089,NNB,B,9
1,prac,1,0.0,2-Back,0,m,Wed Mar 19 2025 11:19:40 GMT-0500 (Central Daylight Time),464672.7999999523,178_m_m_n_a.png,O,None,2017,12,1,2908.699999988079,461764.09999996424,7089,NNB,B,10
0,prac,2,0.0,2-Back,,,Wed Mar 19 2025 11:19:40 GMT-0500 (Central Daylight Time),464672.7999999523,013_y_m_n_a.png,O,a,12292,1,1,2908.699999988079,461764.09999996424,7089,NNB,B,0
0,prac,2,0.0,2-Back,,,Wed Mar 19 2025 11:19:40 GMT-0500 (Central Daylight Time),464672.7999999523,029_m_f_n_a.png,O,a,12292,2,1,2908.699999988079,461764.09999996424,7089,NNB,B,0
1,prac,2,1.0,2-Back,1,m,Wed Mar 19 2025 11:19:40 GMT-0500 (Central Daylight Time),484032.39999997616,065_o_m_n_a.png,O,m,719,3,1,1635.800000011921,482396.59999996424,7089,NNB,B,1
2,prac,2,0.0,2-Back,1,m,Wed Mar 19 2025 11:19:40 GMT-0500 (Central Daylight Time),486132.89999997616,086_o_f_n_a.png,O,m,1173,4,1,2094.699999988079,484038.1999999881,7089,NNB,B,2
3,prac,2,0.0,2-Back,1,z,Wed Mar 19 2025 11:19:40 GMT-0500 (Central Daylight Time),488132.09999996424,065_o_m_n_a.png,O,z,1210,5,1,1978.0,486154.09999996424,7089,NNB,B,3
3,prac,2,1.0,2-Back,0,z,Wed Mar 19 2025 11:19:40 GMT-0500 (Central Daylight Time),490947.59999996424,086_o_f_n_a.png,O,None,2014,6,1,2785.699999988079,488161.89999997616,7089,NNB,B,4
4,prac,2,0.0,2-Back,1,m,Wed Mar 19 2025 11:19:40 GMT-0500 (Central Daylight Time),493163.89999997616,178_m_m_n_a.png,O,m,1285,7,1,2185.5,490978.39999997616,7089,NNB,B,5
5,prac,2,0.0,2-Back,1,m,Wed Mar 19 2025 11:19:40 GMT-0500 (Central Daylight Time),495096.39999997616,176_o_m_n_a.png,O,m,989,8,1,1900.6000000238419,493195.7999999523,7089,NNB,B,6
6,prac,2,0.0,2-Back,1,m,Wed Mar 19 2025 11:19:40 GMT-0500 (Central Daylight Time),496845.89999997616,173_y_f_n_a.png,O,m,831,9,1,1722.8999999761581,495123.0,7089,NNB,B,7
7,prac,2,1.0,2-Back,1,z,Wed Mar 19 2025 11:19:40 GMT-0500 (Central Daylight Time),499128.39999997616,176_o_m_n_a.png,O,z,1472,10,1,2253.899999976158,496874.5,7089,NNB,B,8
8,prac,2,0.0,2-Back,1,m,Wed Mar 19 2025 11:19:40 GMT-0500 (Central Daylight Time),500994.39999997616,152_y_f_n_a.png,O,m,924,11,1,1828.800000011921,499165.59999996424,7089,NNB,B,9
9,prac,2,0.0,2-Back,1,m,Wed Mar 19 2025 11:19:40 GMT-0500 (Central Daylight Time),503410.59999996424,178_m_m_n_a.png,O,m,1482,12,1,2384.0,501026.59999996424,7089,NNB,B,10
0,test,1,0.0,2-Back,,,Wed Mar 19 2025 11:19:40 GMT-0500 (Central Daylight Time),503410.59999996424,153_y_m_n_a.png,O,space,5122,1,1,2384.0,501026.59999996424,7089,NNB,B,0
0,test,1,0.0,2-Back,,,Wed Mar 19 2025 11:19:40 GMT-0500 (Central Daylight Time),503410.59999996424,153_y_m_n_a.png,O,space,5122,2,1,2384.0,501026.59999996424,7089,NNB,B,0
1,test,1,0.0,2-Back,1,m,Wed Mar 19 2025 11:19:40 GMT-0500 (Central Daylight Time),521470.89999997616,086_o_f_n_a.png,O,m,913,3,1,1929.8999999761581,519541.0,7089,NNB,B,1
2,test,1,0.0,2-Back,1,m,Wed Mar 19 2025 11:19:40 GMT-0500 (Central Daylight Time),523453.7999999523,126_m_m_n_a.png,O,m,940,4,1,1965.0,521488.7999999523,7089,NNB,B,2
3,test,1,1.0,2-Back,1,z,Wed Mar 19 2025 11:19:40 GMT-0500 (Central Daylight Time),525536.3999999762,086_o_f_n_a.png,O,z,1045,5,1,2063.0,523473.39999997616,7089,NNB,B,3
4,test,1,0.0,2-Back,1,m,Wed Mar 19 2025 11:19:40 GMT-0500 (Central Daylight Time),527302.3999999762,152_y_f_n_a.png,O,m,705,6,1,1748.0,525554.3999999762,7089,NNB,B,4
4,test,1,0.0,2-Back,0,m,Wed Mar 19 2025 11:19:40 GMT-0500 (Central Daylight Time),529984.6999999881,126_m_m_n_a.png,O,z,1619,7,1,2649.0,527335.6999999881,7089,NNB,B,5
5,test,1,1.0,2-Back,1,z,Wed Mar 19 2025 11:19:40 GMT-0500 (Central Daylight Time),532467.6999999881,152_y_f_n_a.png,O,z,1434,8,1,2467.300000011921,530000.3999999762,7089,NNB,B,6
6,test,1,0.0,2-Back,1,m,Wed Mar 19 2025 11:19:40 GMT-0500 (Central Daylight Time),534583.3999999762,013_y_m_n_a.png,O,m,1071,9,1,2097.899999976158,532485.5,7089,NNB,B,7
7,test,1,0.0,2-Back,1,m,Wed Mar 19 2025 11:19:40 GMT-0500 (Central Daylight Time),536432.5999999642,110_o_f_n_a.png,O,m,811,10,1,1831.5999999642372,534601.0,7089,NNB,B,8
8,test,1,1.0,2-Back,1,z,Wed Mar 19 2025 11:19:40 GMT-0500 (Central Daylight Time),538132.1999999881,013_y_m_n_a.png,O,z,659,11,1,1679.199999988079,536453.0,7089,NNB,B,9
9,test,1,0.0,2-Back,1,m,Wed Mar 19 2025 11:19:40 GMT-0500 (Central Daylight Time),539947.2999999523,029_m_f_n_a.png,O,m,772,12,1,1793.5999999642372,538153.6999999881,7089,NNB,B,10
9,test,1,0.0,2-Back,0,m,Wed Mar 19 2025 11:19:40 GMT-0500 (Central Daylight Time),542981.0,029_m_f_n_a.png,O,None,2017,13,1,3029.7000000476837,539951.2999999523,7089,NNB,B,11
10,test,1,0.0,2-Back,1,m,Wed Mar 19 2025 11:19:40 GMT-0500 (Central Daylight Time),545330.0999999642,065_o_m_n_a.png,O,m,1302,14,1,2330.899999976158,542999.1999999881,7089,NNB,B,12
11,test,1,0.0,2-Back,1,m,Wed Mar 19 2025 11:19:40 GMT-0500 (Central Daylight Time),547229.0999999642,110_o_f_n_a.png,O,m,856,15,1,1880.0,545349.0999999642,7089,NNB,B,13
12,test,1,1.0,2-Back,1,z,Wed Mar 19 2025 11:19:40 GMT-0500 (Central Daylight Time),548778.5999999642,065_o_m_n_a.png,O,z,500,16,1,1530.300000011921,547248.2999999523,7089,NNB,B,14
13,test,1,0.0,2-Back,1,m,Wed Mar 19 2025 11:19:40 GMT-0500 (Central Daylight Time),550511.2999999523,097_m_f_n_a.png,O,m,688,17,1,1715.5,548795.7999999523,7089,NNB,B,15
14,test,1,0.0,2-Back,1,m,Wed Mar 19 2025 11:19:40 GMT-0500 (Central Daylight Time),552728.6999999881,178_m_m_n_a.png,O,m,1179,18,1,2199.0,550529.6999999881,7089,NNB,B,16
0,test,2,0.0,2-Back,,,Wed Mar 19 2025 11:19:40 GMT-0500 (Central Daylight Time),552728.6999999881,178_m_m_n_a.png,O,space,1930,1,1,2199.0,550529.6999999881,7089,NNB,B,0
0,test,2,0.0,2-Back,,,Wed Mar 19 2025 11:19:40 GMT-0500 (Central Daylight Time),552728.6999999881,173_y_f_n_a.png,O,space,1930,2,1,2199.0,550529.6999999881,7089,NNB,B,0
1,test,2,1.0,2-Back,1,z,Wed Mar 19 2025 11:19:40 GMT-0500 (Central Daylight Time),562174.2999999523,178_m_m_n_a.png,O,z,1263,3,1,2272.0,559902.2999999523,7089,NNB,B,1
2,test,2,0.0,2-Back,1,m,Wed Mar 19 2025 11:19:40 GMT-0500 (Central Daylight Time),563958.0,097_m_f_n_a.png,O,m,748,4,1,1759.1000000238419,562198.8999999762,7089,NNB,B,2
2,test,2,0.0,2-Back,0,m,Wed Mar 19 2025 11:19:40 GMT-0500 (Central Daylight Time),566173.5999999642,173_y_f_n_a.png,O,z,1165,5,1,2184.099999964237,563989.5,7089,NNB,B,3
3,test,2,0.0,2-Back,1,m,Wed Mar 19 2025 11:19:40 GMT-0500 (Central Daylight Time),568105.5,065_o_m_n_a.png,O,m,884,6,1,1914.0,566191.5,7089,NNB,B,4
4,test,2,0.0,2-Back,1,m,Wed Mar 19 2025 11:19:40 GMT-0500 (Central Daylight Time),570021.6999999881,152_y_f_n_a.png,O,m,873,7,1,1894.1000000238419,568127.5999999642,7089,NNB,B,5
5,test,2,1.0,2-Back,1,z,Wed Mar 19 2025 11:19:40 GMT-0500 (Central Daylight Time),571737.5999999642,065_o_m_n_a.png,O,z,677,8,1,1697.5,570040.0999999642,7089,NNB,B,6
6,test,2,0.0,2-Back,1,m,Wed Mar 19 2025 11:19:40 GMT-0500 (Central Daylight Time),573387.2999999523,013_y_m_n_a.png,O,m,609,9,1,1629.0999999642372,571758.1999999881,7089,NNB,B,7
6,test,2,0.0,2-Back,0,m,Wed Mar 19 2025 11:19:40 GMT-0500 (Central Daylight Time),575436.6999999881,013_y_m_n_a.png,O,z,999,10,1,2031.5,573405.1999999881,7089,NNB,B,8
7,test,2,0.0,2-Back,1,m,Wed Mar 19 2025 11:19:40 GMT-0500 (Central Daylight Time),577536.0,029_m_f_n_a.png,O,m,1062,11,1,2081.0,575455.0,7089,NNB,B,9
8,test,2,0.0,2-Back,1,m,Wed Mar 19 2025 11:19:40 GMT-0500 (Central Daylight Time),579668.5,173_y_f_n_a.png,O,m,1083,12,1,2112.100000023842,577556.3999999762,7089,NNB,B,10
8,test,2,1.0,2-Back,0,z,Wed Mar 19 2025 11:19:40 GMT-0500 (Central Daylight Time),581951.0999999642,029_m_f_n_a.png,O,m,1238,13,1,2263.0,579688.0999999642,7089,NNB,B,11
9,test,2,0.0,2-Back,1,m,Wed Mar 19 2025 11:19:40 GMT-0500 (Central Daylight Time),583750.5,176_o_m_n_a.png,O,m,755,14,1,1781.4000000357628,581969.0999999642,7089,NNB,B,12
9,test,2,0.0,2-Back,0,m,Wed Mar 19 2025 11:19:40 GMT-0500 (Central Daylight Time),585716.5999999642,176_o_m_n_a.png,O,z,916,15,1,1946.3999999761581,583770.1999999881,7089,NNB,B,13
10,test,2,0.0,2-Back,1,m,Wed Mar 19 2025 11:19:40 GMT-0500 (Central Daylight Time),587566.0,110_o_f_n_a.png,O,m,806,16,1,1830.9000000357628,585735.0999999642,7089,NNB,B,14
11,test,2,0.0,2-Back,1,m,Wed Mar 19 2025 11:19:40 GMT-0500 (Central Daylight Time),589315.2999999523,126_m_m_n_a.png,O,m,709,17,1,1731.0999999642372,587584.1999999881,7089,NNB,B,15
12,test,2,1.0,2-Back,1,z,Wed Mar 19 2025 11:19:40 GMT-0500 (Central Daylight Time),591031.5,110_o_f_n_a.png,O,z,679,18,1,1695.7000000476837,589335.7999999523,7089,NNB,B,16
0,test,3,1.0,2-Back,,,Wed Mar 19 2025 11:19:40 GMT-0500 (Central Daylight Time),591031.5,153_y_m_n_a.png,O,space,1851,1,1,1695.7000000476837,589335.7999999523,7089,NNB,B,0
0,test,3,1.0,2-Back,,,Wed Mar 19 2025 11:19:40 GMT-0500 (Central Daylight Time),591031.5,153_y_m_n_a.png,O,space,1851,2,1,1695.7000000476837,589335.7999999523,7089,NNB,B,0
1,test,3,0.0,2-Back,1,m,Wed Mar 19 2025 11:19:40 GMT-0500 (Central Daylight Time),599895.5999999642,110_o_f_n_a.png,O,m,771,3,1,1797.0,598098.5999999642,7089,NNB,B,1
2,test,3,0.0,2-Back,1,m,Wed Mar 19 2025 11:19:40 GMT-0500 (Central Daylight Time),601761.5,178_m_m_n_a.png,O,m,827,4,1,1845.800000011921,599915.6999999881,7089,NNB,B,2
3,test,3,1.0,2-Back,1,z,Wed Mar 19 2025 11:19:40 GMT-0500 (Central Daylight Time),603377.3999999762,110_o_f_n_a.png,O,z,569,5,1,1588.699999988079,601788.6999999881,7089,NNB,B,3
4,test,3,0.0,2-Back,1,m,Wed Mar 19 2025 11:19:40 GMT-0500 (Central Daylight Time),605176.6999999881,013_y_m_n_a.png,O,m,752,6,1,1777.699999988079,603399.0,7089,NNB,B,4
4,test,3,0.0,2-Back,0,m,Wed Mar 19 2025 11:19:40 GMT-0500 (Central Daylight Time),607642.7999999523,178_m_m_n_a.png,O,z,1417,7,1,2447.7999999523163,605195.0,7089,NNB,B,5
5,test,3,1.0,2-Back,1,z,Wed Mar 19 2025 11:19:40 GMT-0500 (Central Daylight Time),609942.0,013_y_m_n_a.png,O,z,1264,8,1,2280.0,607662.0,7089,NNB,B,6
6,test,3,0.0,2-Back,1,m,Wed Mar 19 2025 11:19:40 GMT-0500 (Central Daylight Time),611757.6999999881,173_y_f_n_a.png,O,m,781,9,1,1794.300000011921,609963.3999999762,7089,NNB,B,7
7,test,3,0.0,2-Back,1,m,Wed Mar 19 2025 11:19:40 GMT-0500 (Central Daylight Time),613807.2999999523,126_m_m_n_a.png,O,m,1013,10,1,2029.699999988079,611777.5999999642,7089,NNB,B,8
7,test,3,1.0,2-Back,0,z,Wed Mar 19 2025 11:19:40 GMT-0500 (Central Daylight Time),616273.2999999523,173_y_f_n_a.png,O,m,1427,11,1,2447.899999976158,613825.3999999762,7089,NNB,B,9
8,test,3,1.0,2-Back,1,z,Wed Mar 19 2025 11:19:40 GMT-0500 (Central Daylight Time),618288.7999999523,126_m_m_n_a.png,O,z,976,12,1,1995.2999999523163,616293.5,7089,NNB,B,10
9,test,3,0.0,2-Back,1,m,Wed Mar 19 2025 11:19:40 GMT-0500 (Central Daylight Time),620171.8999999762,110_o_f_n_a.png,O,m,858,13,1,1873.699999988079,618298.1999999881,7089,NNB,B,11
10,test,3,0.0,2-Back,1,m,Wed Mar 19 2025 11:19:40 GMT-0500 (Central Daylight Time),622005.3999999762,097_m_f_n_a.png,O,m,799,14,1,1814.699999988079,620190.6999999881,7089,NNB,B,12
11,test,3,0.0,2-Back,1,m,Wed Mar 19 2025 11:19:40 GMT-0500 (Central Daylight Time),623754.0,065_o_m_n_a.png,O,m,702,15,1,1731.2000000476837,622022.7999999523,7089,NNB,B,13
12,test,3,1.0,2-Back,1,z,Wed Mar 19 2025 11:19:40 GMT-0500 (Central Daylight Time),625269.7999999523,097_m_f_n_a.png,O,z,480,16,1,1495.199999988079,623774.5999999642,7089,NNB,B,14
13,test,3,0.0,2-Back,1,m,Wed Mar 19 2025 11:19:40 GMT-0500 (Central Daylight Time),626969.6999999881,086_o_f_n_a.png,O,m,660,17,1,1676.0,625293.6999999881,7089,NNB,B,15
14,test,3,0.0,2-Back,1,m,Wed Mar 19 2025 11:19:40 GMT-0500 (Central Daylight Time),630002.0,086_o_f_n_a.png,O,m,1993,18,1,3014.600000023842,626987.3999999762,7089,NNB,B,16
0,test,4,0.0,2-Back,,,Wed Mar 19 2025 11:19:40 GMT-0500 (Central Daylight Time),630002.0,176_o_m_n_a.png,O,space,1568,1,1,3014.600000023842,626987.3999999762,7089,NNB,B,0
0,test,4,0.0,2-Back,,,Wed Mar 19 2025 11:19:40 GMT-0500 (Central Daylight Time),630002.0,152_y_f_n_a.png,O,space,1568,2,1,3014.600000023842,626987.3999999762,7089,NNB,B,0
0,test,4,1.0,2-Back,0,z,Wed Mar 19 2025 11:19:40 GMT-0500 (Central Daylight Time),638832.5,176_o_m_n_a.png,O,m,878,3,1,1890.800000011921,636941.6999999881,7089,NNB,B,1
1,test,4,1.0,2-Back,1,z,Wed Mar 19 2025 11:19:40 GMT-0500 (Central Daylight Time),640931.8999999762,152_y_f_n_a.png,O,z,1058,4,1,2075.300000011921,638856.5999999642,7089,NNB,B,2
2,test,4,0.0,2-Back,1,m,Wed Mar 19 2025 11:19:40 GMT-0500 (Central Daylight Time),642964.5,110_o_f_n_a.png,O,m,983,5,1,2014.6000000238419,640949.8999999762,7089,NNB,B,3
3,test,4,0.0,2-Back,1,m,Wed Mar 19 2025 11:19:40 GMT-0500 (Central Daylight Time),645846.8999999762,110_o_f_n_a.png,O,m,1837,6,1,2864.899999976158,642982.0,7089,NNB,B,4
4,test,4,0.0,2-Back,1,m,Wed Mar 19 2025 11:19:40 GMT-0500 (Central Daylight Time),647862.7999999523,029_m_f_n_a.png,O,m,972,7,1,1996.199999988079,645866.5999999642,7089,NNB,B,5
5,test,4,0.0,2-Back,1,m,Wed Mar 19 2025 11:19:40 GMT-0500 (Central Daylight Time),649629.0,013_y_m_n_a.png,O,m,716,8,1,1744.300000011921,647884.6999999881,7089,NNB,B,6
6,test,4,1.0,2-Back,1,z,Wed Mar 19 2025 11:19:40 GMT-0500 (Central Daylight Time),651261.5999999642,029_m_f_n_a.png,O,z,589,9,1,1614.300000011921,649647.2999999523,7089,NNB,B,7
7,test,4,0.0,2-Back,1,m,Wed Mar 19 2025 11:19:40 GMT-0500 (Central Daylight Time),652861.3999999762,126_m_m_n_a.png,O,m,557,10,1,1582.800000011921,651278.5999999642,7089,NNB,B,8
7,test,4,0.0,2-Back,0,m,Wed Mar 19 2025 11:19:40 GMT-0500 (Central Daylight Time),654444.1999999881,013_y_m_n_a.png,O,z,541,11,1,1565.800000011921,652878.3999999762,7089,NNB,B,9
8,test,4,0.0,2-Back,1,m,Wed Mar 19 2025 11:19:40 GMT-0500 (Central Daylight Time),656110.0,086_o_f_n_a.png,O,m,622,12,1,1648.7000000476837,654461.2999999523,7089,NNB,B,10
9,test,4,0.0,2-Back,1,m,Wed Mar 19 2025 11:19:40 GMT-0500 (Central Daylight Time),657776.2999999523,153_y_m_n_a.png,O,m,628,13,1,1645.699999988079,656130.5999999642,7089,NNB,B,11
10,test,4,1.0,2-Back,1,z,Wed Mar 19 2025 11:19:40 GMT-0500 (Central Daylight Time),659492.3999999762,086_o_f_n_a.png,O,z,666,14,1,1698.6000000238419,657793.7999999523,7089,NNB,B,12
10,test,4,1.0,2-Back,0,z,Wed Mar 19 2025 11:19:40 GMT-0500 (Central Daylight Time),661391.8999999762,153_y_m_n_a.png,O,m,854,15,1,1876.300000011921,659515.5999999642,7089,NNB,B,13
11,test,4,0.0,2-Back,1,m,Wed Mar 19 2025 11:19:40 GMT-0500 (Central Daylight Time),664141.7999999523,178_m_m_n_a.png,O,m,1714,16,1,2732.0,661409.7999999523,7089,NNB,B,14
12,test,4,0.0,2-Back,1,m,Wed Mar 19 2025 11:19:40 GMT-0500 (Central Daylight Time),666040.1999999881,097_m_f_n_a.png,O,m,854,17,1,1877.5,664162.6999999881,7089,NNB,B,15
12,test,4,1.0,2-Back,0,z,Wed Mar 19 2025 11:19:40 GMT-0500 (Central Daylight Time),667906.1999999881,178_m_m_n_a.png,O,m,826,18,1,1847.1000000238419,666059.0999999642,7089,NNB,B,16
0,test,5,1.0,2-Back,,,Wed Mar 19 2025 11:19:40 GMT-0500 (Central Daylight Time),667906.1999999881,153_y_m_n_a.png,O,space,1673,1,1,1847.1000000238419,666059.0999999642,7089,NNB,B,0
0,test,5,1.0,2-Back,,,Wed Mar 19 2025 11:19:40 GMT-0500 (Central Daylight Time),667906.1999999881,097_m_f_n_a.png,O,space,1673,2,1,1847.1000000238419,666059.0999999642,7089,NNB,B,0
1,test,5,1.0,2-Back,1,z,Wed Mar 19 2025 11:19:40 GMT-0500 (Central Daylight Time),676603.5,153_y_m_n_a.png,O,z,734,3,1,1756.5,674847.0,7089,NNB,B,1
2,test,5,1.0,2-Back,1,z,Wed Mar 19 2025 11:19:40 GMT-0500 (Central Daylight Time),678151.8999999762,097_m_f_n_a.png,O,z,501,4,1,1529.5,676622.3999999762,7089,NNB,B,2
3,test,5,0.0,2-Back,1,m,Wed Mar 19 2025 11:19:40 GMT-0500 (Central Daylight Time),680118.7999999523,086_o_f_n_a.png,O,m,946,5,1,1962.699999988079,678156.0999999642,7089,NNB,B,3
4,test,5,0.0,2-Back,1,m,Wed Mar 19 2025 11:19:40 GMT-0500 (Central Daylight Time),681785.0999999642,153_y_m_n_a.png,O,m,628,6,1,1645.699999988079,680139.3999999762,7089,NNB,B,4
5,test,5,0.0,2-Back,1,m,Wed Mar 19 2025 11:19:40 GMT-0500 (Central Daylight Time),683584.5,173_y_f_n_a.png,O,m,758,7,1,1782.1000000238419,681802.3999999762,7089,NNB,B,5
6,test,5,0.0,2-Back,1,m,Wed Mar 19 2025 11:19:40 GMT-0500 (Central Daylight Time),685350.5,086_o_f_n_a.png,O,m,722,8,1,1744.9000000357628,683605.5999999642,7089,NNB,B,6
7,test,5,1.0,2-Back,1,z,Wed Mar 19 2025 11:19:40 GMT-0500 (Central Daylight Time),688183.0,173_y_f_n_a.png,O,z,1788,9,1,2813.900000035763,685369.0999999642,7089,NNB,B,7
8,test,5,0.0,2-Back,1,m,Wed Mar 19 2025 11:19:40 GMT-0500 (Central Daylight Time),690015.6999999881,065_o_m_n_a.png,O,m,795,10,1,1813.0,688202.6999999881,7089,NNB,B,8
9,test,5,0.0,2-Back,1,m,Wed Mar 19 2025 11:19:40 GMT-0500 (Central Daylight Time),691897.5,029_m_f_n_a.png,O,m,835,11,1,1864.300000011921,690033.1999999881,7089,NNB,B,9
10,test,5,0.0,2-Back,1,m,Wed Mar 19 2025 11:19:40 GMT-0500 (Central Daylight Time),693731.0999999642,126_m_m_n_a.png,O,m,809,12,1,1830.0,691901.0999999642,7089,NNB,B,10
10,test,5,0.0,2-Back,0,m,Wed Mar 19 2025 11:19:40 GMT-0500 (Central Daylight Time),695530.5,065_o_m_n_a.png,O,z,759,13,1,1776.300000011921,693754.1999999881,7089,NNB,B,11
10,test,5,1.0,2-Back,0,z,Wed Mar 19 2025 11:19:40 GMT-0500 (Central Daylight Time),697463.3999999762,126_m_m_n_a.png,O,m,888,14,1,1913.8999999761581,695549.5,7089,NNB,B,12
11,test,5,0.0,2-Back,1,m,Wed Mar 19 2025 11:19:40 GMT-0500 (Central Daylight Time),699429.2999999523,152_y_f_n_a.png,O,m,915,15,1,1947.7999999523163,697481.5,7089,NNB,B,13
12,test,5,0.0,2-Back,1,m,Wed Mar 19 2025 11:19:40 GMT-0500 (Central Daylight Time),701262.0,176_o_m_n_a.png,O,m,789,16,1,1813.6000000238419,699448.3999999762,7089,NNB,B,14
13,test,5,0.0,2-Back,1,m,Wed Mar 19 2025 11:19:40 GMT-0500 (Central Daylight Time),702944.5999999642,029_m_f_n_a.png,O,m,644,17,1,1661.0999999642372,701283.5,7089,NNB,B,15
14,test,5,1.0,2-Back,1,z,Wed Mar 19 2025 11:19:40 GMT-0500 (Central Daylight Time),704461.0,176_o_m_n_a.png,O,z,474,18,1,1495.800000011921,702965.1999999881,7089,NNB,B,16
