block_c,block_dur,condition,countdown,datetime,endtime,list,multichar_response,project,response,response_time,session_number,start_end,starttime,subject_id,task,task_vers,trial
,,,,Wed Feb 12 2025 11:16:42 GMT-0600 (Central Standard Time),,,,O,space,584,1,,,7052,WL,A,
prac,,0,,Wed Feb 12 2025 11:16:42 GMT-0600 (Central Standard Time),,NA,b,O,b,4184,1,,,7052,WL,A,1.0
prac,,0,,Wed Feb 12 2025 11:16:42 GMT-0600 (Central Standard Time),,NA,bo,O,o,562,1,,,7052,WL,A,1.0
prac,,0,,Wed Feb 12 2025 11:16:42 GMT-0600 (Central Standard Time),,NA,boo,O,o,132,1,,,7052,WL,A,1.0
prac,,0,,Wed Feb 12 2025 11:16:42 GMT-0600 (Central Standard Time),,NA,boos,O,s,247,1,,,7052,WL,A,1.0
prac,,0,,Wed Feb 12 2025 11:16:42 GMT-0600 (Central Standard Time),,NA,boost,O,t,324,1,,,7052,WL,A,1.0
prac,,0,,Wed Feb 12 2025 11:16:42 GMT-0600 (Central Standard Time),,NA,boostenter,O,enter,2359,1,,,7052,WL,A,1.0
1,1.7160000801086426,learn,58283.99991989136,Wed Feb 12 2025 11:16:42 GMT-0600 (Central Standard Time),157676.19999999553,A,b,O,b,1707,1,1715.7999999970198,155960.3999999985,7052,WL,A,1.0
1,2.0999999046325684,learn,57900.00009536743,Wed Feb 12 2025 11:16:42 GMT-0600 (Central Standard Time),158059.5,A,bo,O,o,359,1,2099.10000000149,155960.3999999985,7052,WL,A,1.0
1,2.249000072479248,learn,57750.99992752075,Wed Feb 12 2025 11:16:42 GMT-0600 (Central Standard Time),158209.29999999702,A,boo,O,o,135,1,2248.89999999851,155960.3999999985,7052,WL,A,1.0
1,2.499000072479248,learn,57500.99992752075,Wed Feb 12 2025 11:16:42 GMT-0600 (Central Standard Time),158459.19999999553,A,book,O,k,226,1,2498.7999999970198,155960.3999999985,7052,WL,A,1.0
1,5.249000072479248,learn,54750.99992752075,Wed Feb 12 2025 11:16:42 GMT-0600 (Central Standard Time),161208.6000000015,A,bookenter,O,enter,2736,1,5248.20000000298,155960.3999999985,7052,WL,A,1.0
1,6.565000057220459,learn,53434.99994277954,Wed Feb 12 2025 11:16:42 GMT-0600 (Central Standard Time),162524.5,A,f,O,f,1307,1,1315.3999999985099,161209.1000000015,7052,WL,A,2.0
1,6.765000104904175,learn,53234.999895095825,Wed Feb 12 2025 11:16:42 GMT-0600 (Central Standard Time),162724.5,A,fl,O,l,182,1,1515.3999999985099,161209.1000000015,7052,WL,A,2.0
1,6.980999946594238,learn,53019.00005340576,Wed Feb 12 2025 11:16:42 GMT-0600 (Central Standard Time),162941.1000000015,A,flo,O,o,199,1,1732.0,161209.1000000015,7052,WL,A,2.0
1,7.331000089645386,learn,52668.999910354614,Wed Feb 12 2025 11:16:42 GMT-0600 (Central Standard Time),163291.0,A,flow,O,w,333,1,2081.89999999851,161209.1000000015,7052,WL,A,2.0
1,7.5309998989105225,learn,52469.00010108948,Wed Feb 12 2025 11:16:42 GMT-0600 (Central Standard Time),163490.8999999985,A,flowe,O,e,185,1,2281.7999999970198,161209.1000000015,7052,WL,A,2.0
1,7.730999946594238,learn,52269.00005340576,Wed Feb 12 2025 11:16:42 GMT-0600 (Central Standard Time),163690.8999999985,A,flower,O,r,183,1,2481.7999999970198,161209.1000000015,7052,WL,A,2.0
1,8.331000089645386,learn,51668.999910354614,Wed Feb 12 2025 11:16:42 GMT-0600 (Central Standard Time),164290.79999999702,A,flowerenter,O,enter,592,1,3081.6999999955297,161209.1000000015,7052,WL,A,2.0
1,9.280999898910522,learn,50719.00010108948,Wed Feb 12 2025 11:16:42 GMT-0600 (Central Standard Time),165240.6000000015,A,a,O,a,936,1,949.3000000044703,164291.29999999702,7052,WL,A,3.0
1,9.496999979019165,learn,50503.000020980835,Wed Feb 12 2025 11:16:42 GMT-0600 (Central Standard Time),165457.0,A,ap,O,p,203,1,1165.7000000029802,164291.29999999702,7052,WL,A,3.0
1,9.647000074386597,learn,50352.9999256134,Wed Feb 12 2025 11:16:42 GMT-0600 (Central Standard Time),165607.0,A,app,O,p,130,1,1315.7000000029802,164291.29999999702,7052,WL,A,3.0
1,9.864000082015991,learn,50135.99991798401,Wed Feb 12 2025 11:16:42 GMT-0600 (Central Standard Time),165823.79999999702,A,appl,O,l,195,1,1532.5,164291.29999999702,7052,WL,A,3.0
1,10.164999961853027,learn,49835.00003814697,Wed Feb 12 2025 11:16:42 GMT-0600 (Central Standard Time),166124.6000000015,A,apple,O,e,292,1,1833.3000000044703,164291.29999999702,7052,WL,A,3.0
1,10.61299991607666,learn,49387.00008392334,Wed Feb 12 2025 11:16:42 GMT-0600 (Central Standard Time),166573.1000000015,A,appleenter,O,enter,439,1,2281.8000000044703,164291.29999999702,7052,WL,A,3.0
1,11.11299991607666,learn,48887.00008392334,Wed Feb 12 2025 11:16:42 GMT-0600 (Central Standard Time),167073.1000000015,A,l,O,l,479,1,499.6000000014901,166573.5,7052,WL,A,4.0
1,11.329999923706055,learn,48670.000076293945,Wed Feb 12 2025 11:16:42 GMT-0600 (Central Standard Time),167289.79999999702,A,lo,O,o,203,1,716.2999999970198,166573.5,7052,WL,A,4.0
1,11.812999963760376,learn,48187.000036239624,Wed Feb 12 2025 11:16:42 GMT-0600 (Central Standard Time),167772.79999999702,A,log,O,g,466,1,1199.2999999970198,166573.5,7052,WL,A,4.0
1,12.145999908447266,learn,47854.000091552734,Wed Feb 12 2025 11:16:42 GMT-0600 (Central Standard Time),168106.19999999553,A,logenter,O,enter,318,1,1532.6999999955297,166573.5,7052,WL,A,4.0
1,12.86299991607666,learn,47137.00008392334,Wed Feb 12 2025 11:16:42 GMT-0600 (Central Standard Time),168822.69999999553,A,k,O,k,705,1,716.0999999940395,168106.6000000015,7052,WL,A,5.0
1,13.36299991607666,learn,46637.00008392334,Wed Feb 12 2025 11:16:42 GMT-0600 (Central Standard Time),169322.3999999985,A,ke,O,e,484,1,1215.7999999970198,168106.6000000015,7052,WL,A,5.0
1,13.746000051498413,learn,46253.99994850159,Wed Feb 12 2025 11:16:42 GMT-0600 (Central Standard Time),169705.69999999553,A,key,O,y,361,1,1599.0999999940395,168106.6000000015,7052,WL,A,5.0
1,14.378999948501587,learn,45621.00005149841,Wed Feb 12 2025 11:16:42 GMT-0600 (Central Standard Time),170339.19999999553,A,keyenter,O,enter,625,1,2232.5999999940395,168106.6000000015,7052,WL,A,5.0
1,14.928999900817871,learn,45071.00009918213,Wed Feb 12 2025 11:16:42 GMT-0600 (Central Standard Time),170888.69999999553,A,t,O,t,528,1,549.0999999940395,170339.6000000015,7052,WL,A,6.0
1,15.111999988555908,learn,44888.00001144409,Wed Feb 12 2025 11:16:42 GMT-0600 (Central Standard Time),171072.0,A,tr,O,r,170,1,732.3999999985099,170339.6000000015,7052,WL,A,6.0
1,15.696000099182129,learn,44303.99990081787,Wed Feb 12 2025 11:16:42 GMT-0600 (Central Standard Time),171656.1000000015,A,tra,O,a,563,1,1316.5,170339.6000000015,7052,WL,A,6.0
1,15.995000123977661,learn,44004.99987602234,Wed Feb 12 2025 11:16:42 GMT-0600 (Central Standard Time),171954.8999999985,A,trai,O,i,275,1,1615.2999999970198,170339.6000000015,7052,WL,A,6.0
1,16.26200008392334,learn,43737.99991607666,Wed Feb 12 2025 11:16:42 GMT-0600 (Central Standard Time),172221.6000000015,A,train,O,n,248,1,1882.0,170339.6000000015,7052,WL,A,6.0
1,16.82800006866455,learn,43171.99993133545,Wed Feb 12 2025 11:16:42 GMT-0600 (Central Standard Time),172788.1000000015,A,trainenter,O,enter,549,1,2448.5,170339.6000000015,7052,WL,A,6.0
1,18.878000020980835,learn,41121.999979019165,Wed Feb 12 2025 11:16:42 GMT-0600 (Central Standard Time),174837.3999999985,A,m,O,m,2039,1,2049.10000000149,172788.29999999702,7052,WL,A,7.0
1,19.47699999809265,learn,40523.00000190735,Wed Feb 12 2025 11:16:42 GMT-0600 (Central Standard Time),175437.19999999553,A,me,O,e,591,1,2648.89999999851,172788.29999999702,7052,WL,A,7.0
1,19.76099991798401,learn,40239.00008201599,Wed Feb 12 2025 11:16:42 GMT-0600 (Central Standard Time),175720.6000000015,A,mea,O,a,269,1,2932.3000000044703,172788.29999999702,7052,WL,A,7.0
1,21.110000133514404,learn,38889.999866485596,Wed Feb 12 2025 11:16:42 GMT-0600 (Central Standard Time),177070.1000000015,A,mead,O,d,1337,1,4281.80000000447,172788.29999999702,7052,WL,A,7.0
1,22.042999982833862,learn,37957.00001716614,Wed Feb 12 2025 11:16:42 GMT-0600 (Central Standard Time),178002.79999999702,A,meado,O,o,917,1,5214.5,172788.29999999702,7052,WL,A,7.0
1,22.4760000705719,learn,37523.9999294281,Wed Feb 12 2025 11:16:42 GMT-0600 (Central Standard Time),178436.19999999553,A,meadow,O,w,424,1,5647.89999999851,172788.29999999702,7052,WL,A,7.0
1,22.89300012588501,learn,37106.99987411499,Wed Feb 12 2025 11:16:42 GMT-0600 (Central Standard Time),178852.79999999702,A,meadowenter,O,enter,408,1,6064.5,172788.29999999702,7052,WL,A,7.0
1,25.47499990463257,learn,34525.00009536743,Wed Feb 12 2025 11:16:42 GMT-0600 (Central Standard Time),181435.29999999702,A,c,O,c,2574,1,2582.1999999955297,178853.1000000015,7052,WL,A,8.0
1,25.674999952316284,learn,34325.000047683716,Wed Feb 12 2025 11:16:42 GMT-0600 (Central Standard Time),181635.1000000015,A,ch,O,h,176,1,2782.0,178853.1000000015,7052,WL,A,8.0
1,26.191999912261963,learn,33808.00008773804,Wed Feb 12 2025 11:16:42 GMT-0600 (Central Standard Time),182151.79999999702,A,chi,O,i,496,1,3298.6999999955297,178853.1000000015,7052,WL,A,8.0
1,26.490999937057495,learn,33509.000062942505,Wed Feb 12 2025 11:16:42 GMT-0600 (Central Standard Time),182451.6000000015,A,chim,O,m,292,1,3598.5,178853.1000000015,7052,WL,A,8.0
1,26.95799994468689,learn,33042.00005531311,Wed Feb 12 2025 11:16:42 GMT-0600 (Central Standard Time),182918.19999999553,A,chimn,O,n,456,1,4065.0999999940395,178853.1000000015,7052,WL,A,8.0
1,27.808000087738037,learn,32191.999912261963,Wed Feb 12 2025 11:16:42 GMT-0600 (Central Standard Time),183767.8999999985,A,chimne,O,e,837,1,4914.79999999702,178853.1000000015,7052,WL,A,8.0
1,27.97499990463257,learn,32025.00009536743,Wed Feb 12 2025 11:16:42 GMT-0600 (Central Standard Time),183934.69999999553,A,chimney,O,y,155,1,5081.5999999940395,178853.1000000015,7052,WL,A,8.0
1,28.45799994468689,learn,31542.00005531311,Wed Feb 12 2025 11:16:42 GMT-0600 (Central Standard Time),184417.69999999553,A,chimneyenter,O,enter,469,1,5564.5999999940395,178853.1000000015,7052,WL,A,8.0
1,32.52300000190735,learn,27476.99999809265,Wed Feb 12 2025 11:16:42 GMT-0600 (Central Standard Time),188483.1000000015,A,r,O,r,4050,1,4065.0,184418.1000000015,7052,WL,A,9.0
1,32.75600004196167,learn,27243.99995803833,Wed Feb 12 2025 11:16:42 GMT-0600 (Central Standard Time),188716.3999999985,A,ru,O,u,216,1,4298.29999999702,184418.1000000015,7052,WL,A,9.0
1,33.08899998664856,learn,26911.00001335144,Wed Feb 12 2025 11:16:42 GMT-0600 (Central Standard Time),189049.6000000015,A,rug,O,g,311,1,4631.5,184418.1000000015,7052,WL,A,9.0
1,33.27300000190735,learn,26726.99999809265,Wed Feb 12 2025 11:16:42 GMT-0600 (Central Standard Time),189232.8999999985,A,rugenter,O,enter,170,1,4814.79999999702,184418.1000000015,7052,WL,A,9.0
1,45.51900005340576,learn,14480.999946594238,Wed Feb 12 2025 11:16:42 GMT-0600 (Central Standard Time),201479.1000000015,A,r,O,r,12235,1,12245.90000000596,189233.19999999553,7052,WL,A,10.0
1,45.95199990272522,learn,14048.00009727478,Wed Feb 12 2025 11:16:42 GMT-0600 (Central Standard Time),201912.19999999553,A,ra,O,a,411,1,12679.0,189233.19999999553,7052,WL,A,10.0
1,46.03500008583069,learn,13964.999914169312,Wed Feb 12 2025 11:16:42 GMT-0600 (Central Standard Time),201995.3999999985,A,rai,O,i,75,1,12762.20000000298,189233.19999999553,7052,WL,A,10.0
1,46.13499999046326,learn,13865.000009536743,Wed Feb 12 2025 11:16:42 GMT-0600 (Central Standard Time),202095.5,A,rain,O,n,81,1,12862.30000000447,189233.19999999553,7052,WL,A,10.0
1,46.55200004577637,learn,13447.999954223633,Wed Feb 12 2025 11:16:42 GMT-0600 (Central Standard Time),202511.8999999985,A,rainenter,O,enter,404,1,13278.70000000298,189233.19999999553,7052,WL,A,10.0
1,60.013999938964844,learn,-13.99993896484375,Wed Feb 12 2025 11:16:42 GMT-0600 (Central Standard Time),215974.69999999553,A,None,O,None,13455,1,13462.29999999702,202512.3999999985,7052,WL,A,11.0
2,1.683000087738037,learn,58316.99991226196,Wed Feb 12 2025 11:16:42 GMT-0600 (Central Standard Time),286202.3999999985,A,h,O,h,1660,1,1682.7000000029802,284519.69999999553,7052,WL,A,1.0
2,2.049999952316284,learn,57950.000047683716,Wed Feb 12 2025 11:16:42 GMT-0600 (Central Standard Time),286569.0,A,ha,O,a,352,1,2049.3000000044703,284519.69999999553,7052,WL,A,1.0
2,2.4489998817443848,learn,57551.000118255615,Wed Feb 12 2025 11:16:42 GMT-0600 (Central Standard Time),286968.6000000015,A,har,O,r,378,1,2448.9000000059605,284519.69999999553,7052,WL,A,1.0
2,2.749000072479248,learn,57250.99992752075,Wed Feb 12 2025 11:16:42 GMT-0600 (Central Standard Time),287268.799999997,A,harp,O,p,284,1,2749.10000000149,284519.69999999553,7052,WL,A,1.0
2,3.681999921798706,learn,56318.000078201294,Wed Feb 12 2025 11:16:42 GMT-0600 (Central Standard Time),288201.69999999553,A,harpenter,O,enter,909,1,3682.0,284519.69999999553,7052,WL,A,1.0
2,4.131999969482422,learn,55868.00003051758,Wed Feb 12 2025 11:16:42 GMT-0600 (Central Standard Time),288651.5,A,s,O,s,442,1,449.5,288202.0,7052,WL,A,2.0
2,4.365000009536743,learn,55634.99999046326,Wed Feb 12 2025 11:16:42 GMT-0600 (Central Standard Time),288884.8999999985,A,sa,O,a,216,1,682.8999999985099,288202.0,7052,WL,A,2.0
2,4.615000009536743,learn,55384.99999046326,Wed Feb 12 2025 11:16:42 GMT-0600 (Central Standard Time),289134.799999997,A,sal,O,l,238,1,932.7999999970198,288202.0,7052,WL,A,2.0
2,4.999000072479248,learn,55000.99992752075,Wed Feb 12 2025 11:16:42 GMT-0600 (Central Standard Time),289518.0,A,salt,O,t,373,1,1316.0,288202.0,7052,WL,A,2.0
2,5.232000112533569,learn,54767.99988746643,Wed Feb 12 2025 11:16:42 GMT-0600 (Central Standard Time),289751.19999999553,A,saltenter,O,enter,221,1,1549.1999999955297,288202.0,7052,WL,A,2.0
2,5.7820000648498535,learn,54217.99993515015,Wed Feb 12 2025 11:16:42 GMT-0600 (Central Standard Time),290301.299999997,A,f,O,f,531,1,549.6999999955297,289751.6000000015,7052,WL,A,3.0
2,6.04800009727478,learn,53951.99990272522,Wed Feb 12 2025 11:16:42 GMT-0600 (Central Standard Time),290567.69999999553,A,fi,O,i,254,1,816.0999999940395,289751.6000000015,7052,WL,A,3.0
2,6.131999969482422,learn,53868.00003051758,Wed Feb 12 2025 11:16:42 GMT-0600 (Central Standard Time),290651.0,A,fin,O,n,68,1,899.3999999985099,289751.6000000015,7052,WL,A,3.0
2,6.398000001907349,learn,53601.99999809265,Wed Feb 12 2025 11:16:42 GMT-0600 (Central Standard Time),290917.69999999553,A,fing,O,g,248,1,1166.0999999940395,289751.6000000015,7052,WL,A,3.0
2,6.765000104904175,learn,53234.999895095825,Wed Feb 12 2025 11:16:42 GMT-0600 (Central Standard Time),291284.19999999553,A,finge,O,e,350,1,1532.5999999940395,289751.6000000015,7052,WL,A,3.0
2,6.947999954223633,learn,53052.00004577637,Wed Feb 12 2025 11:16:42 GMT-0600 (Central Standard Time),291467.5,A,finger,O,r,167,1,1715.8999999985099,289751.6000000015,7052,WL,A,3.0
2,7.265000104904175,learn,52734.999895095825,Wed Feb 12 2025 11:16:42 GMT-0600 (Central Standard Time),291784.0,A,fingerenter,O,enter,304,1,2032.3999999985099,289751.6000000015,7052,WL,A,3.0
2,8.13100004196167,learn,51868.99995803833,Wed Feb 12 2025 11:16:42 GMT-0600 (Central Standard Time),292650.19999999553,A,k,O,k,851,1,865.8999999985099,291784.299999997,7052,WL,A,4.0
2,8.398000001907349,learn,51601.99999809265,Wed Feb 12 2025 11:16:42 GMT-0600 (Central Standard Time),292917.0,A,ke,O,e,257,1,1132.7000000029802,291784.299999997,7052,WL,A,4.0
2,8.747999906539917,learn,51252.00009346008,Wed Feb 12 2025 11:16:42 GMT-0600 (Central Standard Time),293267.1000000015,A,keu,O,u,342,1,1482.8000000044703,291784.299999997,7052,WL,A,4.0
2,9.19700002670288,learn,50802.99997329712,Wed Feb 12 2025 11:16:42 GMT-0600 (Central Standard Time),293716.799999997,A,ke,O,backspace,440,1,1932.5,291784.299999997,7052,WL,A,4.0
2,9.496999979019165,learn,50503.000020980835,Wed Feb 12 2025 11:16:42 GMT-0600 (Central Standard Time),294016.69999999553,A,key,O,y,287,1,2232.39999999851,291784.299999997,7052,WL,A,4.0
2,9.94700002670288,learn,50052.99997329712,Wed Feb 12 2025 11:16:42 GMT-0600 (Central Standard Time),294466.5,A,keyenter,O,enter,427,1,2682.2000000029802,291784.299999997,7052,WL,A,4.0
2,10.614000082015991,learn,49385.99991798401,Wed Feb 12 2025 11:16:42 GMT-0600 (Central Standard Time),295133.0,A,a,O,a,649,1,666.1000000014901,294466.8999999985,7052,WL,A,5.0
2,10.897000074386597,learn,49102.9999256134,Wed Feb 12 2025 11:16:42 GMT-0600 (Central Standard Time),295416.1000000015,A,ap,O,p,263,1,949.2000000029802,294466.8999999985,7052,WL,A,5.0
2,10.996999979019165,learn,49003.000020980835,Wed Feb 12 2025 11:16:42 GMT-0600 (Central Standard Time),295516.0,A,app,O,p,91,1,1049.1000000014901,294466.8999999985,7052,WL,A,5.0
2,11.213000059127808,learn,48786.99994087219,Wed Feb 12 2025 11:16:42 GMT-0600 (Central Standard Time),295732.69999999553,A,appl,O,l,207,1,1265.7999999970198,294466.8999999985,7052,WL,A,5.0
2,11.496999979019165,learn,48503.000020980835,Wed Feb 12 2025 11:16:42 GMT-0600 (Central Standard Time),296015.8999999985,A,apple,O,e,272,1,1549.0,294466.8999999985,7052,WL,A,5.0
2,11.763000011444092,learn,48236.99998855591,Wed Feb 12 2025 11:16:42 GMT-0600 (Central Standard Time),296282.299999997,A,appleenter,O,enter,252,1,1815.3999999985099,294466.8999999985,7052,WL,A,5.0
2,12.296000003814697,learn,47703.9999961853,Wed Feb 12 2025 11:16:42 GMT-0600 (Central Standard Time),296815.8999999985,A,l,O,l,523,1,533.2999999970198,296282.6000000015,7052,WL,A,6.0
2,12.52999997138977,learn,47470.00002861023,Wed Feb 12 2025 11:16:42 GMT-0600 (Central Standard Time),297048.8999999985,A,lo,O,o,212,1,766.2999999970198,296282.6000000015,7052,WL,A,6.0
2,12.946000099182129,learn,47053.99990081787,Wed Feb 12 2025 11:16:42 GMT-0600 (Central Standard Time),297465.69999999553,A,log,O,g,395,1,1183.0999999940395,296282.6000000015,7052,WL,A,6.0
2,13.145999908447266,learn,46854.000091552734,Wed Feb 12 2025 11:16:42 GMT-0600 (Central Standard Time),297665.3999999985,A,logenter,O,enter,186,1,1382.7999999970198,296282.6000000015,7052,WL,A,6.0
2,13.779000043869019,learn,46220.99995613098,Wed Feb 12 2025 11:16:42 GMT-0600 (Central Standard Time),298298.299999997,A,m,O,m,618,1,632.6999999955297,297665.6000000015,7052,WL,A,7.0
2,14.078999996185303,learn,45921.0000038147,Wed Feb 12 2025 11:16:42 GMT-0600 (Central Standard Time),298598.5,A,me,O,e,290,1,932.8999999985099,297665.6000000015,7052,WL,A,7.0
2,14.361999988555908,learn,45638.00001144409,Wed Feb 12 2025 11:16:42 GMT-0600 (Central Standard Time),298881.799999997,A,mea,O,a,269,1,1216.1999999955297,297665.6000000015,7052,WL,A,7.0
2,14.59500002861023,learn,45404.99997138977,Wed Feb 12 2025 11:16:42 GMT-0600 (Central Standard Time),299115.0,A,mead,O,d,225,1,1449.3999999985099,297665.6000000015,7052,WL,A,7.0
2,14.994999885559082,learn,45005.00011444092,Wed Feb 12 2025 11:16:42 GMT-0600 (Central Standard Time),299515.1000000015,A,meado,O,o,377,1,1849.5,297665.6000000015,7052,WL,A,7.0
2,15.34500002861023,learn,44654.99997138977,Wed Feb 12 2025 11:16:42 GMT-0600 (Central Standard Time),299864.799999997,A,meadow,O,w,329,1,2199.1999999955297,297665.6000000015,7052,WL,A,7.0
2,15.611999988555908,learn,44388.00001144409,Wed Feb 12 2025 11:16:42 GMT-0600 (Central Standard Time),300131.299999997,A,meadowenter,O,enter,251,1,2465.6999999955297,297665.6000000015,7052,WL,A,7.0
2,16.67799997329712,learn,43322.00002670288,Wed Feb 12 2025 11:16:42 GMT-0600 (Central Standard Time),301197.799999997,A,b,O,b,1056,1,1066.0,300131.799999997,7052,WL,A,8.0
2,16.92799997329712,learn,43072.00002670288,Wed Feb 12 2025 11:16:42 GMT-0600 (Central Standard Time),301447.69999999553,A,bo,O,o,238,1,1315.8999999985099,300131.799999997,7052,WL,A,8.0
2,17.09500002861023,learn,42904.99997138977,Wed Feb 12 2025 11:16:42 GMT-0600 (Central Standard Time),301614.299999997,A,boo,O,o,148,1,1482.5,300131.799999997,7052,WL,A,8.0
2,17.311000108718872,learn,42688.99989128113,Wed Feb 12 2025 11:16:42 GMT-0600 (Central Standard Time),301830.799999997,A,book,O,k,198,1,1699.0,300131.799999997,7052,WL,A,8.0
2,18.594000101089478,learn,41405.99989891052,Wed Feb 12 2025 11:16:42 GMT-0600 (Central Standard Time),303113.69999999553,A,boo,O,backspace,1259,1,2981.89999999851,300131.799999997,7052,WL,A,8.0
2,19.026999950408936,learn,40973.000049591064,Wed Feb 12 2025 11:16:42 GMT-0600 (Central Standard Time),303547.0,A,booenter,O,enter,425,1,3415.2000000029802,300131.799999997,7052,WL,A,8.0
2,20.74399995803833,learn,39256.00004196167,Wed Feb 12 2025 11:16:42 GMT-0600 (Central Standard Time),305263.299999997,A,b,O,b,1706,1,1716.1999999955297,303547.1000000015,7052,WL,A,9.0
2,20.993000030517578,learn,39006.99996948242,Wed Feb 12 2025 11:16:42 GMT-0600 (Central Standard Time),305513.0,A,bo,O,o,235,1,1965.8999999985099,303547.1000000015,7052,WL,A,9.0
2,21.14299988746643,learn,38857.00011253357,Wed Feb 12 2025 11:16:42 GMT-0600 (Central Standard Time),305663.1000000015,A,boo,O,o,139,1,2116.0,303547.1000000015,7052,WL,A,9.0
2,21.32699990272522,learn,38673.00009727478,Wed Feb 12 2025 11:16:42 GMT-0600 (Central Standard Time),305846.19999999553,A,book,O,k,173,1,2299.0999999940395,303547.1000000015,7052,WL,A,9.0
2,21.66000008583069,learn,38339.99991416931,Wed Feb 12 2025 11:16:42 GMT-0600 (Central Standard Time),306179.3999999985,A,bookenter,O,enter,325,1,2632.2999999970198,303547.1000000015,7052,WL,A,9.0
2,22.14299988746643,learn,37857.00011253357,Wed Feb 12 2025 11:16:42 GMT-0600 (Central Standard Time),306662.799999997,A,t,O,t,464,1,483.19999999552965,306179.6000000015,7052,WL,A,10.0
2,22.325999975204468,learn,37674.00002479553,Wed Feb 12 2025 11:16:42 GMT-0600 (Central Standard Time),306845.8999999985,A,tr,O,r,173,1,666.2999999970198,306179.6000000015,7052,WL,A,10.0
2,22.859999895095825,learn,37140.000104904175,Wed Feb 12 2025 11:16:42 GMT-0600 (Central Standard Time),307379.1000000015,A,tra,O,a,518,1,1199.5,306179.6000000015,7052,WL,A,10.0
2,23.22699999809265,learn,36773.00000190735,Wed Feb 12 2025 11:16:42 GMT-0600 (Central Standard Time),307746.8999999985,A,trai,O,i,344,1,1567.2999999970198,306179.6000000015,7052,WL,A,10.0
2,23.45900011062622,learn,36540.99988937378,Wed Feb 12 2025 11:16:42 GMT-0600 (Central Standard Time),307979.1000000015,A,train,O,n,209,1,1799.5,306179.6000000015,7052,WL,A,10.0
2,23.875999927520752,learn,36124.00007247925,Wed Feb 12 2025 11:16:42 GMT-0600 (Central Standard Time),308395.5,A,trainenter,O,enter,400,1,2215.89999999851,306179.6000000015,7052,WL,A,10.0
2,27.60800004005432,learn,32391.99995994568,Wed Feb 12 2025 11:16:42 GMT-0600 (Central Standard Time),312127.69999999553,A,r,O,r,3711,1,3731.7999999970198,308395.8999999985,7052,WL,A,11.0
2,27.740999937057495,learn,32259.000062942505,Wed Feb 12 2025 11:16:42 GMT-0600 (Central Standard Time),312261.0,A,ru,O,u,124,1,3865.10000000149,308395.8999999985,7052,WL,A,11.0
2,27.990999937057495,learn,32009.000062942505,Wed Feb 12 2025 11:16:42 GMT-0600 (Central Standard Time),312510.799999997,A,rug,O,g,237,1,4114.89999999851,308395.8999999985,7052,WL,A,11.0
2,28.29099988937378,learn,31709.00011062622,Wed Feb 12 2025 11:16:42 GMT-0600 (Central Standard Time),312810.799999997,A,rugenter,O,enter,276,1,4414.89999999851,308395.8999999985,7052,WL,A,11.0
2,38.4539999961853,learn,21546.000003814697,Wed Feb 12 2025 11:16:42 GMT-0600 (Central Standard Time),322974.1000000015,A,r,O,r,10145,1,10162.80000000447,312811.299999997,7052,WL,A,12.0
2,38.87100005149841,learn,21128.999948501587,Wed Feb 12 2025 11:16:42 GMT-0600 (Central Standard Time),323390.8999999985,A,ra,O,a,405,1,10579.60000000149,312811.299999997,7052,WL,A,12.0
2,39.28800010681152,learn,20711.999893188477,Wed Feb 12 2025 11:16:42 GMT-0600 (Central Standard Time),323807.3999999985,A,rat,O,t,405,1,10996.10000000149,312811.299999997,7052,WL,A,12.0
2,39.437999963760376,learn,20562.000036239624,Wed Feb 12 2025 11:16:42 GMT-0600 (Central Standard Time),323957.299999997,A,ratt,O,t,132,1,11146.0,312811.299999997,7052,WL,A,12.0
2,39.62100005149841,learn,20378.999948501587,Wed Feb 12 2025 11:16:42 GMT-0600 (Central Standard Time),324140.6000000015,A,rattl,O,l,175,1,11329.30000000447,312811.299999997,7052,WL,A,12.0
2,39.937000036239624,learn,20062.999963760376,Wed Feb 12 2025 11:16:42 GMT-0600 (Central Standard Time),324457.0,A,rattle,O,e,303,1,11645.70000000298,312811.299999997,7052,WL,A,12.0
2,40.104000091552734,learn,19895.999908447266,Wed Feb 12 2025 11:16:42 GMT-0600 (Central Standard Time),324623.799999997,A,rattleenter,O,enter,155,1,11812.5,312811.299999997,7052,WL,A,12.0
2,44.15300011634827,learn,15846.999883651733,Wed Feb 12 2025 11:16:42 GMT-0600 (Central Standard Time),328672.5,A,g,O,g,4028,1,4048.39999999851,324624.1000000015,7052,WL,A,13.0
2,44.28600001335144,learn,15713.99998664856,Wed Feb 12 2025 11:16:42 GMT-0600 (Central Standard Time),328805.8999999985,A,go,O,o,115,1,4181.79999999702,324624.1000000015,7052,WL,A,13.0
2,44.46900010108948,learn,15530.999898910522,Wed Feb 12 2025 11:16:42 GMT-0600 (Central Standard Time),328989.0,A,gol,O,l,174,1,4364.89999999851,324624.1000000015,7052,WL,A,13.0
2,44.72000002861023,learn,15279.99997138977,Wed Feb 12 2025 11:16:42 GMT-0600 (Central Standard Time),329239.19999999553,A,gold,O,d,231,1,4615.0999999940395,324624.1000000015,7052,WL,A,13.0
2,44.88599991798401,learn,15114.000082015991,Wed Feb 12 2025 11:16:42 GMT-0600 (Central Standard Time),329405.6000000015,A,goldenter,O,enter,149,1,4781.5,324624.1000000015,7052,WL,A,13.0
2,53.5,learn,6500.0,Wed Feb 12 2025 11:16:42 GMT-0600 (Central Standard Time),338019.3999999985,A,c,O,c,8606,1,8613.5,329405.8999999985,7052,WL,A,14.0
2,53.73300004005432,learn,6266.999959945679,Wed Feb 12 2025 11:16:42 GMT-0600 (Central Standard Time),338252.799999997,A,ch,O,h,224,1,8846.89999999851,329405.8999999985,7052,WL,A,14.0
2,54.282999992370605,learn,5717.0000076293945,Wed Feb 12 2025 11:16:42 GMT-0600 (Central Standard Time),338802.799999997,A,chi,O,i,535,1,9396.89999999851,329405.8999999985,7052,WL,A,14.0
2,54.51600003242493,learn,5483.999967575073,Wed Feb 12 2025 11:16:42 GMT-0600 (Central Standard Time),339035.5,A,chin,O,n,224,1,9629.60000000149,329405.8999999985,7052,WL,A,14.0
2,55.08299994468689,learn,4917.00005531311,Wed Feb 12 2025 11:16:42 GMT-0600 (Central Standard Time),339602.5,A,chi,O,backspace,552,1,10196.60000000149,329405.8999999985,7052,WL,A,14.0
2,55.43300008773804,learn,4566.999912261963,Wed Feb 12 2025 11:16:42 GMT-0600 (Central Standard Time),339952.19999999553,A,chim,O,m,337,1,10546.29999999702,329405.8999999985,7052,WL,A,14.0
2,55.66599988937378,learn,4334.000110626221,Wed Feb 12 2025 11:16:42 GMT-0600 (Central Standard Time),340185.6000000015,A,chimn,O,n,219,1,10779.70000000298,329405.8999999985,7052,WL,A,14.0
2,56.28200006484985,learn,3717.9999351501465,Wed Feb 12 2025 11:16:42 GMT-0600 (Central Standard Time),340802.0,A,chimne,O,e,602,1,11396.10000000149,329405.8999999985,7052,WL,A,14.0
2,56.448999881744385,learn,3551.0001182556152,Wed Feb 12 2025 11:16:42 GMT-0600 (Central Standard Time),340968.5,A,chimney,O,y,145,1,11562.60000000149,329405.8999999985,7052,WL,A,14.0
2,56.86500000953674,learn,3134.999990463257,Wed Feb 12 2025 11:16:42 GMT-0600 (Central Standard Time),341385.0,A,chimneyenter,O,enter,404,1,11979.10000000149,329405.8999999985,7052,WL,A,14.0
2,60.015000104904175,learn,-15.000104904174805,Wed Feb 12 2025 11:16:42 GMT-0600 (Central Standard Time),344534.1000000015,A,None,O,None,3142,1,3148.8000000044703,341385.299999997,7052,WL,A,15.0
3,0.5499999523162842,learn,59450.000047683716,Wed Feb 12 2025 11:16:42 GMT-0600 (Central Standard Time),413595.5,A,b,O,b,542,1,549.6000000014901,413045.8999999985,7052,WL,A,1.0
3,0.8669998645782471,learn,59133.00013542175,Wed Feb 12 2025 11:16:42 GMT-0600 (Central Standard Time),413912.3999999985,A,bo,O,o,295,1,866.5,413045.8999999985,7052,WL,A,1.0
3,1.0329999923706055,learn,58967.000007629395,Wed Feb 12 2025 11:16:42 GMT-0600 (Central Standard Time),414078.799999997,A,boo,O,o,147,1,1032.8999999985099,413045.8999999985,7052,WL,A,1.0
3,1.25,learn,58750.0,Wed Feb 12 2025 11:16:42 GMT-0600 (Central Standard Time),414295.69999999553,A,book,O,k,205,1,1249.7999999970198,413045.8999999985,7052,WL,A,1.0
3,2.7660000324249268,learn,57233.99996757507,Wed Feb 12 2025 11:16:42 GMT-0600 (Central Standard Time),415811.5,A,boo,O,backspace,1508,1,2765.60000000149,413045.8999999985,7052,WL,A,1.0
3,3.9489998817443848,learn,56051.000118255615,Wed Feb 12 2025 11:16:42 GMT-0600 (Central Standard Time),416994.8999999985,A,book,O,k,1168,1,3949.0,413045.8999999985,7052,WL,A,1.0
3,4.315000057220459,learn,55684.99994277954,Wed Feb 12 2025 11:16:42 GMT-0600 (Central Standard Time),417361.19999999553,A,bookenter,O,enter,353,1,4315.29999999702,413045.8999999985,7052,WL,A,1.0
3,5.065000057220459,learn,54934.99994277954,Wed Feb 12 2025 11:16:42 GMT-0600 (Central Standard Time),418111.0,A,f,O,f,739,1,749.5,417361.5,7052,WL,A,2.0
3,5.216000080108643,learn,54783.99991989136,Wed Feb 12 2025 11:16:42 GMT-0600 (Central Standard Time),418262.1000000015,A,fl,O,l,141,1,900.6000000014901,417361.5,7052,WL,A,2.0
3,5.431999921798706,learn,54568.000078201294,Wed Feb 12 2025 11:16:42 GMT-0600 (Central Standard Time),418478.1000000015,A,flo,O,o,197,1,1116.6000000014901,417361.5,7052,WL,A,2.0
3,5.764999866485596,learn,54235.000133514404,Wed Feb 12 2025 11:16:42 GMT-0600 (Central Standard Time),418810.799999997,A,flow,O,w,325,1,1449.2999999970198,417361.5,7052,WL,A,2.0
3,5.9649999141693115,learn,54035.00008583069,Wed Feb 12 2025 11:16:42 GMT-0600 (Central Standard Time),419010.8999999985,A,flowe,O,e,177,1,1649.3999999985099,417361.5,7052,WL,A,2.0
3,6.13100004196167,learn,53868.99995803833,Wed Feb 12 2025 11:16:42 GMT-0600 (Central Standard Time),419177.6000000015,A,flower,O,r,153,1,1816.1000000014901,417361.5,7052,WL,A,2.0
3,6.447999954223633,learn,53552.00004577637,Wed Feb 12 2025 11:16:42 GMT-0600 (Central Standard Time),419494.0,A,flowerenter,O,enter,298,1,2132.5,417361.5,7052,WL,A,2.0
3,7.38100004196167,learn,52618.99995803833,Wed Feb 12 2025 11:16:42 GMT-0600 (Central Standard Time),420426.8999999985,A,t,O,t,918,1,932.6000000014901,419494.299999997,7052,WL,A,3.0
3,7.614000082015991,learn,52385.99991798401,Wed Feb 12 2025 11:16:42 GMT-0600 (Central Standard Time),420660.299999997,A,tr,O,r,224,1,1166.0,419494.299999997,7052,WL,A,3.0
3,8.414000034332275,learn,51585.999965667725,Wed Feb 12 2025 11:16:42 GMT-0600 (Central Standard Time),421459.8999999985,A,tra,O,a,783,1,1965.6000000014901,419494.299999997,7052,WL,A,3.0
3,8.746999979019165,learn,51253.000020980835,Wed Feb 12 2025 11:16:42 GMT-0600 (Central Standard Time),421793.299999997,A,trai,O,i,312,1,2299.0,419494.299999997,7052,WL,A,3.0
3,8.96399998664856,learn,51036.00001335144,Wed Feb 12 2025 11:16:42 GMT-0600 (Central Standard Time),422009.8999999985,A,train,O,n,202,1,2515.60000000149,419494.299999997,7052,WL,A,3.0
3,9.496999979019165,learn,50503.000020980835,Wed Feb 12 2025 11:16:42 GMT-0600 (Central Standard Time),422543.0,A,trainenter,O,enter,521,1,3048.7000000029802,419494.299999997,7052,WL,A,3.0
3,10.079999923706055,learn,49920.000076293945,Wed Feb 12 2025 11:16:42 GMT-0600 (Central Standard Time),423126.1000000015,A,r,O,r,566,1,582.8000000044703,422543.299999997,7052,WL,A,4.0
3,10.430000066757202,learn,49569.9999332428,Wed Feb 12 2025 11:16:42 GMT-0600 (Central Standard Time),423476.0,A,ru,O,u,333,1,932.7000000029802,422543.299999997,7052,WL,A,4.0
3,10.69599986076355,learn,49304.00013923645,Wed Feb 12 2025 11:16:42 GMT-0600 (Central Standard Time),423742.5,A,rug,O,g,248,1,1199.2000000029802,422543.299999997,7052,WL,A,4.0
3,11.162999868392944,learn,48837.000131607056,Wed Feb 12 2025 11:16:42 GMT-0600 (Central Standard Time),424209.1000000015,A,rugenter,O,enter,445,1,1665.8000000044703,422543.299999997,7052,WL,A,4.0
3,11.912999868392944,learn,48087.000131607056,Wed Feb 12 2025 11:16:42 GMT-0600 (Central Standard Time),424958.8999999985,A,m,O,m,739,1,749.6000000014901,424209.299999997,7052,WL,A,5.0
3,12.19599986076355,learn,47804.00013923645,Wed Feb 12 2025 11:16:42 GMT-0600 (Central Standard Time),425242.0,A,me,O,e,269,1,1032.7000000029802,424209.299999997,7052,WL,A,5.0
3,12.479000091552734,learn,47520.999908447266,Wed Feb 12 2025 11:16:42 GMT-0600 (Central Standard Time),425525.19999999553,A,mea,O,a,274,1,1315.8999999985099,424209.299999997,7052,WL,A,5.0
3,12.729000091552734,learn,47270.999908447266,Wed Feb 12 2025 11:16:42 GMT-0600 (Central Standard Time),425775.19999999553,A,mead,O,d,231,1,1565.8999999985099,424209.299999997,7052,WL,A,5.0
3,13.229000091552734,learn,46770.999908447266,Wed Feb 12 2025 11:16:42 GMT-0600 (Central Standard Time),426275.1000000015,A,meado,O,o,485,1,2065.8000000044703,424209.299999997,7052,WL,A,5.0
3,13.479000091552734,learn,46520.999908447266,Wed Feb 12 2025 11:16:42 GMT-0600 (Central Standard Time),426525.19999999553,A,meadow,O,w,232,1,2315.89999999851,424209.299999997,7052,WL,A,5.0
3,13.729000091552734,learn,46270.999908447266,Wed Feb 12 2025 11:16:42 GMT-0600 (Central Standard Time),426775.0,A,meadowenter,O,enter,238,1,2565.7000000029802,424209.299999997,7052,WL,A,5.0
3,14.161999940872192,learn,45838.00005912781,Wed Feb 12 2025 11:16:42 GMT-0600 (Central Standard Time),427208.19999999553,A,s,O,s,421,1,432.79999999701977,426775.3999999985,7052,WL,A,6.0
3,14.479000091552734,learn,45520.999908447266,Wed Feb 12 2025 11:16:42 GMT-0600 (Central Standard Time),427524.799999997,A,sa,O,a,308,1,749.3999999985099,426775.3999999985,7052,WL,A,6.0
3,14.861999988555908,learn,45138.00001144409,Wed Feb 12 2025 11:16:42 GMT-0600 (Central Standard Time),427907.799999997,A,sal,O,l,375,1,1132.3999999985099,426775.3999999985,7052,WL,A,6.0
3,15.26200008392334,learn,44737.99991607666,Wed Feb 12 2025 11:16:42 GMT-0600 (Central Standard Time),428307.8999999985,A,salt,O,t,384,1,1532.5,426775.3999999985,7052,WL,A,6.0
3,16.17899990081787,learn,43821.00009918213,Wed Feb 12 2025 11:16:42 GMT-0600 (Central Standard Time),429224.8999999985,A,saltenter,O,enter,892,1,2449.5,426775.3999999985,7052,WL,A,6.0
3,17.128000020980835,learn,42871.999979019165,Wed Feb 12 2025 11:16:42 GMT-0600 (Central Standard Time),430173.799999997,A,h,O,h,930,1,948.6000000014901,429225.19999999553,7052,WL,A,7.0
3,17.444999933242798,learn,42555.0000667572,Wed Feb 12 2025 11:16:42 GMT-0600 (Central Standard Time),430490.69999999553,A,ha,O,a,302,1,1265.5,429225.19999999553,7052,WL,A,7.0
3,17.8439998626709,learn,42156.0001373291,Wed Feb 12 2025 11:16:42 GMT-0600 (Central Standard Time),430890.299999997,A,har,O,r,377,1,1665.1000000014901,429225.19999999553,7052,WL,A,7.0
3,18.07699990272522,learn,41923.00009727478,Wed Feb 12 2025 11:16:42 GMT-0600 (Central Standard Time),431123.5,A,harp,O,p,217,1,1898.3000000044703,429225.19999999553,7052,WL,A,7.0
3,19.64400005340576,learn,40355.99994659424,Wed Feb 12 2025 11:16:42 GMT-0600 (Central Standard Time),432689.799999997,A,harpenter,O,enter,1552,1,3464.60000000149,429225.19999999553,7052,WL,A,7.0
3,20.026999950408936,learn,39973.000049591064,Wed Feb 12 2025 11:16:42 GMT-0600 (Central Standard Time),433072.8999999985,A,f,O,f,370,1,382.8999999985099,432690.0,7052,WL,A,8.0
3,20.943000078201294,learn,39056.999921798706,Wed Feb 12 2025 11:16:42 GMT-0600 (Central Standard Time),433989.3999999985,A,fi,O,i,907,1,1299.3999999985099,432690.0,7052,WL,A,8.0
3,21.127000093460083,learn,38872.99990653992,Wed Feb 12 2025 11:16:42 GMT-0600 (Central Standard Time),434172.69999999553,A,fin,O,n,174,1,1482.6999999955297,432690.0,7052,WL,A,8.0
3,21.575999975204468,learn,38424.00002479553,Wed Feb 12 2025 11:16:42 GMT-0600 (Central Standard Time),434622.299999997,A,fing,O,g,430,1,1932.2999999970198,432690.0,7052,WL,A,8.0
3,21.8439998626709,learn,38156.0001373291,Wed Feb 12 2025 11:16:42 GMT-0600 (Central Standard Time),434890.3999999985,A,finge,O,e,253,1,2200.39999999851,432690.0,7052,WL,A,8.0
3,22.026000022888184,learn,37973.99997711182,Wed Feb 12 2025 11:16:42 GMT-0600 (Central Standard Time),435072.5,A,finger,O,r,170,1,2382.5,432690.0,7052,WL,A,8.0
3,22.292999982833862,learn,37707.00001716614,Wed Feb 12 2025 11:16:42 GMT-0600 (Central Standard Time),435339.0,A,fingerenter,O,enter,258,1,2649.0,432690.0,7052,WL,A,8.0
3,23.825999975204468,learn,36174.00002479553,Wed Feb 12 2025 11:16:42 GMT-0600 (Central Standard Time),436871.799999997,A,g,O,g,1512,1,1532.5,435339.299999997,7052,WL,A,9.0
3,24.092000007629395,learn,35907.999992370605,Wed Feb 12 2025 11:16:42 GMT-0600 (Central Standard Time),437138.3999999985,A,go,O,o,244,1,1799.1000000014901,435339.299999997,7052,WL,A,9.0
3,24.259000062942505,learn,35740.999937057495,Wed Feb 12 2025 11:16:42 GMT-0600 (Central Standard Time),437305.1000000015,A,gol,O,l,153,1,1965.8000000044703,435339.299999997,7052,WL,A,9.0
3,24.509000062942505,learn,35490.999937057495,Wed Feb 12 2025 11:16:42 GMT-0600 (Central Standard Time),437554.8999999985,A,gold,O,d,243,1,2215.60000000149,435339.299999997,7052,WL,A,9.0
3,24.741999864578247,learn,35258.00013542175,Wed Feb 12 2025 11:16:42 GMT-0600 (Central Standard Time),437788.0,A,goldenter,O,enter,217,1,2448.7000000029802,435339.299999997,7052,WL,A,9.0
3,25.509000062942505,learn,34490.999937057495,Wed Feb 12 2025 11:16:42 GMT-0600 (Central Standard Time),438554.799999997,A,r,O,r,752,1,766.5,437788.299999997,7052,WL,A,10.0
3,25.79099988937378,learn,34209.00011062622,Wed Feb 12 2025 11:16:42 GMT-0600 (Central Standard Time),438837.6000000015,A,ra,O,a,271,1,1049.3000000044703,437788.299999997,7052,WL,A,10.0
3,26.10800004005432,learn,33891.99995994568,Wed Feb 12 2025 11:16:42 GMT-0600 (Central Standard Time),439154.5,A,rat,O,t,302,1,1366.2000000029802,437788.299999997,7052,WL,A,10.0
3,26.241999864578247,learn,33758.00013542175,Wed Feb 12 2025 11:16:42 GMT-0600 (Central Standard Time),439287.69999999553,A,ratt,O,t,121,1,1499.3999999985099,437788.299999997,7052,WL,A,10.0
3,26.375,learn,33625.0,Wed Feb 12 2025 11:16:42 GMT-0600 (Central Standard Time),439421.0,A,rattl,O,l,125,1,1632.7000000029802,437788.299999997,7052,WL,A,10.0
3,26.625,learn,33375.0,Wed Feb 12 2025 11:16:42 GMT-0600 (Central Standard Time),439670.8999999985,A,rattle,O,e,239,1,1882.6000000014901,437788.299999997,7052,WL,A,10.0
3,26.85800004005432,learn,33141.99995994568,Wed Feb 12 2025 11:16:42 GMT-0600 (Central Standard Time),439904.19999999553,A,rattleenter,O,enter,220,1,2115.89999999851,437788.299999997,7052,WL,A,10.0
3,27.874000072479248,learn,32125.999927520752,Wed Feb 12 2025 11:16:42 GMT-0600 (Central Standard Time),440920.6000000015,A,k,O,k,1004,1,1016.1000000014901,439904.5,7052,WL,A,11.0
3,28.10800004005432,learn,31891.99995994568,Wed Feb 12 2025 11:16:42 GMT-0600 (Central Standard Time),441153.8999999985,A,ke,O,e,219,1,1249.3999999985099,439904.5,7052,WL,A,11.0
3,28.624000072479248,learn,31375.999927520752,Wed Feb 12 2025 11:16:42 GMT-0600 (Central Standard Time),441670.3999999985,A,key,O,y,506,1,1765.8999999985099,439904.5,7052,WL,A,11.0
3,28.957000017166138,learn,31042.999982833862,Wed Feb 12 2025 11:16:42 GMT-0600 (Central Standard Time),442003.299999997,A,keyenter,O,enter,325,1,2098.7999999970198,439904.5,7052,WL,A,11.0
3,32.206000089645386,learn,27793.999910354614,Wed Feb 12 2025 11:16:42 GMT-0600 (Central Standard Time),445252.6000000015,A,f,O,f,3240,1,3248.9000000059605,442003.69999999553,7052,WL,A,12.0
3,32.388999938964844,learn,27611.000061035156,Wed Feb 12 2025 11:16:42 GMT-0600 (Central Standard Time),445435.6000000015,A,fo,O,o,175,1,3431.9000000059605,442003.69999999553,7052,WL,A,12.0
3,33.03999996185303,learn,26960.000038146973,Wed Feb 12 2025 11:16:42 GMT-0600 (Central Standard Time),446085.799999997,A,f,O,backspace,633,1,4082.10000000149,442003.69999999553,7052,WL,A,12.0
3,33.4229998588562,learn,26577.0001411438,Wed Feb 12 2025 11:16:42 GMT-0600 (Central Standard Time),446468.799999997,A,fi,O,i,366,1,4465.10000000149,442003.69999999553,7052,WL,A,12.0
3,33.60599994659424,learn,26394.00005340576,Wed Feb 12 2025 11:16:42 GMT-0600 (Central Standard Time),446652.0,A,fin,O,n,175,1,4648.30000000447,442003.69999999553,7052,WL,A,12.0
3,33.97199988365173,learn,26028.000116348267,Wed Feb 12 2025 11:16:42 GMT-0600 (Central Standard Time),447018.5,A,fing,O,g,343,1,5014.80000000447,442003.69999999553,7052,WL,A,12.0
3,34.23900008201599,learn,25760.99991798401,Wed Feb 12 2025 11:16:42 GMT-0600 (Central Standard Time),447285.19999999553,A,finge,O,e,257,1,5281.5,442003.69999999553,7052,WL,A,12.0
3,34.43899989128113,learn,25561.000108718872,Wed Feb 12 2025 11:16:42 GMT-0600 (Central Standard Time),447485.1000000015,A,finger,O,r,191,1,5481.4000000059605,442003.69999999553,7052,WL,A,12.0
3,34.72199988365173,learn,25278.000116348267,Wed Feb 12 2025 11:16:42 GMT-0600 (Central Standard Time),447768.299999997,A,fingerenter,O,enter,262,1,5764.60000000149,442003.69999999553,7052,WL,A,12.0
3,36.88800001144409,learn,23111.99998855591,Wed Feb 12 2025 11:16:42 GMT-0600 (Central Standard Time),449934.3999999985,A,c,O,c,2155,1,2165.7000000029802,447768.69999999553,7052,WL,A,13.0
3,37.08800005912781,learn,22911.999940872192,Wed Feb 12 2025 11:16:42 GMT-0600 (Central Standard Time),450134.3999999985,A,ch,O,h,189,1,2365.7000000029802,447768.69999999553,7052,WL,A,13.0
3,37.90499997138977,learn,22095.00002861023,Wed Feb 12 2025 11:16:42 GMT-0600 (Central Standard Time),450950.6000000015,A,chi,O,i,806,1,3181.9000000059605,447768.69999999553,7052,WL,A,13.0
3,38.57099986076355,learn,21429.00013923645,Wed Feb 12 2025 11:16:42 GMT-0600 (Central Standard Time),451617.19999999553,A,chim,O,m,652,1,3848.5,447768.69999999553,7052,WL,A,13.0
3,38.83800005912781,learn,21161.999940872192,Wed Feb 12 2025 11:16:42 GMT-0600 (Central Standard Time),451883.69999999553,A,chimn,O,n,251,1,4115.0,447768.69999999553,7052,WL,A,13.0
3,39.23699998855591,learn,20763.00001144409,Wed Feb 12 2025 11:16:42 GMT-0600 (Central Standard Time),452283.5,A,chimne,O,e,384,1,4514.80000000447,447768.69999999553,7052,WL,A,13.0
3,39.759000062942505,learn,20240.999937057495,Wed Feb 12 2025 11:16:42 GMT-0600 (Central Standard Time),452804.69999999553,A,chimney,O,y,496,1,5036.0,447768.69999999553,7052,WL,A,13.0
3,41.48699998855591,learn,18513.00001144409,Wed Feb 12 2025 11:16:42 GMT-0600 (Central Standard Time),454533.0,A,chimneyenter,O,enter,1719,1,6764.30000000447,447768.69999999553,7052,WL,A,13.0
3,44.43599987030029,learn,15564.000129699707,Wed Feb 12 2025 11:16:42 GMT-0600 (Central Standard Time),457482.0,A,a,O,a,2935,1,2948.7000000029802,454533.299999997,7052,WL,A,14.0
3,44.78600001335144,learn,15213.99998664856,Wed Feb 12 2025 11:16:42 GMT-0600 (Central Standard Time),457831.799999997,A,ap,O,p,338,1,3298.5,454533.299999997,7052,WL,A,14.0
3,44.95199990272522,learn,15048.00009727478,Wed Feb 12 2025 11:16:42 GMT-0600 (Central Standard Time),457998.6000000015,A,app,O,p,148,1,3465.3000000044703,454533.299999997,7052,WL,A,14.0
3,45.13599991798401,learn,14864.000082015991,Wed Feb 12 2025 11:16:42 GMT-0600 (Central Standard Time),458181.8999999985,A,appl,O,l,173,1,3648.60000000149,454533.299999997,7052,WL,A,14.0
3,45.418999910354614,learn,14581.000089645386,Wed Feb 12 2025 11:16:42 GMT-0600 (Central Standard Time),458465.1000000015,A,apple,O,e,261,1,3931.8000000044703,454533.299999997,7052,WL,A,14.0
3,45.651999950408936,learn,14348.000049591064,Wed Feb 12 2025 11:16:42 GMT-0600 (Central Standard Time),458698.19999999553,A,appleenter,O,enter,218,1,4164.89999999851,454533.299999997,7052,WL,A,14.0
3,60.013999938964844,learn,-13.99993896484375,Wed Feb 12 2025 11:16:42 GMT-0600 (Central Standard Time),473060.5,A,None,O,None,14355,1,14361.89999999851,458698.6000000015,7052,WL,A,15.0
4,0.6499998569488525,learn,59350.00014305115,Wed Feb 12 2025 11:16:42 GMT-0600 (Central Standard Time),542222.1000000015,A,b,O,b,631,1,649.6000000014901,541572.5,7052,WL,A,1.0
4,0.9830000400543213,learn,59016.99995994568,Wed Feb 12 2025 11:16:42 GMT-0600 (Central Standard Time),542555.5,A,bo,O,o,325,1,983.0,541572.5,7052,WL,A,1.0
4,1.1489999294281006,learn,58851.0000705719,Wed Feb 12 2025 11:16:42 GMT-0600 (Central Standard Time),542721.8999999985,A,boo,O,o,143,1,1149.3999999985099,541572.5,7052,WL,A,1.0
4,1.3659999370574951,learn,58634.000062942505,Wed Feb 12 2025 11:16:42 GMT-0600 (Central Standard Time),542938.6999999955,A,book,O,k,202,1,1366.1999999955297,541572.5,7052,WL,A,1.0
4,1.999000072479248,learn,58000.99992752075,Wed Feb 12 2025 11:16:42 GMT-0600 (Central Standard Time),543571.6000000015,A,bookd,O,d,617,1,1999.1000000014901,541572.5,7052,WL,A,1.0
4,2.5160000324249268,learn,57483.99996757507,Wed Feb 12 2025 11:16:42 GMT-0600 (Central Standard Time),544088.1000000015,A,book,O,backspace,495,1,2515.60000000149,541572.5,7052,WL,A,1.0
4,2.931999921798706,learn,57068.000078201294,Wed Feb 12 2025 11:16:42 GMT-0600 (Central Standard Time),544504.6999999955,A,bookf,O,f,395,1,2932.1999999955297,541572.5,7052,WL,A,1.0
4,3.181999921798706,learn,56818.000078201294,Wed Feb 12 2025 11:16:42 GMT-0600 (Central Standard Time),544754.6000000015,A,bookfl,O,l,234,1,3182.10000000149,541572.5,7052,WL,A,1.0
4,3.381999969482422,learn,56618.00003051758,Wed Feb 12 2025 11:16:42 GMT-0600 (Central Standard Time),544954.6999999955,A,bookflo,O,o,185,1,3382.1999999955297,541572.5,7052,WL,A,1.0
4,3.5989999771118164,learn,56401.00002288818,Wed Feb 12 2025 11:16:42 GMT-0600 (Central Standard Time),545171.1999999955,A,bookflow,O,w,201,1,3598.6999999955297,541572.5,7052,WL,A,1.0
4,3.7990000247955322,learn,56200.99997520447,Wed Feb 12 2025 11:16:42 GMT-0600 (Central Standard Time),545371.1000000015,A,bookflowe,O,e,183,1,3798.60000000149,541572.5,7052,WL,A,1.0
4,3.999000072479248,learn,56000.99992752075,Wed Feb 12 2025 11:16:42 GMT-0600 (Central Standard Time),545571.1999999955,A,bookflower,O,r,176,1,3998.6999999955297,541572.5,7052,WL,A,1.0
4,4.4649999141693115,learn,55535.00008583069,Wed Feb 12 2025 11:16:42 GMT-0600 (Central Standard Time),546037.5,A,bookflowert,O,t,447,1,4465.0,541572.5,7052,WL,A,1.0
4,5.3399999141693115,learn,54660.00008583069,Wed Feb 12 2025 11:16:42 GMT-0600 (Central Standard Time),546912.6999999955,A,bookflower,O,backspace,867,1,5340.19999999553,541572.5,7052,WL,A,1.0
4,6.63100004196167,learn,53368.99995803833,Wed Feb 12 2025 11:16:42 GMT-0600 (Central Standard Time),548203.6000000015,A,bookflowe,O,backspace,1271,1,6631.10000000149,541572.5,7052,WL,A,1.0
4,6.830999851226807,learn,53169.00014877319,Wed Feb 12 2025 11:16:42 GMT-0600 (Central Standard Time),548403.6000000015,A,bookflow,O,backspace,183,1,6831.10000000149,541572.5,7052,WL,A,1.0
4,6.997999906539917,learn,53002.00009346008,Wed Feb 12 2025 11:16:42 GMT-0600 (Central Standard Time),548570.1999999955,A,bookflo,O,backspace,143,1,6997.69999999553,541572.5,7052,WL,A,1.0
4,7.164000034332275,learn,52835.999965667725,Wed Feb 12 2025 11:16:42 GMT-0600 (Central Standard Time),548736.5,A,bookfl,O,backspace,145,1,7164.0,541572.5,7052,WL,A,1.0
4,7.330999851226807,learn,52669.00014877319,Wed Feb 12 2025 11:16:42 GMT-0600 (Central Standard Time),548903.3999999985,A,bookf,O,backspace,155,1,7330.89999999851,541572.5,7052,WL,A,1.0
4,7.497999906539917,learn,52502.00009346008,Wed Feb 12 2025 11:16:42 GMT-0600 (Central Standard Time),549069.8999999985,A,book,O,backspace,149,1,7497.39999999851,541572.5,7052,WL,A,1.0
4,7.96399998664856,learn,52036.00001335144,Wed Feb 12 2025 11:16:42 GMT-0600 (Central Standard Time),549536.6000000015,A,bookenter,O,enter,445,1,7964.10000000149,541572.5,7052,WL,A,1.0
4,8.996999979019165,learn,51003.000020980835,Wed Feb 12 2025 11:16:42 GMT-0600 (Central Standard Time),550569.5,A,f,O,f,1011,1,1032.5,549537.0,7052,WL,A,2.0
4,9.146999835968018,learn,50853.00016403198,Wed Feb 12 2025 11:16:42 GMT-0600 (Central Standard Time),550719.6000000015,A,fl,O,l,138,1,1182.6000000014901,549537.0,7052,WL,A,2.0
4,9.379999876022339,learn,50620.00012397766,Wed Feb 12 2025 11:16:42 GMT-0600 (Central Standard Time),550952.6999999955,A,flo,O,o,212,1,1415.6999999955297,549537.0,7052,WL,A,2.0
4,9.596999883651733,learn,50403.00011634827,Wed Feb 12 2025 11:16:42 GMT-0600 (Central Standard Time),551169.1000000015,A,flow,O,w,194,1,1632.1000000014901,549537.0,7052,WL,A,2.0
4,9.77999997138977,learn,50220.00002861023,Wed Feb 12 2025 11:16:42 GMT-0600 (Central Standard Time),551352.6000000015,A,flowe,O,e,170,1,1815.6000000014901,549537.0,7052,WL,A,2.0
4,9.980000019073486,learn,50019.999980926514,Wed Feb 12 2025 11:16:42 GMT-0600 (Central Standard Time),551552.6000000015,A,flower,O,r,179,1,2015.6000000014901,549537.0,7052,WL,A,2.0
4,10.879999876022339,learn,49120.00012397766,Wed Feb 12 2025 11:16:42 GMT-0600 (Central Standard Time),552452.299999997,A,flowerenter,O,enter,890,1,2915.2999999970198,549537.0,7052,WL,A,2.0
4,11.662999868392944,learn,48337.000131607056,Wed Feb 12 2025 11:16:42 GMT-0600 (Central Standard Time),553235.1999999955,A,t,O,t,775,1,782.5999999940395,552452.6000000015,7052,WL,A,3.0
4,11.845999956130981,learn,48154.00004386902,Wed Feb 12 2025 11:16:42 GMT-0600 (Central Standard Time),553418.6999999955,A,tr,O,r,176,1,966.0999999940395,552452.6000000015,7052,WL,A,3.0
4,12.296000003814697,learn,47703.9999961853,Wed Feb 12 2025 11:16:42 GMT-0600 (Central Standard Time),553868.6000000015,A,tra,O,a,432,1,1416.0,552452.6000000015,7052,WL,A,3.0
4,12.69599986076355,learn,47304.00013923645,Wed Feb 12 2025 11:16:42 GMT-0600 (Central Standard Time),554268.1999999955,A,trai,O,i,383,1,1815.5999999940395,552452.6000000015,7052,WL,A,3.0
4,12.911999940872192,learn,47088.00005912781,Wed Feb 12 2025 11:16:42 GMT-0600 (Central Standard Time),554484.799999997,A,train,O,n,206,1,2032.1999999955297,552452.6000000015,7052,WL,A,3.0
4,13.279000043869019,learn,46720.99995613098,Wed Feb 12 2025 11:16:42 GMT-0600 (Central Standard Time),554851.5,A,trainenter,O,enter,343,1,2398.89999999851,552452.6000000015,7052,WL,A,3.0
4,13.779000043869019,learn,46220.99995613098,Wed Feb 12 2025 11:16:42 GMT-0600 (Central Standard Time),555351.3999999985,A,r,O,r,488,1,499.5,554851.8999999985,7052,WL,A,4.0
4,14.062000036239624,learn,45937.999963760376,Wed Feb 12 2025 11:16:42 GMT-0600 (Central Standard Time),555634.799999997,A,ru,O,u,275,1,782.8999999985099,554851.8999999985,7052,WL,A,4.0
4,14.378999948501587,learn,45621.00005149841,Wed Feb 12 2025 11:16:42 GMT-0600 (Central Standard Time),555951.1000000015,A,rug,O,g,305,1,1099.2000000029802,554851.8999999985,7052,WL,A,4.0
4,14.944999933242798,learn,45055.0000667572,Wed Feb 12 2025 11:16:42 GMT-0600 (Central Standard Time),556517.6999999955,A,rugenter,O,enter,557,1,1665.7999999970198,554851.8999999985,7052,WL,A,4.0
4,15.84500002861023,learn,44154.99997138977,Wed Feb 12 2025 11:16:42 GMT-0600 (Central Standard Time),557417.5,A,m,O,m,878,1,899.3999999985099,556518.1000000015,7052,WL,A,5.0
4,16.09500002861023,learn,43904.99997138977,Wed Feb 12 2025 11:16:42 GMT-0600 (Central Standard Time),557667.1999999955,A,me,O,e,243,1,1149.0999999940395,556518.1000000015,7052,WL,A,5.0
4,16.41100001335144,learn,43588.99998664856,Wed Feb 12 2025 11:16:42 GMT-0600 (Central Standard Time),557983.6999999955,A,mea,O,a,297,1,1465.5999999940395,556518.1000000015,7052,WL,A,5.0
4,16.67799997329712,learn,43322.00002670288,Wed Feb 12 2025 11:16:42 GMT-0600 (Central Standard Time),558250.6999999955,A,mead,O,d,243,1,1732.5999999940395,556518.1000000015,7052,WL,A,5.0
4,17.01099991798401,learn,42989.00008201599,Wed Feb 12 2025 11:16:42 GMT-0600 (Central Standard Time),558583.5,A,meado,O,o,320,1,2065.39999999851,556518.1000000015,7052,WL,A,5.0
4,17.32800006866455,learn,42671.99993133545,Wed Feb 12 2025 11:16:42 GMT-0600 (Central Standard Time),558900.299999997,A,meadow,O,w,299,1,2382.1999999955297,556518.1000000015,7052,WL,A,5.0
4,17.5939998626709,learn,42406.0001373291,Wed Feb 12 2025 11:16:42 GMT-0600 (Central Standard Time),559166.6999999955,A,meadowenter,O,enter,256,1,2648.5999999940395,556518.1000000015,7052,WL,A,5.0
4,19.47699999809265,learn,40523.00000190735,Wed Feb 12 2025 11:16:42 GMT-0600 (Central Standard Time),561049.6000000015,A,c,O,c,1869,1,1882.5,559167.1000000015,7052,WL,A,6.0
4,19.626999855041504,learn,40373.000144958496,Wed Feb 12 2025 11:16:42 GMT-0600 (Central Standard Time),561199.1999999955,A,ch,O,h,137,1,2032.0999999940395,559167.1000000015,7052,WL,A,6.0
4,20.276999950408936,learn,39723.000049591064,Wed Feb 12 2025 11:16:42 GMT-0600 (Central Standard Time),561849.1999999955,A,chi,O,i,637,1,2682.0999999940395,559167.1000000015,7052,WL,A,6.0
4,20.710000038146973,learn,39289.99996185303,Wed Feb 12 2025 11:16:42 GMT-0600 (Central Standard Time),562282.6000000015,A,chim,O,m,418,1,3115.5,559167.1000000015,7052,WL,A,6.0
4,20.960000038146973,learn,39039.99996185303,Wed Feb 12 2025 11:16:42 GMT-0600 (Central Standard Time),562532.5,A,chimn,O,n,241,1,3365.39999999851,559167.1000000015,7052,WL,A,6.0
4,21.57699990272522,learn,38423.00009727478,Wed Feb 12 2025 11:16:42 GMT-0600 (Central Standard Time),563149.0,A,chimne,O,e,608,1,3981.89999999851,559167.1000000015,7052,WL,A,6.0
4,21.842999935150146,learn,38157.00006484985,Wed Feb 12 2025 11:16:42 GMT-0600 (Central Standard Time),563415.5,A,chimney,O,y,247,1,4248.39999999851,559167.1000000015,7052,WL,A,6.0
4,22.493000030517578,learn,37506.99996948242,Wed Feb 12 2025 11:16:42 GMT-0600 (Central Standard Time),564065.1000000015,A,chimneyenter,O,enter,627,1,4898.0,559167.1000000015,7052,WL,A,6.0
4,25.359999895095825,learn,34640.000104904175,Wed Feb 12 2025 11:16:42 GMT-0600 (Central Standard Time),566932.0,A,h,O,h,2843,1,2866.5,564065.5,7052,WL,A,7.0
4,25.674999952316284,learn,34325.000047683716,Wed Feb 12 2025 11:16:42 GMT-0600 (Central Standard Time),567247.5,A,ha,O,a,294,1,3182.0,564065.5,7052,WL,A,7.0
4,26.057999849319458,learn,33942.00015068054,Wed Feb 12 2025 11:16:42 GMT-0600 (Central Standard Time),567630.799999997,A,har,O,r,372,1,3565.2999999970198,564065.5,7052,WL,A,7.0
4,26.342000007629395,learn,33657.999992370605,Wed Feb 12 2025 11:16:42 GMT-0600 (Central Standard Time),567914.0,A,harp,O,p,260,1,3848.5,564065.5,7052,WL,A,7.0
4,26.69099998474121,learn,33309.00001525879,Wed Feb 12 2025 11:16:42 GMT-0600 (Central Standard Time),568263.799999997,A,harpenter,O,enter,329,1,4198.29999999702,564065.5,7052,WL,A,7.0
4,28.740000009536743,learn,31259.999990463257,Wed Feb 12 2025 11:16:42 GMT-0600 (Central Standard Time),570312.799999997,A,s,O,s,2041,1,2048.6999999955297,568264.1000000015,7052,WL,A,8.0
4,28.888000011444092,learn,31111.99998855591,Wed Feb 12 2025 11:16:42 GMT-0600 (Central Standard Time),570460.1000000015,A,sa,O,a,140,1,2196.0,568264.1000000015,7052,WL,A,8.0
4,29.0239999294281,learn,30976.0000705719,Wed Feb 12 2025 11:16:42 GMT-0600 (Central Standard Time),570596.6000000015,A,sal,O,l,115,1,2332.5,568264.1000000015,7052,WL,A,8.0
4,29.473999977111816,learn,30526.000022888184,Wed Feb 12 2025 11:16:42 GMT-0600 (Central Standard Time),571046.6000000015,A,salt,O,t,431,1,2782.5,568264.1000000015,7052,WL,A,8.0
4,29.641000032424927,learn,30358.999967575073,Wed Feb 12 2025 11:16:42 GMT-0600 (Central Standard Time),571213.799999997,A,saltenter,O,enter,156,1,2949.6999999955297,568264.1000000015,7052,WL,A,8.0
4,31.389999866485596,learn,28610.000133514404,Wed Feb 12 2025 11:16:42 GMT-0600 (Central Standard Time),572962.6000000015,A,g,O,g,1727,1,1748.6000000014901,571214.0,7052,WL,A,9.0
4,31.60699987411499,learn,28393.00012588501,Wed Feb 12 2025 11:16:42 GMT-0600 (Central Standard Time),573179.3999999985,A,go,O,o,193,1,1965.3999999985099,571214.0,7052,WL,A,9.0
4,31.77300000190735,learn,28226.99999809265,Wed Feb 12 2025 11:16:42 GMT-0600 (Central Standard Time),573345.6000000015,A,gol,O,l,143,1,2131.60000000149,571214.0,7052,WL,A,9.0
4,32.10699987411499,learn,27893.00012588501,Wed Feb 12 2025 11:16:42 GMT-0600 (Central Standard Time),573679.299999997,A,gold,O,d,313,1,2465.2999999970198,571214.0,7052,WL,A,9.0
4,32.305999994277954,learn,27694.000005722046,Wed Feb 12 2025 11:16:42 GMT-0600 (Central Standard Time),573878.6999999955,A,goldenter,O,enter,180,1,2664.6999999955297,571214.0,7052,WL,A,9.0
4,33.289000034332275,learn,26710.999965667725,Wed Feb 12 2025 11:16:42 GMT-0600 (Central Standard Time),574861.8999999985,A,b,O,b,966,1,982.7999999970198,573879.1000000015,7052,WL,A,10.0
4,33.57299995422363,learn,26427.000045776367,Wed Feb 12 2025 11:16:42 GMT-0600 (Central Standard Time),575145.1000000015,A,bu,O,u,262,1,1266.0,573879.1000000015,7052,WL,A,10.0
4,34.039000034332275,learn,25960.999965667725,Wed Feb 12 2025 11:16:42 GMT-0600 (Central Standard Time),575611.6999999955,A,but,O,t,451,1,1732.5999999940395,573879.1000000015,7052,WL,A,10.0
4,34.20599985122681,learn,25794.000148773193,Wed Feb 12 2025 11:16:42 GMT-0600 (Central Standard Time),575778.3999999985,A,butt,O,t,144,1,1899.2999999970198,573879.1000000015,7052,WL,A,10.0
4,34.371999979019165,learn,25628.000020980835,Wed Feb 12 2025 11:16:42 GMT-0600 (Central Standard Time),575944.799999997,A,butto,O,o,144,1,2065.6999999955297,573879.1000000015,7052,WL,A,10.0
4,34.62299990653992,learn,25377.000093460083,Wed Feb 12 2025 11:16:42 GMT-0600 (Central Standard Time),576194.8999999985,A,button,O,n,234,1,2315.7999999970198,573879.1000000015,7052,WL,A,10.0
4,35.02199983596802,learn,24978.000164031982,Wed Feb 12 2025 11:16:42 GMT-0600 (Central Standard Time),576594.6000000015,A,buttonenter,O,enter,376,1,2715.5,573879.1000000015,7052,WL,A,10.0
4,35.75499987602234,learn,24245.00012397766,Wed Feb 12 2025 11:16:42 GMT-0600 (Central Standard Time),577327.6999999955,A,l,O,l,720,1,732.7999999970198,576594.8999999985,7052,WL,A,11.0
4,35.97199988365173,learn,24028.000116348267,Wed Feb 12 2025 11:16:42 GMT-0600 (Central Standard Time),577544.3999999985,A,lo,O,o,196,1,949.5,576594.8999999985,7052,WL,A,11.0
4,36.3050000667572,learn,23694.999933242798,Wed Feb 12 2025 11:16:42 GMT-0600 (Central Standard Time),577877.5,A,log,O,g,314,1,1282.6000000014901,576594.8999999985,7052,WL,A,11.0
4,36.48899984359741,learn,23511.000156402588,Wed Feb 12 2025 11:16:42 GMT-0600 (Central Standard Time),578061.0,A,logenter,O,enter,166,1,1466.1000000014901,576594.8999999985,7052,WL,A,11.0
4,37.00499987602234,learn,22995.00012397766,Wed Feb 12 2025 11:16:42 GMT-0600 (Central Standard Time),578577.3999999985,A,k,O,k,494,1,516.1000000014901,578061.299999997,7052,WL,A,12.0
4,37.3050000667572,learn,22694.999933242798,Wed Feb 12 2025 11:16:42 GMT-0600 (Central Standard Time),578877.3999999985,A,ke,O,e,289,1,816.1000000014901,578061.299999997,7052,WL,A,12.0
4,37.855000019073486,learn,22144.999980926514,Wed Feb 12 2025 11:16:42 GMT-0600 (Central Standard Time),579427.1999999955,A,key,O,y,534,1,1365.8999999985099,578061.299999997,7052,WL,A,12.0
4,38.4539999961853,learn,21546.000003814697,Wed Feb 12 2025 11:16:42 GMT-0600 (Central Standard Time),580026.8999999985,A,keyenter,O,enter,577,1,1965.6000000014901,578061.299999997,7052,WL,A,12.0
4,39.48899984359741,learn,20511.000156402588,Wed Feb 12 2025 11:16:42 GMT-0600 (Central Standard Time),581061.0,A,f,O,f,1024,1,1033.8000000044703,580027.1999999955,7052,WL,A,13.0
4,39.937000036239624,learn,20062.999963760376,Wed Feb 12 2025 11:16:42 GMT-0600 (Central Standard Time),581509.799999997,A,fi,O,i,430,1,1482.6000000014901,580027.1999999955,7052,WL,A,13.0
4,40.13699984550476,learn,19863.00015449524,Wed Feb 12 2025 11:16:42 GMT-0600 (Central Standard Time),581709.6999999955,A,fin,O,n,182,1,1682.5,580027.1999999955,7052,WL,A,13.0
4,40.45300006866455,learn,19546.99993133545,Wed Feb 12 2025 11:16:42 GMT-0600 (Central Standard Time),582025.6999999955,A,fing,O,g,293,1,1998.5,580027.1999999955,7052,WL,A,13.0
4,40.7039999961853,learn,19296.000003814697,Wed Feb 12 2025 11:16:42 GMT-0600 (Central Standard Time),582276.1999999955,A,finge,O,e,236,1,2249.0,580027.1999999955,7052,WL,A,13.0
4,40.88699984550476,learn,19113.00015449524,Wed Feb 12 2025 11:16:42 GMT-0600 (Central Standard Time),582459.5,A,finger,O,r,160,1,2432.3000000044703,580027.1999999955,7052,WL,A,13.0
4,41.103999853134155,learn,18896.000146865845,Wed Feb 12 2025 11:16:42 GMT-0600 (Central Standard Time),582676.0,A,fingerenter,O,enter,200,1,2648.8000000044703,580027.1999999955,7052,WL,A,13.0
4,51.01699995994568,learn,8983.000040054321,Wed Feb 12 2025 11:16:42 GMT-0600 (Central Standard Time),592589.6999999955,A,h,O,h,9904,1,9913.39999999851,582676.299999997,7052,WL,A,14.0
4,51.33399987220764,learn,8666.000127792358,Wed Feb 12 2025 11:16:42 GMT-0600 (Central Standard Time),592906.299999997,A,ha,O,a,302,1,10230.0,582676.299999997,7052,WL,A,14.0
4,51.75,learn,8250.0,Wed Feb 12 2025 11:16:42 GMT-0600 (Central Standard Time),593322.8999999985,A,har,O,r,408,1,10646.60000000149,582676.299999997,7052,WL,A,14.0
4,52.1010000705719,learn,7898.999929428101,Wed Feb 12 2025 11:16:42 GMT-0600 (Central Standard Time),593673.6000000015,A,harp,O,p,329,1,10997.30000000447,582676.299999997,7052,WL,A,14.0
4,52.5,learn,7500.0,Wed Feb 12 2025 11:16:42 GMT-0600 (Central Standard Time),594072.6999999955,A,harpenter,O,enter,385,1,11396.39999999851,582676.299999997,7052,WL,A,14.0
4,60.013999938964844,learn,-13.99993896484375,Wed Feb 12 2025 11:16:42 GMT-0600 (Central Standard Time),601586.799999997,A,None,O,None,7508,1,7513.89999999851,594072.8999999985,7052,WL,A,15.0
5,0.6500000953674316,learn,60000.0,Wed Feb 12 2025 11:16:42 GMT-0600 (Central Standard Time),669065.799999997,A,b,O,b,627,1,649.7999999970198,668416.0,7052,WL,A,1.0
5,0.9500000476837158,learn,60000.0,Wed Feb 12 2025 11:16:42 GMT-0600 (Central Standard Time),669365.5,A,bo,O,o,288,1,949.5,668416.0,7052,WL,A,1.0
5,1.1170001029968262,learn,60000.0,Wed Feb 12 2025 11:16:42 GMT-0600 (Central Standard Time),669532.0,A,boo,O,o,149,1,1116.0,668416.0,7052,WL,A,1.0
5,1.3330001831054688,learn,60000.0,Wed Feb 12 2025 11:16:42 GMT-0600 (Central Standard Time),669748.6999999955,A,book,O,k,207,1,1332.6999999955297,668416.0,7052,WL,A,1.0
5,1.883000135421753,learn,60000.0,Wed Feb 12 2025 11:16:42 GMT-0600 (Central Standard Time),670298.799999997,A,bookenter,O,enter,535,1,1882.7999999970198,668416.0,7052,WL,A,1.0
5,2.7330000400543213,learn,60000.0,Wed Feb 12 2025 11:16:42 GMT-0600 (Central Standard Time),671148.299999997,A,f,O,f,842,1,849.1999999955297,670299.1000000015,7052,WL,A,2.0
5,2.9000000953674316,learn,60000.0,Wed Feb 12 2025 11:16:42 GMT-0600 (Central Standard Time),671314.8999999985,A,fl,O,l,160,1,1015.7999999970198,670299.1000000015,7052,WL,A,2.0
5,3.133000135421753,learn,60000.0,Wed Feb 12 2025 11:16:42 GMT-0600 (Central Standard Time),671548.1999999955,A,flo,O,o,216,1,1249.0999999940395,670299.1000000015,7052,WL,A,2.0
5,3.366000175476074,learn,60000.0,Wed Feb 12 2025 11:16:42 GMT-0600 (Central Standard Time),671781.5,A,flow,O,w,214,1,1482.3999999985099,670299.1000000015,7052,WL,A,2.0
5,3.5490000247955322,learn,60000.0,Wed Feb 12 2025 11:16:42 GMT-0600 (Central Standard Time),671964.6999999955,A,flowe,O,e,174,1,1665.5999999940395,670299.1000000015,7052,WL,A,2.0
5,3.749000072479248,learn,60000.0,Wed Feb 12 2025 11:16:42 GMT-0600 (Central Standard Time),672164.6999999955,A,flower,O,r,183,1,1865.5999999940395,670299.1000000015,7052,WL,A,2.0
5,3.9660000801086426,learn,60000.0,Wed Feb 12 2025 11:16:42 GMT-0600 (Central Standard Time),672381.3999999985,A,flowerenter,O,enter,198,1,2082.2999999970198,670299.1000000015,7052,WL,A,2.0
5,4.7820000648498535,learn,60000.0,Wed Feb 12 2025 11:16:42 GMT-0600 (Central Standard Time),673197.6000000015,A,t,O,t,805,1,816.0,672381.6000000015,7052,WL,A,3.0
5,4.982000112533569,learn,60000.0,Wed Feb 12 2025 11:16:42 GMT-0600 (Central Standard Time),673397.5,A,tr,O,r,181,1,1015.8999999985099,672381.6000000015,7052,WL,A,3.0
5,5.466000080108643,learn,60000.0,Wed Feb 12 2025 11:16:42 GMT-0600 (Central Standard Time),673880.8999999985,A,tra,O,a,469,1,1499.2999999970198,672381.6000000015,7052,WL,A,3.0
5,5.9150002002716064,learn,60000.0,Wed Feb 12 2025 11:16:42 GMT-0600 (Central Standard Time),674330.6000000015,A,trai,O,i,426,1,1949.0,672381.6000000015,7052,WL,A,3.0
5,6.14900016784668,learn,60000.0,Wed Feb 12 2025 11:16:42 GMT-0600 (Central Standard Time),674563.799999997,A,train,O,n,224,1,2182.1999999955297,672381.6000000015,7052,WL,A,3.0
5,6.54800009727478,learn,60000.0,Wed Feb 12 2025 11:16:42 GMT-0600 (Central Standard Time),674963.6999999955,A,trainenter,O,enter,384,1,2582.0999999940395,672381.6000000015,7052,WL,A,3.0
5,7.998000144958496,learn,60000.0,Wed Feb 12 2025 11:16:42 GMT-0600 (Central Standard Time),676413.299999997,A,g,O,g,1432,1,1449.1999999955297,674964.1000000015,7052,WL,A,4.0
5,8.165000200271606,learn,60000.0,Wed Feb 12 2025 11:16:42 GMT-0600 (Central Standard Time),676579.8999999985,A,go,O,o,151,1,1615.7999999970198,674964.1000000015,7052,WL,A,4.0
5,8.348000049591064,learn,60000.0,Wed Feb 12 2025 11:16:42 GMT-0600 (Central Standard Time),676763.0,A,gol,O,l,176,1,1798.8999999985099,674964.1000000015,7052,WL,A,4.0
5,8.614000082015991,learn,60000.0,Wed Feb 12 2025 11:16:42 GMT-0600 (Central Standard Time),677029.6999999955,A,gold,O,d,256,1,2065.5999999940395,674964.1000000015,7052,WL,A,4.0
5,8.864000082015991,learn,60000.0,Wed Feb 12 2025 11:16:42 GMT-0600 (Central Standard Time),677279.6999999955,A,goldenter,O,enter,238,1,2315.5999999940395,674964.1000000015,7052,WL,A,4.0
5,10.514000177383423,learn,60000.0,Wed Feb 12 2025 11:16:42 GMT-0600 (Central Standard Time),678929.1999999955,A,m,O,m,1628,1,1649.0999999940395,677280.1000000015,7052,WL,A,5.0
5,10.764000177383423,learn,60000.0,Wed Feb 12 2025 11:16:42 GMT-0600 (Central Standard Time),679179.0,A,me,O,e,241,1,1898.8999999985099,677280.1000000015,7052,WL,A,5.0
5,11.047000169754028,learn,60000.0,Wed Feb 12 2025 11:16:42 GMT-0600 (Central Standard Time),679462.3999999985,A,mea,O,a,264,1,2182.2999999970198,677280.1000000015,7052,WL,A,5.0
5,11.28000020980835,learn,60000.0,Wed Feb 12 2025 11:16:42 GMT-0600 (Central Standard Time),679695.5,A,mead,O,d,213,1,2415.39999999851,677280.1000000015,7052,WL,A,5.0
5,11.597000122070312,learn,60000.0,Wed Feb 12 2025 11:16:42 GMT-0600 (Central Standard Time),680012.1999999955,A,meado,O,o,299,1,2732.0999999940395,677280.1000000015,7052,WL,A,5.0
5,11.86300015449524,learn,60000.0,Wed Feb 12 2025 11:16:42 GMT-0600 (Central Standard Time),680278.799999997,A,meadow,O,w,254,1,2998.6999999955297,677280.1000000015,7052,WL,A,5.0
5,12.163000106811523,learn,60000.0,Wed Feb 12 2025 11:16:42 GMT-0600 (Central Standard Time),680578.6000000015,A,meadowenter,O,enter,284,1,3298.5,677280.1000000015,7052,WL,A,5.0
5,13.380000114440918,learn,60000.0,Wed Feb 12 2025 11:16:42 GMT-0600 (Central Standard Time),681795.0,A,s,O,s,1201,1,1216.0,680579.0,7052,WL,A,6.0
5,13.59600019454956,learn,60000.0,Wed Feb 12 2025 11:16:42 GMT-0600 (Central Standard Time),682011.299999997,A,sa,O,a,208,1,1432.2999999970198,680579.0,7052,WL,A,6.0
5,13.746000051498413,learn,60000.0,Wed Feb 12 2025 11:16:42 GMT-0600 (Central Standard Time),682161.6000000015,A,sal,O,l,137,1,1582.6000000014901,680579.0,7052,WL,A,6.0
5,14.263000011444092,learn,60000.0,Wed Feb 12 2025 11:16:42 GMT-0600 (Central Standard Time),682677.8999999985,A,salt,O,t,499,1,2098.89999999851,680579.0,7052,WL,A,6.0
5,14.479000091552734,learn,60000.0,Wed Feb 12 2025 11:16:42 GMT-0600 (Central Standard Time),682894.6999999955,A,saltenter,O,enter,198,1,2315.6999999955297,680579.0,7052,WL,A,6.0
5,15.379000186920166,learn,60000.0,Wed Feb 12 2025 11:16:42 GMT-0600 (Central Standard Time),683794.3999999985,A,r,O,r,886,1,899.3999999985099,682895.0,7052,WL,A,7.0
5,15.646000146865845,learn,60000.0,Wed Feb 12 2025 11:16:42 GMT-0600 (Central Standard Time),684060.8999999985,A,re,O,e,257,1,1165.8999999985099,682895.0,7052,WL,A,7.0
5,16.52900004386902,learn,60000.0,Wed Feb 12 2025 11:16:42 GMT-0600 (Central Standard Time),684943.8999999985,A,rea,O,a,864,1,2048.89999999851,682895.0,7052,WL,A,7.0
5,16.895000219345093,learn,60000.0,Wed Feb 12 2025 11:16:42 GMT-0600 (Central Standard Time),685310.5,A,reat,O,t,355,1,2415.5,682895.0,7052,WL,A,7.0
5,17.362000226974487,learn,60000.0,Wed Feb 12 2025 11:16:42 GMT-0600 (Central Standard Time),685777.0,A,reatl,O,l,453,1,2882.0,682895.0,7052,WL,A,7.0
5,17.51200008392334,learn,60000.0,Wed Feb 12 2025 11:16:42 GMT-0600 (Central Standard Time),685927.0,A,reatll,O,l,138,1,3032.0,682895.0,7052,WL,A,7.0
5,17.645000219345093,learn,60000.0,Wed Feb 12 2025 11:16:42 GMT-0600 (Central Standard Time),686060.3999999985,A,reatlle,O,e,116,1,3165.39999999851,682895.0,7052,WL,A,7.0
5,18.261000156402588,learn,60000.0,Wed Feb 12 2025 11:16:42 GMT-0600 (Central Standard Time),686676.6999999955,A,reatll,O,backspace,607,1,3781.6999999955297,682895.0,7052,WL,A,7.0
5,18.461000204086304,learn,60000.0,Wed Feb 12 2025 11:16:42 GMT-0600 (Central Standard Time),686876.6000000015,A,reatl,O,backspace,183,1,3981.60000000149,682895.0,7052,WL,A,7.0
5,18.628000020980835,learn,60000.0,Wed Feb 12 2025 11:16:42 GMT-0600 (Central Standard Time),687043.0,A,reat,O,backspace,158,1,4148.0,682895.0,7052,WL,A,7.0
5,18.794000148773193,learn,60000.0,Wed Feb 12 2025 11:16:42 GMT-0600 (Central Standard Time),687209.6999999955,A,rea,O,backspace,152,1,4314.69999999553,682895.0,7052,WL,A,7.0
5,18.961000204086304,learn,60000.0,Wed Feb 12 2025 11:16:42 GMT-0600 (Central Standard Time),687376.299999997,A,re,O,backspace,153,1,4481.29999999702,682895.0,7052,WL,A,7.0
5,19.789000034332275,learn,60000.0,Wed Feb 12 2025 11:16:42 GMT-0600 (Central Standard Time),688203.8999999985,A,r,O,backspace,821,1,5308.89999999851,682895.0,7052,WL,A,7.0
5,20.544000148773193,learn,60000.0,Wed Feb 12 2025 11:16:42 GMT-0600 (Central Standard Time),688959.5,A,ra,O,a,741,1,6064.5,682895.0,7052,WL,A,7.0
5,20.99400019645691,learn,60000.0,Wed Feb 12 2025 11:16:42 GMT-0600 (Central Standard Time),689409.5,A,rat,O,t,427,1,6514.5,682895.0,7052,WL,A,7.0
5,21.14400005340576,learn,60000.0,Wed Feb 12 2025 11:16:42 GMT-0600 (Central Standard Time),689559.1999999955,A,ratt,O,t,138,1,6664.19999999553,682895.0,7052,WL,A,7.0
5,21.510000228881836,learn,60000.0,Wed Feb 12 2025 11:16:42 GMT-0600 (Central Standard Time),689925.6999999955,A,rattl,O,l,356,1,7030.69999999553,682895.0,7052,WL,A,7.0
5,21.760000228881836,learn,60000.0,Wed Feb 12 2025 11:16:42 GMT-0600 (Central Standard Time),690175.6999999955,A,rattle,O,e,238,1,7280.69999999553,682895.0,7052,WL,A,7.0
5,21.99400019645691,learn,60000.0,Wed Feb 12 2025 11:16:42 GMT-0600 (Central Standard Time),690408.8999999985,A,rattleenter,O,enter,212,1,7513.89999999851,682895.0,7052,WL,A,7.0
5,23.177000045776367,learn,60000.0,Wed Feb 12 2025 11:16:42 GMT-0600 (Central Standard Time),691592.1000000015,A,f,O,f,1171,1,1182.9000000059605,690409.1999999955,7052,WL,A,8.0
5,23.493000030517578,learn,60000.0,Wed Feb 12 2025 11:16:42 GMT-0600 (Central Standard Time),691908.5,A,fi,O,i,307,1,1499.3000000044703,690409.1999999955,7052,WL,A,8.0
5,23.693000078201294,learn,60000.0,Wed Feb 12 2025 11:16:42 GMT-0600 (Central Standard Time),692108.5,A,fin,O,n,183,1,1699.3000000044703,690409.1999999955,7052,WL,A,8.0
5,24.076000213623047,learn,60000.0,Wed Feb 12 2025 11:16:42 GMT-0600 (Central Standard Time),692491.6000000015,A,fing,O,g,367,1,2082.4000000059605,690409.1999999955,7052,WL,A,8.0
5,24.343000173568726,learn,60000.0,Wed Feb 12 2025 11:16:42 GMT-0600 (Central Standard Time),692758.1999999955,A,finge,O,e,248,1,2349.0,690409.1999999955,7052,WL,A,8.0
5,24.510000228881836,learn,60000.0,Wed Feb 12 2025 11:16:42 GMT-0600 (Central Standard Time),692924.8999999985,A,finger,O,r,157,1,2515.7000000029802,690409.1999999955,7052,WL,A,8.0
5,24.7260000705719,learn,60000.0,Wed Feb 12 2025 11:16:42 GMT-0600 (Central Standard Time),693141.5,A,fingerenter,O,enter,199,1,2732.3000000044703,690409.1999999955,7052,WL,A,8.0
5,26.05900001525879,learn,60000.0,Wed Feb 12 2025 11:16:42 GMT-0600 (Central Standard Time),694474.1999999955,A,b,O,b,1310,1,1332.3999999985099,693141.799999997,7052,WL,A,9.0
5,26.37600016593933,learn,60000.0,Wed Feb 12 2025 11:16:42 GMT-0600 (Central Standard Time),694790.799999997,A,bu,O,u,297,1,1649.0,693141.799999997,7052,WL,A,9.0
5,26.692000150680542,learn,60000.0,Wed Feb 12 2025 11:16:42 GMT-0600 (Central Standard Time),695107.3999999985,A,but,O,t,300,1,1965.6000000014901,693141.799999997,7052,WL,A,9.0
5,26.859000205993652,learn,60000.0,Wed Feb 12 2025 11:16:42 GMT-0600 (Central Standard Time),695274.0,A,butt,O,t,152,1,2132.2000000029802,693141.799999997,7052,WL,A,9.0
5,26.992000102996826,learn,60000.0,Wed Feb 12 2025 11:16:42 GMT-0600 (Central Standard Time),695407.3999999985,A,butto,O,o,113,1,2265.60000000149,693141.799999997,7052,WL,A,9.0
5,27.30900001525879,learn,60000.0,Wed Feb 12 2025 11:16:42 GMT-0600 (Central Standard Time),695723.8999999985,A,button,O,n,299,1,2582.10000000149,693141.799999997,7052,WL,A,9.0
5,27.692000150680542,learn,60000.0,Wed Feb 12 2025 11:16:42 GMT-0600 (Central Standard Time),696107.1000000015,A,buttonenter,O,enter,368,1,2965.3000000044703,693141.799999997,7052,WL,A,9.0
5,28.10800004005432,learn,60000.0,Wed Feb 12 2025 11:16:42 GMT-0600 (Central Standard Time),696523.3999999985,A,l,O,l,409,1,416.0,696107.3999999985,7052,WL,A,10.0
5,28.325000047683716,learn,60000.0,Wed Feb 12 2025 11:16:42 GMT-0600 (Central Standard Time),696740.299999997,A,lo,O,o,201,1,632.8999999985099,696107.3999999985,7052,WL,A,10.0
5,28.70800018310547,learn,60000.0,Wed Feb 12 2025 11:16:42 GMT-0600 (Central Standard Time),697123.1999999955,A,log,O,g,375,1,1015.7999999970198,696107.3999999985,7052,WL,A,10.0
5,28.975000143051147,learn,60000.0,Wed Feb 12 2025 11:16:42 GMT-0600 (Central Standard Time),697390.0,A,logenter,O,enter,247,1,1282.6000000014901,696107.3999999985,7052,WL,A,10.0
5,29.70800018310547,learn,60000.0,Wed Feb 12 2025 11:16:42 GMT-0600 (Central Standard Time),698123.1000000015,A,k,O,k,717,1,732.8000000044703,697390.299999997,7052,WL,A,11.0
5,30.04100012779236,learn,60000.0,Wed Feb 12 2025 11:16:42 GMT-0600 (Central Standard Time),698456.5,A,ke,O,e,311,1,1066.2000000029802,697390.299999997,7052,WL,A,11.0
5,30.54100012779236,learn,60000.0,Wed Feb 12 2025 11:16:42 GMT-0600 (Central Standard Time),698956.1999999955,A,key,O,y,482,1,1565.8999999985099,697390.299999997,7052,WL,A,11.0
5,31.308000087738037,learn,60000.0,Wed Feb 12 2025 11:16:42 GMT-0600 (Central Standard Time),699722.799999997,A,keyg,O,g,750,1,2332.5,697390.299999997,7052,WL,A,11.0
5,31.507000207901,learn,60000.0,Wed Feb 12 2025 11:16:42 GMT-0600 (Central Standard Time),699922.6000000015,A,keygo,O,o,177,1,2532.3000000044703,697390.299999997,7052,WL,A,11.0
5,31.69100022315979,learn,60000.0,Wed Feb 12 2025 11:16:42 GMT-0600 (Central Standard Time),700105.8999999985,A,keygol,O,l,160,1,2715.60000000149,697390.299999997,7052,WL,A,11.0
5,32.007000207901,learn,60000.0,Wed Feb 12 2025 11:16:42 GMT-0600 (Central Standard Time),700422.5,A,keygold,O,d,305,1,3032.2000000029802,697390.299999997,7052,WL,A,11.0
5,32.92300009727478,learn,60000.0,Wed Feb 12 2025 11:16:42 GMT-0600 (Central Standard Time),701338.6999999955,A,keygol,O,backspace,909,1,3948.39999999851,697390.299999997,7052,WL,A,11.0
5,33.10700011253357,learn,60000.0,Wed Feb 12 2025 11:16:42 GMT-0600 (Central Standard Time),701522.299999997,A,keygo,O,backspace,160,1,4132.0,697390.299999997,7052,WL,A,11.0
5,33.290000200271606,learn,60000.0,Wed Feb 12 2025 11:16:42 GMT-0600 (Central Standard Time),701705.5,A,keyg,O,backspace,160,1,4315.20000000298,697390.299999997,7052,WL,A,11.0
5,34.24000000953674,learn,60000.0,Wed Feb 12 2025 11:16:42 GMT-0600 (Central Standard Time),702655.1000000015,A,key,O,backspace,937,1,5264.80000000447,697390.299999997,7052,WL,A,11.0
5,34.540000200271606,learn,60000.0,Wed Feb 12 2025 11:16:42 GMT-0600 (Central Standard Time),702955.0,A,keyenter,O,enter,284,1,5564.70000000298,697390.299999997,7052,WL,A,11.0
5,35.723000049591064,learn,60000.0,Wed Feb 12 2025 11:16:42 GMT-0600 (Central Standard Time),704137.8999999985,A,g,O,g,1168,1,1182.6000000014901,702955.299999997,7052,WL,A,12.0
5,35.94000005722046,learn,60000.0,Wed Feb 12 2025 11:16:42 GMT-0600 (Central Standard Time),704354.799999997,A,go,O,o,202,1,1399.5,702955.299999997,7052,WL,A,12.0
5,36.10600018501282,learn,60000.0,Wed Feb 12 2025 11:16:42 GMT-0600 (Central Standard Time),704521.1999999955,A,gol,O,l,144,1,1565.8999999985099,702955.299999997,7052,WL,A,12.0
5,36.33900022506714,learn,60000.0,Wed Feb 12 2025 11:16:42 GMT-0600 (Central Standard Time),704754.6000000015,A,gold,O,d,209,1,1799.3000000044703,702955.299999997,7052,WL,A,12.0
5,36.52300000190735,learn,60000.0,Wed Feb 12 2025 11:16:42 GMT-0600 (Central Standard Time),704937.799999997,A,goldenter,O,enter,160,1,1982.5,702955.299999997,7052,WL,A,12.0
5,41.22100019454956,learn,60000.0,Wed Feb 12 2025 11:16:42 GMT-0600 (Central Standard Time),709636.299999997,A,c,O,c,4689,1,4698.10000000149,704938.1999999955,7052,WL,A,13.0
5,41.40400004386902,learn,60000.0,Wed Feb 12 2025 11:16:42 GMT-0600 (Central Standard Time),709819.3999999985,A,ch,O,h,174,1,4881.20000000298,704938.1999999955,7052,WL,A,13.0
5,41.97100019454956,learn,60000.0,Wed Feb 12 2025 11:16:42 GMT-0600 (Central Standard Time),710386.0,A,chi,O,i,553,1,5447.80000000447,704938.1999999955,7052,WL,A,13.0
5,42.57100009918213,learn,60000.0,Wed Feb 12 2025 11:16:42 GMT-0600 (Central Standard Time),710985.799999997,A,chim,O,m,577,1,6047.60000000149,704938.1999999955,7052,WL,A,13.0
5,42.80400013923645,learn,60000.0,Wed Feb 12 2025 11:16:42 GMT-0600 (Central Standard Time),711219.1000000015,A,chimn,O,n,217,1,6280.9000000059605,704938.1999999955,7052,WL,A,13.0
5,43.65400004386902,learn,60000.0,Wed Feb 12 2025 11:16:42 GMT-0600 (Central Standard Time),712069.0,A,chimne,O,e,831,1,7130.80000000447,704938.1999999955,7052,WL,A,13.0
5,43.88700008392334,learn,60000.0,Wed Feb 12 2025 11:16:42 GMT-0600 (Central Standard Time),712302.1000000015,A,chimney,O,y,222,1,7363.9000000059605,704938.1999999955,7052,WL,A,13.0
5,44.37000012397766,learn,60000.0,Wed Feb 12 2025 11:16:42 GMT-0600 (Central Standard Time),712785.299999997,A,chimneyenter,O,enter,461,1,7847.10000000149,704938.1999999955,7052,WL,A,13.0
5,53.51600003242493,learn,60000.0,Wed Feb 12 2025 11:16:42 GMT-0600 (Central Standard Time),721932.3999999985,A,a,O,a,9138,1,9146.70000000298,712785.6999999955,7052,WL,A,14.0
5,53.79900002479553,learn,60000.0,Wed Feb 12 2025 11:16:42 GMT-0600 (Central Standard Time),722215.5,A,ap,O,p,263,1,9429.80000000447,712785.6999999955,7052,WL,A,14.0
5,53.93300008773804,learn,60000.0,Wed Feb 12 2025 11:16:42 GMT-0600 (Central Standard Time),722349.0,A,app,O,p,123,1,9563.30000000447,712785.6999999955,7052,WL,A,14.0
5,54.132000207901,learn,60000.0,Wed Feb 12 2025 11:16:42 GMT-0600 (Central Standard Time),722548.8999999985,A,appl,O,l,191,1,9763.20000000298,712785.6999999955,7052,WL,A,14.0
5,54.382000207901,learn,60000.0,Wed Feb 12 2025 11:16:42 GMT-0600 (Central Standard Time),722798.8999999985,A,apple,O,e,238,1,10013.20000000298,712785.6999999955,7052,WL,A,14.0
5,54.53200006484985,learn,60000.0,Wed Feb 12 2025 11:16:42 GMT-0600 (Central Standard Time),722948.6999999955,A,appleenter,O,enter,140,1,10163.0,712785.6999999955,7052,WL,A,14.0
5,114.5460000038147,learn,60000.0,Wed Feb 12 2025 11:16:42 GMT-0600 (Central Standard Time),782963.1999999955,A,None,O,None,60008,1,60014.19999999553,722949.0,7052,WL,A,15.0
6,1.2330000400543213,distr,58766.99995994568,Wed Feb 12 2025 11:16:42 GMT-0600 (Central Standard Time),869936.0,B,b,O,b,1213,1,1232.8000000044703,868703.1999999955,7052,WL,A,1.0
6,1.5499999523162842,distr,58450.000047683716,Wed Feb 12 2025 11:16:42 GMT-0600 (Central Standard Time),870252.5,B,bo,O,o,298,1,1549.3000000044703,868703.1999999955,7052,WL,A,1.0
6,2.0169999599456787,distr,57983.00004005432,Wed Feb 12 2025 11:16:42 GMT-0600 (Central Standard Time),870719.1999999955,B,bow,O,w,456,1,2016.0,868703.1999999955,7052,WL,A,1.0
6,2.2330000400543213,distr,57766.99995994568,Wed Feb 12 2025 11:16:42 GMT-0600 (Central Standard Time),870935.6000000015,B,bowl,O,l,204,1,2232.4000000059605,868703.1999999955,7052,WL,A,1.0
6,3.3329999446868896,distr,56667.00005531311,Wed Feb 12 2025 11:16:42 GMT-0600 (Central Standard Time),872035.3999999985,B,bowlenter,O,enter,1083,1,3332.2000000029802,868703.1999999955,7052,WL,A,1.0
6,4.315999984741211,distr,55684.00001525879,Wed Feb 12 2025 11:16:42 GMT-0600 (Central Standard Time),873018.3999999985,B,d,O,d,960,1,982.7999999970198,872035.6000000015,7052,WL,A,2.0
6,4.6499998569488525,distr,55350.00014305115,Wed Feb 12 2025 11:16:42 GMT-0600 (Central Standard Time),873352.6999999955,B,da,O,a,313,1,1317.0999999940395,872035.6000000015,7052,WL,A,2.0
6,4.898999929428101,distr,55101.0000705719,Wed Feb 12 2025 11:16:42 GMT-0600 (Central Standard Time),873601.6999999955,B,daw,O,w,234,1,1566.0999999940395,872035.6000000015,7052,WL,A,2.0
6,5.181999921798706,distr,54818.000078201294,Wed Feb 12 2025 11:16:42 GMT-0600 (Central Standard Time),873884.8999999985,B,dawn,O,n,266,1,1849.2999999970198,872035.6000000015,7052,WL,A,2.0
6,5.598999977111816,distr,54401.00002288818,Wed Feb 12 2025 11:16:42 GMT-0600 (Central Standard Time),874301.299999997,B,dawnenter,O,enter,406,1,2265.6999999955297,872035.6000000015,7052,WL,A,2.0
6,6.315999984741211,distr,53684.00001525879,Wed Feb 12 2025 11:16:42 GMT-0600 (Central Standard Time),875018.5,B,j,O,j,711,1,716.8999999985099,874301.6000000015,7052,WL,A,3.0
6,6.565000057220459,distr,53434.99994277954,Wed Feb 12 2025 11:16:42 GMT-0600 (Central Standard Time),875267.5,B,ju,O,u,233,1,965.8999999985099,874301.6000000015,7052,WL,A,3.0
6,6.947999954223633,distr,53052.00004577637,Wed Feb 12 2025 11:16:42 GMT-0600 (Central Standard Time),875650.8999999985,B,jud,O,d,376,1,1349.2999999970198,874301.6000000015,7052,WL,A,3.0
6,7.2149999141693115,distr,52785.00008583069,Wed Feb 12 2025 11:16:42 GMT-0600 (Central Standard Time),875917.5,B,judg,O,g,248,1,1615.8999999985099,874301.6000000015,7052,WL,A,3.0
6,7.398000001907349,distr,52601.99999809265,Wed Feb 12 2025 11:16:42 GMT-0600 (Central Standard Time),876100.6000000015,B,judge,O,e,174,1,1799.0,874301.6000000015,7052,WL,A,3.0
6,7.986000061035156,distr,52013.999938964844,Wed Feb 12 2025 11:16:42 GMT-0600 (Central Standard Time),876689.1000000015,B,judgeenter,O,enter,565,1,2387.5,874301.6000000015,7052,WL,A,3.0
6,8.530999898910522,distr,51469.00010108948,Wed Feb 12 2025 11:16:42 GMT-0600 (Central Standard Time),877233.8999999985,B,i,O,i,530,1,544.3999999985099,876689.5,7052,WL,A,4.0
6,8.763999938964844,distr,51236.000061035156,Wed Feb 12 2025 11:16:42 GMT-0600 (Central Standard Time),877466.799999997,B,in,O,n,217,1,777.2999999970198,876689.5,7052,WL,A,4.0
6,9.180999994277954,distr,50819.000005722046,Wed Feb 12 2025 11:16:42 GMT-0600 (Central Standard Time),877883.1999999955,B,ins,O,s,408,1,1193.6999999955297,876689.5,7052,WL,A,4.0
6,9.46399998664856,distr,50536.00001335144,Wed Feb 12 2025 11:16:42 GMT-0600 (Central Standard Time),878166.6999999955,B,inse,O,e,264,1,1477.1999999955297,876689.5,7052,WL,A,4.0
6,9.730000019073486,distr,50269.999980926514,Wed Feb 12 2025 11:16:42 GMT-0600 (Central Standard Time),878433.0,B,insec,O,c,251,1,1743.5,876689.5,7052,WL,A,4.0
6,9.996999979019165,distr,50003.000020980835,Wed Feb 12 2025 11:16:42 GMT-0600 (Central Standard Time),878699.5,B,insect,O,t,258,1,2010.0,876689.5,7052,WL,A,4.0
6,10.230000019073486,distr,49769.999980926514,Wed Feb 12 2025 11:16:42 GMT-0600 (Central Standard Time),878932.799999997,B,insectenter,O,enter,215,1,2243.2999999970198,876689.5,7052,WL,A,4.0
6,10.980000019073486,distr,49019.999980926514,Wed Feb 12 2025 11:16:42 GMT-0600 (Central Standard Time),879682.6999999955,B,c,O,c,734,1,749.6999999955297,878933.0,7052,WL,A,5.0
6,11.829999923706055,distr,48170.000076293945,Wed Feb 12 2025 11:16:42 GMT-0600 (Central Standard Time),880532.299999997,B,ch,O,h,840,1,1599.2999999970198,878933.0,7052,WL,A,5.0
6,12.11299991607666,distr,47887.00008392334,Wed Feb 12 2025 11:16:42 GMT-0600 (Central Standard Time),880815.5,B,chw,O,w,270,1,1882.5,878933.0,7052,WL,A,5.0
6,12.678999900817871,distr,47321.00009918213,Wed Feb 12 2025 11:16:42 GMT-0600 (Central Standard Time),881382.0,B,ch,O,backspace,556,1,2449.0,878933.0,7052,WL,A,5.0
6,12.94599986076355,distr,47054.00013923645,Wed Feb 12 2025 11:16:42 GMT-0600 (Central Standard Time),881648.6999999955,B,che,O,e,253,1,2715.6999999955297,878933.0,7052,WL,A,5.0
6,13.296000003814697,distr,46703.9999961853,Wed Feb 12 2025 11:16:42 GMT-0600 (Central Standard Time),881998.3999999985,B,chea,O,a,338,1,3065.39999999851,878933.0,7052,WL,A,5.0
6,13.546000003814697,distr,46453.9999961853,Wed Feb 12 2025 11:16:42 GMT-0600 (Central Standard Time),882248.3999999985,B,cheap,O,p,229,1,3315.39999999851,878933.0,7052,WL,A,5.0
6,13.911999940872192,distr,46088.00005912781,Wed Feb 12 2025 11:16:42 GMT-0600 (Central Standard Time),882615.1000000015,B,cheapenter,O,enter,354,1,3682.10000000149,878933.0,7052,WL,A,5.0
6,14.796000003814697,distr,45203.9999961853,Wed Feb 12 2025 11:16:42 GMT-0600 (Central Standard Time),883498.5,B,j,O,j,875,1,883.2000000029802,882615.299999997,7052,WL,A,6.0
6,15.044999837875366,distr,44955.000162124634,Wed Feb 12 2025 11:16:42 GMT-0600 (Central Standard Time),883748.0,B,ju,O,u,232,1,1132.7000000029802,882615.299999997,7052,WL,A,6.0
6,15.361999988555908,distr,44638.00001144409,Wed Feb 12 2025 11:16:42 GMT-0600 (Central Standard Time),884064.5,B,jud,O,d,302,1,1449.2000000029802,882615.299999997,7052,WL,A,6.0
6,15.611999988555908,distr,44388.00001144409,Wed Feb 12 2025 11:16:42 GMT-0600 (Central Standard Time),884314.3999999985,B,judg,O,g,242,1,1699.1000000014901,882615.299999997,7052,WL,A,6.0
6,15.812000036239624,distr,44187.999963760376,Wed Feb 12 2025 11:16:42 GMT-0600 (Central Standard Time),884514.5,B,judge,O,e,192,1,1899.2000000029802,882615.299999997,7052,WL,A,6.0
6,16.161999940872192,distr,43838.00005912781,Wed Feb 12 2025 11:16:42 GMT-0600 (Central Standard Time),884864.299999997,B,judgeenter,O,enter,337,1,2249.0,882615.299999997,7052,WL,A,6.0
6,17.044999837875366,distr,42955.000162124634,Wed Feb 12 2025 11:16:42 GMT-0600 (Central Standard Time),885747.5,B,c,O,c,867,1,883.0,884864.5,7052,WL,A,7.0
6,17.227999925613403,distr,42772.0000743866,Wed Feb 12 2025 11:16:42 GMT-0600 (Central Standard Time),885930.6999999955,B,ch,O,h,167,1,1066.1999999955297,884864.5,7052,WL,A,7.0
6,17.611999988555908,distr,42388.00001144409,Wed Feb 12 2025 11:16:42 GMT-0600 (Central Standard Time),886314.299999997,B,che,O,e,359,1,1449.7999999970198,884864.5,7052,WL,A,7.0
6,17.92799997329712,distr,42072.00002670288,Wed Feb 12 2025 11:16:42 GMT-0600 (Central Standard Time),886630.6000000015,B,chea,O,a,295,1,1766.1000000014901,884864.5,7052,WL,A,7.0
6,18.060999870300293,distr,41939.00012969971,Wed Feb 12 2025 11:16:42 GMT-0600 (Central Standard Time),886764.1000000015,B,cheap,O,p,125,1,1899.6000000014901,884864.5,7052,WL,A,7.0
6,18.41100001335144,distr,41588.99998664856,Wed Feb 12 2025 11:16:42 GMT-0600 (Central Standard Time),887113.799999997,B,cheapenter,O,enter,336,1,2249.2999999970198,884864.5,7052,WL,A,7.0
6,29.822999954223633,distr,30177.000045776367,Wed Feb 12 2025 11:16:42 GMT-0600 (Central Standard Time),898526.6999999955,B,p,O,p,11394,1,11412.59999999404,887114.1000000015,7052,WL,A,8.0
6,30.155999898910522,distr,29844.000101089478,Wed Feb 12 2025 11:16:42 GMT-0600 (Central Standard Time),898859.8999999985,B,pe,O,e,324,1,11745.79999999702,887114.1000000015,7052,WL,A,8.0
6,30.473000049591064,distr,29526.999950408936,Wed Feb 12 2025 11:16:42 GMT-0600 (Central Standard Time),899176.6999999955,B,pea,O,a,295,1,12062.59999999404,887114.1000000015,7052,WL,A,8.0
6,30.955999851226807,distr,29044.000148773193,Wed Feb 12 2025 11:16:42 GMT-0600 (Central Standard Time),899659.6999999955,B,peac,O,c,474,1,12545.59999999404,887114.1000000015,7052,WL,A,8.0
6,31.340999841690063,distr,28659.000158309937,Wed Feb 12 2025 11:16:42 GMT-0600 (Central Standard Time),900044.6999999955,B,peach,O,h,376,1,12930.59999999404,887114.1000000015,7052,WL,A,8.0
6,31.738999843597412,distr,28261.000156402588,Wed Feb 12 2025 11:16:42 GMT-0600 (Central Standard Time),900442.799999997,B,peachenter,O,enter,373,1,13328.69999999553,887114.1000000015,7052,WL,A,8.0
6,60.013999938964844,distr,-13.99993896484375,Wed Feb 12 2025 11:16:42 GMT-0600 (Central Standard Time),928717.6000000015,B,None,O,None,28267,1,28274.5,900443.1000000015,7052,WL,A,9.0
7,1.4659998416900635,immed,58534.00015830994,Wed Feb 12 2025 11:16:42 GMT-0600 (Central Standard Time),953626.1999999955,A,b,O,b,1443,1,1465.6999999955297,952160.5,7052,WL,A,1.0
7,1.815999984741211,immed,58184.00001525879,Wed Feb 12 2025 11:16:42 GMT-0600 (Central Standard Time),953976.1000000015,A,bo,O,o,328,1,1815.6000000014901,952160.5,7052,WL,A,1.0
7,1.9819998741149902,immed,58018.00012588501,Wed Feb 12 2025 11:16:42 GMT-0600 (Central Standard Time),954142.8999999985,A,boo,O,o,147,1,1982.3999999985099,952160.5,7052,WL,A,1.0
7,2.1989998817443848,immed,57801.000118255615,Wed Feb 12 2025 11:16:42 GMT-0600 (Central Standard Time),954359.6000000015,A,book,O,k,204,1,2199.10000000149,952160.5,7052,WL,A,1.0
7,4.830999851226807,immed,55169.00014877319,Wed Feb 12 2025 11:16:42 GMT-0600 (Central Standard Time),956992.0,A,bookenter,O,enter,2620,1,4831.5,952160.5,7052,WL,A,1.0
7,5.71399998664856,immed,54286.00001335144,Wed Feb 12 2025 11:16:42 GMT-0600 (Central Standard Time),957875.5,A,t,O,t,875,1,883.1000000014901,956992.3999999985,7052,WL,A,2.0
7,5.930999994277954,immed,54069.000005722046,Wed Feb 12 2025 11:16:42 GMT-0600 (Central Standard Time),958091.8999999985,A,tr,O,r,201,1,1099.5,956992.3999999985,7052,WL,A,2.0
7,6.396999835968018,immed,53603.00016403198,Wed Feb 12 2025 11:16:42 GMT-0600 (Central Standard Time),958557.6999999955,A,tra,O,a,455,1,1565.2999999970198,956992.3999999985,7052,WL,A,2.0
7,6.863999843597412,immed,53136.00015640259,Wed Feb 12 2025 11:16:42 GMT-0600 (Central Standard Time),959024.6999999955,A,trai,O,i,454,1,2032.2999999970198,956992.3999999985,7052,WL,A,2.0
7,7.096999883651733,immed,52903.00011634827,Wed Feb 12 2025 11:16:42 GMT-0600 (Central Standard Time),959258.1000000015,A,train,O,n,210,1,2265.7000000029802,956992.3999999985,7052,WL,A,2.0
7,7.46399998664856,immed,52536.00001335144,Wed Feb 12 2025 11:16:42 GMT-0600 (Central Standard Time),959624.6999999955,A,trainenter,O,enter,353,1,2632.2999999970198,956992.3999999985,7052,WL,A,2.0
7,8.712999820709229,immed,51287.00017929077,Wed Feb 12 2025 11:16:42 GMT-0600 (Central Standard Time),960874.3999999985,A,m,O,m,1226,1,1249.2999999970198,959625.1000000015,7052,WL,A,3.0
7,9.179999828338623,immed,50820.00017166138,Wed Feb 12 2025 11:16:42 GMT-0600 (Central Standard Time),961340.8999999985,A,me,O,e,449,1,1715.7999999970198,959625.1000000015,7052,WL,A,3.0
7,9.44599986076355,immed,50554.00013923645,Wed Feb 12 2025 11:16:42 GMT-0600 (Central Standard Time),961607.1999999955,A,mea,O,a,254,1,1982.0999999940395,959625.1000000015,7052,WL,A,3.0
7,9.730000019073486,immed,50269.999980926514,Wed Feb 12 2025 11:16:42 GMT-0600 (Central Standard Time),961890.6000000015,A,mead,O,d,268,1,2265.5,959625.1000000015,7052,WL,A,3.0
7,10.178999900817871,immed,49821.00009918213,Wed Feb 12 2025 11:16:42 GMT-0600 (Central Standard Time),962340.299999997,A,meado,O,o,433,1,2715.1999999955297,959625.1000000015,7052,WL,A,3.0
7,10.496000051498413,immed,49503.99994850159,Wed Feb 12 2025 11:16:42 GMT-0600 (Central Standard Time),962656.799999997,A,meadow,O,w,294,1,3031.6999999955297,959625.1000000015,7052,WL,A,3.0
7,10.911999940872192,immed,49088.00005912781,Wed Feb 12 2025 11:16:42 GMT-0600 (Central Standard Time),963073.1999999955,A,meadowenter,O,enter,402,1,3448.0999999940395,959625.1000000015,7052,WL,A,3.0
7,11.378999948501587,immed,48621.00005149841,Wed Feb 12 2025 11:16:42 GMT-0600 (Central Standard Time),963539.8999999985,A,a,O,a,450,1,466.3999999985099,963073.5,7052,WL,A,4.0
7,11.861999988555908,immed,48138.00001144409,Wed Feb 12 2025 11:16:42 GMT-0600 (Central Standard Time),964023.1000000015,A,ap,O,p,463,1,949.6000000014901,963073.5,7052,WL,A,4.0
7,12.01199984550476,immed,47988.00015449524,Wed Feb 12 2025 11:16:42 GMT-0600 (Central Standard Time),964172.799999997,A,app,O,p,141,1,1099.2999999970198,963073.5,7052,WL,A,4.0
7,12.194999933242798,immed,47805.0000667572,Wed Feb 12 2025 11:16:42 GMT-0600 (Central Standard Time),964356.299999997,A,appl,O,l,174,1,1282.7999999970198,963073.5,7052,WL,A,4.0
7,12.544999837875366,immed,47455.000162124634,Wed Feb 12 2025 11:16:42 GMT-0600 (Central Standard Time),964706.1999999955,A,apple,O,e,336,1,1632.6999999955297,963073.5,7052,WL,A,4.0
7,13.394999980926514,immed,46605.000019073486,Wed Feb 12 2025 11:16:42 GMT-0600 (Central Standard Time),965555.6999999955,A,appl,O,backspace,841,1,2482.1999999955297,963073.5,7052,WL,A,4.0
7,13.744999885559082,immed,46255.00011444092,Wed Feb 12 2025 11:16:42 GMT-0600 (Central Standard Time),965905.799999997,A,applenter,O,enter,327,1,2832.2999999970198,963073.5,7052,WL,A,4.0
7,14.960999965667725,immed,45039.000034332275,Wed Feb 12 2025 11:16:42 GMT-0600 (Central Standard Time),967122.0,A,a,O,a,1201,1,1215.6000000014901,965906.3999999985,7052,WL,A,5.0
7,15.394000053405762,immed,44605.99994659424,Wed Feb 12 2025 11:16:42 GMT-0600 (Central Standard Time),967555.299999997,A,ap,O,p,410,1,1648.8999999985099,965906.3999999985,7052,WL,A,5.0
7,15.526999950408936,immed,44473.000049591064,Wed Feb 12 2025 11:16:42 GMT-0600 (Central Standard Time),967688.6000000015,A,app,O,p,119,1,1782.2000000029802,965906.3999999985,7052,WL,A,5.0
7,15.726999998092651,immed,44273.00000190735,Wed Feb 12 2025 11:16:42 GMT-0600 (Central Standard Time),967888.5,A,appl,O,l,178,1,1982.1000000014901,965906.3999999985,7052,WL,A,5.0
7,15.92799997329712,immed,44072.00002670288,Wed Feb 12 2025 11:16:42 GMT-0600 (Central Standard Time),968088.6000000015,A,apple,O,e,186,1,2182.2000000029802,965906.3999999985,7052,WL,A,5.0
7,16.310999870300293,immed,43689.00012969971,Wed Feb 12 2025 11:16:42 GMT-0600 (Central Standard Time),968471.6000000015,A,appleenter,O,enter,371,1,2565.2000000029802,965906.3999999985,7052,WL,A,5.0
7,16.793999910354614,immed,43206.000089645386,Wed Feb 12 2025 11:16:42 GMT-0600 (Central Standard Time),968955.3999999985,A,f,O,f,476,1,483.5,968471.8999999985,7052,WL,A,6.0
7,17.15999984741211,immed,42840.00015258789,Wed Feb 12 2025 11:16:42 GMT-0600 (Central Standard Time),969321.5,A,fi,O,i,352,1,849.6000000014901,968471.8999999985,7052,WL,A,6.0
7,17.39400005340576,immed,42605.99994659424,Wed Feb 12 2025 11:16:42 GMT-0600 (Central Standard Time),969554.6000000015,A,fin,O,n,210,1,1082.7000000029802,968471.8999999985,7052,WL,A,6.0
7,17.792999982833862,immed,42207.00001716614,Wed Feb 12 2025 11:16:42 GMT-0600 (Central Standard Time),969954.5,A,fing,O,g,392,1,1482.6000000014901,968471.8999999985,7052,WL,A,6.0
7,18.092999935150146,immed,41907.00006484985,Wed Feb 12 2025 11:16:42 GMT-0600 (Central Standard Time),970254.0,A,finge,O,e,281,1,1782.1000000014901,968471.8999999985,7052,WL,A,6.0
7,18.276000022888184,immed,41723.99997711182,Wed Feb 12 2025 11:16:42 GMT-0600 (Central Standard Time),970437.3999999985,A,finger,O,r,164,1,1965.5,968471.8999999985,7052,WL,A,6.0
7,18.70799994468689,immed,41292.00005531311,Wed Feb 12 2025 11:16:42 GMT-0600 (Central Standard Time),970869.1000000015,A,fingerenter,O,enter,278,1,2397.2000000029802,968471.8999999985,7052,WL,A,6.0
7,19.625999927520752,immed,40374.00007247925,Wed Feb 12 2025 11:16:42 GMT-0600 (Central Standard Time),971786.799999997,A,s,O,s,907,1,917.3999999985099,970869.3999999985,7052,WL,A,7.0
7,19.875999927520752,immed,40124.00007247925,Wed Feb 12 2025 11:16:42 GMT-0600 (Central Standard Time),972036.8999999985,A,sa,O,a,232,1,1167.5,970869.3999999985,7052,WL,A,7.0
7,20.04200005531311,immed,39957.99994468689,Wed Feb 12 2025 11:16:42 GMT-0600 (Central Standard Time),972203.3999999985,A,sal,O,l,150,1,1334.0,970869.3999999985,7052,WL,A,7.0
7,20.441999912261963,immed,39558.00008773804,Wed Feb 12 2025 11:16:42 GMT-0600 (Central Standard Time),972603.299999997,A,salt,O,t,383,1,1733.8999999985099,970869.3999999985,7052,WL,A,7.0
7,20.658999919891357,immed,39341.00008010864,Wed Feb 12 2025 11:16:42 GMT-0600 (Central Standard Time),972819.8999999985,A,saltenter,O,enter,199,1,1950.5,970869.3999999985,7052,WL,A,7.0
7,21.22499990463257,immed,38775.00009536743,Wed Feb 12 2025 11:16:42 GMT-0600 (Central Standard Time),973386.3999999985,A,h,O,h,559,1,566.2000000029802,972820.1999999955,7052,WL,A,8.0
7,21.491999864578247,immed,38508.00013542175,Wed Feb 12 2025 11:16:42 GMT-0600 (Central Standard Time),973653.0,A,ha,O,a,256,1,832.8000000044703,972820.1999999955,7052,WL,A,8.0
7,21.858999967575073,immed,38141.00003242493,Wed Feb 12 2025 11:16:42 GMT-0600 (Central Standard Time),974019.6000000015,A,har,O,r,358,1,1199.4000000059605,972820.1999999955,7052,WL,A,8.0
7,22.10800004005432,immed,37891.99995994568,Wed Feb 12 2025 11:16:42 GMT-0600 (Central Standard Time),974269.3999999985,A,harp,O,p,239,1,1449.2000000029802,972820.1999999955,7052,WL,A,8.0
7,22.825000047683716,immed,37174.999952316284,Wed Feb 12 2025 11:16:42 GMT-0600 (Central Standard Time),974985.8999999985,A,harpenter,O,enter,702,1,2165.7000000029802,972820.1999999955,7052,WL,A,8.0
7,23.657999992370605,immed,36342.000007629395,Wed Feb 12 2025 11:16:42 GMT-0600 (Central Standard Time),975818.8999999985,A,g,O,g,817,1,832.7999999970198,974986.1000000015,7052,WL,A,9.0
7,23.87399983406067,immed,36126.00016593933,Wed Feb 12 2025 11:16:42 GMT-0600 (Central Standard Time),976035.5,A,go,O,o,208,1,1049.3999999985099,974986.1000000015,7052,WL,A,9.0
7,24.075000047683716,immed,35924.999952316284,Wed Feb 12 2025 11:16:42 GMT-0600 (Central Standard Time),976235.5,A,gol,O,l,183,1,1249.3999999985099,974986.1000000015,7052,WL,A,9.0
7,24.37399983406067,immed,35626.00016593933,Wed Feb 12 2025 11:16:42 GMT-0600 (Central Standard Time),976535.1999999955,A,gold,O,d,279,1,1549.0999999940395,974986.1000000015,7052,WL,A,9.0
7,24.62399983406067,immed,35376.00016593933,Wed Feb 12 2025 11:16:42 GMT-0600 (Central Standard Time),976785.3999999985,A,goldenter,O,enter,235,1,1799.2999999970198,974986.1000000015,7052,WL,A,9.0
7,25.723999977111816,immed,34276.00002288818,Wed Feb 12 2025 11:16:42 GMT-0600 (Central Standard Time),977884.8999999985,A,b,O,b,1089,1,1099.2999999970198,976785.6000000015,7052,WL,A,10.0
7,26.0239999294281,immed,33976.0000705719,Wed Feb 12 2025 11:16:42 GMT-0600 (Central Standard Time),978184.799999997,A,bu,O,u,278,1,1399.1999999955297,976785.6000000015,7052,WL,A,10.0
7,26.306999921798706,immed,33693.000078201294,Wed Feb 12 2025 11:16:42 GMT-0600 (Central Standard Time),978468.1000000015,A,but,O,t,266,1,1682.5,976785.6000000015,7052,WL,A,10.0
7,26.473999977111816,immed,33526.00002288818,Wed Feb 12 2025 11:16:42 GMT-0600 (Central Standard Time),978634.6999999955,A,butt,O,t,159,1,1849.0999999940395,976785.6000000015,7052,WL,A,10.0
7,26.639999866485596,immed,33360.000133514404,Wed Feb 12 2025 11:16:42 GMT-0600 (Central Standard Time),978801.299999997,A,butto,O,o,144,1,2015.6999999955297,976785.6000000015,7052,WL,A,10.0
7,26.924000024795532,immed,33075.99997520447,Wed Feb 12 2025 11:16:42 GMT-0600 (Central Standard Time),979084.5,A,button,O,n,265,1,2298.89999999851,976785.6000000015,7052,WL,A,10.0
7,27.33999991416931,immed,32660.00008583069,Wed Feb 12 2025 11:16:42 GMT-0600 (Central Standard Time),979501.1999999955,A,buttonenter,O,enter,398,1,2715.5999999940395,976785.6000000015,7052,WL,A,10.0
7,27.740000009536743,immed,32259.999990463257,Wed Feb 12 2025 11:16:42 GMT-0600 (Central Standard Time),979901.0,A,l,O,l,389,1,399.5,979501.5,7052,WL,A,11.0
7,27.973000049591064,immed,32026.999950408936,Wed Feb 12 2025 11:16:42 GMT-0600 (Central Standard Time),980134.299999997,A,lo,O,o,221,1,632.7999999970198,979501.5,7052,WL,A,11.0
7,28.33999991416931,immed,31660.00008583069,Wed Feb 12 2025 11:16:42 GMT-0600 (Central Standard Time),980500.799999997,A,log,O,g,356,1,999.2999999970198,979501.5,7052,WL,A,11.0
7,28.572999954223633,immed,31427.000045776367,Wed Feb 12 2025 11:16:42 GMT-0600 (Central Standard Time),980734.1000000015,A,logenter,O,enter,214,1,1232.6000000014901,979501.5,7052,WL,A,11.0
7,31.605000019073486,immed,28394.999980926514,Wed Feb 12 2025 11:16:42 GMT-0600 (Central Standard Time),983766.3999999985,A,k,O,k,3021,1,3032.10000000149,980734.299999997,7052,WL,A,12.0
7,31.938999891281128,immed,28061.000108718872,Wed Feb 12 2025 11:16:42 GMT-0600 (Central Standard Time),984099.6999999955,A,ke,O,e,316,1,3365.39999999851,980734.299999997,7052,WL,A,12.0
7,32.30499982833862,immed,27695.000171661377,Wed Feb 12 2025 11:16:42 GMT-0600 (Central Standard Time),984466.3999999985,A,key,O,y,359,1,3732.10000000149,980734.299999997,7052,WL,A,12.0
7,32.88800001144409,immed,27111.99998855591,Wed Feb 12 2025 11:16:42 GMT-0600 (Central Standard Time),985049.299999997,A,keyenter,O,enter,569,1,4315.0,980734.299999997,7052,WL,A,12.0
