acc_sum,block,block_c,change,condition,correct,correct_response,datetime,endtime,face,project,response,response_time,row_sel,session_number,start_end,starttime,subject_id,task,task_vers,trial
0,prac,1,,1-Back,,,Fri Sep 13 2024 11:34:25 GMT-0500 (Central Daylight Time),,124_o_f_d_a.png,I,space,11953,1,1,,,8002,VNB,A,0
1,prac,1,0.0,1-Back,1,m,Fri Sep 13 2024 11:34:25 GMT-0500 (Central Daylight Time),147315.1000000015,071_y_f_n_a.png,I,m,1160,2,1,1955.0,145360.1000000015,8002,VNB,A,1
2,prac,1,0.0,1-Back,1,m,Fri Sep 13 2024 11:34:25 GMT-0500 (Central Daylight Time),149381.0,165_m_m_h_a.png,I,m,1252,3,1,2057.2999999970198,147323.70000000298,8002,VNB,A,2
3,prac,1,0.0,1-Back,1,m,Fri Sep 13 2024 11:34:25 GMT-0500 (Central Daylight Time),151280.3999999985,109_y_m_d_a.png,I,m,1087,4,1,1891.7999999970198,149388.6000000015,8002,VNB,A,3
4,prac,1,0.0,1-Back,1,m,Fri Sep 13 2024 11:34:25 GMT-0500 (Central Daylight Time),153096.6000000015,124_o_f_n_a.png,I,m,978,5,1,1808.8999999985099,151287.70000000298,8002,VNB,A,4
5,prac,1,1.0,1-Back,1,z,Fri Sep 13 2024 11:34:25 GMT-0500 (Central Daylight Time),154813.70000000298,109_y_m_n_a.png,I,z,923,6,1,1709.9000000059605,153103.79999999702,8002,VNB,A,5
6,prac,1,0.0,1-Back,1,m,Fri Sep 13 2024 11:34:25 GMT-0500 (Central Daylight Time),156695.1000000015,039_o_m_h_a.png,I,m,1077,7,1,1873.8999999985099,154821.20000000298,8002,VNB,A,6
7,prac,1,0.0,1-Back,1,m,Fri Sep 13 2024 11:34:25 GMT-0500 (Central Daylight Time),158444.79999999702,139_m_f_d_a.png,I,m,946,8,1,1742.2999999970198,156702.5,8002,VNB,A,7
8,prac,1,1.0,1-Back,1,z,Fri Sep 13 2024 11:34:25 GMT-0500 (Central Daylight Time),159977.70000000298,071_y_f_d_a.png,I,z,718,9,1,1525.5,158452.20000000298,8002,VNB,A,8
9,prac,1,0.0,1-Back,1,m,Fri Sep 13 2024 11:34:25 GMT-0500 (Central Daylight Time),161502.6000000015,165_m_m_n_a.png,I,m,687,10,1,1517.3000000044703,159985.29999999702,8002,VNB,A,9
10,prac,1,0.0,1-Back,1,m,Fri Sep 13 2024 11:34:25 GMT-0500 (Central Daylight Time),163943.29999999702,124_o_f_h_a.png,I,m,1590,11,1,2429.89999999851,161513.3999999985,8002,VNB,A,10
11,prac,1,0.0,1-Back,1,m,Fri Sep 13 2024 11:34:25 GMT-0500 (Central Daylight Time),165792.3999999985,109_y_m_d_a.png,I,m,1059,12,1,1841.3999999985099,163951.0,8002,VNB,A,11
0,test,1,0.0,1-Back,,,Fri Sep 13 2024 11:34:25 GMT-0500 (Central Daylight Time),165792.3999999985,071_y_f_d_a.png,I,space,14912,1,1,1841.3999999985099,163951.0,8002,VNB,A,0
1,test,1,0.0,1-Back,1,m,Fri Sep 13 2024 11:34:25 GMT-0500 (Central Daylight Time),191068.8999999985,139_m_f_n_a.png,I,m,782,2,1,1792.8999999985099,189276.0,8002,VNB,A,1
2,test,1,0.0,1-Back,1,m,Fri Sep 13 2024 11:34:25 GMT-0500 (Central Daylight Time),193117.20000000298,039_o_m_h_a.png,I,m,1022,3,1,2040.8000000044703,191076.3999999985,8002,VNB,A,2
3,test,1,1.0,1-Back,1,z,Fri Sep 13 2024 11:34:25 GMT-0500 (Central Daylight Time),194883.29999999702,165_m_m_h_a.png,I,z,741,4,1,1760.0999999940395,193123.20000000298,8002,VNB,A,3
4,test,1,0.0,1-Back,1,m,Fri Sep 13 2024 11:34:25 GMT-0500 (Central Daylight Time),196749.3999999985,124_o_f_n_a.png,I,m,839,5,1,1858.7999999970198,194890.6000000015,8002,VNB,A,4
5,test,1,0.0,1-Back,1,m,Fri Sep 13 2024 11:34:25 GMT-0500 (Central Daylight Time),198982.0,109_y_m_d_a.png,I,m,1205,6,1,2226.2999999970198,196755.70000000298,8002,VNB,A,5
6,test,1,1.0,1-Back,1,z,Fri Sep 13 2024 11:34:25 GMT-0500 (Central Daylight Time),200898.0,139_m_f_d_a.png,I,z,892,7,1,1909.7000000029802,198988.29999999702,8002,VNB,A,6
7,test,1,0.0,1-Back,1,m,Fri Sep 13 2024 11:34:25 GMT-0500 (Central Daylight Time),202731.0,071_y_f_h_a.png,I,m,808,8,1,1826.7000000029802,200904.29999999702,8002,VNB,A,7
8,test,1,0.0,1-Back,1,m,Fri Sep 13 2024 11:34:25 GMT-0500 (Central Daylight Time),205013.29999999702,039_o_m_n_a.png,I,m,1255,9,1,2275.1999999955297,202738.1000000015,8002,VNB,A,8
9,test,1,0.0,1-Back,1,m,Fri Sep 13 2024 11:34:25 GMT-0500 (Central Daylight Time),207329.3999999985,109_y_m_h_a.png,I,m,1293,10,1,2309.0,205020.3999999985,8002,VNB,A,9
10,test,1,0.0,1-Back,1,m,Fri Sep 13 2024 11:34:25 GMT-0500 (Central Daylight Time),209712.1000000015,039_o_m_d_a.png,I,m,1260,11,1,2376.3000000044703,207335.79999999702,8002,VNB,A,10
11,test,1,1.0,1-Back,1,z,Fri Sep 13 2024 11:34:25 GMT-0500 (Central Daylight Time),211277.8999999985,124_o_f_d_a.png,I,z,547,12,1,1558.8999999985099,209719.0,8002,VNB,A,11
12,test,1,0.0,1-Back,1,m,Fri Sep 13 2024 11:34:25 GMT-0500 (Central Daylight Time),213127.5,165_m_m_n_a.png,I,m,820,13,1,1843.2000000029802,211284.29999999702,8002,VNB,A,12
13,test,1,1.0,1-Back,1,z,Fri Sep 13 2024 11:34:25 GMT-0500 (Central Daylight Time),215093.70000000298,071_y_f_n_a.png,I,z,947,14,1,1959.8000000044703,213133.8999999985,8002,VNB,A,13
14,test,1,0.0,1-Back,1,m,Fri Sep 13 2024 11:34:25 GMT-0500 (Central Daylight Time),217276.3999999985,139_m_f_h_a.png,I,m,1157,15,1,2176.0,215100.3999999985,8002,VNB,A,14
15,test,1,0.0,1-Back,1,m,Fri Sep 13 2024 11:34:25 GMT-0500 (Central Daylight Time),219275.5,165_m_m_d_a.png,I,m,981,16,1,1992.7000000029802,217282.79999999702,8002,VNB,A,15
16,test,1,0.0,1-Back,1,m,Fri Sep 13 2024 11:34:25 GMT-0500 (Central Daylight Time),221075.29999999702,109_y_m_n_a.png,I,m,783,17,1,1793.1999999955297,219282.1000000015,8002,VNB,A,16
17,test,1,0.0,1-Back,1,m,Fri Sep 13 2024 11:34:25 GMT-0500 (Central Daylight Time),223274.3999999985,124_o_f_h_a.png,I,m,1176,18,1,2192.10000000149,221082.29999999702,8002,VNB,A,17
0,test,2,0.0,1-Back,,,Fri Sep 13 2024 11:34:25 GMT-0500 (Central Daylight Time),223274.3999999985,109_y_m_n_a.png,I,space,2063,1,1,2192.10000000149,221082.29999999702,8002,VNB,A,0
1,test,2,0.0,1-Back,1,m,Fri Sep 13 2024 11:34:25 GMT-0500 (Central Daylight Time),229489.1000000015,071_y_f_h_a.png,I,m,1102,2,1,2126.10000000149,227363.0,8002,VNB,A,1
2,test,2,1.0,1-Back,1,m,Fri Sep 13 2024 11:34:25 GMT-0500 (Central Daylight Time),231788.3999999985,039_o_m_n_a.png,I,m,1273,3,1,2292.7999999970198,229495.6000000015,8002,VNB,A,2
3,test,2,0.0,1-Back,1,m,Fri Sep 13 2024 11:34:25 GMT-0500 (Central Daylight Time),233771.1000000015,139_m_f_d_a.png,I,m,958,4,1,1975.7000000029802,231795.3999999985,8002,VNB,A,3
4,test,2,0.0,1-Back,1,z,Fri Sep 13 2024 11:34:25 GMT-0500 (Central Daylight Time),235405.0,165_m_m_d_a.png,I,z,615,5,1,1627.7999999970198,233777.20000000298,8002,VNB,A,4
5,test,2,0.0,1-Back,1,m,Fri Sep 13 2024 11:34:25 GMT-0500 (Central Daylight Time),237086.79999999702,109_y_m_h_a.png,I,m,663,6,1,1675.0999999940395,235411.70000000298,8002,VNB,A,5
5,test,2,1.0,1-Back,0,z,Fri Sep 13 2024 11:34:25 GMT-0500 (Central Daylight Time),238652.79999999702,124_o_f_h_a.png,I,m,540,7,1,1558.7999999970198,237094.0,8002,VNB,A,6
6,test,2,0.0,1-Back,1,m,Fri Sep 13 2024 11:34:25 GMT-0500 (Central Daylight Time),241052.20000000298,139_m_f_n_a.png,I,m,1381,8,1,2392.8000000044703,238659.3999999985,8002,VNB,A,7
7,test,2,0.0,1-Back,1,m,Fri Sep 13 2024 11:34:25 GMT-0500 (Central Daylight Time),242918.20000000298,071_y_f_d_a.png,I,m,838,9,1,1859.8000000044703,241058.3999999985,8002,VNB,A,8
8,test,2,0.0,1-Back,1,m,Fri Sep 13 2024 11:34:25 GMT-0500 (Central Daylight Time),244867.70000000298,165_m_m_n_a.png,I,m,916,10,1,1942.4000000059605,242925.29999999702,8002,VNB,A,9
9,test,2,1.0,1-Back,1,m,Fri Sep 13 2024 11:34:25 GMT-0500 (Central Daylight Time),247033.5,139_m_f_h_a.png,I,m,1142,11,1,2159.10000000149,244874.3999999985,8002,VNB,A,10
10,test,2,0.0,1-Back,1,z,Fri Sep 13 2024 11:34:25 GMT-0500 (Central Daylight Time),248850.1000000015,039_o_m_h_a.png,I,z,785,12,1,1809.8999999985099,247040.20000000298,8002,VNB,A,11
11,test,2,0.0,1-Back,1,m,Fri Sep 13 2024 11:34:25 GMT-0500 (Central Daylight Time),250666.1000000015,109_y_m_d_a.png,I,m,792,13,1,1810.3000000044703,248855.79999999702,8002,VNB,A,12
12,test,2,0.0,1-Back,1,m,Fri Sep 13 2024 11:34:25 GMT-0500 (Central Daylight Time),252831.70000000298,124_o_f_n_a.png,I,m,1137,14,1,2159.10000000149,250672.6000000015,8002,VNB,A,13
13,test,2,0.0,1-Back,1,z,Fri Sep 13 2024 11:34:25 GMT-0500 (Central Daylight Time),254897.8999999985,071_y_f_n_a.png,I,z,1042,15,1,2059.5,252838.3999999985,8002,VNB,A,14
14,test,2,1.0,1-Back,1,m,Fri Sep 13 2024 11:34:25 GMT-0500 (Central Daylight Time),256998.29999999702,165_m_m_h_a.png,I,m,1081,16,1,2093.89999999851,254904.3999999985,8002,VNB,A,15
15,test,2,0.0,1-Back,1,m,Fri Sep 13 2024 11:34:25 GMT-0500 (Central Daylight Time),259129.5,124_o_f_d_a.png,I,m,1109,17,1,2124.7999999970198,257004.70000000298,8002,VNB,A,16
16,test,2,1.0,1-Back,1,z,Fri Sep 13 2024 11:34:25 GMT-0500 (Central Daylight Time),260979.20000000298,039_o_m_d_a.png,I,z,832,18,1,1843.2000000029802,259136.0,8002,VNB,A,17
0,test,3,1.0,1-Back,,,Fri Sep 13 2024 11:34:25 GMT-0500 (Central Daylight Time),260979.20000000298,124_o_f_h_a.png,I,space,2478,1,1,1843.2000000029802,259136.0,8002,VNB,A,0
1,test,3,0.0,1-Back,1,m,Fri Sep 13 2024 11:34:25 GMT-0500 (Central Daylight Time),267510.3999999985,139_m_f_d_a.png,I,m,979,2,1,1993.1000000014901,265517.299999997,8002,VNB,A,1
2,test,3,1.0,1-Back,1,m,Fri Sep 13 2024 11:34:25 GMT-0500 (Central Daylight Time),269343.1000000015,165_m_m_n_a.png,I,m,812,3,1,1825.8000000044703,267517.299999997,8002,VNB,A,2
3,test,3,0.0,1-Back,1,z,Fri Sep 13 2024 11:34:25 GMT-0500 (Central Daylight Time),271225.799999997,124_o_f_n_a.png,I,z,850,4,1,1875.8999999985099,269349.8999999985,8002,VNB,A,3
4,test,3,1.0,1-Back,1,m,Fri Sep 13 2024 11:34:25 GMT-0500 (Central Daylight Time),273242.0,039_o_m_d_a.png,I,m,984,5,1,2009.0,271233.0,8002,VNB,A,4
5,test,3,0.0,1-Back,1,m,Fri Sep 13 2024 11:34:25 GMT-0500 (Central Daylight Time),275108.0,071_y_f_h_a.png,I,m,839,6,1,1859.2999999970198,273248.700000003,8002,VNB,A,5
6,test,3,0.0,1-Back,1,z,Fri Sep 13 2024 11:34:25 GMT-0500 (Central Daylight Time),276940.799999997,109_y_m_h_a.png,I,z,814,7,1,1826.2999999970198,275114.5,8002,VNB,A,6
7,test,3,0.0,1-Back,1,m,Fri Sep 13 2024 11:34:25 GMT-0500 (Central Daylight Time),278906.799999997,139_m_f_n_a.png,I,m,941,8,1,1959.0999999940395,276947.700000003,8002,VNB,A,7
8,test,3,0.0,1-Back,1,m,Fri Sep 13 2024 11:34:25 GMT-0500 (Central Daylight Time),281206.200000003,071_y_f_d_a.png,I,m,1138,9,1,2157.3000000044703,279048.8999999985,8002,VNB,A,8
9,test,3,1.0,1-Back,1,m,Fri Sep 13 2024 11:34:25 GMT-0500 (Central Daylight Time),283155.299999997,039_o_m_n_a.png,I,m,932,10,1,1942.5999999940395,281212.700000003,8002,VNB,A,9
10,test,3,0.0,1-Back,1,m,Fri Sep 13 2024 11:34:25 GMT-0500 (Central Daylight Time),285772.700000003,165_m_m_h_a.png,I,m,1599,11,1,2610.2000000029802,283162.5,8002,VNB,A,10
11,test,3,0.0,1-Back,1,z,Fri Sep 13 2024 11:34:25 GMT-0500 (Central Daylight Time),287370.8999999985,139_m_f_h_a.png,I,z,567,12,1,1591.7999999970198,285779.1000000015,8002,VNB,A,11
12,test,3,1.0,1-Back,1,m,Fri Sep 13 2024 11:34:25 GMT-0500 (Central Daylight Time),289186.6000000015,124_o_f_d_a.png,I,m,790,13,1,1809.2000000029802,287377.3999999985,8002,VNB,A,12
13,test,3,0.0,1-Back,1,z,Fri Sep 13 2024 11:34:25 GMT-0500 (Central Daylight Time),291119.799999997,165_m_m_d_a.png,I,z,911,14,1,1926.2999999970198,289193.5,8002,VNB,A,13
14,test,3,0.0,1-Back,1,m,Fri Sep 13 2024 11:34:25 GMT-0500 (Central Daylight Time),293419.0,109_y_m_n_a.png,I,m,1282,15,1,2293.0,291126.0,8002,VNB,A,14
15,test,3,1.0,1-Back,1,m,Fri Sep 13 2024 11:34:25 GMT-0500 (Central Daylight Time),296018.200000003,039_o_m_h_a.png,I,m,1575,16,1,2592.9000000059605,293425.299999997,8002,VNB,A,15
16,test,3,0.0,1-Back,1,m,Fri Sep 13 2024 11:34:25 GMT-0500 (Central Daylight Time),298018.700000003,109_y_m_d_a.png,I,m,976,17,1,1993.9000000059605,296024.799999997,8002,VNB,A,16
17,test,3,1.0,1-Back,1,m,Fri Sep 13 2024 11:34:25 GMT-0500 (Central Daylight Time),300083.3999999985,071_y_f_n_a.png,I,m,1049,18,1,2058.10000000149,298025.299999997,8002,VNB,A,17
0,test,4,1.0,1-Back,,,Fri Sep 13 2024 11:34:25 GMT-0500 (Central Daylight Time),300083.3999999985,165_m_m_d_a.png,I,space,1374,1,1,2058.10000000149,298025.299999997,8002,VNB,A,0
1,test,4,0.0,1-Back,1,z,Fri Sep 13 2024 11:34:25 GMT-0500 (Central Daylight Time),305398.5,039_o_m_d_a.png,I,z,862,2,1,1876.1000000014901,303522.3999999985,8002,VNB,A,1
2,test,4,0.0,1-Back,1,m,Fri Sep 13 2024 11:34:25 GMT-0500 (Central Daylight Time),307181.6000000015,109_y_m_h_a.png,I,m,755,3,1,1776.8000000044703,305404.799999997,8002,VNB,A,2
3,test,4,0.0,1-Back,1,m,Fri Sep 13 2024 11:34:25 GMT-0500 (Central Daylight Time),309430.8999999985,139_m_f_n_a.png,I,m,1229,4,1,2243.1999999955297,307187.700000003,8002,VNB,A,3
4,test,4,1.0,1-Back,1,m,Fri Sep 13 2024 11:34:25 GMT-0500 (Central Daylight Time),311863.200000003,124_o_f_h_a.png,I,m,1404,5,1,2425.5,309437.700000003,8002,VNB,A,4
5,test,4,0.0,1-Back,1,m,Fri Sep 13 2024 11:34:25 GMT-0500 (Central Daylight Time),313712.700000003,165_m_m_n_a.png,I,m,819,6,1,1843.6000000014901,311869.1000000015,8002,VNB,A,5
6,test,4,0.0,1-Back,1,m,Fri Sep 13 2024 11:34:25 GMT-0500 (Central Daylight Time),315695.5,109_y_m_d_a.png,I,m,954,7,1,1976.7999999970198,313718.700000003,8002,VNB,A,6
7,test,4,1.0,1-Back,1,z,Fri Sep 13 2024 11:34:25 GMT-0500 (Central Daylight Time),317311.6000000015,071_y_f_d_a.png,I,z,587,8,1,1609.3999999985099,315702.200000003,8002,VNB,A,7
8,test,4,0.0,1-Back,1,m,Fri Sep 13 2024 11:34:25 GMT-0500 (Central Daylight Time),319161.0,139_m_f_h_a.png,I,m,817,9,1,1842.7999999970198,317318.200000003,8002,VNB,A,8
9,test,4,0.0,1-Back,1,z,Fri Sep 13 2024 11:34:25 GMT-0500 (Central Daylight Time),321027.1000000015,039_o_m_h_a.png,I,z,833,10,1,1859.2000000029802,319167.8999999985,8002,VNB,A,9
10,test,4,1.0,1-Back,1,m,Fri Sep 13 2024 11:34:25 GMT-0500 (Central Daylight Time),322776.6000000015,124_o_f_n_a.png,I,m,727,11,1,1742.2000000029802,321034.3999999985,8002,VNB,A,10
11,test,4,0.0,1-Back,1,m,Fri Sep 13 2024 11:34:25 GMT-0500 (Central Daylight Time),324775.799999997,139_m_f_d_a.png,I,m,968,12,1,1992.6999999955297,322783.1000000015,8002,VNB,A,11
12,test,4,0.0,1-Back,1,m,Fri Sep 13 2024 11:34:25 GMT-0500 (Central Daylight Time),327408.5,071_y_f_n_a.png,I,m,1610,13,1,2626.2999999970198,324782.200000003,8002,VNB,A,12
13,test,4,0.0,1-Back,1,m,Fri Sep 13 2024 11:34:25 GMT-0500 (Central Daylight Time),329207.700000003,124_o_f_d_a.png,I,m,778,14,1,1792.2000000029802,327415.5,8002,VNB,A,13
14,test,4,0.0,1-Back,1,m,Fri Sep 13 2024 11:34:25 GMT-0500 (Central Daylight Time),331257.3999999985,071_y_f_h_a.png,I,m,1027,15,1,2043.2999999970198,329214.1000000015,8002,VNB,A,14
15,test,4,1.0,1-Back,1,z,Fri Sep 13 2024 11:34:25 GMT-0500 (Central Daylight Time),332857.799999997,165_m_m_h_a.png,I,z,577,16,1,1594.0,331263.799999997,8002,VNB,A,15
16,test,4,0.0,1-Back,1,m,Fri Sep 13 2024 11:34:25 GMT-0500 (Central Daylight Time),334706.299999997,039_o_m_n_a.png,I,m,826,17,1,1842.1999999955297,332864.1000000015,8002,VNB,A,16
17,test,4,1.0,1-Back,1,z,Fri Sep 13 2024 11:34:25 GMT-0500 (Central Daylight Time),336522.200000003,109_y_m_n_a.png,I,z,784,18,1,1809.4000000059605,334712.799999997,8002,VNB,A,17
0,test,5,1.0,1-Back,,,Fri Sep 13 2024 11:34:25 GMT-0500 (Central Daylight Time),336522.200000003,039_o_m_n_a.png,I,space,1472,1,1,1809.4000000059605,334712.799999997,8002,VNB,A,0
1,test,5,1.0,1-Back,1,m,Fri Sep 13 2024 11:34:25 GMT-0500 (Central Daylight Time),341903.799999997,124_o_f_h_a.png,I,m,862,2,1,1875.3999999985099,340028.3999999985,8002,VNB,A,1
2,test,5,0.0,1-Back,1,m,Fri Sep 13 2024 11:34:25 GMT-0500 (Central Daylight Time),343703.299999997,109_y_m_d_a.png,I,m,779,3,1,1792.8999999985099,341910.3999999985,8002,VNB,A,2
3,test,5,0.0,1-Back,1,z,Fri Sep 13 2024 11:34:25 GMT-0500 (Central Daylight Time),345287.299999997,039_o_m_d_a.png,I,z,555,4,1,1577.6999999955297,343709.6000000015,8002,VNB,A,3
4,test,5,0.0,1-Back,1,m,Fri Sep 13 2024 11:34:25 GMT-0500 (Central Daylight Time),346869.0,139_m_f_h_a.png,I,m,556,5,1,1574.2999999970198,345294.700000003,8002,VNB,A,4
5,test,5,0.0,1-Back,1,m,Fri Sep 13 2024 11:34:25 GMT-0500 (Central Daylight Time),348801.700000003,071_y_f_n_a.png,I,m,910,6,1,1923.2000000029802,346878.5,8002,VNB,A,5
6,test,5,1.0,1-Back,1,z,Fri Sep 13 2024 11:34:25 GMT-0500 (Central Daylight Time),350717.8999999985,124_o_f_n_a.png,I,z,885,7,1,1909.1000000014901,348808.799999997,8002,VNB,A,6
7,test,5,0.0,1-Back,1,m,Fri Sep 13 2024 11:34:25 GMT-0500 (Central Daylight Time),352467.299999997,139_m_f_d_a.png,I,m,724,8,1,1743.1999999955297,350724.1000000015,8002,VNB,A,7
8,test,5,0.0,1-Back,1,m,Fri Sep 13 2024 11:34:25 GMT-0500 (Central Daylight Time),354683.0,109_y_m_h_a.png,I,m,1183,9,1,2209.2000000029802,352473.799999997,8002,VNB,A,8
9,test,5,0.0,1-Back,1,m,Fri Sep 13 2024 11:34:25 GMT-0500 (Central Daylight Time),357032.299999997,071_y_f_d_a.png,I,m,1319,10,1,2342.5999999940395,354689.700000003,8002,VNB,A,9
10,test,5,0.0,1-Back,1,m,Fri Sep 13 2024 11:34:25 GMT-0500 (Central Daylight Time),359048.5,165_m_m_n_a.png,I,m,994,11,1,2008.7999999970198,357039.700000003,8002,VNB,A,10
11,test,5,1.0,1-Back,1,z,Fri Sep 13 2024 11:34:25 GMT-0500 (Central Daylight Time),360981.1000000015,139_m_f_n_a.png,I,z,906,12,1,1926.3999999985099,359054.700000003,8002,VNB,A,11
12,test,5,0.0,1-Back,1,m,Fri Sep 13 2024 11:34:25 GMT-0500 (Central Daylight Time),362813.799999997,039_o_m_h_a.png,I,m,805,13,1,1826.0999999940395,360987.700000003,8002,VNB,A,12
13,test,5,0.0,1-Back,1,z,Fri Sep 13 2024 11:34:25 GMT-0500 (Central Daylight Time),364630.1000000015,165_m_m_h_a.png,I,z,788,14,1,1809.0,362821.1000000015,8002,VNB,A,13
14,test,5,1.0,1-Back,1,m,Fri Sep 13 2024 11:34:25 GMT-0500 (Central Daylight Time),366546.0,124_o_f_d_a.png,I,m,884,15,1,1909.5,364636.5,8002,VNB,A,14
15,test,5,0.0,1-Back,1,m,Fri Sep 13 2024 11:34:25 GMT-0500 (Central Daylight Time),368262.200000003,109_y_m_n_a.png,I,m,688,16,1,1709.2000000029802,366553.0,8002,VNB,A,15
16,test,5,0.0,1-Back,1,m,Fri Sep 13 2024 11:34:25 GMT-0500 (Central Daylight Time),370145.1000000015,071_y_f_h_a.png,I,m,860,17,1,1876.7000000029802,368268.3999999985,8002,VNB,A,16
17,test,5,0.0,1-Back,1,m,Fri Sep 13 2024 11:34:25 GMT-0500 (Central Daylight Time),371927.8999999985,165_m_m_d_a.png,I,m,753,18,1,1775.5,370152.3999999985,8002,VNB,A,17
0,prac,1,0.0,2-Back,,,Fri Sep 13 2024 11:34:25 GMT-0500 (Central Daylight Time),371927.8999999985,139_m_f_n_a.png,I,space,10079,1,1,1775.5,370152.3999999985,8002,VNB,A,0
0,prac,1,0.0,2-Back,,,Fri Sep 13 2024 11:34:25 GMT-0500 (Central Daylight Time),371927.8999999985,124_o_f_h_a.png,I,space,10079,2,1,1775.5,370152.3999999985,8002,VNB,A,0
1,prac,1,0.0,2-Back,1,m,Fri Sep 13 2024 11:34:25 GMT-0500 (Central Daylight Time),475445.3999999985,039_o_m_d_a.png,I,m,991,3,1,1792.6999999955297,473652.700000003,8002,VNB,A,1
1,prac,1,1.0,2-Back,0,z,Fri Sep 13 2024 11:34:25 GMT-0500 (Central Daylight Time),478061.200000003,165_m_m_h_a.png,I,m,1804,4,1,2608.2000000029802,475453.0,8002,VNB,A,2
1,prac,1,0.0,2-Back,0,m,Fri Sep 13 2024 11:34:25 GMT-0500 (Central Daylight Time),480877.0,071_y_f_n_a.png,I,None,2014,5,1,2808.10000000149,478068.8999999985,8002,VNB,A,3
1,prac,1,1.0,2-Back,0,z,Fri Sep 13 2024 11:34:25 GMT-0500 (Central Daylight Time),483542.8999999985,039_o_m_h_a.png,I,m,1853,6,1,2657.39999999851,480885.5,8002,VNB,A,4
1,prac,1,1.0,2-Back,0,z,Fri Sep 13 2024 11:34:25 GMT-0500 (Central Daylight Time),486359.6000000015,109_y_m_n_a.png,I,None,2010,7,1,2808.60000000149,483551.0,8002,VNB,A,5
1,prac,1,0.0,2-Back,0,m,Fri Sep 13 2024 11:34:25 GMT-0500 (Central Daylight Time),489174.5,139_m_f_d_a.png,I,None,2015,8,1,2807.10000000149,486367.3999999985,8002,VNB,A,6
1,prac,1,0.0,2-Back,0,m,Fri Sep 13 2024 11:34:25 GMT-0500 (Central Daylight Time),492006.6000000015,124_o_f_d_a.png,I,None,2001,9,1,2824.10000000149,489182.5,8002,VNB,A,7
2,prac,1,0.0,2-Back,1,m,Fri Sep 13 2024 11:34:25 GMT-0500 (Central Daylight Time),493906.200000003,165_m_m_h_a.png,I,m,1116,10,1,1891.6000000014901,492014.6000000015,8002,VNB,A,8
3,prac,1,1.0,2-Back,1,z,Fri Sep 13 2024 11:34:25 GMT-0500 (Central Daylight Time),495639.1000000015,071_y_f_d_a.png,I,z,920,11,1,1725.5,493913.6000000015,8002,VNB,A,9
4,prac,1,0.0,2-Back,1,m,Fri Sep 13 2024 11:34:25 GMT-0500 (Central Daylight Time),497655.1000000015,039_o_m_n_a.png,I,m,1204,12,1,2008.3000000044703,495646.799999997,8002,VNB,A,10
0,prac,2,0.0,2-Back,,,Fri Sep 13 2024 11:34:25 GMT-0500 (Central Daylight Time),497655.1000000015,139_m_f_n_a.png,I,a,3872,1,1,2008.3000000044703,495646.799999997,8002,VNB,A,0
0,prac,2,0.0,2-Back,,,Fri Sep 13 2024 11:34:25 GMT-0500 (Central Daylight Time),497655.1000000015,124_o_f_h_a.png,I,a,3872,2,1,2008.3000000044703,495646.799999997,8002,VNB,A,0
1,prac,2,0.0,2-Back,1,m,Fri Sep 13 2024 11:34:25 GMT-0500 (Central Daylight Time),508518.3999999985,039_o_m_d_a.png,I,m,1072,3,1,1875.6000000014901,506642.799999997,8002,VNB,A,1
2,prac,2,1.0,2-Back,1,z,Fri Sep 13 2024 11:34:25 GMT-0500 (Central Daylight Time),510584.5,165_m_m_h_a.png,I,z,1277,4,1,2058.7000000029802,508525.799999997,8002,VNB,A,2
3,prac,2,0.0,2-Back,1,m,Fri Sep 13 2024 11:34:25 GMT-0500 (Central Daylight Time),512867.1000000015,071_y_f_n_a.png,I,m,1481,5,1,2275.0,510592.1000000015,8002,VNB,A,3
4,prac,2,1.0,2-Back,1,z,Fri Sep 13 2024 11:34:25 GMT-0500 (Central Daylight Time),514496.6000000015,039_o_m_h_a.png,I,z,784,6,1,1621.8000000044703,512874.799999997,8002,VNB,A,4
4,prac,2,1.0,2-Back,0,z,Fri Sep 13 2024 11:34:25 GMT-0500 (Central Daylight Time),516232.6000000015,109_y_m_n_a.png,I,m,916,7,1,1728.3000000044703,514504.299999997,8002,VNB,A,5
5,prac,2,0.0,2-Back,1,m,Fri Sep 13 2024 11:34:25 GMT-0500 (Central Daylight Time),517882.3999999985,139_m_f_d_a.png,I,m,841,8,1,1642.3999999985099,516240.0,8002,VNB,A,6
6,prac,2,0.0,2-Back,1,m,Fri Sep 13 2024 11:34:25 GMT-0500 (Central Daylight Time),520282.299999997,124_o_f_d_a.png,I,m,1560,9,1,2391.5999999940395,517890.700000003,8002,VNB,A,7
7,prac,2,0.0,2-Back,1,m,Fri Sep 13 2024 11:34:25 GMT-0500 (Central Daylight Time),522664.0,165_m_m_h_a.png,I,m,1593,10,1,2374.10000000149,520289.8999999985,8002,VNB,A,8
8,prac,2,1.0,2-Back,1,z,Fri Sep 13 2024 11:34:25 GMT-0500 (Central Daylight Time),524196.8999999985,071_y_f_d_a.png,I,z,722,11,1,1525.2999999970198,522671.6000000015,8002,VNB,A,9
9,prac,2,0.0,2-Back,1,m,Fri Sep 13 2024 11:34:25 GMT-0500 (Central Daylight Time),526596.1000000015,039_o_m_n_a.png,I,m,1598,12,1,2391.7000000029802,524204.3999999985,8002,VNB,A,10
0,test,1,0.0,2-Back,,,Fri Sep 13 2024 11:34:25 GMT-0500 (Central Daylight Time),526596.1000000015,109_y_m_h_a.png,I,space,17007,1,1,2391.7000000029802,524204.3999999985,8002,VNB,A,0
0,test,1,0.0,2-Back,,,Fri Sep 13 2024 11:34:25 GMT-0500 (Central Daylight Time),526596.1000000015,124_o_f_n_a.png,I,space,17007,2,1,2391.7000000029802,524204.3999999985,8002,VNB,A,0
1,test,1,0.0,2-Back,1,z,Fri Sep 13 2024 11:34:25 GMT-0500 (Central Daylight Time),556153.3999999985,039_o_m_h_a.png,I,z,718,3,1,1742.2999999970198,554411.1000000015,8002,VNB,A,1
2,test,1,0.0,2-Back,1,m,Fri Sep 13 2024 11:34:25 GMT-0500 (Central Daylight Time),558486.1000000015,139_m_f_d_a.png,I,m,1305,4,1,2326.0,556160.1000000015,8002,VNB,A,2
2,test,1,1.0,2-Back,0,m,Fri Sep 13 2024 11:34:25 GMT-0500 (Central Daylight Time),561566.299999997,109_y_m_n_a.png,I,None,2062,5,1,3073.6999999955297,558492.6000000015,8002,VNB,A,3
3,test,1,0.0,2-Back,1,z,Fri Sep 13 2024 11:34:25 GMT-0500 (Central Daylight Time),563617.799999997,071_y_f_d_a.png,I,z,1018,6,1,2041.6999999955297,561576.1000000015,8002,VNB,A,4
4,test,1,0.0,2-Back,1,m,Fri Sep 13 2024 11:34:25 GMT-0500 (Central Daylight Time),566033.6000000015,165_m_m_h_a.png,I,m,1393,7,1,2409.10000000149,563624.5,8002,VNB,A,5
5,test,1,1.0,2-Back,1,m,Fri Sep 13 2024 11:34:25 GMT-0500 (Central Daylight Time),568382.8999999985,071_y_f_n_a.png,I,m,1321,8,1,2342.39999999851,566040.5,8002,VNB,A,6
6,test,1,0.0,2-Back,1,z,Fri Sep 13 2024 11:34:25 GMT-0500 (Central Daylight Time),570365.3999999985,124_o_f_h_a.png,I,z,955,9,1,1975.1999999955297,568390.200000003,8002,VNB,A,7
7,test,1,0.0,2-Back,1,m,Fri Sep 13 2024 11:34:25 GMT-0500 (Central Daylight Time),572531.299999997,039_o_m_d_a.png,I,m,1149,10,1,2158.5999999940395,570372.700000003,8002,VNB,A,8
8,test,1,1.0,2-Back,1,m,Fri Sep 13 2024 11:34:25 GMT-0500 (Central Daylight Time),574980.6000000015,165_m_m_d_a.png,I,m,1431,11,1,2441.39999999851,572539.200000003,8002,VNB,A,9
9,test,1,0.0,2-Back,1,m,Fri Sep 13 2024 11:34:25 GMT-0500 (Central Daylight Time),577546.6000000015,139_m_f_n_a.png,I,m,1541,12,1,2559.2000000029802,574987.3999999985,8002,VNB,A,10
10,test,1,0.0,2-Back,1,m,Fri Sep 13 2024 11:34:25 GMT-0500 (Central Daylight Time),580428.8999999985,071_y_f_h_a.png,I,m,1856,13,1,2874.7999999970198,577554.1000000015,8002,VNB,A,11
11,test,1,0.0,2-Back,1,z,Fri Sep 13 2024 11:34:25 GMT-0500 (Central Daylight Time),582195.1000000015,165_m_m_n_a.png,I,z,741,14,1,1759.3000000044703,580435.799999997,8002,VNB,A,12
12,test,1,0.0,2-Back,1,m,Fri Sep 13 2024 11:34:25 GMT-0500 (Central Daylight Time),584427.8999999985,109_y_m_d_a.png,I,m,1207,15,1,2226.1999999955297,582201.700000003,8002,VNB,A,13
13,test,1,1.0,2-Back,1,m,Fri Sep 13 2024 11:34:25 GMT-0500 (Central Daylight Time),587278.1000000015,139_m_f_h_a.png,I,m,1830,16,1,2843.39999999851,584434.700000003,8002,VNB,A,14
14,test,1,0.0,2-Back,1,z,Fri Sep 13 2024 11:34:25 GMT-0500 (Central Daylight Time),589626.200000003,124_o_f_d_a.png,I,z,1326,17,1,2341.0,587285.200000003,8002,VNB,A,15
15,test,1,0.0,2-Back,1,m,Fri Sep 13 2024 11:34:25 GMT-0500 (Central Daylight Time),592358.5,039_o_m_n_a.png,I,m,1712,18,1,2725.39999999851,589633.1000000015,8002,VNB,A,16
0,test,2,0.0,2-Back,,,Fri Sep 13 2024 11:34:25 GMT-0500 (Central Daylight Time),592358.5,165_m_m_h_a.png,I,space,1955,1,1,2725.39999999851,589633.1000000015,8002,VNB,A,0
0,test,2,0.0,2-Back,,,Fri Sep 13 2024 11:34:25 GMT-0500 (Central Daylight Time),592358.5,071_y_f_n_a.png,I,space,1955,2,1,2725.39999999851,589633.1000000015,8002,VNB,A,0
1,test,2,1.0,2-Back,1,z,Fri Sep 13 2024 11:34:25 GMT-0500 (Central Daylight Time),600989.200000003,124_o_f_h_a.png,I,z,564,3,1,1576.6000000014901,599412.6000000015,8002,VNB,A,1
2,test,2,0.0,2-Back,1,m,Fri Sep 13 2024 11:34:25 GMT-0500 (Central Daylight Time),603088.700000003,039_o_m_d_a.png,I,m,1069,4,1,2092.7000000029802,600996.0,8002,VNB,A,2
3,test,2,0.0,2-Back,1,m,Fri Sep 13 2024 11:34:25 GMT-0500 (Central Daylight Time),605804.5,139_m_f_d_a.png,I,m,1690,5,1,2709.7000000029802,603094.799999997,8002,VNB,A,3
4,test,2,0.0,2-Back,1,m,Fri Sep 13 2024 11:34:25 GMT-0500 (Central Daylight Time),608470.3999999985,109_y_m_h_a.png,I,m,1646,6,1,2658.89999999851,605811.5,8002,VNB,A,4
5,test,2,0.0,2-Back,1,m,Fri Sep 13 2024 11:34:25 GMT-0500 (Central Daylight Time),610836.0,124_o_f_n_a.png,I,m,1340,7,1,2359.10000000149,608476.8999999985,8002,VNB,A,5
6,test,2,1.0,2-Back,1,z,Fri Sep 13 2024 11:34:25 GMT-0500 (Central Daylight Time),612419.0,039_o_m_h_a.png,I,z,550,8,1,1576.3999999985099,610842.6000000015,8002,VNB,A,6
7,test,2,0.0,2-Back,1,m,Fri Sep 13 2024 11:34:25 GMT-0500 (Central Daylight Time),614501.6000000015,071_y_f_d_a.png,I,m,1063,9,1,2075.89999999851,612425.700000003,8002,VNB,A,7
8,test,2,0.0,2-Back,1,m,Fri Sep 13 2024 11:34:25 GMT-0500 (Central Daylight Time),617167.3999999985,109_y_m_d_a.png,I,m,1645,10,1,2659.1999999955297,614508.200000003,8002,VNB,A,8
8,test,2,0.0,2-Back,0,m,Fri Sep 13 2024 11:34:25 GMT-0500 (Central Daylight Time),620200.1000000015,165_m_m_n_a.png,I,None,2016,11,1,3025.89999999851,617174.200000003,8002,VNB,A,9
9,test,2,0.0,2-Back,1,m,Fri Sep 13 2024 11:34:25 GMT-0500 (Central Daylight Time),623215.6000000015,139_m_f_h_a.png,I,m,1987,12,1,3008.7000000029802,620206.8999999985,8002,VNB,A,10
9,test,2,1.0,2-Back,0,z,Fri Sep 13 2024 11:34:25 GMT-0500 (Central Daylight Time),626248.0,039_o_m_n_a.png,I,None,2016,13,1,3025.39999999851,623222.6000000015,8002,VNB,A,11
9,test,2,0.0,2-Back,0,m,Fri Sep 13 2024 11:34:25 GMT-0500 (Central Daylight Time),629280.299999997,124_o_f_d_a.png,I,None,2016,14,1,3025.0,626255.299999997,8002,VNB,A,12
10,test,2,0.0,2-Back,1,m,Fri Sep 13 2024 11:34:25 GMT-0500 (Central Daylight Time),631863.1000000015,071_y_f_h_a.png,I,m,1554,15,1,2575.5,629287.6000000015,8002,VNB,A,13
11,test,2,0.0,2-Back,1,z,Fri Sep 13 2024 11:34:25 GMT-0500 (Central Daylight Time),633995.6000000015,165_m_m_d_a.png,I,z,1107,16,1,2125.89999999851,631869.700000003,8002,VNB,A,14
11,test,2,0.0,2-Back,0,m,Fri Sep 13 2024 11:34:25 GMT-0500 (Central Daylight Time),637027.799999997,109_y_m_n_a.png,I,None,2016,17,1,3025.39999999851,634002.3999999985,8002,VNB,A,15
12,test,2,1.0,2-Back,1,m,Fri Sep 13 2024 11:34:25 GMT-0500 (Central Daylight Time),639543.8999999985,139_m_f_n_a.png,I,m,1486,18,1,2509.39999999851,637034.5,8002,VNB,A,16
0,test,3,1.0,2-Back,,,Fri Sep 13 2024 11:34:25 GMT-0500 (Central Daylight Time),639543.8999999985,039_o_m_n_a.png,I,space,22954,1,1,2509.39999999851,637034.5,8002,VNB,A,0
0,test,3,1.0,2-Back,,,Fri Sep 13 2024 11:34:25 GMT-0500 (Central Daylight Time),639543.8999999985,124_o_f_d_a.png,I,space,22954,2,1,2509.39999999851,637034.5,8002,VNB,A,0
1,test,3,0.0,2-Back,1,m,Fri Sep 13 2024 11:34:25 GMT-0500 (Central Daylight Time),669667.5,071_y_f_h_a.png,I,m,1032,3,1,2042.7000000029802,667624.799999997,8002,VNB,A,1
2,test,3,0.0,2-Back,1,z,Fri Sep 13 2024 11:34:25 GMT-0500 (Central Daylight Time),671850.3999999985,139_m_f_d_a.png,I,z,1159,4,1,2175.5,669674.8999999985,8002,VNB,A,2
3,test,3,1.0,2-Back,1,m,Fri Sep 13 2024 11:34:25 GMT-0500 (Central Daylight Time),674449.3999999985,109_y_m_n_a.png,I,m,1576,5,1,2592.2999999970198,671857.1000000015,8002,VNB,A,3
3,test,3,0.0,2-Back,0,m,Fri Sep 13 2024 11:34:25 GMT-0500 (Central Daylight Time),676065.700000003,039_o_m_h_a.png,I,z,593,6,1,1609.4000000059605,674456.299999997,8002,VNB,A,4
4,test,3,0.0,2-Back,1,z,Fri Sep 13 2024 11:34:25 GMT-0500 (Central Daylight Time),677966.299999997,071_y_f_n_a.png,I,z,881,7,1,1893.8999999985099,676072.3999999985,8002,VNB,A,5
5,test,3,1.0,2-Back,1,m,Fri Sep 13 2024 11:34:25 GMT-0500 (Central Daylight Time),680281.0,165_m_m_d_a.png,I,m,1285,8,1,2307.89999999851,677973.1000000015,8002,VNB,A,6
6,test,3,0.0,2-Back,1,m,Fri Sep 13 2024 11:34:25 GMT-0500 (Central Daylight Time),683130.1000000015,109_y_m_d_a.png,I,m,1817,9,1,2841.89999999851,680288.200000003,8002,VNB,A,7
6,test,3,0.0,2-Back,0,m,Fri Sep 13 2024 11:34:25 GMT-0500 (Central Daylight Time),686163.299999997,124_o_f_h_a.png,I,None,2016,10,1,3026.5,683136.799999997,8002,VNB,A,8
7,test,3,1.0,2-Back,1,m,Fri Sep 13 2024 11:34:25 GMT-0500 (Central Daylight Time),688078.6000000015,139_m_f_n_a.png,I,m,887,11,1,1907.6000000014901,686171.0,8002,VNB,A,9
8,test,3,1.0,2-Back,1,z,Fri Sep 13 2024 11:34:25 GMT-0500 (Central Daylight Time),689912.6000000015,165_m_m_h_a.png,I,z,812,12,1,1827.3999999985099,688085.200000003,8002,VNB,A,10
9,test,3,0.0,2-Back,1,m,Fri Sep 13 2024 11:34:25 GMT-0500 (Central Daylight Time),691827.299999997,071_y_f_d_a.png,I,m,899,13,1,1907.5999999940395,689919.700000003,8002,VNB,A,11
10,test,3,0.0,2-Back,1,m,Fri Sep 13 2024 11:34:25 GMT-0500 (Central Daylight Time),694393.5,124_o_f_n_a.png,I,m,1535,14,1,2559.10000000149,691834.3999999985,8002,VNB,A,12
11,test,3,0.0,2-Back,1,z,Fri Sep 13 2024 11:34:25 GMT-0500 (Central Daylight Time),695892.799999997,039_o_m_d_a.png,I,z,473,15,1,1492.5999999940395,694400.200000003,8002,VNB,A,13
12,test,3,1.0,2-Back,1,m,Fri Sep 13 2024 11:34:25 GMT-0500 (Central Daylight Time),698408.700000003,139_m_f_h_a.png,I,m,1486,16,1,2509.10000000149,695899.6000000015,8002,VNB,A,14
12,test,3,0.0,2-Back,0,m,Fri Sep 13 2024 11:34:25 GMT-0500 (Central Daylight Time),701441.700000003,165_m_m_n_a.png,I,None,2016,17,1,3026.7000000029802,698415.0,8002,VNB,A,15
13,test,3,0.0,2-Back,1,z,Fri Sep 13 2024 11:34:25 GMT-0500 (Central Daylight Time),703924.799999997,109_y_m_h_a.png,I,z,1465,18,1,2476.5999999940395,701448.200000003,8002,VNB,A,16
0,test,4,0.0,2-Back,,,Fri Sep 13 2024 11:34:25 GMT-0500 (Central Daylight Time),703924.799999997,139_m_f_n_a.png,I,space,1158,1,1,2476.5999999940395,701448.200000003,8002,VNB,A,0
0,test,4,0.0,2-Back,,,Fri Sep 13 2024 11:34:25 GMT-0500 (Central Daylight Time),703924.799999997,039_o_m_n_a.png,I,space,1158,2,1,2476.5999999940395,701448.200000003,8002,VNB,A,0
1,test,4,1.0,2-Back,1,m,Fri Sep 13 2024 11:34:25 GMT-0500 (Central Daylight Time),712054.3999999985,109_y_m_h_a.png,I,m,855,3,1,1876.2999999970198,710178.1000000015,8002,VNB,A,1
2,test,4,1.0,2-Back,1,m,Fri Sep 13 2024 11:34:25 GMT-0500 (Central Daylight Time),714187.1000000015,124_o_f_d_a.png,I,m,1100,4,1,2126.10000000149,712061.0,8002,VNB,A,2
3,test,4,0.0,2-Back,1,z,Fri Sep 13 2024 11:34:25 GMT-0500 (Central Daylight Time),715786.6000000015,039_o_m_h_a.png,I,z,567,5,1,1592.8000000044703,714193.799999997,8002,VNB,A,3
4,test,4,0.0,2-Back,1,m,Fri Sep 13 2024 11:34:25 GMT-0500 (Central Daylight Time),718285.8999999985,165_m_m_n_a.png,I,m,1472,6,1,2492.89999999851,715793.0,8002,VNB,A,4
4,test,4,0.0,2-Back,0,m,Fri Sep 13 2024 11:34:25 GMT-0500 (Central Daylight Time),721318.700000003,139_m_f_d_a.png,I,None,2016,7,1,3025.60000000149,718293.1000000015,8002,VNB,A,5
5,test,4,0.0,2-Back,1,z,Fri Sep 13 2024 11:34:25 GMT-0500 (Central Daylight Time),723883.799999997,071_y_f_n_a.png,I,z,1548,8,1,2558.0,721325.799999997,8002,VNB,A,6
6,test,4,1.0,2-Back,1,m,Fri Sep 13 2024 11:34:25 GMT-0500 (Central Daylight Time),725816.700000003,124_o_f_h_a.png,I,m,910,9,1,1925.5,723891.200000003,8002,VNB,A,7
6,test,4,0.0,2-Back,0,m,Fri Sep 13 2024 11:34:25 GMT-0500 (Central Daylight Time),728283.0,165_m_m_h_a.png,I,z,1434,10,1,2459.0,725824.0,8002,VNB,A,8
7,test,4,0.0,2-Back,1,m,Fri Sep 13 2024 11:34:25 GMT-0500 (Central Daylight Time),730398.700000003,071_y_f_d_a.png,I,m,1096,11,1,2109.0,728289.700000003,8002,VNB,A,9
8,test,4,0.0,2-Back,1,m,Fri Sep 13 2024 11:34:25 GMT-0500 (Central Daylight Time),732631.200000003,109_y_m_n_a.png,I,m,1212,12,1,2225.60000000149,730405.6000000015,8002,VNB,A,10
9,test,4,0.0,2-Back,1,z,Fri Sep 13 2024 11:34:25 GMT-0500 (Central Daylight Time),734347.3999999985,039_o_m_d_a.png,I,z,691,13,1,1709.1999999955297,732638.200000003,8002,VNB,A,11
10,test,4,1.0,2-Back,1,m,Fri Sep 13 2024 11:34:25 GMT-0500 (Central Daylight Time),736363.5,139_m_f_h_a.png,I,m,991,14,1,2009.2999999970198,734354.200000003,8002,VNB,A,12
10,test,4,1.0,2-Back,0,m,Fri Sep 13 2024 11:34:25 GMT-0500 (Central Daylight Time),739396.3999999985,071_y_f_h_a.png,I,None,2016,15,1,3025.60000000149,736370.799999997,8002,VNB,A,13
11,test,4,0.0,2-Back,1,m,Fri Sep 13 2024 11:34:25 GMT-0500 (Central Daylight Time),742211.8999999985,124_o_f_n_a.png,I,m,1783,16,1,2809.39999999851,739402.5,8002,VNB,A,14
12,test,4,0.0,2-Back,1,m,Fri Sep 13 2024 11:34:25 GMT-0500 (Central Daylight Time),745210.799999997,109_y_m_d_a.png,I,m,1974,17,1,2992.5999999940395,742218.200000003,8002,VNB,A,15
13,test,4,1.0,2-Back,1,m,Fri Sep 13 2024 11:34:25 GMT-0500 (Central Daylight Time),747543.3999999985,165_m_m_d_a.png,I,m,1304,18,1,2324.89999999851,745218.5,8002,VNB,A,16
0,test,5,1.0,2-Back,,,Fri Sep 13 2024 11:34:25 GMT-0500 (Central Daylight Time),747543.3999999985,071_y_f_d_a.png,I,space,2027,1,1,2324.89999999851,745218.5,8002,VNB,A,0
0,test,5,1.0,2-Back,,,Fri Sep 13 2024 11:34:25 GMT-0500 (Central Daylight Time),747543.3999999985,124_o_f_h_a.png,I,space,2027,2,1,2324.89999999851,745218.5,8002,VNB,A,0
1,test,5,1.0,2-Back,1,z,Fri Sep 13 2024 11:34:25 GMT-0500 (Central Daylight Time),756740.3999999985,039_o_m_d_a.png,I,z,1057,3,1,2076.0,754664.3999999985,8002,VNB,A,1
2,test,5,1.0,2-Back,1,m,Fri Sep 13 2024 11:34:25 GMT-0500 (Central Daylight Time),758639.8999999985,139_m_f_n_a.png,I,m,870,4,1,1892.8999999985099,756747.0,8002,VNB,A,2
2,test,5,0.0,2-Back,0,m,Fri Sep 13 2024 11:34:25 GMT-0500 (Central Daylight Time),761672.700000003,165_m_m_h_a.png,I,None,2016,5,1,3026.10000000149,758646.6000000015,8002,VNB,A,3
3,test,5,0.0,2-Back,1,z,Fri Sep 13 2024 11:34:25 GMT-0500 (Central Daylight Time),763471.3999999985,071_y_f_n_a.png,I,z,778,6,1,1792.1999999955297,761679.200000003,8002,VNB,A,4
4,test,5,0.0,2-Back,1,m,Fri Sep 13 2024 11:34:25 GMT-0500 (Central Daylight Time),765521.1000000015,124_o_f_d_a.png,I,m,1018,7,1,2043.5,763477.6000000015,8002,VNB,A,5
5,test,5,0.0,2-Back,1,m,Fri Sep 13 2024 11:34:25 GMT-0500 (Central Daylight Time),767971.3999999985,039_o_m_h_a.png,I,m,1417,8,1,2443.60000000149,765527.799999997,8002,VNB,A,6
6,test,5,1.0,2-Back,1,z,Fri Sep 13 2024 11:34:25 GMT-0500 (Central Daylight Time),770119.6000000015,139_m_f_d_a.png,I,z,1128,9,1,2141.60000000149,767978.0,8002,VNB,A,7
7,test,5,0.0,2-Back,1,m,Fri Sep 13 2024 11:34:25 GMT-0500 (Central Daylight Time),772718.799999997,109_y_m_n_a.png,I,m,1571,10,1,2592.5,770126.299999997,8002,VNB,A,8
8,test,5,0.0,2-Back,1,m,Fri Sep 13 2024 11:34:25 GMT-0500 (Central Daylight Time),775434.799999997,165_m_m_n_a.png,I,m,1684,11,1,2709.1999999955297,772725.6000000015,8002,VNB,A,9
8,test,5,0.0,2-Back,0,m,Fri Sep 13 2024 11:34:25 GMT-0500 (Central Daylight Time),778467.3999999985,071_y_f_h_a.png,I,None,2016,12,1,3025.39999999851,775442.0,8002,VNB,A,10
9,test,5,0.0,2-Back,1,m,Fri Sep 13 2024 11:34:25 GMT-0500 (Central Daylight Time),780699.700000003,109_y_m_d_a.png,I,m,1207,13,1,2225.8000000044703,778473.8999999985,8002,VNB,A,11
10,test,5,1.0,2-Back,1,z,Fri Sep 13 2024 11:34:25 GMT-0500 (Central Daylight Time),782465.700000003,139_m_f_h_a.png,I,z,743,14,1,1758.3000000044703,780707.3999999985,8002,VNB,A,12
11,test,5,0.0,2-Back,1,m,Fri Sep 13 2024 11:34:25 GMT-0500 (Central Daylight Time),784731.6000000015,039_o_m_n_a.png,I,m,1249,15,1,2259.8000000044703,782471.799999997,8002,VNB,A,13
12,test,5,0.0,2-Back,1,m,Fri Sep 13 2024 11:34:25 GMT-0500 (Central Daylight Time),787114.1000000015,165_m_m_d_a.png,I,m,1359,16,1,2375.8000000044703,784738.299999997,8002,VNB,A,14
13,test,5,0.0,2-Back,1,z,Fri Sep 13 2024 11:34:25 GMT-0500 (Central Daylight Time),789280.1000000015,124_o_f_n_a.png,I,z,1136,17,1,2159.7000000029802,787120.3999999985,8002,VNB,A,15
14,test,5,1.0,2-Back,1,m,Fri Sep 13 2024 11:34:25 GMT-0500 (Central Daylight Time),791196.299999997,109_y_m_h_a.png,I,m,890,18,1,1909.5999999940395,789286.700000003,8002,VNB,A,16
