acc_sum,block,block_c,change,condition,correct,correct_response,datetime,endtime,face,project,response,response_time,row_sel,session_number,start_end,starttime,subject_id,task,task_vers,trial
0,prac,1,,1-Back,,,Wed Nov 06 2024 13:31:08 GMT-0600 (Central Standard Time),,005_o_f_d_a.png,I,space,10657,1,2,,,8002,VNB,B,0
1,prac,1,0.0,1-Back,1,m,Wed Nov 06 2024 13:31:08 GMT-0600 (Central Standard Time),203104.40000000596,020_y_f_n_a.png,I,m,1155,2,2,2022.7000000029802,201081.70000000298,8002,VNB,B,1
2,prac,1,0.0,1-Back,1,m,Wed Nov 06 2024 13:31:08 GMT-0600 (Central Standard Time),204853.90000000596,007_m_m_h_a.png,I,m,846,3,2,1742.9000000059605,203111.0,8002,VNB,B,2
3,prac,1,0.0,1-Back,1,m,Wed Nov 06 2024 13:31:08 GMT-0600 (Central Standard Time),206703.0,016_y_m_d_a.png,I,m,948,4,2,1843.7999999970198,204859.20000000298,8002,VNB,B,3
4,prac,1,0.0,1-Back,1,m,Wed Nov 06 2024 13:31:08 GMT-0600 (Central Standard Time),208802.80000000447,005_o_f_n_a.png,I,m,1209,5,2,2091.60000000149,206711.20000000298,8002,VNB,B,4
5,prac,1,1.0,1-Back,1,z,Wed Nov 06 2024 13:31:08 GMT-0600 (Central Standard Time),210385.40000000596,016_y_m_n_a.png,I,z,688,6,2,1577.3000000044703,208808.1000000015,8002,VNB,B,5
6,prac,1,0.0,1-Back,1,m,Wed Nov 06 2024 13:31:08 GMT-0600 (Central Standard Time),212368.20000000298,004_o_m_h_a.png,I,m,1109,7,2,1977.0,210391.20000000298,8002,VNB,B,6
7,prac,1,0.0,1-Back,1,m,Wed Nov 06 2024 13:31:08 GMT-0600 (Central Standard Time),213900.80000000447,011_m_f_d_a.png,I,m,641,8,2,1526.7000000029802,212374.1000000015,8002,VNB,B,7
8,prac,1,1.0,1-Back,1,z,Wed Nov 06 2024 13:31:08 GMT-0600 (Central Standard Time),215683.6000000015,020_y_f_d_a.png,I,z,909,9,2,1776.6999999955297,213906.90000000596,8002,VNB,B,8
9,prac,1,0.0,1-Back,1,m,Wed Nov 06 2024 13:31:08 GMT-0600 (Central Standard Time),217816.6000000015,007_m_m_n_a.png,I,m,1239,10,2,2127.1999999955297,215689.40000000596,8002,VNB,B,9
10,prac,1,0.0,1-Back,1,m,Wed Nov 06 2024 13:31:08 GMT-0600 (Central Standard Time),219699.40000000596,005_o_f_h_a.png,I,m,995,11,2,1877.8000000044703,217821.6000000015,8002,VNB,B,10
11,prac,1,0.0,1-Back,1,m,Wed Nov 06 2024 13:31:08 GMT-0600 (Central Standard Time),221365.30000000447,016_y_m_d_a.png,I,m,766,12,2,1660.3000000044703,219705.0,8002,VNB,B,11
0,test,1,0.0,1-Back,,,Wed Nov 06 2024 13:31:08 GMT-0600 (Central Standard Time),221365.30000000447,020_y_f_d_a.png,I,space,11907,1,2,1660.3000000044703,219705.0,8002,VNB,B,0
1,test,1,0.0,1-Back,1,m,Wed Nov 06 2024 13:31:08 GMT-0600 (Central Standard Time),244874.70000000298,011_m_f_n_a.png,I,m,974,2,2,1995.8999999985099,242878.80000000447,8002,VNB,B,1
2,test,1,0.0,1-Back,1,m,Wed Nov 06 2024 13:31:08 GMT-0600 (Central Standard Time),246640.80000000447,004_o_m_h_a.png,I,m,743,3,2,1762.5,244878.30000000447,8002,VNB,B,2
3,test,1,1.0,1-Back,1,z,Wed Nov 06 2024 13:31:08 GMT-0600 (Central Standard Time),248256.90000000596,007_m_m_h_a.png,I,z,593,4,2,1612.3000000044703,246644.6000000015,8002,VNB,B,3
4,test,1,0.0,1-Back,1,m,Wed Nov 06 2024 13:31:08 GMT-0600 (Central Standard Time),250023.1000000015,005_o_f_n_a.png,I,m,703,5,2,1762.6999999955297,248260.40000000596,8002,VNB,B,4
5,test,1,0.0,1-Back,1,m,Wed Nov 06 2024 13:31:08 GMT-0600 (Central Standard Time),251805.70000000298,016_y_m_d_a.png,I,m,721,6,2,1778.8999999985099,250026.80000000447,8002,VNB,B,5
6,test,1,1.0,1-Back,1,z,Wed Nov 06 2024 13:31:08 GMT-0600 (Central Standard Time),254055.0,011_m_f_d_a.png,I,z,1186,7,2,2245.39999999851,251809.6000000015,8002,VNB,B,6
7,test,1,0.0,1-Back,1,m,Wed Nov 06 2024 13:31:08 GMT-0600 (Central Standard Time),255937.6000000015,020_y_f_h_a.png,I,m,817,8,2,1879.1999999955297,254058.40000000596,8002,VNB,B,7
8,test,1,0.0,1-Back,1,m,Wed Nov 06 2024 13:31:08 GMT-0600 (Central Standard Time),257837.0,004_o_m_n_a.png,I,m,838,9,2,1895.5999999940395,255941.40000000596,8002,VNB,B,8
9,test,1,0.0,1-Back,1,m,Wed Nov 06 2024 13:31:08 GMT-0600 (Central Standard Time),259619.90000000596,016_y_m_h_a.png,I,m,731,10,2,1779.0,257840.90000000596,8002,VNB,B,9
10,test,1,0.0,1-Back,1,m,Wed Nov 06 2024 13:31:08 GMT-0600 (Central Standard Time),261386.1000000015,004_o_m_d_a.png,I,m,708,11,2,1762.3999999985099,259623.70000000298,8002,VNB,B,10
11,test,1,1.0,1-Back,1,z,Wed Nov 06 2024 13:31:08 GMT-0600 (Central Standard Time),263202.40000000596,005_o_f_d_a.png,I,z,750,12,2,1812.4000000059605,261390.0,8002,VNB,B,11
12,test,1,0.0,1-Back,1,m,Wed Nov 06 2024 13:31:08 GMT-0600 (Central Standard Time),265085.1000000015,007_m_m_n_a.png,I,m,830,13,2,1878.7999999970198,263206.30000000447,8002,VNB,B,12
13,test,1,1.0,1-Back,1,z,Wed Nov 06 2024 13:31:08 GMT-0600 (Central Standard Time),267867.0,020_y_f_n_a.png,I,z,1731,14,2,2778.1999999955297,265088.80000000447,8002,VNB,B,13
14,test,1,0.0,1-Back,1,m,Wed Nov 06 2024 13:31:08 GMT-0600 (Central Standard Time),269783.40000000596,011_m_f_h_a.png,I,m,853,15,2,1912.7000000029802,267870.700000003,8002,VNB,B,14
15,test,1,0.0,1-Back,1,m,Wed Nov 06 2024 13:31:08 GMT-0600 (Central Standard Time),271799.40000000596,007_m_m_d_a.png,I,m,952,16,2,2012.6000000014901,269786.80000000447,8002,VNB,B,15
16,test,1,0.0,1-Back,1,m,Wed Nov 06 2024 13:31:08 GMT-0600 (Central Standard Time),273782.1000000015,016_y_m_n_a.png,I,m,920,17,2,1978.6999999955297,271803.40000000596,8002,VNB,B,16
17,test,1,0.0,1-Back,1,m,Wed Nov 06 2024 13:31:08 GMT-0600 (Central Standard Time),275498.5,005_o_f_h_a.png,I,m,657,18,2,1712.5,273786.0,8002,VNB,B,17
0,test,2,0.0,1-Back,,,Wed Nov 06 2024 13:31:08 GMT-0600 (Central Standard Time),275498.5,016_y_m_n_a.png,I,space,2207,1,2,1712.5,273786.0,8002,VNB,B,0
1,test,2,0.0,1-Back,1,m,Wed Nov 06 2024 13:31:08 GMT-0600 (Central Standard Time),281629.80000000447,020_y_f_h_a.png,I,m,879,2,2,1895.5,279734.30000000447,8002,VNB,B,1
2,test,2,1.0,1-Back,1,m,Wed Nov 06 2024 13:31:08 GMT-0600 (Central Standard Time),283529.1000000015,004_o_m_n_a.png,I,m,875,3,2,1895.3999999985099,281633.700000003,8002,VNB,B,2
3,test,2,0.0,1-Back,1,m,Wed Nov 06 2024 13:31:08 GMT-0600 (Central Standard Time),285528.5,011_m_f_d_a.png,I,m,976,4,2,1995.2999999970198,283533.200000003,8002,VNB,B,3
4,test,2,0.0,1-Back,1,z,Wed Nov 06 2024 13:31:08 GMT-0600 (Central Standard Time),287361.40000000596,007_m_m_d_a.png,I,z,809,5,2,1828.7000000029802,285532.700000003,8002,VNB,B,4
5,test,2,0.0,1-Back,1,m,Wed Nov 06 2024 13:31:08 GMT-0600 (Central Standard Time),289027.30000000447,016_y_m_h_a.png,I,m,640,6,2,1662.7000000029802,287364.6000000015,8002,VNB,B,5
6,test,2,1.0,1-Back,1,z,Wed Nov 06 2024 13:31:08 GMT-0600 (Central Standard Time),290810.200000003,005_o_f_h_a.png,I,z,766,7,2,1779.2999999970198,289030.90000000596,8002,VNB,B,6
7,test,2,0.0,1-Back,1,m,Wed Nov 06 2024 13:31:08 GMT-0600 (Central Standard Time),292477.40000000596,011_m_f_n_a.png,I,m,639,8,2,1663.5,290813.90000000596,8002,VNB,B,7
8,test,2,0.0,1-Back,1,m,Wed Nov 06 2024 13:31:08 GMT-0600 (Central Standard Time),294792.1000000015,020_y_f_d_a.png,I,m,1284,9,2,2310.60000000149,292481.5,8002,VNB,B,8
9,test,2,0.0,1-Back,1,m,Wed Nov 06 2024 13:31:08 GMT-0600 (Central Standard Time),296608.30000000447,007_m_m_n_a.png,I,m,793,10,2,1812.3999999985099,294795.90000000596,8002,VNB,B,9
10,test,2,1.0,1-Back,1,m,Wed Nov 06 2024 13:31:08 GMT-0600 (Central Standard Time),298591.40000000596,011_m_f_h_a.png,I,m,953,11,2,1979.1000000014901,296612.30000000447,8002,VNB,B,10
11,test,2,0.0,1-Back,1,z,Wed Nov 06 2024 13:31:08 GMT-0600 (Central Standard Time),300107.1000000015,004_o_m_h_a.png,I,z,498,12,2,1512.3999999985099,298594.700000003,8002,VNB,B,11
12,test,2,0.0,1-Back,1,m,Wed Nov 06 2024 13:31:08 GMT-0600 (Central Standard Time),301673.6000000015,016_y_m_d_a.png,I,m,534,13,2,1563.2999999970198,300110.30000000447,8002,VNB,B,12
13,test,2,0.0,1-Back,1,m,Wed Nov 06 2024 13:31:08 GMT-0600 (Central Standard Time),303772.90000000596,005_o_f_n_a.png,I,m,1080,14,2,2095.60000000149,301677.30000000447,8002,VNB,B,13
14,test,2,0.0,1-Back,1,z,Wed Nov 06 2024 13:31:08 GMT-0600 (Central Standard Time),305655.5,020_y_f_n_a.png,I,z,853,15,2,1878.2999999970198,303777.200000003,8002,VNB,B,14
15,test,2,1.0,1-Back,1,m,Wed Nov 06 2024 13:31:08 GMT-0600 (Central Standard Time),307521.80000000447,007_m_m_h_a.png,I,m,834,16,2,1862.3000000044703,305659.5,8002,VNB,B,15
16,test,2,0.0,1-Back,1,m,Wed Nov 06 2024 13:31:08 GMT-0600 (Central Standard Time),309437.5,005_o_f_d_a.png,I,m,896,17,2,1911.8999999985099,307525.6000000015,8002,VNB,B,16
17,test,2,1.0,1-Back,1,z,Wed Nov 06 2024 13:31:08 GMT-0600 (Central Standard Time),311337.1000000015,004_o_m_d_a.png,I,z,868,18,2,1896.3999999985099,309440.700000003,8002,VNB,B,17
0,test,3,1.0,1-Back,,,Wed Nov 06 2024 13:31:08 GMT-0600 (Central Standard Time),311337.1000000015,005_o_f_h_a.png,I,space,4264,1,2,1896.3999999985099,309440.700000003,8002,VNB,B,0
1,test,3,0.0,1-Back,1,m,Wed Nov 06 2024 13:31:08 GMT-0600 (Central Standard Time),319401.1000000015,011_m_f_d_a.png,I,m,651,2,2,1678.8999999985099,317722.200000003,8002,VNB,B,1
2,test,3,1.0,1-Back,1,m,Wed Nov 06 2024 13:31:08 GMT-0600 (Central Standard Time),321400.6000000015,007_m_m_n_a.png,I,m,968,3,2,1995.3999999985099,319405.200000003,8002,VNB,B,2
3,test,3,0.0,1-Back,1,z,Wed Nov 06 2024 13:31:08 GMT-0600 (Central Standard Time),323216.700000003,005_o_f_n_a.png,I,z,785,4,2,1812.2000000029802,321404.5,8002,VNB,B,3
4,test,3,1.0,1-Back,1,m,Wed Nov 06 2024 13:31:08 GMT-0600 (Central Standard Time),324899.200000003,004_o_m_d_a.png,I,m,603,5,2,1678.5,323220.700000003,8002,VNB,B,4
5,test,3,0.0,1-Back,1,m,Wed Nov 06 2024 13:31:08 GMT-0600 (Central Standard Time),326698.90000000596,020_y_f_h_a.png,I,m,741,6,2,1796.4000000059605,324902.5,8002,VNB,B,5
6,test,3,0.0,1-Back,1,z,Wed Nov 06 2024 13:31:08 GMT-0600 (Central Standard Time),328398.30000000447,016_y_m_h_a.png,I,z,636,7,2,1695.7000000029802,326702.6000000015,8002,VNB,B,6
7,test,3,0.0,1-Back,1,m,Wed Nov 06 2024 13:31:08 GMT-0600 (Central Standard Time),330047.90000000596,011_m_f_n_a.png,I,m,586,8,2,1645.8000000044703,328402.1000000015,8002,VNB,B,7
8,test,3,0.0,1-Back,1,m,Wed Nov 06 2024 13:31:08 GMT-0600 (Central Standard Time),331981.700000003,020_y_f_d_a.png,I,m,880,9,2,1930.7000000029802,330051.0,8002,VNB,B,8
9,test,3,1.0,1-Back,1,m,Wed Nov 06 2024 13:31:08 GMT-0600 (Central Standard Time),333746.6000000015,004_o_m_n_a.png,I,m,708,10,2,1760.8999999985099,331985.700000003,8002,VNB,B,9
10,test,3,0.0,1-Back,1,m,Wed Nov 06 2024 13:31:08 GMT-0600 (Central Standard Time),335546.200000003,007_m_m_h_a.png,I,m,733,11,2,1794.7999999970198,333751.40000000596,8002,VNB,B,10
11,test,3,0.0,1-Back,1,z,Wed Nov 06 2024 13:31:08 GMT-0600 (Central Standard Time),337195.5,011_m_f_h_a.png,I,z,598,12,2,1645.0999999940395,335550.40000000596,8002,VNB,B,11
12,test,3,1.0,1-Back,1,m,Wed Nov 06 2024 13:31:08 GMT-0600 (Central Standard Time),338811.80000000447,005_o_f_d_a.png,I,m,564,13,2,1612.5,337199.30000000447,8002,VNB,B,12
13,test,3,0.0,1-Back,1,z,Wed Nov 06 2024 13:31:08 GMT-0600 (Central Standard Time),340594.5,007_m_m_d_a.png,I,z,732,14,2,1778.7999999970198,338815.700000003,8002,VNB,B,13
14,test,3,0.0,1-Back,1,m,Wed Nov 06 2024 13:31:08 GMT-0600 (Central Standard Time),342377.200000003,016_y_m_n_a.png,I,m,725,15,2,1778.8999999985099,340598.30000000447,8002,VNB,B,14
15,test,3,1.0,1-Back,1,m,Wed Nov 06 2024 13:31:08 GMT-0600 (Central Standard Time),344793.1000000015,004_o_m_h_a.png,I,m,1359,16,2,2412.10000000149,342381.0,8002,VNB,B,15
16,test,3,0.0,1-Back,1,m,Wed Nov 06 2024 13:31:08 GMT-0600 (Central Standard Time),346726.0,016_y_m_d_a.png,I,m,871,17,2,1929.5,344796.5,8002,VNB,B,16
17,test,3,1.0,1-Back,1,m,Wed Nov 06 2024 13:31:08 GMT-0600 (Central Standard Time),348508.80000000447,020_y_f_n_a.png,I,m,652,18,2,1779.0,346729.80000000447,8002,VNB,B,17
0,test,4,1.0,1-Back,,,Wed Nov 06 2024 13:31:08 GMT-0600 (Central Standard Time),348508.80000000447,007_m_m_d_a.png,I,space,1541,1,2,1779.0,346729.80000000447,8002,VNB,B,0
1,test,4,0.0,1-Back,1,z,Wed Nov 06 2024 13:31:08 GMT-0600 (Central Standard Time),354090.40000000596,004_o_m_d_a.png,I,z,991,2,2,2012.8000000044703,352077.6000000015,8002,VNB,B,1
2,test,4,0.0,1-Back,1,m,Wed Nov 06 2024 13:31:08 GMT-0600 (Central Standard Time),355889.90000000596,016_y_m_h_a.png,I,m,767,3,2,1795.8000000044703,354094.1000000015,8002,VNB,B,2
3,test,4,0.0,1-Back,1,m,Wed Nov 06 2024 13:31:08 GMT-0600 (Central Standard Time),357822.6000000015,011_m_f_n_a.png,I,m,870,4,2,1928.8999999985099,355893.700000003,8002,VNB,B,3
4,test,4,1.0,1-Back,1,m,Wed Nov 06 2024 13:31:08 GMT-0600 (Central Standard Time),359588.5,005_o_f_h_a.png,I,m,706,5,2,1762.1999999955297,357826.30000000447,8002,VNB,B,4
5,test,4,0.0,1-Back,1,m,Wed Nov 06 2024 13:31:08 GMT-0600 (Central Standard Time),361471.40000000596,007_m_m_n_a.png,I,m,819,6,2,1879.0,359592.40000000596,8002,VNB,B,5
6,test,4,0.0,1-Back,1,m,Wed Nov 06 2024 13:31:08 GMT-0600 (Central Standard Time),363471.0,016_y_m_d_a.png,I,m,937,7,2,1996.0999999940395,361474.90000000596,8002,VNB,B,6
7,test,4,1.0,1-Back,1,z,Wed Nov 06 2024 13:31:08 GMT-0600 (Central Standard Time),365187.0,020_y_f_d_a.png,I,z,657,8,2,1712.3999999985099,363474.6000000015,8002,VNB,B,7
8,test,4,0.0,1-Back,1,m,Wed Nov 06 2024 13:31:08 GMT-0600 (Central Standard Time),366936.30000000447,011_m_f_h_a.png,I,m,693,9,2,1746.0,365190.30000000447,8002,VNB,B,8
9,test,4,0.0,1-Back,1,z,Wed Nov 06 2024 13:31:08 GMT-0600 (Central Standard Time),368636.0,004_o_m_h_a.png,I,z,647,10,2,1695.5,366940.5,8002,VNB,B,9
10,test,4,1.0,1-Back,1,m,Wed Nov 06 2024 13:31:08 GMT-0600 (Central Standard Time),370452.0,005_o_f_n_a.png,I,m,731,11,2,1810.7999999970198,368641.200000003,8002,VNB,B,10
11,test,4,0.0,1-Back,1,m,Wed Nov 06 2024 13:31:08 GMT-0600 (Central Standard Time),372667.90000000596,011_m_f_d_a.png,I,m,1156,12,2,2212.3000000044703,370455.6000000015,8002,VNB,B,11
12,test,4,0.0,1-Back,1,m,Wed Nov 06 2024 13:31:08 GMT-0600 (Central Standard Time),374683.90000000596,020_y_f_n_a.png,I,m,963,13,2,2012.5,372671.40000000596,8002,VNB,B,12
13,test,4,0.0,1-Back,1,m,Wed Nov 06 2024 13:31:08 GMT-0600 (Central Standard Time),376483.30000000447,005_o_f_d_a.png,I,m,707,14,2,1795.5,374687.80000000447,8002,VNB,B,13
14,test,4,0.0,1-Back,1,m,Wed Nov 06 2024 13:31:08 GMT-0600 (Central Standard Time),378515.80000000447,020_y_f_h_a.png,I,m,981,15,2,2029.0,376486.80000000447,8002,VNB,B,14
15,test,4,1.0,1-Back,1,z,Wed Nov 06 2024 13:31:08 GMT-0600 (Central Standard Time),380165.40000000596,007_m_m_h_a.png,I,z,588,16,2,1645.7000000029802,378519.700000003,8002,VNB,B,15
16,test,4,0.0,1-Back,1,m,Wed Nov 06 2024 13:31:08 GMT-0600 (Central Standard Time),381948.40000000596,004_o_m_n_a.png,I,m,730,17,2,1779.1000000014901,380169.30000000447,8002,VNB,B,16
17,test,4,1.0,1-Back,1,z,Wed Nov 06 2024 13:31:08 GMT-0600 (Central Standard Time),383664.40000000596,016_y_m_n_a.png,I,z,660,18,2,1712.3000000044703,381952.1000000015,8002,VNB,B,17
0,test,5,1.0,1-Back,,,Wed Nov 06 2024 13:31:08 GMT-0600 (Central Standard Time),383664.40000000596,004_o_m_n_a.png,I,space,5809,1,2,1712.3000000044703,381952.1000000015,8002,VNB,B,0
1,test,5,1.0,1-Back,1,m,Wed Nov 06 2024 13:31:08 GMT-0600 (Central Standard Time),393278.1000000015,005_o_f_h_a.png,I,m,604,2,2,1695.1000000014901,391583.0,8002,VNB,B,1
2,test,5,0.0,1-Back,1,m,Wed Nov 06 2024 13:31:08 GMT-0600 (Central Standard Time),395046.0,016_y_m_d_a.png,I,m,714,3,2,1764.5999999940395,393281.40000000596,8002,VNB,B,2
3,test,5,0.0,1-Back,1,z,Wed Nov 06 2024 13:31:08 GMT-0600 (Central Standard Time),396960.200000003,004_o_m_d_a.png,I,z,843,4,2,1911.0,395049.200000003,8002,VNB,B,3
4,test,5,0.0,1-Back,1,m,Wed Nov 06 2024 13:31:08 GMT-0600 (Central Standard Time),398626.200000003,011_m_f_h_a.png,I,m,608,5,2,1661.8999999985099,396964.30000000447,8002,VNB,B,4
5,test,5,0.0,1-Back,1,m,Wed Nov 06 2024 13:31:08 GMT-0600 (Central Standard Time),400375.80000000447,020_y_f_n_a.png,I,m,685,6,2,1745.8999999985099,398629.90000000596,8002,VNB,B,5
6,test,5,1.0,1-Back,1,z,Wed Nov 06 2024 13:31:08 GMT-0600 (Central Standard Time),402193.700000003,005_o_f_n_a.png,I,z,785,7,2,1814.6000000014901,400379.1000000015,8002,VNB,B,6
7,test,5,0.0,1-Back,1,m,Wed Nov 06 2024 13:31:08 GMT-0600 (Central Standard Time),404024.700000003,011_m_f_d_a.png,I,m,768,8,2,1826.8999999985099,402197.80000000447,8002,VNB,B,7
8,test,5,0.0,1-Back,1,m,Wed Nov 06 2024 13:31:08 GMT-0600 (Central Standard Time),405940.700000003,016_y_m_h_a.png,I,m,855,9,2,1912.3999999985099,404028.30000000447,8002,VNB,B,8
9,test,5,0.0,1-Back,1,m,Wed Nov 06 2024 13:31:08 GMT-0600 (Central Standard Time),407540.200000003,020_y_f_d_a.png,I,m,539,10,2,1596.2000000029802,405944.0,8002,VNB,B,9
10,test,5,0.0,1-Back,1,m,Wed Nov 06 2024 13:31:08 GMT-0600 (Central Standard Time),409539.6000000015,007_m_m_n_a.png,I,m,914,11,2,1995.6999999955297,407543.90000000596,8002,VNB,B,10
11,test,5,1.0,1-Back,1,z,Wed Nov 06 2024 13:31:08 GMT-0600 (Central Standard Time),411572.200000003,011_m_f_n_a.png,I,z,981,12,2,2028.7000000029802,409543.5,8002,VNB,B,11
12,test,5,0.0,1-Back,1,m,Wed Nov 06 2024 13:31:08 GMT-0600 (Central Standard Time),413404.90000000596,004_o_m_h_a.png,I,m,780,13,2,1828.7000000029802,411576.200000003,8002,VNB,B,12
13,test,5,0.0,1-Back,1,z,Wed Nov 06 2024 13:31:08 GMT-0600 (Central Standard Time),415188.0,007_m_m_h_a.png,I,z,764,14,2,1780.1999999955297,413407.80000000447,8002,VNB,B,13
14,test,5,1.0,1-Back,1,m,Wed Nov 06 2024 13:31:08 GMT-0600 (Central Standard Time),416787.30000000447,005_o_f_d_a.png,I,m,540,15,2,1595.7000000029802,415191.6000000015,8002,VNB,B,14
15,test,5,0.0,1-Back,1,m,Wed Nov 06 2024 13:31:08 GMT-0600 (Central Standard Time),418512.80000000447,016_y_m_n_a.png,I,m,675,16,2,1722.3999999985099,416790.40000000596,8002,VNB,B,15
16,test,5,0.0,1-Back,1,m,Wed Nov 06 2024 13:31:08 GMT-0600 (Central Standard Time),420402.700000003,020_y_f_h_a.png,I,m,800,17,2,1886.0,418516.700000003,8002,VNB,B,16
17,test,5,0.0,1-Back,1,m,Wed Nov 06 2024 13:31:08 GMT-0600 (Central Standard Time),422052.30000000447,007_m_m_d_a.png,I,m,589,18,2,1646.3000000044703,420406.0,8002,VNB,B,17
0,prac,1,0.0,2-Back,,,Wed Nov 06 2024 13:31:08 GMT-0600 (Central Standard Time),422052.30000000447,011_m_f_n_a.png,I,space,8008,1,2,1646.3000000044703,420406.0,8002,VNB,B,0
0,prac,1,0.0,2-Back,,,Wed Nov 06 2024 13:31:08 GMT-0600 (Central Standard Time),422052.30000000447,005_o_f_h_a.png,I,space,8008,2,2,1646.3000000044703,420406.0,8002,VNB,B,0
0,prac,1,0.0,2-Back,0,m,Wed Nov 06 2024 13:31:08 GMT-0600 (Central Standard Time),558059.8000000045,004_o_m_d_a.png,I,z,1254,3,2,2110.3000000044703,555949.5,8002,VNB,B,1
0,prac,1,1.0,2-Back,0,z,Wed Nov 06 2024 13:31:08 GMT-0600 (Central Standard Time),560542.3000000045,007_m_m_h_a.png,I,m,1609,4,2,2477.3000000044703,558065.0,8002,VNB,B,2
0,prac,1,0.0,2-Back,0,m,Wed Nov 06 2024 13:31:08 GMT-0600 (Central Standard Time),563408.200000003,020_y_f_n_a.png,I,None,2003,5,2,2860.2000000029802,560548.0,8002,VNB,B,3
0,prac,1,1.0,2-Back,0,z,Wed Nov 06 2024 13:31:08 GMT-0600 (Central Standard Time),566257.3000000045,004_o_m_h_a.png,I,m,1988,6,2,2843.89999999851,563413.400000006,8002,VNB,B,4
1,prac,1,1.0,2-Back,1,z,Wed Nov 06 2024 13:31:08 GMT-0600 (Central Standard Time),568423.400000006,016_y_m_n_a.png,I,z,1273,7,2,2160.7000000029802,566262.700000003,8002,VNB,B,5
2,prac,1,0.0,2-Back,1,m,Wed Nov 06 2024 13:31:08 GMT-0600 (Central Standard Time),570189.200000003,011_m_f_d_a.png,I,m,883,8,2,1761.0,568428.200000003,8002,VNB,B,6
3,prac,1,0.0,2-Back,1,m,Wed Nov 06 2024 13:31:08 GMT-0600 (Central Standard Time),572571.900000006,005_o_f_d_a.png,I,m,1493,9,2,2377.5,570194.400000006,8002,VNB,B,7
4,prac,1,0.0,2-Back,1,m,Wed Nov 06 2024 13:31:08 GMT-0600 (Central Standard Time),575321.1000000015,007_m_m_h_a.png,I,m,1968,10,2,2743.7999999970198,572577.3000000045,8002,VNB,B,8
4,prac,1,1.0,2-Back,0,z,Wed Nov 06 2024 13:31:08 GMT-0600 (Central Standard Time),577170.5,020_y_f_d_a.png,I,m,982,11,2,1844.5999999940395,575325.900000006,8002,VNB,B,9
4,prac,1,0.0,2-Back,0,m,Wed Nov 06 2024 13:31:08 GMT-0600 (Central Standard Time),579736.3000000045,004_o_m_n_a.png,I,z,1690,12,2,2561.0,577175.3000000045,8002,VNB,B,10
0,prac,2,0.0,2-Back,,,Wed Nov 06 2024 13:31:08 GMT-0600 (Central Standard Time),579736.3000000045,011_m_f_n_a.png,I,a,21334,1,2,2561.0,577175.3000000045,8002,VNB,B,0
0,prac,2,0.0,2-Back,,,Wed Nov 06 2024 13:31:08 GMT-0600 (Central Standard Time),579736.3000000045,005_o_f_h_a.png,I,a,21334,2,2,2561.0,577175.3000000045,8002,VNB,B,0
1,prac,2,0.0,2-Back,1,m,Wed Nov 06 2024 13:31:08 GMT-0600 (Central Standard Time),608360.900000006,004_o_m_d_a.png,I,m,1173,3,2,2027.4000000059605,606333.5,8002,VNB,B,1
2,prac,2,1.0,2-Back,1,z,Wed Nov 06 2024 13:31:08 GMT-0600 (Central Standard Time),610376.700000003,007_m_m_h_a.png,I,z,1228,4,2,2010.5,608366.200000003,8002,VNB,B,2
3,prac,2,0.0,2-Back,1,m,Wed Nov 06 2024 13:31:08 GMT-0600 (Central Standard Time),612792.6000000015,020_y_f_n_a.png,I,m,1543,5,2,2410.7999999970198,610381.8000000045,8002,VNB,B,3
4,prac,2,1.0,2-Back,1,z,Wed Nov 06 2024 13:31:08 GMT-0600 (Central Standard Time),615075.3000000045,004_o_m_h_a.png,I,z,1409,6,2,2277.5,612797.8000000045,8002,VNB,B,4
4,prac,2,1.0,2-Back,0,z,Wed Nov 06 2024 13:31:08 GMT-0600 (Central Standard Time),617274.5,016_y_m_n_a.png,I,m,1307,7,2,2193.39999999851,615081.1000000015,8002,VNB,B,5
4,prac,2,0.0,2-Back,0,m,Wed Nov 06 2024 13:31:08 GMT-0600 (Central Standard Time),620157.200000003,011_m_f_d_a.png,I,None,2004,8,2,2877.10000000149,617280.1000000015,8002,VNB,B,6
5,prac,2,0.0,2-Back,1,m,Wed Nov 06 2024 13:31:08 GMT-0600 (Central Standard Time),622772.900000006,005_o_f_d_a.png,I,m,1723,9,2,2610.5,620162.400000006,8002,VNB,B,7
6,prac,2,0.0,2-Back,1,m,Wed Nov 06 2024 13:31:08 GMT-0600 (Central Standard Time),624555.5,007_m_m_h_a.png,I,m,1008,10,2,1777.8999999985099,622777.6000000015,8002,VNB,B,8
7,prac,2,1.0,2-Back,1,z,Wed Nov 06 2024 13:31:08 GMT-0600 (Central Standard Time),626571.5,020_y_f_d_a.png,I,z,1140,11,2,2010.5999999940395,624560.900000006,8002,VNB,B,9
7,prac,2,0.0,2-Back,0,m,Wed Nov 06 2024 13:31:08 GMT-0600 (Central Standard Time),628920.700000003,004_o_m_n_a.png,I,z,1468,12,2,2343.60000000149,626577.1000000015,8002,VNB,B,10
0,test,1,0.0,2-Back,,,Wed Nov 06 2024 13:31:08 GMT-0600 (Central Standard Time),628920.700000003,016_y_m_h_a.png,I,space,14568,1,2,2343.60000000149,626577.1000000015,8002,VNB,B,0
0,test,1,0.0,2-Back,,,Wed Nov 06 2024 13:31:08 GMT-0600 (Central Standard Time),628920.700000003,005_o_f_n_a.png,I,space,14568,2,2,2343.60000000149,626577.1000000015,8002,VNB,B,0
1,test,1,0.0,2-Back,1,z,Wed Nov 06 2024 13:31:08 GMT-0600 (Central Standard Time),657928.5,004_o_m_h_a.png,I,z,793,3,2,1845.5,656083.0,8002,VNB,B,1
2,test,1,0.0,2-Back,1,m,Wed Nov 06 2024 13:31:08 GMT-0600 (Central Standard Time),660077.8000000045,011_m_f_d_a.png,I,m,1095,4,2,2145.39999999851,657932.400000006,8002,VNB,B,2
3,test,1,1.0,2-Back,1,m,Wed Nov 06 2024 13:31:08 GMT-0600 (Central Standard Time),662494.900000006,016_y_m_n_a.png,I,m,1354,5,2,2413.60000000149,660081.3000000045,8002,VNB,B,3
4,test,1,0.0,2-Back,1,z,Wed Nov 06 2024 13:31:08 GMT-0600 (Central Standard Time),664859.700000003,020_y_f_d_a.png,I,z,1314,6,2,2361.0,662498.700000003,8002,VNB,B,4
5,test,1,0.0,2-Back,1,m,Wed Nov 06 2024 13:31:08 GMT-0600 (Central Standard Time),667391.900000006,007_m_m_h_a.png,I,m,1477,7,2,2528.7000000029802,664863.200000003,8002,VNB,B,5
6,test,1,1.0,2-Back,1,m,Wed Nov 06 2024 13:31:08 GMT-0600 (Central Standard Time),669874.6000000015,020_y_f_n_a.png,I,m,1399,8,2,2478.89999999851,667395.700000003,8002,VNB,B,6
7,test,1,0.0,2-Back,1,z,Wed Nov 06 2024 13:31:08 GMT-0600 (Central Standard Time),671674.0,005_o_f_h_a.png,I,z,741,9,2,1795.7999999970198,669878.200000003,8002,VNB,B,7
8,test,1,0.0,2-Back,1,m,Wed Nov 06 2024 13:31:08 GMT-0600 (Central Standard Time),674106.700000003,004_o_m_d_a.png,I,m,1382,10,2,2428.39999999851,671678.3000000045,8002,VNB,B,8
9,test,1,1.0,2-Back,1,m,Wed Nov 06 2024 13:31:08 GMT-0600 (Central Standard Time),676622.400000006,007_m_m_d_a.png,I,m,1445,11,2,2512.10000000149,674110.3000000045,8002,VNB,B,9
10,test,1,0.0,2-Back,1,m,Wed Nov 06 2024 13:31:08 GMT-0600 (Central Standard Time),679388.200000003,011_m_f_n_a.png,I,m,1705,12,2,2761.89999999851,676626.3000000045,8002,VNB,B,10
11,test,1,0.0,2-Back,1,m,Wed Nov 06 2024 13:31:08 GMT-0600 (Central Standard Time),681254.3000000045,020_y_f_h_a.png,I,m,845,13,2,1862.7000000029802,679391.6000000015,8002,VNB,B,11
12,test,1,0.0,2-Back,1,z,Wed Nov 06 2024 13:31:08 GMT-0600 (Central Standard Time),683970.200000003,007_m_m_n_a.png,I,z,1658,14,2,2712.2000000029802,681258.0,8002,VNB,B,12
13,test,1,0.0,2-Back,1,m,Wed Nov 06 2024 13:31:08 GMT-0600 (Central Standard Time),685969.700000003,016_y_m_d_a.png,I,m,934,15,2,1995.8999999985099,683973.8000000045,8002,VNB,B,13
14,test,1,1.0,2-Back,1,m,Wed Nov 06 2024 13:31:08 GMT-0600 (Central Standard Time),688952.200000003,011_m_f_h_a.png,I,m,1926,16,2,2979.0,685973.200000003,8002,VNB,B,14
15,test,1,0.0,2-Back,1,z,Wed Nov 06 2024 13:31:08 GMT-0600 (Central Standard Time),691534.700000003,005_o_f_d_a.png,I,z,1520,17,2,2578.7000000029802,688956.0,8002,VNB,B,15
15,test,1,0.0,2-Back,0,m,Wed Nov 06 2024 13:31:08 GMT-0600 (Central Standard Time),693600.700000003,004_o_m_n_a.png,I,z,1001,18,2,2062.39999999851,691538.3000000045,8002,VNB,B,16
0,test,2,0.0,2-Back,,,Wed Nov 06 2024 13:31:08 GMT-0600 (Central Standard Time),693600.700000003,007_m_m_h_a.png,I,space,4953,1,2,2062.39999999851,691538.3000000045,8002,VNB,B,0
0,test,2,0.0,2-Back,,,Wed Nov 06 2024 13:31:08 GMT-0600 (Central Standard Time),693600.700000003,020_y_f_n_a.png,I,space,4953,2,2,2062.39999999851,691538.3000000045,8002,VNB,B,0
1,test,2,1.0,2-Back,1,z,Wed Nov 06 2024 13:31:08 GMT-0600 (Central Standard Time),705513.400000006,005_o_f_h_a.png,I,z,575,3,2,1595.5,703917.900000006,8002,VNB,B,1
2,test,2,0.0,2-Back,1,m,Wed Nov 06 2024 13:31:08 GMT-0600 (Central Standard Time),707579.5,004_o_m_d_a.png,I,m,1048,4,2,2062.5,705517.0,8002,VNB,B,2
3,test,2,0.0,2-Back,1,m,Wed Nov 06 2024 13:31:08 GMT-0600 (Central Standard Time),710311.900000006,011_m_f_d_a.png,I,m,1710,5,2,2728.7000000029802,707583.200000003,8002,VNB,B,3
3,test,2,0.0,2-Back,0,m,Wed Nov 06 2024 13:31:08 GMT-0600 (Central Standard Time),713377.400000006,016_y_m_h_a.png,I,None,2015,6,2,3061.7000000029802,710315.700000003,8002,VNB,B,4
3,test,2,0.0,2-Back,0,m,Wed Nov 06 2024 13:31:08 GMT-0600 (Central Standard Time),716160.1000000015,005_o_f_n_a.png,I,z,1718,7,2,2779.10000000149,713381.0,8002,VNB,B,5
4,test,2,1.0,2-Back,1,z,Wed Nov 06 2024 13:31:08 GMT-0600 (Central Standard Time),718092.8000000045,004_o_m_h_a.png,I,z,872,8,2,1929.0,716163.8000000045,8002,VNB,B,6
5,test,2,0.0,2-Back,1,m,Wed Nov 06 2024 13:31:08 GMT-0600 (Central Standard Time),720775.400000006,020_y_f_d_a.png,I,m,1662,9,2,2679.3000000044703,718096.1000000015,8002,VNB,B,7
6,test,2,0.0,2-Back,1,m,Wed Nov 06 2024 13:31:08 GMT-0600 (Central Standard Time),723741.0,016_y_m_d_a.png,I,m,1913,10,2,2962.5,720778.5,8002,VNB,B,8
7,test,2,0.0,2-Back,1,m,Wed Nov 06 2024 13:31:08 GMT-0600 (Central Standard Time),725640.700000003,007_m_m_n_a.png,I,m,844,11,2,1895.2999999970198,723745.400000006,8002,VNB,B,9
8,test,2,0.0,2-Back,1,m,Wed Nov 06 2024 13:31:08 GMT-0600 (Central Standard Time),728506.5,011_m_f_h_a.png,I,m,1799,12,2,2861.7999999970198,725644.700000003,8002,VNB,B,10
9,test,2,1.0,2-Back,1,z,Wed Nov 06 2024 13:31:08 GMT-0600 (Central Standard Time),731088.700000003,004_o_m_n_a.png,I,z,1551,13,2,2579.10000000149,728509.6000000015,8002,VNB,B,11
10,test,2,0.0,2-Back,1,m,Wed Nov 06 2024 13:31:08 GMT-0600 (Central Standard Time),733704.6000000015,005_o_f_d_a.png,I,m,1559,14,2,2612.1999999955297,731092.400000006,8002,VNB,B,12
11,test,2,0.0,2-Back,1,m,Wed Nov 06 2024 13:31:08 GMT-0600 (Central Standard Time),736653.5,020_y_f_h_a.png,I,m,1895,15,2,2944.6999999955297,733708.8000000045,8002,VNB,B,13
12,test,2,0.0,2-Back,1,z,Wed Nov 06 2024 13:31:08 GMT-0600 (Central Standard Time),738753.1000000015,007_m_m_d_a.png,I,z,1042,16,2,2095.6999999955297,736657.400000006,8002,VNB,B,14
13,test,2,0.0,2-Back,1,m,Wed Nov 06 2024 13:31:08 GMT-0600 (Central Standard Time),741319.1000000015,016_y_m_n_a.png,I,m,1544,17,2,2562.39999999851,738756.700000003,8002,VNB,B,15
13,test,2,1.0,2-Back,0,m,Wed Nov 06 2024 13:31:08 GMT-0600 (Central Standard Time),744384.8000000045,011_m_f_n_a.png,I,None,2015,18,2,3062.2000000029802,741322.6000000015,8002,VNB,B,16
0,test,3,1.0,2-Back,,,Wed Nov 06 2024 13:31:08 GMT-0600 (Central Standard Time),744384.8000000045,004_o_m_n_a.png,I,space,2041,1,2,3062.2000000029802,741322.6000000015,8002,VNB,B,0
0,test,3,1.0,2-Back,,,Wed Nov 06 2024 13:31:08 GMT-0600 (Central Standard Time),744384.8000000045,005_o_f_d_a.png,I,space,2041,2,2,3062.2000000029802,741322.6000000015,8002,VNB,B,0
1,test,3,0.0,2-Back,1,m,Wed Nov 06 2024 13:31:08 GMT-0600 (Central Standard Time),753631.900000006,020_y_f_h_a.png,I,m,1035,3,2,2062.8000000044703,751569.1000000015,8002,VNB,B,1
2,test,3,0.0,2-Back,1,z,Wed Nov 06 2024 13:31:08 GMT-0600 (Central Standard Time),755914.400000006,011_m_f_d_a.png,I,z,1266,4,2,2278.8000000044703,753635.6000000015,8002,VNB,B,2
3,test,3,1.0,2-Back,1,m,Wed Nov 06 2024 13:31:08 GMT-0600 (Central Standard Time),758530.400000006,016_y_m_n_a.png,I,m,1599,5,2,2612.4000000059605,755918.0,8002,VNB,B,3
4,test,3,0.0,2-Back,1,m,Wed Nov 06 2024 13:31:08 GMT-0600 (Central Standard Time),760979.200000003,004_o_m_h_a.png,I,m,1431,6,2,2445.2000000029802,758534.0,8002,VNB,B,4
5,test,3,0.0,2-Back,1,z,Wed Nov 06 2024 13:31:08 GMT-0600 (Central Standard Time),763112.3000000045,020_y_f_n_a.png,I,z,1102,7,2,2129.5,760982.8000000045,8002,VNB,B,5
6,test,3,1.0,2-Back,1,m,Wed Nov 06 2024 13:31:08 GMT-0600 (Central Standard Time),765877.900000006,007_m_m_d_a.png,I,m,1737,8,2,2762.10000000149,763115.8000000045,8002,VNB,B,6
7,test,3,0.0,2-Back,1,m,Wed Nov 06 2024 13:31:08 GMT-0600 (Central Standard Time),768710.400000006,016_y_m_d_a.png,I,m,1803,9,2,2829.10000000149,765881.3000000045,8002,VNB,B,7
8,test,3,0.0,2-Back,1,m,Wed Nov 06 2024 13:31:08 GMT-0600 (Central Standard Time),770809.5,005_o_f_h_a.png,I,m,1067,10,2,2096.0,768713.5,8002,VNB,B,8
8,test,3,1.0,2-Back,0,m,Wed Nov 06 2024 13:31:08 GMT-0600 (Central Standard Time),773842.1000000015,011_m_f_n_a.png,I,None,2016,11,2,3029.39999999851,770812.700000003,8002,VNB,B,9
9,test,3,1.0,2-Back,1,z,Wed Nov 06 2024 13:31:08 GMT-0600 (Central Standard Time),776057.900000006,007_m_m_h_a.png,I,z,1191,12,2,2212.2000000029802,773845.700000003,8002,VNB,B,10
9,test,3,0.0,2-Back,0,m,Wed Nov 06 2024 13:31:08 GMT-0600 (Central Standard Time),779090.5,020_y_f_d_a.png,I,None,2015,13,2,3029.2999999970198,776061.200000003,8002,VNB,B,11
10,test,3,0.0,2-Back,1,m,Wed Nov 06 2024 13:31:08 GMT-0600 (Central Standard Time),781956.3000000045,005_o_f_n_a.png,I,m,1838,14,2,2862.8000000044703,779093.5,8002,VNB,B,12
11,test,3,0.0,2-Back,1,z,Wed Nov 06 2024 13:31:08 GMT-0600 (Central Standard Time),784222.0,004_o_m_d_a.png,I,z,1245,15,2,2262.0999999940395,781959.900000006,8002,VNB,B,13
12,test,3,1.0,2-Back,1,m,Wed Nov 06 2024 13:31:08 GMT-0600 (Central Standard Time),786071.700000003,011_m_f_h_a.png,I,m,827,16,2,1846.0,784225.700000003,8002,VNB,B,14
13,test,3,0.0,2-Back,1,m,Wed Nov 06 2024 13:31:08 GMT-0600 (Central Standard Time),788554.200000003,007_m_m_n_a.png,I,m,1465,17,2,2479.39999999851,786074.8000000045,8002,VNB,B,15
14,test,3,0.0,2-Back,1,z,Wed Nov 06 2024 13:31:08 GMT-0600 (Central Standard Time),790520.200000003,016_y_m_h_a.png,I,z,935,18,2,1962.6000000014901,788557.6000000015,8002,VNB,B,16
0,test,4,0.0,2-Back,,,Wed Nov 06 2024 13:31:08 GMT-0600 (Central Standard Time),790520.200000003,011_m_f_n_a.png,I,space,2793,1,2,1962.6000000014901,788557.6000000015,8002,VNB,B,0
0,test,4,0.0,2-Back,,,Wed Nov 06 2024 13:31:08 GMT-0600 (Central Standard Time),790520.200000003,004_o_m_n_a.png,I,space,2793,2,2,1962.6000000014901,788557.6000000015,8002,VNB,B,0
1,test,4,1.0,2-Back,1,m,Wed Nov 06 2024 13:31:08 GMT-0600 (Central Standard Time),800350.6000000015,016_y_m_h_a.png,I,m,771,3,2,1795.6000000014901,798555.0,8002,VNB,B,1
2,test,4,1.0,2-Back,1,m,Wed Nov 06 2024 13:31:08 GMT-0600 (Central Standard Time),803083.0,005_o_f_d_a.png,I,m,1673,4,2,2729.0,800354.0,8002,VNB,B,2
3,test,4,0.0,2-Back,1,z,Wed Nov 06 2024 13:31:08 GMT-0600 (Central Standard Time),805115.700000003,004_o_m_h_a.png,I,z,1014,5,2,2029.0,803086.700000003,8002,VNB,B,3
4,test,4,0.0,2-Back,1,m,Wed Nov 06 2024 13:31:08 GMT-0600 (Central Standard Time),807714.8000000045,007_m_m_n_a.png,I,m,1540,6,2,2595.39999999851,805119.400000006,8002,VNB,B,4
5,test,4,0.0,2-Back,1,m,Wed Nov 06 2024 13:31:08 GMT-0600 (Central Standard Time),810580.6000000015,011_m_f_d_a.png,I,m,1780,7,2,2862.39999999851,807718.200000003,8002,VNB,B,5
6,test,4,0.0,2-Back,1,z,Wed Nov 06 2024 13:31:08 GMT-0600 (Central Standard Time),812680.0,020_y_f_n_a.png,I,z,1043,8,2,2096.0,810584.0,8002,VNB,B,6
7,test,4,1.0,2-Back,1,m,Wed Nov 06 2024 13:31:08 GMT-0600 (Central Standard Time),815512.1000000015,005_o_f_h_a.png,I,m,1768,9,2,2828.2999999970198,812683.8000000045,8002,VNB,B,7
8,test,4,0.0,2-Back,1,m,Wed Nov 06 2024 13:31:08 GMT-0600 (Central Standard Time),818486.700000003,007_m_m_h_a.png,I,m,1958,10,2,2970.7999999970198,815515.900000006,8002,VNB,B,8
9,test,4,0.0,2-Back,1,m,Wed Nov 06 2024 13:31:08 GMT-0600 (Central Standard Time),820827.6000000015,020_y_f_d_a.png,I,m,1273,11,2,2336.89999999851,818490.700000003,8002,VNB,B,9
10,test,4,0.0,2-Back,1,m,Wed Nov 06 2024 13:31:08 GMT-0600 (Central Standard Time),823409.900000006,016_y_m_n_a.png,I,m,1525,12,2,2579.10000000149,820830.8000000045,8002,VNB,B,10
10,test,4,0.0,2-Back,0,z,Wed Nov 06 2024 13:31:08 GMT-0600 (Central Standard Time),826475.900000006,004_o_m_d_a.png,I,None,2016,13,2,3062.4000000059605,823413.5,8002,VNB,B,11
11,test,4,1.0,2-Back,1,m,Wed Nov 06 2024 13:31:08 GMT-0600 (Central Standard Time),829108.0,011_m_f_h_a.png,I,m,1572,14,2,2628.39999999851,826479.6000000015,8002,VNB,B,12
12,test,4,1.0,2-Back,1,m,Wed Nov 06 2024 13:31:08 GMT-0600 (Central Standard Time),831941.6000000015,020_y_f_h_a.png,I,m,1780,15,2,2829.39999999851,829112.200000003,8002,VNB,B,13
13,test,4,0.0,2-Back,1,m,Wed Nov 06 2024 13:31:08 GMT-0600 (Central Standard Time),834039.8000000045,005_o_f_n_a.png,I,m,1077,16,2,2094.8000000044703,831945.0,8002,VNB,B,14
13,test,4,0.0,2-Back,0,m,Wed Nov 06 2024 13:31:08 GMT-0600 (Central Standard Time),837105.6000000015,016_y_m_d_a.png,I,None,2015,17,2,3062.10000000149,834043.5,8002,VNB,B,15
14,test,4,1.0,2-Back,1,m,Wed Nov 06 2024 13:31:08 GMT-0600 (Central Standard Time),839804.8000000045,007_m_m_d_a.png,I,m,1680,18,2,2696.0,837108.8000000045,8002,VNB,B,16
0,test,5,1.0,2-Back,,,Wed Nov 06 2024 13:31:08 GMT-0600 (Central Standard Time),839804.8000000045,020_y_f_d_a.png,I,space,1069,1,2,2696.0,837108.8000000045,8002,VNB,B,0
0,test,5,1.0,2-Back,,,Wed Nov 06 2024 13:31:08 GMT-0600 (Central Standard Time),839804.8000000045,005_o_f_h_a.png,I,space,1069,2,2,2696.0,837108.8000000045,8002,VNB,B,0
1,test,5,1.0,2-Back,1,z,Wed Nov 06 2024 13:31:08 GMT-0600 (Central Standard Time),848018.700000003,004_o_m_d_a.png,I,z,865,3,2,1879.0,846139.700000003,8002,VNB,B,1
2,test,5,1.0,2-Back,1,m,Wed Nov 06 2024 13:31:08 GMT-0600 (Central Standard Time),850534.700000003,011_m_f_n_a.png,I,m,1494,4,2,2512.7000000029802,848022.0,8002,VNB,B,2
3,test,5,0.0,2-Back,1,m,Wed Nov 06 2024 13:31:08 GMT-0600 (Central Standard Time),853400.3000000045,007_m_m_h_a.png,I,m,1835,5,2,2861.7000000029802,850538.6000000015,8002,VNB,B,3
4,test,5,0.0,2-Back,1,z,Wed Nov 06 2024 13:31:08 GMT-0600 (Central Standard Time),855383.3000000045,020_y_f_n_a.png,I,z,961,6,2,1979.3000000044703,853404.0,8002,VNB,B,4
5,test,5,0.0,2-Back,1,m,Wed Nov 06 2024 13:31:08 GMT-0600 (Central Standard Time),858082.400000006,005_o_f_d_a.png,I,m,1665,7,2,2695.2000000029802,855387.200000003,8002,VNB,B,5
6,test,5,0.0,2-Back,1,m,Wed Nov 06 2024 13:31:08 GMT-0600 (Central Standard Time),860664.8000000045,004_o_m_h_a.png,I,m,1551,8,2,2579.39999999851,858085.400000006,8002,VNB,B,6
7,test,5,1.0,2-Back,1,z,Wed Nov 06 2024 13:31:08 GMT-0600 (Central Standard Time),863214.1000000015,011_m_f_d_a.png,I,z,1528,9,2,2544.89999999851,860669.200000003,8002,VNB,B,7
8,test,5,0.0,2-Back,1,m,Wed Nov 06 2024 13:31:08 GMT-0600 (Central Standard Time),865746.200000003,016_y_m_n_a.png,I,m,1507,10,2,2529.10000000149,863217.1000000015,8002,VNB,B,8
9,test,5,0.0,2-Back,1,m,Wed Nov 06 2024 13:31:08 GMT-0600 (Central Standard Time),868362.5,007_m_m_n_a.png,I,m,1591,11,2,2610.1999999955297,865752.3000000045,8002,VNB,B,9
10,test,5,0.0,2-Back,1,m,Wed Nov 06 2024 13:31:08 GMT-0600 (Central Standard Time),870628.5,020_y_f_h_a.png,I,m,1238,12,2,2262.89999999851,868365.6000000015,8002,VNB,B,10
11,test,5,0.0,2-Back,1,m,Wed Nov 06 2024 13:31:08 GMT-0600 (Central Standard Time),873094.6000000015,016_y_m_d_a.png,I,m,1437,13,2,2463.10000000149,870631.5,8002,VNB,B,11
12,test,5,1.0,2-Back,1,z,Wed Nov 06 2024 13:31:08 GMT-0600 (Central Standard Time),875760.200000003,011_m_f_h_a.png,I,z,1635,14,2,2661.5,873098.700000003,8002,VNB,B,12
13,test,5,0.0,2-Back,1,m,Wed Nov 06 2024 13:31:08 GMT-0600 (Central Standard Time),878392.6000000015,004_o_m_n_a.png,I,m,1601,15,2,2629.2999999970198,875763.3000000045,8002,VNB,B,13
14,test,5,0.0,2-Back,1,m,Wed Nov 06 2024 13:31:08 GMT-0600 (Central Standard Time),880658.6000000015,007_m_m_d_a.png,I,m,1241,16,2,2263.0,878395.6000000015,8002,VNB,B,14
15,test,5,0.0,2-Back,1,z,Wed Nov 06 2024 13:31:08 GMT-0600 (Central Standard Time),883457.5,005_o_f_n_a.png,I,z,1775,17,2,2795.2999999970198,880662.200000003,8002,VNB,B,15
16,test,5,1.0,2-Back,1,m,Wed Nov 06 2024 13:31:08 GMT-0600 (Central Standard Time),886006.8000000045,016_y_m_h_a.png,I,m,1486,18,2,2545.8000000044703,883461.0,8002,VNB,B,16
