acc_sum,block,block_c,change,condition,correct,correct_response,datetime,endtime,face,project,response,response_time,row_sel,session_number,start_end,starttime,subject_id,task,task_vers,trial
0,prac,1,,1-Back,,,Tue Feb 25 2025 10:04:35 GMT-0600 (Central Standard Time),,012_o_f_d_a.png,I,space,2656,1,3,,,8002,VNB,C,0
1,prac,1,0.0,1-Back,1,m,Tue Feb 25 2025 10:04:35 GMT-0600 (Central Standard Time),145385.89999999106,022_y_f_n_a.png,I,m,1464,2,3,2357.2999999970198,143028.59999999404,8002,VNB,C,1
2,prac,1,0.0,1-Back,1,m,Tue Feb 25 2025 10:04:35 GMT-0600 (Central Standard Time),147449.20000000298,014_m_m_h_a.png,I,m,1141,3,3,2057.4000000059605,145391.79999999702,8002,VNB,C,2
3,prac,1,0.0,1-Back,1,m,Tue Feb 25 2025 10:04:35 GMT-0600 (Central Standard Time),149301.29999999702,025_y_m_d_a.png,I,m,973,4,3,1845.0,147456.29999999702,8002,VNB,C,3
4,prac,1,0.0,1-Back,1,m,Tue Feb 25 2025 10:04:35 GMT-0600 (Central Standard Time),151117.39999999106,012_o_f_n_a.png,I,m,914,5,3,1809.8999999910593,149307.5,8002,VNB,C,4
5,prac,1,1.0,1-Back,1,z,Tue Feb 25 2025 10:04:35 GMT-0600 (Central Standard Time),152750.09999999404,025_y_m_n_a.png,I,z,751,6,3,1625.5,151124.59999999404,8002,VNB,C,5
6,prac,1,0.0,1-Back,1,m,Tue Feb 25 2025 10:04:35 GMT-0600 (Central Standard Time),154249.79999999702,015_o_m_h_a.png,I,m,589,7,3,1492.7000000029802,152757.09999999404,8002,VNB,C,6
6,prac,1,0.0,1-Back,0,m,Tue Feb 25 2025 10:04:35 GMT-0600 (Central Standard Time),156382.20000000298,019_m_f_d_a.png,I,z,1225,8,3,2125.1000000089407,154257.09999999404,8002,VNB,C,7
7,prac,1,1.0,1-Back,1,z,Tue Feb 25 2025 10:04:35 GMT-0600 (Central Standard Time),158681.70000000298,022_y_f_d_a.png,I,z,1397,9,3,2291.800000011921,156389.89999999106,8002,VNB,C,8
8,prac,1,0.0,1-Back,1,m,Tue Feb 25 2025 10:04:35 GMT-0600 (Central Standard Time),160581.09999999404,014_m_m_n_a.png,I,m,1008,10,3,1891.2000000029802,158689.89999999106,8002,VNB,C,9
9,prac,1,0.0,1-Back,1,m,Tue Feb 25 2025 10:04:35 GMT-0600 (Central Standard Time),163230.29999999702,012_o_f_h_a.png,I,m,1750,11,3,2642.4000000059605,160587.89999999106,8002,VNB,C,10
10,prac,1,0.0,1-Back,1,m,Tue Feb 25 2025 10:04:35 GMT-0600 (Central Standard Time),164763.09999999404,025_y_m_d_a.png,I,m,652,12,3,1526.7000000029802,163236.39999999106,8002,VNB,C,11
0,prac,2,0.0,1-Back,,,Tue Feb 25 2025 10:04:35 GMT-0600 (Central Standard Time),164763.09999999404,012_o_f_d_a.png,I,a,3170,1,3,1526.7000000029802,163236.39999999106,8002,VNB,C,0
1,prac,2,0.0,1-Back,1,m,Tue Feb 25 2025 10:04:35 GMT-0600 (Central Standard Time),173310.39999999106,022_y_f_n_a.png,I,m,1413,2,3,2310.8999999910593,170999.5,8002,VNB,C,1
2,prac,2,0.0,1-Back,1,m,Tue Feb 25 2025 10:04:35 GMT-0600 (Central Standard Time),175226.29999999702,014_m_m_h_a.png,I,m,1026,3,3,1908.5,173317.79999999702,8002,VNB,C,2
3,prac,2,0.0,1-Back,1,m,Tue Feb 25 2025 10:04:35 GMT-0600 (Central Standard Time),176776.0,025_y_m_d_a.png,I,m,760,4,3,1542.5,175233.5,8002,VNB,C,3
4,prac,2,0.0,1-Back,1,m,Tue Feb 25 2025 10:04:35 GMT-0600 (Central Standard Time),178375.5,012_o_f_n_a.png,I,m,699,5,3,1592.1000000089407,176783.39999999106,8002,VNB,C,4
5,prac,2,1.0,1-Back,1,z,Tue Feb 25 2025 10:04:35 GMT-0600 (Central Standard Time),180008.39999999106,025_y_m_n_a.png,I,z,755,6,3,1627.0,178381.39999999106,8002,VNB,C,5
6,prac,2,0.0,1-Back,1,m,Tue Feb 25 2025 10:04:35 GMT-0600 (Central Standard Time),181707.79999999702,015_o_m_h_a.png,I,m,799,7,3,1693.5999999940395,180014.20000000298,8002,VNB,C,6
7,prac,2,0.0,1-Back,1,m,Tue Feb 25 2025 10:04:35 GMT-0600 (Central Standard Time),183640.79999999702,019_m_f_d_a.png,I,m,1009,8,3,1925.7999999970198,181715.0,8002,VNB,C,7
8,prac,2,1.0,1-Back,1,z,Tue Feb 25 2025 10:04:35 GMT-0600 (Central Standard Time),185340.20000000298,022_y_f_d_a.png,I,z,794,9,3,1693.6000000089407,183646.59999999404,8002,VNB,C,8
9,prac,2,0.0,1-Back,1,m,Tue Feb 25 2025 10:04:35 GMT-0600 (Central Standard Time),187206.20000000298,014_m_m_n_a.png,I,m,987,10,3,1860.2000000029802,185346.0,8002,VNB,C,9
10,prac,2,0.0,1-Back,1,m,Tue Feb 25 2025 10:04:35 GMT-0600 (Central Standard Time),189305.5,012_o_f_h_a.png,I,m,1196,11,3,2092.2000000029802,187213.29999999702,8002,VNB,C,10
11,prac,2,0.0,1-Back,1,m,Tue Feb 25 2025 10:04:35 GMT-0600 (Central Standard Time),191054.89999999106,025_y_m_d_a.png,I,m,862,12,3,1742.3999999910593,189312.5,8002,VNB,C,11
0,test,1,0.0,1-Back,,,Tue Feb 25 2025 10:04:35 GMT-0600 (Central Standard Time),191054.89999999106,022_y_f_d_a.png,I,space,8071,1,3,1742.3999999910593,189312.5,8002,VNB,C,0
1,test,1,0.0,1-Back,1,m,Tue Feb 25 2025 10:04:35 GMT-0600 (Central Standard Time),215413.89999999106,019_m_f_n_a.png,I,m,945,2,3,1961.3999999910593,213452.5,8002,VNB,C,1
2,test,1,0.0,1-Back,1,m,Tue Feb 25 2025 10:04:35 GMT-0600 (Central Standard Time),217313.39999999106,015_o_m_h_a.png,I,m,867,3,3,1896.199999988079,215417.20000000298,8002,VNB,C,2
3,test,1,1.0,1-Back,1,z,Tue Feb 25 2025 10:04:35 GMT-0600 (Central Standard Time),219029.29999999702,014_m_m_h_a.png,I,z,687,4,3,1712.5999999940395,217316.70000000298,8002,VNB,C,3
4,test,1,0.0,1-Back,1,m,Tue Feb 25 2025 10:04:35 GMT-0600 (Central Standard Time),220762.20000000298,012_o_f_n_a.png,I,m,716,5,3,1728.4000000059605,219033.79999999702,8002,VNB,C,4
5,test,1,0.0,1-Back,1,m,Tue Feb 25 2025 10:04:35 GMT-0600 (Central Standard Time),222695.0,025_y_m_d_a.png,I,m,903,6,3,1928.6000000089407,220766.39999999106,8002,VNB,C,5
6,test,1,1.0,1-Back,1,z,Tue Feb 25 2025 10:04:35 GMT-0600 (Central Standard Time),224427.5,019_m_f_d_a.png,I,z,706,7,3,1728.1000000089407,222699.39999999106,8002,VNB,C,6
7,test,1,0.0,1-Back,1,m,Tue Feb 25 2025 10:04:35 GMT-0600 (Central Standard Time),226110.39999999106,022_y_f_h_a.png,I,m,661,8,3,1678.3999999910593,224432.0,8002,VNB,C,7
8,test,1,0.0,1-Back,1,m,Tue Feb 25 2025 10:04:35 GMT-0600 (Central Standard Time),228193.39999999106,015_o_m_n_a.png,I,m,1059,9,3,2078.7999999970198,226114.59999999404,8002,VNB,C,8
9,test,1,0.0,1-Back,1,m,Tue Feb 25 2025 10:04:35 GMT-0600 (Central Standard Time),229992.89999999106,025_y_m_h_a.png,I,m,768,10,3,1795.7999999970198,228197.09999999404,8002,VNB,C,9
10,test,1,0.0,1-Back,1,m,Tue Feb 25 2025 10:04:35 GMT-0600 (Central Standard Time),231691.89999999106,015_o_m_d_a.png,I,m,680,11,3,1694.199999988079,229997.70000000298,8002,VNB,C,10
11,test,1,1.0,1-Back,1,z,Tue Feb 25 2025 10:04:35 GMT-0600 (Central Standard Time),233291.59999999404,012_o_f_d_a.png,I,z,573,12,3,1595.0,231696.59999999404,8002,VNB,C,11
12,test,1,0.0,1-Back,1,m,Tue Feb 25 2025 10:04:35 GMT-0600 (Central Standard Time),235074.89999999106,014_m_m_n_a.png,I,m,757,13,3,1779.0,233295.89999999106,8002,VNB,C,12
13,test,1,1.0,1-Back,1,z,Tue Feb 25 2025 10:04:35 GMT-0600 (Central Standard Time),236957.20000000298,022_y_f_n_a.png,I,z,855,14,3,1876.6000000089407,235080.59999999404,8002,VNB,C,13
14,test,1,0.0,1-Back,1,m,Tue Feb 25 2025 10:04:35 GMT-0600 (Central Standard Time),238673.29999999702,019_m_f_h_a.png,I,m,692,15,3,1712.0999999940395,236961.20000000298,8002,VNB,C,14
15,test,1,0.0,1-Back,1,m,Tue Feb 25 2025 10:04:35 GMT-0600 (Central Standard Time),240589.20000000298,014_m_m_d_a.png,I,m,896,16,3,1912.0,238677.20000000298,8002,VNB,C,15
16,test,1,0.0,1-Back,1,m,Tue Feb 25 2025 10:04:35 GMT-0600 (Central Standard Time),242505.29999999702,025_y_m_n_a.png,I,m,871,17,3,1912.4000000059605,240592.89999999106,8002,VNB,C,16
17,test,1,0.0,1-Back,1,m,Tue Feb 25 2025 10:04:35 GMT-0600 (Central Standard Time),244221.39999999106,012_o_f_h_a.png,I,m,688,18,3,1712.199999988079,242509.20000000298,8002,VNB,C,17
0,test,2,0.0,1-Back,,,Tue Feb 25 2025 10:04:35 GMT-0600 (Central Standard Time),244221.39999999106,025_y_m_n_a.png,I,space,11500,1,3,1712.199999988079,242509.20000000298,8002,VNB,C,0
1,test,2,0.0,1-Back,1,m,Tue Feb 25 2025 10:04:35 GMT-0600 (Central Standard Time),259683.29999999702,022_y_f_h_a.png,I,m,906,2,3,1927.0999999940395,257756.20000000298,8002,VNB,C,1
2,test,2,1.0,1-Back,1,m,Tue Feb 25 2025 10:04:35 GMT-0600 (Central Standard Time),261516.29999999702,015_o_m_n_a.png,I,m,806,3,3,1828.2000000029802,259688.09999999404,8002,VNB,C,2
3,test,2,0.0,1-Back,1,m,Tue Feb 25 2025 10:04:35 GMT-0600 (Central Standard Time),263248.89999999106,019_m_f_d_a.png,I,m,708,4,3,1728.3999999910593,261520.5,8002,VNB,C,3
4,test,2,0.0,1-Back,1,z,Tue Feb 25 2025 10:04:35 GMT-0600 (Central Standard Time),264832.0,014_m_m_d_a.png,I,z,552,5,3,1579.7999999970198,263252.200000003,8002,VNB,C,4
5,test,2,0.0,1-Back,1,m,Tue Feb 25 2025 10:04:35 GMT-0600 (Central Standard Time),266514.5,025_y_m_h_a.png,I,m,657,6,3,1678.2000000029802,264836.299999997,8002,VNB,C,5
6,test,2,1.0,1-Back,1,z,Tue Feb 25 2025 10:04:35 GMT-0600 (Central Standard Time),268314.0,012_o_f_h_a.png,I,z,767,7,3,1795.2000000029802,266518.799999997,8002,VNB,C,6
7,test,2,0.0,1-Back,1,m,Tue Feb 25 2025 10:04:35 GMT-0600 (Central Standard Time),270080.09999999404,019_m_f_n_a.png,I,m,743,8,3,1761.3999999910593,268318.700000003,8002,VNB,C,7
8,test,2,0.0,1-Back,1,m,Tue Feb 25 2025 10:04:35 GMT-0600 (Central Standard Time),271979.700000003,022_y_f_d_a.png,I,m,873,9,3,1895.0,270084.700000003,8002,VNB,C,8
9,test,2,0.0,1-Back,1,m,Tue Feb 25 2025 10:04:35 GMT-0600 (Central Standard Time),273712.39999999106,014_m_m_n_a.png,I,m,710,10,3,1729.3999999910593,271983.0,8002,VNB,C,9
10,test,2,1.0,1-Back,1,m,Tue Feb 25 2025 10:04:35 GMT-0600 (Central Standard Time),275378.299999997,019_m_f_h_a.png,I,m,649,11,3,1662.0999999940395,273716.200000003,8002,VNB,C,10
11,test,2,0.0,1-Back,1,z,Tue Feb 25 2025 10:04:35 GMT-0600 (Central Standard Time),277027.89999999106,015_o_m_h_a.png,I,z,623,12,3,1646.5,275381.39999999106,8002,VNB,C,11
12,test,2,0.0,1-Back,1,m,Tue Feb 25 2025 10:04:35 GMT-0600 (Central Standard Time),278610.39999999106,025_y_m_d_a.png,I,m,565,13,3,1578.2999999970198,277032.09999999404,8002,VNB,C,12
13,test,2,0.0,1-Back,1,m,Tue Feb 25 2025 10:04:35 GMT-0600 (Central Standard Time),280243.59999999404,012_o_f_n_a.png,I,m,606,14,3,1629.0,278614.59999999404,8002,VNB,C,13
14,test,2,0.0,1-Back,1,z,Tue Feb 25 2025 10:04:35 GMT-0600 (Central Standard Time),281926.09999999404,022_y_f_n_a.png,I,z,653,15,3,1678.7000000029802,280247.39999999106,8002,VNB,C,14
15,test,2,1.0,1-Back,1,m,Tue Feb 25 2025 10:04:35 GMT-0600 (Central Standard Time),283725.799999997,014_m_m_h_a.png,I,m,779,16,3,1795.9000000059605,281929.89999999106,8002,VNB,C,15
16,test,2,0.0,1-Back,1,m,Tue Feb 25 2025 10:04:35 GMT-0600 (Central Standard Time),285675.200000003,012_o_f_d_a.png,I,m,923,17,3,1945.2000000029802,283730.0,8002,VNB,C,16
17,test,2,1.0,1-Back,1,z,Tue Feb 25 2025 10:04:35 GMT-0600 (Central Standard Time),287574.799999997,015_o_m_d_a.png,I,z,878,18,3,1896.2999999970198,285678.5,8002,VNB,C,17
0,test,3,1.0,1-Back,,,Tue Feb 25 2025 10:04:35 GMT-0600 (Central Standard Time),287574.799999997,012_o_f_h_a.png,I,space,1386,1,3,1896.2999999970198,285678.5,8002,VNB,C,0
1,test,3,0.0,1-Back,1,m,Tue Feb 25 2025 10:04:35 GMT-0600 (Central Standard Time),293089.799999997,019_m_f_d_a.png,I,m,934,2,3,1961.7999999970198,291128.0,8002,VNB,C,1
2,test,3,1.0,1-Back,1,m,Tue Feb 25 2025 10:04:35 GMT-0600 (Central Standard Time),295122.200000003,014_m_m_n_a.png,I,m,1008,3,3,2028.0,293094.200000003,8002,VNB,C,2
3,test,3,0.0,1-Back,1,z,Tue Feb 25 2025 10:04:35 GMT-0600 (Central Standard Time),296839.59999999404,012_o_f_n_a.png,I,z,695,4,3,1714.0999999940395,295125.5,8002,VNB,C,3
4,test,3,1.0,1-Back,1,m,Tue Feb 25 2025 10:04:35 GMT-0600 (Central Standard Time),298638.0,015_o_m_d_a.png,I,m,779,5,3,1794.9000000059605,296843.09999999404,8002,VNB,C,4
5,test,3,0.0,1-Back,1,m,Tue Feb 25 2025 10:04:35 GMT-0600 (Central Standard Time),300520.59999999404,022_y_f_h_a.png,I,m,852,6,3,1878.5999999940395,298642.0,8002,VNB,C,5
6,test,3,0.0,1-Back,1,z,Tue Feb 25 2025 10:04:35 GMT-0600 (Central Standard Time),302086.89999999106,025_y_m_h_a.png,I,z,537,7,3,1560.199999988079,300526.700000003,8002,VNB,C,6
7,test,3,0.0,1-Back,1,m,Tue Feb 25 2025 10:04:35 GMT-0600 (Central Standard Time),303803.200000003,019_m_f_n_a.png,I,m,690,8,3,1712.300000011921,302090.89999999106,8002,VNB,C,7
8,test,3,0.0,1-Back,1,m,Tue Feb 25 2025 10:04:35 GMT-0600 (Central Standard Time),305719.09999999404,022_y_f_d_a.png,I,m,886,9,3,1912.7000000029802,303806.39999999106,8002,VNB,C,8
9,test,3,1.0,1-Back,1,m,Tue Feb 25 2025 10:04:35 GMT-0600 (Central Standard Time),307601.89999999106,015_o_m_n_a.png,I,m,850,10,3,1879.0,305722.89999999106,8002,VNB,C,9
10,test,3,0.0,1-Back,1,m,Tue Feb 25 2025 10:04:35 GMT-0600 (Central Standard Time),309884.700000003,014_m_m_h_a.png,I,m,1263,11,3,2278.800000011921,307605.89999999106,8002,VNB,C,10
11,test,3,0.0,1-Back,1,z,Tue Feb 25 2025 10:04:35 GMT-0600 (Central Standard Time),311633.700000003,019_m_f_h_a.png,I,z,724,12,3,1745.300000011921,309888.39999999106,8002,VNB,C,11
12,test,3,1.0,1-Back,1,m,Tue Feb 25 2025 10:04:35 GMT-0600 (Central Standard Time),313466.39999999106,012_o_f_d_a.png,I,m,815,13,3,1828.5,311637.89999999106,8002,VNB,C,12
13,test,3,0.0,1-Back,1,z,Tue Feb 25 2025 10:04:35 GMT-0600 (Central Standard Time),315532.59999999404,014_m_m_d_a.png,I,z,1046,14,3,2062.5999999940395,313470.0,8002,VNB,C,13
14,test,3,0.0,1-Back,1,m,Tue Feb 25 2025 10:04:35 GMT-0600 (Central Standard Time),317415.200000003,025_y_m_n_a.png,I,m,853,15,3,1879.2000000029802,315536.0,8002,VNB,C,14
15,test,3,1.0,1-Back,1,m,Tue Feb 25 2025 10:04:35 GMT-0600 (Central Standard Time),319148.200000003,015_o_m_h_a.png,I,m,714,16,3,1729.6000000089407,317418.59999999404,8002,VNB,C,15
16,test,3,0.0,1-Back,1,m,Tue Feb 25 2025 10:04:35 GMT-0600 (Central Standard Time),320764.5,025_y_m_d_a.png,I,m,597,17,3,1611.9000000059605,319152.59999999404,8002,VNB,C,16
17,test,3,1.0,1-Back,1,m,Tue Feb 25 2025 10:04:35 GMT-0600 (Central Standard Time),322413.89999999106,022_y_f_n_a.png,I,m,629,18,3,1646.0999999940395,320767.799999997,8002,VNB,C,17
0,test,4,1.0,1-Back,,,Tue Feb 25 2025 10:04:35 GMT-0600 (Central Standard Time),322413.89999999106,014_m_m_d_a.png,I,space,1787,1,3,1646.0999999940395,320767.799999997,8002,VNB,C,0
1,test,4,0.0,1-Back,1,z,Tue Feb 25 2025 10:04:35 GMT-0600 (Central Standard Time),328295.39999999106,015_o_m_d_a.png,I,z,944,2,3,1961.8999999910593,326333.5,8002,VNB,C,1
2,test,4,0.0,1-Back,1,m,Tue Feb 25 2025 10:04:35 GMT-0600 (Central Standard Time),330394.5,025_y_m_h_a.png,I,m,1082,3,3,2095.0,328299.5,8002,VNB,C,2
3,test,4,0.0,1-Back,1,m,Tue Feb 25 2025 10:04:35 GMT-0600 (Central Standard Time),332344.0,019_m_f_n_a.png,I,m,926,4,3,1946.2999999970198,330397.700000003,8002,VNB,C,3
4,test,4,1.0,1-Back,1,m,Tue Feb 25 2025 10:04:35 GMT-0600 (Central Standard Time),334010.09999999404,012_o_f_h_a.png,I,m,641,5,3,1662.7000000029802,332347.39999999106,8002,VNB,C,4
5,test,4,0.0,1-Back,1,m,Tue Feb 25 2025 10:04:35 GMT-0600 (Central Standard Time),336526.0,014_m_m_n_a.png,I,m,1487,6,3,2511.9000000059605,334014.09999999404,8002,VNB,C,5
6,test,4,0.0,1-Back,1,m,Tue Feb 25 2025 10:04:35 GMT-0600 (Central Standard Time),338242.299999997,025_y_m_d_a.png,I,m,699,7,3,1713.0999999940395,336529.200000003,8002,VNB,C,6
7,test,4,1.0,1-Back,1,z,Tue Feb 25 2025 10:04:35 GMT-0600 (Central Standard Time),339959.5,022_y_f_d_a.png,I,z,687,8,3,1714.2000000029802,338245.299999997,8002,VNB,C,7
8,test,4,0.0,1-Back,1,m,Tue Feb 25 2025 10:04:35 GMT-0600 (Central Standard Time),341874.299999997,019_m_f_h_a.png,I,m,891,9,3,1910.7999999970198,339963.5,8002,VNB,C,8
9,test,4,0.0,1-Back,1,z,Tue Feb 25 2025 10:04:35 GMT-0600 (Central Standard Time),343674.0,015_o_m_h_a.png,I,z,767,10,3,1796.5,341877.5,8002,VNB,C,9
10,test,4,1.0,1-Back,1,m,Tue Feb 25 2025 10:04:35 GMT-0600 (Central Standard Time),345439.89999999106,012_o_f_n_a.png,I,m,743,11,3,1762.199999988079,343677.700000003,8002,VNB,C,10
11,test,4,0.0,1-Back,1,m,Tue Feb 25 2025 10:04:35 GMT-0600 (Central Standard Time),347289.200000003,019_m_f_d_a.png,I,m,817,12,3,1845.300000011921,345443.89999999106,8002,VNB,C,11
12,test,4,0.0,1-Back,1,m,Tue Feb 25 2025 10:04:35 GMT-0600 (Central Standard Time),348938.59999999404,022_y_f_n_a.png,I,m,624,13,3,1645.5999999940395,347293.0,8002,VNB,C,12
13,test,4,0.0,1-Back,1,m,Tue Feb 25 2025 10:04:35 GMT-0600 (Central Standard Time),350738.5,012_o_f_d_a.png,I,m,768,14,3,1795.9000000059605,348942.59999999404,8002,VNB,C,13
14,test,4,0.0,1-Back,1,m,Tue Feb 25 2025 10:04:35 GMT-0600 (Central Standard Time),352487.89999999106,022_y_f_h_a.png,I,m,727,15,3,1745.2999999970198,350742.59999999404,8002,VNB,C,14
14,test,4,1.0,1-Back,0,z,Tue Feb 25 2025 10:04:35 GMT-0600 (Central Standard Time),354337.200000003,014_m_m_h_a.png,I,m,817,16,3,1845.2000000029802,352492.0,8002,VNB,C,15
15,test,4,0.0,1-Back,1,m,Tue Feb 25 2025 10:04:35 GMT-0600 (Central Standard Time),356169.700000003,015_o_m_n_a.png,I,m,808,17,3,1828.2000000029802,354341.5,8002,VNB,C,16
16,test,4,1.0,1-Back,1,z,Tue Feb 25 2025 10:04:35 GMT-0600 (Central Standard Time),358069.299999997,025_y_m_n_a.png,I,z,879,18,3,1895.5999999940395,356173.700000003,8002,VNB,C,17
0,test,5,1.0,1-Back,,,Tue Feb 25 2025 10:04:35 GMT-0600 (Central Standard Time),358069.299999997,015_o_m_n_a.png,I,space,1580,1,3,1895.5999999940395,356173.700000003,8002,VNB,C,0
1,test,5,1.0,1-Back,1,m,Tue Feb 25 2025 10:04:35 GMT-0600 (Central Standard Time),363450.799999997,012_o_f_h_a.png,I,m,765,2,3,1778.5,361672.299999997,8002,VNB,C,1
2,test,5,0.0,1-Back,1,m,Tue Feb 25 2025 10:04:35 GMT-0600 (Central Standard Time),365134.0,025_y_m_d_a.png,I,m,662,3,3,1680.2999999970198,363453.700000003,8002,VNB,C,2
3,test,5,0.0,1-Back,1,z,Tue Feb 25 2025 10:04:35 GMT-0600 (Central Standard Time),367266.59999999404,015_o_m_d_a.png,I,z,1115,4,3,2128.7000000029802,365137.89999999106,8002,VNB,C,3
4,test,5,0.0,1-Back,1,m,Tue Feb 25 2025 10:04:35 GMT-0600 (Central Standard Time),368966.0,019_m_f_h_a.png,I,m,671,5,3,1695.7000000029802,367270.299999997,8002,VNB,C,4
5,test,5,0.0,1-Back,1,m,Tue Feb 25 2025 10:04:35 GMT-0600 (Central Standard Time),370682.0,022_y_f_n_a.png,I,m,691,6,3,1712.7000000029802,368969.299999997,8002,VNB,C,5
6,test,5,1.0,1-Back,1,z,Tue Feb 25 2025 10:04:35 GMT-0600 (Central Standard Time),372281.39999999106,012_o_f_n_a.png,I,z,567,7,3,1596.2999999970198,370685.09999999404,8002,VNB,C,6
7,test,5,0.0,1-Back,1,m,Tue Feb 25 2025 10:04:35 GMT-0600 (Central Standard Time),373997.799999997,019_m_f_d_a.png,I,m,696,8,3,1712.2999999970198,372285.5,8002,VNB,C,7
8,test,5,0.0,1-Back,1,m,Tue Feb 25 2025 10:04:35 GMT-0600 (Central Standard Time),376130.5,025_y_m_h_a.png,I,m,1100,9,3,2127.9000000059605,374002.59999999404,8002,VNB,C,8
9,test,5,0.0,1-Back,1,m,Tue Feb 25 2025 10:04:35 GMT-0600 (Central Standard Time),377996.39999999106,022_y_f_d_a.png,I,m,847,10,3,1862.699999988079,376133.700000003,8002,VNB,C,9
10,test,5,0.0,1-Back,1,m,Tue Feb 25 2025 10:04:35 GMT-0600 (Central Standard Time),379679.09999999404,014_m_m_n_a.png,I,m,661,11,3,1678.7999999970198,378000.299999997,8002,VNB,C,10
11,test,5,1.0,1-Back,1,z,Tue Feb 25 2025 10:04:35 GMT-0600 (Central Standard Time),381478.799999997,019_m_f_n_a.png,I,z,778,12,3,1796.0,379682.799999997,8002,VNB,C,11
12,test,5,0.0,1-Back,1,m,Tue Feb 25 2025 10:04:35 GMT-0600 (Central Standard Time),383211.299999997,015_o_m_h_a.png,I,m,715,13,3,1729.4000000059605,381481.89999999106,8002,VNB,C,12
13,test,5,0.0,1-Back,1,z,Tue Feb 25 2025 10:04:35 GMT-0600 (Central Standard Time),385110.799999997,014_m_m_h_a.png,I,z,870,14,3,1896.5999999940395,383214.200000003,8002,VNB,C,13
14,test,5,1.0,1-Back,1,m,Tue Feb 25 2025 10:04:35 GMT-0600 (Central Standard Time),386810.39999999106,012_o_f_d_a.png,I,m,667,15,3,1694.8999999910593,385115.5,8002,VNB,C,14
15,test,5,0.0,1-Back,1,m,Tue Feb 25 2025 10:04:35 GMT-0600 (Central Standard Time),388926.59999999404,025_y_m_n_a.png,I,m,1095,16,3,2112.2000000029802,386814.39999999106,8002,VNB,C,15
16,test,5,0.0,1-Back,1,m,Tue Feb 25 2025 10:04:35 GMT-0600 (Central Standard Time),390642.5,022_y_f_h_a.png,I,m,699,17,3,1712.9000000059605,388929.59999999404,8002,VNB,C,16
17,test,5,0.0,1-Back,1,m,Tue Feb 25 2025 10:04:35 GMT-0600 (Central Standard Time),392276.39999999106,014_m_m_d_a.png,I,m,615,18,3,1630.0,390646.39999999106,8002,VNB,C,17
0,prac,1,0.0,2-Back,,,Tue Feb 25 2025 10:04:35 GMT-0600 (Central Standard Time),392276.39999999106,019_m_f_n_a.png,I,space,8475,1,3,1630.0,390646.39999999106,8002,VNB,C,0
0,prac,1,0.0,2-Back,,,Tue Feb 25 2025 10:04:35 GMT-0600 (Central Standard Time),392276.39999999106,012_o_f_h_a.png,I,space,8475,2,3,1630.0,390646.39999999106,8002,VNB,C,0
1,prac,1,0.0,2-Back,1,m,Tue Feb 25 2025 10:04:35 GMT-0600 (Central Standard Time),490344.700000003,015_o_m_d_a.png,I,m,920,3,3,1810.2000000029802,488534.5,8002,VNB,C,1
2,prac,1,1.0,2-Back,1,z,Tue Feb 25 2025 10:04:35 GMT-0600 (Central Standard Time),492494.200000003,014_m_m_h_a.png,I,z,1265,4,3,2142.6000000089407,490351.59999999404,8002,VNB,C,2
3,prac,1,0.0,2-Back,1,m,Tue Feb 25 2025 10:04:35 GMT-0600 (Central Standard Time),494710.0,022_y_f_n_a.png,I,m,1316,5,3,2209.9000000059605,492500.09999999404,8002,VNB,C,3
4,prac,1,1.0,2-Back,1,z,Tue Feb 25 2025 10:04:35 GMT-0600 (Central Standard Time),497426.0,015_o_m_h_a.png,I,z,1806,6,3,2709.5,494716.5,8002,VNB,C,4
5,prac,1,1.0,2-Back,1,z,Tue Feb 25 2025 10:04:35 GMT-0600 (Central Standard Time),499875.09999999404,025_y_m_n_a.png,I,z,1572,7,3,2441.5999999940395,497433.5,8002,VNB,C,5
6,prac,1,0.0,2-Back,1,m,Tue Feb 25 2025 10:04:35 GMT-0600 (Central Standard Time),502041.200000003,019_m_f_d_a.png,I,m,1257,8,3,2159.5,499881.700000003,8002,VNB,C,6
6,prac,1,0.0,2-Back,0,m,Tue Feb 25 2025 10:04:35 GMT-0600 (Central Standard Time),503824.0,012_o_f_d_a.png,I,z,880,9,3,1776.2999999970198,502047.700000003,8002,VNB,C,7
7,prac,1,0.0,2-Back,1,m,Tue Feb 25 2025 10:04:35 GMT-0600 (Central Standard Time),506040.09999999404,014_m_m_h_a.png,I,m,1436,10,3,2210.7999999970198,503829.299999997,8002,VNB,C,8
8,prac,1,1.0,2-Back,1,z,Tue Feb 25 2025 10:04:35 GMT-0600 (Central Standard Time),508172.59999999404,022_y_f_d_a.png,I,z,1221,11,3,2125.7999999970198,506046.799999997,8002,VNB,C,9
8,prac,1,0.0,2-Back,0,m,Tue Feb 25 2025 10:04:35 GMT-0600 (Central Standard Time),510521.700000003,015_o_m_n_a.png,I,z,1439,12,3,2342.2000000029802,508179.5,8002,VNB,C,10
0,test,1,0.0,2-Back,,,Tue Feb 25 2025 10:04:35 GMT-0600 (Central Standard Time),510521.700000003,025_y_m_h_a.png,I,space,7033,1,3,2342.2000000029802,508179.5,8002,VNB,C,0
0,test,1,0.0,2-Back,,,Tue Feb 25 2025 10:04:35 GMT-0600 (Central Standard Time),510521.700000003,012_o_f_n_a.png,I,space,7033,2,3,2342.2000000029802,508179.5,8002,VNB,C,0
1,test,1,0.0,2-Back,1,z,Tue Feb 25 2025 10:04:35 GMT-0600 (Central Standard Time),530082.099999994,015_o_m_h_a.png,I,z,633,3,3,1662.0,528420.099999994,8002,VNB,C,1
2,test,1,0.0,2-Back,1,m,Tue Feb 25 2025 10:04:35 GMT-0600 (Central Standard Time),532065.200000003,019_m_f_d_a.png,I,m,951,4,3,1979.300000011921,530085.8999999911,8002,VNB,C,2
2,test,1,1.0,2-Back,0,m,Tue Feb 25 2025 10:04:35 GMT-0600 (Central Standard Time),533931.0,025_y_m_n_a.png,I,z,848,5,3,1862.5,532068.5,8002,VNB,C,3
3,test,1,0.0,2-Back,1,z,Tue Feb 25 2025 10:04:35 GMT-0600 (Central Standard Time),536147.099999994,022_y_f_d_a.png,I,z,1198,6,3,2213.3999999910593,533933.700000003,8002,VNB,C,4
4,test,1,0.0,2-Back,1,m,Tue Feb 25 2025 10:04:35 GMT-0600 (Central Standard Time),538629.799999997,014_m_m_h_a.png,I,m,1454,7,3,2479.5999999940395,536150.200000003,8002,VNB,C,5
5,test,1,1.0,2-Back,1,m,Tue Feb 25 2025 10:04:35 GMT-0600 (Central Standard Time),541011.8999999911,022_y_f_n_a.png,I,m,1364,8,3,2378.8999999910593,538633.0,8002,VNB,C,6
6,test,1,0.0,2-Back,1,z,Tue Feb 25 2025 10:04:35 GMT-0600 (Central Standard Time),542778.599999994,012_o_f_h_a.png,I,z,734,9,3,1761.2999999970198,541017.299999997,8002,VNB,C,7
7,test,1,0.0,2-Back,1,m,Tue Feb 25 2025 10:04:35 GMT-0600 (Central Standard Time),545094.3999999911,015_o_m_d_a.png,I,m,1294,10,3,2312.0,542782.3999999911,8002,VNB,C,8
8,test,1,1.0,2-Back,1,m,Tue Feb 25 2025 10:04:35 GMT-0600 (Central Standard Time),547577.200000003,014_m_m_d_a.png,I,m,1451,11,3,2478.2000000029802,545099.0,8002,VNB,C,9
9,test,1,0.0,2-Back,1,m,Tue Feb 25 2025 10:04:35 GMT-0600 (Central Standard Time),549959.8999999911,019_m_f_n_a.png,I,m,1352,12,3,2377.5999999940395,547582.299999997,8002,VNB,C,10
10,test,1,0.0,2-Back,1,m,Tue Feb 25 2025 10:04:35 GMT-0600 (Central Standard Time),552958.5,022_y_f_h_a.png,I,m,1978,13,3,2994.6000000089407,549963.8999999911,8002,VNB,C,11
11,test,1,0.0,2-Back,1,z,Tue Feb 25 2025 10:04:35 GMT-0600 (Central Standard Time),554674.700000003,014_m_m_n_a.png,I,z,684,14,3,1712.5,552962.200000003,8002,VNB,C,12
12,test,1,0.0,2-Back,1,m,Tue Feb 25 2025 10:04:35 GMT-0600 (Central Standard Time),556540.8999999911,025_y_m_d_a.png,I,m,839,15,3,1862.5999999940395,554678.299999997,8002,VNB,C,13
13,test,1,1.0,2-Back,1,m,Tue Feb 25 2025 10:04:35 GMT-0600 (Central Standard Time),558840.0,019_m_f_h_a.png,I,m,1268,16,3,2295.0,556545.0,8002,VNB,C,14
14,test,1,0.0,2-Back,1,z,Tue Feb 25 2025 10:04:35 GMT-0600 (Central Standard Time),561172.5,012_o_f_d_a.png,I,z,1313,17,3,2329.2999999970198,558843.200000003,8002,VNB,C,15
15,test,1,0.0,2-Back,1,m,Tue Feb 25 2025 10:04:35 GMT-0600 (Central Standard Time),563205.5,015_o_m_n_a.png,I,m,1005,18,3,2028.9000000059605,561176.599999994,8002,VNB,C,16
0,test,2,0.0,2-Back,,,Tue Feb 25 2025 10:04:35 GMT-0600 (Central Standard Time),563205.5,014_m_m_h_a.png,I,space,1988,1,3,2028.9000000059605,561176.599999994,8002,VNB,C,0
0,test,2,0.0,2-Back,,,Tue Feb 25 2025 10:04:35 GMT-0600 (Central Standard Time),563205.5,022_y_f_n_a.png,I,space,1988,2,3,2028.9000000059605,561176.599999994,8002,VNB,C,0
1,test,2,1.0,2-Back,1,z,Tue Feb 25 2025 10:04:35 GMT-0600 (Central Standard Time),572019.0,012_o_f_h_a.png,I,z,530,3,3,1545.9000000059605,570473.099999994,8002,VNB,C,1
2,test,2,0.0,2-Back,1,m,Tue Feb 25 2025 10:04:35 GMT-0600 (Central Standard Time),573918.5,015_o_m_d_a.png,I,m,870,4,3,1895.6000000089407,572022.8999999911,8002,VNB,C,2
2,test,2,0.0,2-Back,0,m,Tue Feb 25 2025 10:04:35 GMT-0600 (Central Standard Time),576951.200000003,019_m_f_d_a.png,I,None,2016,5,3,3029.4000000059605,573921.799999997,8002,VNB,C,3
2,test,2,0.0,2-Back,0,m,Tue Feb 25 2025 10:04:35 GMT-0600 (Central Standard Time),579983.5,025_y_m_h_a.png,I,None,2015,6,3,3028.6000000089407,576954.8999999911,8002,VNB,C,4
3,test,2,0.0,2-Back,1,m,Tue Feb 25 2025 10:04:35 GMT-0600 (Central Standard Time),582749.200000003,012_o_f_n_a.png,I,m,1738,7,3,2762.300000011921,579986.8999999911,8002,VNB,C,5
4,test,2,1.0,2-Back,1,z,Tue Feb 25 2025 10:04:35 GMT-0600 (Central Standard Time),584448.3999999911,015_o_m_h_a.png,I,z,676,8,3,1695.8999999910593,582752.5,8002,VNB,C,6
5,test,2,0.0,2-Back,1,m,Tue Feb 25 2025 10:04:35 GMT-0600 (Central Standard Time),586664.700000003,022_y_f_d_a.png,I,m,1192,9,3,2212.4000000059605,584452.299999997,8002,VNB,C,7
6,test,2,0.0,2-Back,1,m,Tue Feb 25 2025 10:04:35 GMT-0600 (Central Standard Time),588980.3999999911,025_y_m_d_a.png,I,m,1296,10,3,2311.2999999970198,586669.099999994,8002,VNB,C,8
7,test,2,0.0,2-Back,1,m,Tue Feb 25 2025 10:04:35 GMT-0600 (Central Standard Time),591546.299999997,014_m_m_n_a.png,I,m,1532,11,3,2562.9000000059605,588983.3999999911,8002,VNB,C,9
8,test,2,0.0,2-Back,1,m,Tue Feb 25 2025 10:04:35 GMT-0600 (Central Standard Time),594278.8999999911,019_m_f_h_a.png,I,m,1703,12,3,2728.699999988079,591550.200000003,8002,VNB,C,10
9,test,2,1.0,2-Back,1,z,Tue Feb 25 2025 10:04:35 GMT-0600 (Central Standard Time),596578.099999994,015_o_m_n_a.png,I,z,1274,13,3,2295.5999999940395,594282.5,8002,VNB,C,11
10,test,2,0.0,2-Back,1,m,Tue Feb 25 2025 10:04:35 GMT-0600 (Central Standard Time),599510.599999994,012_o_f_d_a.png,I,m,1903,14,3,2928.8999999910593,596581.700000003,8002,VNB,C,12
11,test,2,0.0,2-Back,1,m,Tue Feb 25 2025 10:04:35 GMT-0600 (Central Standard Time),602326.299999997,022_y_f_h_a.png,I,m,1787,15,3,2811.7000000029802,599514.599999994,8002,VNB,C,13
12,test,2,0.0,2-Back,1,z,Tue Feb 25 2025 10:04:35 GMT-0600 (Central Standard Time),603876.0,014_m_m_d_a.png,I,z,522,16,3,1545.9000000059605,602330.099999994,8002,VNB,C,14
13,test,2,0.0,2-Back,1,m,Tue Feb 25 2025 10:04:35 GMT-0600 (Central Standard Time),606108.5,025_y_m_n_a.png,I,m,1213,17,3,2228.9000000059605,603879.599999994,8002,VNB,C,15
14,test,2,1.0,2-Back,1,m,Tue Feb 25 2025 10:04:35 GMT-0600 (Central Standard Time),608391.200000003,019_m_f_n_a.png,I,m,1252,18,3,2278.4000000059605,606112.799999997,8002,VNB,C,16
0,test,3,1.0,2-Back,,,Tue Feb 25 2025 10:04:35 GMT-0600 (Central Standard Time),608391.200000003,015_o_m_n_a.png,I,space,1866,1,3,2278.4000000059605,606112.799999997,8002,VNB,C,0
0,test,3,1.0,2-Back,,,Tue Feb 25 2025 10:04:35 GMT-0600 (Central Standard Time),608391.200000003,012_o_f_d_a.png,I,space,1866,2,3,2278.4000000059605,606112.799999997,8002,VNB,C,0
1,test,3,0.0,2-Back,1,m,Tue Feb 25 2025 10:04:35 GMT-0600 (Central Standard Time),617904.8999999911,022_y_f_h_a.png,I,m,1342,3,3,2361.8999999910593,615543.0,8002,VNB,C,1
2,test,3,0.0,2-Back,1,z,Tue Feb 25 2025 10:04:35 GMT-0600 (Central Standard Time),619904.200000003,019_m_f_d_a.png,I,z,968,4,3,1995.300000011921,617908.8999999911,8002,VNB,C,2
3,test,3,1.0,2-Back,1,m,Tue Feb 25 2025 10:04:35 GMT-0600 (Central Standard Time),621987.0,025_y_m_n_a.png,I,m,1065,5,3,2079.4000000059605,619907.599999994,8002,VNB,C,3
3,test,3,0.0,2-Back,0,m,Tue Feb 25 2025 10:04:35 GMT-0600 (Central Standard Time),624852.599999994,015_o_m_h_a.png,I,z,1846,6,3,2862.0999999940395,621990.5,8002,VNB,C,4
4,test,3,0.0,2-Back,1,z,Tue Feb 25 2025 10:04:35 GMT-0600 (Central Standard Time),627352.099999994,022_y_f_n_a.png,I,z,1476,7,3,2496.0999999940395,624856.0,8002,VNB,C,5
5,test,3,1.0,2-Back,1,m,Tue Feb 25 2025 10:04:35 GMT-0600 (Central Standard Time),629234.700000003,014_m_m_d_a.png,I,m,857,8,3,1878.800000011921,627355.8999999911,8002,VNB,C,6
6,test,3,0.0,2-Back,1,m,Tue Feb 25 2025 10:04:35 GMT-0600 (Central Standard Time),631900.5,025_y_m_d_a.png,I,m,1648,9,3,2662.7999999970198,629237.700000003,8002,VNB,C,7
7,test,3,0.0,2-Back,1,m,Tue Feb 25 2025 10:04:35 GMT-0600 (Central Standard Time),633783.3999999911,012_o_f_h_a.png,I,m,861,10,3,1879.2999999970198,631904.099999994,8002,VNB,C,8
7,test,3,1.0,2-Back,0,m,Tue Feb 25 2025 10:04:35 GMT-0600 (Central Standard Time),636815.700000003,019_m_f_n_a.png,I,None,2016,11,3,3028.7000000029802,633787.0,8002,VNB,C,9
7,test,3,1.0,2-Back,0,z,Tue Feb 25 2025 10:04:35 GMT-0600 (Central Standard Time),639831.3999999911,014_m_m_h_a.png,I,m,1993,12,3,3012.2999999970198,636819.099999994,8002,VNB,C,10
7,test,3,0.0,2-Back,0,m,Tue Feb 25 2025 10:04:35 GMT-0600 (Central Standard Time),642863.599999994,022_y_f_d_a.png,I,None,2016,13,3,3028.0999999940395,639835.5,8002,VNB,C,11
7,test,3,0.0,2-Back,0,m,Tue Feb 25 2025 10:04:35 GMT-0600 (Central Standard Time),645896.200000003,012_o_f_n_a.png,I,None,2015,14,3,3028.7000000029802,642867.5,8002,VNB,C,12
7,test,3,0.0,2-Back,0,z,Tue Feb 25 2025 10:04:35 GMT-0600 (Central Standard Time),648278.599999994,015_o_m_d_a.png,I,m,1361,15,3,2378.5999999940395,645900.0,8002,VNB,C,13
8,test,3,1.0,2-Back,1,m,Tue Feb 25 2025 10:04:35 GMT-0600 (Central Standard Time),650778.0,019_m_f_h_a.png,I,m,1474,16,3,2496.2999999970198,648281.700000003,8002,VNB,C,14
9,test,3,0.0,2-Back,1,m,Tue Feb 25 2025 10:04:35 GMT-0600 (Central Standard Time),653210.599999994,014_m_m_n_a.png,I,m,1415,17,3,2428.3999999910593,650782.200000003,8002,VNB,C,15
10,test,3,0.0,2-Back,1,z,Tue Feb 25 2025 10:04:35 GMT-0600 (Central Standard Time),654893.3999999911,025_y_m_h_a.png,I,z,663,18,3,1679.199999988079,653214.200000003,8002,VNB,C,16
0,test,4,0.0,2-Back,,,Tue Feb 25 2025 10:04:35 GMT-0600 (Central Standard Time),654893.3999999911,019_m_f_n_a.png,I,space,1556,1,3,1679.199999988079,653214.200000003,8002,VNB,C,0
0,test,4,0.0,2-Back,,,Tue Feb 25 2025 10:04:35 GMT-0600 (Central Standard Time),654893.3999999911,015_o_m_n_a.png,I,space,1556,2,3,1679.199999988079,653214.200000003,8002,VNB,C,0
1,test,4,1.0,2-Back,1,m,Tue Feb 25 2025 10:04:35 GMT-0600 (Central Standard Time),663723.799999997,025_y_m_h_a.png,I,m,965,3,3,1978.5,661745.299999997,8002,VNB,C,1
2,test,4,1.0,2-Back,1,m,Tue Feb 25 2025 10:04:35 GMT-0600 (Central Standard Time),666656.299999997,012_o_f_d_a.png,I,m,1909,4,3,2929.5999999940395,663726.700000003,8002,VNB,C,2
3,test,4,0.0,2-Back,1,z,Tue Feb 25 2025 10:04:35 GMT-0600 (Central Standard Time),668673.3999999911,015_o_m_h_a.png,I,z,994,5,3,2013.3999999910593,666660.0,8002,VNB,C,3
4,test,4,0.0,2-Back,1,m,Tue Feb 25 2025 10:04:35 GMT-0600 (Central Standard Time),671121.5,014_m_m_n_a.png,I,m,1425,6,3,2444.7999999970198,668676.700000003,8002,VNB,C,4
5,test,4,0.0,2-Back,1,m,Tue Feb 25 2025 10:04:35 GMT-0600 (Central Standard Time),673287.599999994,019_m_f_d_a.png,I,m,1144,7,3,2162.2000000029802,671125.3999999911,8002,VNB,C,5
6,test,4,0.0,2-Back,1,z,Tue Feb 25 2025 10:04:35 GMT-0600 (Central Standard Time),676153.5,022_y_f_n_a.png,I,z,1842,8,3,2861.9000000059605,673291.599999994,8002,VNB,C,6
7,test,4,1.0,2-Back,1,m,Tue Feb 25 2025 10:04:35 GMT-0600 (Central Standard Time),678202.599999994,012_o_f_h_a.png,I,m,1024,9,3,2045.8999999910593,676156.700000003,8002,VNB,C,7
8,test,4,0.0,2-Back,1,m,Tue Feb 25 2025 10:04:35 GMT-0600 (Central Standard Time),680485.299999997,014_m_m_h_a.png,I,m,1263,10,3,2279.5,678205.799999997,8002,VNB,C,8
9,test,4,0.0,2-Back,1,m,Tue Feb 25 2025 10:04:35 GMT-0600 (Central Standard Time),682218.099999994,022_y_f_d_a.png,I,m,700,11,3,1729.0,680489.099999994,8002,VNB,C,9
10,test,4,0.0,2-Back,1,m,Tue Feb 25 2025 10:04:35 GMT-0600 (Central Standard Time),684517.299999997,025_y_m_n_a.png,I,m,1279,12,3,2295.5,682221.799999997,8002,VNB,C,10
11,test,4,0.0,2-Back,1,z,Tue Feb 25 2025 10:04:35 GMT-0600 (Central Standard Time),687266.3999999911,015_o_m_d_a.png,I,z,1717,13,3,2744.7999999970198,684521.599999994,8002,VNB,C,11
12,test,4,1.0,2-Back,1,m,Tue Feb 25 2025 10:04:35 GMT-0600 (Central Standard Time),689317.700000003,019_m_f_h_a.png,I,m,1025,14,3,2048.1000000089407,687269.599999994,8002,VNB,C,12
13,test,4,1.0,2-Back,1,m,Tue Feb 25 2025 10:04:35 GMT-0600 (Central Standard Time),691448.700000003,022_y_f_h_a.png,I,m,1101,15,3,2126.800000011921,689321.8999999911,8002,VNB,C,13
14,test,4,0.0,2-Back,1,m,Tue Feb 25 2025 10:04:35 GMT-0600 (Central Standard Time),693514.599999994,012_o_f_n_a.png,I,m,1049,16,3,2063.0,691451.599999994,8002,VNB,C,14
15,test,4,0.0,2-Back,1,m,Tue Feb 25 2025 10:04:35 GMT-0600 (Central Standard Time),695747.299999997,025_y_m_d_a.png,I,m,1207,17,3,2229.4000000059605,693517.8999999911,8002,VNB,C,15
16,test,4,1.0,2-Back,1,m,Tue Feb 25 2025 10:04:35 GMT-0600 (Central Standard Time),697963.3999999911,014_m_m_d_a.png,I,m,1190,18,3,2212.699999988079,695750.700000003,8002,VNB,C,16
0,test,5,1.0,2-Back,,,Tue Feb 25 2025 10:04:35 GMT-0600 (Central Standard Time),697963.3999999911,022_y_f_d_a.png,I,space,1478,1,3,2212.699999988079,695750.700000003,8002,VNB,C,0
0,test,5,1.0,2-Back,,,Tue Feb 25 2025 10:04:35 GMT-0600 (Central Standard Time),697963.3999999911,012_o_f_h_a.png,I,space,1478,2,3,2212.699999988079,695750.700000003,8002,VNB,C,0
1,test,5,1.0,2-Back,1,z,Tue Feb 25 2025 10:04:35 GMT-0600 (Central Standard Time),706560.3999999911,015_o_m_d_a.png,I,z,809,3,3,1828.8999999910593,704731.5,8002,VNB,C,1
2,test,5,1.0,2-Back,1,m,Tue Feb 25 2025 10:04:35 GMT-0600 (Central Standard Time),708610.099999994,019_m_f_n_a.png,I,m,1017,4,3,2045.7000000029802,706564.3999999911,8002,VNB,C,2
3,test,5,0.0,2-Back,1,m,Tue Feb 25 2025 10:04:35 GMT-0600 (Central Standard Time),710992.5,014_m_m_h_a.png,I,m,1359,5,3,2378.7000000029802,708613.799999997,8002,VNB,C,3
4,test,5,0.0,2-Back,1,z,Tue Feb 25 2025 10:04:35 GMT-0600 (Central Standard Time),713025.3999999911,022_y_f_n_a.png,I,z,1009,6,3,2029.0999999940395,710996.299999997,8002,VNB,C,4
5,test,5,0.0,2-Back,1,m,Tue Feb 25 2025 10:04:35 GMT-0600 (Central Standard Time),715607.599999994,012_o_f_d_a.png,I,m,1552,7,3,2578.7999999970198,713028.799999997,8002,VNB,C,5
5,test,5,0.0,2-Back,0,m,Tue Feb 25 2025 10:04:35 GMT-0600 (Central Standard Time),718140.299999997,015_o_m_h_a.png,I,z,1506,8,3,2528.7000000029802,715611.599999994,8002,VNB,C,6
6,test,5,1.0,2-Back,1,z,Tue Feb 25 2025 10:04:35 GMT-0600 (Central Standard Time),720422.799999997,019_m_f_d_a.png,I,z,1254,9,3,2277.7000000029802,718145.099999994,8002,VNB,C,7
7,test,5,0.0,2-Back,1,m,Tue Feb 25 2025 10:04:35 GMT-0600 (Central Standard Time),722938.8999999911,025_y_m_n_a.png,I,m,1483,10,3,2512.5,720426.3999999911,8002,VNB,C,8
8,test,5,0.0,2-Back,1,m,Tue Feb 25 2025 10:04:35 GMT-0600 (Central Standard Time),725171.099999994,014_m_m_n_a.png,I,m,1215,11,3,2228.2999999970198,722942.799999997,8002,VNB,C,9
9,test,5,0.0,2-Back,1,m,Tue Feb 25 2025 10:04:35 GMT-0600 (Central Standard Time),727171.0,022_y_f_h_a.png,I,m,974,12,3,1996.1000000089407,725174.8999999911,8002,VNB,C,10
10,test,5,0.0,2-Back,1,m,Tue Feb 25 2025 10:04:35 GMT-0600 (Central Standard Time),729686.299999997,025_y_m_d_a.png,I,m,1486,13,3,2510.7999999970198,727175.5,8002,VNB,C,11
11,test,5,1.0,2-Back,1,z,Tue Feb 25 2025 10:04:35 GMT-0600 (Central Standard Time),731836.0,019_m_f_h_a.png,I,z,1132,14,3,2146.4000000059605,729689.599999994,8002,VNB,C,12
12,test,5,0.0,2-Back,1,m,Tue Feb 25 2025 10:04:35 GMT-0600 (Central Standard Time),734585.200000003,015_o_m_n_a.png,I,m,1725,15,3,2745.9000000059605,731839.299999997,8002,VNB,C,13
12,test,5,0.0,2-Back,0,m,Tue Feb 25 2025 10:04:35 GMT-0600 (Central Standard Time),737617.599999994,014_m_m_d_a.png,I,None,2015,16,3,3028.7999999970198,734588.799999997,8002,VNB,C,14
12,test,5,0.0,2-Back,0,z,Tue Feb 25 2025 10:04:35 GMT-0600 (Central Standard Time),740166.8999999911,012_o_f_n_a.png,I,m,1520,17,3,2545.5999999940395,737621.299999997,8002,VNB,C,15
13,test,5,1.0,2-Back,1,m,Tue Feb 25 2025 10:04:35 GMT-0600 (Central Standard Time),742765.8999999911,025_y_m_h_a.png,I,m,1572,18,3,2595.5,740170.3999999911,8002,VNB,C,16
