acc_sum,block,block_c,condition,correct,correct_response,datetime,endtime,flanker,jitter,project,response,response_test_buffer_response,response_test_target_response,response_time,response_time_test_buffer_response,response_time_test_target_response,row_sel,session_number,start_end,starttime,subject_id,target,task,task_vers,time_test_buffer,time_test_buffer_response,time_test_constants,time_test_flanker,time_test_jitter,time_test_logger,time_test_target,time_test_target_response,time_test_variables,trial
1,prac,1,inc,1,m,Tue Feb 25 2025 09:12:39 GMT-0600 (Central Standard Time),125329.79999999702,raisin,1100,I,m,,,739,,,12,3,3145.0,122184.79999999702,8002,cobalt,NF,C,,,,,,,,,,1
2,prac,1,inc,1,m,Tue Feb 25 2025 09:12:39 GMT-0600 (Central Standard Time),128079.09999999404,cherry,900,I,m,,,542,,,10,3,2744.5999999940395,125334.5,8002,copper,NF,C,,,,,,,,,,2
3,prac,1,con,1,z,Tue Feb 25 2025 09:12:39 GMT-0600 (Central Standard Time),130694.59999999404,lime,800,I,z,,,501,,,5,3,2611.0999999940395,128083.5,8002,lime,NF,C,,,,,,,,,,3
4,prac,1,con,1,m,Tue Feb 25 2025 09:12:39 GMT-0600 (Central Standard Time),133177.29999999702,gold,800,I,m,,,383,,,13,3,2477.5,130699.79999999702,8002,gold,NF,C,,,,,,,,,,4
5,prac,1,con,1,m,Tue Feb 25 2025 09:12:39 GMT-0600 (Central Standard Time),135709.79999999702,bronze,800,I,m,,,418,,,9,3,2524.6000000089407,133185.19999998808,8002,bronze,NF,C,,,,,,,,,,5
6,prac,1,con,1,m,Tue Feb 25 2025 09:12:39 GMT-0600 (Central Standard Time),138475.5,silver,1000,I,m,,,462,,,11,3,2761.300000011921,135714.19999998808,8002,silver,NF,C,,,,,,,,,,6
7,prac,1,inc,1,m,Tue Feb 25 2025 09:12:39 GMT-0600 (Central Standard Time),141374.59999999404,plum,1100,I,m,,,484,,,16,3,2894.5999999940395,138480.0,8002,lead,NF,C,,,,,,,,,,7
8,prac,1,inc,1,z,Tue Feb 25 2025 09:12:39 GMT-0600 (Central Standard Time),144316.29999999702,cobalt,1100,I,z,,,506,,,4,3,2937.4000000059605,141378.89999999106,8002,raisin,NF,C,,,,,,,,,,8
9,prac,1,inc,1,z,Tue Feb 25 2025 09:12:39 GMT-0600 (Central Standard Time),147040.69999998808,iron,900,I,z,,,526,,,6,3,2719.7999999970198,144320.89999999106,8002,pear,NF,C,,,,,,,,,,9
10,prac,1,inc,1,z,Tue Feb 25 2025 09:12:39 GMT-0600 (Central Standard Time),149738.79999999702,copper,900,I,z,,,488,,,2,3,2693.5,147045.29999999702,8002,cherry,NF,C,,,,,,,,,,10
11,prac,1,con,1,m,Tue Feb 25 2025 09:12:39 GMT-0600 (Central Standard Time),152454.5,zinc,1000,I,m,,,401,,,15,3,2710.7000000029802,149743.79999999702,8002,zinc,NF,C,,,,,,,,,,11
12,prac,1,inc,1,z,Tue Feb 25 2025 09:12:39 GMT-0600 (Central Standard Time),155370.39999999106,lead,1100,I,z,,,514,,,8,3,2911.5,152458.89999999106,8002,plum,NF,C,,,,,,,,,,12
13,prac,1,inc,1,m,Tue Feb 25 2025 09:12:39 GMT-0600 (Central Standard Time),157969.59999999404,pear,900,I,m,,,390,,,14,3,2595.2000000029802,155374.39999999106,8002,iron,NF,C,,,,,,,,,,13
14,prac,1,con,1,z,Tue Feb 25 2025 09:12:39 GMT-0600 (Central Standard Time),160518.79999999702,banana,800,I,z,,,434,,,1,3,2545.2000000029802,157973.59999999404,8002,banana,NF,C,,,,,,,,,,14
15,prac,1,con,1,z,Tue Feb 25 2025 09:12:39 GMT-0600 (Central Standard Time),163367.79999999702,orange,1000,I,z,,,541,,,3,3,2844.7999999970198,160523.0,8002,orange,NF,C,,,,,,,,,,15
16,prac,1,con,1,z,Tue Feb 25 2025 09:12:39 GMT-0600 (Central Standard Time),166233.5,kiwi,1000,I,z,,,557,,,7,3,2861.300000011921,163372.19999998808,8002,kiwi,NF,C,,,,,,,,,,16
1,test,1,inc,1,z,Tue Feb 25 2025 09:12:39 GMT-0600 (Central Standard Time),183961.29999999702,copper,900,I,z,z,None,501,301.0,200.0,22,3,1945.9000000059605,182015.39999999106,8002,orange,NF,C,177241,177241,175611,176525,175612,177557,177041,177041,177557,1
2,test,1,inc,1,m,Tue Feb 25 2025 09:12:39 GMT-0600 (Central Standard Time),185994.19999998808,orange,1000,I,m,m,None,491,292.0,199.0,71,3,2028.0,183966.19999998808,8002,bronze,NF,C,179290,179290,177562,178574,177563,179590,179091,179091,179590,2
3,test,1,con,1,m,Tue Feb 25 2025 09:12:39 GMT-0600 (Central Standard Time),187926.69999998808,cobalt,900,I,m,m,None,494,295.0,199.0,90,3,1928.0,185998.69999998808,8002,cobalt,NF,C,181223,181223,179595,180507,179595,181523,181024,181024,181523,3
4,test,1,con,1,m,Tue Feb 25 2025 09:12:39 GMT-0600 (Central Standard Time),189759.59999999404,bronze,800,I,m,m,None,492,277.0,215.0,65,3,1828.4000000059605,187931.19999998808,8002,bronze,NF,C,183073,183073,181527,182340,181528,183356,182857,182857,183356,4
5,test,1,con,1,z,Tue Feb 25 2025 09:12:39 GMT-0600 (Central Standard Time),191693.39999999106,raisin,1000,I,z,z,None,382,181.0,201.0,27,3,1929.7000000029802,189763.69999998808,8002,raisin,NF,C,185105,185105,183360,184372,183360,185289,184904,184904,185289,5
6,test,1,inc,1,z,Tue Feb 25 2025 09:12:39 GMT-0600 (Central Standard Time),193858.19999998808,cobalt,1100,I,z,z,None,523,324.0,199.0,8,3,2160.699999988079,191697.5,8002,banana,NF,C,187121,187122,185294,186405,185294,187454,186922,186922,187454,6
7,test,1,con,1,m,Tue Feb 25 2025 09:12:39 GMT-0600 (Central Standard Time),195724.29999999702,zinc,800,I,m,m,None,530,331.0,199.0,113,3,1862.1000000089407,193862.19999998808,8002,zinc,NF,C,188987,188987,187458,188271,187459,189320,188788,188788,189320,7
8,test,1,con,1,z,Tue Feb 25 2025 09:12:39 GMT-0600 (Central Standard Time),197807.0,plum,1100,I,z,z,None,443,244.0,199.0,60,3,2078.6000000089407,195728.39999999106,8002,plum,NF,C,191154,191154,189324,190438,189325,191403,190954,190954,191403,8
9,test,1,con,1,m,Tue Feb 25 2025 09:12:39 GMT-0600 (Central Standard Time),199840.79999999702,zinc,1000,I,m,m,None,494,294.0,200.0,115,3,2029.7999999970198,197811.0,8002,zinc,NF,C,193136,193136,191407,192420,191407,193437,192936,192936,193437,9
10,test,1,con,1,m,Tue Feb 25 2025 09:12:39 GMT-0600 (Central Standard Time),201989.09999999404,gold,1000,I,m,m,None,604,405.0,199.0,99,3,2144.0999999940395,199845.0,8002,gold,NF,C,195169,195169,193441,194452,193441,195585,194969,194969,195585,10
11,test,1,con,1,m,Tue Feb 25 2025 09:12:39 GMT-0600 (Central Standard Time),203988.0,cobalt,1000,I,m,m,None,464,264.0,200.0,91,3,1994.6000000089407,201993.39999999106,8002,cobalt,NF,C,197318,197318,195589,196602,195590,197584,197118,197118,197584,11
12,test,1,inc,1,m,Tue Feb 25 2025 09:12:39 GMT-0600 (Central Standard Time),205904.39999999106,lime,800,I,m,m,None,568,369.0,199.0,109,3,1912.3999999910593,203992.0,8002,iron,NF,C,199117,199117,197588,198401,197588,199500,198918,198918,199500,12
13,test,1,con,1,z,Tue Feb 25 2025 09:12:39 GMT-0600 (Central Standard Time),207670.59999999404,lime,800,I,z,z,None,419,220.0,199.0,33,3,1762.2999999970198,205908.29999999702,8002,lime,NF,C,201034,201034,199504,200317,199505,201267,200834,200834,201267,13
14,test,1,con,1,m,Tue Feb 25 2025 09:12:39 GMT-0600 (Central Standard Time),209669.89999999106,zinc,1100,I,m,m,None,361,162.0,199.0,116,3,1995.3999999910593,207674.5,8002,zinc,NF,C,203100,203100,201271,202383,201271,203266,202900,202900,203266,14
15,test,1,inc,1,z,Tue Feb 25 2025 09:12:39 GMT-0600 (Central Standard Time),211552.59999999404,gold,800,I,z,z,None,544,344.0,200.0,45,3,1878.7999999970198,209673.79999999702,8002,pear,NF,C,204799,204799,203270,204083,203270,205149,204599,204599,205149,15
16,test,1,con,1,z,Tue Feb 25 2025 09:12:39 GMT-0600 (Central Standard Time),213385.5,raisin,800,I,z,z,None,484,284.0,200.0,25,3,1828.9000000059605,211556.59999999404,8002,raisin,NF,C,206682,206682,205153,205966,205153,206982,206482,206482,206982,16
17,test,1,inc,1,m,Tue Feb 25 2025 09:12:39 GMT-0600 (Central Standard Time),215284.89999999106,banana,800,I,m,m,None,434,230.0,204.0,93,3,1895.3999999910593,213389.5,8002,cobalt,NF,C,208648,208648,206986,207798,206986,208881,208443,208443,208881,17
17,test,1,con,0,m,Tue Feb 25 2025 09:12:39 GMT-0600 (Central Standard Time),217234.09999999404,gold,900,I,z,z,None,509,309.0,200.0,98,3,1945.2999999970198,215288.79999999702,8002,gold,NF,C,210514,210514,208885,209799,208885,210830,210314,210314,210830,18
18,test,1,inc,1,m,Tue Feb 25 2025 09:12:39 GMT-0600 (Central Standard Time),219100.29999999702,banana,800,I,m,m,None,523,323.0,200.0,85,3,1862.2000000029802,217238.09999999404,8002,silver,NF,C,212363,212363,210834,211647,210835,212696,212163,212163,212696,19
19,test,1,inc,1,m,Tue Feb 25 2025 09:12:39 GMT-0600 (Central Standard Time),221049.59999999404,pear,900,I,m,m,None,509,309.0,200.0,110,3,1945.2000000029802,219104.39999999106,8002,iron,NF,C,214329,214329,212700,213613,212701,214646,214129,214129,214646,20
20,test,1,inc,1,m,Tue Feb 25 2025 09:12:39 GMT-0600 (Central Standard Time),223199.09999999404,kiwi,1000,I,m,m,None,611,411.0,200.0,103,3,2145.2999999970198,221053.79999999702,8002,gold,NF,C,216379,216379,214650,215662,214650,216795,216179,216179,216795,21
21,test,1,con,1,m,Tue Feb 25 2025 09:12:39 GMT-0600 (Central Standard Time),225098.59999999404,lead,900,I,m,m,None,451,251.0,200.0,122,3,1894.2999999970198,223204.29999999702,8002,lead,NF,C,218428,218428,216800,217712,216801,218695,218228,218228,218695,22
22,test,1,inc,1,z,Tue Feb 25 2025 09:12:39 GMT-0600 (Central Standard Time),227114.39999999106,gold,800,I,z,z,None,665,466.0,199.0,61,3,2011.7000000029802,225102.69999998808,8002,plum,NF,C,220228,220228,218699,219511,218699,220711,220028,220028,220710,23
23,test,1,con,1,m,Tue Feb 25 2025 09:12:39 GMT-0600 (Central Standard Time),229197.19999998808,iron,1100,I,m,m,None,437,238.0,199.0,108,3,2078.699999988079,227118.5,8002,iron,NF,C,222544,222544,220715,221827,220715,222793,222344,222344,222793,24
24,test,1,inc,1,z,Tue Feb 25 2025 09:12:39 GMT-0600 (Central Standard Time),231163.19999998808,iron,900,I,z,z,None,523,324.0,199.0,54,3,1961.8999999910593,229201.29999999702,8002,kiwi,NF,C,224426,224426,222797,223710,222798,224759,224227,224227,224759,25
25,test,1,inc,1,m,Tue Feb 25 2025 09:12:39 GMT-0600 (Central Standard Time),233362.59999999404,plum,1100,I,m,m,None,558,358.0,200.0,112,3,2195.5,231167.09999999404,8002,iron,NF,C,226592,226592,224763,225876,224764,226959,226392,226392,226959,26
26,test,1,con,1,m,Tue Feb 25 2025 09:12:39 GMT-0600 (Central Standard Time),235361.89999999106,lead,1000,I,m,m,None,457,258.0,199.0,123,3,1995.5999999940395,233366.29999999702,8002,lead,NF,C,228692,228692,226962,227975,226963,228958,228492,228492,228958,27
27,test,1,con,1,m,Tue Feb 25 2025 09:12:39 GMT-0600 (Central Standard Time),237227.69999998808,silver,800,I,m,m,None,532,332.0,200.0,81,3,1861.7999999970198,235365.89999999106,8002,silver,NF,C,230491,230491,228962,229775,228962,230824,230291,230291,230824,28
28,test,1,con,1,z,Tue Feb 25 2025 09:12:39 GMT-0600 (Central Standard Time),239410.79999999702,pear,1100,I,z,z,None,434,234.0,200.0,44,3,2179.5,237231.29999999702,8002,pear,NF,C,232757,232757,230827,232047,230828,233007,232557,232557,233007,29
29,test,1,con,1,z,Tue Feb 25 2025 09:12:39 GMT-0600 (Central Standard Time),241343.29999999702,pear,900,I,z,z,None,485,286.0,199.0,42,3,1928.7999999970198,239414.5,8002,pear,NF,C,234640,234640,233011,233923,233011,234939,234440,234440,234939,30
30,test,1,con,1,z,Tue Feb 25 2025 09:12:39 GMT-0600 (Central Standard Time),243359.29999999702,banana,1000,I,z,z,None,469,270.0,199.0,3,3,2012.2999999970198,241347.0,8002,banana,NF,C,236672,236672,234943,235956,234943,236955,236473,236473,236955,31
31,test,1,inc,1,z,Tue Feb 25 2025 09:12:39 GMT-0600 (Central Standard Time),245525.5,lead,1100,I,z,z,None,521,322.0,199.0,56,3,2162.300000011921,243363.19999998808,8002,kiwi,NF,C,238788,238788,236959,238072,236960,239122,238589,238589,239122,32
32,test,1,inc,1,z,Tue Feb 25 2025 09:12:39 GMT-0600 (Central Standard Time),247591.39999999106,zinc,1000,I,z,z,None,526,327.0,199.0,47,3,2062.2000000029802,245529.19999998808,8002,pear,NF,C,240855,240855,239125,240138,239126,241187,240655,240655,241187,33
33,test,1,inc,1,z,Tue Feb 25 2025 09:12:39 GMT-0600 (Central Standard Time),249674.0,silver,1000,I,z,z,None,540,341.0,199.0,31,3,2079.0,247595.0,8002,raisin,NF,C,242920,242921,241191,242204,241191,243270,242721,242721,243270,34
34,test,1,con,1,m,Tue Feb 25 2025 09:12:39 GMT-0600 (Central Standard Time),251690.29999999702,silver,1000,I,m,m,None,467,267.0,200.0,83,3,2012.2999999970198,249678.0,8002,silver,NF,C,245003,245003,243274,244287,243274,245286,244803,244803,245286,35
35,test,1,inc,1,z,Tue Feb 25 2025 09:12:39 GMT-0600 (Central Standard Time),253639.5,iron,900,I,z,z,None,512,312.0,200.0,62,3,1945.5,251694.0,8002,plum,NF,C,246919,246919,245290,246203,245290,247236,246719,246719,247236,36
36,test,1,inc,1,m,Tue Feb 25 2025 09:12:39 GMT-0600 (Central Standard Time),255488.79999999702,banana,800,I,m,m,None,499,284.0,215.0,69,3,1845.7000000029802,253643.09999999404,8002,bronze,NF,C,248785,248786,247239,248052,247239,249085,248570,248570,249085,37
37,test,1,con,1,z,Tue Feb 25 2025 09:12:39 GMT-0600 (Central Standard Time),257504.79999999702,plum,900,I,z,z,None,568,368.0,200.0,58,3,2012.4000000059605,255492.39999999106,8002,plum,NF,C,250718,250718,249088,250002,249089,251101,250518,250518,251101,38
38,test,1,inc,1,z,Tue Feb 25 2025 09:12:39 GMT-0600 (Central Standard Time),259404.39999999106,bronze,800,I,z,z,None,564,364.0,200.0,21,3,1895.7000000029802,257508.69999998808,8002,orange,NF,C,252634,252634,251105,251918,251105,253000,252434,252434,253000,39
39,test,1,inc,1,m,Tue Feb 25 2025 09:12:39 GMT-0600 (Central Standard Time),261287.0,cherry,900,I,m,m,None,444,245.0,199.0,94,3,1878.5,259408.5,8002,cobalt,NF,C,254633,254633,253005,253917,253005,254883,254434,254434,254883,40
40,test,1,con,1,z,Tue Feb 25 2025 09:12:39 GMT-0600 (Central Standard Time),263303.09999999404,kiwi,1000,I,z,z,None,470,270.0,200.0,51,3,2012.2999999970198,261290.79999999702,8002,kiwi,NF,C,256616,256616,254887,255900,254887,256899,256416,256416,256899,41
41,test,1,con,1,m,Tue Feb 25 2025 09:12:39 GMT-0600 (Central Standard Time),265202.6999999881,silver,900,I,m,m,None,450,251.0,199.0,82,3,1895.8999999910593,263306.799999997,8002,silver,NF,C,258532,258532,256903,257817,256903,258799,258332,258333,258799,42
42,test,1,con,1,z,Tue Feb 25 2025 09:12:39 GMT-0600 (Central Standard Time),267135.39999999106,lime,900,I,z,z,None,493,294.0,199.0,34,3,1928.7999999970198,265206.59999999404,8002,lime,NF,C,260432,260432,258803,259715,258803,260731,260232,260232,260731,43
43,test,1,inc,1,z,Tue Feb 25 2025 09:12:39 GMT-0600 (Central Standard Time),269201.39999999106,zinc,1000,I,z,z,None,516,317.0,199.0,55,3,2062.2000000029802,267139.1999999881,8002,kiwi,NF,C,262464,262465,260735,261748,260736,262797,262265,262265,262797,44
44,test,1,con,1,z,Tue Feb 25 2025 09:12:39 GMT-0600 (Central Standard Time),271100.59999999404,raisin,900,I,z,z,None,454,255.0,199.0,26,3,1895.5,269205.09999999404,8002,raisin,NF,C,264430,264431,262801,263714,262801,264697,264231,264231,264697,45
45,test,1,con,1,z,Tue Feb 25 2025 09:12:39 GMT-0600 (Central Standard Time),273083.59999999404,pear,1000,I,z,z,None,439,240.0,199.0,43,3,1979.2000000029802,271104.39999999106,8002,pear,NF,C,266430,266430,264700,265713,264701,266680,266230,266230,266680,46
46,test,1,inc,1,z,Tue Feb 25 2025 09:12:39 GMT-0600 (Central Standard Time),275082.59999999404,copper,900,I,z,z,None,557,358.0,199.0,14,3,1994.9000000059605,273087.6999999881,8002,cherry,NF,C,268312,268312,266684,267596,266684,268679,268113,268113,268679,47
47,test,1,inc,1,z,Tue Feb 25 2025 09:12:39 GMT-0600 (Central Standard Time),277098.799999997,iron,900,I,z,z,None,583,383.0,200.0,38,3,2012.6000000089407,275086.1999999881,8002,lime,NF,C,270312,270312,268682,269596,268682,270695,270112,270112,270695,48
48,test,1,inc,1,z,Tue Feb 25 2025 09:12:39 GMT-0600 (Central Standard Time),278898.299999997,gold,800,I,z,z,None,450,250.0,200.0,53,3,1795.7999999970198,277102.5,8002,kiwi,NF,C,272228,272228,270699,271512,270699,272494,272028,272028,272494,49
49,test,1,inc,1,z,Tue Feb 25 2025 09:12:39 GMT-0600 (Central Standard Time),280930.799999997,silver,1000,I,z,z,None,483,284.0,199.0,23,3,2029.0,278901.799999997,8002,orange,NF,C,274227,274227,272498,273511,272498,274527,274028,274028,274527,50
50,test,1,con,1,m,Tue Feb 25 2025 09:12:39 GMT-0600 (Central Standard Time),282813.799999997,cobalt,800,I,m,m,None,538,338.0,200.0,89,3,1879.0,280934.799999997,8002,cobalt,NF,C,276060,276060,274531,275344,274531,276410,275860,275860,276410,51
51,test,1,inc,1,m,Tue Feb 25 2025 09:12:39 GMT-0600 (Central Standard Time),284896.39999999106,raisin,1100,I,m,m,None,442,243.0,199.0,96,3,2079.0,282817.39999999106,8002,cobalt,NF,C,278243,278243,276413,277526,276414,278493,278043,278043,278492,52
52,test,1,con,1,z,Tue Feb 25 2025 09:12:39 GMT-0600 (Central Standard Time),286829.0,orange,900,I,z,z,None,488,289.0,199.0,18,3,1928.800000011921,284900.1999999881,8002,orange,NF,C,280125,280126,278496,279410,278497,280425,279926,279926,280425,53
53,test,1,inc,1,m,Tue Feb 25 2025 09:12:39 GMT-0600 (Central Standard Time),288695.299999997,pear,900,I,m,m,None,419,220.0,199.0,102,3,1862.4000000059605,286832.89999999106,8002,gold,NF,C,282058,282058,280429,281342,280429,282291,281859,281859,282291,54
54,test,1,con,1,m,Tue Feb 25 2025 09:12:39 GMT-0600 (Central Standard Time),290761.1999999881,iron,1000,I,m,m,None,527,327.0,200.0,107,3,2062.199999988079,288699.0,8002,iron,NF,C,284024,284024,282295,283308,282295,284357,283824,283824,284357,55
55,test,1,con,1,m,Tue Feb 25 2025 09:12:39 GMT-0600 (Central Standard Time),292743.89999999106,copper,1000,I,m,m,None,444,245.0,199.0,75,3,1979.0,290764.89999999106,8002,copper,NF,C,286090,286090,284361,285374,284361,286340,285891,285891,286340,56
56,test,1,con,1,m,Tue Feb 25 2025 09:12:39 GMT-0600 (Central Standard Time),294609.89999999106,bronze,900,I,m,m,None,417,217.0,200.0,66,3,1862.2999999970198,292747.59999999404,8002,bronze,NF,C,287973,287973,286344,287256,286344,288206,287773,287773,288206,57
57,test,1,con,1,z,Tue Feb 25 2025 09:12:39 GMT-0600 (Central Standard Time),296576.09999999404,cherry,1000,I,z,z,None,419,219.0,200.0,11,3,1961.7000000029802,294614.39999999106,8002,cherry,NF,C,289939,289939,288210,289223,288211,290172,289739,289739,290172,58
58,test,1,inc,1,m,Tue Feb 25 2025 09:12:39 GMT-0600 (Central Standard Time),298542.0,cherry,900,I,m,m,None,521,321.0,200.0,86,3,1961.9000000059605,296580.09999999404,8002,silver,NF,C,291805,291805,290176,291089,290177,292138,291605,291605,292138,59
59,test,1,inc,1,z,Tue Feb 25 2025 09:12:39 GMT-0600 (Central Standard Time),300474.6999999881,copper,900,I,z,z,None,500,300.0,200.0,6,3,1928.8999999910593,298545.799999997,8002,banana,NF,C,293771,293771,292142,293055,292142,294071,293571,293571,294071,60
60,test,1,con,1,z,Tue Feb 25 2025 09:12:39 GMT-0600 (Central Standard Time),302640.799999997,banana,1100,I,z,z,None,526,326.0,200.0,4,3,2162.5,300478.299999997,8002,banana,NF,C,295904,295904,294074,295187,294075,296237,295704,295704,296237,61
61,test,1,con,1,z,Tue Feb 25 2025 09:12:39 GMT-0600 (Central Standard Time),304606.799999997,plum,800,I,z,z,None,621,421.0,200.0,57,3,1962.0,302644.799999997,8002,plum,NF,C,297770,297770,296241,297053,296241,298203,297570,297570,298203,62
62,test,1,inc,1,m,Tue Feb 25 2025 09:12:39 GMT-0600 (Central Standard Time),306623.0,orange,1000,I,m,m,None,478,278.0,200.0,87,3,2012.6000000089407,304610.39999999106,8002,silver,NF,C,299936,299936,298206,299220,298207,300219,299736,299736,300219,63
63,test,1,inc,1,z,Tue Feb 25 2025 09:12:39 GMT-0600 (Central Standard Time),308722.39999999106,cobalt,1100,I,z,z,None,457,258.0,199.0,32,3,2095.7000000029802,306626.6999999881,8002,raisin,NF,C,302052,302052,300223,301336,300223,302318,301852,301852,302318,64
64,test,1,inc,1,m,Tue Feb 25 2025 09:12:39 GMT-0600 (Central Standard Time),310838.299999997,plum,1100,I,m,m,None,469,270.0,199.0,104,3,2112.1000000089407,308726.1999999881,8002,gold,NF,C,304151,304152,302322,303435,302323,304434,303952,303952,304434,65
65,test,1,inc,1,m,Tue Feb 25 2025 09:12:39 GMT-0600 (Central Standard Time),313004.5,raisin,1100,I,m,m,None,523,323.0,200.0,80,3,2162.6000000089407,310841.89999999106,8002,copper,NF,C,306267,306267,304438,305551,304438,306601,306067,306067,306600,66
66,test,1,inc,1,z,Tue Feb 25 2025 09:12:39 GMT-0600 (Central Standard Time),314820.299999997,bronze,800,I,z,z,None,473,273.0,200.0,5,3,1811.9000000059605,313008.39999999106,8002,banana,NF,C,308133,308133,306604,307417,306605,308416,307933,307933,308416,67
67,test,1,inc,1,m,Tue Feb 25 2025 09:12:39 GMT-0600 (Central Standard Time),316802.799999997,orange,1000,I,m,m,None,447,248.0,199.0,79,3,1978.7000000029802,314824.09999999404,8002,copper,NF,C,310150,310150,308420,309433,308420,310399,309950,309950,310399,68
68,test,1,inc,1,z,Tue Feb 25 2025 09:12:39 GMT-0600 (Central Standard Time),318870.1999999881,zinc,1000,I,z,z,None,521,322.0,199.0,63,3,2063.3999999910593,316806.799999997,8002,plum,NF,C,312132,312132,310403,311416,310403,312466,311933,311933,312466,69
69,test,1,inc,1,m,Tue Feb 25 2025 09:12:39 GMT-0600 (Central Standard Time),320868.299999997,kiwi,1000,I,m,m,None,464,264.0,200.0,119,3,1994.2999999970198,318874.0,8002,zinc,NF,C,314198,314198,312470,313482,312470,314464,313998,313998,314464,70
70,test,1,con,1,m,Tue Feb 25 2025 09:12:39 GMT-0600 (Central Standard Time),323017.799999997,copper,800,I,m,m,None,800,601.0,199.0,73,3,2145.7000000029802,320872.09999999404,8002,copper,NF,C,315997,315997,314468,315281,314468,316614,315798,315798,316614,71
71,test,1,con,1,m,Tue Feb 25 2025 09:12:39 GMT-0600 (Central Standard Time),324833.89999999106,lead,800,I,m,m,None,467,267.0,200.0,121,3,1812.2999999970198,323021.59999999404,8002,lead,NF,C,318147,318147,316618,317431,316618,318430,317947,317947,318430,72
72,test,1,inc,1,z,Tue Feb 25 2025 09:12:39 GMT-0600 (Central Standard Time),326599.89999999106,bronze,800,I,z,z,None,419,219.0,200.0,29,3,1762.2999999970198,324837.59999999404,8002,raisin,NF,C,319963,319963,318434,319246,318434,320196,319763,319763,320196,73
73,test,1,inc,1,z,Tue Feb 25 2025 09:12:39 GMT-0600 (Central Standard Time),328765.89999999106,zinc,1000,I,z,z,None,630,430.0,200.0,39,3,2162.0999999940395,326603.799999997,8002,lime,NF,C,321929,321929,320200,321213,320200,322362,321729,321729,322362,74
74,test,1,con,1,z,Tue Feb 25 2025 09:12:39 GMT-0600 (Central Standard Time),330648.6999999881,cherry,800,I,z,z,None,543,343.0,200.0,9,3,1878.8999999910593,328769.799999997,8002,cherry,NF,C,323895,323895,322366,323179,322366,324245,323695,323695,324245,75
75,test,1,con,1,m,Tue Feb 25 2025 09:12:39 GMT-0600 (Central Standard Time),332856.1999999881,copper,1100,I,m,m,None,557,356.0,201.0,76,3,2203.5999999940395,330652.59999999404,8002,copper,NF,C,326079,326079,324249,325362,324249,326452,325878,325878,326452,76
76,test,1,inc,1,m,Tue Feb 25 2025 09:12:39 GMT-0600 (Central Standard Time),334663.6999999881,lime,800,I,m,m,None,468,269.0,199.0,101,3,1803.699999988079,332860.0,8002,gold,NF,C,327977,327977,326456,327261,326456,328260,327777,327777,328260,77
77,test,1,inc,1,m,Tue Feb 25 2025 09:12:39 GMT-0600 (Central Standard Time),336830.09999999404,raisin,1100,I,m,m,None,530,330.0,200.0,88,3,2162.5999999940395,334667.5,8002,silver,NF,C,330093,330093,328264,329377,328264,330426,329893,329893,330426,78
78,test,1,inc,1,z,Tue Feb 25 2025 09:12:39 GMT-0600 (Central Standard Time),338629.39999999106,bronze,800,I,z,z,None,454,255.0,199.0,13,3,1795.3999999910593,336834.0,8002,cherry,NF,C,331959,331959,330430,331243,330430,332226,331760,331760,332225,79
79,test,1,inc,1,z,Tue Feb 25 2025 09:12:39 GMT-0600 (Central Standard Time),340562.5,copper,900,I,z,z,None,482,283.0,199.0,30,3,1929.300000011921,338633.1999999881,8002,raisin,NF,C,333859,333859,332229,333142,332229,334159,333659,333659,334158,80
80,test,1,inc,1,z,Tue Feb 25 2025 09:12:39 GMT-0600 (Central Standard Time),342711.59999999404,cobalt,1100,I,z,z,None,512,312.0,200.0,24,3,2145.5,340566.09999999404,8002,orange,NF,C,335991,335991,334162,335275,334162,336308,335791,335791,336308,81
81,test,1,con,1,z,Tue Feb 25 2025 09:12:39 GMT-0600 (Central Standard Time),344744.1999999881,orange,1000,I,z,z,None,484,285.0,199.0,19,3,2028.8999999910593,342715.299999997,8002,orange,NF,C,338041,338041,336311,337324,336312,338340,337841,337841,338340,82
82,test,1,inc,1,z,Tue Feb 25 2025 09:12:39 GMT-0600 (Central Standard Time),346910.39999999106,cobalt,1100,I,z,z,None,529,329.0,200.0,16,3,2162.2999999970198,344748.09999999404,8002,cherry,NF,C,340173,340174,338344,339457,338345,340506,339973,339973,340506,83
83,test,1,con,1,z,Tue Feb 25 2025 09:12:39 GMT-0600 (Central Standard Time),348826.39999999106,kiwi,900,I,z,z,None,474,275.0,199.0,50,3,1912.2999999970198,346914.09999999404,8002,kiwi,NF,C,342139,342139,340510,341423,340510,342422,341940,341940,342422,84
84,test,1,inc,1,m,Tue Feb 25 2025 09:12:39 GMT-0600 (Central Standard Time),350709.09999999404,pear,900,I,m,m,None,446,247.0,199.0,126,3,1878.7000000029802,348830.39999999106,8002,lead,NF,C,344056,344056,342426,343339,342427,344305,343856,343856,344305,85
85,test,1,inc,1,z,Tue Feb 25 2025 09:12:39 GMT-0600 (Central Standard Time),352641.59999999404,iron,900,I,z,z,None,484,284.0,200.0,46,3,1928.7000000029802,350712.89999999106,8002,pear,NF,C,345938,345938,344309,345222,344309,346238,345738,345738,346238,86
86,test,1,inc,1,z,Tue Feb 25 2025 09:12:39 GMT-0600 (Central Standard Time),354807.799999997,lead,1100,I,z,z,None,527,327.0,200.0,64,3,2162.5,352645.299999997,8002,plum,NF,C,348071,348071,346241,347355,346242,348404,347871,347871,348404,87
87,test,1,con,1,m,Tue Feb 25 2025 09:12:39 GMT-0600 (Central Standard Time),356840.299999997,silver,1100,I,m,m,None,383,169.0,214.0,84,3,2028.9000000059605,354811.39999999106,8002,silver,NF,C,350253,350253,348407,349521,348408,350436,350039,350039,350436,88
88,test,1,con,1,z,Tue Feb 25 2025 09:12:39 GMT-0600 (Central Standard Time),358773.5,banana,800,I,z,z,None,588,389.0,199.0,1,3,1929.6000000089407,356843.89999999106,8002,banana,NF,C,351970,351970,350440,351254,350440,352370,351770,351770,352369,89
89,test,1,con,1,z,Tue Feb 25 2025 09:12:39 GMT-0600 (Central Standard Time),360955.799999997,orange,1100,I,z,z,None,540,340.0,200.0,20,3,2178.7000000029802,358777.09999999404,8002,orange,NF,C,354202,354202,352373,353486,352373,354552,354002,354002,354552,90
90,test,1,con,1,z,Tue Feb 25 2025 09:12:39 GMT-0600 (Central Standard Time),362722.0,orange,800,I,z,z,None,417,217.0,200.0,17,3,1762.6000000089407,360959.39999999106,8002,orange,NF,C,356085,356085,354555,355369,354556,356318,355885,355885,356318,91
91,test,1,con,1,z,Tue Feb 25 2025 09:12:39 GMT-0600 (Central Standard Time),364837.799999997,plum,1000,I,z,z,None,579,379.0,200.0,59,3,2112.2000000029802,362725.59999999404,8002,plum,NF,C,358051,358051,356322,357335,356322,358434,357851,357851,358434,92
92,test,1,con,1,m,Tue Feb 25 2025 09:12:39 GMT-0600 (Central Standard Time),366887.299999997,zinc,900,I,m,m,None,611,411.0,200.0,114,3,2045.7999999970198,364841.5,8002,zinc,NF,C,360067,360067,358438,359351,358438,360483,359867,359867,360483,93
93,test,1,inc,1,z,Tue Feb 25 2025 09:12:39 GMT-0600 (Central Standard Time),369286.59999999404,lead,1100,I,z,z,None,762,563.0,199.0,40,3,2395.5,366891.09999999404,8002,lime,NF,C,362316,362316,360487,361600,360487,362883,362117,362117,362883,94
94,test,1,con,1,m,Tue Feb 25 2025 09:12:39 GMT-0600 (Central Standard Time),371169.39999999106,copper,900,I,m,m,None,433,234.0,199.0,74,3,1879.2999999970198,369290.09999999404,8002,copper,NF,C,364516,364516,362886,363799,362887,364765,364316,364316,364765,95
95,test,1,con,1,z,Tue Feb 25 2025 09:12:39 GMT-0600 (Central Standard Time),372885.59999999404,pear,800,I,z,z,None,371,172.0,199.0,41,3,1712.4000000059605,371173.1999999881,8002,pear,NF,C,366298,366298,364769,365582,364770,366482,366099,366099,366482,96
96,test,1,inc,1,m,Tue Feb 25 2025 09:12:39 GMT-0600 (Central Standard Time),374834.799999997,pear,900,I,m,m,None,506,307.0,199.0,118,3,1945.4000000059605,372889.39999999106,8002,zinc,NF,C,368115,368115,366485,367398,366486,368431,367915,367915,368431,97
97,test,1,inc,1,m,Tue Feb 25 2025 09:12:39 GMT-0600 (Central Standard Time),376901.0,cherry,900,I,m,m,None,630,430.0,200.0,78,3,2062.4000000059605,374838.59999999404,8002,copper,NF,C,370064,370064,368435,369348,368435,370497,369864,369864,370497,98
98,test,1,con,1,z,Tue Feb 25 2025 09:12:39 GMT-0600 (Central Standard Time),379033.5,cherry,1100,I,z,z,None,484,284.0,200.0,12,3,2129.0,376904.5,8002,cherry,NF,C,372330,372330,370501,371614,370501,372630,372130,372130,372630,99
99,test,1,inc,1,z,Tue Feb 25 2025 09:12:39 GMT-0600 (Central Standard Time),381016.39999999106,gold,800,I,z,z,None,543,344.0,199.0,37,3,1979.2999999970198,379037.09999999404,8002,lime,NF,C,374263,374263,372633,373551,372634,374612,374063,374063,374612,100
100,test,1,inc,1,m,Tue Feb 25 2025 09:12:39 GMT-0600 (Central Standard Time),383132.39999999106,plum,1100,I,m,m,None,481,281.0,200.0,120,3,2112.2999999970198,381020.09999999404,8002,zinc,NF,C,376445,376445,374616,375729,374616,376728,376245,376245,376728,101
101,test,1,con,1,m,Tue Feb 25 2025 09:12:39 GMT-0600 (Central Standard Time),384998.39999999106,iron,800,I,m,m,None,519,320.0,199.0,105,3,1862.0999999940395,383136.299999997,8002,iron,NF,C,378261,378262,376732,377545,376733,378594,378062,378062,378594,102
102,test,1,con,1,z,Tue Feb 25 2025 09:12:39 GMT-0600 (Central Standard Time),386847.6999999881,cherry,900,I,z,z,None,402,203.0,199.0,10,3,1845.5999999940395,385002.09999999404,8002,cherry,NF,C,380227,380227,378598,379511,378598,380444,380028,380028,380444,103
103,test,1,inc,1,m,Tue Feb 25 2025 09:12:39 GMT-0600 (Central Standard Time),388914.89999999106,kiwi,1000,I,m,m,None,517,317.0,200.0,111,3,2063.5,386851.39999999106,8002,iron,NF,C,382177,382177,380447,381460,380448,382511,381977,381977,382511,104
104,test,1,con,1,m,Tue Feb 25 2025 09:12:39 GMT-0600 (Central Standard Time),390829.89999999106,gold,800,I,m,m,None,571,371.0,200.0,97,3,1910.8999999910593,388919.0,8002,gold,NF,C,384043,384043,382515,383327,382515,384426,383843,383843,384426,105
105,test,1,con,1,m,Tue Feb 25 2025 09:12:39 GMT-0600 (Central Standard Time),393012.6999999881,bronze,1100,I,m,m,None,540,339.0,201.0,68,3,2179.2999999970198,390833.39999999106,8002,bronze,NF,C,386260,386260,384429,385542,384430,386609,386059,386059,386609,106
106,test,1,con,1,z,Tue Feb 25 2025 09:12:39 GMT-0600 (Central Standard Time),394961.799999997,lime,1000,I,z,z,None,408,209.0,199.0,35,3,1945.4000000059605,393016.39999999106,8002,lime,NF,C,388342,388342,386612,387625,386613,388558,388142,388142,388558,107
107,test,1,inc,1,m,Tue Feb 25 2025 09:12:39 GMT-0600 (Central Standard Time),396911.299999997,cherry,900,I,m,m,None,504,304.0,200.0,70,3,1945.2999999970198,394966.0,8002,bronze,NF,C,390191,390191,388562,389475,388562,390507,389991,389991,390507,108
108,test,1,inc,1,z,Tue Feb 25 2025 09:12:39 GMT-0600 (Central Standard Time),399044.0,lead,1100,I,z,z,None,488,289.0,199.0,48,3,2128.7000000029802,396915.299999997,8002,pear,NF,C,392340,392341,390511,391624,390512,392640,392141,392141,392640,109
109,test,1,con,1,m,Tue Feb 25 2025 09:12:39 GMT-0600 (Central Standard Time),401076.5,cobalt,1100,I,m,m,None,397,197.0,200.0,92,3,2028.7000000029802,399047.799999997,8002,cobalt,NF,C,394473,394473,392644,393757,392644,394673,394273,394273,394673,110
110,test,1,con,1,m,Tue Feb 25 2025 09:12:39 GMT-0600 (Central Standard Time),403592.1999999881,gold,1100,I,m,m,None,868,669.0,199.0,100,3,2511.8999999910593,401080.299999997,8002,gold,NF,C,396505,396506,394676,395789,394677,397188,396306,396306,397188,111
111,test,1,inc,1,m,Tue Feb 25 2025 09:12:39 GMT-0600 (Central Standard Time),405608.5,kiwi,1000,I,m,m,None,468,269.0,199.0,127,3,2010.1000000089407,403598.39999999106,8002,lead,NF,C,398921,398921,397194,398205,397195,399205,398722,398722,399205,112
112,test,1,inc,1,z,Tue Feb 25 2025 09:12:39 GMT-0600 (Central Standard Time),407591.0,silver,1000,I,z,z,None,435,236.0,199.0,7,3,1978.800000011921,405612.1999999881,8002,banana,NF,C,400938,400938,399208,400221,399209,401187,400738,400738,401187,113
113,test,1,inc,1,m,Tue Feb 25 2025 09:12:39 GMT-0600 (Central Standard Time),409724.0,raisin,1100,I,m,m,None,490,290.0,200.0,72,3,2129.6000000089407,407594.39999999106,8002,bronze,NF,C,403020,403020,401190,402304,401191,403320,402820,402820,403320,114
114,test,1,con,1,m,Tue Feb 25 2025 09:12:39 GMT-0600 (Central Standard Time),411673.6999999881,iron,900,I,m,m,None,509,309.0,200.0,106,3,1946.0999999940395,409727.59999999404,8002,iron,NF,C,404953,404953,403324,404237,403324,405270,404753,404753,405270,115
115,test,1,inc,1,m,Tue Feb 25 2025 09:12:39 GMT-0600 (Central Standard Time),413456.0,lime,800,I,m,m,None,436,237.0,199.0,125,3,1778.5,411677.5,8002,lead,NF,C,406802,406802,405273,406086,405274,407052,406603,406603,407052,116
116,test,1,inc,1,z,Tue Feb 25 2025 09:12:39 GMT-0600 (Central Standard Time),415405.59999999404,silver,1000,I,z,z,None,414,214.0,200.0,15,3,1946.0,413459.59999999404,8002,cherry,NF,C,408785,408785,407056,408069,407056,409002,408585,408585,409002,117
117,test,1,con,1,m,Tue Feb 25 2025 09:12:39 GMT-0600 (Central Standard Time),417355.0,bronze,1000,I,m,m,None,399,200.0,199.0,67,3,1945.9000000059605,415409.09999999404,8002,bronze,NF,C,410735,410735,409005,410018,409005,410951,410535,410535,410951,118
118,test,1,inc,1,m,Tue Feb 25 2025 09:12:39 GMT-0600 (Central Standard Time),419188.6999999881,lime,800,I,m,m,None,498,299.0,199.0,117,3,1829.5,417359.1999999881,8002,zinc,NF,C,412484,412484,410955,411768,410955,412785,412284,412284,412785,119
119,test,1,con,1,z,Tue Feb 25 2025 09:12:39 GMT-0600 (Central Standard Time),421220.5,banana,900,I,z,z,None,598,398.0,200.0,2,3,2027.9000000059605,419192.59999999404,8002,banana,NF,C,414417,414417,412789,413701,412789,414817,414217,414217,414816,120
120,test,1,con,1,z,Tue Feb 25 2025 09:12:39 GMT-0600 (Central Standard Time),423353.0,raisin,1100,I,z,z,None,492,293.0,199.0,28,3,2128.800000011921,421224.1999999881,8002,raisin,NF,C,416649,416649,414820,415933,414820,416949,416450,416450,416949,121
121,test,1,con,1,z,Tue Feb 25 2025 09:12:39 GMT-0600 (Central Standard Time),425535.59999999404,kiwi,1100,I,z,z,None,545,345.0,200.0,52,3,2179.0,423356.59999999404,8002,kiwi,NF,C,418782,418782,416953,418066,416953,419132,418582,418582,419132,122
122,test,1,inc,1,m,Tue Feb 25 2025 09:12:39 GMT-0600 (Central Standard Time),427518.59999999404,orange,1000,I,m,m,None,438,238.0,200.0,95,3,1979.2000000029802,425539.39999999106,8002,cobalt,NF,C,420865,420865,419135,420148,419136,421115,420665,420665,421115,123
123,test,1,con,1,z,Tue Feb 25 2025 09:12:39 GMT-0600 (Central Standard Time),429451.0,kiwi,800,I,z,z,None,582,383.0,199.0,49,3,1928.4000000059605,427522.59999999404,8002,kiwi,NF,C,422648,422648,421119,421931,421119,423047,422448,422448,423047,124
124,test,1,con,1,m,Tue Feb 25 2025 09:12:39 GMT-0600 (Central Standard Time),431550.39999999106,lead,1100,I,m,m,None,454,254.0,200.0,124,3,2095.7999999970198,429454.59999999404,8002,lead,NF,C,424880,424880,423051,424164,423051,425146,424680,424680,425146,125
125,test,1,inc,1,m,Tue Feb 25 2025 09:12:39 GMT-0600 (Central Standard Time),433516.6999999881,banana,800,I,m,m,None,622,423.0,199.0,77,3,1962.5999999940395,431554.09999999404,8002,copper,NF,C,426679,426680,425150,425963,425150,427113,426480,426480,427113,126
126,test,1,inc,1,m,Tue Feb 25 2025 09:12:39 GMT-0600 (Central Standard Time),435682.6999999881,plum,1100,I,m,m,None,532,333.0,199.0,128,3,2162.199999988079,433520.5,8002,lead,NF,C,428946,428946,427117,428229,427117,429279,428746,428746,429279,127
127,test,1,con,1,z,Tue Feb 25 2025 09:12:39 GMT-0600 (Central Standard Time),437781.799999997,lime,1100,I,z,z,None,454,255.0,199.0,36,3,2095.2000000029802,435686.59999999404,8002,lime,NF,C,431111,431111,429283,430395,429283,431378,430912,430912,431378,128
