acc_sum,block,block_c,change,condition,correct,correct_response,datetime,endtime,face,project,response,response_time,row_sel,session_number,start_end,starttime,subject_id,task,task_vers,trial
0,prac,1,,1-Back,,,Mon Mar 03 2025 13:48:47 GMT-0600 (Central Standard Time),,124_o_f_d_a.png,O,space,7940,1,1,,,7075,VNB,A,0
1,prac,1,0.0,1-Back,1,m,Mon Mar 03 2025 13:48:47 GMT-0600 (Central Standard Time),133910.29999995232,071_y_f_n_a.png,O,m,1267,2,1,2052.2999999523163,131858.0,7075,VNB,A,1
1,prac,1,0.0,1-Back,0,m,Mon Mar 03 2025 13:48:47 GMT-0600 (Central Standard Time),136043.70000004768,165_m_m_h_a.png,O,z,1342,3,1,2123.3000000715256,133920.39999997616,7075,VNB,A,2
2,prac,1,0.0,1-Back,1,m,Mon Mar 03 2025 13:48:47 GMT-0600 (Central Standard Time),138757.60000002384,109_y_m_d_a.png,O,m,1904,4,1,2702.7000000476837,136054.89999997616,7075,VNB,A,3
3,prac,1,0.0,1-Back,1,m,Mon Mar 03 2025 13:48:47 GMT-0600 (Central Standard Time),140908.60000002384,124_o_f_n_a.png,O,m,1316,5,1,2140.5,138768.10000002384,7075,VNB,A,4
3,prac,1,1.0,1-Back,0,z,Mon Mar 03 2025 13:48:47 GMT-0600 (Central Standard Time),142789.10000002384,109_y_m_n_a.png,O,m,1076,6,1,1871.1000000238419,140918.0,7075,VNB,A,5
3,prac,1,0.0,1-Back,0,m,Mon Mar 03 2025 13:48:47 GMT-0600 (Central Standard Time),145073.79999995232,039_o_m_h_a.png,O,z,1496,7,1,2274.399999976158,142799.39999997616,7075,VNB,A,6
4,prac,1,0.0,1-Back,1,m,Mon Mar 03 2025 13:48:47 GMT-0600 (Central Standard Time),147405.60000002384,139_m_f_d_a.png,O,m,1532,8,1,2321.0,145084.60000002384,7075,VNB,A,7
5,prac,1,1.0,1-Back,1,z,Mon Mar 03 2025 13:48:47 GMT-0600 (Central Standard Time),149588.5,071_y_f_d_a.png,O,z,1373,9,1,2170.899999976158,147417.60000002384,7075,VNB,A,8
6,prac,1,0.0,1-Back,1,m,Mon Mar 03 2025 13:48:47 GMT-0600 (Central Standard Time),151689.5,165_m_m_n_a.png,O,m,1302,10,1,2088.7999999523163,149600.70000004768,7075,VNB,A,9
7,prac,1,0.0,1-Back,1,m,Mon Mar 03 2025 13:48:47 GMT-0600 (Central Standard Time),154071.10000002384,124_o_f_h_a.png,O,m,1566,11,1,2370.0,151701.10000002384,7075,VNB,A,10
8,prac,1,0.0,1-Back,1,m,Mon Mar 03 2025 13:48:47 GMT-0600 (Central Standard Time),155638.10000002384,109_y_m_d_a.png,O,m,793,12,1,1556.2000000476837,154081.89999997616,7075,VNB,A,11
0,test,1,0.0,1-Back,,,Mon Mar 03 2025 13:48:47 GMT-0600 (Central Standard Time),155638.10000002384,071_y_f_d_a.png,O,space,8695,1,1,1556.2000000476837,154081.89999997616,7075,VNB,A,0
1,test,1,0.0,1-Back,1,m,Mon Mar 03 2025 13:48:47 GMT-0600 (Central Standard Time),176845.79999995232,139_m_f_n_a.png,O,m,1137,2,1,2157.0999999046326,174688.70000004768,7075,VNB,A,1
2,test,1,0.0,1-Back,1,m,Mon Mar 03 2025 13:48:47 GMT-0600 (Central Standard Time),178928.10000002384,039_o_m_h_a.png,O,m,1060,3,1,2070.399999976158,176857.70000004768,7075,VNB,A,2
3,test,1,1.0,1-Back,1,z,Mon Mar 03 2025 13:48:47 GMT-0600 (Central Standard Time),180828.89999997616,165_m_m_h_a.png,O,z,881,4,1,1891.8999999761581,178937.0,7075,VNB,A,3
4,test,1,0.0,1-Back,1,m,Mon Mar 03 2025 13:48:47 GMT-0600 (Central Standard Time),182645.10000002384,124_o_f_n_a.png,O,m,800,5,1,1806.8999999761581,180838.20000004768,7075,VNB,A,4
5,test,1,0.0,1-Back,1,m,Mon Mar 03 2025 13:48:47 GMT-0600 (Central Standard Time),184760.60000002384,109_y_m_d_a.png,O,m,1084,6,1,2105.7000000476837,182654.89999997616,7075,VNB,A,5
6,test,1,1.0,1-Back,1,z,Mon Mar 03 2025 13:48:47 GMT-0600 (Central Standard Time),186876.29999995232,139_m_f_d_a.png,O,z,1091,7,1,2106.7999999523163,184769.5,7075,VNB,A,6
7,test,1,0.0,1-Back,1,m,Mon Mar 03 2025 13:48:47 GMT-0600 (Central Standard Time),189058.0,071_y_f_h_a.png,O,m,1149,8,1,2172.2999999523163,186885.70000004768,7075,VNB,A,7
8,test,1,0.0,1-Back,1,m,Mon Mar 03 2025 13:48:47 GMT-0600 (Central Standard Time),191508.0,039_o_m_n_a.png,O,m,1415,9,1,2440.600000023842,189067.39999997616,7075,VNB,A,8
9,test,1,0.0,1-Back,1,m,Mon Mar 03 2025 13:48:47 GMT-0600 (Central Standard Time),193708.60000002384,109_y_m_h_a.png,O,m,1183,10,1,2190.3000000715256,191518.29999995232,7075,VNB,A,9
10,test,1,0.0,1-Back,1,m,Mon Mar 03 2025 13:48:47 GMT-0600 (Central Standard Time),195605.79999995232,039_o_m_d_a.png,O,m,879,11,1,1886.8999999761581,193718.89999997616,7075,VNB,A,10
11,test,1,1.0,1-Back,1,z,Mon Mar 03 2025 13:48:47 GMT-0600 (Central Standard Time),197375.5,124_o_f_d_a.png,O,z,752,12,1,1757.6000000238419,195617.89999997616,7075,VNB,A,11
12,test,1,0.0,1-Back,1,m,Mon Mar 03 2025 13:48:47 GMT-0600 (Central Standard Time),199555.89999997616,165_m_m_n_a.png,O,m,1149,13,1,2171.600000023842,197384.29999995232,7075,VNB,A,12
12,test,1,1.0,1-Back,0,z,Mon Mar 03 2025 13:48:47 GMT-0600 (Central Standard Time),202588.79999995232,071_y_f_n_a.png,O,None,2014,14,1,3023.399999976158,199565.39999997616,7075,VNB,A,13
13,test,1,0.0,1-Back,1,m,Mon Mar 03 2025 13:48:47 GMT-0600 (Central Standard Time),205470.0,139_m_f_h_a.png,O,m,1853,15,1,2870.7000000476837,202599.29999995232,7075,VNB,A,14
14,test,1,0.0,1-Back,1,m,Mon Mar 03 2025 13:48:47 GMT-0600 (Central Standard Time),207535.89999997616,165_m_m_d_a.png,O,m,1037,16,1,2056.6999999284744,205479.20000004768,7075,VNB,A,15
15,test,1,0.0,1-Back,1,m,Mon Mar 03 2025 13:48:47 GMT-0600 (Central Standard Time),209419.10000002384,109_y_m_n_a.png,O,m,850,17,1,1872.8999999761581,207546.20000004768,7075,VNB,A,16
16,test,1,0.0,1-Back,1,m,Mon Mar 03 2025 13:48:47 GMT-0600 (Central Standard Time),211600.79999995232,124_o_f_h_a.png,O,m,1159,18,1,2171.5999999046326,209429.20000004768,7075,VNB,A,17
0,test,2,0.0,1-Back,,,Mon Mar 03 2025 13:48:47 GMT-0600 (Central Standard Time),211600.79999995232,109_y_m_n_a.png,O,space,1369,1,1,2171.5999999046326,209429.20000004768,7075,VNB,A,0
1,test,2,0.0,1-Back,1,m,Mon Mar 03 2025 13:48:47 GMT-0600 (Central Standard Time),217049.0,071_y_f_h_a.png,O,m,1028,2,1,2038.8999999761581,215010.10000002384,7075,VNB,A,1
2,test,2,1.0,1-Back,1,m,Mon Mar 03 2025 13:48:47 GMT-0600 (Central Standard Time),219015.39999997616,039_o_m_n_a.png,O,m,945,3,1,1956.6000000238419,217058.79999995232,7075,VNB,A,2
3,test,2,0.0,1-Back,1,m,Mon Mar 03 2025 13:48:47 GMT-0600 (Central Standard Time),220998.29999995232,139_m_f_d_a.png,O,m,950,4,1,1973.8999999761581,219024.39999997616,7075,VNB,A,3
4,test,2,0.0,1-Back,1,z,Mon Mar 03 2025 13:48:47 GMT-0600 (Central Standard Time),222714.0,165_m_m_d_a.png,O,z,691,5,1,1706.1000000238419,221007.89999997616,7075,VNB,A,4
5,test,2,0.0,1-Back,1,m,Mon Mar 03 2025 13:48:47 GMT-0600 (Central Standard Time),224781.89999997616,109_y_m_h_a.png,O,m,1050,6,1,2059.2999999523163,222722.60000002384,7075,VNB,A,5
6,test,2,1.0,1-Back,1,z,Mon Mar 03 2025 13:48:47 GMT-0600 (Central Standard Time),226463.0,124_o_f_h_a.png,O,z,664,7,1,1670.3999999761581,224792.60000002384,7075,VNB,A,6
7,test,2,0.0,1-Back,1,m,Mon Mar 03 2025 13:48:47 GMT-0600 (Central Standard Time),228346.29999995232,139_m_f_n_a.png,O,m,850,8,1,1873.5,226472.79999995232,7075,VNB,A,7
8,test,2,0.0,1-Back,1,m,Mon Mar 03 2025 13:48:47 GMT-0600 (Central Standard Time),230711.79999995232,071_y_f_d_a.png,O,m,1335,9,1,2354.6999999284744,228357.10000002384,7075,VNB,A,8
9,test,2,0.0,1-Back,1,m,Mon Mar 03 2025 13:48:47 GMT-0600 (Central Standard Time),232511.60000002384,165_m_m_n_a.png,O,m,779,10,1,1789.3999999761581,230722.20000004768,7075,VNB,A,9
10,test,2,1.0,1-Back,1,m,Mon Mar 03 2025 13:48:47 GMT-0600 (Central Standard Time),234360.89999997616,139_m_f_h_a.png,O,m,818,11,1,1839.2999999523163,232521.60000002384,7075,VNB,A,10
11,test,2,0.0,1-Back,1,z,Mon Mar 03 2025 13:48:47 GMT-0600 (Central Standard Time),236359.0,039_o_m_h_a.png,O,z,977,12,1,1988.5,234370.5,7075,VNB,A,11
12,test,2,0.0,1-Back,1,m,Mon Mar 03 2025 13:48:47 GMT-0600 (Central Standard Time),238444.29999995232,109_y_m_d_a.png,O,m,1050,13,1,2075.2999999523163,236369.0,7075,VNB,A,12
13,test,2,0.0,1-Back,1,m,Mon Mar 03 2025 13:48:47 GMT-0600 (Central Standard Time),240408.60000002384,124_o_f_n_a.png,O,m,941,14,1,1955.5,238453.10000002384,7075,VNB,A,13
14,test,2,0.0,1-Back,1,z,Mon Mar 03 2025 13:48:47 GMT-0600 (Central Standard Time),242375.29999995232,071_y_f_n_a.png,O,z,937,15,1,1960.7999999523163,240414.5,7075,VNB,A,14
15,test,2,1.0,1-Back,1,m,Mon Mar 03 2025 13:48:47 GMT-0600 (Central Standard Time),244507.5,165_m_m_h_a.png,O,m,1108,16,1,2123.399999976158,242384.10000002384,7075,VNB,A,15
16,test,2,0.0,1-Back,1,m,Mon Mar 03 2025 13:48:47 GMT-0600 (Central Standard Time),246773.20000004768,124_o_f_d_a.png,O,m,1246,17,1,2256.100000023842,244517.10000002384,7075,VNB,A,16
17,test,2,1.0,1-Back,1,z,Mon Mar 03 2025 13:48:47 GMT-0600 (Central Standard Time),248722.70000004768,039_o_m_d_a.png,O,z,926,18,1,1939.4000000953674,246783.29999995232,7075,VNB,A,17
0,test,3,1.0,1-Back,,,Mon Mar 03 2025 13:48:47 GMT-0600 (Central Standard Time),248722.70000004768,124_o_f_h_a.png,O,space,1367,1,1,1939.4000000953674,246783.29999995232,7075,VNB,A,0
1,test,3,0.0,1-Back,1,m,Mon Mar 03 2025 13:48:47 GMT-0600 (Central Standard Time),254038.5,139_m_f_d_a.png,O,m,856,2,1,1872.6000000238419,252165.89999997616,7075,VNB,A,1
2,test,3,1.0,1-Back,1,m,Mon Mar 03 2025 13:48:47 GMT-0600 (Central Standard Time),255920.5,165_m_m_n_a.png,O,m,861,3,1,1871.8999999761581,254048.60000002384,7075,VNB,A,2
3,test,3,0.0,1-Back,1,z,Mon Mar 03 2025 13:48:47 GMT-0600 (Central Standard Time),257619.89999997616,124_o_f_n_a.png,O,z,674,4,1,1690.1000000238419,255929.79999995232,7075,VNB,A,3
4,test,3,1.0,1-Back,1,m,Mon Mar 03 2025 13:48:47 GMT-0600 (Central Standard Time),259621.20000004768,039_o_m_d_a.png,O,m,983,5,1,1990.8000000715256,257630.39999997616,7075,VNB,A,4
5,test,3,0.0,1-Back,1,m,Mon Mar 03 2025 13:48:47 GMT-0600 (Central Standard Time),261718.79999995232,071_y_f_h_a.png,O,m,1070,6,1,2087.1999999284744,259631.60000002384,7075,VNB,A,5
6,test,3,0.0,1-Back,1,z,Mon Mar 03 2025 13:48:47 GMT-0600 (Central Standard Time),263286.2999999523,109_y_m_h_a.png,O,z,550,7,1,1557.2999999523163,261729.0,7075,VNB,A,6
7,test,3,0.0,1-Back,1,m,Mon Mar 03 2025 13:48:47 GMT-0600 (Central Standard Time),265334.89999997616,139_m_f_n_a.png,O,m,1016,8,1,2040.6999999284744,263294.2000000477,7075,VNB,A,7
8,test,3,0.0,1-Back,1,m,Mon Mar 03 2025 13:48:47 GMT-0600 (Central Standard Time),267333.0,071_y_f_d_a.png,O,m,980,9,1,1987.7999999523163,265345.2000000477,7075,VNB,A,8
9,test,3,1.0,1-Back,1,m,Mon Mar 03 2025 13:48:47 GMT-0600 (Central Standard Time),269932.10000002384,039_o_m_n_a.png,O,m,1573,10,1,2591.100000023842,267341.0,7075,VNB,A,9
10,test,3,0.0,1-Back,1,m,Mon Mar 03 2025 13:48:47 GMT-0600 (Central Standard Time),272632.5,165_m_m_h_a.png,O,m,1669,11,1,2690.7000000476837,269941.7999999523,7075,VNB,A,10
10,test,3,0.0,1-Back,0,z,Mon Mar 03 2025 13:48:47 GMT-0600 (Central Standard Time),275549.10000002384,139_m_f_h_a.png,O,m,1890,12,1,2907.2000000476837,272641.89999997616,7075,VNB,A,11
11,test,3,1.0,1-Back,1,m,Mon Mar 03 2025 13:48:47 GMT-0600 (Central Standard Time),277395.7000000477,124_o_f_d_a.png,O,m,829,13,1,1836.5,275559.2000000477,7075,VNB,A,12
12,test,3,0.0,1-Back,1,z,Mon Mar 03 2025 13:48:47 GMT-0600 (Central Standard Time),279315.2999999523,165_m_m_d_a.png,O,z,885,14,1,1911.2999999523163,277404.0,7075,VNB,A,13
13,test,3,0.0,1-Back,1,m,Mon Mar 03 2025 13:48:47 GMT-0600 (Central Standard Time),281312.39999997616,109_y_m_n_a.png,O,m,977,15,1,1987.0,279325.39999997616,7075,VNB,A,14
14,test,3,1.0,1-Back,1,m,Mon Mar 03 2025 13:48:47 GMT-0600 (Central Standard Time),283246.7000000477,039_o_m_h_a.png,O,m,915,16,1,1924.6000000238419,281322.10000002384,7075,VNB,A,15
15,test,3,0.0,1-Back,1,m,Mon Mar 03 2025 13:48:47 GMT-0600 (Central Standard Time),285443.0,109_y_m_d_a.png,O,m,1181,17,1,2186.7000000476837,283256.2999999523,7075,VNB,A,16
16,test,3,1.0,1-Back,1,m,Mon Mar 03 2025 13:48:47 GMT-0600 (Central Standard Time),287976.89999997616,071_y_f_n_a.png,O,m,1509,18,1,2528.6999999284744,285448.2000000477,7075,VNB,A,17
0,test,4,1.0,1-Back,,,Mon Mar 03 2025 13:48:47 GMT-0600 (Central Standard Time),287976.89999997616,165_m_m_d_a.png,O,space,1098,1,1,2528.6999999284744,285448.2000000477,7075,VNB,A,0
1,test,4,0.0,1-Back,1,z,Mon Mar 03 2025 13:48:47 GMT-0600 (Central Standard Time),293278.0,039_o_m_d_a.png,O,z,1142,2,1,2159.2000000476837,291118.7999999523,7075,VNB,A,1
2,test,4,0.0,1-Back,1,m,Mon Mar 03 2025 13:48:47 GMT-0600 (Central Standard Time),295157.7000000477,109_y_m_h_a.png,O,m,855,3,1,1874.2000000476837,293283.5,7075,VNB,A,2
3,test,4,0.0,1-Back,1,m,Mon Mar 03 2025 13:48:47 GMT-0600 (Central Standard Time),297243.0,139_m_f_n_a.png,O,m,1060,4,1,2076.5,295166.5,7075,VNB,A,3
4,test,4,1.0,1-Back,1,m,Mon Mar 03 2025 13:48:47 GMT-0600 (Central Standard Time),299339.7999999523,124_o_f_h_a.png,O,m,1081,5,1,2085.6999999284744,297254.10000002384,7075,VNB,A,4
5,test,4,0.0,1-Back,1,m,Mon Mar 03 2025 13:48:47 GMT-0600 (Central Standard Time),301222.7999999523,165_m_m_n_a.png,O,m,853,6,1,1875.2999999523163,299347.5,7075,VNB,A,5
6,test,4,0.0,1-Back,1,m,Mon Mar 03 2025 13:48:47 GMT-0600 (Central Standard Time),303422.2999999523,109_y_m_d_a.png,O,m,1170,7,1,2190.0,301232.2999999523,7075,VNB,A,6
7,test,4,1.0,1-Back,1,z,Mon Mar 03 2025 13:48:47 GMT-0600 (Central Standard Time),305572.2999999523,071_y_f_d_a.png,O,z,1132,8,1,2140.7999999523163,303431.5,7075,VNB,A,7
8,test,4,0.0,1-Back,1,m,Mon Mar 03 2025 13:48:47 GMT-0600 (Central Standard Time),307437.89999997616,139_m_f_h_a.png,O,m,847,9,1,1856.1000000238419,305581.7999999523,7075,VNB,A,8
9,test,4,0.0,1-Back,1,z,Mon Mar 03 2025 13:48:47 GMT-0600 (Central Standard Time),309253.2999999523,039_o_m_h_a.png,O,z,790,10,1,1804.5,307448.7999999523,7075,VNB,A,9
10,test,4,1.0,1-Back,1,m,Mon Mar 03 2025 13:48:47 GMT-0600 (Central Standard Time),311302.2999999523,124_o_f_n_a.png,O,m,1032,11,1,2039.6999999284744,309262.60000002384,7075,VNB,A,10
11,test,4,0.0,1-Back,1,m,Mon Mar 03 2025 13:48:47 GMT-0600 (Central Standard Time),313135.39999997616,139_m_f_d_a.png,O,m,802,12,1,1823.2999999523163,311312.10000002384,7075,VNB,A,11
12,test,4,0.0,1-Back,1,m,Mon Mar 03 2025 13:48:47 GMT-0600 (Central Standard Time),315069.2000000477,071_y_f_n_a.png,O,m,906,13,1,1924.1000000238419,313145.10000002384,7075,VNB,A,12
13,test,4,0.0,1-Back,1,m,Mon Mar 03 2025 13:48:47 GMT-0600 (Central Standard Time),317584.2999999523,124_o_f_d_a.png,O,m,1494,14,1,2504.5999999046326,315079.7000000477,7075,VNB,A,13
14,test,4,0.0,1-Back,1,m,Mon Mar 03 2025 13:48:47 GMT-0600 (Central Standard Time),320116.5,071_y_f_h_a.png,O,m,1517,15,1,2525.5,317591.0,7075,VNB,A,14
15,test,4,1.0,1-Back,1,z,Mon Mar 03 2025 13:48:47 GMT-0600 (Central Standard Time),321799.7000000477,165_m_m_h_a.png,O,z,665,16,1,1672.9000000953674,320126.7999999523,7075,VNB,A,15
16,test,4,0.0,1-Back,1,m,Mon Mar 03 2025 13:48:47 GMT-0600 (Central Standard Time),323649.39999997616,039_o_m_n_a.png,O,m,818,17,1,1839.5,321809.89999997616,7075,VNB,A,16
17,test,4,1.0,1-Back,1,z,Mon Mar 03 2025 13:48:47 GMT-0600 (Central Standard Time),326448.7000000477,109_y_m_n_a.png,O,z,1769,18,1,2790.4000000953674,323658.2999999523,7075,VNB,A,17
0,test,5,1.0,1-Back,,,Mon Mar 03 2025 13:48:47 GMT-0600 (Central Standard Time),326448.7000000477,039_o_m_n_a.png,O,space,1041,1,1,2790.4000000953674,323658.2999999523,7075,VNB,A,0
1,test,5,1.0,1-Back,1,m,Mon Mar 03 2025 13:48:47 GMT-0600 (Central Standard Time),331446.7000000477,124_o_f_h_a.png,O,m,914,2,1,1921.5,329525.2000000477,7075,VNB,A,1
2,test,5,0.0,1-Back,1,m,Mon Mar 03 2025 13:48:47 GMT-0600 (Central Standard Time),333895.0,109_y_m_d_a.png,O,m,1429,3,1,2439.899999976158,331455.10000002384,7075,VNB,A,2
3,test,5,0.0,1-Back,1,z,Mon Mar 03 2025 13:48:47 GMT-0600 (Central Standard Time),335777.5,039_o_m_d_a.png,O,z,859,4,1,1874.5,333903.0,7075,VNB,A,3
4,test,5,0.0,1-Back,1,m,Mon Mar 03 2025 13:48:47 GMT-0600 (Central Standard Time),337794.89999997616,139_m_f_h_a.png,O,m,982,5,1,2006.6000000238419,335788.2999999523,7075,VNB,A,4
4,test,5,0.0,1-Back,0,m,Mon Mar 03 2025 13:48:47 GMT-0600 (Central Standard Time),339643.5,071_y_f_n_a.png,O,z,824,6,1,1838.7999999523163,337804.7000000477,7075,VNB,A,5
5,test,5,1.0,1-Back,1,z,Mon Mar 03 2025 13:48:47 GMT-0600 (Central Standard Time),342425.89999997616,124_o_f_n_a.png,O,z,1759,7,1,2772.600000023842,339653.2999999523,7075,VNB,A,6
6,test,5,0.0,1-Back,1,m,Mon Mar 03 2025 13:48:47 GMT-0600 (Central Standard Time),344492.39999997616,139_m_f_d_a.png,O,m,1040,8,1,2056.1999999284744,342436.2000000477,7075,VNB,A,7
7,test,5,0.0,1-Back,1,m,Mon Mar 03 2025 13:48:47 GMT-0600 (Central Standard Time),346392.2999999523,109_y_m_h_a.png,O,m,878,9,1,1889.5,344502.7999999523,7075,VNB,A,8
8,test,5,0.0,1-Back,1,m,Mon Mar 03 2025 13:48:47 GMT-0600 (Central Standard Time),349074.0,071_y_f_d_a.png,O,m,1650,10,1,2671.5,346402.5,7075,VNB,A,9
9,test,5,0.0,1-Back,1,m,Mon Mar 03 2025 13:48:47 GMT-0600 (Central Standard Time),351572.89999997616,165_m_m_n_a.png,O,m,1472,11,1,2490.1999999284744,349082.7000000477,7075,VNB,A,10
10,test,5,1.0,1-Back,1,z,Mon Mar 03 2025 13:48:47 GMT-0600 (Central Standard Time),353188.5,139_m_f_n_a.png,O,z,590,12,1,1605.8999999761581,351582.60000002384,7075,VNB,A,11
11,test,5,0.0,1-Back,1,m,Mon Mar 03 2025 13:48:47 GMT-0600 (Central Standard Time),355324.60000002384,039_o_m_h_a.png,O,m,1116,13,1,2126.5,353198.10000002384,7075,VNB,A,12
12,test,5,0.0,1-Back,1,z,Mon Mar 03 2025 13:48:47 GMT-0600 (Central Standard Time),357121.2000000477,165_m_m_h_a.png,O,z,775,14,1,1789.5,355331.7000000477,7075,VNB,A,13
13,test,5,1.0,1-Back,1,m,Mon Mar 03 2025 13:48:47 GMT-0600 (Central Standard Time),359137.7999999523,124_o_f_d_a.png,O,m,984,15,1,2007.7999999523163,357130.0,7075,VNB,A,14
14,test,5,0.0,1-Back,1,m,Mon Mar 03 2025 13:48:47 GMT-0600 (Central Standard Time),361222.0,109_y_m_n_a.png,O,m,1065,16,1,2075.899999976158,359146.10000002384,7075,VNB,A,15
15,test,5,0.0,1-Back,1,m,Mon Mar 03 2025 13:48:47 GMT-0600 (Central Standard Time),363441.2000000477,071_y_f_h_a.png,O,m,1189,17,1,2209.2000000476837,361232.0,7075,VNB,A,16
16,test,5,0.0,1-Back,1,m,Mon Mar 03 2025 13:48:47 GMT-0600 (Central Standard Time),365686.10000002384,165_m_m_d_a.png,O,m,1220,18,1,2234.0,363452.10000002384,7075,VNB,A,17
0,prac,1,0.0,2-Back,,,Mon Mar 03 2025 13:48:47 GMT-0600 (Central Standard Time),365686.10000002384,139_m_f_n_a.png,O,space,8018,1,1,2234.0,363452.10000002384,7075,VNB,A,0
0,prac,1,0.0,2-Back,,,Mon Mar 03 2025 13:48:47 GMT-0600 (Central Standard Time),365686.10000002384,124_o_f_h_a.png,O,space,8018,2,1,2234.0,363452.10000002384,7075,VNB,A,0
0,prac,1,0.0,2-Back,0,m,Mon Mar 03 2025 13:48:47 GMT-0600 (Central Standard Time),469519.89999997616,039_o_m_d_a.png,O,None,2006,3,1,2777.399999976158,466742.5,7075,VNB,A,1
1,prac,1,1.0,2-Back,1,z,Mon Mar 03 2025 13:48:47 GMT-0600 (Central Standard Time),472136.2000000477,165_m_m_h_a.png,O,z,1819,4,1,2605.600000023842,469530.60000002384,7075,VNB,A,2
1,prac,1,0.0,2-Back,0,m,Mon Mar 03 2025 13:48:47 GMT-0600 (Central Standard Time),474269.10000002384,071_y_f_n_a.png,O,z,1333,5,1,2122.3000000715256,472146.7999999523,7075,VNB,A,3
1,prac,1,1.0,2-Back,0,z,Mon Mar 03 2025 13:48:47 GMT-0600 (Central Standard Time),476501.2999999523,039_o_m_h_a.png,O,m,1424,6,1,2221.5999999046326,474279.7000000477,7075,VNB,A,4
1,prac,1,1.0,2-Back,0,z,Mon Mar 03 2025 13:48:47 GMT-0600 (Central Standard Time),479318.7999999523,109_y_m_n_a.png,O,None,2013,7,1,2807.0999999046326,476511.7000000477,7075,VNB,A,5
1,prac,1,0.0,2-Back,0,m,Mon Mar 03 2025 13:48:47 GMT-0600 (Central Standard Time),481100.0,139_m_f_d_a.png,O,z,983,8,1,1770.1000000238419,479329.89999997616,7075,VNB,A,6
1,prac,1,0.0,2-Back,0,m,Mon Mar 03 2025 13:48:47 GMT-0600 (Central Standard Time),482780.39999997616,124_o_f_d_a.png,O,z,852,9,1,1670.0,481110.39999997616,7075,VNB,A,7
2,prac,1,0.0,2-Back,1,m,Mon Mar 03 2025 13:48:47 GMT-0600 (Central Standard Time),484282.0,165_m_m_h_a.png,O,m,719,10,1,1493.6000000238419,482788.39999997616,7075,VNB,A,8
3,prac,1,1.0,2-Back,1,z,Mon Mar 03 2025 13:48:47 GMT-0600 (Central Standard Time),485964.5,071_y_f_d_a.png,O,z,875,11,1,1672.5,484292.0,7075,VNB,A,9
4,prac,1,0.0,2-Back,1,m,Mon Mar 03 2025 13:48:47 GMT-0600 (Central Standard Time),487982.39999997616,039_o_m_n_a.png,O,m,1221,12,1,2009.3999999761581,485973.0,7075,VNB,A,10
0,prac,2,0.0,2-Back,,,Mon Mar 03 2025 13:48:47 GMT-0600 (Central Standard Time),487982.39999997616,139_m_f_n_a.png,O,a,8874,1,1,2009.3999999761581,485973.0,7075,VNB,A,0
0,prac,2,0.0,2-Back,,,Mon Mar 03 2025 13:48:47 GMT-0600 (Central Standard Time),487982.39999997616,124_o_f_h_a.png,O,a,8874,2,1,2009.3999999761581,485973.0,7075,VNB,A,0
1,prac,2,0.0,2-Back,1,m,Mon Mar 03 2025 13:48:47 GMT-0600 (Central Standard Time),503791.2000000477,039_o_m_d_a.png,O,m,1020,3,1,1822.6000000238419,501968.60000002384,7075,VNB,A,1
2,prac,2,1.0,2-Back,1,z,Mon Mar 03 2025 13:48:47 GMT-0600 (Central Standard Time),505692.7000000477,165_m_m_h_a.png,O,z,1123,4,1,1890.4000000953674,503802.2999999523,7075,VNB,A,2
3,prac,2,0.0,2-Back,1,m,Mon Mar 03 2025 13:48:47 GMT-0600 (Central Standard Time),507525.10000002384,071_y_f_n_a.png,O,m,1032,5,1,1820.3000000715256,505704.7999999523,7075,VNB,A,3
4,prac,2,1.0,2-Back,1,z,Mon Mar 03 2025 13:48:47 GMT-0600 (Central Standard Time),509690.39999997616,039_o_m_h_a.png,O,z,1360,6,1,2154.0,507536.39999997616,7075,VNB,A,4
4,prac,2,1.0,2-Back,0,z,Mon Mar 03 2025 13:48:47 GMT-0600 (Central Standard Time),511440.7999999523,109_y_m_n_a.png,O,m,939,7,1,1739.3999999761581,509701.39999997616,7075,VNB,A,5
5,prac,2,0.0,2-Back,1,m,Mon Mar 03 2025 13:48:47 GMT-0600 (Central Standard Time),513506.10000002384,139_m_f_d_a.png,O,m,1256,8,1,2054.2000000476837,511451.89999997616,7075,VNB,A,6
6,prac,2,0.0,2-Back,1,m,Mon Mar 03 2025 13:48:47 GMT-0600 (Central Standard Time),515937.89999997616,124_o_f_d_a.png,O,m,1614,9,1,2421.0,513516.89999997616,7075,VNB,A,7
6,prac,2,0.0,2-Back,0,m,Mon Mar 03 2025 13:48:47 GMT-0600 (Central Standard Time),517204.2000000477,165_m_m_h_a.png,O,z,490,10,1,1255.1000000238419,515949.10000002384,7075,VNB,A,8
7,prac,2,1.0,2-Back,1,z,Mon Mar 03 2025 13:48:47 GMT-0600 (Central Standard Time),518636.89999997616,071_y_f_d_a.png,O,z,636,11,1,1422.6999999284744,517214.2000000477,7075,VNB,A,9
7,prac,2,0.0,2-Back,0,m,Mon Mar 03 2025 13:48:47 GMT-0600 (Central Standard Time),521036.60000002384,039_o_m_n_a.png,O,z,1590,12,1,2388.3000000715256,518648.2999999523,7075,VNB,A,10
0,test,1,0.0,2-Back,,,Mon Mar 03 2025 13:48:47 GMT-0600 (Central Standard Time),521036.60000002384,109_y_m_h_a.png,O,space,8540,1,1,2388.3000000715256,518648.2999999523,7075,VNB,A,0
0,test,1,0.0,2-Back,,,Mon Mar 03 2025 13:48:47 GMT-0600 (Central Standard Time),521036.60000002384,124_o_f_n_a.png,O,space,8540,2,1,2388.3000000715256,518648.2999999523,7075,VNB,A,0
1,test,1,0.0,2-Back,1,z,Mon Mar 03 2025 13:48:47 GMT-0600 (Central Standard Time),545728.7000000477,039_o_m_h_a.png,O,z,1035,3,1,2055.600000023842,543673.1000000238,7075,VNB,A,1
2,test,1,0.0,2-Back,1,m,Mon Mar 03 2025 13:48:47 GMT-0600 (Central Standard Time),547960.5,139_m_f_d_a.png,O,m,1208,4,1,2222.0,545738.5,7075,VNB,A,2
2,test,1,1.0,2-Back,0,m,Mon Mar 03 2025 13:48:47 GMT-0600 (Central Standard Time),550993.2999999523,109_y_m_n_a.png,O,None,2014,5,1,3022.6999999284744,547970.6000000238,7075,VNB,A,3
3,test,1,0.0,2-Back,1,z,Mon Mar 03 2025 13:48:47 GMT-0600 (Central Standard Time),553527.1000000238,071_y_f_d_a.png,O,z,1516,6,1,2524.899999976158,551002.2000000477,7075,VNB,A,4
3,test,1,0.0,2-Back,0,m,Mon Mar 03 2025 13:48:47 GMT-0600 (Central Standard Time),556259.3999999762,165_m_m_h_a.png,O,z,1700,7,1,2721.6999999284744,553537.7000000477,7075,VNB,A,5
4,test,1,1.0,2-Back,1,m,Mon Mar 03 2025 13:48:47 GMT-0600 (Central Standard Time),558308.8999999762,071_y_f_n_a.png,O,m,1033,8,1,2039.5,556269.3999999762,7075,VNB,A,6
5,test,1,0.0,2-Back,1,z,Mon Mar 03 2025 13:48:47 GMT-0600 (Central Standard Time),560941.7999999523,124_o_f_h_a.png,O,z,1616,9,1,2623.1999999284744,558318.6000000238,7075,VNB,A,7
5,test,1,0.0,2-Back,0,m,Mon Mar 03 2025 13:48:47 GMT-0600 (Central Standard Time),563970.2999999523,039_o_m_d_a.png,O,None,2011,10,1,3019.6999999284744,560950.6000000238,7075,VNB,A,8
5,test,1,1.0,2-Back,0,m,Mon Mar 03 2025 13:48:47 GMT-0600 (Central Standard Time),566991.6000000238,165_m_m_d_a.png,O,None,2005,11,1,3015.5,563976.1000000238,7075,VNB,A,9
5,test,1,0.0,2-Back,0,m,Mon Mar 03 2025 13:48:47 GMT-0600 (Central Standard Time),569986.2999999523,139_m_f_n_a.png,O,z,1972,12,1,2989.0,566997.2999999523,7075,VNB,A,10
6,test,1,0.0,2-Back,1,m,Mon Mar 03 2025 13:48:47 GMT-0600 (Central Standard Time),572170.6000000238,071_y_f_h_a.png,O,m,1160,13,1,2178.8000000715256,569991.7999999523,7075,VNB,A,11
7,test,1,0.0,2-Back,1,z,Mon Mar 03 2025 13:48:47 GMT-0600 (Central Standard Time),574070.7000000477,165_m_m_n_a.png,O,z,882,14,1,1890.4000000953674,572180.2999999523,7075,VNB,A,12
8,test,1,0.0,2-Back,1,m,Mon Mar 03 2025 13:48:47 GMT-0600 (Central Standard Time),575968.2000000477,109_y_m_d_a.png,O,m,878,15,1,1889.5,574078.7000000477,7075,VNB,A,13
8,test,1,1.0,2-Back,0,m,Mon Mar 03 2025 13:48:47 GMT-0600 (Central Standard Time),578201.8999999762,139_m_f_h_a.png,O,z,1209,16,1,2224.5,575977.3999999762,7075,VNB,A,14
8,test,1,0.0,2-Back,0,z,Mon Mar 03 2025 13:48:47 GMT-0600 (Central Standard Time),580817.2000000477,124_o_f_d_a.png,O,m,1586,17,1,2606.0,578211.2000000477,7075,VNB,A,15
9,test,1,0.0,2-Back,1,m,Mon Mar 03 2025 13:48:47 GMT-0600 (Central Standard Time),582850.3999999762,039_o_m_n_a.png,O,m,1001,18,1,2022.8999999761581,580827.5,7075,VNB,A,16
0,test,2,0.0,2-Back,,,Mon Mar 03 2025 13:48:47 GMT-0600 (Central Standard Time),582850.3999999762,165_m_m_h_a.png,O,space,1368,1,1,2022.8999999761581,580827.5,7075,VNB,A,0
0,test,2,0.0,2-Back,,,Mon Mar 03 2025 13:48:47 GMT-0600 (Central Standard Time),582850.3999999762,071_y_f_n_a.png,O,space,1368,2,1,2022.8999999761581,580827.5,7075,VNB,A,0
1,test,2,1.0,2-Back,1,z,Mon Mar 03 2025 13:48:47 GMT-0600 (Central Standard Time),591364.3999999762,124_o_f_h_a.png,O,z,1023,3,1,2039.6000000238419,589324.7999999523,7075,VNB,A,1
2,test,2,0.0,2-Back,1,m,Mon Mar 03 2025 13:48:47 GMT-0600 (Central Standard Time),593414.2999999523,039_o_m_d_a.png,O,m,1033,4,1,2040.0,591374.2999999523,7075,VNB,A,2
3,test,2,0.0,2-Back,1,m,Mon Mar 03 2025 13:48:47 GMT-0600 (Central Standard Time),595965.1000000238,139_m_f_d_a.png,O,m,1534,5,1,2541.5,593423.6000000238,7075,VNB,A,3
4,test,2,0.0,2-Back,1,m,Mon Mar 03 2025 13:48:47 GMT-0600 (Central Standard Time),598560.1000000238,109_y_m_h_a.png,O,m,1575,6,1,2586.100000023842,595974.0,7075,VNB,A,4
4,test,2,0.0,2-Back,0,m,Mon Mar 03 2025 13:48:47 GMT-0600 (Central Standard Time),601210.2999999523,124_o_f_n_a.png,O,z,1615,7,1,2640.899999976158,598569.3999999762,7075,VNB,A,5
5,test,2,1.0,2-Back,1,z,Mon Mar 03 2025 13:48:47 GMT-0600 (Central Standard Time),603342.2999999523,039_o_m_h_a.png,O,z,1111,8,1,2121.5,601220.7999999523,7075,VNB,A,6
6,test,2,0.0,2-Back,1,m,Mon Mar 03 2025 13:48:47 GMT-0600 (Central Standard Time),605526.0,071_y_f_d_a.png,O,m,1161,9,1,2173.2999999523163,603352.7000000477,7075,VNB,A,7
7,test,2,0.0,2-Back,1,m,Mon Mar 03 2025 13:48:47 GMT-0600 (Central Standard Time),608191.2000000477,109_y_m_d_a.png,O,m,1636,10,1,2656.3000000715256,605534.8999999762,7075,VNB,A,8
7,test,2,0.0,2-Back,0,m,Mon Mar 03 2025 13:48:47 GMT-0600 (Central Standard Time),610058.2000000477,165_m_m_n_a.png,O,z,834,11,1,1857.0,608201.2000000477,7075,VNB,A,9
7,test,2,0.0,2-Back,0,m,Mon Mar 03 2025 13:48:47 GMT-0600 (Central Standard Time),613091.2999999523,139_m_f_h_a.png,O,None,2016,12,1,3022.7999999523163,610068.5,7075,VNB,A,10
7,test,2,1.0,2-Back,0,z,Mon Mar 03 2025 13:48:47 GMT-0600 (Central Standard Time),615922.8999999762,039_o_m_n_a.png,O,m,1809,13,1,2821.899999976158,613101.0,7075,VNB,A,11
7,test,2,0.0,2-Back,0,m,Mon Mar 03 2025 13:48:47 GMT-0600 (Central Standard Time),618088.6000000238,124_o_f_d_a.png,O,z,1135,14,1,2156.399999976158,615932.2000000477,7075,VNB,A,12
7,test,2,0.0,2-Back,0,m,Mon Mar 03 2025 13:48:47 GMT-0600 (Central Standard Time),621120.8999999762,071_y_f_h_a.png,O,None,2014,15,1,3022.5,618098.3999999762,7075,VNB,A,13
8,test,2,0.0,2-Back,1,z,Mon Mar 03 2025 13:48:47 GMT-0600 (Central Standard Time),624101.1000000238,165_m_m_d_a.png,O,z,1959,16,1,2969.899999976158,621131.2000000477,7075,VNB,A,14
9,test,2,0.0,2-Back,1,m,Mon Mar 03 2025 13:48:47 GMT-0600 (Central Standard Time),626919.2000000477,109_y_m_n_a.png,O,m,1787,17,1,2812.5,624106.7000000477,7075,VNB,A,15
10,test,2,1.0,2-Back,1,m,Mon Mar 03 2025 13:48:47 GMT-0600 (Central Standard Time),629536.0,139_m_f_n_a.png,O,m,1587,18,1,2605.7999999523163,626930.2000000477,7075,VNB,A,16
0,test,3,1.0,2-Back,,,Mon Mar 03 2025 13:48:47 GMT-0600 (Central Standard Time),629536.0,039_o_m_n_a.png,O,space,1203,1,1,2605.7999999523163,626930.2000000477,7075,VNB,A,0
0,test,3,1.0,2-Back,,,Mon Mar 03 2025 13:48:47 GMT-0600 (Central Standard Time),629536.0,124_o_f_d_a.png,O,space,1203,2,1,2605.7999999523163,626930.2000000477,7075,VNB,A,0
1,test,3,0.0,2-Back,1,m,Mon Mar 03 2025 13:48:47 GMT-0600 (Central Standard Time),638781.6000000238,071_y_f_h_a.png,O,m,1947,3,1,2956.5,635825.1000000238,7075,VNB,A,1
2,test,3,0.0,2-Back,1,z,Mon Mar 03 2025 13:48:47 GMT-0600 (Central Standard Time),640699.5,139_m_f_d_a.png,O,z,900,4,1,1909.7999999523163,638789.7000000477,7075,VNB,A,2
3,test,3,1.0,2-Back,1,m,Mon Mar 03 2025 13:48:47 GMT-0600 (Central Standard Time),642750.0,109_y_m_n_a.png,O,m,1034,5,1,2041.5,640708.5,7075,VNB,A,3
3,test,3,0.0,2-Back,0,m,Mon Mar 03 2025 13:48:47 GMT-0600 (Central Standard Time),644981.0,039_o_m_h_a.png,O,z,1207,6,1,2221.5,642759.5,7075,VNB,A,4
3,test,3,0.0,2-Back,0,z,Mon Mar 03 2025 13:48:47 GMT-0600 (Central Standard Time),647529.7999999523,071_y_f_n_a.png,O,m,1515,7,1,2538.0999999046326,644991.7000000477,7075,VNB,A,5
3,test,3,1.0,2-Back,0,m,Mon Mar 03 2025 13:48:47 GMT-0600 (Central Standard Time),650562.8999999762,165_m_m_d_a.png,O,None,2017,8,1,3022.5,647540.3999999762,7075,VNB,A,6
4,test,3,0.0,2-Back,1,m,Mon Mar 03 2025 13:48:47 GMT-0600 (Central Standard Time),653144.6000000238,109_y_m_d_a.png,O,m,1561,9,1,2572.3000000715256,650572.2999999523,7075,VNB,A,7
5,test,3,0.0,2-Back,1,m,Mon Mar 03 2025 13:48:47 GMT-0600 (Central Standard Time),655560.7000000477,124_o_f_h_a.png,O,m,1387,10,1,2406.0,653154.7000000477,7075,VNB,A,8
5,test,3,1.0,2-Back,0,m,Mon Mar 03 2025 13:48:47 GMT-0600 (Central Standard Time),657759.5,139_m_f_n_a.png,O,z,1177,11,1,2189.0,655570.5,7075,VNB,A,9
5,test,3,1.0,2-Back,0,z,Mon Mar 03 2025 13:48:47 GMT-0600 (Central Standard Time),659742.2999999523,165_m_m_h_a.png,O,m,956,12,1,1973.0999999046326,657769.2000000477,7075,VNB,A,10
5,test,3,0.0,2-Back,0,m,Mon Mar 03 2025 13:48:47 GMT-0600 (Central Standard Time),662774.5,071_y_f_d_a.png,O,None,2013,13,1,3022.2000000476837,659752.2999999523,7075,VNB,A,11
6,test,3,0.0,2-Back,1,m,Mon Mar 03 2025 13:48:47 GMT-0600 (Central Standard Time),665091.8999999762,124_o_f_n_a.png,O,m,1301,14,1,2305.2999999523163,662786.6000000238,7075,VNB,A,12
6,test,3,0.0,2-Back,0,z,Mon Mar 03 2025 13:48:47 GMT-0600 (Central Standard Time),668123.3999999762,039_o_m_d_a.png,O,None,2014,15,1,3023.7999999523163,665099.6000000238,7075,VNB,A,13
6,test,3,1.0,2-Back,0,m,Mon Mar 03 2025 13:48:47 GMT-0600 (Central Standard Time),670339.2999999523,139_m_f_h_a.png,O,z,1183,16,1,2204.899999976158,668134.3999999762,7075,VNB,A,14
7,test,3,0.0,2-Back,1,m,Mon Mar 03 2025 13:48:47 GMT-0600 (Central Standard Time),671954.8999999762,165_m_m_n_a.png,O,m,592,17,1,1605.6000000238419,670349.2999999523,7075,VNB,A,15
8,test,3,0.0,2-Back,1,z,Mon Mar 03 2025 13:48:47 GMT-0600 (Central Standard Time),673420.6000000238,109_y_m_h_a.png,O,z,439,18,1,1455.5,671965.1000000238,7075,VNB,A,16
0,test,4,0.0,2-Back,,,Mon Mar 03 2025 13:48:47 GMT-0600 (Central Standard Time),673420.6000000238,139_m_f_n_a.png,O,space,1110,1,1,1455.5,671965.1000000238,7075,VNB,A,0
0,test,4,0.0,2-Back,,,Mon Mar 03 2025 13:48:47 GMT-0600 (Central Standard Time),673420.6000000238,039_o_m_n_a.png,O,space,1110,2,1,1455.5,671965.1000000238,7075,VNB,A,0
1,test,4,1.0,2-Back,1,m,Mon Mar 03 2025 13:48:47 GMT-0600 (Central Standard Time),681685.0,109_y_m_h_a.png,O,m,1040,3,1,2055.0,679630.0,7075,VNB,A,1
2,test,4,1.0,2-Back,1,m,Mon Mar 03 2025 13:48:47 GMT-0600 (Central Standard Time),683952.6000000238,124_o_f_d_a.png,O,m,1233,4,1,2256.899999976158,681695.7000000477,7075,VNB,A,2
3,test,4,0.0,2-Back,1,z,Mon Mar 03 2025 13:48:47 GMT-0600 (Central Standard Time),685817.8999999762,039_o_m_h_a.png,O,z,835,5,1,1855.0,683962.8999999762,7075,VNB,A,3
4,test,4,0.0,2-Back,1,m,Mon Mar 03 2025 13:48:47 GMT-0600 (Central Standard Time),688049.8999999762,165_m_m_n_a.png,O,m,1209,6,1,2221.6999999284744,685828.2000000477,7075,VNB,A,4
4,test,4,0.0,2-Back,0,m,Mon Mar 03 2025 13:48:47 GMT-0600 (Central Standard Time),689832.3999999762,139_m_f_d_a.png,O,z,750,7,1,1772.1999999284744,688060.2000000477,7075,VNB,A,5
4,test,4,0.0,2-Back,0,z,Mon Mar 03 2025 13:48:47 GMT-0600 (Central Standard Time),692865.0,071_y_f_n_a.png,O,None,2015,8,1,3021.399999976158,689843.6000000238,7075,VNB,A,6
4,test,4,1.0,2-Back,0,m,Mon Mar 03 2025 13:48:47 GMT-0600 (Central Standard Time),694348.0,124_o_f_h_a.png,O,z,464,9,1,1471.8999999761581,692876.1000000238,7075,VNB,A,7
5,test,4,0.0,2-Back,1,m,Mon Mar 03 2025 13:48:47 GMT-0600 (Central Standard Time),696748.3999999762,165_m_m_h_a.png,O,m,1374,10,1,2390.2999999523163,694358.1000000238,7075,VNB,A,8
6,test,4,0.0,2-Back,1,m,Mon Mar 03 2025 13:48:47 GMT-0600 (Central Standard Time),698896.5,071_y_f_d_a.png,O,m,1118,11,1,2137.5,696759.0,7075,VNB,A,9
7,test,4,0.0,2-Back,1,m,Mon Mar 03 2025 13:48:47 GMT-0600 (Central Standard Time),701428.2999999523,109_y_m_n_a.png,O,m,1515,12,1,2521.5,698906.7999999523,7075,VNB,A,10
7,test,4,0.0,2-Back,0,z,Mon Mar 03 2025 13:48:47 GMT-0600 (Central Standard Time),703444.6000000238,039_o_m_d_a.png,O,m,988,13,1,2007.2000000476837,701437.3999999762,7075,VNB,A,11
7,test,4,1.0,2-Back,0,m,Mon Mar 03 2025 13:48:47 GMT-0600 (Central Standard Time),706044.6000000238,139_m_f_h_a.png,O,z,1583,14,1,2589.7000000476837,703454.8999999762,7075,VNB,A,12
8,test,4,1.0,2-Back,1,m,Mon Mar 03 2025 13:48:47 GMT-0600 (Central Standard Time),708360.1000000238,071_y_f_h_a.png,O,m,1286,15,1,2304.5,706055.6000000238,7075,VNB,A,13
9,test,4,0.0,2-Back,1,m,Mon Mar 03 2025 13:48:47 GMT-0600 (Central Standard Time),711275.7999999523,124_o_f_n_a.png,O,m,1897,16,1,2905.5999999046326,708370.2000000477,7075,VNB,A,14
9,test,4,0.0,2-Back,0,m,Mon Mar 03 2025 13:48:47 GMT-0600 (Central Standard Time),713076.7000000477,109_y_m_d_a.png,O,z,767,17,1,1792.3000000715256,711284.3999999762,7075,VNB,A,15
10,test,4,1.0,2-Back,1,m,Mon Mar 03 2025 13:48:47 GMT-0600 (Central Standard Time),715358.2999999523,165_m_m_d_a.png,O,m,1263,18,1,2270.5,713087.7999999523,7075,VNB,A,16
0,test,5,1.0,2-Back,,,Mon Mar 03 2025 13:48:47 GMT-0600 (Central Standard Time),715358.2999999523,071_y_f_d_a.png,O,space,1215,1,1,2270.5,713087.7999999523,7075,VNB,A,0
0,test,5,1.0,2-Back,,,Mon Mar 03 2025 13:48:47 GMT-0600 (Central Standard Time),715358.2999999523,124_o_f_h_a.png,O,space,1215,2,1,2270.5,713087.7999999523,7075,VNB,A,0
1,test,5,1.0,2-Back,1,z,Mon Mar 03 2025 13:48:47 GMT-0600 (Central Standard Time),723921.8999999762,039_o_m_d_a.png,O,z,1218,3,1,2240.6999999284744,721681.2000000477,7075,VNB,A,1
2,test,5,1.0,2-Back,1,m,Mon Mar 03 2025 13:48:47 GMT-0600 (Central Standard Time),726454.2000000477,139_m_f_n_a.png,O,m,1504,4,1,2520.8000000715256,723933.3999999762,7075,VNB,A,2
3,test,5,0.0,2-Back,1,m,Mon Mar 03 2025 13:48:47 GMT-0600 (Central Standard Time),728785.8999999762,165_m_m_h_a.png,O,m,1299,5,1,2321.6999999284744,726464.2000000477,7075,VNB,A,3
4,test,5,0.0,2-Back,1,z,Mon Mar 03 2025 13:48:47 GMT-0600 (Central Standard Time),730787.8999999762,071_y_f_n_a.png,O,z,983,6,1,1991.5,728796.3999999762,7075,VNB,A,4
4,test,5,0.0,2-Back,0,m,Mon Mar 03 2025 13:48:47 GMT-0600 (Central Standard Time),733151.8999999762,124_o_f_d_a.png,O,z,1335,7,1,2353.100000023842,730798.7999999523,7075,VNB,A,5
5,test,5,0.0,2-Back,1,m,Mon Mar 03 2025 13:48:47 GMT-0600 (Central Standard Time),735334.3999999762,039_o_m_h_a.png,O,m,1164,8,1,2172.399999976158,733162.0,7075,VNB,A,6
5,test,5,1.0,2-Back,0,z,Mon Mar 03 2025 13:48:47 GMT-0600 (Central Standard Time),737669.5,139_m_f_d_a.png,O,m,1316,9,1,2324.600000023842,735344.8999999762,7075,VNB,A,7
5,test,5,0.0,2-Back,0,m,Mon Mar 03 2025 13:48:47 GMT-0600 (Central Standard Time),739898.1000000238,109_y_m_n_a.png,O,z,1205,10,1,2220.899999976158,737677.2000000477,7075,VNB,A,8
5,test,5,0.0,2-Back,0,m,Mon Mar 03 2025 13:48:47 GMT-0600 (Central Standard Time),742933.2000000477,165_m_m_n_a.png,O,None,2015,11,1,3026.100000023842,739907.1000000238,7075,VNB,A,9
6,test,5,0.0,2-Back,1,m,Mon Mar 03 2025 13:48:47 GMT-0600 (Central Standard Time),745481.6000000238,071_y_f_h_a.png,O,m,1517,12,1,2538.5,742943.1000000238,7075,VNB,A,10
7,test,5,0.0,2-Back,1,m,Mon Mar 03 2025 13:48:47 GMT-0600 (Central Standard Time),747549.0,109_y_m_d_a.png,O,m,1050,13,1,2057.7000000476837,745491.2999999523,7075,VNB,A,11
7,test,5,1.0,2-Back,0,z,Mon Mar 03 2025 13:48:47 GMT-0600 (Central Standard Time),749895.7000000477,139_m_f_h_a.png,O,m,1317,14,1,2338.600000023842,747557.1000000238,7075,VNB,A,12
7,test,5,0.0,2-Back,0,m,Mon Mar 03 2025 13:48:47 GMT-0600 (Central Standard Time),751982.2000000477,039_o_m_n_a.png,O,z,1068,15,1,2077.100000023842,749905.1000000238,7075,VNB,A,13
8,test,5,0.0,2-Back,1,m,Mon Mar 03 2025 13:48:47 GMT-0600 (Central Standard Time),754479.8999999762,165_m_m_d_a.png,O,m,1471,16,1,2487.1999999284744,751992.7000000477,7075,VNB,A,14
9,test,5,0.0,2-Back,1,z,Mon Mar 03 2025 13:48:47 GMT-0600 (Central Standard Time),756562.2999999523,124_o_f_n_a.png,O,z,1058,17,1,2076.0999999046326,754486.2000000477,7075,VNB,A,15
10,test,5,1.0,2-Back,1,m,Mon Mar 03 2025 13:48:47 GMT-0600 (Central Standard Time),758579.3999999762,109_y_m_h_a.png,O,m,1000,18,1,2006.1999999284744,756573.2000000477,7075,VNB,A,16
