acc_sum,block,block_c,change,condition,correct,correct_response,datetime,endtime,face,project,response,response_time,row_sel,session_number,start_end,starttime,subject_id,task,task_vers,trial
0,prac,1,,1-Back,,,Wed Mar 19 2025 17:08:27 GMT-0500 (Central Daylight Time),,012_o_f_d_a.png,O,space,10809,1,1,,,7065,VNB,C,0
1,prac,1,0.0,1-Back,1,m,Wed Mar 19 2025 17:08:27 GMT-0500 (Central Daylight Time),140834.7999999998,022_y_f_n_a.png,O,m,1626,2,1,2523.2000000001863,138311.59999999963,7065,VNB,C,1
2,prac,1,0.0,1-Back,1,m,Wed Mar 19 2025 17:08:27 GMT-0500 (Central Daylight Time),142867.39999999944,014_m_m_h_a.png,O,m,1152,3,1,2024.8999999994412,140842.5,7065,VNB,C,2
3,prac,1,0.0,1-Back,1,m,Wed Mar 19 2025 17:08:27 GMT-0500 (Central Daylight Time),144567.2999999998,025_y_m_d_a.png,O,m,824,4,1,1693.7999999998137,142873.5,7065,VNB,C,3
4,prac,1,0.0,1-Back,1,m,Wed Mar 19 2025 17:08:27 GMT-0500 (Central Daylight Time),146499.89999999944,012_o_f_n_a.png,O,m,1043,5,1,1927.0,144572.89999999944,7065,VNB,C,4
5,prac,1,1.0,1-Back,1,z,Wed Mar 19 2025 17:08:27 GMT-0500 (Central Daylight Time),148982.39999999944,025_y_m_n_a.png,O,z,1603,6,1,2475.0,146507.39999999944,7065,VNB,C,5
6,prac,1,0.0,1-Back,1,m,Wed Mar 19 2025 17:08:27 GMT-0500 (Central Daylight Time),150965.5,015_o_m_h_a.png,O,m,1073,7,1,1976.6000000005588,148988.89999999944,7065,VNB,C,6
7,prac,1,0.0,1-Back,1,m,Wed Mar 19 2025 17:08:27 GMT-0500 (Central Daylight Time),152549.09999999963,019_m_f_d_a.png,O,m,701,8,1,1576.9000000003725,150972.19999999925,7065,VNB,C,7
8,prac,1,1.0,1-Back,1,z,Wed Mar 19 2025 17:08:27 GMT-0500 (Central Daylight Time),154815.0,022_y_f_d_a.png,O,z,1374,9,1,2260.2000000001863,152554.7999999998,7065,VNB,C,8
9,prac,1,0.0,1-Back,1,m,Wed Mar 19 2025 17:08:27 GMT-0500 (Central Daylight Time),157030.09999999963,014_m_m_n_a.png,O,m,1326,10,1,2207.2999999998137,154822.7999999998,7065,VNB,C,9
10,prac,1,0.0,1-Back,1,m,Wed Mar 19 2025 17:08:27 GMT-0500 (Central Daylight Time),158979.2999999998,012_o_f_h_a.png,O,m,1058,11,1,1943.7000000001863,157035.59999999963,7065,VNB,C,10
11,prac,1,0.0,1-Back,1,m,Wed Mar 19 2025 17:08:27 GMT-0500 (Central Daylight Time),160895.2999999998,025_y_m_d_a.png,O,m,1040,12,1,1909.7000000001863,158985.59999999963,7065,VNB,C,11
0,test,1,0.0,1-Back,,,Wed Mar 19 2025 17:08:27 GMT-0500 (Central Daylight Time),160895.2999999998,022_y_f_d_a.png,O,space,7236,1,1,1909.7000000001863,158985.59999999963,7065,VNB,C,0
1,test,1,0.0,1-Back,1,m,Wed Mar 19 2025 17:08:27 GMT-0500 (Central Daylight Time),190652.39999999944,019_m_f_n_a.png,O,m,1046,2,1,2061.0,188591.39999999944,7065,VNB,C,1
2,test,1,0.0,1-Back,1,m,Wed Mar 19 2025 17:08:27 GMT-0500 (Central Daylight Time),192585.69999999925,015_o_m_h_a.png,O,m,899,3,1,1929.2999999998137,190656.39999999944,7065,VNB,C,2
3,test,1,1.0,1-Back,1,z,Wed Mar 19 2025 17:08:27 GMT-0500 (Central Daylight Time),194967.69999999925,014_m_m_h_a.png,O,z,1360,4,1,2378.2999999998137,192589.39999999944,7065,VNB,C,3
4,test,1,0.0,1-Back,1,m,Wed Mar 19 2025 17:08:27 GMT-0500 (Central Daylight Time),197159.59999999963,012_o_f_n_a.png,O,m,1174,5,1,2187.7000000001863,194971.89999999944,7065,VNB,C,4
5,test,1,0.0,1-Back,1,m,Wed Mar 19 2025 17:08:27 GMT-0500 (Central Daylight Time),199000.0,025_y_m_d_a.png,O,m,819,6,1,1836.6000000005588,197163.39999999944,7065,VNB,C,5
6,test,1,1.0,1-Back,1,z,Wed Mar 19 2025 17:08:27 GMT-0500 (Central Daylight Time),201099.39999999944,019_m_f_d_a.png,O,z,1073,7,1,2095.5,199003.89999999944,7065,VNB,C,6
7,test,1,0.0,1-Back,1,m,Wed Mar 19 2025 17:08:27 GMT-0500 (Central Daylight Time),203082.09999999963,022_y_f_h_a.png,O,m,958,8,1,1978.7000000001863,201103.39999999944,7065,VNB,C,7
8,test,1,0.0,1-Back,1,m,Wed Mar 19 2025 17:08:27 GMT-0500 (Central Daylight Time),204948.0,015_o_m_n_a.png,O,m,839,9,1,1861.1000000005588,203086.89999999944,7065,VNB,C,8
9,test,1,0.0,1-Back,1,m,Wed Mar 19 2025 17:08:27 GMT-0500 (Central Daylight Time),206830.89999999944,025_y_m_h_a.png,O,m,861,10,1,1879.5,204951.39999999944,7065,VNB,C,9
10,test,1,0.0,1-Back,1,m,Wed Mar 19 2025 17:08:27 GMT-0500 (Central Daylight Time),208597.09999999963,015_o_m_d_a.png,O,m,746,11,1,1763.0999999996275,206834.0,7065,VNB,C,10
11,test,1,1.0,1-Back,1,z,Wed Mar 19 2025 17:08:27 GMT-0500 (Central Daylight Time),210812.89999999944,012_o_f_d_a.png,O,z,1195,12,1,2211.2999999998137,208601.59999999963,7065,VNB,C,11
12,test,1,0.0,1-Back,1,m,Wed Mar 19 2025 17:08:27 GMT-0500 (Central Daylight Time),212629.2999999998,014_m_m_n_a.png,O,m,788,13,1,1812.0,210817.2999999998,7065,VNB,C,12
13,test,1,1.0,1-Back,1,z,Wed Mar 19 2025 17:08:27 GMT-0500 (Central Daylight Time),214678.39999999944,022_y_f_n_a.png,O,z,1028,14,1,2045.8999999994412,212632.5,7065,VNB,C,13
14,test,1,0.0,1-Back,1,m,Wed Mar 19 2025 17:08:27 GMT-0500 (Central Daylight Time),216627.59999999963,019_m_f_h_a.png,O,m,923,15,1,1945.2999999998137,214682.2999999998,7065,VNB,C,14
15,test,1,0.0,1-Back,1,m,Wed Mar 19 2025 17:08:27 GMT-0500 (Central Daylight Time),218777.09999999963,014_m_m_d_a.png,O,m,1125,16,1,2145.7000000001863,216631.39999999944,7065,VNB,C,15
16,test,1,0.0,1-Back,1,m,Wed Mar 19 2025 17:08:27 GMT-0500 (Central Daylight Time),220722.59999999963,025_y_m_n_a.png,O,m,911,17,1,1941.4000000003725,218781.19999999925,7065,VNB,C,16
17,test,1,0.0,1-Back,1,m,Wed Mar 19 2025 17:08:27 GMT-0500 (Central Daylight Time),222576.0,012_o_f_h_a.png,O,m,819,18,1,1849.1000000005588,220726.89999999944,7065,VNB,C,17
0,test,2,0.0,1-Back,,,Wed Mar 19 2025 17:08:27 GMT-0500 (Central Daylight Time),222576.0,025_y_m_n_a.png,O,space,1721,1,1,1849.1000000005588,220726.89999999944,7065,VNB,C,0
1,test,2,0.0,1-Back,1,m,Wed Mar 19 2025 17:08:27 GMT-0500 (Central Daylight Time),228790.69999999925,022_y_f_h_a.png,O,m,1436,2,1,2461.399999999441,226329.2999999998,7065,VNB,C,1
2,test,2,1.0,1-Back,1,m,Wed Mar 19 2025 17:08:27 GMT-0500 (Central Daylight Time),230656.7999999998,015_o_m_n_a.png,O,m,835,3,1,1861.9000000003725,228794.89999999944,7065,VNB,C,2
3,test,2,0.0,1-Back,1,m,Wed Mar 19 2025 17:08:27 GMT-0500 (Central Daylight Time),232506.0,019_m_f_d_a.png,O,m,824,4,1,1844.4000000003725,230661.59999999963,7065,VNB,C,3
4,test,2,0.0,1-Back,1,z,Wed Mar 19 2025 17:08:27 GMT-0500 (Central Daylight Time),235072.0,014_m_m_d_a.png,O,z,1535,5,1,2562.4000000003725,232509.59999999963,7065,VNB,C,4
5,test,2,0.0,1-Back,1,m,Wed Mar 19 2025 17:08:27 GMT-0500 (Central Daylight Time),237038.09999999963,025_y_m_h_a.png,O,m,945,6,1,1961.7000000001863,235076.39999999944,7065,VNB,C,5
6,test,2,1.0,1-Back,1,z,Wed Mar 19 2025 17:08:27 GMT-0500 (Central Daylight Time),239187.2999999998,012_o_f_h_a.png,O,z,1131,7,1,2144.5,237042.7999999998,7065,VNB,C,6
7,test,2,0.0,1-Back,1,m,Wed Mar 19 2025 17:08:27 GMT-0500 (Central Daylight Time),240737.0,019_m_f_n_a.png,O,m,526,8,1,1545.2000000001863,239191.7999999998,7065,VNB,C,7
8,test,2,0.0,1-Back,1,m,Wed Mar 19 2025 17:08:27 GMT-0500 (Central Daylight Time),242503.19999999925,022_y_f_d_a.png,O,m,736,9,1,1763.0999999996275,240740.09999999963,7065,VNB,C,8
9,test,2,0.0,1-Back,1,m,Wed Mar 19 2025 17:08:27 GMT-0500 (Central Daylight Time),244268.59999999963,014_m_m_n_a.png,O,m,745,10,1,1761.5999999996275,242507.0,7065,VNB,C,9
10,test,2,1.0,1-Back,1,m,Wed Mar 19 2025 17:08:27 GMT-0500 (Central Daylight Time),246685.09999999963,019_m_f_h_a.png,O,m,1396,11,1,2406.7000000001863,244278.39999999944,7065,VNB,C,10
11,test,2,0.0,1-Back,1,z,Wed Mar 19 2025 17:08:27 GMT-0500 (Central Daylight Time),248717.89999999944,015_o_m_h_a.png,O,z,1012,12,1,2028.5,246689.39999999944,7065,VNB,C,11
12,test,2,0.0,1-Back,1,m,Wed Mar 19 2025 17:08:27 GMT-0500 (Central Daylight Time),250434.19999999925,025_y_m_d_a.png,O,m,684,13,1,1712.0999999996275,248722.09999999963,7065,VNB,C,12
13,test,2,0.0,1-Back,1,m,Wed Mar 19 2025 17:08:27 GMT-0500 (Central Daylight Time),252449.69999999925,012_o_f_n_a.png,O,m,983,14,1,2012.0999999996275,250437.59999999963,7065,VNB,C,13
14,test,2,0.0,1-Back,1,z,Wed Mar 19 2025 17:08:27 GMT-0500 (Central Daylight Time),254665.89999999944,022_y_f_n_a.png,O,z,1184,15,1,2211.2000000001863,252454.69999999925,7065,VNB,C,14
15,test,2,1.0,1-Back,1,m,Wed Mar 19 2025 17:08:27 GMT-0500 (Central Daylight Time),256498.39999999944,014_m_m_h_a.png,O,m,814,16,1,1827.7999999998137,254670.59999999963,7065,VNB,C,15
16,test,2,0.0,1-Back,1,m,Wed Mar 19 2025 17:08:27 GMT-0500 (Central Daylight Time),258331.39999999944,012_o_f_d_a.png,O,m,815,17,1,1828.5,256502.89999999944,7065,VNB,C,16
17,test,2,1.0,1-Back,1,z,Wed Mar 19 2025 17:08:27 GMT-0500 (Central Daylight Time),260264.19999999925,015_o_m_d_a.png,O,z,901,18,1,1928.5999999996275,258335.59999999963,7065,VNB,C,17
0,test,3,1.0,1-Back,,,Wed Mar 19 2025 17:08:27 GMT-0500 (Central Daylight Time),260264.19999999925,012_o_f_h_a.png,O,space,1385,1,1,1928.5999999996275,258335.59999999963,7065,VNB,C,0
1,test,3,0.0,1-Back,1,m,Wed Mar 19 2025 17:08:27 GMT-0500 (Central Daylight Time),265512.5999999996,019_m_f_d_a.png,O,m,685,2,1,1711.0,263801.5999999996,7065,VNB,C,1
2,test,3,1.0,1-Back,1,m,Wed Mar 19 2025 17:08:27 GMT-0500 (Central Daylight Time),267673.7999999998,014_m_m_n_a.png,O,m,1144,3,1,2156.7999999998137,265517.0,7065,VNB,C,2
3,test,3,0.0,1-Back,1,z,Wed Mar 19 2025 17:08:27 GMT-0500 (Central Daylight Time),269544.7999999998,012_o_f_n_a.png,O,z,833,4,1,1866.2999999998137,267678.5,7065,VNB,C,3
4,test,3,1.0,1-Back,1,m,Wed Mar 19 2025 17:08:27 GMT-0500 (Central Daylight Time),271110.7999999998,015_o_m_d_a.png,O,m,545,5,1,1562.0,269548.7999999998,7065,VNB,C,4
5,test,3,0.0,1-Back,1,m,Wed Mar 19 2025 17:08:27 GMT-0500 (Central Daylight Time),272993.39999999944,022_y_f_h_a.png,O,m,850,6,1,1877.0999999996275,271116.2999999998,7065,VNB,C,5
6,test,3,0.0,1-Back,1,z,Wed Mar 19 2025 17:08:27 GMT-0500 (Central Daylight Time),274809.5999999996,025_y_m_h_a.png,O,z,783,7,1,1811.5,272998.0999999996,7065,VNB,C,6
7,test,3,0.0,1-Back,1,m,Wed Mar 19 2025 17:08:27 GMT-0500 (Central Daylight Time),276525.69999999925,019_m_f_n_a.png,O,m,688,8,1,1711.8999999994412,274813.7999999998,7065,VNB,C,7
8,test,3,0.0,1-Back,1,m,Wed Mar 19 2025 17:08:27 GMT-0500 (Central Daylight Time),278291.89999999944,022_y_f_d_a.png,O,m,747,9,1,1761.5,276530.39999999944,7065,VNB,C,8
9,test,3,1.0,1-Back,1,m,Wed Mar 19 2025 17:08:27 GMT-0500 (Central Daylight Time),280691.0,015_o_m_n_a.png,O,m,1373,10,1,2395.100000000559,278295.89999999944,7065,VNB,C,9
9,test,3,0.0,1-Back,0,m,Wed Mar 19 2025 17:08:27 GMT-0500 (Central Daylight Time),283723.5999999996,014_m_m_h_a.png,O,None,2015,11,1,3027.9000000003725,280695.69999999925,7065,VNB,C,10
10,test,3,0.0,1-Back,1,z,Wed Mar 19 2025 17:08:27 GMT-0500 (Central Daylight Time),285772.7999999998,019_m_f_h_a.png,O,z,1022,12,1,2046.1000000005588,283726.69999999925,7065,VNB,C,11
11,test,3,1.0,1-Back,1,m,Wed Mar 19 2025 17:08:27 GMT-0500 (Central Daylight Time),287555.69999999925,012_o_f_d_a.png,O,m,764,13,1,1779.0,285776.69999999925,7065,VNB,C,12
12,test,3,0.0,1-Back,1,z,Wed Mar 19 2025 17:08:27 GMT-0500 (Central Daylight Time),289871.69999999925,014_m_m_d_a.png,O,z,1294,14,1,2312.5999999996275,287559.0999999996,7065,VNB,C,13
13,test,3,0.0,1-Back,1,m,Wed Mar 19 2025 17:08:27 GMT-0500 (Central Daylight Time),291654.2999999998,025_y_m_n_a.png,O,m,762,15,1,1778.9000000003725,289875.39999999944,7065,VNB,C,14
14,test,3,1.0,1-Back,1,m,Wed Mar 19 2025 17:08:27 GMT-0500 (Central Daylight Time),293470.39999999944,015_o_m_h_a.png,O,m,795,16,1,1811.8999999994412,291658.5,7065,VNB,C,15
15,test,3,0.0,1-Back,1,m,Wed Mar 19 2025 17:08:27 GMT-0500 (Central Daylight Time),295153.0999999996,025_y_m_d_a.png,O,m,659,17,1,1678.2999999998137,293474.7999999998,7065,VNB,C,16
16,test,3,1.0,1-Back,1,m,Wed Mar 19 2025 17:08:27 GMT-0500 (Central Daylight Time),297085.89999999944,022_y_f_n_a.png,O,m,904,18,1,1928.5999999996275,295157.2999999998,7065,VNB,C,17
0,test,4,1.0,1-Back,,,Wed Mar 19 2025 17:08:27 GMT-0500 (Central Daylight Time),297085.89999999944,014_m_m_d_a.png,O,space,1155,1,1,1928.5999999996275,295157.2999999998,7065,VNB,C,0
1,test,4,0.0,1-Back,1,z,Wed Mar 19 2025 17:08:27 GMT-0500 (Central Daylight Time),302484.19999999925,015_o_m_d_a.png,O,z,1197,2,1,2211.7999999998137,300272.39999999944,7065,VNB,C,1
2,test,4,0.0,1-Back,1,m,Wed Mar 19 2025 17:08:27 GMT-0500 (Central Daylight Time),304167.0999999996,025_y_m_h_a.png,O,m,653,3,1,1678.2000000001863,302488.89999999944,7065,VNB,C,2
3,test,4,0.0,1-Back,1,m,Wed Mar 19 2025 17:08:27 GMT-0500 (Central Daylight Time),305899.7999999998,019_m_f_n_a.png,O,m,714,4,1,1727.7999999998137,304172.0,7065,VNB,C,3
4,test,4,1.0,1-Back,1,m,Wed Mar 19 2025 17:08:27 GMT-0500 (Central Daylight Time),308083.5999999996,012_o_f_h_a.png,O,m,1157,5,1,2179.7000000001863,305903.89999999944,7065,VNB,C,4
5,test,4,0.0,1-Back,1,m,Wed Mar 19 2025 17:08:27 GMT-0500 (Central Daylight Time),309898.39999999944,014_m_m_n_a.png,O,m,799,6,1,1810.8999999994412,308087.5,7065,VNB,C,5
6,test,4,0.0,1-Back,1,m,Wed Mar 19 2025 17:08:27 GMT-0500 (Central Daylight Time),311681.19999999925,025_y_m_d_a.png,O,m,758,7,1,1778.8999999994412,309902.2999999998,7065,VNB,C,6
7,test,4,1.0,1-Back,1,z,Wed Mar 19 2025 17:08:27 GMT-0500 (Central Daylight Time),313563.89999999944,022_y_f_d_a.png,O,z,864,8,1,1878.5,311685.39999999944,7065,VNB,C,7
8,test,4,0.0,1-Back,1,m,Wed Mar 19 2025 17:08:27 GMT-0500 (Central Daylight Time),315313.2999999998,019_m_f_h_a.png,O,m,716,9,1,1745.9000000003725,313567.39999999944,7065,VNB,C,8
9,test,4,0.0,1-Back,1,z,Wed Mar 19 2025 17:08:27 GMT-0500 (Central Daylight Time),317329.7999999998,015_o_m_h_a.png,O,z,999,10,1,2011.9000000003725,315317.89999999944,7065,VNB,C,9
10,test,4,1.0,1-Back,1,m,Wed Mar 19 2025 17:08:27 GMT-0500 (Central Daylight Time),319029.0,012_o_f_n_a.png,O,m,679,11,1,1694.1000000005588,317334.89999999944,7065,VNB,C,10
11,test,4,0.0,1-Back,1,m,Wed Mar 19 2025 17:08:27 GMT-0500 (Central Daylight Time),320695.0999999996,019_m_f_d_a.png,O,m,636,12,1,1661.9000000003725,319033.19999999925,7065,VNB,C,11
12,test,4,0.0,1-Back,1,m,Wed Mar 19 2025 17:08:27 GMT-0500 (Central Daylight Time),322511.39999999944,022_y_f_n_a.png,O,m,794,13,1,1812.2999999998137,320699.0999999996,7065,VNB,C,12
13,test,4,0.0,1-Back,1,m,Wed Mar 19 2025 17:08:27 GMT-0500 (Central Daylight Time),324427.39999999944,012_o_f_d_a.png,O,m,898,14,1,1912.2000000001863,322515.19999999925,7065,VNB,C,13
14,test,4,0.0,1-Back,1,m,Wed Mar 19 2025 17:08:27 GMT-0500 (Central Daylight Time),326260.0,022_y_f_h_a.png,O,m,806,15,1,1828.5,324431.5,7065,VNB,C,14
15,test,4,1.0,1-Back,1,z,Wed Mar 19 2025 17:08:27 GMT-0500 (Central Daylight Time),328109.5,014_m_m_h_a.png,O,z,828,16,1,1845.2000000001863,326264.2999999998,7065,VNB,C,15
16,test,4,0.0,1-Back,1,m,Wed Mar 19 2025 17:08:27 GMT-0500 (Central Daylight Time),330092.19999999925,015_o_m_n_a.png,O,m,956,17,1,1979.3999999994412,328112.7999999998,7065,VNB,C,16
17,test,4,1.0,1-Back,1,z,Wed Mar 19 2025 17:08:27 GMT-0500 (Central Daylight Time),331925.19999999925,025_y_m_n_a.png,O,z,805,18,1,1829.3999999994412,330095.7999999998,7065,VNB,C,17
0,test,5,1.0,1-Back,,,Wed Mar 19 2025 17:08:27 GMT-0500 (Central Daylight Time),331925.19999999925,015_o_m_n_a.png,O,space,1324,1,1,1829.3999999994412,330095.7999999998,7065,VNB,C,0
0,test,5,1.0,1-Back,0,m,Wed Mar 19 2025 17:08:27 GMT-0500 (Central Daylight Time),338319.5999999996,012_o_f_h_a.png,O,None,2028,2,1,3041.2000000001863,335278.39999999944,7065,VNB,C,1
1,test,5,0.0,1-Back,1,m,Wed Mar 19 2025 17:08:27 GMT-0500 (Central Daylight Time),340688.89999999944,025_y_m_d_a.png,O,m,1341,3,1,2364.899999999441,338324.0,7065,VNB,C,2
2,test,5,0.0,1-Back,1,z,Wed Mar 19 2025 17:08:27 GMT-0500 (Central Daylight Time),343271.5999999996,015_o_m_d_a.png,O,z,1560,4,1,2578.5,340693.0999999996,7065,VNB,C,3
3,test,5,0.0,1-Back,1,m,Wed Mar 19 2025 17:08:27 GMT-0500 (Central Daylight Time),345370.5999999996,019_m_f_h_a.png,O,m,1082,5,1,2094.0,343276.5999999996,7065,VNB,C,4
4,test,5,0.0,1-Back,1,m,Wed Mar 19 2025 17:08:27 GMT-0500 (Central Daylight Time),347137.0999999996,022_y_f_n_a.png,O,m,733,6,1,1762.7999999998137,345374.2999999998,7065,VNB,C,5
5,test,5,1.0,1-Back,1,z,Wed Mar 19 2025 17:08:27 GMT-0500 (Central Daylight Time),349236.39999999944,012_o_f_n_a.png,O,z,1072,7,1,2094.899999999441,347141.5,7065,VNB,C,6
6,test,5,0.0,1-Back,1,m,Wed Mar 19 2025 17:08:27 GMT-0500 (Central Daylight Time),350952.39999999944,019_m_f_d_a.png,O,m,685,8,1,1712.7999999998137,349239.5999999996,7065,VNB,C,7
6,test,5,0.0,1-Back,0,m,Wed Mar 19 2025 17:08:27 GMT-0500 (Central Daylight Time),352902.0,025_y_m_h_a.png,O,z,921,9,1,1945.2000000001863,350956.7999999998,7065,VNB,C,8
7,test,5,0.0,1-Back,1,m,Wed Mar 19 2025 17:08:27 GMT-0500 (Central Daylight Time),355084.5999999996,022_y_f_d_a.png,O,m,1155,10,1,2179.2000000001863,352905.39999999944,7065,VNB,C,9
8,test,5,0.0,1-Back,1,m,Wed Mar 19 2025 17:08:27 GMT-0500 (Central Daylight Time),356967.19999999925,014_m_m_n_a.png,O,m,852,11,1,1879.5,355087.69999999925,7065,VNB,C,10
8,test,5,1.0,1-Back,0,z,Wed Mar 19 2025 17:08:27 GMT-0500 (Central Daylight Time),359449.5999999996,019_m_f_n_a.png,O,m,1450,12,1,2478.2999999998137,356971.2999999998,7065,VNB,C,11
9,test,5,0.0,1-Back,1,m,Wed Mar 19 2025 17:08:27 GMT-0500 (Central Daylight Time),361249.0999999996,015_o_m_h_a.png,O,m,767,13,1,1795.9000000003725,359453.19999999925,7065,VNB,C,12
10,test,5,0.0,1-Back,1,z,Wed Mar 19 2025 17:08:27 GMT-0500 (Central Daylight Time),363281.89999999944,014_m_m_h_a.png,O,z,1016,14,1,2028.7999999998137,361253.0999999996,7065,VNB,C,13
11,test,5,1.0,1-Back,1,m,Wed Mar 19 2025 17:08:27 GMT-0500 (Central Daylight Time),365098.0,012_o_f_d_a.png,O,m,791,15,1,1812.1000000005588,363285.89999999944,7065,VNB,C,14
12,test,5,0.0,1-Back,1,m,Wed Mar 19 2025 17:08:27 GMT-0500 (Central Daylight Time),366764.19999999925,025_y_m_n_a.png,O,m,646,16,1,1661.8999999994412,365102.2999999998,7065,VNB,C,15
13,test,5,0.0,1-Back,1,m,Wed Mar 19 2025 17:08:27 GMT-0500 (Central Daylight Time),368713.5999999996,022_y_f_h_a.png,O,m,917,17,1,1946.2999999998137,366767.2999999998,7065,VNB,C,16
14,test,5,0.0,1-Back,1,m,Wed Mar 19 2025 17:08:27 GMT-0500 (Central Daylight Time),370429.7999999998,014_m_m_d_a.png,O,m,695,18,1,1712.1000000005588,368717.69999999925,7065,VNB,C,17
0,prac,1,0.0,2-Back,,,Wed Mar 19 2025 17:08:27 GMT-0500 (Central Daylight Time),370429.7999999998,019_m_f_n_a.png,O,space,6970,1,1,1712.1000000005588,368717.69999999925,7065,VNB,C,0
0,prac,1,0.0,2-Back,,,Wed Mar 19 2025 17:08:27 GMT-0500 (Central Daylight Time),370429.7999999998,012_o_f_h_a.png,O,space,6970,2,1,1712.1000000005588,368717.69999999925,7065,VNB,C,0
1,prac,1,0.0,2-Back,1,m,Wed Mar 19 2025 17:08:27 GMT-0500 (Central Daylight Time),486143.5,015_o_m_d_a.png,O,m,1520,3,1,2427.2000000001863,483716.2999999998,7065,VNB,C,1
2,prac,1,1.0,2-Back,1,z,Wed Mar 19 2025 17:08:27 GMT-0500 (Central Daylight Time),488392.7999999998,014_m_m_h_a.png,O,z,1372,4,1,2242.4000000003725,486150.39999999944,7065,VNB,C,2
2,prac,1,0.0,2-Back,0,m,Wed Mar 19 2025 17:08:27 GMT-0500 (Central Daylight Time),490858.69999999925,022_y_f_n_a.png,O,z,1566,5,1,2458.7999999998137,488399.89999999944,7065,VNB,C,3
2,prac,1,1.0,2-Back,0,z,Wed Mar 19 2025 17:08:27 GMT-0500 (Central Daylight Time),493241.0999999996,015_o_m_h_a.png,O,m,1475,6,1,2375.4000000003725,490865.69999999925,7065,VNB,C,4
2,prac,1,1.0,2-Back,0,z,Wed Mar 19 2025 17:08:27 GMT-0500 (Central Daylight Time),495490.39999999944,025_y_m_n_a.png,O,m,1371,7,1,2243.7000000001863,493246.69999999925,7065,VNB,C,5
3,prac,1,0.0,2-Back,1,m,Wed Mar 19 2025 17:08:27 GMT-0500 (Central Daylight Time),497641.0,019_m_f_d_a.png,O,m,1259,8,1,2143.9000000003725,495497.0999999996,7065,VNB,C,6
4,prac,1,0.0,2-Back,1,m,Wed Mar 19 2025 17:08:27 GMT-0500 (Central Daylight Time),499622.2999999998,012_o_f_d_a.png,O,m,1082,9,1,1974.9000000003725,497647.39999999944,7065,VNB,C,7
4,prac,1,0.0,2-Back,0,m,Wed Mar 19 2025 17:08:27 GMT-0500 (Central Daylight Time),501338.69999999925,014_m_m_h_a.png,O,z,932,10,1,1709.5,499629.19999999925,7065,VNB,C,8
4,prac,1,1.0,2-Back,0,z,Wed Mar 19 2025 17:08:27 GMT-0500 (Central Daylight Time),503085.7999999998,022_y_f_d_a.png,O,m,725,11,1,1739.9000000003725,501345.89999999944,7065,VNB,C,9
5,prac,1,0.0,2-Back,1,m,Wed Mar 19 2025 17:08:27 GMT-0500 (Central Daylight Time),504870.7999999998,015_o_m_n_a.png,O,m,883,12,1,1779.2999999998137,503091.5,7065,VNB,C,10
0,prac,2,0.0,2-Back,,,Wed Mar 19 2025 17:08:27 GMT-0500 (Central Daylight Time),504870.7999999998,019_m_f_n_a.png,O,a,7968,1,1,1779.2999999998137,503091.5,7065,VNB,C,0
0,prac,2,0.0,2-Back,,,Wed Mar 19 2025 17:08:27 GMT-0500 (Central Daylight Time),504870.7999999998,012_o_f_h_a.png,O,a,7968,2,1,1779.2999999998137,503091.5,7065,VNB,C,0
1,prac,2,0.0,2-Back,1,m,Wed Mar 19 2025 17:08:27 GMT-0500 (Central Daylight Time),520432.7999999998,015_o_m_d_a.png,O,m,1379,3,1,2276.2000000001863,518156.5999999996,7065,VNB,C,1
1,prac,2,1.0,2-Back,0,z,Wed Mar 19 2025 17:08:27 GMT-0500 (Central Daylight Time),523215.2999999998,014_m_m_h_a.png,O,None,2010,4,1,2777.2000000001863,520438.0999999996,7065,VNB,C,2
1,prac,2,0.0,2-Back,0,m,Wed Mar 19 2025 17:08:27 GMT-0500 (Central Daylight Time),526064.2999999998,022_y_f_n_a.png,O,z,1937,5,1,2842.100000000559,523222.19999999925,7065,VNB,C,3
2,prac,2,1.0,2-Back,1,z,Wed Mar 19 2025 17:08:27 GMT-0500 (Central Daylight Time),528480.0,015_o_m_h_a.png,O,z,1503,6,1,2409.300000000745,526070.6999999993,7065,VNB,C,4
2,prac,2,1.0,2-Back,0,z,Wed Mar 19 2025 17:08:27 GMT-0500 (Central Daylight Time),531012.6999999993,025_y_m_n_a.png,O,m,1649,7,1,2526.5,528486.1999999993,7065,VNB,C,5
3,prac,2,0.0,2-Back,1,m,Wed Mar 19 2025 17:08:27 GMT-0500 (Central Daylight Time),532778.8999999994,019_m_f_d_a.png,O,m,861,8,1,1760.8999999994412,531018.0,7065,VNB,C,6
4,prac,2,0.0,2-Back,1,m,Wed Mar 19 2025 17:08:27 GMT-0500 (Central Daylight Time),534794.8999999994,012_o_f_d_a.png,O,m,1126,9,1,2011.0,532783.8999999994,7065,VNB,C,7
5,prac,2,0.0,2-Back,1,m,Wed Mar 19 2025 17:08:27 GMT-0500 (Central Daylight Time),536444.5,014_m_m_h_a.png,O,m,874,10,1,1644.800000000745,534799.6999999993,7065,VNB,C,8
5,prac,2,1.0,2-Back,0,z,Wed Mar 19 2025 17:08:27 GMT-0500 (Central Daylight Time),538077.3999999994,022_y_f_d_a.png,O,m,734,11,1,1627.2000000001863,536450.1999999993,7065,VNB,C,9
6,prac,2,0.0,2-Back,1,m,Wed Mar 19 2025 17:08:27 GMT-0500 (Central Daylight Time),540076.7999999998,015_o_m_n_a.png,O,m,1094,12,1,1993.9000000003725,538082.8999999994,7065,VNB,C,10
0,test,1,0.0,2-Back,,,Wed Mar 19 2025 17:08:27 GMT-0500 (Central Daylight Time),540076.7999999998,025_y_m_h_a.png,O,space,7119,1,1,1993.9000000003725,538082.8999999994,7065,VNB,C,0
0,test,1,0.0,2-Back,,,Wed Mar 19 2025 17:08:27 GMT-0500 (Central Daylight Time),540076.7999999998,012_o_f_n_a.png,O,space,7119,2,1,1993.9000000003725,538082.8999999994,7065,VNB,C,0
1,test,1,0.0,2-Back,1,z,Wed Mar 19 2025 17:08:27 GMT-0500 (Central Daylight Time),561370.0,015_o_m_h_a.png,O,z,1100,3,1,2128.7000000001863,559241.2999999998,7065,VNB,C,1
2,test,1,0.0,2-Back,1,m,Wed Mar 19 2025 17:08:27 GMT-0500 (Central Daylight Time),564285.7999999998,019_m_f_d_a.png,O,m,1887,4,1,2911.7000000001863,561374.0999999996,7065,VNB,C,2
3,test,1,1.0,2-Back,1,m,Wed Mar 19 2025 17:08:27 GMT-0500 (Central Daylight Time),566418.1999999993,025_y_m_n_a.png,O,m,1116,5,1,2129.0999999996275,564289.0999999996,7065,VNB,C,3
4,test,1,0.0,2-Back,1,z,Wed Mar 19 2025 17:08:27 GMT-0500 (Central Daylight Time),568284.3999999994,022_y_f_d_a.png,O,z,839,6,1,1863.2999999998137,566421.0999999996,7065,VNB,C,4
5,test,1,0.0,2-Back,1,m,Wed Mar 19 2025 17:08:27 GMT-0500 (Central Daylight Time),570083.6999999993,014_m_m_h_a.png,O,m,780,7,1,1794.8999999994412,568288.7999999998,7065,VNB,C,5
6,test,1,1.0,2-Back,1,m,Wed Mar 19 2025 17:08:27 GMT-0500 (Central Daylight Time),571751.0,022_y_f_n_a.png,O,m,645,8,1,1662.9000000003725,570088.0999999996,7065,VNB,C,6
6,test,1,0.0,2-Back,0,z,Wed Mar 19 2025 17:08:27 GMT-0500 (Central Daylight Time),573449.5999999996,012_o_f_h_a.png,O,m,675,9,1,1694.5,571755.0999999996,7065,VNB,C,7
7,test,1,0.0,2-Back,1,m,Wed Mar 19 2025 17:08:27 GMT-0500 (Central Daylight Time),575515.5,015_o_m_d_a.png,O,m,1040,10,1,2062.100000000559,573453.3999999994,7065,VNB,C,8
7,test,1,1.0,2-Back,0,m,Wed Mar 19 2025 17:08:27 GMT-0500 (Central Daylight Time),577348.0999999996,014_m_m_d_a.png,O,z,805,11,1,1828.4000000003725,575519.6999999993,7065,VNB,C,9
7,test,1,0.0,2-Back,0,m,Wed Mar 19 2025 17:08:27 GMT-0500 (Central Daylight Time),579314.2999999998,019_m_f_n_a.png,O,z,941,12,1,1962.2000000001863,577352.0999999996,7065,VNB,C,10
8,test,1,0.0,2-Back,1,m,Wed Mar 19 2025 17:08:27 GMT-0500 (Central Daylight Time),581180.3999999994,022_y_f_h_a.png,O,m,839,13,1,1861.8999999994412,579318.5,7065,VNB,C,11
8,test,1,0.0,2-Back,0,z,Wed Mar 19 2025 17:08:27 GMT-0500 (Central Daylight Time),583213.0999999996,014_m_m_n_a.png,O,m,1005,14,1,2029.4000000003725,581183.6999999993,7065,VNB,C,12
9,test,1,0.0,2-Back,1,m,Wed Mar 19 2025 17:08:27 GMT-0500 (Central Daylight Time),585362.1999999993,025_y_m_d_a.png,O,m,1132,15,1,2145.0999999996275,583217.0999999996,7065,VNB,C,13
10,test,1,1.0,2-Back,1,m,Wed Mar 19 2025 17:08:27 GMT-0500 (Central Daylight Time),587361.5,019_m_f_h_a.png,O,m,974,16,1,1995.5,585366.0,7065,VNB,C,14
11,test,1,0.0,2-Back,1,z,Wed Mar 19 2025 17:08:27 GMT-0500 (Central Daylight Time),589611.1999999993,012_o_f_d_a.png,O,z,1231,17,1,2245.7999999998137,587365.3999999994,7065,VNB,C,15
11,test,1,0.0,2-Back,0,m,Wed Mar 19 2025 17:08:27 GMT-0500 (Central Daylight Time),591643.7999999998,015_o_m_n_a.png,O,z,1015,18,1,2029.0,589614.7999999998,7065,VNB,C,16
0,test,2,0.0,2-Back,,,Wed Mar 19 2025 17:08:27 GMT-0500 (Central Daylight Time),591643.7999999998,014_m_m_h_a.png,O,space,1389,1,1,2029.0,589614.7999999998,7065,VNB,C,0
0,test,2,0.0,2-Back,,,Wed Mar 19 2025 17:08:27 GMT-0500 (Central Daylight Time),591643.7999999998,022_y_f_n_a.png,O,space,1389,2,1,2029.0,589614.7999999998,7065,VNB,C,0
1,test,2,1.0,2-Back,1,z,Wed Mar 19 2025 17:08:27 GMT-0500 (Central Daylight Time),600957.3999999994,012_o_f_h_a.png,O,z,1620,3,1,2644.0999999996275,598313.2999999998,7065,VNB,C,1
2,test,2,0.0,2-Back,1,m,Wed Mar 19 2025 17:08:27 GMT-0500 (Central Daylight Time),603356.5999999996,015_o_m_d_a.png,O,m,1372,4,1,2396.0,600960.5999999996,7065,VNB,C,2
3,test,2,0.0,2-Back,1,m,Wed Mar 19 2025 17:08:27 GMT-0500 (Central Daylight Time),605689.1999999993,019_m_f_d_a.png,O,m,1308,5,1,2328.199999999255,603361.0,7065,VNB,C,3
3,test,2,0.0,2-Back,0,m,Wed Mar 19 2025 17:08:27 GMT-0500 (Central Daylight Time),607838.6999999993,025_y_m_h_a.png,O,z,1120,6,1,2145.7999999998137,605692.8999999994,7065,VNB,C,4
3,test,2,0.0,2-Back,0,m,Wed Mar 19 2025 17:08:27 GMT-0500 (Central Daylight Time),610154.3999999994,012_o_f_n_a.png,O,z,1299,7,1,2312.0,607842.3999999994,7065,VNB,C,5
3,test,2,1.0,2-Back,0,z,Wed Mar 19 2025 17:08:27 GMT-0500 (Central Daylight Time),612737.0999999996,015_o_m_h_a.png,O,m,1559,8,1,2579.0999999996275,610158.0,7065,VNB,C,6
4,test,2,0.0,2-Back,1,m,Wed Mar 19 2025 17:08:27 GMT-0500 (Central Daylight Time),614586.5,022_y_f_d_a.png,O,m,824,9,1,1845.7000000001863,612740.7999999998,7065,VNB,C,7
5,test,2,0.0,2-Back,1,m,Wed Mar 19 2025 17:08:27 GMT-0500 (Central Daylight Time),616302.5999999996,025_y_m_d_a.png,O,m,693,10,1,1712.4000000003725,614590.1999999993,7065,VNB,C,8
5,test,2,0.0,2-Back,0,m,Wed Mar 19 2025 17:08:27 GMT-0500 (Central Daylight Time),618585.2999999998,014_m_m_n_a.png,O,z,1259,11,1,2279.100000000559,616306.1999999993,7065,VNB,C,9
6,test,2,0.0,2-Back,1,m,Wed Mar 19 2025 17:08:27 GMT-0500 (Central Daylight Time),620551.2999999998,019_m_f_h_a.png,O,m,944,12,1,1962.2000000001863,618589.0999999996,7065,VNB,C,10
6,test,2,1.0,2-Back,0,z,Wed Mar 19 2025 17:08:27 GMT-0500 (Central Daylight Time),622451.0,015_o_m_n_a.png,O,m,874,13,1,1895.800000000745,620555.1999999993,7065,VNB,C,11
7,test,2,0.0,2-Back,1,m,Wed Mar 19 2025 17:08:27 GMT-0500 (Central Daylight Time),624483.3999999994,012_o_f_d_a.png,O,m,1006,14,1,2029.2999999998137,622454.0999999996,7065,VNB,C,12
8,test,2,0.0,2-Back,1,m,Wed Mar 19 2025 17:08:27 GMT-0500 (Central Daylight Time),626266.1999999993,022_y_f_h_a.png,O,m,766,15,1,1779.0999999996275,624487.0999999996,7065,VNB,C,13
8,test,2,0.0,2-Back,0,z,Wed Mar 19 2025 17:08:27 GMT-0500 (Central Daylight Time),627999.0,014_m_m_d_a.png,O,m,703,16,1,1728.300000000745,626270.6999999993,7065,VNB,C,14
9,test,2,0.0,2-Back,1,m,Wed Mar 19 2025 17:08:27 GMT-0500 (Central Daylight Time),629916.0,025_y_m_n_a.png,O,m,898,17,1,1912.5,628003.5,7065,VNB,C,15
9,test,2,1.0,2-Back,0,m,Wed Mar 19 2025 17:08:27 GMT-0500 (Central Daylight Time),631747.6999999993,019_m_f_n_a.png,O,z,814,18,1,1828.0,629919.6999999993,7065,VNB,C,16
0,test,3,1.0,2-Back,,,Wed Mar 19 2025 17:08:27 GMT-0500 (Central Daylight Time),631747.6999999993,015_o_m_n_a.png,O,space,2374,1,1,1828.0,629919.6999999993,7065,VNB,C,0
0,test,3,1.0,2-Back,,,Wed Mar 19 2025 17:08:27 GMT-0500 (Central Daylight Time),631747.6999999993,012_o_f_d_a.png,O,space,2374,2,1,1828.0,629919.6999999993,7065,VNB,C,0
1,test,3,0.0,2-Back,1,m,Wed Mar 19 2025 17:08:27 GMT-0500 (Central Daylight Time),642244.6999999993,022_y_f_h_a.png,O,m,1822,3,1,2845.199999999255,639399.5,7065,VNB,C,1
2,test,3,0.0,2-Back,1,z,Wed Mar 19 2025 17:08:27 GMT-0500 (Central Daylight Time),644503.0,019_m_f_d_a.png,O,z,1242,4,1,2254.800000000745,642248.1999999993,7065,VNB,C,2
3,test,3,1.0,2-Back,1,m,Wed Mar 19 2025 17:08:27 GMT-0500 (Central Daylight Time),646409.7999999998,025_y_m_n_a.png,O,m,883,5,1,1902.7000000001863,644507.0999999996,7065,VNB,C,3
4,test,3,0.0,2-Back,1,m,Wed Mar 19 2025 17:08:27 GMT-0500 (Central Daylight Time),648642.5999999996,015_o_m_h_a.png,O,m,1207,6,1,2228.9000000003725,646413.6999999993,7065,VNB,C,4
5,test,3,0.0,2-Back,1,z,Wed Mar 19 2025 17:08:27 GMT-0500 (Central Daylight Time),650741.7999999998,022_y_f_n_a.png,O,z,1070,7,1,2095.600000000559,648646.1999999993,7065,VNB,C,5
5,test,3,1.0,2-Back,0,m,Wed Mar 19 2025 17:08:27 GMT-0500 (Central Daylight Time),653257.6999999993,014_m_m_d_a.png,O,z,1491,8,1,2512.0999999996275,650745.5999999996,7065,VNB,C,6
5,test,3,0.0,2-Back,0,m,Wed Mar 19 2025 17:08:27 GMT-0500 (Central Daylight Time),655657.0999999996,025_y_m_d_a.png,O,z,1375,9,1,2396.0999999996275,653261.0,7065,VNB,C,7
6,test,3,0.0,2-Back,1,m,Wed Mar 19 2025 17:08:27 GMT-0500 (Central Daylight Time),657656.3999999994,012_o_f_h_a.png,O,m,968,10,1,1996.2999999998137,655660.0999999996,7065,VNB,C,8
7,test,3,1.0,2-Back,1,m,Wed Mar 19 2025 17:08:27 GMT-0500 (Central Daylight Time),659455.7999999998,019_m_f_n_a.png,O,m,777,11,1,1795.2999999998137,657660.5,7065,VNB,C,9
7,test,3,1.0,2-Back,0,z,Wed Mar 19 2025 17:08:27 GMT-0500 (Central Daylight Time),661305.5,014_m_m_h_a.png,O,m,816,12,1,1846.2000000001863,659459.2999999998,7065,VNB,C,10
7,test,3,0.0,2-Back,0,m,Wed Mar 19 2025 17:08:27 GMT-0500 (Central Daylight Time),663187.8999999994,022_y_f_d_a.png,O,z,855,13,1,1879.0,661308.8999999994,7065,VNB,C,11
8,test,3,0.0,2-Back,1,m,Wed Mar 19 2025 17:08:27 GMT-0500 (Central Daylight Time),665037.5,012_o_f_n_a.png,O,m,821,14,1,1845.300000000745,663192.1999999993,7065,VNB,C,12
8,test,3,0.0,2-Back,0,z,Wed Mar 19 2025 17:08:27 GMT-0500 (Central Daylight Time),666803.5,015_o_m_d_a.png,O,m,740,15,1,1763.0,665040.5,7065,VNB,C,13
9,test,3,1.0,2-Back,1,m,Wed Mar 19 2025 17:08:27 GMT-0500 (Central Daylight Time),668752.7999999998,019_m_f_h_a.png,O,m,829,16,1,1945.2000000001863,666807.5999999996,7065,VNB,C,14
10,test,3,0.0,2-Back,1,m,Wed Mar 19 2025 17:08:27 GMT-0500 (Central Daylight Time),670952.1999999993,014_m_m_n_a.png,O,m,1176,17,1,2196.199999999255,668756.0,7065,VNB,C,15
10,test,3,0.0,2-Back,0,z,Wed Mar 19 2025 17:08:27 GMT-0500 (Central Daylight Time),672834.6999999993,025_y_m_h_a.png,O,m,865,18,1,1878.5999999996275,670956.0999999996,7065,VNB,C,16
0,test,4,0.0,2-Back,,,Wed Mar 19 2025 17:08:27 GMT-0500 (Central Daylight Time),672834.6999999993,019_m_f_n_a.png,O,space,1503,1,1,1878.5999999996275,670956.0999999996,7065,VNB,C,0
0,test,4,0.0,2-Back,,,Wed Mar 19 2025 17:08:27 GMT-0500 (Central Daylight Time),672834.6999999993,015_o_m_n_a.png,O,space,1503,2,1,1878.5999999996275,670956.0999999996,7065,VNB,C,0
1,test,4,1.0,2-Back,1,m,Wed Mar 19 2025 17:08:27 GMT-0500 (Central Daylight Time),681565.5,025_y_m_h_a.png,O,m,905,3,1,1928.6000000005588,679636.8999999994,7065,VNB,C,1
2,test,4,1.0,2-Back,1,m,Wed Mar 19 2025 17:08:27 GMT-0500 (Central Daylight Time),683781.5,012_o_f_d_a.png,O,m,1196,4,1,2211.5,681570.0,7065,VNB,C,2
3,test,4,0.0,2-Back,1,z,Wed Mar 19 2025 17:08:27 GMT-0500 (Central Daylight Time),685814.3999999994,015_o_m_h_a.png,O,z,1004,5,1,2029.0999999996275,683785.2999999998,7065,VNB,C,3
4,test,4,0.0,2-Back,1,m,Wed Mar 19 2025 17:08:27 GMT-0500 (Central Daylight Time),688046.6999999993,014_m_m_n_a.png,O,m,1203,6,1,2229.0,685817.6999999993,7065,VNB,C,4
4,test,4,0.0,2-Back,0,m,Wed Mar 19 2025 17:08:27 GMT-0500 (Central Daylight Time),691079.1999999993,019_m_f_d_a.png,O,None,2015,7,1,3028.5999999996275,688050.5999999996,7065,VNB,C,5
4,test,4,0.0,2-Back,0,z,Wed Mar 19 2025 17:08:27 GMT-0500 (Central Daylight Time),692962.0,022_y_f_n_a.png,O,m,858,8,1,1879.1000000005588,691082.8999999994,7065,VNB,C,6
5,test,4,1.0,2-Back,1,m,Wed Mar 19 2025 17:08:27 GMT-0500 (Central Daylight Time),694811.3999999994,012_o_f_h_a.png,O,m,831,9,1,1845.5,692965.8999999994,7065,VNB,C,7
5,test,4,0.0,2-Back,0,m,Wed Mar 19 2025 17:08:27 GMT-0500 (Central Daylight Time),696694.0999999996,014_m_m_h_a.png,O,z,853,10,1,1878.7999999998137,694815.2999999998,7065,VNB,C,8
6,test,4,0.0,2-Back,1,m,Wed Mar 19 2025 17:08:27 GMT-0500 (Central Daylight Time),698743.5,022_y_f_d_a.png,O,m,1019,11,1,2046.1000000005588,696697.3999999994,7065,VNB,C,9
7,test,4,0.0,2-Back,1,m,Wed Mar 19 2025 17:08:27 GMT-0500 (Central Daylight Time),700409.5999999996,025_y_m_n_a.png,O,m,641,12,1,1662.7999999998137,698746.7999999998,7065,VNB,C,10
8,test,4,0.0,2-Back,1,z,Wed Mar 19 2025 17:08:27 GMT-0500 (Central Daylight Time),702026.0,015_o_m_d_a.png,O,z,600,13,1,1612.6000000005588,700413.3999999994,7065,VNB,C,11
8,test,4,1.0,2-Back,0,m,Wed Mar 19 2025 17:08:27 GMT-0500 (Central Daylight Time),703908.5,019_m_f_h_a.png,O,z,855,14,1,1879.4000000003725,702029.0999999996,7065,VNB,C,12
8,test,4,1.0,2-Back,0,m,Wed Mar 19 2025 17:08:27 GMT-0500 (Central Daylight Time),705824.5999999996,022_y_f_h_a.png,O,z,893,15,1,1911.7000000001863,703912.8999999994,7065,VNB,C,13
9,test,4,0.0,2-Back,1,m,Wed Mar 19 2025 17:08:27 GMT-0500 (Central Daylight Time),707474.0999999996,012_o_f_n_a.png,O,m,616,16,1,1645.7999999998137,705828.2999999998,7065,VNB,C,14
10,test,4,0.0,2-Back,1,m,Wed Mar 19 2025 17:08:27 GMT-0500 (Central Daylight Time),709156.7999999998,025_y_m_d_a.png,O,m,663,17,1,1679.1000000005588,707477.6999999993,7065,VNB,C,15
11,test,4,1.0,2-Back,1,m,Wed Mar 19 2025 17:08:27 GMT-0500 (Central Daylight Time),710706.2999999998,014_m_m_d_a.png,O,m,532,18,1,1545.7999999998137,709160.5,7065,VNB,C,16
0,test,5,1.0,2-Back,,,Wed Mar 19 2025 17:08:27 GMT-0500 (Central Daylight Time),710706.2999999998,022_y_f_d_a.png,O,space,1215,1,1,1545.7999999998137,709160.5,7065,VNB,C,0
0,test,5,1.0,2-Back,,,Wed Mar 19 2025 17:08:27 GMT-0500 (Central Daylight Time),710706.2999999998,012_o_f_h_a.png,O,space,1215,2,1,1545.7999999998137,709160.5,7065,VNB,C,0
0,test,5,1.0,2-Back,0,z,Wed Mar 19 2025 17:08:27 GMT-0500 (Central Daylight Time),720170.2999999998,015_o_m_d_a.png,O,m,1866,3,1,2878.9000000003725,717291.3999999994,7065,VNB,C,1
1,test,5,1.0,2-Back,1,m,Wed Mar 19 2025 17:08:27 GMT-0500 (Central Daylight Time),722402.5,019_m_f_n_a.png,O,m,1215,4,1,2228.2000000001863,720174.2999999998,7065,VNB,C,2
2,test,5,0.0,2-Back,1,m,Wed Mar 19 2025 17:08:27 GMT-0500 (Central Daylight Time),724418.5,014_m_m_h_a.png,O,m,999,5,1,2011.7000000001863,722406.7999999998,7065,VNB,C,3
3,test,5,0.0,2-Back,1,z,Wed Mar 19 2025 17:08:27 GMT-0500 (Central Daylight Time),726617.8999999994,022_y_f_n_a.png,O,z,1166,6,1,2195.899999999441,724422.0,7065,VNB,C,4
4,test,5,0.0,2-Back,1,m,Wed Mar 19 2025 17:08:27 GMT-0500 (Central Daylight Time),728550.6999999993,012_o_f_d_a.png,O,m,903,7,1,1929.0999999996275,726621.5999999996,7065,VNB,C,5
5,test,5,0.0,2-Back,1,m,Wed Mar 19 2025 17:08:27 GMT-0500 (Central Daylight Time),730966.7999999998,015_o_m_h_a.png,O,m,1386,8,1,2412.4000000003725,728554.3999999994,7065,VNB,C,6
5,test,5,1.0,2-Back,0,z,Wed Mar 19 2025 17:08:27 GMT-0500 (Central Daylight Time),733266.0,019_m_f_d_a.png,O,m,1283,9,1,2295.9000000003725,730970.0999999996,7065,VNB,C,7
5,test,5,0.0,2-Back,0,m,Wed Mar 19 2025 17:08:27 GMT-0500 (Central Daylight Time),735815.2999999998,025_y_m_n_a.png,O,z,1519,10,1,2546.2999999998137,733269.0,7065,VNB,C,8
6,test,5,0.0,2-Back,1,m,Wed Mar 19 2025 17:08:27 GMT-0500 (Central Daylight Time),738297.6999999993,014_m_m_n_a.png,O,m,1466,11,1,2479.0999999996275,735818.5999999996,7065,VNB,C,9
7,test,5,0.0,2-Back,1,m,Wed Mar 19 2025 17:08:27 GMT-0500 (Central Daylight Time),740214.0,022_y_f_h_a.png,O,m,895,12,1,1912.7000000001863,738301.2999999998,7065,VNB,C,10
8,test,5,0.0,2-Back,1,m,Wed Mar 19 2025 17:08:27 GMT-0500 (Central Daylight Time),742213.0,025_y_m_d_a.png,O,m,971,13,1,1995.5,740217.5,7065,VNB,C,11
8,test,5,1.0,2-Back,0,z,Wed Mar 19 2025 17:08:27 GMT-0500 (Central Daylight Time),744429.1999999993,019_m_f_h_a.png,O,m,1188,14,1,2212.5999999996275,742216.5999999996,7065,VNB,C,12
8,test,5,0.0,2-Back,0,m,Wed Mar 19 2025 17:08:27 GMT-0500 (Central Daylight Time),746311.8999999994,015_o_m_n_a.png,O,z,860,15,1,1878.5999999996275,744433.2999999998,7065,VNB,C,13
9,test,5,0.0,2-Back,1,m,Wed Mar 19 2025 17:08:27 GMT-0500 (Central Daylight Time),747828.1999999993,014_m_m_d_a.png,O,m,489,16,1,1512.0,746316.1999999993,7065,VNB,C,14
9,test,5,0.0,2-Back,0,z,Wed Mar 19 2025 17:08:27 GMT-0500 (Central Daylight Time),749394.2999999998,012_o_f_n_a.png,O,m,541,17,1,1563.0,747831.2999999998,7065,VNB,C,15
10,test,5,1.0,2-Back,1,m,Wed Mar 19 2025 17:08:27 GMT-0500 (Central Daylight Time),751127.0999999996,025_y_m_h_a.png,O,m,702,18,1,1729.7000000001863,749397.3999999994,7065,VNB,C,16
