Number,acc_sum,block,block_c,block_cond,con_img,correct,correct_response,datetime,endtime,jitter,project,response,response_time,row_sel,session_number,start_end,starttime,subject_id,task,task_vers,trial
4,0,prac,1,A,circle.png,0,z,Fri Mar 28 2025 15:26:34 GMT-0500 (Central Daylight Time),77063.60000000149,1400,I,None,1515,4,1,3693.7000000029802,73369.89999999851,8034,NTS,A,1
8,1,prac,1,A,circle.png,1,m,Fri Mar 28 2025 15:26:34 GMT-0500 (Central Daylight Time),80729.19999999553,1600,I,m,1266,7,1,3658.89999999851,77070.29999999702,8034,NTS,A,2
1,2,prac,1,A,circle.png,1,z,Fri Mar 28 2025 15:26:34 GMT-0500 (Central Daylight Time),83528.19999999553,1000,I,z,1001,1,1,2793.1999999955297,80735.0,8034,NTS,A,3
1,3,prac,1,A,circle.png,1,z,Fri Mar 28 2025 15:26:34 GMT-0500 (Central Daylight Time),86010.89999999851,1000,I,z,698,1,1,2476.39999999851,83534.5,8034,NTS,A,4
3,4,prac,1,A,circle.png,1,z,Fri Mar 28 2025 15:26:34 GMT-0500 (Central Daylight Time),88626.69999999553,1200,I,z,622,3,1,2609.1999999955297,86017.5,8034,NTS,A,5
7,5,prac,1,A,circle.png,1,m,Fri Mar 28 2025 15:26:34 GMT-0500 (Central Daylight Time),91842.10000000149,1700,I,m,724,6,1,3209.3000000044703,88632.79999999702,8034,NTS,A,6
3,6,prac,1,A,circle.png,1,z,Fri Mar 28 2025 15:26:34 GMT-0500 (Central Daylight Time),94391.79999999702,1200,I,z,552,3,1,2544.10000000149,91847.69999999553,8034,NTS,A,7
9,7,prac,1,A,circle.png,1,m,Fri Mar 28 2025 15:26:34 GMT-0500 (Central Daylight Time),97157.29999999702,1500,I,m,479,8,1,2760.0,94397.29999999702,8034,NTS,A,8
6,8,prac,1,A,circle.png,1,m,Fri Mar 28 2025 15:26:34 GMT-0500 (Central Daylight Time),100523.89999999851,1900,I,m,689,5,1,3360.7000000029802,97163.19999999553,8034,NTS,A,9
8,9,prac,1,A,circle.png,1,m,Fri Mar 28 2025 15:26:34 GMT-0500 (Central Daylight Time),103355.39999999851,1600,I,m,447,7,1,2825.89999999851,100529.5,8034,NTS,A,10
6,10,prac,1,A,circle.png,1,m,Fri Mar 28 2025 15:26:34 GMT-0500 (Central Daylight Time),106704.5,1900,I,m,659,5,1,3343.5,103361.0,8034,NTS,A,11
2,11,prac,1,A,circle.png,1,z,Fri Mar 28 2025 15:26:34 GMT-0500 (Central Daylight Time),110219.89999999851,2000,I,z,722,2,1,3509.7000000029802,106710.19999999553,8034,NTS,A,12
9,0,prac,1,B,triangle.png,0,z,Fri Mar 28 2025 15:26:34 GMT-0500 (Central Daylight Time),180414.6000000015,1400,I,None,1516,8,1,3694.2000000029802,176720.3999999985,8034,NTS,A,1
6,0,prac,1,B,triangle.png,0,m,Fri Mar 28 2025 15:26:34 GMT-0500 (Central Daylight Time),183013.79999999702,1000,I,z,804,5,1,2593.39999999851,180420.3999999985,8034,NTS,A,2
3,0,prac,1,B,triangle.png,0,z,Fri Mar 28 2025 15:26:34 GMT-0500 (Central Daylight Time),186423.8999999985,1600,I,m,885,3,1,3402.7000000029802,183021.19999999553,8034,NTS,A,3
2,0,prac,1,B,triangle.png,0,m,Fri Mar 28 2025 15:26:34 GMT-0500 (Central Daylight Time),189795.0,1700,I,z,873,2,1,3365.8000000044703,186429.19999999553,8034,NTS,A,4
4,0,prac,1,B,triangle.png,0,m,Fri Mar 28 2025 15:26:34 GMT-0500 (Central Daylight Time),193593.6000000015,1500,I,None,1515,4,1,3793.2000000029802,189800.3999999985,8034,NTS,A,5
7,1,prac,1,B,triangle.png,1,z,Fri Mar 28 2025 15:26:34 GMT-0500 (Central Daylight Time),197192.6000000015,2000,I,z,801,6,1,3593.2000000029802,193599.3999999985,8034,NTS,A,6
7,2,prac,1,B,triangle.png,1,z,Fri Mar 28 2025 15:26:34 GMT-0500 (Central Daylight Time),200741.3999999985,2000,I,z,762,6,1,3543.2999999970198,197198.1000000015,8034,NTS,A,7
3,2,prac,1,B,triangle.png,0,z,Fri Mar 28 2025 15:26:34 GMT-0500 (Central Daylight Time),204057.1000000015,1600,I,m,917,3,1,3310.5,200746.6000000015,8034,NTS,A,8
1,2,prac,1,B,triangle.png,0,z,Fri Mar 28 2025 15:26:34 GMT-0500 (Central Daylight Time),208255.6000000015,1900,I,None,1515,1,1,4193.30000000447,204062.29999999702,8034,NTS,A,9
8,3,prac,1,B,triangle.png,1,m,Fri Mar 28 2025 15:26:34 GMT-0500 (Central Daylight Time),211254.79999999702,1200,I,m,1002,7,1,2994.2999999970198,208260.5,8034,NTS,A,10
2,4,prac,1,B,triangle.png,1,m,Fri Mar 28 2025 15:26:34 GMT-0500 (Central Daylight Time),215003.69999999553,1700,I,m,1264,2,1,3743.7999999970198,211259.8999999985,8034,NTS,A,11
4,5,prac,1,B,triangle.png,1,m,Fri Mar 28 2025 15:26:34 GMT-0500 (Central Daylight Time),218119.29999999702,1500,I,m,827,4,1,3110.60000000149,215008.69999999553,8034,NTS,A,12
8,0,prac,2,B,triangle.png,0,m,Fri Mar 28 2025 15:26:34 GMT-0500 (Central Daylight Time),236996.69999999553,1200,I,None,1515,7,1,3488.6999999955297,233508.0,8034,NTS,A,1
4,0,prac,2,B,triangle.png,0,m,Fri Mar 28 2025 15:26:34 GMT-0500 (Central Daylight Time),240795.5,1500,I,None,1516,4,1,3793.10000000149,237002.3999999985,8034,NTS,A,2
4,0,prac,2,B,triangle.png,0,m,Fri Mar 28 2025 15:26:34 GMT-0500 (Central Daylight Time),243778.0,1500,I,z,699,4,1,2977.5,240800.5,8034,NTS,A,3
8,0,prac,2,B,triangle.png,0,m,Fri Mar 28 2025 15:26:34 GMT-0500 (Central Daylight Time),247277.0,1200,I,None,1515,7,1,3494.0,243783.0,8034,NTS,A,4
9,1,prac,2,B,triangle.png,1,z,Fri Mar 28 2025 15:26:34 GMT-0500 (Central Daylight Time),250209.29999999702,1400,I,z,733,8,1,2927.60000000149,247281.69999999553,8034,NTS,A,5
6,2,prac,2,B,triangle.png,1,m,Fri Mar 28 2025 15:26:34 GMT-0500 (Central Daylight Time),252458.6000000015,1000,I,m,465,5,1,2244.7000000029802,250213.8999999985,8034,NTS,A,6
1,3,prac,2,B,triangle.png,1,z,Fri Mar 28 2025 15:26:34 GMT-0500 (Central Daylight Time),255724.29999999702,1900,I,z,572,1,1,3260.7999999970198,252463.5,8034,NTS,A,7
3,4,prac,2,B,triangle.png,1,z,Fri Mar 28 2025 15:26:34 GMT-0500 (Central Daylight Time),258890.0,1600,I,z,774,3,1,3159.8000000044703,255730.19999999553,8034,NTS,A,8
1,5,prac,2,B,triangle.png,1,z,Fri Mar 28 2025 15:26:34 GMT-0500 (Central Daylight Time),262255.69999999553,1900,I,z,668,1,1,3360.1999999955297,258895.5,8034,NTS,A,9
7,6,prac,2,B,triangle.png,1,z,Fri Mar 28 2025 15:26:34 GMT-0500 (Central Daylight Time),265887.69999999553,2000,I,z,835,6,1,3626.89999999851,262260.799999997,8034,NTS,A,10
2,7,prac,2,B,triangle.png,1,m,Fri Mar 28 2025 15:26:34 GMT-0500 (Central Daylight Time),269003.299999997,1700,I,m,622,2,1,3110.6999999955297,265892.6000000015,8034,NTS,A,11
9,8,prac,2,B,triangle.png,1,z,Fri Mar 28 2025 15:26:34 GMT-0500 (Central Daylight Time),272219.0,1400,I,z,1031,8,1,3210.8000000044703,269008.19999999553,8034,NTS,A,12
1,1,test,1,A,circle.png,1,z,Fri Mar 28 2025 15:26:34 GMT-0500 (Central Daylight Time),296828.1000000015,1000,I,z,773,1,1,1796.2000000029802,295031.8999999985,8034,NTS,A,1
3,2,test,1,A,circle.png,1,z,Fri Mar 28 2025 15:26:34 GMT-0500 (Central Daylight Time),298660.799999997,1200,I,z,614,3,1,1828.8999999985099,296831.8999999985,8034,NTS,A,2
4,3,test,1,A,circle.png,1,z,Fri Mar 28 2025 15:26:34 GMT-0500 (Central Daylight Time),300810.1000000015,1400,I,z,726,4,1,2145.4000000059605,298664.69999999553,8034,NTS,A,3
9,4,test,1,A,circle.png,1,m,Fri Mar 28 2025 15:26:34 GMT-0500 (Central Daylight Time),302876.0,1500,I,m,540,8,1,2061.89999999851,300814.1000000015,8034,NTS,A,4
6,4,test,1,A,circle.png,0,m,Fri Mar 28 2025 15:26:34 GMT-0500 (Central Daylight Time),305458.6000000015,1900,I,z,650,5,1,2578.60000000149,302880.0,8034,NTS,A,5
1,5,test,1,A,circle.png,1,z,Fri Mar 28 2025 15:26:34 GMT-0500 (Central Daylight Time),307324.799999997,1000,I,z,832,1,1,1862.0,305462.799999997,8034,NTS,A,6
3,6,test,1,A,circle.png,1,z,Fri Mar 28 2025 15:26:34 GMT-0500 (Central Daylight Time),309357.3999999985,1200,I,z,813,3,1,2024.7999999970198,307332.6000000015,8034,NTS,A,7
8,7,test,1,A,circle.png,1,m,Fri Mar 28 2025 15:26:34 GMT-0500 (Central Daylight Time),311740.0,1600,I,m,765,7,1,2378.10000000149,309361.8999999985,8034,NTS,A,8
9,8,test,1,A,circle.png,1,m,Fri Mar 28 2025 15:26:34 GMT-0500 (Central Daylight Time),313922.799999997,1500,I,m,658,8,1,2178.89999999851,311743.8999999985,8034,NTS,A,9
1,9,test,1,A,circle.png,1,z,Fri Mar 28 2025 15:26:34 GMT-0500 (Central Daylight Time),315605.5,1000,I,z,655,1,1,1677.8999999985099,313927.6000000015,8034,NTS,A,10
8,10,test,1,A,circle.png,1,m,Fri Mar 28 2025 15:26:34 GMT-0500 (Central Daylight Time),317821.3999999985,1600,I,m,596,7,1,2211.60000000149,315609.799999997,8034,NTS,A,11
3,11,test,1,A,circle.png,1,z,Fri Mar 28 2025 15:26:34 GMT-0500 (Central Daylight Time),319670.8999999985,1200,I,z,620,3,1,1845.5,317825.3999999985,8034,NTS,A,12
2,12,test,1,A,circle.png,1,z,Fri Mar 28 2025 15:26:34 GMT-0500 (Central Daylight Time),322369.8999999985,2000,I,z,675,2,1,2695.39999999851,319674.5,8034,NTS,A,13
9,13,test,1,A,circle.png,1,m,Fri Mar 28 2025 15:26:34 GMT-0500 (Central Daylight Time),324419.299999997,1500,I,m,516,8,1,2045.2999999970198,322374.0,8034,NTS,A,14
2,14,test,1,A,circle.png,1,z,Fri Mar 28 2025 15:26:34 GMT-0500 (Central Daylight Time),327035.3999999985,2000,I,z,583,2,1,2612.60000000149,324422.799999997,8034,NTS,A,15
1,15,test,1,A,circle.png,1,z,Fri Mar 28 2025 15:26:34 GMT-0500 (Central Daylight Time),328567.8999999985,1000,I,z,511,1,1,1528.6000000014901,327039.299999997,8034,NTS,A,16
4,16,test,1,A,circle.png,1,z,Fri Mar 28 2025 15:26:34 GMT-0500 (Central Daylight Time),331017.299999997,1400,I,z,1026,4,1,2445.39999999851,328571.8999999985,8034,NTS,A,17
4,17,test,1,A,circle.png,1,z,Fri Mar 28 2025 15:26:34 GMT-0500 (Central Daylight Time),333166.6000000015,1400,I,z,728,4,1,2145.4000000059605,331021.19999999553,8034,NTS,A,18
6,18,test,1,A,circle.png,1,m,Fri Mar 28 2025 15:26:34 GMT-0500 (Central Daylight Time),335849.0,1900,I,m,752,5,1,2678.2000000029802,333170.799999997,8034,NTS,A,19
7,19,test,1,A,circle.png,1,m,Fri Mar 28 2025 15:26:34 GMT-0500 (Central Daylight Time),338165.0,1700,I,m,597,6,1,2312.0,335853.0,8034,NTS,A,20
7,20,test,1,A,circle.png,1,m,Fri Mar 28 2025 15:26:34 GMT-0500 (Central Daylight Time),340497.69999999553,1700,I,m,601,6,1,2328.89999999851,338168.799999997,8034,NTS,A,21
2,21,test,1,A,circle.png,1,z,Fri Mar 28 2025 15:26:34 GMT-0500 (Central Daylight Time),343363.3999999985,2000,I,z,832,2,1,2860.7999999970198,340502.6000000015,8034,NTS,A,22
7,22,test,1,A,circle.png,1,m,Fri Mar 28 2025 15:26:34 GMT-0500 (Central Daylight Time),345629.3999999985,1700,I,m,547,6,1,2261.5,343367.8999999985,8034,NTS,A,23
7,23,test,1,A,circle.png,1,m,Fri Mar 28 2025 15:26:34 GMT-0500 (Central Daylight Time),347961.8999999985,1700,I,m,609,6,1,2328.89999999851,345633.0,8034,NTS,A,24
2,1,test,1,B,triangle.png,1,m,Fri Mar 28 2025 15:26:34 GMT-0500 (Central Daylight Time),370538.19999999553,1700,I,m,851,2,1,2578.6999999955297,367959.5,8034,NTS,A,1
8,2,test,1,B,triangle.png,1,m,Fri Mar 28 2025 15:26:34 GMT-0500 (Central Daylight Time),372370.8999999985,1200,I,m,600,7,1,1828.5,370542.3999999985,8034,NTS,A,2
2,3,test,1,B,triangle.png,1,m,Fri Mar 28 2025 15:26:34 GMT-0500 (Central Daylight Time),374103.799999997,1200,I,m,503,10,1,1728.5,372375.299999997,8034,NTS,A,3
6,3,test,1,B,triangle.png,0,m,Fri Mar 28 2025 15:26:34 GMT-0500 (Central Daylight Time),375853.299999997,1000,I,z,722,5,1,1745.8999999985099,374107.3999999985,8034,NTS,A,4
6,3,test,1,B,triangle.png,0,m,Fri Mar 28 2025 15:26:34 GMT-0500 (Central Daylight Time),378219.1000000015,1500,I,z,841,13,1,2361.9000000059605,375857.19999999553,8034,NTS,A,5
6,3,test,1,B,triangle.png,0,m,Fri Mar 28 2025 15:26:34 GMT-0500 (Central Daylight Time),381251.8999999985,1500,I,None,1516,13,1,3029.2999999970198,378222.6000000015,8034,NTS,A,6
6,4,test,1,B,triangle.png,1,m,Fri Mar 28 2025 15:26:34 GMT-0500 (Central Daylight Time),382817.8999999985,1000,I,m,534,5,1,1562.1000000014901,381255.799999997,8034,NTS,A,7
9,5,test,1,B,triangle.png,1,z,Fri Mar 28 2025 15:26:34 GMT-0500 (Central Daylight Time),385017.0,1400,I,z,769,8,1,2195.10000000149,382821.8999999985,8034,NTS,A,8
3,6,test,1,B,triangle.png,1,z,Fri Mar 28 2025 15:26:34 GMT-0500 (Central Daylight Time),387882.8999999985,2000,I,z,833,11,1,2862.2000000029802,385020.69999999553,8034,NTS,A,9
8,7,test,1,B,triangle.png,1,m,Fri Mar 28 2025 15:26:34 GMT-0500 (Central Daylight Time),390198.69999999553,1700,I,m,588,15,1,2311.7999999970198,387886.8999999985,8034,NTS,A,10
9,7,test,1,B,triangle.png,0,z,Fri Mar 28 2025 15:26:34 GMT-0500 (Central Daylight Time),392781.19999999553,1400,I,m,1156,8,1,2578.5999999940395,390202.6000000015,8034,NTS,A,11
4,8,test,1,B,triangle.png,1,m,Fri Mar 28 2025 15:26:34 GMT-0500 (Central Daylight Time),394480.799999997,1000,I,m,669,12,1,1695.7999999970198,392785.0,8034,NTS,A,12
2,9,test,1,B,triangle.png,1,m,Fri Mar 28 2025 15:26:34 GMT-0500 (Central Daylight Time),396896.5,1700,I,m,686,2,1,2411.89999999851,394484.6000000015,8034,NTS,A,13
9,10,test,1,B,triangle.png,1,z,Fri Mar 28 2025 15:26:34 GMT-0500 (Central Daylight Time),399912.3999999985,1900,I,z,1086,16,1,3012.2999999970198,396900.1000000015,8034,NTS,A,14
4,10,test,1,B,triangle.png,0,m,Fri Mar 28 2025 15:26:34 GMT-0500 (Central Daylight Time),402078.1000000015,1500,I,z,638,4,1,2161.60000000149,399916.5,8034,NTS,A,15
3,11,test,1,B,triangle.png,1,z,Fri Mar 28 2025 15:26:34 GMT-0500 (Central Daylight Time),404694.0,1600,I,z,996,3,1,2612.5,402081.5,8034,NTS,A,16
1,12,test,1,B,triangle.png,1,z,Fri Mar 28 2025 15:26:34 GMT-0500 (Central Daylight Time),407293.5,1900,I,z,672,1,1,2595.7000000029802,404697.799999997,8034,NTS,A,17
7,13,test,1,B,triangle.png,1,z,Fri Mar 28 2025 15:26:34 GMT-0500 (Central Daylight Time),409659.299999997,1600,I,z,749,14,1,2362.10000000149,407297.19999999553,8034,NTS,A,18
1,14,test,1,B,triangle.png,1,z,Fri Mar 28 2025 15:26:34 GMT-0500 (Central Daylight Time),412158.3999999985,1900,I,z,579,1,1,2495.5,409662.8999999985,8034,NTS,A,19
1,15,test,1,B,triangle.png,1,z,Fri Mar 28 2025 15:26:34 GMT-0500 (Central Daylight Time),414124.5,1400,I,z,540,9,1,1962.7000000029802,412161.799999997,8034,NTS,A,20
7,16,test,1,B,triangle.png,1,z,Fri Mar 28 2025 15:26:34 GMT-0500 (Central Daylight Time),416657.0,2000,I,z,510,6,1,2528.89999999851,414128.1000000015,8034,NTS,A,21
9,17,test,1,B,triangle.png,1,z,Fri Mar 28 2025 15:26:34 GMT-0500 (Central Daylight Time),419689.3999999985,1900,I,z,1101,16,1,3028.0,416661.3999999985,8034,NTS,A,22
7,18,test,1,B,triangle.png,1,z,Fri Mar 28 2025 15:26:34 GMT-0500 (Central Daylight Time),422371.8999999985,2000,I,z,551,6,1,2678.7999999970198,419693.1000000015,8034,NTS,A,23
7,19,test,1,B,triangle.png,1,z,Fri Mar 28 2025 15:26:34 GMT-0500 (Central Daylight Time),424587.8999999985,1600,I,z,598,14,1,2212.5,422375.3999999985,8034,NTS,A,24
4,0,prac,1,C,circle.png,0,z,Fri Mar 28 2025 15:26:34 GMT-0500 (Central Daylight Time),507595.19999999553,1000,I,None,1516,4,1,3294.0999999940395,504301.1000000015,8034,NTS,A,1
1,0,prac,1,C,circle.png,0,z,Fri Mar 28 2025 15:26:34 GMT-0500 (Central Daylight Time),511594.1000000015,1700,I,None,1515,1,1,3993.7000000029802,507600.3999999985,8034,NTS,A,2
4,0,prac,1,C,circle.png,0,z,Fri Mar 28 2025 15:26:34 GMT-0500 (Central Daylight Time),514209.799999997,1000,I,m,832,4,1,2611.0,511598.799999997,8034,NTS,A,3
2,0,prac,1,C,triangle.png,0,m,Fri Mar 28 2025 15:26:34 GMT-0500 (Central Daylight Time),517159.0,1600,I,z,561,2,1,2944.5,514214.5,8034,NTS,A,4
1,1,prac,1,C,circle.png,1,z,Fri Mar 28 2025 15:26:34 GMT-0500 (Central Daylight Time),520507.799999997,1700,I,z,855,1,1,3343.6999999955297,517164.1000000015,8034,NTS,A,5
6,1,prac,1,C,circle.png,0,m,Fri Mar 28 2025 15:26:34 GMT-0500 (Central Daylight Time),524806.3999999985,2000,I,None,1516,5,1,4293.60000000149,520512.799999997,8034,NTS,A,6
6,2,prac,1,C,circle.png,1,m,Fri Mar 28 2025 15:26:34 GMT-0500 (Central Daylight Time),528205.3999999985,2000,I,m,612,5,1,3394.2000000029802,524811.1999999955,8034,NTS,A,7
2,2,prac,1,C,triangle.png,0,m,Fri Mar 28 2025 15:26:34 GMT-0500 (Central Daylight Time),531454.3999999985,1600,I,z,853,2,1,3244.2000000029802,528210.1999999955,8034,NTS,A,8
7,2,prac,1,C,triangle.png,0,z,Fri Mar 28 2025 15:26:34 GMT-0500 (Central Daylight Time),534953.299999997,1200,I,None,1516,6,1,3493.39999999851,531459.8999999985,8034,NTS,A,9
9,3,prac,1,C,circle.png,1,m,Fri Mar 28 2025 15:26:34 GMT-0500 (Central Daylight Time),538569.0,1900,I,m,925,8,1,3609.7000000029802,534959.299999997,8034,NTS,A,10
3,4,prac,1,C,triangle.png,1,z,Fri Mar 28 2025 15:26:34 GMT-0500 (Central Daylight Time),541385.8999999985,1500,I,z,541,3,1,2811.60000000149,538574.299999997,8034,NTS,A,11
8,5,prac,1,C,triangle.png,1,m,Fri Mar 28 2025 15:26:34 GMT-0500 (Central Daylight Time),544100.3999999985,1400,I,m,522,7,1,2708.89999999851,541391.5,8034,NTS,A,12
1,0,prac,2,C,circle.png,0,z,Fri Mar 28 2025 15:26:34 GMT-0500 (Central Daylight Time),554930.5,1700,I,None,1516,1,1,3994.5,550936.0,8034,NTS,A,1
9,1,prac,2,C,circle.png,1,m,Fri Mar 28 2025 15:26:34 GMT-0500 (Central Daylight Time),558579.1999999955,1900,I,m,964,8,1,3643.2999999970198,554935.8999999985,8034,NTS,A,2
3,2,prac,2,C,triangle.png,1,z,Fri Mar 28 2025 15:26:34 GMT-0500 (Central Daylight Time),561561.6999999955,1500,I,z,699,3,1,2977.6999999955297,558584.0,8034,NTS,A,3
7,3,prac,2,C,triangle.png,1,z,Fri Mar 28 2025 15:26:34 GMT-0500 (Central Daylight Time),564294.1999999955,1200,I,z,737,6,1,2727.5,561566.6999999955,8034,NTS,A,4
1,4,prac,2,C,circle.png,1,z,Fri Mar 28 2025 15:26:34 GMT-0500 (Central Daylight Time),567326.6000000015,1700,I,z,544,1,1,3027.5,564299.1000000015,8034,NTS,A,5
7,4,prac,2,C,triangle.png,0,z,Fri Mar 28 2025 15:26:34 GMT-0500 (Central Daylight Time),569942.3999999985,1200,I,m,620,6,1,2610.7999999970198,567331.6000000015,8034,NTS,A,6
9,5,prac,2,C,circle.png,1,m,Fri Mar 28 2025 15:26:34 GMT-0500 (Central Daylight Time),573657.8999999985,1900,I,m,1016,8,1,3707.7999999970198,569950.1000000015,8034,NTS,A,7
2,5,prac,2,C,triangle.png,0,m,Fri Mar 28 2025 15:26:34 GMT-0500 (Central Daylight Time),577556.6999999955,1600,I,None,1516,2,1,3893.5,573663.1999999955,8034,NTS,A,8
2,6,prac,2,C,triangle.png,1,m,Fri Mar 28 2025 15:26:34 GMT-0500 (Central Daylight Time),580505.6000000015,1600,I,m,550,2,1,2943.8000000044703,577561.799999997,8034,NTS,A,9
6,6,prac,2,C,circle.png,0,m,Fri Mar 28 2025 15:26:34 GMT-0500 (Central Daylight Time),583938.1000000015,2000,I,z,641,5,1,3427.7000000029802,580510.3999999985,8034,NTS,A,10
8,6,prac,2,C,triangle.png,0,m,Fri Mar 28 2025 15:26:34 GMT-0500 (Central Daylight Time),586803.8999999985,1400,I,z,680,7,1,2859.10000000149,583944.799999997,8034,NTS,A,11
4,6,prac,2,C,circle.png,0,z,Fri Mar 28 2025 15:26:34 GMT-0500 (Central Daylight Time),589986.1999999955,1000,I,m,1391,4,1,3176.2999999970198,586809.8999999985,8034,NTS,A,12
2,0,test,1,C,triangle.png,0,m,Fri Mar 28 2025 15:26:34 GMT-0500 (Central Daylight Time),623158.799999997,2000,I,z,1328,2,1,3345.6999999955297,619813.1000000015,8034,NTS,A,1
1,0,test,1,C,triangle.png,0,z,Fri Mar 28 2025 15:26:34 GMT-0500 (Central Daylight Time),626591.1999999955,1900,I,None,1515,17,1,3427.6999999955297,623163.5,8034,NTS,A,2
1,0,test,1,C,circle.png,0,z,Fri Mar 28 2025 15:26:34 GMT-0500 (Central Daylight Time),628690.5,1000,I,m,1075,1,1,2095.5,626595.0,8034,NTS,A,3
9,0,test,1,C,circle.png,0,m,Fri Mar 28 2025 15:26:34 GMT-0500 (Central Daylight Time),631723.0,1500,I,None,1516,8,1,3028.89999999851,628694.1000000015,8034,NTS,A,4
6,0,test,1,C,triangle.png,0,m,Fri Mar 28 2025 15:26:34 GMT-0500 (Central Daylight Time),634255.3999999985,1000,I,None,1515,13,1,2528.5,631726.8999999985,8034,NTS,A,5
2,0,test,1,C,circle.png,0,z,Fri Mar 28 2025 15:26:34 GMT-0500 (Central Daylight Time),637487.8999999985,1700,I,None,1516,18,1,3228.2000000029802,634259.6999999955,8034,NTS,A,6
6,0,test,1,C,circle.png,0,m,Fri Mar 28 2025 15:26:34 GMT-0500 (Central Daylight Time),640920.1999999955,1900,I,None,1516,21,1,3428.5,637491.6999999955,8034,NTS,A,7
9,1,test,1,C,triangle.png,1,z,Fri Mar 28 2025 15:26:34 GMT-0500 (Central Daylight Time),643119.299999997,1400,I,z,778,16,1,2195.60000000149,640923.6999999955,8034,NTS,A,8
6,1,test,1,C,circle.png,0,m,Fri Mar 28 2025 15:26:34 GMT-0500 (Central Daylight Time),646268.5,1900,I,z,1223,5,1,3145.7000000029802,643122.799999997,8034,NTS,A,9
2,2,test,1,C,circle.png,1,z,Fri Mar 28 2025 15:26:34 GMT-0500 (Central Daylight Time),649001.0,1700,I,z,1010,10,1,2728.7000000029802,646272.299999997,8034,NTS,A,10
3,3,test,1,C,circle.png,1,z,Fri Mar 28 2025 15:26:34 GMT-0500 (Central Daylight Time),651583.5,1600,I,z,953,11,1,2578.8000000044703,649004.6999999955,8034,NTS,A,11
1,4,test,1,C,triangle.png,1,z,Fri Mar 28 2025 15:26:34 GMT-0500 (Central Daylight Time),654382.6999999955,1900,I,z,871,9,1,2793.7999999970198,651588.8999999985,8034,NTS,A,12
4,4,test,1,C,circle.png,0,z,Fri Mar 28 2025 15:26:34 GMT-0500 (Central Daylight Time),656615.1999999955,1400,I,m,804,4,1,2228.1999999955297,654387.0,8034,NTS,A,13
8,5,test,1,C,triangle.png,1,m,Fri Mar 28 2025 15:26:34 GMT-0500 (Central Daylight Time),659181.0,1600,I,m,947,7,1,2562.2000000029802,656618.799999997,8034,NTS,A,14
4,5,test,1,C,triangle.png,0,m,Fri Mar 28 2025 15:26:34 GMT-0500 (Central Daylight Time),662213.3999999985,1500,I,None,1515,12,1,3028.60000000149,659184.799999997,8034,NTS,A,15
7,5,test,1,C,circle.png,0,m,Fri Mar 28 2025 15:26:34 GMT-0500 (Central Daylight Time),665295.6999999955,2000,I,z,1061,14,1,3078.5999999940395,662217.1000000015,8034,NTS,A,16
4,6,test,1,C,triangle.png,1,m,Fri Mar 28 2025 15:26:34 GMT-0500 (Central Daylight Time),668011.6999999955,1500,I,m,1191,20,1,2712.0999999940395,665299.6000000015,8034,NTS,A,17
3,7,test,1,C,circle.png,1,z,Fri Mar 28 2025 15:26:34 GMT-0500 (Central Daylight Time),670844.1999999955,1600,I,z,1207,19,1,2828.39999999851,668015.799999997,8034,NTS,A,18
9,8,test,1,C,circle.png,1,m,Fri Mar 28 2025 15:26:34 GMT-0500 (Central Daylight Time),673243.299999997,1500,I,m,882,24,1,2395.60000000149,670847.6999999955,8034,NTS,A,19
8,8,test,1,C,circle.png,0,m,Fri Mar 28 2025 15:26:34 GMT-0500 (Central Daylight Time),675975.799999997,1200,I,None,1516,15,1,2729.0,673246.799999997,8034,NTS,A,20
8,8,test,1,C,triangle.png,0,m,Fri Mar 28 2025 15:26:34 GMT-0500 (Central Daylight Time),679108.1999999955,1600,I,None,1516,23,1,3128.7999999970198,675979.3999999985,8034,NTS,A,21
3,9,test,1,C,triangle.png,1,z,Fri Mar 28 2025 15:26:34 GMT-0500 (Central Daylight Time),681440.799999997,1200,I,z,1102,3,1,2328.7999999970198,679112.0,8034,NTS,A,22
7,9,test,1,C,triangle.png,0,z,Fri Mar 28 2025 15:26:34 GMT-0500 (Central Daylight Time),684323.1000000015,1700,I,m,1150,6,1,2878.0,681445.1000000015,8034,NTS,A,23
7,10,test,1,C,triangle.png,1,z,Fri Mar 28 2025 15:26:34 GMT-0500 (Central Daylight Time),686872.5,1700,I,z,819,22,1,2545.7000000029802,684326.799999997,8034,NTS,A,24
1,1,test,2,C,triangle.png,1,z,Fri Mar 28 2025 15:26:34 GMT-0500 (Central Daylight Time),716663.1000000015,1900,I,z,1045,17,1,2962.9000000059605,713700.1999999955,8034,NTS,A,1
3,2,test,2,C,triangle.png,1,z,Fri Mar 28 2025 15:26:34 GMT-0500 (Central Daylight Time),718745.6000000015,1200,I,z,859,3,1,2078.2000000029802,716667.3999999985,8034,NTS,A,2
9,3,test,2,C,triangle.png,1,z,Fri Mar 28 2025 15:26:34 GMT-0500 (Central Daylight Time),721528.1999999955,1400,I,z,1353,24,1,2777.5,718750.6999999955,8034,NTS,A,3
9,4,test,2,C,circle.png,1,m,Fri Mar 28 2025 15:26:34 GMT-0500 (Central Daylight Time),724177.3999999985,1500,I,m,1126,8,1,2645.60000000149,721531.799999997,8034,NTS,A,4
6,5,test,2,C,circle.png,1,m,Fri Mar 28 2025 15:26:34 GMT-0500 (Central Daylight Time),726826.5,1900,I,m,725,5,1,2645.8000000044703,724180.6999999955,8034,NTS,A,5
3,6,test,2,C,circle.png,1,z,Fri Mar 28 2025 15:26:34 GMT-0500 (Central Daylight Time),729659.299999997,1600,I,z,1216,19,1,2828.39999999851,726830.8999999985,8034,NTS,A,6
3,7,test,2,C,circle.png,1,z,Fri Mar 28 2025 15:26:34 GMT-0500 (Central Daylight Time),731974.8999999985,1600,I,z,688,11,1,2311.89999999851,729663.0,8034,NTS,A,7
8,8,test,2,C,circle.png,1,m,Fri Mar 28 2025 15:26:34 GMT-0500 (Central Daylight Time),734024.5,1200,I,m,827,23,1,2046.0,731978.5,8034,NTS,A,8
4,8,test,2,C,triangle.png,0,m,Fri Mar 28 2025 15:26:34 GMT-0500 (Central Daylight Time),736956.6999999955,1500,I,z,1406,12,1,2928.2999999970198,734028.3999999985,8034,NTS,A,9
4,9,test,2,C,triangle.png,1,m,Fri Mar 28 2025 15:26:34 GMT-0500 (Central Daylight Time),739089.299999997,1500,I,m,610,20,1,2128.60000000149,736960.6999999955,8034,NTS,A,10
6,10,test,2,C,triangle.png,1,m,Fri Mar 28 2025 15:26:34 GMT-0500 (Central Daylight Time),740938.6000000015,1000,I,m,825,13,1,1845.5,739093.1000000015,8034,NTS,A,11
7,10,test,2,C,circle.png,0,m,Fri Mar 28 2025 15:26:34 GMT-0500 (Central Daylight Time),743987.799999997,2000,I,z,1032,22,1,3045.5,740942.299999997,8034,NTS,A,12
1,11,test,2,C,circle.png,1,z,Fri Mar 28 2025 15:26:34 GMT-0500 (Central Daylight Time),745820.6000000015,1000,I,z,806,1,1,1829.4000000059605,743991.1999999955,8034,NTS,A,13
7,11,test,2,C,triangle.png,0,z,Fri Mar 28 2025 15:26:34 GMT-0500 (Central Daylight Time),748653.1000000015,1700,I,m,1106,6,1,2828.4000000059605,745824.6999999955,8034,NTS,A,14
4,12,test,2,C,circle.png,1,z,Fri Mar 28 2025 15:26:34 GMT-0500 (Central Daylight Time),751399.299999997,1400,I,z,1329,4,1,2741.7999999970198,748657.5,8034,NTS,A,15
8,13,test,2,C,triangle.png,1,m,Fri Mar 28 2025 15:26:34 GMT-0500 (Central Daylight Time),754001.299999997,1600,I,m,976,7,1,2597.39999999851,751403.8999999985,8034,NTS,A,16
2,13,test,2,C,circle.png,0,z,Fri Mar 28 2025 15:26:34 GMT-0500 (Central Daylight Time),756950.299999997,1700,I,m,1229,18,1,2945.39999999851,754004.8999999985,8034,NTS,A,17
9,13,test,2,C,triangle.png,0,z,Fri Mar 28 2025 15:26:34 GMT-0500 (Central Daylight Time),759882.8999999985,1400,I,None,1516,16,1,2928.7000000029802,756954.1999999955,8034,NTS,A,18
2,14,test,2,C,circle.png,1,z,Fri Mar 28 2025 15:26:34 GMT-0500 (Central Daylight Time),762265.3999999985,1700,I,z,652,10,1,2376.2000000029802,759889.1999999955,8034,NTS,A,19
2,15,test,2,C,triangle.png,1,m,Fri Mar 28 2025 15:26:34 GMT-0500 (Central Daylight Time),765131.1999999955,2000,I,m,841,2,1,2861.7999999970198,762269.3999999985,8034,NTS,A,20
6,15,test,2,C,triangle.png,0,m,Fri Mar 28 2025 15:26:34 GMT-0500 (Central Daylight Time),767580.3999999985,1000,I,z,1423,21,1,2445.5,765134.8999999985,8034,NTS,A,21
1,16,test,2,C,triangle.png,1,z,Fri Mar 28 2025 15:26:34 GMT-0500 (Central Daylight Time),770196.1000000015,1900,I,z,690,9,1,2611.5,767584.6000000015,8034,NTS,A,22
8,17,test,2,C,circle.png,1,m,Fri Mar 28 2025 15:26:34 GMT-0500 (Central Daylight Time),772762.1999999955,1200,I,m,1334,15,1,2561.89999999851,770200.299999997,8034,NTS,A,23
7,18,test,2,C,circle.png,1,m,Fri Mar 28 2025 15:26:34 GMT-0500 (Central Daylight Time),775527.8999999985,2000,I,m,744,14,1,2761.7000000029802,772766.1999999955,8034,NTS,A,24
7,1,test,3,C,triangle.png,1,z,Fri Mar 28 2025 15:26:34 GMT-0500 (Central Daylight Time),780793.0,1700,I,z,1443,22,1,3163.10000000149,777629.8999999985,8034,NTS,A,1
2,1,test,3,C,triangle.png,0,m,Fri Mar 28 2025 15:26:34 GMT-0500 (Central Daylight Time),784125.1999999955,2000,I,z,1306,18,1,3328.0,780797.1999999955,8034,NTS,A,2
3,2,test,3,C,triangle.png,1,z,Fri Mar 28 2025 15:26:34 GMT-0500 (Central Daylight Time),786124.5,1200,I,z,781,19,1,1995.0,784129.5,8034,NTS,A,3
9,2,test,3,C,triangle.png,0,z,Fri Mar 28 2025 15:26:34 GMT-0500 (Central Daylight Time),788407.0,1400,I,m,854,16,1,2278.7000000029802,786128.299999997,8034,NTS,A,4
7,3,test,3,C,circle.png,1,m,Fri Mar 28 2025 15:26:34 GMT-0500 (Central Daylight Time),791839.6000000015,2000,I,m,1412,14,1,3428.7000000029802,788410.8999999985,8034,NTS,A,5
6,3,test,3,C,triangle.png,0,m,Fri Mar 28 2025 15:26:34 GMT-0500 (Central Daylight Time),793872.1000000015,1000,I,z,1003,13,1,2028.5,791843.6000000015,8034,NTS,A,6
1,3,test,3,C,circle.png,0,z,Fri Mar 28 2025 15:26:34 GMT-0500 (Central Daylight Time),796088.1999999955,1000,I,m,1194,1,1,2212.2999999970198,793875.8999999985,8034,NTS,A,7
2,3,test,3,C,triangle.png,0,m,Fri Mar 28 2025 15:26:34 GMT-0500 (Central Daylight Time),799103.8999999985,2000,I,z,987,2,1,3011.7999999970198,796092.1000000015,8034,NTS,A,8
3,3,test,3,C,circle.png,0,z,Fri Mar 28 2025 15:26:34 GMT-0500 (Central Daylight Time),802102.799999997,1600,I,m,1379,11,1,2993.1999999955297,799109.6000000015,8034,NTS,A,9
8,4,test,3,C,circle.png,1,m,Fri Mar 28 2025 15:26:34 GMT-0500 (Central Daylight Time),804252.3999999985,1200,I,m,923,15,1,2145.39999999851,802107.0,8034,NTS,A,10
9,5,test,3,C,circle.png,1,m,Fri Mar 28 2025 15:26:34 GMT-0500 (Central Daylight Time),806718.1000000015,1500,I,m,946,24,1,2461.7000000029802,804256.3999999985,8034,NTS,A,11
3,6,test,3,C,triangle.png,1,z,Fri Mar 28 2025 15:26:34 GMT-0500 (Central Daylight Time),809067.1999999955,1200,I,z,1117,3,1,2345.5999999940395,806721.6000000015,8034,NTS,A,12
4,6,test,3,C,circle.png,0,z,Fri Mar 28 2025 15:26:34 GMT-0500 (Central Daylight Time),811283.1999999955,1400,I,m,799,4,1,2212.5999999940395,809070.6000000015,8034,NTS,A,13
6,6,test,3,C,circle.png,0,m,Fri Mar 28 2025 15:26:34 GMT-0500 (Central Daylight Time),814715.799999997,1900,I,None,1516,21,1,3428.1999999955297,811287.6000000015,8034,NTS,A,14
9,7,test,3,C,circle.png,1,m,Fri Mar 28 2025 15:26:34 GMT-0500 (Central Daylight Time),816898.1999999955,1500,I,m,651,8,1,2178.0999999940395,814720.1000000015,8034,NTS,A,15
4,8,test,3,C,circle.png,1,z,Fri Mar 28 2025 15:26:34 GMT-0500 (Central Daylight Time),819064.1999999955,1400,I,z,744,20,1,2162.5999999940395,816901.6000000015,8034,NTS,A,16
7,8,test,3,C,triangle.png,0,z,Fri Mar 28 2025 15:26:34 GMT-0500 (Central Daylight Time),822010.299999997,1700,I,m,1229,6,1,2942.1999999955297,819068.1000000015,8034,NTS,A,17
6,8,test,3,C,circle.png,0,m,Fri Mar 28 2025 15:26:34 GMT-0500 (Central Daylight Time),824712.5,1900,I,z,777,5,1,2697.2000000029802,822015.299999997,8034,NTS,A,18
1,9,test,3,C,circle.png,1,z,Fri Mar 28 2025 15:26:34 GMT-0500 (Central Daylight Time),826712.0,1000,I,z,970,17,1,1995.7000000029802,824716.299999997,8034,NTS,A,19
1,9,test,3,C,triangle.png,0,z,Fri Mar 28 2025 15:26:34 GMT-0500 (Central Daylight Time),829527.6999999955,1900,I,m,895,9,1,2811.5,826716.1999999955,8034,NTS,A,20
2,9,test,3,C,circle.png,0,z,Fri Mar 28 2025 15:26:34 GMT-0500 (Central Daylight Time),832077.0,1700,I,m,823,10,1,2545.60000000149,829531.3999999985,8034,NTS,A,21
8,10,test,3,C,triangle.png,1,m,Fri Mar 28 2025 15:26:34 GMT-0500 (Central Daylight Time),835126.0,1600,I,m,1422,7,1,3045.10000000149,832080.8999999985,8034,NTS,A,22
8,11,test,3,C,triangle.png,1,m,Fri Mar 28 2025 15:26:34 GMT-0500 (Central Daylight Time),837308.5,1600,I,m,564,23,1,2178.89999999851,835129.6000000015,8034,NTS,A,23
4,11,test,3,C,triangle.png,0,m,Fri Mar 28 2025 15:26:34 GMT-0500 (Central Daylight Time),840341.1000000015,1500,I,None,1516,12,1,3028.4000000059605,837312.6999999955,8034,NTS,A,24
7,0,test,4,C,triangle.png,0,z,Fri Mar 28 2025 15:26:34 GMT-0500 (Central Daylight Time),847388.8999999985,1700,I,m,1256,22,1,2979.7999999970198,844409.1000000015,8034,NTS,A,1
9,0,test,4,C,circle.png,0,m,Fri Mar 28 2025 15:26:34 GMT-0500 (Central Daylight Time),849888.1000000015,1500,I,z,978,24,1,2495.0,847393.1000000015,8034,NTS,A,2
8,0,test,4,C,triangle.png,0,m,Fri Mar 28 2025 15:26:34 GMT-0500 (Central Daylight Time),853020.299999997,1600,I,None,1516,23,1,3128.5,849891.799999997,8034,NTS,A,3
4,0,test,4,C,circle.png,0,z,Fri Mar 28 2025 15:26:34 GMT-0500 (Central Daylight Time),855952.5,1400,I,None,1516,4,1,2928.39999999851,853024.1000000015,8034,NTS,A,4
1,0,test,4,C,triangle.png,0,z,Fri Mar 28 2025 15:26:34 GMT-0500 (Central Daylight Time),858585.1999999955,1900,I,m,702,9,1,2629.0,855956.1999999955,8034,NTS,A,5
7,0,test,4,C,triangle.png,0,z,Fri Mar 28 2025 15:26:34 GMT-0500 (Central Daylight Time),861817.3999999985,1700,I,None,1515,6,1,3228.10000000149,858589.299999997,8034,NTS,A,6
8,0,test,4,C,triangle.png,0,m,Fri Mar 28 2025 15:26:34 GMT-0500 (Central Daylight Time),864100.0,1600,I,z,665,7,1,2278.60000000149,861821.3999999985,8034,NTS,A,7
3,0,test,4,C,triangle.png,0,z,Fri Mar 28 2025 15:26:34 GMT-0500 (Central Daylight Time),866815.8999999985,1200,I,m,1494,19,1,2712.10000000149,864103.799999997,8034,NTS,A,8
2,0,test,4,C,triangle.png,0,m,Fri Mar 28 2025 15:26:34 GMT-0500 (Central Daylight Time),870348.1999999955,2000,I,None,1516,18,1,3528.6999999955297,866819.5,8034,NTS,A,9
3,0,test,4,C,triangle.png,0,z,Fri Mar 28 2025 15:26:34 GMT-0500 (Central Daylight Time),872830.6999999955,1200,I,m,1254,3,1,2478.5999999940395,870352.1000000015,8034,NTS,A,10
9,1,test,4,C,triangle.png,1,z,Fri Mar 28 2025 15:26:34 GMT-0500 (Central Daylight Time),875063.5,1400,I,z,811,16,1,2229.39999999851,872834.1000000015,8034,NTS,A,11
7,2,test,4,C,circle.png,1,m,Fri Mar 28 2025 15:26:34 GMT-0500 (Central Daylight Time),878162.1999999955,2000,I,m,1075,14,1,3095.0,875067.1999999955,8034,NTS,A,12
6,3,test,4,C,circle.png,1,m,Fri Mar 28 2025 15:26:34 GMT-0500 (Central Daylight Time),880911.5,1900,I,m,828,5,1,2745.2000000029802,878166.299999997,8034,NTS,A,13
4,3,test,4,C,triangle.png,0,m,Fri Mar 28 2025 15:26:34 GMT-0500 (Central Daylight Time),883627.1999999955,1500,I,z,1199,12,1,2711.6999999955297,880915.5,8034,NTS,A,14
9,4,test,4,C,circle.png,1,m,Fri Mar 28 2025 15:26:34 GMT-0500 (Central Daylight Time),886060.0,1500,I,m,907,8,1,2429.2000000029802,883630.799999997,8034,NTS,A,15
2,5,test,4,C,circle.png,1,z,Fri Mar 28 2025 15:26:34 GMT-0500 (Central Daylight Time),888709.1000000015,1700,I,z,922,10,1,2645.60000000149,886063.5,8034,NTS,A,16
1,6,test,4,C,circle.png,1,z,Fri Mar 28 2025 15:26:34 GMT-0500 (Central Daylight Time),890541.6999999955,1000,I,z,813,17,1,1828.7999999970198,888712.8999999985,8034,NTS,A,17
4,7,test,4,C,circle.png,1,z,Fri Mar 28 2025 15:26:34 GMT-0500 (Central Daylight Time),893224.5,1400,I,z,1253,20,1,2679.0,890545.5,8034,NTS,A,18
6,7,test,4,C,triangle.png,0,m,Fri Mar 28 2025 15:26:34 GMT-0500 (Central Daylight Time),895757.8999999985,1000,I,None,1517,13,1,2529.5,893228.3999999985,8034,NTS,A,19
1,8,test,4,C,circle.png,1,z,Fri Mar 28 2025 15:26:34 GMT-0500 (Central Daylight Time),897789.6000000015,1000,I,z,1013,1,1,2028.3000000044703,895761.299999997,8034,NTS,A,20
8,9,test,4,C,circle.png,1,m,Fri Mar 28 2025 15:26:34 GMT-0500 (Central Daylight Time),899972.1000000015,1200,I,m,965,15,1,2178.60000000149,897793.5,8034,NTS,A,21
2,10,test,4,C,triangle.png,1,m,Fri Mar 28 2025 15:26:34 GMT-0500 (Central Daylight Time),903187.8999999985,2000,I,m,1190,2,1,3212.10000000149,899975.799999997,8034,NTS,A,22
6,11,test,4,C,circle.png,1,m,Fri Mar 28 2025 15:26:34 GMT-0500 (Central Daylight Time),906103.6000000015,1900,I,m,995,21,1,2912.3000000044703,903191.299999997,8034,NTS,A,23
3,12,test,4,C,circle.png,1,z,Fri Mar 28 2025 15:26:34 GMT-0500 (Central Daylight Time),908602.8999999985,1600,I,z,875,11,1,2495.39999999851,906107.5,8034,NTS,A,24
