acc_sum,block,block_c,condition,correct,correct_response,datetime,endtime,flanker,jitter,project,response,response_test_buffer_response,response_test_target_response,response_time,response_time_test_buffer_response,response_time_test_target_response,row_sel,session_number,start_end,starttime,subject_id,target,task,task_vers,time_test_buffer,time_test_buffer_response,time_test_constants,time_test_flanker,time_test_jitter,time_test_logger,time_test_target,time_test_target_response,time_test_variables,trial
1,prac,1,con,1,m,Wed Mar 12 2025 17:52:21 GMT-0500 (Central Daylight Time),223787.7999999998,jacket,800,O,m,,,1777,,,5,1,3872.9000000003725,219914.89999999944,7082,jacket,AF,A,,,,,,,,,,1
2,prac,1,inc,1,z,Wed Mar 12 2025 17:52:21 GMT-0500 (Central Daylight Time),227221.7000000002,napkin,1100,O,z,,,1027,,,12,1,3425.600000000559,223796.09999999963,7082,friend,AF,A,,,,,,,,,,2
3,prac,1,inc,1,m,Wed Mar 12 2025 17:52:21 GMT-0500 (Central Daylight Time),230534.0,brutal,1100,O,m,,,913,,,8,1,3302.9000000003725,227231.09999999963,7082,window,AF,A,,,,,,,,,,3
4,prac,1,inc,1,z,Wed Mar 12 2025 17:52:21 GMT-0500 (Central Daylight Time),233553.7000000002,rock,900,O,z,,,808,,,10,1,3016.4000000003725,230537.2999999998,7082,kind,AF,A,,,,,,,,,,4
5,prac,1,con,1,m,Wed Mar 12 2025 17:52:21 GMT-0500 (Central Daylight Time),236385.59999999963,remote,1000,O,m,,,530,,,7,1,2819.2999999998137,233566.2999999998,7082,remote,AF,A,,,,,,,,,,5
6,prac,1,con,1,z,Wed Mar 12 2025 17:52:21 GMT-0500 (Central Daylight Time),239266.5,love,1000,O,z,,,594,,,11,1,2869.2000000001863,236397.2999999998,7082,love,AF,A,,,,,,,,,,6
7,prac,1,con,1,m,Wed Mar 12 2025 17:52:21 GMT-0500 (Central Daylight Time),242183.7000000002,bell,1000,O,m,,,608,,,3,1,2909.9000000003725,239273.7999999998,7082,bell,AF,A,,,,,,,,,,7
8,prac,1,inc,1,m,Wed Mar 12 2025 17:52:21 GMT-0500 (Central Daylight Time),245348.0,elated,900,O,m,,,952,,,6,1,3155.7999999998137,242192.2000000002,7082,napkin,AF,A,,,,,,,,,,8
9,prac,1,inc,1,z,Wed Mar 12 2025 17:52:21 GMT-0500 (Central Daylight Time),248764.7999999998,window,1100,O,z,,,1012,,,16,1,3409.5,245355.2999999998,7082,temper,AF,A,,,,,,,,,,9
10,prac,1,con,1,z,Wed Mar 12 2025 17:52:21 GMT-0500 (Central Daylight Time),251446.2000000002,elated,800,O,z,,,576,,,9,1,2675.100000000559,248771.09999999963,7082,elated,AF,A,,,,,,,,,,10
11,prac,1,con,1,m,Wed Mar 12 2025 17:52:21 GMT-0500 (Central Daylight Time),254112.2999999998,step,800,O,m,,,566,,,1,1,2658.7999999998137,251453.5,7082,step,AF,A,,,,,,,,,,11
12,prac,1,con,1,z,Wed Mar 12 2025 17:52:21 GMT-0500 (Central Daylight Time),257095.39999999944,rage,1000,O,z,,,675,,,15,1,2977.699999999255,254117.7000000002,7082,rage,AF,A,,,,,,,,,,12
13,prac,1,con,1,z,Wed Mar 12 2025 17:52:21 GMT-0500 (Central Daylight Time),259778.0,brutal,800,O,z,,,589,,,13,1,2676.9000000003725,257101.09999999963,7082,brutal,AF,A,,,,,,,,,,13
14,prac,1,inc,1,m,Wed Mar 12 2025 17:52:21 GMT-0500 (Central Daylight Time),262673.39999999944,kind,900,O,m,,,693,,,2,1,2888.699999999255,259784.7000000002,7082,rock,AF,A,,,,,,,,,,14
15,prac,1,inc,1,z,Wed Mar 12 2025 17:52:21 GMT-0500 (Central Daylight Time),265641.5999999996,film,900,O,z,,,783,,,14,1,2964.5,262677.0999999996,7082,hate,AF,A,,,,,,,,,,15
16,prac,1,inc,1,m,Wed Mar 12 2025 17:52:21 GMT-0500 (Central Daylight Time),268958.39999999944,hate,1100,O,m,,,901,,,4,1,3310.199999999255,265648.2000000002,7082,film,AF,A,,,,,,,,,,16
1,test,1,con,1,m,Wed Mar 12 2025 17:52:21 GMT-0500 (Central Daylight Time),282070.0999999996,step,800,O,m,m,None,1369,1169.0,200.0,65,1,2710.0,279360.0999999996,7082,step,AF,A,278612,278612,277084,277896,277085,279794,278412,278412,279794,1
2,test,1,con,1,m,Wed Mar 12 2025 17:52:21 GMT-0500 (Central Daylight Time),284268.2999999998,remote,900,O,m,m,None,764,565.0,199.0,114,1,2192.9000000003725,282075.39999999944,7082,remote,AF,A,281425,281425,279799,280712,279800,281992,281226,281226,281992,2
3,test,1,inc,1,m,Wed Mar 12 2025 17:52:21 GMT-0500 (Central Daylight Time),286285.89999999944,elated,800,O,m,m,None,696,497.0,199.0,125,1,2011.8999999994412,284274.0,7082,window,AF,A,283510,283510,281998,282809,281998,284010,283311,283311,284010,3
4,test,1,con,1,m,Wed Mar 12 2025 17:52:21 GMT-0500 (Central Daylight Time),288368.2999999998,jacket,1100,O,m,m,None,449,234.0,215.0,100,1,2076.4000000003725,286291.89999999944,7082,jacket,AF,A,285843,285843,284016,285125,284016,286092,285627,285627,286092,4
5,test,1,inc,1,z,Wed Mar 12 2025 17:52:21 GMT-0500 (Central Daylight Time),290602.2999999998,bell,1000,O,z,z,None,699,484.0,215.0,47,1,2228.9000000003725,288373.39999999944,7082,hate,AF,A,287842,287842,286097,287109,286098,288326,287626,287626,288326,5
6,test,1,con,1,z,Wed Mar 12 2025 17:52:21 GMT-0500 (Central Daylight Time),292651.0999999996,brutal,900,O,z,z,None,633,433.0,200.0,34,1,2043.7999999998137,290607.2999999998,7082,brutal,AF,A,289942,289942,288331,289241,288332,290375,289742,289742,290375,6
7,test,1,con,1,m,Wed Mar 12 2025 17:52:21 GMT-0500 (Central Daylight Time),294665.39999999944,jacket,1000,O,m,m,None,474,258.0,216.0,99,1,2008.699999999255,292656.7000000002,7082,jacket,AF,A,292124,292124,290381,291392,290381,292389,291908,291908,292389,7
8,test,1,con,1,z,Wed Mar 12 2025 17:52:21 GMT-0500 (Central Daylight Time),296483.89999999944,hate,800,O,z,z,None,485,284.0,201.0,41,1,1813.699999999255,294670.2000000002,7082,hate,AF,A,293924,293924,292394,293208,292395,294208,293723,293723,294208,8
9,test,1,inc,1,z,Wed Mar 12 2025 17:52:21 GMT-0500 (Central Daylight Time),298481.39999999944,step,800,O,z,z,None,658,458.0,200.0,53,1,1991.5999999996275,296489.7999999998,7082,rage,AF,A,295740,295740,294214,295025,294214,296205,295539,295539,296205,9
10,test,1,con,1,m,Wed Mar 12 2025 17:52:21 GMT-0500 (Central Daylight Time),300516.2000000002,bell,900,O,m,m,None,600,401.0,199.0,82,1,2029.5,298486.7000000002,7082,bell,AF,A,297839,297839,296211,297123,296211,298240,297640,297640,298240,10
11,test,1,con,1,m,Wed Mar 12 2025 17:52:21 GMT-0500 (Central Daylight Time),302596.2999999998,napkin,1100,O,m,m,None,446,247.0,199.0,108,1,2074.2999999998137,300522.0,7082,napkin,AF,A,300072,300072,298246,299356,298246,300320,299872,299872,300320,11
12,test,1,inc,1,z,Wed Mar 12 2025 17:52:21 GMT-0500 (Central Daylight Time),304829.0999999996,remote,1000,O,z,z,None,697,482.0,215.0,63,1,2226.7000000001863,302602.39999999944,7082,temper,AF,A,302071,302071,300326,301338,300327,302553,301855,301855,302553,12
13,test,1,inc,1,z,Wed Mar 12 2025 17:52:21 GMT-0500 (Central Daylight Time),306946.5,rock,900,O,z,z,None,675,474.0,201.0,54,1,2112.4000000003725,304834.0999999996,7082,rage,AF,A,304188,304188,302558,303471,302558,304671,303986,303986,304671,13
14,test,1,con,1,z,Wed Mar 12 2025 17:52:21 GMT-0500 (Central Daylight Time),308912.7000000002,elated,1000,O,z,z,None,417,201.0,216.0,3,1,1962.0,306950.7000000002,7082,elated,AF,A,306420,306420,304675,305687,304675,306637,306204,306204,306637,14
15,test,1,con,1,m,Wed Mar 12 2025 17:52:21 GMT-0500 (Central Daylight Time),310859.89999999944,bell,800,O,m,m,None,614,414.0,200.0,81,1,1942.5,308917.39999999944,7082,bell,AF,A,308169,308169,306641,307453,306642,308584,307969,307969,308584,15
16,test,1,con,1,m,Wed Mar 12 2025 17:52:21 GMT-0500 (Central Daylight Time),312909.0,step,1000,O,m,m,None,503,302.0,201.0,67,1,2043.7000000001863,310865.2999999998,7082,step,AF,A,310320,310320,308589,309603,308590,310633,310118,310118,310633,16
17,test,1,inc,1,m,Wed Mar 12 2025 17:52:21 GMT-0500 (Central Daylight Time),314909.7000000002,rage,800,O,m,m,None,659,460.0,199.0,69,1,1995.5,312914.2000000002,7082,step,AF,A,312168,312169,310638,311452,310639,312634,311969,311969,312634,17
18,test,1,inc,1,m,Wed Mar 12 2025 17:52:21 GMT-0500 (Central Daylight Time),317109.89999999944,love,1000,O,m,m,None,649,432.0,217.0,79,1,2196.399999999441,314913.5,7082,rock,AF,A,314385,314385,312638,313651,312638,314834,314167,314167,314834,18
19,test,1,con,1,z,Wed Mar 12 2025 17:52:21 GMT-0500 (Central Daylight Time),319108.5999999996,brutal,1000,O,z,z,None,478,262.0,216.0,35,1,1991.8999999994412,317116.7000000002,7082,brutal,AF,A,316568,316568,314841,315849,314841,316833,316351,316351,316833,19
20,test,1,inc,1,z,Wed Mar 12 2025 17:52:21 GMT-0500 (Central Daylight Time),321391.39999999944,remote,1000,O,z,z,None,743,528.0,215.0,31,1,2276.7999999998137,319114.5999999996,7082,friend,AF,A,318582,318582,316839,317849,316839,319116,318367,318367,319115,20
21,test,1,con,1,z,Wed Mar 12 2025 17:52:21 GMT-0500 (Central Daylight Time),323473.5,kind,1100,O,z,z,None,442,226.0,216.0,12,1,2077.0,321396.5,7082,kind,AF,A,320965,320965,319121,320232,319121,321198,320749,320749,321198,21
22,test,1,inc,1,m,Wed Mar 12 2025 17:52:21 GMT-0500 (Central Daylight Time),325572.0,temper,1000,O,m,m,None,555,356.0,199.0,127,1,2092.100000000559,323479.89999999944,7082,window,AF,A,322930,322930,321204,322216,321204,323296,322731,322731,323296,22
23,test,1,con,1,z,Wed Mar 12 2025 17:52:21 GMT-0500 (Central Daylight Time),327655.7999999998,kind,900,O,z,z,None,644,444.0,200.0,10,1,2077.2000000001863,325578.5999999996,7082,kind,AF,A,324930,324930,323303,324215,323303,325380,324730,324730,325380,23
24,test,1,inc,1,m,Wed Mar 12 2025 17:52:21 GMT-0500 (Central Daylight Time),329556.0,rage,800,O,m,m,None,567,367.0,200.0,85,1,1894.1000000005588,327661.89999999944,7082,bell,AF,A,326913,326913,325386,326197,325386,327280,326713,326713,327280,24
25,test,1,inc,1,m,Wed Mar 12 2025 17:52:21 GMT-0500 (Central Daylight Time),331638.0999999996,brutal,900,O,m,m,None,636,437.0,199.0,118,1,2075.7999999998137,329562.2999999998,7082,remote,AF,A,328912,328912,327286,328196,327287,329362,328713,328713,329362,25
26,test,1,con,1,z,Wed Mar 12 2025 17:52:21 GMT-0500 (Central Daylight Time),333653.2000000002,rage,800,O,z,z,None,682,482.0,200.0,49,1,2008.1000000005588,331645.0999999996,7082,rage,AF,A,330895,330895,329369,330180,329369,331377,330695,330695,331377,26
27,test,1,con,1,z,Wed Mar 12 2025 17:52:21 GMT-0500 (Central Daylight Time),335470.5999999996,brutal,800,O,z,z,None,468,253.0,215.0,33,1,1813.0999999996275,333657.5,7082,brutal,AF,A,332928,332928,331382,332195,331382,333195,332712,332712,333195,27
28,test,1,inc,1,m,Wed Mar 12 2025 17:52:21 GMT-0500 (Central Daylight Time),337754.39999999944,friend,1100,O,m,m,None,651,450.0,201.0,112,1,2280.199999999255,335474.2000000002,7082,napkin,AF,A,335028,335028,333198,334311,333199,335478,334827,334827,335478,28
29,test,1,con,1,z,Wed Mar 12 2025 17:52:21 GMT-0500 (Central Daylight Time),340018.39999999944,temper,1000,O,z,z,None,722,508.0,214.0,59,1,2257.2999999998137,337761.0999999996,7082,temper,AF,A,337226,337226,335485,336494,335485,337743,337011,337011,337742,29
30,test,1,con,1,z,Wed Mar 12 2025 17:52:21 GMT-0500 (Central Daylight Time),342083.2999999998,hate,1000,O,z,z,None,529,328.0,201.0,43,1,2060.7000000001863,340022.5999999996,7082,hate,AF,A,339478,339478,337747,338759,337747,339807,339276,339276,339807,30
31,test,1,con,1,m,Wed Mar 12 2025 17:52:21 GMT-0500 (Central Daylight Time),344083.39999999944,napkin,1000,O,m,m,None,456,256.0,200.0,107,1,1996.0999999996275,342087.2999999998,7082,napkin,AF,A,341541,341541,339811,340825,339812,341808,341341,341341,341807,31
32,test,1,inc,1,m,Wed Mar 12 2025 17:52:21 GMT-0500 (Central Daylight Time),346368.2999999998,hate,1100,O,m,m,None,643,427.0,216.0,88,1,2280.5,344087.7999999998,7082,bell,AF,A,343659,343659,341812,342926,341812,344092,343441,343442,344092,32
33,test,1,con,1,m,Wed Mar 12 2025 17:52:21 GMT-0500 (Central Daylight Time),348449.89999999944,rock,1100,O,m,m,None,449,250.0,199.0,76,1,2076.199999999255,346373.7000000002,7082,rock,AF,A,345924,345924,344098,345207,344098,346174,345725,345725,346174,33
34,test,1,inc,1,m,Wed Mar 12 2025 17:52:21 GMT-0500 (Central Daylight Time),350630.5999999996,temper,1000,O,m,m,None,634,433.0,201.0,111,1,2173.899999999441,348456.7000000002,7082,napkin,AF,A,347908,347908,346181,347191,346181,348355,347706,347706,348355,34
35,test,1,inc,1,z,Wed Mar 12 2025 17:52:21 GMT-0500 (Central Daylight Time),352664.5,napkin,900,O,z,z,None,593,393.0,200.0,30,1,2028.2000000001863,350636.2999999998,7082,friend,AF,A,349989,349989,348360,349274,348361,350389,349789,349789,350389,35
36,test,1,inc,1,z,Wed Mar 12 2025 17:52:21 GMT-0500 (Central Daylight Time),354830.39999999944,film,1100,O,z,z,None,518,319.0,199.0,24,1,2161.899999999441,352668.5,7082,love,AF,A,352223,352223,350393,351505,350393,352554,352023,352023,352554,36
37,test,1,inc,1,z,Wed Mar 12 2025 17:52:21 GMT-0500 (Central Daylight Time),357196.2999999998,window,1100,O,z,z,None,731,516.0,215.0,64,1,2361.5,354834.7999999998,7082,temper,AF,A,354404,354404,352559,353672,352559,354920,354189,354189,354920,37
38,test,1,inc,1,z,Wed Mar 12 2025 17:52:21 GMT-0500 (Central Daylight Time),359411.5999999996,bell,1000,O,z,z,None,668,454.0,214.0,55,1,2209.399999999441,357202.2000000002,7082,rage,AF,A,356671,356671,354926,355938,354927,357136,356456,356456,357136,38
39,test,1,inc,1,m,Wed Mar 12 2025 17:52:21 GMT-0500 (Central Daylight Time),361427.0,brutal,900,O,m,m,None,571,355.0,216.0,110,1,2011.7999999998137,359415.2000000002,7082,napkin,AF,A,358787,358787,357139,358054,357140,359151,358570,358570,359151,39
40,test,1,con,1,z,Wed Mar 12 2025 17:52:21 GMT-0500 (Central Daylight Time),364126.5,brutal,1100,O,z,z,None,1051,852.0,199.0,36,1,2693.7000000001863,361432.7999999998,7082,brutal,AF,A,360985,360985,359157,360270,359157,361851,360786,360786,361850,40
41,test,1,con,1,z,Wed Mar 12 2025 17:52:21 GMT-0500 (Central Daylight Time),366176.7999999998,kind,1000,O,z,z,None,501,302.0,199.0,11,1,2045.4000000003725,364131.39999999944,7082,kind,AF,A,363584,363584,361855,362870,361856,363901,363385,363385,363901,41
42,test,1,inc,1,m,Wed Mar 12 2025 17:52:21 GMT-0500 (Central Daylight Time),368259.2999999998,love,1000,O,m,m,None,540,340.0,200.0,87,1,2076.2000000001863,366183.0999999996,7082,bell,AF,A,365634,365634,363907,364919,363908,365983,365434,365434,365983,42
43,test,1,inc,1,z,Wed Mar 12 2025 17:52:21 GMT-0500 (Central Daylight Time),370375.2000000002,bell,1000,O,z,z,None,569,369.0,200.0,23,1,2111.2000000001863,368264.0,7082,love,AF,A,367717,367717,365988,367000,365988,368099,367516,367516,368099,43
44,test,1,inc,1,m,Wed Mar 12 2025 17:52:21 GMT-0500 (Central Daylight Time),372273.89999999944,elated,800,O,m,m,None,580,366.0,214.0,109,1,1893.3999999994412,370380.5,7082,napkin,AF,A,369632,369632,368104,368915,368105,369998,369417,369417,369998,44
45,test,1,inc,1,m,Wed Mar 12 2025 17:52:21 GMT-0500 (Central Daylight Time),374391.0,temper,1000,O,m,m,None,571,370.0,201.0,103,1,2113.7999999998137,372277.2000000002,7082,jacket,AF,A,371732,371732,370001,371015,370001,372115,371531,371531,372115,45
46,test,1,con,1,z,Wed Mar 12 2025 17:52:21 GMT-0500 (Central Daylight Time),376323.5999999996,elated,800,O,z,z,None,598,398.0,200.0,1,1,1928.5999999996275,374395.0,7082,elated,AF,A,373649,373649,372119,372933,372119,374048,373449,373449,374048,46
47,test,1,inc,1,m,Wed Mar 12 2025 17:52:21 GMT-0500 (Central Daylight Time),378238.2000000002,rage,800,O,m,m,None,583,367.0,216.0,77,1,1909.7000000001863,376328.5,7082,rock,AF,A,375582,375582,374053,374864,374053,375962,375365,375365,375962,47
48,test,1,con,1,m,Wed Mar 12 2025 17:52:21 GMT-0500 (Central Daylight Time),380253.5999999996,film,1000,O,m,m,None,476,277.0,199.0,91,1,2010.3999999994412,378243.2000000002,7082,film,AF,A,377696,377696,375967,376982,375968,377978,377497,377497,377978,48
49,test,1,con,1,m,Wed Mar 12 2025 17:52:21 GMT-0500 (Central Daylight Time),382272.7999999998,rock,1000,O,m,m,None,467,251.0,216.0,75,1,2014.4000000003725,380258.39999999944,7082,rock,AF,A,379731,379731,377982,378996,377983,379997,379514,379514,379997,49
50,test,1,con,1,z,Wed Mar 12 2025 17:52:21 GMT-0500 (Central Daylight Time),384071.2999999998,love,800,O,z,z,None,452,238.0,214.0,17,1,1794.7999999998137,382276.5,7082,love,AF,A,381544,381544,380001,380813,380001,381795,381330,381330,381795,50
51,test,1,inc,1,z,Wed Mar 12 2025 17:52:21 GMT-0500 (Central Daylight Time),386337.7000000002,film,1100,O,z,z,None,615,399.0,216.0,56,1,2257.9000000003725,384079.7999999998,7082,rage,AF,A,383646,383646,381804,382912,381804,384062,383429,383429,384062,51
52,test,1,con,1,m,Wed Mar 12 2025 17:52:21 GMT-0500 (Central Daylight Time),388552.89999999944,bell,1100,O,m,m,None,575,374.0,201.0,84,1,2210.199999999255,386342.7000000002,7082,bell,AF,A,385896,385896,384067,385178,384067,386277,385695,385695,386277,52
53,test,1,con,1,z,Wed Mar 12 2025 17:52:21 GMT-0500 (Central Daylight Time),390485.0999999996,temper,800,O,z,z,None,597,398.0,199.0,57,1,1927.7999999998137,388557.2999999998,7082,temper,AF,A,387810,387810,386281,387093,386281,388209,387610,387610,388209,53
54,test,1,con,1,z,Wed Mar 12 2025 17:52:21 GMT-0500 (Central Daylight Time),392368.89999999944,love,900,O,z,z,None,460,260.0,200.0,18,1,1879.199999999255,390489.7000000002,7082,love,AF,A,389826,389826,388214,389116,388214,390093,389626,389626,390093,54
55,test,1,inc,1,m,Wed Mar 12 2025 17:52:21 GMT-0500 (Central Daylight Time),394618.89999999944,hate,1100,O,m,m,None,607,392.0,215.0,80,1,2245.199999999255,392373.7000000002,7082,rock,AF,A,391942,391942,390098,391209,390098,392343,391727,391727,392343,55
56,test,1,inc,1,z,Wed Mar 12 2025 17:52:21 GMT-0500 (Central Daylight Time),396616.7000000002,napkin,900,O,z,z,None,557,358.0,199.0,6,1,1993.5,394623.2000000002,7082,elated,AF,A,393976,393976,392347,393259,392348,394341,393776,393776,394341,56
57,test,1,con,1,z,Wed Mar 12 2025 17:52:21 GMT-0500 (Central Daylight Time),398949.2999999998,temper,900,O,z,z,None,887,687.0,200.0,58,1,2327.7000000001863,396621.5999999996,7082,temper,AF,A,395975,395975,394346,395259,394346,396673,395775,395775,396673,57
58,test,1,con,1,z,Wed Mar 12 2025 17:52:21 GMT-0500 (Central Daylight Time),400849.7000000002,hate,900,O,z,z,None,451,251.0,200.0,42,1,1895.800000000745,398953.89999999944,7082,hate,AF,A,398307,398307,396678,397590,396678,398574,398107,398107,398574,58
59,test,1,inc,1,z,Wed Mar 12 2025 17:52:21 GMT-0500 (Central Daylight Time),402732.89999999944,jacket,800,O,z,z,None,550,350.0,200.0,61,1,1877.7999999998137,400855.0999999996,7082,temper,AF,A,400107,400107,398579,399390,398580,400457,399906,399906,400457,59
60,test,1,con,1,m,Wed Mar 12 2025 17:52:21 GMT-0500 (Central Daylight Time),404864.89999999944,remote,1100,O,m,m,None,483,284.0,199.0,116,1,2127.399999999441,402737.5,7082,remote,AF,A,402289,402289,400462,401573,400462,402589,402090,402090,402589,60
61,test,1,inc,1,m,Wed Mar 12 2025 17:52:21 GMT-0500 (Central Daylight Time),407129.7999999998,friend,1100,O,m,m,None,624,424.0,200.0,128,1,2259.5999999996275,404870.2000000002,7082,window,AF,A,404422,404422,402594,403706,402595,404854,404221,404221,404854,61
62,test,1,inc,1,z,Wed Mar 12 2025 17:52:21 GMT-0500 (Central Daylight Time),409096.5,step,800,O,z,z,None,618,419.0,199.0,21,1,1962.4000000003725,407134.0999999996,7082,love,AF,A,406387,406387,404858,405672,404859,406821,406188,406188,406821,62
63,test,1,inc,1,z,Wed Mar 12 2025 17:52:21 GMT-0500 (Central Daylight Time),411196.39999999944,napkin,900,O,z,z,None,656,457.0,199.0,38,1,2095.699999999255,409100.7000000002,7082,brutal,AF,A,408453,408453,406825,407737,406825,408920,408254,408254,408920,63
64,test,1,con,1,m,Wed Mar 12 2025 17:52:21 GMT-0500 (Central Daylight Time),413177.89999999944,film,800,O,m,m,None,639,440.0,199.0,89,1,1976.2999999998137,411201.5999999996,7082,film,AF,A,410454,410454,408926,409737,408926,410902,410254,410254,410902,64
65,test,1,inc,1,z,Wed Mar 12 2025 17:52:21 GMT-0500 (Central Daylight Time),415443.39999999944,film,1100,O,z,z,None,621,409.0,212.0,16,1,2260.2999999998137,413183.0999999996,7082,kind,AF,A,412749,412749,410907,412019,410907,413168,412536,412537,413167,65
66,test,1,con,1,m,Wed Mar 12 2025 17:52:21 GMT-0500 (Central Daylight Time),417661.2999999998,bell,1000,O,m,m,None,682,466.0,216.0,83,1,2214.0,415447.2999999998,7082,bell,AF,A,414919,414919,413171,414186,413172,415385,414703,414703,415385,66
67,test,1,inc,1,m,Wed Mar 12 2025 17:52:21 GMT-0500 (Central Daylight Time),419743.0999999996,kind,900,O,m,m,None,645,445.0,200.0,70,1,2077.0999999996275,417666.0,7082,step,AF,A,417018,417018,415390,416301,415390,417467,416817,416817,417467,67
68,test,1,con,1,m,Wed Mar 12 2025 17:52:21 GMT-0500 (Central Daylight Time),421626.0999999996,napkin,900,O,m,m,None,440,225.0,215.0,106,1,1877.8999999994412,419748.2000000002,7082,napkin,AF,A,419117,419117,417472,418385,417472,419350,418901,418901,419350,68
69,test,1,inc,1,m,Wed Mar 12 2025 17:52:21 GMT-0500 (Central Daylight Time),423591.39999999944,rage,800,O,m,m,None,625,426.0,199.0,93,1,1960.2999999998137,421631.0999999996,7082,film,AF,A,420884,420884,419355,420167,419356,421315,420684,420684,421315,69
70,test,1,con,1,m,Wed Mar 12 2025 17:52:21 GMT-0500 (Central Daylight Time),425475.0999999996,rock,900,O,m,m,None,450,249.0,201.0,74,1,1879.2000000001863,423595.89999999944,7082,rock,AF,A,422950,422950,421320,422232,421320,423199,422748,422749,423199,70
71,test,1,inc,1,z,Wed Mar 12 2025 17:52:21 GMT-0500 (Central Daylight Time),427308.2999999998,jacket,800,O,z,z,None,499,299.0,200.0,5,1,1828.0,425480.2999999998,7082,elated,AF,A,424732,424733,423204,424016,423205,425032,424532,424532,425032,71
72,test,1,inc,1,z,Wed Mar 12 2025 17:52:21 GMT-0500 (Central Daylight Time),429556.5,film,1100,O,z,z,None,604,405.0,199.0,48,1,2240.2999999998137,427316.2000000002,7082,hate,AF,A,426865,426865,425040,426148,425041,427281,426665,426665,427280,72
73,test,1,inc,1,m,Wed Mar 12 2025 17:52:21 GMT-0500 (Central Daylight Time),431506.7999999998,brutal,900,O,m,m,None,516,316.0,200.0,102,1,1945.4000000003725,429561.39999999944,7082,jacket,AF,A,428914,428914,427285,428198,427286,429231,428714,428714,429231,73
73,test,1,inc,0,m,Wed Mar 12 2025 17:52:21 GMT-0500 (Central Daylight Time),433653.7999999998,temper,1000,O,z,z,None,610,410.0,200.0,119,1,2142.2000000001863,431511.5999999996,7082,remote,AF,A,430963,430963,429236,430247,429236,431378,430763,430763,431378,74
74,test,1,inc,1,z,Wed Mar 12 2025 17:52:21 GMT-0500 (Central Daylight Time),435854.7999999998,window,1100,O,z,z,None,551,336.0,215.0,32,1,2197.4000000003725,433657.39999999944,7082,friend,AF,A,433230,433230,431381,432496,431382,433579,433014,433014,433579,75
75,test,1,con,1,z,Wed Mar 12 2025 17:52:21 GMT-0500 (Central Daylight Time),438188.0999999996,hate,1100,O,z,z,None,699,485.0,214.0,44,1,2328.2000000001863,435859.89999999944,7082,hate,AF,A,435427,435427,433584,434696,433584,435912,435213,435213,435912,76
76,test,1,con,1,z,Wed Mar 12 2025 17:52:21 GMT-0500 (Central Daylight Time),440319.5,temper,1100,O,z,z,None,485,285.0,200.0,60,1,2124.600000000559,438194.89999999944,7082,temper,AF,A,437744,437744,435919,437028,435919,438044,437544,437544,438044,77
77,test,1,con,1,z,Wed Mar 12 2025 17:52:21 GMT-0500 (Central Daylight Time),442418.7999999998,friend,900,O,z,z,None,656,457.0,199.0,26,1,2092.5,440326.2999999998,7082,friend,AF,A,439677,439677,438050,438960,438051,440143,439478,439478,440143,78
78,test,1,inc,1,z,Wed Mar 12 2025 17:52:21 GMT-0500 (Central Daylight Time),444618.39999999944,remote,1000,O,z,z,None,657,458.0,199.0,7,1,2195.199999999255,442423.2000000002,7082,elated,AF,A,441876,441876,440147,441160,440147,442342,441676,441676,442342,79
79,test,1,con,1,m,Wed Mar 12 2025 17:52:21 GMT-0500 (Central Daylight Time),446566.39999999944,jacket,900,O,m,m,None,509,310.0,199.0,98,1,1943.5,444622.89999999944,7082,jacket,AF,A,443976,443976,442347,443260,442347,444290,443777,443777,444290,80
80,test,1,inc,1,m,Wed Mar 12 2025 17:52:21 GMT-0500 (Central Daylight Time),448567.89999999944,kind,900,O,m,m,None,560,361.0,199.0,86,1,1995.2999999998137,446572.5999999996,7082,bell,AF,A,445925,445925,444297,445208,444297,446292,445725,445725,446292,81
81,test,1,inc,1,z,Wed Mar 12 2025 17:52:21 GMT-0500 (Central Daylight Time),450782.5999999996,window,1100,O,z,z,None,578,376.0,202.0,8,1,2210.5,448572.0999999996,7082,elated,AF,A,448125,448125,446296,447408,446296,448507,447923,447923,448507,82
82,test,1,con,1,m,Wed Mar 12 2025 17:52:21 GMT-0500 (Central Daylight Time),453015.5999999996,film,1100,O,m,m,None,581,368.0,213.0,92,1,2228.2000000001863,450787.39999999944,7082,film,AF,A,450357,450357,448511,449627,448512,450740,450144,450144,450740,83
83,test,1,inc,1,z,Wed Mar 12 2025 17:52:21 GMT-0500 (Central Daylight Time),454915.0,step,800,O,z,z,None,565,366.0,199.0,45,1,1893.7999999998137,453021.2000000002,7082,hate,AF,A,452273,452273,450745,451558,450746,452639,452074,452074,452639,84
84,test,1,con,1,m,Wed Mar 12 2025 17:52:21 GMT-0500 (Central Daylight Time),457150.7999999998,remote,800,O,m,m,None,900,701.0,199.0,113,1,2228.2000000001863,454922.5999999996,7082,remote,AF,A,454173,454173,452647,453457,452647,454875,453973,453973,454875,85
85,test,1,con,1,m,Wed Mar 12 2025 17:52:21 GMT-0500 (Central Daylight Time),458963.5999999996,jacket,800,O,m,m,None,469,257.0,212.0,97,1,1807.5,457156.0999999996,7082,jacket,AF,A,456420,456420,454880,455691,454880,456688,456206,456207,456688,86
86,test,1,con,1,m,Wed Mar 12 2025 17:52:21 GMT-0500 (Central Daylight Time),461045.0999999996,window,1100,O,m,m,None,444,245.0,199.0,124,1,2077.399999999441,458967.7000000002,7082,window,AF,A,458520,458520,456692,457806,456692,458769,458321,458321,458769,87
87,test,1,con,1,m,Wed Mar 12 2025 17:52:21 GMT-0500 (Central Daylight Time),462811.2999999998,window,800,O,m,m,None,436,222.0,214.0,121,1,1762.7000000001863,461048.5999999996,7082,window,AF,A,460304,460304,458773,459588,458773,460535,460089,460089,460535,88
88,test,1,inc,1,z,Wed Mar 12 2025 17:52:21 GMT-0500 (Central Daylight Time),464778.89999999944,jacket,800,O,z,z,None,621,406.0,215.0,37,1,1964.5999999996275,462814.2999999998,7082,brutal,AF,A,462088,462088,460538,461354,460539,462503,461872,461872,462503,89
89,test,1,con,1,z,Wed Mar 12 2025 17:52:21 GMT-0500 (Central Daylight Time),466743.2999999998,love,1000,O,z,z,None,424,225.0,199.0,19,1,1956.5,464786.7999999998,7082,love,AF,A,464236,464236,462511,463521,462511,464467,464037,464037,464467,90
90,test,1,con,1,m,Wed Mar 12 2025 17:52:21 GMT-0500 (Central Daylight Time),468794.7999999998,remote,1000,O,m,m,None,502,301.0,201.0,115,1,2048.0,466746.7999999998,7082,remote,AF,A,466202,466202,464471,465484,464471,466519,466000,466000,466519,91
91,test,1,inc,1,z,Wed Mar 12 2025 17:52:21 GMT-0500 (Central Daylight Time),470860.7000000002,napkin,900,O,z,z,None,632,432.0,200.0,62,1,2061.600000000559,468799.0999999996,7082,temper,AF,A,468136,468136,466523,467434,466524,468585,467936,467936,468585,92
92,test,1,inc,1,m,Wed Mar 12 2025 17:52:21 GMT-0500 (Central Daylight Time),472959.2999999998,love,1000,O,m,m,None,551,351.0,200.0,71,1,2091.2999999998137,470868.0,7082,step,AF,A,470318,470318,468592,469600,468593,470683,470118,470118,470683,93
93,test,1,inc,1,m,Wed Mar 12 2025 17:52:21 GMT-0500 (Central Daylight Time),475308.5999999996,friend,1100,O,m,m,None,697,481.0,216.0,120,1,2345.2999999998137,472963.2999999998,7082,remote,AF,A,472534,472535,470687,471799,470688,473033,472317,472318,473033,94
94,test,1,con,1,z,Wed Mar 12 2025 17:52:21 GMT-0500 (Central Daylight Time),477392.2000000002,elated,1100,O,z,z,None,435,235.0,200.0,4,1,2079.600000000559,475312.5999999996,7082,elated,AF,A,474867,474867,473037,474151,473037,475116,474666,474666,475116,95
95,test,1,con,1,m,Wed Mar 12 2025 17:52:21 GMT-0500 (Central Daylight Time),479309.39999999944,window,900,O,m,m,None,483,284.0,199.0,122,1,1912.5,477396.89999999944,7082,window,AF,A,476749,476749,475121,476033,475121,477034,476549,476549,477033,96
96,test,1,inc,1,z,Wed Mar 12 2025 17:52:21 GMT-0500 (Central Daylight Time),481406.7999999998,remote,1000,O,z,z,None,569,354.0,215.0,39,1,2093.9000000003725,479312.89999999944,7082,brutal,AF,A,478764,478764,477037,478047,477037,479131,478549,478549,479131,97
97,test,1,inc,1,z,Wed Mar 12 2025 17:52:21 GMT-0500 (Central Daylight Time),483456.5999999996,rock,900,O,z,z,None,600,384.0,216.0,14,1,2045.0999999996275,481411.5,7082,kind,AF,A,480782,480782,479136,480048,479136,481181,480564,480565,481181,98
98,test,1,inc,1,m,Wed Mar 12 2025 17:52:21 GMT-0500 (Central Daylight Time),485657.2999999998,friend,1100,O,m,m,None,569,370.0,199.0,104,1,2194.7000000001863,483462.5999999996,7082,jacket,AF,A,482997,482997,481187,482295,481187,483382,482798,482798,483381,99
99,test,1,inc,1,m,Wed Mar 12 2025 17:52:21 GMT-0500 (Central Daylight Time),487736.5999999996,love,1000,O,m,m,None,542,343.0,199.0,95,1,2075.5999999996275,485661.0,7082,film,AF,A,485112,485112,483385,484397,483386,485461,484912,484912,485461,100
100,test,1,con,1,z,Wed Mar 12 2025 17:52:21 GMT-0500 (Central Daylight Time),489936.2000000002,rage,1000,O,z,z,None,649,447.0,202.0,51,1,2193.0,487743.2000000002,7082,rage,AF,A,487197,487198,485467,486481,485468,487660,486995,486995,487660,101
101,test,1,inc,1,z,Wed Mar 12 2025 17:52:21 GMT-0500 (Central Daylight Time),491971.2000000002,step,800,O,z,z,None,690,490.0,200.0,13,1,2031.2000000001863,489940.0,7082,kind,AF,A,489196,489196,487664,488481,487665,489695,488996,488996,489695,102
102,test,1,con,1,z,Wed Mar 12 2025 17:52:21 GMT-0500 (Central Daylight Time),494053.7000000002,rage,1100,O,z,z,None,437,237.0,200.0,52,1,2076.800000000745,491976.89999999944,7082,rage,AF,A,491528,491528,489701,490810,489701,491778,491328,491328,491778,103
103,test,1,inc,1,z,Wed Mar 12 2025 17:52:21 GMT-0500 (Central Daylight Time),496086.2999999998,rock,900,O,z,z,None,587,371.0,216.0,46,1,2027.7000000001863,494058.5999999996,7082,hate,AF,A,493427,493427,491783,492694,491783,493810,493211,493211,493810,104
104,test,1,con,1,m,Wed Mar 12 2025 17:52:21 GMT-0500 (Central Daylight Time),498000.7000000002,film,900,O,m,m,None,472,258.0,214.0,90,1,1909.300000000745,496091.39999999944,7082,film,AF,A,495460,495460,493815,494728,493816,495725,495246,495246,495725,105
105,test,1,inc,1,m,Wed Mar 12 2025 17:52:21 GMT-0500 (Central Daylight Time),499934.0,elated,800,O,m,m,None,596,397.0,199.0,101,1,1928.7999999998137,498005.2000000002,7082,jacket,AF,A,497260,497260,495729,496543,495730,497658,497060,497060,497658,106
106,test,1,con,1,z,Wed Mar 12 2025 17:52:21 GMT-0500 (Central Daylight Time),501800.2000000002,kind,800,O,z,z,None,517,318.0,199.0,9,1,1861.4000000003725,499938.7999999998,7082,kind,AF,A,499191,499191,497663,498475,497663,499524,498992,498992,499524,107
107,test,1,inc,1,m,Wed Mar 12 2025 17:52:21 GMT-0500 (Central Daylight Time),504132.7000000002,hate,1100,O,m,m,None,689,487.0,202.0,72,1,2325.9000000003725,501806.7999999998,7082,step,AF,A,501359,501359,499531,500641,499531,501857,501157,501157,501857,108
108,test,1,inc,1,m,Wed Mar 12 2025 17:52:21 GMT-0500 (Central Daylight Time),506365.0999999996,kind,900,O,m,m,None,781,568.0,213.0,78,1,2227.5999999996275,504137.5,7082,rock,AF,A,503506,503506,501862,502775,501862,504089,503293,503293,504089,109
109,test,1,inc,1,m,Wed Mar 12 2025 17:52:21 GMT-0500 (Central Daylight Time),508347.5999999996,kind,900,O,m,m,None,548,349.0,199.0,94,1,1975.7999999998137,506371.7999999998,7082,film,AF,A,505722,505722,504096,505006,504096,506072,505523,505523,506072,110
110,test,1,inc,1,m,Wed Mar 12 2025 17:52:21 GMT-0500 (Central Daylight Time),510531.7000000002,hate,1100,O,m,m,None,549,350.0,199.0,96,1,2176.4000000003725,508355.2999999998,7082,film,AF,A,507905,507905,506079,507189,506080,508256,507706,507706,508256,111
111,test,1,con,1,z,Wed Mar 12 2025 17:52:21 GMT-0500 (Central Daylight Time),512548.0,friend,800,O,z,z,None,683,482.0,201.0,25,1,2012.2000000001863,510535.7999999998,7082,friend,AF,A,509790,509790,508260,509072,508260,510272,509588,509588,510272,112
112,test,1,con,1,m,Wed Mar 12 2025 17:52:21 GMT-0500 (Central Daylight Time),514629.5999999996,window,1000,O,m,m,None,533,332.0,201.0,123,1,2076.0,512553.5999999996,7082,window,AF,A,512004,512004,510278,511288,510278,512354,511803,511803,512354,113
113,test,1,inc,1,m,Wed Mar 12 2025 17:52:21 GMT-0500 (Central Daylight Time),516512.5999999996,elated,800,O,m,m,None,559,360.0,199.0,117,1,1879.0,514633.5999999996,7082,remote,AF,A,513870,513870,512358,513170,512358,514237,513671,513671,514237,114
114,test,1,inc,1,z,Wed Mar 12 2025 17:52:21 GMT-0500 (Central Daylight Time),518746.39999999944,window,1100,O,z,z,None,601,401.0,200.0,40,1,2227.7999999998137,516518.5999999996,7082,brutal,AF,A,516069,516069,514243,515353,514243,516470,515869,515869,516470,115
115,test,1,con,1,z,Wed Mar 12 2025 17:52:21 GMT-0500 (Central Daylight Time),520843.7999999998,elated,900,O,z,z,None,671,472.0,199.0,2,1,2090.9000000003725,518752.89999999944,7082,elated,AF,A,518086,518086,516477,517385,516477,518568,517887,517887,518568,116
116,test,1,con,1,z,Wed Mar 12 2025 17:52:21 GMT-0500 (Central Daylight Time),522860.7000000002,friend,1000,O,z,z,None,488,289.0,199.0,27,1,2012.300000000745,520848.39999999944,7082,friend,AF,A,520285,520285,518572,519584,518573,520585,520086,520086,520585,117
117,test,1,con,1,m,Wed Mar 12 2025 17:52:21 GMT-0500 (Central Daylight Time),524628.8999999994,napkin,800,O,m,m,None,433,234.0,199.0,105,1,1763.0,522865.89999999944,7082,napkin,AF,A,522119,522119,520590,521402,520590,522353,521919,521919,522353,118
118,test,1,inc,1,z,Wed Mar 12 2025 17:52:21 GMT-0500 (Central Daylight Time),526676.0999999996,bell,1000,O,z,z,None,506,289.0,217.0,15,1,2042.0,524634.0999999996,7082,kind,AF,A,524101,524101,522358,523368,522358,524400,523884,523884,524400,119
119,test,1,inc,1,m,Wed Mar 12 2025 17:52:21 GMT-0500 (Central Daylight Time),528608.2000000002,brutal,900,O,m,m,None,493,293.0,200.0,126,1,1928.4000000003725,526679.7999999998,7082,window,AF,A,526033,526033,524404,525319,524404,526332,525833,525833,526332,120
120,test,1,inc,1,z,Wed Mar 12 2025 17:52:21 GMT-0500 (Central Daylight Time),530458.3999999994,jacket,800,O,z,z,None,516,317.0,199.0,29,1,1844.5999999996275,528613.7999999998,7082,friend,AF,A,527865,527865,526338,527150,526338,528182,527666,527666,528182,121
120,test,1,con,0,z,Wed Mar 12 2025 17:52:21 GMT-0500 (Central Daylight Time),532925.2000000002,friend,1100,O,m,m,None,839,640.0,199.0,28,1,2462.2000000001863,530463.0,7082,friend,AF,A,529998,529998,528187,529298,528187,530649,529799,529799,530649,122
121,test,1,con,1,z,Wed Mar 12 2025 17:52:21 GMT-0500 (Central Daylight Time),535322.7999999998,love,1100,O,z,z,None,757,557.0,200.0,20,1,2394.0,532928.7999999998,7082,love,AF,A,532481,532481,530653,531766,530653,533047,532281,532281,533047,123
122,test,1,con,1,m,Wed Mar 12 2025 17:52:21 GMT-0500 (Central Daylight Time),537572.2000000002,step,1100,O,m,m,None,597,398.0,199.0,68,1,2245.0,535327.2000000002,7082,step,AF,A,534881,534881,533051,534164,533052,535296,534682,534682,535296,124
123,test,1,inc,1,z,Wed Mar 12 2025 17:52:21 GMT-0500 (Central Daylight Time),539555.5999999996,rock,900,O,z,z,None,547,333.0,214.0,22,1,1978.5,537577.0999999996,7082,love,AF,A,536946,536946,535301,536214,535301,537280,536731,536731,537280,125
124,test,1,con,1,z,Wed Mar 12 2025 17:52:21 GMT-0500 (Central Daylight Time),541754.3999999994,rage,900,O,z,z,None,783,583.0,200.0,50,1,2194.0999999996275,539560.2999999998,7082,rage,AF,A,538895,538895,537284,538194,537285,539479,538695,538695,539478,126
125,test,1,con,1,m,Wed Mar 12 2025 17:52:21 GMT-0500 (Central Daylight Time),543573.0999999996,rock,800,O,m,m,None,501,302.0,199.0,73,1,1814.5999999996275,541758.5,7082,rock,AF,A,540995,540995,539483,540294,539483,541297,540796,540796,541297,127
126,test,1,con,1,m,Wed Mar 12 2025 17:52:21 GMT-0500 (Central Daylight Time),545520.2999999998,step,900,O,m,m,None,509,309.0,200.0,66,1,1942.0999999996275,543578.2000000002,7082,step,AF,A,542929,542929,541302,542212,541303,543244,542728,542728,543244,128
