acc_sum,block,block_c,change,condition,correct,correct_response,datetime,endtime,face,project,response,response_time,row_sel,session_number,start_end,starttime,subject_id,task,task_vers,trial
0,prac,1,,1-Back,,,Wed Apr 02 2025 18:27:46 GMT-0500 (Central Daylight Time),,124_o_f_d_a.png,O,space,8360,1,1,,,7116,VNB,A,0
1,prac,1,0.0,1-Back,1,m,Wed Apr 02 2025 18:27:46 GMT-0500 (Central Daylight Time),138287.09999999404,071_y_f_n_a.png,O,m,1160,2,1,1988.5999999940395,136298.5,7116,VNB,A,1
2,prac,1,0.0,1-Back,1,m,Wed Apr 02 2025 18:27:46 GMT-0500 (Central Daylight Time),140019.80000001192,165_m_m_h_a.png,O,m,875,3,1,1706.4000000059605,138313.40000000596,7116,VNB,A,2
3,prac,1,0.0,1-Back,1,m,Wed Apr 02 2025 18:27:46 GMT-0500 (Central Daylight Time),141985.90000000596,109_y_m_d_a.png,O,m,1104,4,1,1936.4000000059605,140049.5,7116,VNB,A,3
3,prac,1,0.0,1-Back,0,m,Wed Apr 02 2025 18:27:46 GMT-0500 (Central Daylight Time),144001.5,124_o_f_n_a.png,O,z,1108,5,1,1976.0,142025.5,7116,VNB,A,4
3,prac,1,1.0,1-Back,0,z,Wed Apr 02 2025 18:27:46 GMT-0500 (Central Daylight Time),146633.09999999404,109_y_m_n_a.png,O,m,1764,6,1,2596.199999988079,144036.90000000596,7116,VNB,A,5
4,prac,1,0.0,1-Back,1,m,Wed Apr 02 2025 18:27:46 GMT-0500 (Central Daylight Time),148966.69999998808,039_o_m_h_a.png,O,m,1508,7,1,2322.0999999940395,146644.59999999404,7116,VNB,A,6
5,prac,1,0.0,1-Back,1,m,Wed Apr 02 2025 18:27:46 GMT-0500 (Central Daylight Time),150949.30000001192,139_m_f_d_a.png,O,m,1126,8,1,1957.4000000059605,148991.90000000596,7116,VNB,A,7
5,prac,1,1.0,1-Back,0,z,Wed Apr 02 2025 18:27:46 GMT-0500 (Central Daylight Time),153265.09999999404,071_y_f_d_a.png,O,m,1438,9,1,2275.199999988079,150989.90000000596,7116,VNB,A,8
6,prac,1,0.0,1-Back,1,m,Wed Apr 02 2025 18:27:46 GMT-0500 (Central Daylight Time),155564.40000000596,165_m_m_n_a.png,O,m,1442,10,1,2259.9000000059605,153304.5,7116,VNB,A,9
7,prac,1,0.0,1-Back,1,m,Wed Apr 02 2025 18:27:46 GMT-0500 (Central Daylight Time),157497.30000001192,124_o_f_h_a.png,O,m,1056,11,1,1904.800000011921,155592.5,7116,VNB,A,10
8,prac,1,0.0,1-Back,1,m,Wed Apr 02 2025 18:27:46 GMT-0500 (Central Daylight Time),159646.90000000596,109_y_m_d_a.png,O,m,1341,12,1,2111.800000011921,157535.09999999404,7116,VNB,A,11
0,test,1,0.0,1-Back,,,Wed Apr 02 2025 18:27:46 GMT-0500 (Central Daylight Time),159646.90000000596,071_y_f_d_a.png,O,space,10335,1,1,2111.800000011921,157535.09999999404,7116,VNB,A,0
1,test,1,0.0,1-Back,1,m,Wed Apr 02 2025 18:27:46 GMT-0500 (Central Daylight Time),180573.59999999404,139_m_f_n_a.png,O,m,931,2,1,1944.0999999940395,178629.5,7116,VNB,A,1
2,test,1,0.0,1-Back,1,m,Wed Apr 02 2025 18:27:46 GMT-0500 (Central Daylight Time),182472.5,039_o_m_h_a.png,O,m,862,3,1,1868.0999999940395,180604.40000000596,7116,VNB,A,2
3,test,1,1.0,1-Back,1,z,Wed Apr 02 2025 18:27:46 GMT-0500 (Central Daylight Time),184237.69999998808,165_m_m_h_a.png,O,z,730,4,1,1739.199999988079,182498.5,7116,VNB,A,3
4,test,1,0.0,1-Back,1,m,Wed Apr 02 2025 18:27:46 GMT-0500 (Central Daylight Time),186053.5,124_o_f_n_a.png,O,m,787,5,1,1805.4000000059605,184248.09999999404,7116,VNB,A,4
5,test,1,0.0,1-Back,1,m,Wed Apr 02 2025 18:27:46 GMT-0500 (Central Daylight Time),188486.69999998808,109_y_m_d_a.png,O,m,1413,6,1,2424.0999999940395,186062.59999999404,7116,VNB,A,5
5,test,1,1.0,1-Back,0,z,Wed Apr 02 2025 18:27:46 GMT-0500 (Central Daylight Time),190486.40000000596,139_m_f_d_a.png,O,m,939,7,1,1967.5,188518.90000000596,7116,VNB,A,6
5,test,1,0.0,1-Back,0,m,Wed Apr 02 2025 18:27:46 GMT-0500 (Central Daylight Time),193535.5,071_y_f_h_a.png,O,None,2014,8,1,3022.5,190513.0,7116,VNB,A,7
6,test,1,0.0,1-Back,1,m,Wed Apr 02 2025 18:27:46 GMT-0500 (Central Daylight Time),195951.30000001192,039_o_m_n_a.png,O,m,1371,9,1,2385.5,193565.80000001192,7116,VNB,A,8
7,test,1,0.0,1-Back,1,m,Wed Apr 02 2025 18:27:46 GMT-0500 (Central Daylight Time),198050.40000000596,109_y_m_h_a.png,O,m,1043,10,1,2066.4000000059605,195984.0,7116,VNB,A,9
8,test,1,0.0,1-Back,1,m,Wed Apr 02 2025 18:27:46 GMT-0500 (Central Daylight Time),200933.0,039_o_m_d_a.png,O,m,1815,11,1,2850.699999988079,198082.30000001192,7116,VNB,A,10
9,test,1,1.0,1-Back,1,z,Wed Apr 02 2025 18:27:46 GMT-0500 (Central Daylight Time),203248.5,124_o_f_d_a.png,O,z,1261,12,1,2281.199999988079,200967.30000001192,7116,VNB,A,11
9,test,1,0.0,1-Back,0,m,Wed Apr 02 2025 18:27:46 GMT-0500 (Central Daylight Time),205581.80000001192,165_m_m_n_a.png,O,z,1281,13,1,2299.2000000178814,203282.59999999404,7116,VNB,A,12
10,test,1,1.0,1-Back,1,z,Wed Apr 02 2025 18:27:46 GMT-0500 (Central Daylight Time),207547.40000000596,071_y_f_n_a.png,O,z,908,14,1,1931.5999999940395,205615.80000001192,7116,VNB,A,13
11,test,1,0.0,1-Back,1,m,Wed Apr 02 2025 18:27:46 GMT-0500 (Central Daylight Time),209496.80000001192,139_m_f_h_a.png,O,m,903,15,1,1921.2000000178814,207575.59999999404,7116,VNB,A,14
12,test,1,0.0,1-Back,1,m,Wed Apr 02 2025 18:27:46 GMT-0500 (Central Daylight Time),211662.40000000596,165_m_m_d_a.png,O,m,1129,16,1,2137.0999999940395,209525.30000001192,7116,VNB,A,15
13,test,1,0.0,1-Back,1,m,Wed Apr 02 2025 18:27:46 GMT-0500 (Central Daylight Time),213861.90000000596,109_y_m_n_a.png,O,m,1156,17,1,2173.300000011921,211688.59999999404,7116,VNB,A,16
14,test,1,0.0,1-Back,1,m,Wed Apr 02 2025 18:27:46 GMT-0500 (Central Daylight Time),215928.0,124_o_f_h_a.png,O,m,1029,18,1,2040.0999999940395,213887.90000000596,7116,VNB,A,17
0,test,2,0.0,1-Back,,,Wed Apr 02 2025 18:27:46 GMT-0500 (Central Daylight Time),215928.0,109_y_m_n_a.png,O,space,2827,1,1,2040.0999999940395,213887.90000000596,7116,VNB,A,0
1,test,2,0.0,1-Back,1,m,Wed Apr 02 2025 18:27:46 GMT-0500 (Central Daylight Time),223042.5,071_y_f_h_a.png,O,m,1193,2,1,2217.5,220825.0,7116,VNB,A,1
2,test,2,1.0,1-Back,1,m,Wed Apr 02 2025 18:27:46 GMT-0500 (Central Daylight Time),225458.0,039_o_m_n_a.png,O,m,1360,3,1,2381.800000011921,223076.19999998808,7116,VNB,A,2
3,test,2,0.0,1-Back,1,m,Wed Apr 02 2025 18:27:46 GMT-0500 (Central Daylight Time),227990.40000000596,139_m_f_d_a.png,O,m,1496,4,1,2503.7000000178814,225486.69999998808,7116,VNB,A,3
3,test,2,0.0,1-Back,0,z,Wed Apr 02 2025 18:27:46 GMT-0500 (Central Daylight Time),230906.40000000596,165_m_m_d_a.png,O,m,1851,5,1,2883.5999999940395,228022.80000001192,7116,VNB,A,4
4,test,2,0.0,1-Back,1,m,Wed Apr 02 2025 18:27:46 GMT-0500 (Central Daylight Time),233172.19999998808,109_y_m_h_a.png,O,m,1207,6,1,2232.199999988079,230940.0,7116,VNB,A,5
5,test,2,1.0,1-Back,1,z,Wed Apr 02 2025 18:27:46 GMT-0500 (Central Daylight Time),235171.90000000596,124_o_f_h_a.png,O,z,958,7,1,1971.7000000178814,233200.19999998808,7116,VNB,A,6
6,test,2,0.0,1-Back,1,m,Wed Apr 02 2025 18:27:46 GMT-0500 (Central Daylight Time),237304.30000001192,139_m_f_n_a.png,O,m,1078,8,1,2100.100000023842,235204.19999998808,7116,VNB,A,7
7,test,2,0.0,1-Back,1,m,Wed Apr 02 2025 18:27:46 GMT-0500 (Central Daylight Time),239786.80000001192,071_y_f_d_a.png,O,m,1435,9,1,2452.2000000178814,237334.59999999404,7116,VNB,A,8
8,test,2,0.0,1-Back,1,m,Wed Apr 02 2025 18:27:46 GMT-0500 (Central Daylight Time),242268.59999999404,165_m_m_n_a.png,O,m,1421,10,1,2448.5,239820.09999999404,7116,VNB,A,9
9,test,2,1.0,1-Back,1,m,Wed Apr 02 2025 18:27:46 GMT-0500 (Central Daylight Time),244451.90000000596,139_m_f_h_a.png,O,m,1150,11,1,2170.5,242281.40000000596,7116,VNB,A,10
10,test,2,0.0,1-Back,1,z,Wed Apr 02 2025 18:27:46 GMT-0500 (Central Daylight Time),246417.90000000596,039_o_m_h_a.png,O,z,927,12,1,1939.5,244478.40000000596,7116,VNB,A,11
11,test,2,0.0,1-Back,1,m,Wed Apr 02 2025 18:27:46 GMT-0500 (Central Daylight Time),248333.59999999404,109_y_m_d_a.png,O,m,863,13,1,1883.0999999940395,246450.5,7116,VNB,A,12
12,test,2,0.0,1-Back,1,m,Wed Apr 02 2025 18:27:46 GMT-0500 (Central Daylight Time),251299.80000001192,124_o_f_n_a.png,O,m,1915,14,1,2948.0,248351.80000001192,7116,VNB,A,13
12,test,2,0.0,1-Back,0,z,Wed Apr 02 2025 18:27:46 GMT-0500 (Central Daylight Time),254365.40000000596,071_y_f_n_a.png,O,None,2014,15,1,3032.4000000059605,251333.0,7116,VNB,A,14
13,test,2,1.0,1-Back,1,m,Wed Apr 02 2025 18:27:46 GMT-0500 (Central Daylight Time),256914.19999998808,165_m_m_h_a.png,O,m,1493,16,1,2515.0999999940395,254399.09999999404,7116,VNB,A,15
14,test,2,0.0,1-Back,1,m,Wed Apr 02 2025 18:27:46 GMT-0500 (Central Daylight Time),258930.5,124_o_f_d_a.png,O,m,959,17,1,1980.4000000059605,256950.09999999404,7116,VNB,A,16
14,test,2,1.0,1-Back,0,z,Wed Apr 02 2025 18:27:46 GMT-0500 (Central Daylight Time),261663.09999999404,039_o_m_d_a.png,O,m,1679,18,1,2700.0999999940395,258963.0,7116,VNB,A,17
0,test,3,1.0,1-Back,,,Wed Apr 02 2025 18:27:46 GMT-0500 (Central Daylight Time),261663.09999999404,124_o_f_h_a.png,O,space,9124,1,1,2700.0999999940395,258963.0,7116,VNB,A,0
1,test,3,0.0,1-Back,1,m,Wed Apr 02 2025 18:27:46 GMT-0500 (Central Daylight Time),274958.8000000119,139_m_f_d_a.png,O,m,989,2,1,2014.1000000238419,272944.6999999881,7116,VNB,A,1
1,test,3,1.0,1-Back,0,m,Wed Apr 02 2025 18:27:46 GMT-0500 (Central Daylight Time),278007.90000000596,165_m_m_n_a.png,O,None,2015,3,1,3020.9000000059605,274987.0,7116,VNB,A,2
2,test,3,0.0,1-Back,1,z,Wed Apr 02 2025 18:27:46 GMT-0500 (Central Daylight Time),280206.90000000596,124_o_f_n_a.png,O,z,1163,4,1,2180.5999999940395,278026.3000000119,7116,VNB,A,3
3,test,3,1.0,1-Back,1,m,Wed Apr 02 2025 18:27:46 GMT-0500 (Central Daylight Time),282590.09999999404,039_o_m_d_a.png,O,m,1349,5,1,2353.5999999940395,280236.5,7116,VNB,A,4
4,test,3,0.0,1-Back,1,m,Wed Apr 02 2025 18:27:46 GMT-0500 (Central Daylight Time),285038.3000000119,071_y_f_h_a.png,O,m,1396,6,1,2415.9000000059605,282622.40000000596,7116,VNB,A,5
5,test,3,0.0,1-Back,1,z,Wed Apr 02 2025 18:27:46 GMT-0500 (Central Daylight Time),287404.8000000119,109_y_m_h_a.png,O,z,1324,7,1,2337.600000023842,285067.1999999881,7116,VNB,A,6
6,test,3,0.0,1-Back,1,m,Wed Apr 02 2025 18:27:46 GMT-0500 (Central Daylight Time),289369.6999999881,139_m_f_n_a.png,O,m,925,8,1,1934.699999988079,287435.0,7116,VNB,A,7
7,test,3,0.0,1-Back,1,m,Wed Apr 02 2025 18:27:46 GMT-0500 (Central Daylight Time),291819.59999999404,071_y_f_d_a.png,O,m,1424,9,1,2438.199999988079,289381.40000000596,7116,VNB,A,8
8,test,3,1.0,1-Back,1,m,Wed Apr 02 2025 18:27:46 GMT-0500 (Central Daylight Time),294635.5,039_o_m_n_a.png,O,m,1767,10,1,2788.0,291847.5,7116,VNB,A,9
9,test,3,0.0,1-Back,1,m,Wed Apr 02 2025 18:27:46 GMT-0500 (Central Daylight Time),297084.6999999881,165_m_m_h_a.png,O,m,1407,11,1,2418.199999988079,294666.5,7116,VNB,A,10
10,test,3,0.0,1-Back,1,z,Wed Apr 02 2025 18:27:46 GMT-0500 (Central Daylight Time),299300.5,139_m_f_h_a.png,O,z,1157,12,1,2182.0999999940395,297118.40000000596,7116,VNB,A,11
11,test,3,1.0,1-Back,1,m,Wed Apr 02 2025 18:27:46 GMT-0500 (Central Daylight Time),301433.1999999881,124_o_f_d_a.png,O,m,1069,13,1,2099.899999976158,299333.3000000119,7116,VNB,A,12
12,test,3,0.0,1-Back,1,z,Wed Apr 02 2025 18:27:46 GMT-0500 (Central Daylight Time),303949.6999999881,165_m_m_d_a.png,O,z,1465,14,1,2483.199999988079,301466.5,7116,VNB,A,13
13,test,3,0.0,1-Back,1,m,Wed Apr 02 2025 18:27:46 GMT-0500 (Central Daylight Time),305998.1999999881,109_y_m_n_a.png,O,m,1013,15,1,2027.0999999940395,303971.09999999404,7116,VNB,A,14
14,test,3,1.0,1-Back,1,m,Wed Apr 02 2025 18:27:46 GMT-0500 (Central Daylight Time),308297.6999999881,039_o_m_h_a.png,O,m,1235,16,1,2267.699999988079,306030.0,7116,VNB,A,15
15,test,3,0.0,1-Back,1,m,Wed Apr 02 2025 18:27:46 GMT-0500 (Central Daylight Time),311146.59999999404,109_y_m_d_a.png,O,m,1792,17,1,2815.4000000059605,308331.1999999881,7116,VNB,A,16
15,test,3,1.0,1-Back,0,m,Wed Apr 02 2025 18:27:46 GMT-0500 (Central Daylight Time),313478.90000000596,071_y_f_n_a.png,O,z,1287,18,1,2306.800000011921,311172.09999999404,7116,VNB,A,17
0,test,4,1.0,1-Back,,,Wed Apr 02 2025 18:27:46 GMT-0500 (Central Daylight Time),313478.90000000596,165_m_m_d_a.png,O,space,3420,1,1,2306.800000011921,311172.09999999404,7116,VNB,A,0
1,test,4,0.0,1-Back,1,z,Wed Apr 02 2025 18:27:46 GMT-0500 (Central Daylight Time),321943.40000000596,039_o_m_d_a.png,O,z,1962,2,1,2974.4000000059605,318969.0,7116,VNB,A,1
2,test,4,0.0,1-Back,1,m,Wed Apr 02 2025 18:27:46 GMT-0500 (Central Daylight Time),324309.0,109_y_m_h_a.png,O,m,1315,3,1,2340.199999988079,321968.8000000119,7116,VNB,A,2
3,test,4,0.0,1-Back,1,m,Wed Apr 02 2025 18:27:46 GMT-0500 (Central Daylight Time),326608.1999999881,139_m_f_n_a.png,O,m,1254,4,1,2270.899999976158,324337.3000000119,7116,VNB,A,3
4,test,4,1.0,1-Back,1,m,Wed Apr 02 2025 18:27:46 GMT-0500 (Central Daylight Time),329440.6999999881,124_o_f_h_a.png,O,m,1794,5,1,2814.2999999821186,326626.40000000596,7116,VNB,A,4
5,test,4,0.0,1-Back,1,m,Wed Apr 02 2025 18:27:46 GMT-0500 (Central Daylight Time),331707.0,165_m_m_n_a.png,O,m,1220,6,1,2237.300000011921,329469.6999999881,7116,VNB,A,5
6,test,4,0.0,1-Back,1,m,Wed Apr 02 2025 18:27:46 GMT-0500 (Central Daylight Time),334271.8000000119,109_y_m_d_a.png,O,m,1500,7,1,2530.9000000059605,331740.90000000596,7116,VNB,A,6
7,test,4,1.0,1-Back,1,z,Wed Apr 02 2025 18:27:46 GMT-0500 (Central Daylight Time),336387.5,071_y_f_d_a.png,O,z,1099,8,1,2106.5999999940395,334280.90000000596,7116,VNB,A,7
8,test,4,0.0,1-Back,1,m,Wed Apr 02 2025 18:27:46 GMT-0500 (Central Daylight Time),338453.5,139_m_f_h_a.png,O,m,1044,9,1,2055.0,336398.5,7116,VNB,A,8
9,test,4,0.0,1-Back,1,z,Wed Apr 02 2025 18:27:46 GMT-0500 (Central Daylight Time),340603.59999999404,039_o_m_h_a.png,O,z,1117,10,1,2138.699999988079,338464.90000000596,7116,VNB,A,9
10,test,4,1.0,1-Back,1,m,Wed Apr 02 2025 18:27:46 GMT-0500 (Central Daylight Time),342935.40000000596,124_o_f_n_a.png,O,m,1293,11,1,2300.800000011921,340634.59999999404,7116,VNB,A,10
10,test,4,0.0,1-Back,0,m,Wed Apr 02 2025 18:27:46 GMT-0500 (Central Daylight Time),345968.6999999881,139_m_f_d_a.png,O,None,2016,12,1,3024.5,342944.1999999881,7116,VNB,A,11
10,test,4,0.0,1-Back,0,m,Wed Apr 02 2025 18:27:46 GMT-0500 (Central Daylight Time),349017.59999999404,071_y_f_n_a.png,O,None,2014,13,1,3019.5999999940395,345998.0,7116,VNB,A,12
11,test,4,0.0,1-Back,1,m,Wed Apr 02 2025 18:27:46 GMT-0500 (Central Daylight Time),351083.6999999881,124_o_f_d_a.png,O,m,1000,14,1,2032.0,349051.6999999881,7116,VNB,A,13
12,test,4,0.0,1-Back,1,m,Wed Apr 02 2025 18:27:46 GMT-0500 (Central Daylight Time),353282.90000000596,071_y_f_h_a.png,O,m,1133,15,1,2164.5,351118.40000000596,7116,VNB,A,14
13,test,4,1.0,1-Back,1,z,Wed Apr 02 2025 18:27:46 GMT-0500 (Central Daylight Time),355498.0,165_m_m_h_a.png,O,z,1149,16,1,2183.4000000059605,353314.59999999404,7116,VNB,A,15
14,test,4,0.0,1-Back,1,m,Wed Apr 02 2025 18:27:46 GMT-0500 (Central Daylight Time),357547.40000000596,039_o_m_n_a.png,O,m,1016,17,1,2039.5999999940395,355507.8000000119,7116,VNB,A,16
15,test,4,1.0,1-Back,1,z,Wed Apr 02 2025 18:27:46 GMT-0500 (Central Daylight Time),359647.6999999881,109_y_m_n_a.png,O,z,1071,18,1,2090.399999976158,357557.3000000119,7116,VNB,A,17
0,test,5,1.0,1-Back,,,Wed Apr 02 2025 18:27:46 GMT-0500 (Central Daylight Time),359647.6999999881,039_o_m_n_a.png,O,space,1747,1,1,2090.399999976158,357557.3000000119,7116,VNB,A,0
1,test,5,1.0,1-Back,1,m,Wed Apr 02 2025 18:27:46 GMT-0500 (Central Daylight Time),365595.5,124_o_f_h_a.png,O,m,1125,2,1,2138.199999988079,363457.3000000119,7116,VNB,A,1
2,test,5,0.0,1-Back,1,m,Wed Apr 02 2025 18:27:46 GMT-0500 (Central Daylight Time),367811.3000000119,109_y_m_d_a.png,O,m,1175,3,1,2189.9000000059605,365621.40000000596,7116,VNB,A,2
3,test,5,0.0,1-Back,1,z,Wed Apr 02 2025 18:27:46 GMT-0500 (Central Daylight Time),370093.90000000596,039_o_m_d_a.png,O,z,1247,4,1,2256.5,367837.40000000596,7116,VNB,A,3
4,test,5,0.0,1-Back,1,m,Wed Apr 02 2025 18:27:46 GMT-0500 (Central Daylight Time),372675.8000000119,139_m_f_h_a.png,O,m,1539,5,1,2556.5,370119.3000000119,7116,VNB,A,4
5,test,5,0.0,1-Back,1,m,Wed Apr 02 2025 18:27:46 GMT-0500 (Central Daylight Time),375009.0,071_y_f_n_a.png,O,m,1311,6,1,2318.4000000059605,372690.59999999404,7116,VNB,A,5
6,test,5,1.0,1-Back,1,z,Wed Apr 02 2025 18:27:46 GMT-0500 (Central Daylight Time),377174.8000000119,124_o_f_n_a.png,O,z,1129,7,1,2137.600000023842,375037.1999999881,7116,VNB,A,6
7,test,5,0.0,1-Back,1,m,Wed Apr 02 2025 18:27:46 GMT-0500 (Central Daylight Time),379807.6999999881,139_m_f_d_a.png,O,m,1595,8,1,2608.199999988079,377199.5,7116,VNB,A,7
8,test,5,0.0,1-Back,1,m,Wed Apr 02 2025 18:27:46 GMT-0500 (Central Daylight Time),381923.40000000596,109_y_m_h_a.png,O,m,1075,9,1,2085.7000000178814,379837.6999999881,7116,VNB,A,8
9,test,5,0.0,1-Back,1,m,Wed Apr 02 2025 18:27:46 GMT-0500 (Central Daylight Time),384572.5,071_y_f_d_a.png,O,m,1590,10,1,2610.5999999940395,381961.90000000596,7116,VNB,A,9
10,test,5,0.0,1-Back,1,m,Wed Apr 02 2025 18:27:46 GMT-0500 (Central Daylight Time),387371.8000000119,165_m_m_n_a.png,O,m,1749,11,1,2768.4000000059605,384603.40000000596,7116,VNB,A,10
11,test,5,1.0,1-Back,1,z,Wed Apr 02 2025 18:27:46 GMT-0500 (Central Daylight Time),389504.09999999404,139_m_f_n_a.png,O,z,1095,12,1,2105.5999999940395,387398.5,7116,VNB,A,11
12,test,5,0.0,1-Back,1,m,Wed Apr 02 2025 18:27:46 GMT-0500 (Central Daylight Time),391587.40000000596,039_o_m_h_a.png,O,m,1033,13,1,2057.5999999940395,389529.8000000119,7116,VNB,A,12
13,test,5,0.0,1-Back,1,z,Wed Apr 02 2025 18:27:46 GMT-0500 (Central Daylight Time),393769.59999999404,165_m_m_h_a.png,O,z,1127,14,1,2149.0999999940395,391620.5,7116,VNB,A,13
14,test,5,1.0,1-Back,1,m,Wed Apr 02 2025 18:27:46 GMT-0500 (Central Daylight Time),396152.1999999881,124_o_f_d_a.png,O,m,1320,15,1,2348.699999988079,393803.5,7116,VNB,A,14
15,test,5,0.0,1-Back,1,m,Wed Apr 02 2025 18:27:46 GMT-0500 (Central Daylight Time),398568.0,109_y_m_n_a.png,O,m,1361,16,1,2383.4000000059605,396184.59999999404,7116,VNB,A,15
16,test,5,0.0,1-Back,1,m,Wed Apr 02 2025 18:27:46 GMT-0500 (Central Daylight Time),400850.40000000596,071_y_f_h_a.png,O,m,1226,17,1,2247.5999999940395,398602.8000000119,7116,VNB,A,16
17,test,5,0.0,1-Back,1,m,Wed Apr 02 2025 18:27:46 GMT-0500 (Central Daylight Time),403100.0,165_m_m_d_a.png,O,m,1208,18,1,2224.800000011921,400875.1999999881,7116,VNB,A,17
0,prac,1,0.0,2-Back,,,Wed Apr 02 2025 18:27:46 GMT-0500 (Central Daylight Time),403100.0,139_m_f_n_a.png,O,space,8729,1,1,2224.800000011921,400875.1999999881,7116,VNB,A,0
0,prac,1,0.0,2-Back,,,Wed Apr 02 2025 18:27:46 GMT-0500 (Central Daylight Time),403100.0,124_o_f_h_a.png,O,space,8729,2,1,2224.800000011921,400875.1999999881,7116,VNB,A,0
1,prac,1,0.0,2-Back,1,m,Wed Apr 02 2025 18:27:46 GMT-0500 (Central Daylight Time),494619.09999999404,039_o_m_d_a.png,O,m,1522,3,1,2367.2999999821186,492251.8000000119,7116,VNB,A,1
2,prac,1,1.0,2-Back,1,z,Wed Apr 02 2025 18:27:46 GMT-0500 (Central Daylight Time),497068.8000000119,165_m_m_h_a.png,O,z,1608,4,1,2433.4000000059605,494635.40000000596,7116,VNB,A,2
2,prac,1,0.0,2-Back,0,m,Wed Apr 02 2025 18:27:46 GMT-0500 (Central Daylight Time),499935.0,071_y_f_n_a.png,O,None,2016,5,1,2837.9000000059605,497097.09999999404,7116,VNB,A,3
3,prac,1,1.0,2-Back,1,z,Wed Apr 02 2025 18:27:46 GMT-0500 (Central Daylight Time),502267.5,039_o_m_h_a.png,O,z,1450,6,1,2304.300000011921,499963.1999999881,7116,VNB,A,4
4,prac,1,1.0,2-Back,1,z,Wed Apr 02 2025 18:27:46 GMT-0500 (Central Daylight Time),504483.5,109_y_m_n_a.png,O,z,1335,7,1,2182.5999999940395,502300.90000000596,7116,VNB,A,5
5,prac,1,0.0,2-Back,1,m,Wed Apr 02 2025 18:27:46 GMT-0500 (Central Daylight Time),507099.5,139_m_f_d_a.png,O,m,1732,8,1,2580.5,504519.0,7116,VNB,A,6
6,prac,1,0.0,2-Back,1,m,Wed Apr 02 2025 18:27:46 GMT-0500 (Central Daylight Time),509881.6999999881,124_o_f_d_a.png,O,m,1861,9,1,2750.399999976158,507131.3000000119,7116,VNB,A,7
6,prac,1,0.0,2-Back,0,m,Wed Apr 02 2025 18:27:46 GMT-0500 (Central Daylight Time),512097.3000000119,165_m_m_h_a.png,O,z,1339,10,1,2180.100000023842,509917.1999999881,7116,VNB,A,8
7,prac,1,1.0,2-Back,1,z,Wed Apr 02 2025 18:27:46 GMT-0500 (Central Daylight Time),514895.59999999404,071_y_f_d_a.png,O,z,1931,11,1,2759.7999999821186,512135.8000000119,7116,VNB,A,9
7,prac,1,0.0,2-Back,0,m,Wed Apr 02 2025 18:27:46 GMT-0500 (Central Daylight Time),517728.8000000119,039_o_m_n_a.png,O,None,2013,12,1,2820.2000000178814,514908.59999999404,7116,VNB,A,10
0,test,1,0.0,2-Back,,,Wed Apr 02 2025 18:27:46 GMT-0500 (Central Daylight Time),517728.8000000119,109_y_m_h_a.png,O,space,17552,1,1,2820.2000000178814,514908.59999999404,7116,VNB,A,0
0,test,1,0.0,2-Back,,,Wed Apr 02 2025 18:27:46 GMT-0500 (Central Daylight Time),517728.8000000119,124_o_f_n_a.png,O,space,17552,2,1,2820.2000000178814,514908.59999999404,7116,VNB,A,0
1,test,1,0.0,2-Back,1,z,Wed Apr 02 2025 18:27:46 GMT-0500 (Central Daylight Time),550984.5,039_o_m_h_a.png,O,z,1444,3,1,2460.4000000059605,548524.099999994,7116,VNB,A,1
1,test,1,0.0,2-Back,0,m,Wed Apr 02 2025 18:27:46 GMT-0500 (Central Daylight Time),554050.599999994,139_m_f_d_a.png,O,None,2014,4,1,3031.2999999821186,551019.3000000119,7116,VNB,A,2
1,test,1,1.0,2-Back,0,m,Wed Apr 02 2025 18:27:46 GMT-0500 (Central Daylight Time),556632.8000000119,109_y_m_n_a.png,O,z,1544,5,1,2555.0,554077.8000000119,7116,VNB,A,3
1,test,1,0.0,2-Back,0,z,Wed Apr 02 2025 18:27:46 GMT-0500 (Central Daylight Time),559681.6999999881,071_y_f_d_a.png,O,None,2015,6,1,3021.7999999821186,556659.900000006,7116,VNB,A,4
1,test,1,0.0,2-Back,0,m,Wed Apr 02 2025 18:27:46 GMT-0500 (Central Daylight Time),561747.8000000119,165_m_m_h_a.png,O,z,1008,7,1,2033.300000011921,559714.5,7116,VNB,A,5
1,test,1,1.0,2-Back,0,m,Wed Apr 02 2025 18:27:46 GMT-0500 (Central Daylight Time),563897.099999994,071_y_f_n_a.png,O,z,1094,8,1,2115.7999999821186,561781.3000000119,7116,VNB,A,6
2,test,1,0.0,2-Back,1,z,Wed Apr 02 2025 18:27:46 GMT-0500 (Central Daylight Time),566345.400000006,124_o_f_h_a.png,O,z,1409,9,1,2424.0999999940395,563921.3000000119,7116,VNB,A,7
3,test,1,0.0,2-Back,1,m,Wed Apr 02 2025 18:27:46 GMT-0500 (Central Daylight Time),569045.1999999881,039_o_m_d_a.png,O,m,1681,10,1,2689.0,566356.1999999881,7116,VNB,A,8
4,test,1,1.0,2-Back,1,m,Wed Apr 02 2025 18:27:46 GMT-0500 (Central Daylight Time),571794.599999994,165_m_m_d_a.png,O,m,1701,11,1,2729.199999988079,569065.400000006,7116,VNB,A,9
4,test,1,0.0,2-Back,0,m,Wed Apr 02 2025 18:27:46 GMT-0500 (Central Daylight Time),573977.1999999881,139_m_f_n_a.png,O,z,1119,12,1,2148.199999988079,571829.0,7116,VNB,A,10
4,test,1,0.0,2-Back,0,m,Wed Apr 02 2025 18:27:46 GMT-0500 (Central Daylight Time),576992.400000006,071_y_f_h_a.png,O,z,1977,13,1,2986.5999999940395,574005.8000000119,7116,VNB,A,11
5,test,1,0.0,2-Back,1,z,Wed Apr 02 2025 18:27:46 GMT-0500 (Central Daylight Time),579408.0,165_m_m_n_a.png,O,z,1379,14,1,2386.800000011921,577021.1999999881,7116,VNB,A,12
6,test,1,0.0,2-Back,1,m,Wed Apr 02 2025 18:27:46 GMT-0500 (Central Daylight Time),582274.3000000119,109_y_m_d_a.png,O,m,1843,15,1,2857.2000000178814,579417.099999994,7116,VNB,A,13
6,test,1,1.0,2-Back,0,m,Wed Apr 02 2025 18:27:46 GMT-0500 (Central Daylight Time),585323.6999999881,139_m_f_h_a.png,O,None,2014,16,1,3018.399999976158,582305.3000000119,7116,VNB,A,14
7,test,1,0.0,2-Back,1,z,Wed Apr 02 2025 18:27:46 GMT-0500 (Central Daylight Time),588022.3000000119,124_o_f_d_a.png,O,z,1647,17,1,2662.300000011921,585360.0,7116,VNB,A,15
7,test,1,0.0,2-Back,0,m,Wed Apr 02 2025 18:27:46 GMT-0500 (Central Daylight Time),590921.599999994,039_o_m_n_a.png,O,z,1842,18,1,2864.5999999940395,588057.0,7116,VNB,A,16
0,test,2,0.0,2-Back,,,Wed Apr 02 2025 18:27:46 GMT-0500 (Central Daylight Time),590921.599999994,165_m_m_h_a.png,O,space,12278,1,1,2864.5999999940395,588057.0,7116,VNB,A,0
0,test,2,0.0,2-Back,,,Wed Apr 02 2025 18:27:46 GMT-0500 (Central Daylight Time),590921.599999994,071_y_f_n_a.png,O,space,12278,2,1,2864.5999999940395,588057.0,7116,VNB,A,0
1,test,2,1.0,2-Back,1,z,Wed Apr 02 2025 18:27:46 GMT-0500 (Central Daylight Time),610548.599999994,124_o_f_h_a.png,O,z,1091,3,1,2115.4000000059605,608433.1999999881,7116,VNB,A,1
2,test,2,0.0,2-Back,1,m,Wed Apr 02 2025 18:27:46 GMT-0500 (Central Daylight Time),612714.400000006,039_o_m_d_a.png,O,m,1101,4,1,2130.5999999940395,610583.8000000119,7116,VNB,A,2
2,test,2,0.0,2-Back,0,m,Wed Apr 02 2025 18:27:46 GMT-0500 (Central Daylight Time),615263.6999999881,139_m_f_d_a.png,O,z,1495,5,1,2512.2999999821186,612751.400000006,7116,VNB,A,3
2,test,2,0.0,2-Back,0,m,Wed Apr 02 2025 18:27:46 GMT-0500 (Central Daylight Time),617679.3000000119,109_y_m_h_a.png,O,z,1354,6,1,2381.2000000178814,615298.099999994,7116,VNB,A,4
3,test,2,0.0,2-Back,1,m,Wed Apr 02 2025 18:27:46 GMT-0500 (Central Daylight Time),620711.400000006,124_o_f_n_a.png,O,m,1986,7,1,3002.9000000059605,617708.5,7116,VNB,A,5
4,test,2,1.0,2-Back,1,z,Wed Apr 02 2025 18:27:46 GMT-0500 (Central Daylight Time),622760.900000006,039_o_m_h_a.png,O,z,1003,8,1,2026.7000000178814,620734.1999999881,7116,VNB,A,6
5,test,2,0.0,2-Back,1,m,Wed Apr 02 2025 18:27:46 GMT-0500 (Central Daylight Time),625276.1999999881,071_y_f_d_a.png,O,m,1480,9,1,2492.199999988079,622784.0,7116,VNB,A,7
5,test,2,0.0,2-Back,0,m,Wed Apr 02 2025 18:27:46 GMT-0500 (Central Daylight Time),627742.6999999881,109_y_m_d_a.png,O,z,1446,10,1,2451.7999999821186,625290.900000006,7116,VNB,A,8
5,test,2,0.0,2-Back,0,m,Wed Apr 02 2025 18:27:46 GMT-0500 (Central Daylight Time),630708.900000006,165_m_m_n_a.png,O,z,1899,11,1,2927.7000000178814,627781.1999999881,7116,VNB,A,9
5,test,2,0.0,2-Back,0,m,Wed Apr 02 2025 18:27:46 GMT-0500 (Central Daylight Time),633774.5,139_m_f_h_a.png,O,None,2014,12,1,3030.5,630744.0,7116,VNB,A,10
6,test,2,1.0,2-Back,1,z,Wed Apr 02 2025 18:27:46 GMT-0500 (Central Daylight Time),636440.1999999881,039_o_m_n_a.png,O,z,1604,13,1,2629.699999988079,633810.5,7116,VNB,A,11
6,test,2,0.0,2-Back,0,m,Wed Apr 02 2025 18:27:46 GMT-0500 (Central Daylight Time),639488.900000006,124_o_f_d_a.png,O,None,2015,14,1,3022.9000000059605,636466.0,7116,VNB,A,12
6,test,2,0.0,2-Back,0,m,Wed Apr 02 2025 18:27:46 GMT-0500 (Central Daylight Time),641588.400000006,071_y_f_h_a.png,O,z,1058,15,1,2070.800000011921,639517.599999994,7116,VNB,A,13
7,test,2,0.0,2-Back,1,z,Wed Apr 02 2025 18:27:46 GMT-0500 (Central Daylight Time),644337.1999999881,165_m_m_d_a.png,O,z,1702,16,1,2720.0,641617.1999999881,7116,VNB,A,14
8,test,2,0.0,2-Back,1,m,Wed Apr 02 2025 18:27:46 GMT-0500 (Central Daylight Time),647302.099999994,109_y_m_n_a.png,O,m,1913,17,1,2929.2999999821186,644372.8000000119,7116,VNB,A,15
9,test,2,1.0,2-Back,1,m,Wed Apr 02 2025 18:27:46 GMT-0500 (Central Daylight Time),649918.099999994,139_m_f_n_a.png,O,m,1588,18,1,2606.7999999821186,647311.3000000119,7116,VNB,A,16
0,test,3,1.0,2-Back,,,Wed Apr 02 2025 18:27:46 GMT-0500 (Central Daylight Time),649918.099999994,039_o_m_n_a.png,O,space,3759,1,1,2606.7999999821186,647311.3000000119,7116,VNB,A,0
0,test,3,1.0,2-Back,,,Wed Apr 02 2025 18:27:46 GMT-0500 (Central Daylight Time),649918.099999994,124_o_f_d_a.png,O,space,3759,2,1,2606.7999999821186,647311.3000000119,7116,VNB,A,0
1,test,3,0.0,2-Back,1,m,Wed Apr 02 2025 18:27:46 GMT-0500 (Central Daylight Time),661382.099999994,071_y_f_h_a.png,O,m,1414,3,1,2422.7999999821186,658959.3000000119,7116,VNB,A,1
2,test,3,0.0,2-Back,1,z,Wed Apr 02 2025 18:27:46 GMT-0500 (Central Daylight Time),664247.1999999881,139_m_f_d_a.png,O,z,1804,4,1,2831.699999988079,661415.5,7116,VNB,A,2
3,test,3,1.0,2-Back,1,m,Wed Apr 02 2025 18:27:46 GMT-0500 (Central Daylight Time),666663.3000000119,109_y_m_n_a.png,O,m,1354,5,1,2375.7000000178814,664287.599999994,7116,VNB,A,3
3,test,3,0.0,2-Back,0,m,Wed Apr 02 2025 18:27:46 GMT-0500 (Central Daylight Time),668795.5,039_o_m_h_a.png,O,z,1075,6,1,2100.300000011921,666695.1999999881,7116,VNB,A,4
4,test,3,0.0,2-Back,1,z,Wed Apr 02 2025 18:27:46 GMT-0500 (Central Daylight Time),671246.0,071_y_f_n_a.png,O,z,1433,7,1,2435.9000000059605,668810.099999994,7116,VNB,A,5
5,test,3,1.0,2-Back,1,m,Wed Apr 02 2025 18:27:46 GMT-0500 (Central Daylight Time),673461.099999994,165_m_m_d_a.png,O,m,1157,8,1,2178.0999999940395,671283.0,7116,VNB,A,6
5,test,3,0.0,2-Back,0,m,Wed Apr 02 2025 18:27:46 GMT-0500 (Central Daylight Time),676527.099999994,109_y_m_d_a.png,O,None,2015,9,1,3029.0,673498.099999994,7116,VNB,A,7
5,test,3,0.0,2-Back,0,m,Wed Apr 02 2025 18:27:46 GMT-0500 (Central Daylight Time),678676.3000000119,124_o_f_h_a.png,O,z,1101,10,1,2127.2000000178814,676549.099999994,7116,VNB,A,8
5,test,3,1.0,2-Back,0,m,Wed Apr 02 2025 18:27:46 GMT-0500 (Central Daylight Time),681308.5,139_m_f_n_a.png,O,z,1590,11,1,2608.199999988079,678700.3000000119,7116,VNB,A,9
5,test,3,1.0,2-Back,0,z,Wed Apr 02 2025 18:27:46 GMT-0500 (Central Daylight Time),684357.900000006,165_m_m_h_a.png,O,None,2015,12,1,3019.300000011921,681338.599999994,7116,VNB,A,10
6,test,3,0.0,2-Back,1,m,Wed Apr 02 2025 18:27:46 GMT-0500 (Central Daylight Time),687223.3000000119,071_y_f_d_a.png,O,m,1804,13,1,2829.800000011921,684393.5,7116,VNB,A,11
6,test,3,0.0,2-Back,0,m,Wed Apr 02 2025 18:27:46 GMT-0500 (Central Daylight Time),690272.400000006,124_o_f_n_a.png,O,None,2014,14,1,3020.4000000059605,687252.0,7116,VNB,A,12
6,test,3,0.0,2-Back,0,z,Wed Apr 02 2025 18:27:46 GMT-0500 (Central Daylight Time),693304.599999994,039_o_m_d_a.png,O,m,1969,15,1,2999.0,690305.599999994,7116,VNB,A,13
6,test,3,1.0,2-Back,0,m,Wed Apr 02 2025 18:27:46 GMT-0500 (Central Daylight Time),695536.900000006,139_m_f_h_a.png,O,z,1185,16,1,2200.9000000059605,693336.0,7116,VNB,A,14
6,test,3,0.0,2-Back,0,m,Wed Apr 02 2025 18:27:46 GMT-0500 (Central Daylight Time),698302.5,165_m_m_n_a.png,O,z,1720,17,1,2747.0999999940395,695555.400000006,7116,VNB,A,15
7,test,3,0.0,2-Back,1,z,Wed Apr 02 2025 18:27:46 GMT-0500 (Central Daylight Time),701318.3000000119,109_y_m_h_a.png,O,z,1980,18,1,2999.0,698319.3000000119,7116,VNB,A,16
0,test,4,0.0,2-Back,,,Wed Apr 02 2025 18:27:46 GMT-0500 (Central Daylight Time),701318.3000000119,139_m_f_n_a.png,O,space,5085,1,1,2999.0,698319.3000000119,7116,VNB,A,0
0,test,4,0.0,2-Back,,,Wed Apr 02 2025 18:27:46 GMT-0500 (Central Daylight Time),701318.3000000119,039_o_m_n_a.png,O,space,5085,2,1,2999.0,698319.3000000119,7116,VNB,A,0
1,test,4,1.0,2-Back,1,m,Wed Apr 02 2025 18:27:46 GMT-0500 (Central Daylight Time),713864.599999994,109_y_m_h_a.png,O,m,1229,3,1,2247.4000000059605,711617.1999999881,7116,VNB,A,1
2,test,4,1.0,2-Back,1,m,Wed Apr 02 2025 18:27:46 GMT-0500 (Central Daylight Time),716347.400000006,124_o_f_d_a.png,O,m,1433,4,1,2457.300000011921,713890.099999994,7116,VNB,A,2
3,test,4,0.0,2-Back,1,z,Wed Apr 02 2025 18:27:46 GMT-0500 (Central Daylight Time),718746.3000000119,039_o_m_h_a.png,O,z,1335,5,1,2367.4000000059605,716378.900000006,7116,VNB,A,3
3,test,4,0.0,2-Back,0,m,Wed Apr 02 2025 18:27:46 GMT-0500 (Central Daylight Time),721462.1999999881,165_m_m_n_a.png,O,z,1672,6,1,2685.899999976158,718776.3000000119,7116,VNB,A,4
3,test,4,0.0,2-Back,0,m,Wed Apr 02 2025 18:27:46 GMT-0500 (Central Daylight Time),724527.8000000119,139_m_f_d_a.png,O,None,2011,7,1,3031.0,721496.8000000119,7116,VNB,A,5
4,test,4,0.0,2-Back,1,z,Wed Apr 02 2025 18:27:46 GMT-0500 (Central Daylight Time),727126.6999999881,071_y_f_n_a.png,O,z,1546,8,1,2563.7999999821186,724562.900000006,7116,VNB,A,6
5,test,4,1.0,2-Back,1,m,Wed Apr 02 2025 18:27:46 GMT-0500 (Central Daylight Time),730009.1999999881,124_o_f_h_a.png,O,m,1836,9,1,2858.2999999821186,727150.900000006,7116,VNB,A,7
5,test,4,0.0,2-Back,0,m,Wed Apr 02 2025 18:27:46 GMT-0500 (Central Daylight Time),733075.099999994,165_m_m_h_a.png,O,None,2015,10,1,3029.5,730045.599999994,7116,VNB,A,8
6,test,4,0.0,2-Back,1,m,Wed Apr 02 2025 18:27:46 GMT-0500 (Central Daylight Time),735507.3000000119,071_y_f_d_a.png,O,m,1375,11,1,2395.0,733112.3000000119,7116,VNB,A,9
7,test,4,0.0,2-Back,1,m,Wed Apr 02 2025 18:27:46 GMT-0500 (Central Daylight Time),738539.8000000119,109_y_m_n_a.png,O,m,1974,12,1,2996.2000000178814,735543.599999994,7116,VNB,A,10
7,test,4,0.0,2-Back,0,z,Wed Apr 02 2025 18:27:46 GMT-0500 (Central Daylight Time),741405.3000000119,039_o_m_d_a.png,O,m,1806,13,1,2831.800000011921,738573.5,7116,VNB,A,11
7,test,4,1.0,2-Back,0,m,Wed Apr 02 2025 18:27:46 GMT-0500 (Central Daylight Time),744454.5,139_m_f_h_a.png,O,None,2014,14,1,3021.5999999940395,741432.900000006,7116,VNB,A,12
8,test,4,1.0,2-Back,1,m,Wed Apr 02 2025 18:27:46 GMT-0500 (Central Daylight Time),747086.6999999881,071_y_f_h_a.png,O,m,1580,15,1,2600.5999999940395,744486.099999994,7116,VNB,A,13
8,test,4,0.0,2-Back,0,m,Wed Apr 02 2025 18:27:46 GMT-0500 (Central Daylight Time),748686.0,124_o_f_n_a.png,O,z,547,16,1,1564.699999988079,747121.3000000119,7116,VNB,A,14
9,test,4,0.0,2-Back,1,m,Wed Apr 02 2025 18:27:46 GMT-0500 (Central Daylight Time),751202.5,109_y_m_d_a.png,O,m,1476,17,1,2486.5999999940395,748715.900000006,7116,VNB,A,15
10,test,4,1.0,2-Back,1,m,Wed Apr 02 2025 18:27:46 GMT-0500 (Central Daylight Time),753401.400000006,165_m_m_d_a.png,O,m,1144,18,1,2166.0,751235.400000006,7116,VNB,A,16
0,test,5,1.0,2-Back,,,Wed Apr 02 2025 18:27:46 GMT-0500 (Central Daylight Time),753401.400000006,071_y_f_d_a.png,O,space,6930,1,1,2166.0,751235.400000006,7116,VNB,A,0
0,test,5,1.0,2-Back,,,Wed Apr 02 2025 18:27:46 GMT-0500 (Central Daylight Time),753401.400000006,124_o_f_h_a.png,O,space,6930,2,1,2166.0,751235.400000006,7116,VNB,A,0
0,test,5,1.0,2-Back,0,z,Wed Apr 02 2025 18:27:46 GMT-0500 (Central Daylight Time),768630.099999994,039_o_m_d_a.png,O,None,2014,3,1,3021.9000000059605,765608.1999999881,7116,VNB,A,1
1,test,5,1.0,2-Back,1,m,Wed Apr 02 2025 18:27:46 GMT-0500 (Central Daylight Time),771445.900000006,139_m_f_n_a.png,O,m,1756,4,1,2781.7000000178814,768664.1999999881,7116,VNB,A,2
1,test,5,0.0,2-Back,0,m,Wed Apr 02 2025 18:27:46 GMT-0500 (Central Daylight Time),774494.599999994,165_m_m_h_a.png,O,z,1982,5,1,3012.9000000059605,771481.6999999881,7116,VNB,A,3
2,test,5,0.0,2-Back,1,z,Wed Apr 02 2025 18:27:46 GMT-0500 (Central Daylight Time),777293.8000000119,071_y_f_n_a.png,O,z,1758,6,1,2770.0,774523.8000000119,7116,VNB,A,4
2,test,5,0.0,2-Back,0,m,Wed Apr 02 2025 18:27:46 GMT-0500 (Central Daylight Time),780093.0,124_o_f_d_a.png,O,z,1748,7,1,2774.5,777318.5,7116,VNB,A,5
3,test,5,0.0,2-Back,1,m,Wed Apr 02 2025 18:27:46 GMT-0500 (Central Daylight Time),782791.900000006,039_o_m_h_a.png,O,m,1637,8,1,2665.9000000059605,780126.0,7116,VNB,A,6
4,test,5,1.0,2-Back,1,z,Wed Apr 02 2025 18:27:46 GMT-0500 (Central Daylight Time),785707.599999994,139_m_f_d_a.png,O,z,1858,9,1,2881.7999999821186,782825.8000000119,7116,VNB,A,7
4,test,5,0.0,2-Back,0,m,Wed Apr 02 2025 18:27:46 GMT-0500 (Central Daylight Time),788390.0,109_y_m_n_a.png,O,z,1647,10,1,2652.800000011921,785737.1999999881,7116,VNB,A,8
4,test,5,0.0,2-Back,0,m,Wed Apr 02 2025 18:27:46 GMT-0500 (Central Daylight Time),791455.8000000119,165_m_m_n_a.png,O,None,2014,11,1,3030.0,788425.8000000119,7116,VNB,A,9
4,test,5,0.0,2-Back,0,m,Wed Apr 02 2025 18:27:46 GMT-0500 (Central Daylight Time),794521.400000006,071_y_f_h_a.png,O,None,2014,12,1,3029.800000011921,791491.599999994,7116,VNB,A,10
4,test,5,0.0,2-Back,0,m,Wed Apr 02 2025 18:27:46 GMT-0500 (Central Daylight Time),796754.099999994,109_y_m_d_a.png,O,z,1169,13,1,2198.699999988079,794555.400000006,7116,VNB,A,11
4,test,5,1.0,2-Back,0,z,Wed Apr 02 2025 18:27:46 GMT-0500 (Central Daylight Time),799803.1999999881,139_m_f_h_a.png,O,None,2015,14,1,3023.5999999940395,796779.599999994,7116,VNB,A,12
5,test,5,0.0,2-Back,1,m,Wed Apr 02 2025 18:27:46 GMT-0500 (Central Daylight Time),802402.400000006,039_o_m_n_a.png,O,m,1535,15,1,2566.4000000059605,799836.0,7116,VNB,A,13
6,test,5,0.0,2-Back,1,m,Wed Apr 02 2025 18:27:46 GMT-0500 (Central Daylight Time),805184.6999999881,165_m_m_d_a.png,O,m,1721,16,1,2746.5,802438.1999999881,7116,VNB,A,14
7,test,5,0.0,2-Back,1,z,Wed Apr 02 2025 18:27:46 GMT-0500 (Central Daylight Time),807983.599999994,124_o_f_n_a.png,O,z,1754,17,1,2771.5999999940395,805212.0,7116,VNB,A,15
8,test,5,1.0,2-Back,1,m,Wed Apr 02 2025 18:27:46 GMT-0500 (Central Daylight Time),810633.099999994,109_y_m_h_a.png,O,m,1586,18,1,2612.9000000059605,808020.1999999881,7116,VNB,A,16
