block_c,block_dur,condition,countdown,datetime,endtime,list,multichar_response,project,response,response_time,session_number,start_end,starttime,subject_id,task,task_vers,trial
,,,,Tue Nov 05 2024 17:13:11 GMT-0600 (Central Standard Time),,,,O,space,726,1,,,7029,WL,A,
prac,,0,,Tue Nov 05 2024 17:13:11 GMT-0600 (Central Standard Time),,NA,b,O,b,5428,1,,,7029,WL,A,1.0
prac,,0,,Tue Nov 05 2024 17:13:11 GMT-0600 (Central Standard Time),,NA,bo,O,o,1022,1,,,7029,WL,A,1.0
prac,,0,,Tue Nov 05 2024 17:13:11 GMT-0600 (Central Standard Time),,NA,boo,O,o,143,1,,,7029,WL,A,1.0
prac,,0,,Tue Nov 05 2024 17:13:11 GMT-0600 (Central Standard Time),,NA,boos,O,s,25,1,,,7029,WL,A,1.0
prac,,0,,Tue Nov 05 2024 17:13:11 GMT-0600 (Central Standard Time),,NA,boost,O,t,119,1,,,7029,WL,A,1.0
prac,,0,,Tue Nov 05 2024 17:13:11 GMT-0600 (Central Standard Time),,NA,boostenter,O,enter,3442,1,,,7029,WL,A,1.0
1,6.081000089645386,learn,53918.999910354614,Tue Nov 05 2024 17:13:11 GMT-0600 (Central Standard Time),205942.39999999944,A,r,O,r,6071,1,6080.0999999996275,199862.2999999998,7029,WL,A,1.0
1,6.581000089645386,learn,53418.999910354614,Tue Nov 05 2024 17:13:11 GMT-0600 (Central Standard Time),206442.2999999998,A,ru,O,u,484,1,6580.0,199862.2999999998,7029,WL,A,1.0
1,6.897000074386597,learn,53102.9999256134,Tue Nov 05 2024 17:13:11 GMT-0600 (Central Standard Time),206758.7000000002,A,rug,O,g,298,1,6896.4000000003725,199862.2999999998,7029,WL,A,1.0
1,8.19700002670288,learn,51802.99997329712,Tue Nov 05 2024 17:13:11 GMT-0600 (Central Standard Time),208058.5,A,rugenter,O,enter,1278,1,8196.200000000186,199862.2999999998,7029,WL,A,1.0
1,11.878999948501587,learn,48121.00005149841,Tue Nov 05 2024 17:13:11 GMT-0600 (Central Standard Time),211740.5,A,t,O,t,3667,1,3681.4000000003725,208059.09999999963,7029,WL,A,2.0
1,12.062000036239624,learn,47937.999963760376,Tue Nov 05 2024 17:13:11 GMT-0600 (Central Standard Time),211923.7000000002,A,tr,O,r,168,1,3864.600000000559,208059.09999999963,7029,WL,A,2.0
1,12.212000131607056,learn,47787.999868392944,Tue Nov 05 2024 17:13:11 GMT-0600 (Central Standard Time),212073.7000000002,A,tra,O,a,129,1,4014.600000000559,208059.09999999963,7029,WL,A,2.0
1,12.295000076293945,learn,47704.999923706055,Tue Nov 05 2024 17:13:11 GMT-0600 (Central Standard Time),212157.0,A,trai,O,i,75,1,4097.9000000003725,208059.09999999963,7029,WL,A,2.0
1,12.495000123977661,learn,47504.99987602234,Tue Nov 05 2024 17:13:11 GMT-0600 (Central Standard Time),212356.89999999944,A,train,O,n,184,1,4297.799999999814,208059.09999999963,7029,WL,A,2.0
1,13.486000061035156,learn,46513.999938964844,Tue Nov 05 2024 17:13:11 GMT-0600 (Central Standard Time),213347.5,A,trainenter,O,enter,985,1,5288.4000000003725,208059.09999999963,7029,WL,A,2.0
1,14.01200008392334,learn,45987.99991607666,Tue Nov 05 2024 17:13:11 GMT-0600 (Central Standard Time),213873.2000000002,A,m,O,m,505,1,525.4000000003725,213347.7999999998,7029,WL,A,3.0
1,14.111999988555908,learn,45888.00001144409,Tue Nov 05 2024 17:13:11 GMT-0600 (Central Standard Time),213973.2000000002,A,me,O,e,83,1,625.4000000003725,213347.7999999998,7029,WL,A,3.0
1,14.278000116348267,learn,45721.99988365173,Tue Nov 05 2024 17:13:11 GMT-0600 (Central Standard Time),214139.7000000002,A,mea,O,a,152,1,791.9000000003725,213347.7999999998,7029,WL,A,3.0
1,14.528000116348267,learn,45471.99988365173,Tue Nov 05 2024 17:13:11 GMT-0600 (Central Standard Time),214389.7000000002,A,mead,O,d,233,1,1041.9000000003725,213347.7999999998,7029,WL,A,3.0
1,14.76200008392334,learn,45237.99991607666,Tue Nov 05 2024 17:13:11 GMT-0600 (Central Standard Time),214623.09999999963,A,meado,O,o,215,1,1275.2999999998137,213347.7999999998,7029,WL,A,3.0
1,14.944999933242798,learn,45055.0000667572,Tue Nov 05 2024 17:13:11 GMT-0600 (Central Standard Time),214806.2000000002,A,meadow,O,w,174,1,1458.4000000003725,213347.7999999998,7029,WL,A,3.0
1,15.42799997329712,learn,44572.00002670288,Tue Nov 05 2024 17:13:11 GMT-0600 (Central Standard Time),215289.7000000002,A,meadowenter,O,enter,471,1,1941.9000000003725,213347.7999999998,7029,WL,A,3.0
1,24.35800004005432,learn,35641.99995994568,Tue Nov 05 2024 17:13:11 GMT-0600 (Central Standard Time),224219.7999999998,A,a,O,a,8915,1,8929.700000000186,215290.09999999963,7029,WL,A,4.0
1,24.558000087738037,learn,35441.99991226196,Tue Nov 05 2024 17:13:11 GMT-0600 (Central Standard Time),224419.89999999944,A,ap,O,p,185,1,9129.799999999814,215290.09999999963,7029,WL,A,4.0
1,24.742000102996826,learn,35257.999897003174,Tue Nov 05 2024 17:13:11 GMT-0600 (Central Standard Time),224603.09999999963,A,app,O,p,162,1,9313.0,215290.09999999963,7029,WL,A,4.0
1,24.992000102996826,learn,35007.999897003174,Tue Nov 05 2024 17:13:11 GMT-0600 (Central Standard Time),224853.0,A,appl,O,l,234,1,9562.900000000373,215290.09999999963,7029,WL,A,4.0
1,25.174999952316284,learn,34825.000047683716,Tue Nov 05 2024 17:13:11 GMT-0600 (Central Standard Time),225036.39999999944,A,apple,O,e,176,1,9746.299999999814,215290.09999999963,7029,WL,A,4.0
1,25.740999937057495,learn,34259.000062942505,Tue Nov 05 2024 17:13:11 GMT-0600 (Central Standard Time),225602.7000000002,A,appleenter,O,enter,561,1,10312.600000000559,215290.09999999963,7029,WL,A,4.0
1,26.490999937057495,learn,33509.000062942505,Tue Nov 05 2024 17:13:11 GMT-0600 (Central Standard Time),226352.5,A,t,O,t,730,1,749.5,225603.0,7029,WL,A,5.0
1,26.69000005722046,learn,33309.99994277954,Tue Nov 05 2024 17:13:11 GMT-0600 (Central Standard Time),226552.59999999963,A,tr,O,r,189,1,949.5999999996275,225603.0,7029,WL,A,5.0
1,26.822999954223633,learn,33177.00004577637,Tue Nov 05 2024 17:13:11 GMT-0600 (Central Standard Time),226685.7000000002,A,tra,O,a,117,1,1082.7000000001863,225603.0,7029,WL,A,5.0
1,26.92300009727478,learn,33076.99990272522,Tue Nov 05 2024 17:13:11 GMT-0600 (Central Standard Time),226785.59999999963,A,trai,O,i,86,1,1182.5999999996275,225603.0,7029,WL,A,5.0
1,27.10599994659424,learn,32894.00005340576,Tue Nov 05 2024 17:13:11 GMT-0600 (Central Standard Time),226968.89999999944,A,train,O,n,163,1,1365.8999999994412,225603.0,7029,WL,A,5.0
1,27.44000005722046,learn,32559.99994277954,Tue Nov 05 2024 17:13:11 GMT-0600 (Central Standard Time),227302.2999999998,A,trainenter,O,enter,316,1,1699.2999999998137,225603.0,7029,WL,A,5.0
1,55.88100004196167,learn,4118.99995803833,Tue Nov 05 2024 17:13:11 GMT-0600 (Central Standard Time),255743.2999999998,A,a,O,a,28423,1,28440.5,227302.7999999998,7029,WL,A,6.0
1,56.081000089645386,learn,3918.9999103546143,Tue Nov 05 2024 17:13:11 GMT-0600 (Central Standard Time),255943.39999999944,A,ap,O,p,189,1,28640.599999999627,227302.7999999998,7029,WL,A,6.0
1,56.263999938964844,learn,3736.0000610351562,Tue Nov 05 2024 17:13:11 GMT-0600 (Central Standard Time),256126.5,A,app,O,p,174,1,28823.700000000186,227302.7999999998,7029,WL,A,6.0
1,56.48099994659424,learn,3519.0000534057617,Tue Nov 05 2024 17:13:11 GMT-0600 (Central Standard Time),256343.2000000002,A,appl,O,l,206,1,29040.400000000373,227302.7999999998,7029,WL,A,6.0
1,56.63000011444092,learn,3369.999885559082,Tue Nov 05 2024 17:13:11 GMT-0600 (Central Standard Time),256493.09999999963,A,apple,O,e,142,1,29190.299999999814,227302.7999999998,7029,WL,A,6.0
1,56.980000019073486,learn,3019.9999809265137,Tue Nov 05 2024 17:13:11 GMT-0600 (Central Standard Time),256843.09999999963,A,appleenter,O,enter,327,1,29540.299999999814,227302.7999999998,7029,WL,A,6.0
1,60.01300001144409,learn,-13.000011444091797,Tue Nov 05 2024 17:13:11 GMT-0600 (Central Standard Time),259875.2999999998,A,None,O,None,3027,1,3031.9000000003725,256843.39999999944,7029,WL,A,7.0
2,1.06600022315979,learn,58933.99977684021,Tue Nov 05 2024 17:13:11 GMT-0600 (Central Standard Time),348281.0,A,g,O,g,1055,1,1066.1000000005588,347214.89999999944,7029,WL,A,1.0
2,1.1660001277923584,learn,58833.99987220764,Tue Nov 05 2024 17:13:11 GMT-0600 (Central Standard Time),348380.7999999998,A,go,O,o,91,1,1165.9000000003725,347214.89999999944,7029,WL,A,1.0
2,1.383000135421753,learn,58616.99986457825,Tue Nov 05 2024 17:13:11 GMT-0600 (Central Standard Time),348597.5999999996,A,gol,O,l,208,1,1382.7000000001863,347214.89999999944,7029,WL,A,1.0
2,1.5320000648498535,learn,58467.99993515015,Tue Nov 05 2024 17:13:11 GMT-0600 (Central Standard Time),348747.2000000002,A,gold,O,d,136,1,1532.300000000745,347214.89999999944,7029,WL,A,1.0
2,1.7340002059936523,learn,58265.99979400635,Tue Nov 05 2024 17:13:11 GMT-0600 (Central Standard Time),348948.5,A,goldenter,O,enter,194,1,1733.6000000005588,347214.89999999944,7029,WL,A,1.0
2,2.0320000648498535,learn,57967.99993515015,Tue Nov 05 2024 17:13:11 GMT-0600 (Central Standard Time),349247.39999999944,A,h,O,h,288,1,298.5,348948.89999999944,7029,WL,A,2.0
2,2.249000072479248,learn,57750.99992752075,Tue Nov 05 2024 17:13:11 GMT-0600 (Central Standard Time),349463.89999999944,A,ha,O,a,198,1,515.0,348948.89999999944,7029,WL,A,2.0
2,2.3490002155303955,learn,57650.999784469604,Tue Nov 05 2024 17:13:11 GMT-0600 (Central Standard Time),349563.7999999998,A,har,O,r,85,1,614.9000000003725,348948.89999999944,7029,WL,A,2.0
2,2.5320000648498535,learn,57467.99993515015,Tue Nov 05 2024 17:13:11 GMT-0600 (Central Standard Time),349747.0,A,harp,O,p,169,1,798.1000000005588,348948.89999999944,7029,WL,A,2.0
2,3.065000057220459,learn,56934.99994277954,Tue Nov 05 2024 17:13:11 GMT-0600 (Central Standard Time),350280.2999999998,A,harpenter,O,enter,522,1,1331.4000000003725,348948.89999999944,7029,WL,A,2.0
2,5.0980000495910645,learn,54901.999950408936,Tue Nov 05 2024 17:13:11 GMT-0600 (Central Standard Time),352313.0999999996,A,f,O,f,2021,1,2032.3999999994412,350280.7000000002,7029,WL,A,3.0
2,5.1650002002716064,learn,54834.99979972839,Tue Nov 05 2024 17:13:11 GMT-0600 (Central Standard Time),352379.39999999944,A,fl,O,l,60,1,2098.699999999255,350280.7000000002,7029,WL,A,3.0
2,5.431000232696533,learn,54568.99976730347,Tue Nov 05 2024 17:13:11 GMT-0600 (Central Standard Time),352646.2999999998,A,flo,O,o,250,1,2365.5999999996275,350280.7000000002,7029,WL,A,3.0
2,5.614000082015991,learn,54385.99991798401,Tue Nov 05 2024 17:13:11 GMT-0600 (Central Standard Time),352829.2999999998,A,flow,O,w,175,1,2548.5999999996275,350280.7000000002,7029,WL,A,3.0
2,5.731000185012817,learn,54268.99981498718,Tue Nov 05 2024 17:13:11 GMT-0600 (Central Standard Time),352946.2999999998,A,flowe,O,e,96,1,2665.5999999996275,350280.7000000002,7029,WL,A,3.0
2,5.8480000495910645,learn,54151.999950408936,Tue Nov 05 2024 17:13:11 GMT-0600 (Central Standard Time),353062.89999999944,A,flower,O,r,99,1,2782.199999999255,350280.7000000002,7029,WL,A,3.0
2,6.031000137329102,learn,53968.9998626709,Tue Nov 05 2024 17:13:11 GMT-0600 (Central Standard Time),353246.0999999996,A,flowerenter,O,enter,174,1,2965.399999999441,350280.7000000002,7029,WL,A,3.0
2,10.713000059127808,learn,49286.99994087219,Tue Nov 05 2024 17:13:11 GMT-0600 (Central Standard Time),357927.89999999944,A,t,O,t,4663,1,4681.5,353246.39999999944,7029,WL,A,4.0
2,10.980000019073486,learn,49019.999980926514,Tue Nov 05 2024 17:13:11 GMT-0600 (Central Standard Time),358194.5999999996,A,tr,O,r,246,1,4948.200000000186,353246.39999999944,7029,WL,A,4.0
2,11.230000019073486,learn,48769.999980926514,Tue Nov 05 2024 17:13:11 GMT-0600 (Central Standard Time),358444.5,A,tra,O,a,243,1,5198.100000000559,353246.39999999944,7029,WL,A,4.0
2,12.59600019454956,learn,47403.99980545044,Tue Nov 05 2024 17:13:11 GMT-0600 (Central Standard Time),359810.5999999996,A,trai,O,i,1361,1,6564.200000000186,353246.39999999944,7029,WL,A,4.0
2,12.812000036239624,learn,47187.999963760376,Tue Nov 05 2024 17:13:11 GMT-0600 (Central Standard Time),360027.2000000002,A,train,O,n,204,1,6780.800000000745,353246.39999999944,7029,WL,A,4.0
2,13.129000186920166,learn,46870.999813079834,Tue Nov 05 2024 17:13:11 GMT-0600 (Central Standard Time),360343.7999999998,A,trainenter,O,enter,306,1,7097.4000000003725,353246.39999999944,7029,WL,A,4.0
2,15.195000171661377,learn,44804.99982833862,Tue Nov 05 2024 17:13:11 GMT-0600 (Central Standard Time),362409.89999999944,A,r,O,r,2046,1,2065.7999999998137,360344.0999999996,7029,WL,A,5.0
2,15.645000219345093,learn,44354.99978065491,Tue Nov 05 2024 17:13:11 GMT-0600 (Central Standard Time),362859.5999999996,A,ru,O,u,435,1,2515.5,360344.0999999996,7029,WL,A,5.0
2,15.811000108718872,learn,44188.99989128113,Tue Nov 05 2024 17:13:11 GMT-0600 (Central Standard Time),363026.39999999944,A,rug,O,g,146,1,2682.2999999998137,360344.0999999996,7029,WL,A,5.0
2,15.961000204086304,learn,44038.999795913696,Tue Nov 05 2024 17:13:11 GMT-0600 (Central Standard Time),363176.2999999998,A,rugenter,O,enter,139,1,2832.2000000001863,360344.0999999996,7029,WL,A,5.0
2,37.58800005912781,learn,22411.999940872192,Tue Nov 05 2024 17:13:11 GMT-0600 (Central Standard Time),384802.7000000002,A,b,O,b,21613,1,21625.900000000373,363176.7999999998,7029,WL,A,6.0
2,37.75500011444092,learn,22244.999885559082,Tue Nov 05 2024 17:13:11 GMT-0600 (Central Standard Time),384969.39999999944,A,bu,O,u,154,1,21792.599999999627,363176.7999999998,7029,WL,A,6.0
2,37.90400004386902,learn,22095.99995613098,Tue Nov 05 2024 17:13:11 GMT-0600 (Central Standard Time),385119.39999999944,A,but,O,t,140,1,21942.599999999627,363176.7999999998,7029,WL,A,6.0
2,38.03800010681152,learn,21961.999893188477,Tue Nov 05 2024 17:13:11 GMT-0600 (Central Standard Time),385252.5999999996,A,butt,O,t,118,1,22075.799999999814,363176.7999999998,7029,WL,A,6.0
2,38.23800015449524,learn,21761.99984550476,Tue Nov 05 2024 17:13:11 GMT-0600 (Central Standard Time),385452.39999999944,A,butto,O,o,185,1,22275.599999999627,363176.7999999998,7029,WL,A,6.0
2,38.38800001144409,learn,21611.99998855591,Tue Nov 05 2024 17:13:11 GMT-0600 (Central Standard Time),385602.5,A,button,O,n,137,1,22425.700000000186,363176.7999999998,7029,WL,A,6.0
2,38.604000091552734,learn,21395.999908447266,Tue Nov 05 2024 17:13:11 GMT-0600 (Central Standard Time),385818.89999999944,A,buttonenter,O,enter,211,1,22642.099999999627,363176.7999999998,7029,WL,A,6.0
2,47.568000078201294,learn,12431.999921798706,Tue Nov 05 2024 17:13:11 GMT-0600 (Central Standard Time),394783.0999999996,A,l,O,l,8954,1,8963.799999999814,385819.2999999998,7029,WL,A,7.0
2,47.76800012588501,learn,12231.99987411499,Tue Nov 05 2024 17:13:11 GMT-0600 (Central Standard Time),394982.7999999998,A,lo,O,o,190,1,9163.5,385819.2999999998,7029,WL,A,7.0
2,47.901000022888184,learn,12098.999977111816,Tue Nov 05 2024 17:13:11 GMT-0600 (Central Standard Time),395116.2000000002,A,log,O,g,119,1,9296.900000000373,385819.2999999998,7029,WL,A,7.0
2,48.36800003051758,learn,11631.999969482422,Tue Nov 05 2024 17:13:11 GMT-0600 (Central Standard Time),395582.7999999998,A,logenter,O,enter,449,1,9763.5,385819.2999999998,7029,WL,A,7.0
2,60.01400017738342,learn,-14.000177383422852,Tue Nov 05 2024 17:13:11 GMT-0600 (Central Standard Time),407229.0,A,None,O,None,11642,1,11645.900000000373,395583.0999999996,7029,WL,A,8.0
3,0.48399996757507324,learn,59516.00003242493,Tue Nov 05 2024 17:13:11 GMT-0600 (Central Standard Time),476058.0,A,g,O,g,464,1,483.70000000018626,475574.2999999998,7029,WL,A,1.0
3,0.9500000476837158,learn,59049.999952316284,Tue Nov 05 2024 17:13:11 GMT-0600 (Central Standard Time),476524.2000000002,A,go,O,o,451,1,949.9000000003725,475574.2999999998,7029,WL,A,1.0
3,1.1500000953674316,learn,58849.99990463257,Tue Nov 05 2024 17:13:11 GMT-0600 (Central Standard Time),476723.89999999944,A,gol,O,l,193,1,1149.5999999996275,475574.2999999998,7029,WL,A,1.0
3,1.3340001106262207,learn,58665.99988937378,Tue Nov 05 2024 17:13:11 GMT-0600 (Central Standard Time),476907.39999999944,A,gold,O,d,163,1,1333.0999999996275,475574.2999999998,7029,WL,A,1.0
3,1.4830000400543213,learn,58516.99995994568,Tue Nov 05 2024 17:13:11 GMT-0600 (Central Standard Time),477057.39999999944,A,goldenter,O,enter,138,1,1483.0999999996275,475574.2999999998,7029,WL,A,1.0
3,1.7829999923706055,learn,58217.000007629395,Tue Nov 05 2024 17:13:11 GMT-0600 (Central Standard Time),477357.0999999996,A,h,O,h,292,1,299.3999999994412,477057.7000000002,7029,WL,A,2.0
3,1.9509999752044678,learn,58049.00002479553,Tue Nov 05 2024 17:13:11 GMT-0600 (Central Standard Time),477524.7999999998,A,ha,O,a,162,1,467.09999999962747,477057.7000000002,7029,WL,A,2.0
3,2.065999984741211,learn,57934.00001525879,Tue Nov 05 2024 17:13:11 GMT-0600 (Central Standard Time),477640.2999999998,A,har,O,r,97,1,582.5999999996275,477057.7000000002,7029,WL,A,2.0
3,2.200000047683716,learn,57799.999952316284,Tue Nov 05 2024 17:13:11 GMT-0600 (Central Standard Time),477773.39999999944,A,harp,O,p,125,1,715.6999999992549,477057.7000000002,7029,WL,A,2.0
3,2.4830000400543213,learn,57516.99995994568,Tue Nov 05 2024 17:13:11 GMT-0600 (Central Standard Time),478056.7999999998,A,harpenter,O,enter,264,1,999.0999999996275,477057.7000000002,7029,WL,A,2.0
3,2.7330000400543213,learn,57266.99995994568,Tue Nov 05 2024 17:13:11 GMT-0600 (Central Standard Time),478306.7000000002,A,r,O,r,237,1,249.5,478057.2000000002,7029,WL,A,3.0
3,2.9160001277923584,learn,57083.99987220764,Tue Nov 05 2024 17:13:11 GMT-0600 (Central Standard Time),478490.39999999944,A,ra,O,a,163,1,433.19999999925494,478057.2000000002,7029,WL,A,3.0
3,3.0160000324249268,learn,56983.99996757507,Tue Nov 05 2024 17:13:11 GMT-0600 (Central Standard Time),478589.89999999944,A,rat,O,t,83,1,532.6999999992549,478057.2000000002,7029,WL,A,3.0
3,3.2829999923706055,learn,56717.000007629395,Tue Nov 05 2024 17:13:11 GMT-0600 (Central Standard Time),478856.7000000002,A,ratt,O,t,256,1,799.5,478057.2000000002,7029,WL,A,3.0
3,3.5490000247955322,learn,56450.99997520447,Tue Nov 05 2024 17:13:11 GMT-0600 (Central Standard Time),479123.2999999998,A,rattl,O,l,253,1,1066.0999999996275,478057.2000000002,7029,WL,A,3.0
3,3.7160000801086426,learn,56283.99991989136,Tue Nov 05 2024 17:13:11 GMT-0600 (Central Standard Time),479290.0,A,rattle,O,e,146,1,1232.7999999998137,478057.2000000002,7029,WL,A,3.0
3,3.8330001831054688,learn,56166.99981689453,Tue Nov 05 2024 17:13:11 GMT-0600 (Central Standard Time),479406.5999999996,A,rattleenter,O,enter,107,1,1349.3999999994412,478057.2000000002,7029,WL,A,3.0
3,4.049000024795532,learn,55950.99997520447,Tue Nov 05 2024 17:13:11 GMT-0600 (Central Standard Time),479623.2999999998,A,m,O,m,199,1,216.29999999981374,479407.0,7029,WL,A,4.0
3,4.14900016784668,learn,55850.99983215332,Tue Nov 05 2024 17:13:11 GMT-0600 (Central Standard Time),479723.0,A,me,O,e,86,1,316.0,479407.0,7029,WL,A,4.0
3,4.315999984741211,learn,55684.00001525879,Tue Nov 05 2024 17:13:11 GMT-0600 (Central Standard Time),479889.5,A,mea,O,a,155,1,482.5,479407.0,7029,WL,A,4.0
3,4.515000104904175,learn,55484.999895095825,Tue Nov 05 2024 17:13:11 GMT-0600 (Central Standard Time),480089.39999999944,A,mead,O,d,180,1,682.3999999994412,479407.0,7029,WL,A,4.0
3,4.666000127792358,learn,55333.99987220764,Tue Nov 05 2024 17:13:11 GMT-0600 (Central Standard Time),480239.5,A,meado,O,o,132,1,832.5,479407.0,7029,WL,A,4.0
3,4.8500001430511475,learn,55149.99985694885,Tue Nov 05 2024 17:13:11 GMT-0600 (Central Standard Time),480424.0999999996,A,meadow,O,w,166,1,1017.0999999996275,479407.0,7029,WL,A,4.0
3,4.949000120162964,learn,55050.999879837036,Tue Nov 05 2024 17:13:11 GMT-0600 (Central Standard Time),480522.7999999998,A,meadowenter,O,enter,79,1,1115.7999999998137,479407.0,7029,WL,A,4.0
3,5.16700005531311,learn,54832.99994468689,Tue Nov 05 2024 17:13:11 GMT-0600 (Central Standard Time),480740.5,A,t,O,t,212,1,217.29999999981374,480523.2000000002,7029,WL,A,5.0
3,5.348999977111816,learn,54651.00002288818,Tue Nov 05 2024 17:13:11 GMT-0600 (Central Standard Time),480922.89999999944,A,tr,O,r,162,1,399.69999999925494,480523.2000000002,7029,WL,A,5.0
3,5.499000072479248,learn,54500.99992752075,Tue Nov 05 2024 17:13:11 GMT-0600 (Central Standard Time),481072.5,A,tra,O,a,131,1,549.2999999998137,480523.2000000002,7029,WL,A,5.0
3,5.582000017166138,learn,54417.99998283386,Tue Nov 05 2024 17:13:11 GMT-0600 (Central Standard Time),481155.89999999944,A,trai,O,i,77,1,632.6999999992549,480523.2000000002,7029,WL,A,5.0
3,5.799000024795532,learn,54200.99997520447,Tue Nov 05 2024 17:13:11 GMT-0600 (Central Standard Time),481372.39999999944,A,train,O,n,202,1,849.1999999992549,480523.2000000002,7029,WL,A,5.0
3,5.998000144958496,learn,54001.999855041504,Tue Nov 05 2024 17:13:11 GMT-0600 (Central Standard Time),481572.2000000002,A,trainenter,O,enter,193,1,1049.0,480523.2000000002,7029,WL,A,5.0
3,7.265000104904175,learn,52734.999895095825,Tue Nov 05 2024 17:13:11 GMT-0600 (Central Standard Time),482838.5999999996,A,f,O,f,1257,1,1266.0999999996275,481572.5,7029,WL,A,6.0
3,7.38100004196167,learn,52618.99995803833,Tue Nov 05 2024 17:13:11 GMT-0600 (Central Standard Time),482955.0999999996,A,fl,O,l,111,1,1382.5999999996275,481572.5,7029,WL,A,6.0
3,7.5980000495910645,learn,52401.999950408936,Tue Nov 05 2024 17:13:11 GMT-0600 (Central Standard Time),483172.0999999996,A,flo,O,o,203,1,1599.5999999996275,481572.5,7029,WL,A,6.0
3,7.731000185012817,learn,52268.99981498718,Tue Nov 05 2024 17:13:11 GMT-0600 (Central Standard Time),483305.0999999996,A,flow,O,w,122,1,1732.5999999996275,481572.5,7029,WL,A,6.0
3,7.815999984741211,learn,52184.00001525879,Tue Nov 05 2024 17:13:11 GMT-0600 (Central Standard Time),483389.5999999996,A,flowe,O,e,77,1,1817.0999999996275,481572.5,7029,WL,A,6.0
3,7.914000034332275,learn,52085.999965667725,Tue Nov 05 2024 17:13:11 GMT-0600 (Central Standard Time),483488.39999999944,A,flower,O,r,88,1,1915.8999999994412,481572.5,7029,WL,A,6.0
3,8.081000089645386,learn,51918.999910354614,Tue Nov 05 2024 17:13:11 GMT-0600 (Central Standard Time),483655.2000000002,A,flowerenter,O,enter,149,1,2082.7000000001863,481572.5,7029,WL,A,6.0
3,8.331000089645386,learn,51668.999910354614,Tue Nov 05 2024 17:13:11 GMT-0600 (Central Standard Time),483905.0,A,l,O,l,238,1,249.5,483655.5,7029,WL,A,7.0
3,8.515000104904175,learn,51484.999895095825,Tue Nov 05 2024 17:13:11 GMT-0600 (Central Standard Time),484088.5,A,lo,O,o,172,1,433.0,483655.5,7029,WL,A,7.0
3,8.664000034332275,learn,51335.999965667725,Tue Nov 05 2024 17:13:11 GMT-0600 (Central Standard Time),484238.39999999944,A,log,O,g,133,1,582.8999999994412,483655.5,7029,WL,A,7.0
3,8.831000089645386,learn,51168.999910354614,Tue Nov 05 2024 17:13:11 GMT-0600 (Central Standard Time),484404.7999999998,A,logenter,O,enter,159,1,749.2999999998137,483655.5,7029,WL,A,7.0
3,9.46399998664856,learn,50536.00001335144,Tue Nov 05 2024 17:13:11 GMT-0600 (Central Standard Time),485038.0,A,r,O,r,617,1,632.7999999998137,484405.2000000002,7029,WL,A,8.0
3,9.581000089645386,learn,50418.999910354614,Tue Nov 05 2024 17:13:11 GMT-0600 (Central Standard Time),485154.7999999998,A,ru,O,u,96,1,749.5999999996275,484405.2000000002,7029,WL,A,8.0
3,9.797000169754028,learn,50202.99983024597,Tue Nov 05 2024 17:13:11 GMT-0600 (Central Standard Time),485371.0,A,rug,O,g,211,1,965.7999999998137,484405.2000000002,7029,WL,A,8.0
3,9.94700002670288,learn,50052.99997329712,Tue Nov 05 2024 17:13:11 GMT-0600 (Central Standard Time),485521.0,A,rugenter,O,enter,130,1,1115.7999999998137,484405.2000000002,7029,WL,A,8.0
3,11.19700002670288,learn,48802.99997329712,Tue Nov 05 2024 17:13:11 GMT-0600 (Central Standard Time),486770.7000000002,A,c,O,c,1245,1,1249.4000000003725,485521.2999999998,7029,WL,A,9.0
3,11.27999997138977,learn,48720.00002861023,Tue Nov 05 2024 17:13:11 GMT-0600 (Central Standard Time),486854.2000000002,A,ch,O,h,67,1,1332.9000000003725,485521.2999999998,7029,WL,A,9.0
3,11.413000106811523,learn,48586.99989318848,Tue Nov 05 2024 17:13:11 GMT-0600 (Central Standard Time),486987.2999999998,A,chi,O,i,127,1,1466.0,485521.2999999998,7029,WL,A,9.0
3,11.630000114440918,learn,48369.99988555908,Tue Nov 05 2024 17:13:11 GMT-0600 (Central Standard Time),487204.2000000002,A,chim,O,m,210,1,1682.9000000003725,485521.2999999998,7029,WL,A,9.0
3,11.812999963760376,learn,48187.000036239624,Tue Nov 05 2024 17:13:11 GMT-0600 (Central Standard Time),487387.2999999998,A,chime,O,e,169,1,1866.0,485521.2999999998,7029,WL,A,9.0
3,12.27999997138977,learn,47720.00002861023,Tue Nov 05 2024 17:13:11 GMT-0600 (Central Standard Time),487853.5999999996,A,chimen,O,n,458,1,2332.2999999998137,485521.2999999998,7029,WL,A,9.0
3,13.296000003814697,learn,46703.9999961853,Tue Nov 05 2024 17:13:11 GMT-0600 (Central Standard Time),488870.2000000002,A,chime,O,backspace,1000,1,3348.9000000003725,485521.2999999998,7029,WL,A,9.0
3,13.562000036239624,learn,46437.999963760376,Tue Nov 05 2024 17:13:11 GMT-0600 (Central Standard Time),489136.2999999998,A,chim,O,backspace,247,1,3615.0,485521.2999999998,7029,WL,A,9.0
3,13.812999963760376,learn,46187.000036239624,Tue Nov 05 2024 17:13:11 GMT-0600 (Central Standard Time),489386.39999999944,A,chimn,O,n,230,1,3865.0999999996275,485521.2999999998,7029,WL,A,9.0
3,13.896000146865845,learn,46103.999853134155,Tue Nov 05 2024 17:13:11 GMT-0600 (Central Standard Time),489469.7000000002,A,chimne,O,e,67,1,3948.4000000003725,485521.2999999998,7029,WL,A,9.0
3,14.029000043869019,learn,45970.99995613098,Tue Nov 05 2024 17:13:11 GMT-0600 (Central Standard Time),489603.0999999996,A,chimney,O,y,127,1,4081.7999999998137,485521.2999999998,7029,WL,A,9.0
3,14.412000179290771,learn,45587.99982070923,Tue Nov 05 2024 17:13:11 GMT-0600 (Central Standard Time),489986.39999999944,A,chimneyenter,O,enter,370,1,4465.0999999996275,485521.2999999998,7029,WL,A,9.0
3,16.99500012397766,learn,43004.99987602234,Tue Nov 05 2024 17:13:11 GMT-0600 (Central Standard Time),492569.0,A,b,O,b,2563,1,2582.4000000003725,489986.5999999996,7029,WL,A,10.0
3,17.129000186920166,learn,42870.999813079834,Tue Nov 05 2024 17:13:11 GMT-0600 (Central Standard Time),492702.39999999944,A,bu,O,u,117,1,2715.7999999998137,489986.5999999996,7029,WL,A,10.0
3,17.229000091552734,learn,42770.999908447266,Tue Nov 05 2024 17:13:11 GMT-0600 (Central Standard Time),492802.7999999998,A,but,O,t,96,1,2816.2000000001863,489986.5999999996,7029,WL,A,10.0
3,17.41200017929077,learn,42587.99982070923,Tue Nov 05 2024 17:13:11 GMT-0600 (Central Standard Time),492985.5,A,butt,O,t,171,1,2998.9000000003725,489986.5999999996,7029,WL,A,10.0
3,17.51200008392334,learn,42487.99991607666,Tue Nov 05 2024 17:13:11 GMT-0600 (Central Standard Time),493085.5999999996,A,butto,O,o,84,1,3099.0,489986.5999999996,7029,WL,A,10.0
3,17.611999988555908,learn,42388.00001144409,Tue Nov 05 2024 17:13:11 GMT-0600 (Central Standard Time),493185.7000000002,A,button,O,n,80,1,3199.100000000559,489986.5999999996,7029,WL,A,10.0
3,17.795000076293945,learn,42204.999923706055,Tue Nov 05 2024 17:13:11 GMT-0600 (Central Standard Time),493368.5999999996,A,buttonenter,O,enter,164,1,3382.0,489986.5999999996,7029,WL,A,10.0
3,24.70900011062622,learn,35290.99988937378,Tue Nov 05 2024 17:13:11 GMT-0600 (Central Standard Time),500283.2999999998,A,b,O,b,6901,1,6914.299999999814,493369.0,7029,WL,A,11.0
3,24.80900001525879,learn,35190.99998474121,Tue Nov 05 2024 17:13:11 GMT-0600 (Central Standard Time),500383.2999999998,A,bo,O,o,82,1,7014.299999999814,493369.0,7029,WL,A,11.0
3,24.95900011062622,learn,35040.99988937378,Tue Nov 05 2024 17:13:11 GMT-0600 (Central Standard Time),500532.89999999944,A,boo,O,o,134,1,7163.899999999441,493369.0,7029,WL,A,11.0
3,25.092000007629395,learn,34907.999992370605,Tue Nov 05 2024 17:13:11 GMT-0600 (Central Standard Time),500666.2000000002,A,book,O,k,113,1,7297.200000000186,493369.0,7029,WL,A,11.0
3,25.37600016593933,learn,34623.99983406067,Tue Nov 05 2024 17:13:11 GMT-0600 (Central Standard Time),500949.5999999996,A,bookenter,O,enter,275,1,7580.5999999996275,493369.0,7029,WL,A,11.0
3,27.575000047683716,learn,32424.999952316284,Tue Nov 05 2024 17:13:11 GMT-0600 (Central Standard Time),503149.2000000002,A,f,O,f,2184,1,2199.300000000745,500949.89999999944,7029,WL,A,12.0
3,27.657999992370605,learn,32342.000007629395,Tue Nov 05 2024 17:13:11 GMT-0600 (Central Standard Time),503232.2999999998,A,fi,O,i,71,1,2282.4000000003725,500949.89999999944,7029,WL,A,12.0
3,27.825000047683716,learn,32174.999952316284,Tue Nov 05 2024 17:13:11 GMT-0600 (Central Standard Time),503398.89999999944,A,fin,O,n,149,1,2449.0,500949.89999999944,7029,WL,A,12.0
3,27.992000102996826,learn,32007.999897003174,Tue Nov 05 2024 17:13:11 GMT-0600 (Central Standard Time),503565.39999999944,A,fing,O,g,159,1,2615.5,500949.89999999944,7029,WL,A,12.0
3,28.35800004005432,learn,31641.99995994568,Tue Nov 05 2024 17:13:11 GMT-0600 (Central Standard Time),503932.2000000002,A,finge,O,e,360,1,2982.300000000745,500949.89999999944,7029,WL,A,12.0
3,28.407999992370605,learn,31592.000007629395,Tue Nov 05 2024 17:13:11 GMT-0600 (Central Standard Time),503981.7999999998,A,finger,O,r,33,1,3031.9000000003725,500949.89999999944,7029,WL,A,12.0
3,28.54100012779236,learn,31458.99987220764,Tue Nov 05 2024 17:13:11 GMT-0600 (Central Standard Time),504115.2000000002,A,fingerenter,O,enter,128,1,3165.300000000745,500949.89999999944,7029,WL,A,12.0
3,55.58200001716614,learn,4417.999982833862,Tue Nov 05 2024 17:13:11 GMT-0600 (Central Standard Time),531156.7000000002,A,a,O,a,27027,1,27041.300000000745,504115.39999999944,7029,WL,A,13.0
3,55.73200011253357,learn,4267.999887466431,Tue Nov 05 2024 17:13:11 GMT-0600 (Central Standard Time),531306.7999999998,A,ap,O,p,130,1,27191.400000000373,504115.39999999944,7029,WL,A,13.0
3,55.848999977111816,learn,4151.000022888184,Tue Nov 05 2024 17:13:11 GMT-0600 (Central Standard Time),531423.5999999996,A,app,O,p,107,1,27308.200000000186,504115.39999999944,7029,WL,A,13.0
3,56.06599998474121,learn,3934.000015258789,Tue Nov 05 2024 17:13:11 GMT-0600 (Central Standard Time),531640.2000000002,A,appl,O,l,198,1,27524.800000000745,504115.39999999944,7029,WL,A,13.0
3,56.49900007247925,learn,3500.999927520752,Tue Nov 05 2024 17:13:11 GMT-0600 (Central Standard Time),532073.2999999998,A,apple,O,e,421,1,27957.900000000373,504115.39999999944,7029,WL,A,13.0
3,57.598999977111816,learn,2401.0000228881836,Tue Nov 05 2024 17:13:11 GMT-0600 (Central Standard Time),533173.0,A,appleenter,O,enter,1092,1,29057.60000000056,504115.39999999944,7029,WL,A,13.0
3,60.01400017738342,learn,-14.000177383422852,Tue Nov 05 2024 17:13:11 GMT-0600 (Central Standard Time),535589.0,A,None,O,None,2411,1,2415.4000000003725,533173.5999999996,7029,WL,A,14.0
4,0.8489999771118164,learn,59151.00002288818,Tue Nov 05 2024 17:13:11 GMT-0600 (Central Standard Time),609532.2000000002,A,k,O,k,836,1,849.4000000003725,608682.7999999998,7029,WL,A,1.0
4,0.9660000801086426,learn,59033.99991989136,Tue Nov 05 2024 17:13:11 GMT-0600 (Central Standard Time),609649.0999999996,A,ke,O,e,97,1,966.2999999998137,608682.7999999998,7029,WL,A,1.0
4,1.133000135421753,learn,58866.99986457825,Tue Nov 05 2024 17:13:11 GMT-0600 (Central Standard Time),609815.5999999996,A,key,O,y,156,1,1132.7999999998137,608682.7999999998,7029,WL,A,1.0
4,1.5160000324249268,learn,58483.99996757507,Tue Nov 05 2024 17:13:11 GMT-0600 (Central Standard Time),610198.5,A,keyenter,O,enter,366,1,1515.7000000001863,608682.7999999998,7029,WL,A,1.0
4,2.131999969482422,learn,57868.00003051758,Tue Nov 05 2024 17:13:11 GMT-0600 (Central Standard Time),610815.2000000002,A,r,O,r,607,1,616.3000000007451,610198.8999999994,7029,WL,A,2.0
4,2.4160001277923584,learn,57583.99987220764,Tue Nov 05 2024 17:13:11 GMT-0600 (Central Standard Time),611098.5,A,ra,O,a,270,1,899.6000000005588,610198.8999999994,7029,WL,A,2.0
4,2.7660000324249268,learn,57233.99996757507,Tue Nov 05 2024 17:13:11 GMT-0600 (Central Standard Time),611448.5,A,rat,O,t,339,1,1249.6000000005588,610198.8999999994,7029,WL,A,2.0
4,2.8980000019073486,learn,57101.99999809265,Tue Nov 05 2024 17:13:11 GMT-0600 (Central Standard Time),611581.3999999994,A,ratt,O,t,125,1,1382.5,610198.8999999994,7029,WL,A,2.0
4,3.2980000972747803,learn,56701.99990272522,Tue Nov 05 2024 17:13:11 GMT-0600 (Central Standard Time),611981.3999999994,A,rattl,O,l,392,1,1782.5,610198.8999999994,7029,WL,A,2.0
4,3.498000144958496,learn,56501.999855041504,Tue Nov 05 2024 17:13:11 GMT-0600 (Central Standard Time),612181.3999999994,A,rattle,O,e,192,1,1982.5,610198.8999999994,7029,WL,A,2.0
4,3.8320000171661377,learn,56167.99998283386,Tue Nov 05 2024 17:13:11 GMT-0600 (Central Standard Time),612514.7000000002,A,rattleenter,O,enter,328,1,2315.800000000745,610198.8999999994,7029,WL,A,2.0
4,4.299000024795532,learn,55700.99997520447,Tue Nov 05 2024 17:13:11 GMT-0600 (Central Standard Time),612982.2999999998,A,s,O,s,451,1,467.29999999981374,612515.0,7029,WL,A,3.0
4,4.5320000648498535,learn,55467.99993515015,Tue Nov 05 2024 17:13:11 GMT-0600 (Central Standard Time),613214.5999999996,A,sa,O,a,223,1,699.5999999996275,612515.0,7029,WL,A,3.0
4,4.828000068664551,learn,55171.99993133545,Tue Nov 05 2024 17:13:11 GMT-0600 (Central Standard Time),613510.8999999994,A,sal,O,l,292,1,995.8999999994412,612515.0,7029,WL,A,3.0
4,4.9750001430511475,learn,55024.99985694885,Tue Nov 05 2024 17:13:11 GMT-0600 (Central Standard Time),613658.3999999994,A,salt,O,t,141,1,1143.3999999994412,612515.0,7029,WL,A,3.0
4,5.281000137329102,learn,54718.9998626709,Tue Nov 05 2024 17:13:11 GMT-0600 (Central Standard Time),613964.0999999996,A,saltenter,O,enter,291,1,1449.0999999996275,612515.0,7029,WL,A,3.0
4,5.947999954223633,learn,54052.00004577637,Tue Nov 05 2024 17:13:11 GMT-0600 (Central Standard Time),614631.0,A,g,O,g,650,1,666.6000000005588,613964.3999999994,7029,WL,A,4.0
4,6.031000137329102,learn,53968.9998626709,Tue Nov 05 2024 17:13:11 GMT-0600 (Central Standard Time),614713.8999999994,A,go,O,o,72,1,749.5,613964.3999999994,7029,WL,A,4.0
4,6.230999946594238,learn,53769.00005340576,Tue Nov 05 2024 17:13:11 GMT-0600 (Central Standard Time),614913.8999999994,A,gol,O,l,188,1,949.5,613964.3999999994,7029,WL,A,4.0
4,6.364000082015991,learn,53635.99991798401,Tue Nov 05 2024 17:13:11 GMT-0600 (Central Standard Time),615047.3999999994,A,gold,O,d,124,1,1083.0,613964.3999999994,7029,WL,A,4.0
4,6.730999946594238,learn,53269.00005340576,Tue Nov 05 2024 17:13:11 GMT-0600 (Central Standard Time),615413.5999999996,A,goldenter,O,enter,358,1,1449.2000000001863,613964.3999999994,7029,WL,A,4.0
4,7.081000089645386,learn,52918.999910354614,Tue Nov 05 2024 17:13:11 GMT-0600 (Central Standard Time),615763.7000000002,A,h,O,h,336,1,349.80000000074506,615413.8999999994,7029,WL,A,5.0
4,7.263999938964844,learn,52736.000061035156,Tue Nov 05 2024 17:13:11 GMT-0600 (Central Standard Time),615946.7000000002,A,ha,O,a,162,1,532.8000000007451,615413.8999999994,7029,WL,A,5.0
4,7.697000026702881,learn,52302.99997329712,Tue Nov 05 2024 17:13:11 GMT-0600 (Central Standard Time),616379.8999999994,A,har,O,r,419,1,966.0,615413.8999999994,7029,WL,A,5.0
4,7.864000082015991,learn,52135.99991798401,Tue Nov 05 2024 17:13:11 GMT-0600 (Central Standard Time),616546.7000000002,A,harp,O,p,162,1,1132.800000000745,615413.8999999994,7029,WL,A,5.0
4,8.164000034332275,learn,51835.999965667725,Tue Nov 05 2024 17:13:11 GMT-0600 (Central Standard Time),616846.7000000002,A,harpenter,O,enter,283,1,1432.800000000745,615413.8999999994,7029,WL,A,5.0
4,8.496999979019165,learn,51503.000020980835,Tue Nov 05 2024 17:13:11 GMT-0600 (Central Standard Time),617179.7999999998,A,m,O,m,327,1,332.90000000037253,616846.8999999994,7029,WL,A,6.0
4,8.647000074386597,learn,51352.9999256134,Tue Nov 05 2024 17:13:11 GMT-0600 (Central Standard Time),617329.7000000002,A,me,O,e,130,1,482.80000000074506,616846.8999999994,7029,WL,A,6.0
4,8.814000129699707,learn,51185.99987030029,Tue Nov 05 2024 17:13:11 GMT-0600 (Central Standard Time),617496.5,A,mea,O,a,148,1,649.6000000005588,616846.8999999994,7029,WL,A,6.0
4,8.996999979019165,learn,51003.000020980835,Tue Nov 05 2024 17:13:11 GMT-0600 (Central Standard Time),617679.8999999994,A,mead,O,d,174,1,833.0,616846.8999999994,7029,WL,A,6.0
4,9.147000074386597,learn,50852.9999256134,Tue Nov 05 2024 17:13:11 GMT-0600 (Central Standard Time),617829.5999999996,A,meado,O,o,134,1,982.7000000001863,616846.8999999994,7029,WL,A,6.0
4,9.27999997138977,learn,50720.00002861023,Tue Nov 05 2024 17:13:11 GMT-0600 (Central Standard Time),617962.7000000002,A,meadow,O,w,128,1,1115.800000000745,616846.8999999994,7029,WL,A,6.0
4,9.480000019073486,learn,50519.999980926514,Tue Nov 05 2024 17:13:11 GMT-0600 (Central Standard Time),618163.0,A,meadowenter,O,enter,180,1,1316.1000000005588,616846.8999999994,7029,WL,A,6.0
4,9.746999979019165,learn,50253.000020980835,Tue Nov 05 2024 17:13:11 GMT-0600 (Central Standard Time),618429.5,A,t,O,t,251,1,266.20000000018626,618163.2999999998,7029,WL,A,7.0
4,9.94700002670288,learn,50052.99997329712,Tue Nov 05 2024 17:13:11 GMT-0600 (Central Standard Time),618629.5,A,tr,O,r,184,1,466.20000000018626,618163.2999999998,7029,WL,A,7.0
4,10.130000114440918,learn,49869.99988555908,Tue Nov 05 2024 17:13:11 GMT-0600 (Central Standard Time),618812.3999999994,A,tra,O,a,176,1,649.0999999996275,618163.2999999998,7029,WL,A,7.0
4,10.812999963760376,learn,49187.000036239624,Tue Nov 05 2024 17:13:11 GMT-0600 (Central Standard Time),619495.7000000002,A,trai,O,i,673,1,1332.4000000003725,618163.2999999998,7029,WL,A,7.0
4,11.013000011444092,learn,48986.99998855591,Tue Nov 05 2024 17:13:11 GMT-0600 (Central Standard Time),619695.7999999998,A,train,O,n,182,1,1532.5,618163.2999999998,7029,WL,A,7.0
4,11.328999996185303,learn,48671.0000038147,Tue Nov 05 2024 17:13:11 GMT-0600 (Central Standard Time),620012.2999999998,A,trainenter,O,enter,311,1,1849.0,618163.2999999998,7029,WL,A,7.0
4,11.663000106811523,learn,48336.99989318848,Tue Nov 05 2024 17:13:11 GMT-0600 (Central Standard Time),620345.3999999994,A,r,O,r,313,1,332.79999999981374,620012.5999999996,7029,WL,A,8.0
4,11.76200008392334,learn,48237.99991607666,Tue Nov 05 2024 17:13:11 GMT-0600 (Central Standard Time),620445.2999999998,A,ru,O,u,92,1,432.70000000018626,620012.5999999996,7029,WL,A,8.0
4,11.996000051498413,learn,48003.99994850159,Tue Nov 05 2024 17:13:11 GMT-0600 (Central Standard Time),620678.7000000002,A,rug,O,g,224,1,666.1000000005588,620012.5999999996,7029,WL,A,8.0
4,12.163000106811523,learn,47836.99989318848,Tue Nov 05 2024 17:13:11 GMT-0600 (Central Standard Time),620845.5,A,rugenter,O,enter,159,1,832.9000000003725,620012.5999999996,7029,WL,A,8.0
4,13.095999956130981,learn,46904.00004386902,Tue Nov 05 2024 17:13:11 GMT-0600 (Central Standard Time),621778.5,A,a,O,a,920,1,932.4000000003725,620846.0999999996,7029,WL,A,9.0
4,13.229000091552734,learn,46770.999908447266,Tue Nov 05 2024 17:13:11 GMT-0600 (Central Standard Time),621911.7000000002,A,ap,O,p,115,1,1065.6000000005588,620846.0999999996,7029,WL,A,9.0
4,13.378999948501587,learn,46621.00005149841,Tue Nov 05 2024 17:13:11 GMT-0600 (Central Standard Time),622061.5999999996,A,app,O,p,134,1,1215.5,620846.0999999996,7029,WL,A,9.0
4,13.562000036239624,learn,46437.999963760376,Tue Nov 05 2024 17:13:11 GMT-0600 (Central Standard Time),622245.0,A,appl,O,l,168,1,1398.9000000003725,620846.0999999996,7029,WL,A,9.0
4,13.712000131607056,learn,46287.999868392944,Tue Nov 05 2024 17:13:11 GMT-0600 (Central Standard Time),622394.7000000002,A,apple,O,e,145,1,1548.6000000005588,620846.0999999996,7029,WL,A,9.0
4,13.828999996185303,learn,46171.0000038147,Tue Nov 05 2024 17:13:11 GMT-0600 (Central Standard Time),622511.5,A,appleenter,O,enter,99,1,1665.4000000003725,620846.0999999996,7029,WL,A,9.0
4,14.111999988555908,learn,45888.00001144409,Tue Nov 05 2024 17:13:11 GMT-0600 (Central Standard Time),622794.7999999998,A,l,O,l,263,1,282.90000000037253,622511.8999999994,7029,WL,A,10.0
4,14.312000036239624,learn,45687.999963760376,Tue Nov 05 2024 17:13:11 GMT-0600 (Central Standard Time),622994.7000000002,A,lo,O,o,195,1,482.80000000074506,622511.8999999994,7029,WL,A,10.0
4,14.411999940872192,learn,45588.00005912781,Tue Nov 05 2024 17:13:11 GMT-0600 (Central Standard Time),623094.5999999996,A,log,O,g,83,1,582.7000000001863,622511.8999999994,7029,WL,A,10.0
4,14.611999988555908,learn,45388.00001144409,Tue Nov 05 2024 17:13:11 GMT-0600 (Central Standard Time),623294.5999999996,A,logenter,O,enter,192,1,782.7000000001863,622511.8999999994,7029,WL,A,10.0
4,18.39400005340576,learn,41605.99994659424,Tue Nov 05 2024 17:13:11 GMT-0600 (Central Standard Time),627076.5999999996,A,b,O,b,3767,1,3781.7000000001863,623294.8999999994,7029,WL,A,11.0
4,18.509999990463257,learn,41490.00000953674,Tue Nov 05 2024 17:13:11 GMT-0600 (Central Standard Time),627193.2999999998,A,bo,O,o,97,1,3898.4000000003725,623294.8999999994,7029,WL,A,11.0
4,18.66100001335144,learn,41338.99998664856,Tue Nov 05 2024 17:13:11 GMT-0600 (Central Standard Time),627343.5,A,boo,O,o,132,1,4048.600000000559,623294.8999999994,7029,WL,A,11.0
4,18.759999990463257,learn,41240.00000953674,Tue Nov 05 2024 17:13:11 GMT-0600 (Central Standard Time),627443.0999999996,A,book,O,k,86,1,4148.200000000186,623294.8999999994,7029,WL,A,11.0
4,18.99399995803833,learn,41006.00004196167,Tue Nov 05 2024 17:13:11 GMT-0600 (Central Standard Time),627676.5,A,bookenter,O,enter,225,1,4381.600000000559,623294.8999999994,7029,WL,A,11.0
4,21.693000078201294,learn,38306.999921798706,Tue Nov 05 2024 17:13:11 GMT-0600 (Central Standard Time),630375.5999999996,A,f,O,f,2689,1,2698.7000000001863,627676.8999999994,7029,WL,A,12.0
4,21.792999982833862,learn,38207.00001716614,Tue Nov 05 2024 17:13:11 GMT-0600 (Central Standard Time),630475.5999999996,A,fi,O,i,86,1,2798.7000000001863,627676.8999999994,7029,WL,A,12.0
4,21.943000078201294,learn,38056.999921798706,Tue Nov 05 2024 17:13:11 GMT-0600 (Central Standard Time),630625.5999999996,A,fin,O,n,138,1,2948.7000000001863,627676.8999999994,7029,WL,A,12.0
4,22.110000133514404,learn,37889.999866485596,Tue Nov 05 2024 17:13:11 GMT-0600 (Central Standard Time),630792.5,A,fint,O,t,148,1,3115.600000000559,627676.8999999994,7029,WL,A,12.0
4,22.276000022888184,learn,37723.99997711182,Tue Nov 05 2024 17:13:11 GMT-0600 (Central Standard Time),630959.0,A,finte,O,e,157,1,3282.100000000559,627676.8999999994,7029,WL,A,12.0
4,22.375999927520752,learn,37624.00007247925,Tue Nov 05 2024 17:13:11 GMT-0600 (Central Standard Time),631058.8999999994,A,finter,O,r,80,1,3382.0,627676.8999999994,7029,WL,A,12.0
4,22.443000078201294,learn,37556.999921798706,Tue Nov 05 2024 17:13:11 GMT-0600 (Central Standard Time),631125.5,A,finterenter,O,enter,59,1,3448.600000000559,627676.8999999994,7029,WL,A,12.0
4,43.38499999046326,learn,16615.000009536743,Tue Nov 05 2024 17:13:11 GMT-0600 (Central Standard Time),652068.8999999994,A,c,O,c,20928,1,20943.099999999627,631125.7999999998,7029,WL,A,13.0
4,43.50200009346008,learn,16497.999906539917,Tue Nov 05 2024 17:13:11 GMT-0600 (Central Standard Time),652185.5,A,ch,O,h,97,1,21059.700000000186,631125.7999999998,7029,WL,A,13.0
4,43.83500003814697,learn,16164.999961853027,Tue Nov 05 2024 17:13:11 GMT-0600 (Central Standard Time),652518.7999999998,A,chi,O,i,316,1,21393.0,631125.7999999998,7029,WL,A,13.0
4,44.068000078201294,learn,15931.999921798706,Tue Nov 05 2024 17:13:11 GMT-0600 (Central Standard Time),652751.8999999994,A,chim,O,m,223,1,21626.099999999627,631125.7999999998,7029,WL,A,13.0
4,44.4520001411438,learn,15547.999858856201,Tue Nov 05 2024 17:13:11 GMT-0600 (Central Standard Time),653135.3999999994,A,chimn,O,n,366,1,22009.599999999627,631125.7999999998,7029,WL,A,13.0
4,44.61800003051758,learn,15381.999969482422,Tue Nov 05 2024 17:13:11 GMT-0600 (Central Standard Time),653301.8999999994,A,chimne,O,e,158,1,22176.099999999627,631125.7999999998,7029,WL,A,13.0
4,44.901000022888184,learn,15098.999977111816,Tue Nov 05 2024 17:13:11 GMT-0600 (Central Standard Time),653585.0,A,chimney,O,y,264,1,22459.200000000186,631125.7999999998,7029,WL,A,13.0
4,45.26800012588501,learn,14731.99987411499,Tue Nov 05 2024 17:13:11 GMT-0600 (Central Standard Time),653951.5999999996,A,chimneyenter,O,enter,348,1,22825.799999999814,631125.7999999998,7029,WL,A,13.0
4,60.013999938964844,learn,-13.99993896484375,Tue Nov 05 2024 17:13:11 GMT-0600 (Central Standard Time),668697.2000000002,A,None,O,None,14741,1,14745.100000000559,653952.0999999996,7029,WL,A,14.0
5,1.317000150680542,learn,60000.0,Tue Nov 05 2024 17:13:11 GMT-0600 (Central Standard Time),744839.7000000002,A,b,O,b,1306,1,1316.300000000745,743523.3999999994,7029,WL,A,1.0
5,1.4500000476837158,learn,60000.0,Tue Nov 05 2024 17:13:11 GMT-0600 (Central Standard Time),744973.0,A,bo,O,o,125,1,1449.6000000005588,743523.3999999994,7029,WL,A,1.0
5,1.633000135421753,learn,60000.0,Tue Nov 05 2024 17:13:11 GMT-0600 (Central Standard Time),745156.2000000002,A,boo,O,o,168,1,1632.800000000745,743523.3999999994,7029,WL,A,1.0
5,1.817000150680542,learn,60000.0,Tue Nov 05 2024 17:13:11 GMT-0600 (Central Standard Time),745339.3999999994,A,book,O,k,176,1,1816.0,743523.3999999994,7029,WL,A,1.0
5,2.067000150680542,learn,60000.0,Tue Nov 05 2024 17:13:11 GMT-0600 (Central Standard Time),745589.5,A,bookenter,O,enter,242,1,2066.100000000559,743523.3999999994,7029,WL,A,1.0
5,2.6500000953674316,learn,60000.0,Tue Nov 05 2024 17:13:11 GMT-0600 (Central Standard Time),746172.2999999998,A,m,O,m,568,1,582.5,745589.7999999998,7029,WL,A,2.0
5,2.7660000324249268,learn,60000.0,Tue Nov 05 2024 17:13:11 GMT-0600 (Central Standard Time),746289.0,A,me,O,e,97,1,699.2000000001863,745589.7999999998,7029,WL,A,2.0
5,2.933000087738037,learn,60000.0,Tue Nov 05 2024 17:13:11 GMT-0600 (Central Standard Time),746455.5999999996,A,mea,O,a,156,1,865.7999999998137,745589.7999999998,7029,WL,A,2.0
5,3.133000135421753,learn,60000.0,Tue Nov 05 2024 17:13:11 GMT-0600 (Central Standard Time),746655.5,A,mead,O,d,190,1,1065.7000000001863,745589.7999999998,7029,WL,A,2.0
5,3.383000135421753,learn,60000.0,Tue Nov 05 2024 17:13:11 GMT-0600 (Central Standard Time),746905.7000000002,A,meado,O,o,230,1,1315.9000000003725,745589.7999999998,7029,WL,A,2.0
5,3.565999984741211,learn,60000.0,Tue Nov 05 2024 17:13:11 GMT-0600 (Central Standard Time),747089.0,A,meadow,O,w,164,1,1499.2000000001863,745589.7999999998,7029,WL,A,2.0
5,3.7330000400543213,learn,60000.0,Tue Nov 05 2024 17:13:11 GMT-0600 (Central Standard Time),747255.7999999998,A,meadowenter,O,enter,157,1,1666.0,745589.7999999998,7029,WL,A,2.0
5,4.0329999923706055,learn,60000.0,Tue Nov 05 2024 17:13:11 GMT-0600 (Central Standard Time),747555.5999999996,A,t,O,t,295,1,299.29999999981374,747256.2999999998,7029,WL,A,3.0
5,4.183000087738037,learn,60000.0,Tue Nov 05 2024 17:13:11 GMT-0600 (Central Standard Time),747705.5,A,tr,O,r,137,1,449.20000000018626,747256.2999999998,7029,WL,A,3.0
5,4.348999977111816,learn,60000.0,Tue Nov 05 2024 17:13:11 GMT-0600 (Central Standard Time),747872.2999999998,A,tra,O,a,148,1,616.0,747256.2999999998,7029,WL,A,3.0
5,4.432000160217285,learn,60000.0,Tue Nov 05 2024 17:13:11 GMT-0600 (Central Standard Time),747954.8999999994,A,trai,O,i,77,1,698.5999999996275,747256.2999999998,7029,WL,A,3.0
5,4.598999977111816,learn,60000.0,Tue Nov 05 2024 17:13:11 GMT-0600 (Central Standard Time),748121.5999999996,A,train,O,n,147,1,865.2999999998137,747256.2999999998,7029,WL,A,3.0
5,4.799000024795532,learn,60000.0,Tue Nov 05 2024 17:13:11 GMT-0600 (Central Standard Time),748321.7000000002,A,trainenter,O,enter,180,1,1065.4000000003725,747256.2999999998,7029,WL,A,3.0
5,5.0320000648498535,learn,60000.0,Tue Nov 05 2024 17:13:11 GMT-0600 (Central Standard Time),748554.8999999994,A,l,O,l,220,1,233.0,748321.8999999994,7029,WL,A,4.0
5,5.215000152587891,learn,60000.0,Tue Nov 05 2024 17:13:11 GMT-0600 (Central Standard Time),748738.2000000002,A,lo,O,o,179,1,416.30000000074506,748321.8999999994,7029,WL,A,4.0
5,5.398999929428101,learn,60000.0,Tue Nov 05 2024 17:13:11 GMT-0600 (Central Standard Time),748921.5,A,log,O,g,171,1,599.6000000005588,748321.8999999994,7029,WL,A,4.0
5,5.947999954223633,learn,60000.0,Tue Nov 05 2024 17:13:11 GMT-0600 (Central Standard Time),749471.2999999998,A,logenter,O,enter,540,1,1149.4000000003725,748321.8999999994,7029,WL,A,4.0
5,6.348999977111816,learn,60000.0,Tue Nov 05 2024 17:13:11 GMT-0600 (Central Standard Time),749871.5,A,f,O,f,383,1,400.0,749471.5,7029,WL,A,5.0
5,6.432000160217285,learn,60000.0,Tue Nov 05 2024 17:13:11 GMT-0600 (Central Standard Time),749954.5999999996,A,fl,O,l,78,1,483.09999999962747,749471.5,7029,WL,A,5.0
5,6.631999969482422,learn,60000.0,Tue Nov 05 2024 17:13:11 GMT-0600 (Central Standard Time),750154.8999999994,A,flo,O,o,187,1,683.3999999994412,749471.5,7029,WL,A,5.0
5,6.7820000648498535,learn,60000.0,Tue Nov 05 2024 17:13:11 GMT-0600 (Central Standard Time),750304.5,A,flow,O,w,139,1,833.0,749471.5,7029,WL,A,5.0
5,6.898999929428101,learn,60000.0,Tue Nov 05 2024 17:13:11 GMT-0600 (Central Standard Time),750421.5999999996,A,flowe,O,e,101,1,950.0999999996275,749471.5,7029,WL,A,5.0
5,6.999000072479248,learn,60000.0,Tue Nov 05 2024 17:13:11 GMT-0600 (Central Standard Time),750521.3999999994,A,flower,O,r,80,1,1049.8999999994412,749471.5,7029,WL,A,5.0
5,7.199000120162964,learn,60000.0,Tue Nov 05 2024 17:13:11 GMT-0600 (Central Standard Time),750721.5,A,flowerenter,O,enter,180,1,1250.0,749471.5,7029,WL,A,5.0
5,9.197999954223633,learn,60000.0,Tue Nov 05 2024 17:13:11 GMT-0600 (Central Standard Time),752720.5,A,h,O,h,1980,1,1998.7000000001863,750721.7999999998,7029,WL,A,6.0
5,9.46399998664856,learn,60000.0,Tue Nov 05 2024 17:13:11 GMT-0600 (Central Standard Time),752987.2000000002,A,ha,O,a,253,1,2265.4000000003725,750721.7999999998,7029,WL,A,6.0
5,9.680999994277954,learn,60000.0,Tue Nov 05 2024 17:13:11 GMT-0600 (Central Standard Time),753203.8999999994,A,hap,O,p,209,1,2482.0999999996275,750721.7999999998,7029,WL,A,6.0
5,10.38100004196167,learn,60000.0,Tue Nov 05 2024 17:13:11 GMT-0600 (Central Standard Time),753903.5999999996,A,ha,O,backspace,690,1,3181.7999999998137,750721.7999999998,7029,WL,A,6.0
5,10.531000137329102,learn,60000.0,Tue Nov 05 2024 17:13:11 GMT-0600 (Central Standard Time),754053.7000000002,A,har,O,r,134,1,3331.9000000003725,750721.7999999998,7029,WL,A,6.0
5,10.730999946594238,learn,60000.0,Tue Nov 05 2024 17:13:11 GMT-0600 (Central Standard Time),754253.2999999998,A,harp,O,p,184,1,3531.5,750721.7999999998,7029,WL,A,6.0
5,11.341000080108643,learn,60000.0,Tue Nov 05 2024 17:13:11 GMT-0600 (Central Standard Time),754863.7000000002,A,harpenter,O,enter,464,1,4141.9000000003725,750721.7999999998,7029,WL,A,6.0
5,11.814000129699707,learn,60000.0,Tue Nov 05 2024 17:13:11 GMT-0600 (Central Standard Time),755336.3999999994,A,g,O,g,453,1,472.3999999994412,754864.0,7029,WL,A,7.0
5,12.02999997138977,learn,60000.0,Tue Nov 05 2024 17:13:11 GMT-0600 (Central Standard Time),755553.0999999996,A,go,O,o,197,1,689.0999999996275,754864.0,7029,WL,A,7.0
5,12.246999979019165,learn,60000.0,Tue Nov 05 2024 17:13:11 GMT-0600 (Central Standard Time),755769.5999999996,A,gol,O,l,196,1,905.5999999996275,754864.0,7029,WL,A,7.0
5,12.730000019073486,learn,60000.0,Tue Nov 05 2024 17:13:11 GMT-0600 (Central Standard Time),756252.7999999998,A,gold,O,d,468,1,1388.7999999998137,754864.0,7029,WL,A,7.0
5,12.94700002670288,learn,60000.0,Tue Nov 05 2024 17:13:11 GMT-0600 (Central Standard Time),756469.5999999996,A,goldenter,O,enter,208,1,1605.5999999996275,754864.0,7029,WL,A,7.0
5,13.180000066757202,learn,60000.0,Tue Nov 05 2024 17:13:11 GMT-0600 (Central Standard Time),756702.8999999994,A,f,O,f,216,1,233.0,756469.8999999994,7029,WL,A,8.0
5,13.312999963760376,learn,60000.0,Tue Nov 05 2024 17:13:11 GMT-0600 (Central Standard Time),756836.0,A,fi,O,i,127,1,366.1000000005588,756469.8999999994,7029,WL,A,8.0
5,13.463000059127808,learn,60000.0,Tue Nov 05 2024 17:13:11 GMT-0600 (Central Standard Time),756985.8999999994,A,fin,O,n,137,1,516.0,756469.8999999994,7029,WL,A,8.0
5,13.696000099182129,learn,60000.0,Tue Nov 05 2024 17:13:11 GMT-0600 (Central Standard Time),757219.2000000002,A,fing,O,g,221,1,749.3000000007451,756469.8999999994,7029,WL,A,8.0
5,13.880000114440918,learn,60000.0,Tue Nov 05 2024 17:13:11 GMT-0600 (Central Standard Time),757402.5999999996,A,finge,O,e,171,1,932.7000000001863,756469.8999999994,7029,WL,A,8.0
5,13.946000099182129,learn,60000.0,Tue Nov 05 2024 17:13:11 GMT-0600 (Central Standard Time),757469.2000000002,A,finger,O,r,51,1,999.3000000007451,756469.8999999994,7029,WL,A,8.0
5,14.61300015449524,learn,60000.0,Tue Nov 05 2024 17:13:11 GMT-0600 (Central Standard Time),758135.2999999998,A,fingerenter,O,enter,648,1,1665.4000000003725,756469.8999999994,7029,WL,A,8.0
5,15.496000051498413,learn,60000.0,Tue Nov 05 2024 17:13:11 GMT-0600 (Central Standard Time),759018.7000000002,A,c,O,c,870,1,883.1000000005588,758135.5999999996,7029,WL,A,9.0
5,15.546000003814697,learn,60000.0,Tue Nov 05 2024 17:13:11 GMT-0600 (Central Standard Time),759068.5999999996,A,ch,O,h,35,1,933.0,758135.5999999996,7029,WL,A,9.0
5,16.69600009918213,learn,60000.0,Tue Nov 05 2024 17:13:11 GMT-0600 (Central Standard Time),760218.5,A,chi,O,i,1129,1,2082.9000000003725,758135.5999999996,7029,WL,A,9.0
5,16.944999933242798,learn,60000.0,Tue Nov 05 2024 17:13:11 GMT-0600 (Central Standard Time),760468.2000000002,A,chim,O,m,235,1,2332.600000000559,758135.5999999996,7029,WL,A,9.0
5,17.17900013923645,learn,60000.0,Tue Nov 05 2024 17:13:11 GMT-0600 (Central Standard Time),760701.3999999994,A,chimn,O,n,225,1,2565.7999999998137,758135.5999999996,7029,WL,A,9.0
5,17.34500002861023,learn,60000.0,Tue Nov 05 2024 17:13:11 GMT-0600 (Central Standard Time),760868.0,A,chimne,O,e,152,1,2732.4000000003725,758135.5999999996,7029,WL,A,9.0
5,17.51200008392334,learn,60000.0,Tue Nov 05 2024 17:13:11 GMT-0600 (Central Standard Time),761034.7999999998,A,chimney,O,y,146,1,2899.2000000001863,758135.5999999996,7029,WL,A,9.0
5,17.74500012397766,learn,60000.0,Tue Nov 05 2024 17:13:11 GMT-0600 (Central Standard Time),761268.0,A,chimneyenter,O,enter,227,1,3132.4000000003725,758135.5999999996,7029,WL,A,9.0
5,18.74500012397766,learn,60000.0,Tue Nov 05 2024 17:13:11 GMT-0600 (Central Standard Time),762267.5999999996,A,s,O,s,994,1,999.2999999998137,761268.2999999998,7029,WL,A,10.0
5,18.99500012397766,learn,60000.0,Tue Nov 05 2024 17:13:11 GMT-0600 (Central Standard Time),762517.5,A,sa,O,a,234,1,1249.2000000001863,761268.2999999998,7029,WL,A,10.0
5,19.194999933242798,learn,60000.0,Tue Nov 05 2024 17:13:11 GMT-0600 (Central Standard Time),762717.5,A,sal,O,l,192,1,1449.2000000001863,761268.2999999998,7029,WL,A,10.0
5,19.311000108718872,learn,60000.0,Tue Nov 05 2024 17:13:11 GMT-0600 (Central Standard Time),762834.2000000002,A,sale,O,e,104,1,1565.9000000003725,761268.2999999998,7029,WL,A,10.0
5,19.478000164031982,learn,60000.0,Tue Nov 05 2024 17:13:11 GMT-0600 (Central Standard Time),763000.7999999998,A,saleenter,O,enter,148,1,1732.5,761268.2999999998,7029,WL,A,10.0
5,27.509000062942505,learn,60000.0,Tue Nov 05 2024 17:13:11 GMT-0600 (Central Standard Time),771031.3999999994,A,r,O,r,8021,1,8030.399999999441,763001.0,7029,WL,A,11.0
5,27.858999967575073,learn,60000.0,Tue Nov 05 2024 17:13:11 GMT-0600 (Central Standard Time),771381.5,A,ru,O,u,342,1,8380.5,763001.0,7029,WL,A,11.0
5,28.29200005531311,learn,60000.0,Tue Nov 05 2024 17:13:11 GMT-0600 (Central Standard Time),771814.5,A,rug,O,g,424,1,8813.5,763001.0,7029,WL,A,11.0
5,28.657999992370605,learn,60000.0,Tue Nov 05 2024 17:13:11 GMT-0600 (Central Standard Time),772181.2999999998,A,rugenter,O,enter,359,1,9180.299999999814,763001.0,7029,WL,A,11.0
5,28.909000158309937,learn,60000.0,Tue Nov 05 2024 17:13:11 GMT-0600 (Central Standard Time),772431.3999999994,A,k,O,k,232,1,249.79999999981374,772181.5999999996,7029,WL,A,12.0
5,28.990999937057495,learn,60000.0,Tue Nov 05 2024 17:13:11 GMT-0600 (Central Standard Time),772514.2999999998,A,ke,O,e,62,1,332.70000000018626,772181.5999999996,7029,WL,A,12.0
5,29.174999952316284,learn,60000.0,Tue Nov 05 2024 17:13:11 GMT-0600 (Central Standard Time),772697.7000000002,A,key,O,y,171,1,516.1000000005588,772181.5999999996,7029,WL,A,12.0
5,29.45799994468689,learn,60000.0,Tue Nov 05 2024 17:13:11 GMT-0600 (Central Standard Time),772980.7999999998,A,keyenter,O,enter,276,1,799.2000000001863,772181.5999999996,7029,WL,A,12.0
5,30.20799994468689,learn,60000.0,Tue Nov 05 2024 17:13:11 GMT-0600 (Central Standard Time),773730.7999999998,A,l,O,l,737,1,749.7000000001863,772981.0999999996,7029,WL,A,13.0
5,30.407999992370605,learn,60000.0,Tue Nov 05 2024 17:13:11 GMT-0600 (Central Standard Time),773930.7000000002,A,lo,O,o,179,1,949.6000000005588,772981.0999999996,7029,WL,A,13.0
5,30.490999937057495,learn,60000.0,Tue Nov 05 2024 17:13:11 GMT-0600 (Central Standard Time),774014.0,A,log,O,g,75,1,1032.9000000003725,772981.0999999996,7029,WL,A,13.0
5,30.641000032424927,learn,60000.0,Tue Nov 05 2024 17:13:11 GMT-0600 (Central Standard Time),774163.7999999998,A,logenter,O,enter,143,1,1182.7000000001863,772981.0999999996,7029,WL,A,13.0
5,40.021000146865845,learn,60000.0,Tue Nov 05 2024 17:13:11 GMT-0600 (Central Standard Time),783544.2999999998,A,b,O,b,9371,1,9380.200000000186,774164.0999999996,7029,WL,A,14.0
5,40.1710000038147,learn,60000.0,Tue Nov 05 2024 17:13:11 GMT-0600 (Central Standard Time),783694.0999999996,A,bu,O,u,133,1,9530.0,774164.0999999996,7029,WL,A,14.0
5,40.32100009918213,learn,60000.0,Tue Nov 05 2024 17:13:11 GMT-0600 (Central Standard Time),783844.2000000002,A,but,O,t,143,1,9680.100000000559,774164.0999999996,7029,WL,A,14.0
5,40.47099995613098,learn,60000.0,Tue Nov 05 2024 17:13:11 GMT-0600 (Central Standard Time),783994.2999999998,A,butt,O,t,137,1,9830.200000000186,774164.0999999996,7029,WL,A,14.0
5,40.57100009918213,learn,60000.0,Tue Nov 05 2024 17:13:11 GMT-0600 (Central Standard Time),784094.0999999996,A,butto,O,o,82,1,9930.0,774164.0999999996,7029,WL,A,14.0
5,40.687999963760376,learn,60000.0,Tue Nov 05 2024 17:13:11 GMT-0600 (Central Standard Time),784210.5999999996,A,button,O,n,111,1,10046.5,774164.0999999996,7029,WL,A,14.0
5,41.138999938964844,learn,60000.0,Tue Nov 05 2024 17:13:11 GMT-0600 (Central Standard Time),784661.7000000002,A,buttonenter,O,enter,443,1,10497.600000000559,774164.0999999996,7029,WL,A,14.0
5,91.67199993133545,learn,60000.0,Tue Nov 05 2024 17:13:11 GMT-0600 (Central Standard Time),835194.5999999996,A,enter,O,enter,50513,1,50532.5,784662.0999999996,7029,WL,A,15.0
6,0.75,distr,59250.0,Tue Nov 05 2024 17:13:11 GMT-0600 (Central Standard Time),931398.0,B,c,O,c,734,1,750.1000000005588,930647.8999999994,7029,WL,A,1.0
6,0.8669998645782471,distr,59133.00013542175,Tue Nov 05 2024 17:13:11 GMT-0600 (Central Standard Time),931514.7999999998,B,ch,O,h,95,1,866.9000000003725,930647.8999999994,7029,WL,A,1.0
6,1.0339999198913574,distr,58966.00008010864,Tue Nov 05 2024 17:13:11 GMT-0600 (Central Standard Time),931681.0,B,cha,O,a,156,1,1033.1000000005588,930647.8999999994,7029,WL,A,1.0
6,1.1670000553131104,distr,58832.99994468689,Tue Nov 05 2024 17:13:11 GMT-0600 (Central Standard Time),931814.5999999996,B,chai,O,i,117,1,1166.7000000001863,930647.8999999994,7029,WL,A,1.0
6,1.3499999046325684,distr,58650.00009536743,Tue Nov 05 2024 17:13:11 GMT-0600 (Central Standard Time),931997.7000000002,B,chair,O,r,167,1,1349.800000000745,930647.8999999994,7029,WL,A,1.0
6,1.616999864578247,distr,58383.00013542175,Tue Nov 05 2024 17:13:11 GMT-0600 (Central Standard Time),932264.3999999994,B,chairenter,O,enter,255,1,1616.5,930647.8999999994,7029,WL,A,1.0
6,1.9170000553131104,distr,58082.99994468689,Tue Nov 05 2024 17:13:11 GMT-0600 (Central Standard Time),932564.0999999996,B,j,O,j,285,1,299.29999999981374,932264.7999999998,7029,WL,A,2.0
6,2.132999897003174,distr,57867.000102996826,Tue Nov 05 2024 17:13:11 GMT-0600 (Central Standard Time),932780.3999999994,B,ju,O,u,209,1,515.5999999996275,932264.7999999998,7029,WL,A,2.0
6,2.316999912261963,distr,57683.00008773804,Tue Nov 05 2024 17:13:11 GMT-0600 (Central Standard Time),932964.0,B,jud,O,d,169,1,699.2000000001863,932264.7999999998,7029,WL,A,2.0
6,2.5999999046325684,distr,57400.00009536743,Tue Nov 05 2024 17:13:11 GMT-0600 (Central Standard Time),933247.3999999994,B,judg,O,g,273,1,982.5999999996275,932264.7999999998,7029,WL,A,2.0
6,2.799999952316284,distr,57200.000047683716,Tue Nov 05 2024 17:13:11 GMT-0600 (Central Standard Time),933447.2999999998,B,judge,O,e,190,1,1182.5,932264.7999999998,7029,WL,A,2.0
6,3.0,distr,57000.0,Tue Nov 05 2024 17:13:11 GMT-0600 (Central Standard Time),933647.2000000002,B,judgeenter,O,enter,182,1,1382.4000000003725,932264.7999999998,7029,WL,A,2.0
6,3.2829999923706055,distr,56717.000007629395,Tue Nov 05 2024 17:13:11 GMT-0600 (Central Standard Time),933930.5,B,s,O,s,270,1,282.90000000037253,933647.5999999996,7029,WL,A,3.0
6,3.4489998817443848,distr,56551.000118255615,Tue Nov 05 2024 17:13:11 GMT-0600 (Central Standard Time),934096.8999999994,B,se,O,e,147,1,449.29999999981374,933647.5999999996,7029,WL,A,3.0
6,3.6659998893737793,distr,56334.00011062622,Tue Nov 05 2024 17:13:11 GMT-0600 (Central Standard Time),934313.5999999996,B,sea,O,a,205,1,666.0,933647.5999999996,7029,WL,A,3.0
6,3.799999952316284,distr,56200.000047683716,Tue Nov 05 2024 17:13:11 GMT-0600 (Central Standard Time),934447.0999999996,B,seat,O,t,124,1,799.5,933647.5999999996,7029,WL,A,3.0
6,3.9660000801086426,distr,56033.99991989136,Tue Nov 05 2024 17:13:11 GMT-0600 (Central Standard Time),934613.5999999996,B,seatenter,O,enter,157,1,966.0,933647.5999999996,7029,WL,A,3.0
6,5.381999969482422,distr,54618.00003051758,Tue Nov 05 2024 17:13:11 GMT-0600 (Central Standard Time),936029.7000000002,B,b,O,b,1408,1,1415.800000000745,934613.8999999994,7029,WL,A,4.0
6,5.549000024795532,distr,54450.99997520447,Tue Nov 05 2024 17:13:11 GMT-0600 (Central Standard Time),936196.3999999994,B,bo,O,o,160,1,1582.5,934613.8999999994,7029,WL,A,4.0
6,5.698999881744385,distr,54301.000118255615,Tue Nov 05 2024 17:13:11 GMT-0600 (Central Standard Time),936346.3999999994,B,bot,O,t,137,1,1732.5,934613.8999999994,7029,WL,A,4.0
6,5.832000017166138,distr,54167.99998283386,Tue Nov 05 2024 17:13:11 GMT-0600 (Central Standard Time),936479.2000000002,B,bott,O,t,115,1,1865.300000000745,934613.8999999994,7029,WL,A,4.0
6,6.098999977111816,distr,53901.00002288818,Tue Nov 05 2024 17:13:11 GMT-0600 (Central Standard Time),936746.2999999998,B,bottl,O,l,255,1,2132.4000000003725,934613.8999999994,7029,WL,A,4.0
6,6.2820000648498535,distr,53717.99993515015,Tue Nov 05 2024 17:13:11 GMT-0600 (Central Standard Time),936929.3999999994,B,bottle,O,e,164,1,2315.5,934613.8999999994,7029,WL,A,4.0
6,6.499000072479248,distr,53500.99992752075,Tue Nov 05 2024 17:13:11 GMT-0600 (Central Standard Time),937146.0,B,bottleenter,O,enter,196,1,2532.100000000559,934613.8999999994,7029,WL,A,4.0
6,7.716000080108643,distr,52283.99991989136,Tue Nov 05 2024 17:13:11 GMT-0600 (Central Standard Time),938363.0999999996,B,s,O,s,1213,1,1216.5999999996275,937146.5,7029,WL,A,5.0
6,7.8480000495910645,distr,52151.999950408936,Tue Nov 05 2024 17:13:11 GMT-0600 (Central Standard Time),938495.2000000002,B,sh,O,h,115,1,1348.7000000001863,937146.5,7029,WL,A,5.0
6,7.98199987411499,distr,52018.00012588501,Tue Nov 05 2024 17:13:11 GMT-0600 (Central Standard Time),938630.0,B,she,O,e,118,1,1483.5,937146.5,7029,WL,A,5.0
6,8.13100004196167,distr,51868.99995803833,Tue Nov 05 2024 17:13:11 GMT-0600 (Central Standard Time),938778.5999999996,B,shee,O,e,144,1,1632.0999999996275,937146.5,7029,WL,A,5.0
6,8.497999906539917,distr,51502.00009346008,Tue Nov 05 2024 17:13:11 GMT-0600 (Central Standard Time),939145.3999999994,B,sheep,O,p,355,1,1998.8999999994412,937146.5,7029,WL,A,5.0
6,8.747999906539917,distr,51252.00009346008,Tue Nov 05 2024 17:13:11 GMT-0600 (Central Standard Time),939395.3999999994,B,sheepenter,O,enter,236,1,2248.899999999441,937146.5,7029,WL,A,5.0
6,10.230999946594238,distr,49769.00005340576,Tue Nov 05 2024 17:13:11 GMT-0600 (Central Standard Time),940878.2000000002,B,s,O,s,1475,1,1482.4000000003725,939395.7999999998,7029,WL,A,6.0
6,10.38100004196167,distr,49618.99995803833,Tue Nov 05 2024 17:13:11 GMT-0600 (Central Standard Time),941028.2999999998,B,se,O,e,135,1,1632.5,939395.7999999998,7029,WL,A,6.0
6,10.547999858856201,distr,49452.0001411438,Tue Nov 05 2024 17:13:11 GMT-0600 (Central Standard Time),941194.8999999994,B,sea,O,a,153,1,1799.0999999996275,939395.7999999998,7029,WL,A,6.0
6,10.647000074386597,distr,49352.9999256134,Tue Nov 05 2024 17:13:11 GMT-0600 (Central Standard Time),941294.7999999998,B,seat,O,t,91,1,1899.0,939395.7999999998,7029,WL,A,6.0
6,10.746999979019165,distr,49253.000020980835,Tue Nov 05 2024 17:13:11 GMT-0600 (Central Standard Time),941394.5,B,seatenter,O,enter,95,1,1998.7000000001863,939395.7999999998,7029,WL,A,6.0
6,27.14199995994568,distr,32858.00004005432,Tue Nov 05 2024 17:13:11 GMT-0600 (Central Standard Time),957789.3999999994,B,b,O,b,16380,1,16394.699999999255,941394.7000000002,7029,WL,A,7.0
6,27.325000047683716,distr,32674.999952316284,Tue Nov 05 2024 17:13:11 GMT-0600 (Central Standard Time),957972.7999999998,B,bo,O,o,168,1,16578.099999999627,941394.7000000002,7029,WL,A,7.0
6,27.507999897003174,distr,32492.000102996826,Tue Nov 05 2024 17:13:11 GMT-0600 (Central Standard Time),958156.0,B,boo,O,o,169,1,16761.299999999814,941394.7000000002,7029,WL,A,7.0
6,27.64199995994568,distr,32358.00004005432,Tue Nov 05 2024 17:13:11 GMT-0600 (Central Standard Time),958289.5999999996,B,book,O,k,114,1,16894.89999999944,941394.7000000002,7029,WL,A,7.0
6,27.95799994468689,distr,32042.00005531311,Tue Nov 05 2024 17:13:11 GMT-0600 (Central Standard Time),958606.0,B,bookenter,O,enter,308,1,17211.299999999814,941394.7000000002,7029,WL,A,7.0
6,48.93599987030029,distr,11064.000129699707,Tue Nov 05 2024 17:13:11 GMT-0600 (Central Standard Time),979584.0,B,enter,O,enter,20960,1,20977.700000000186,958606.2999999998,7029,WL,A,8.0
6,50.88499999046326,distr,9115.000009536743,Tue Nov 05 2024 17:13:11 GMT-0600 (Central Standard Time),981532.2000000002,B,enter,O,enter,1943,1,1947.800000000745,979584.3999999994,7029,WL,A,9.0
6,51.70099997520447,distr,8299.000024795532,Tue Nov 05 2024 17:13:11 GMT-0600 (Central Standard Time),982348.7000000002,B,enter,O,enter,801,1,816.2000000001863,981532.5,7029,WL,A,10.0
6,52.8510000705719,distr,7148.999929428101,Tue Nov 05 2024 17:13:11 GMT-0600 (Central Standard Time),983498.2999999998,B,enter,O,enter,1129,1,1149.2999999998137,982349.0,7029,WL,A,11.0
6,53.26699995994568,distr,6733.000040054321,Tue Nov 05 2024 17:13:11 GMT-0600 (Central Standard Time),983914.7000000002,B,enter,O,enter,411,1,416.0,983498.7000000002,7029,WL,A,12.0
6,53.59999990463257,distr,6400.000095367432,Tue Nov 05 2024 17:13:11 GMT-0600 (Central Standard Time),984247.8999999994,B,enter,O,enter,323,1,332.8999999994412,983915.0,7029,WL,A,13.0
6,53.950000047683716,distr,6049.999952316284,Tue Nov 05 2024 17:13:11 GMT-0600 (Central Standard Time),984598.0,B,enter,O,enter,342,1,349.79999999981374,984248.2000000002,7029,WL,A,14.0
6,54.26699995994568,distr,5733.000040054321,Tue Nov 05 2024 17:13:11 GMT-0600 (Central Standard Time),984914.5,B,enter,O,enter,312,1,316.20000000018626,984598.2999999998,7029,WL,A,15.0
7,2.5320000648498535,immed,57467.99993515015,Tue Nov 05 2024 17:13:11 GMT-0600 (Central Standard Time),1009740.2000000002,A,s,O,s,2519,1,2532.4000000003725,1007207.7999999998,7029,WL,A,1.0
7,2.699000120162964,immed,57300.999879837036,Tue Nov 05 2024 17:13:11 GMT-0600 (Central Standard Time),1009906.7000000002,A,sa,O,a,161,1,2698.9000000003725,1007207.7999999998,7029,WL,A,1.0
7,2.815999984741211,immed,57184.00001525879,Tue Nov 05 2024 17:13:11 GMT-0600 (Central Standard Time),1010023.2999999998,A,sal,O,l,99,1,2815.5,1007207.7999999998,7029,WL,A,1.0
7,3.115000009536743,immed,56884.99999046326,Tue Nov 05 2024 17:13:11 GMT-0600 (Central Standard Time),1010323.0999999996,A,salt,O,t,286,1,3115.2999999998137,1007207.7999999998,7029,WL,A,1.0
7,3.4820001125335693,immed,56517.99988746643,Tue Nov 05 2024 17:13:11 GMT-0600 (Central Standard Time),1010689.5,A,saltenter,O,enter,355,1,3481.7000000001863,1007207.7999999998,7029,WL,A,1.0
7,5.0320000648498535,immed,54967.99993515015,Tue Nov 05 2024 17:13:11 GMT-0600 (Central Standard Time),1012239.2999999998,A,t,O,t,1540,1,1549.4000000003725,1010689.8999999994,7029,WL,A,2.0
7,5.230999946594238,immed,54769.00005340576,Tue Nov 05 2024 17:13:11 GMT-0600 (Central Standard Time),1012439.0,A,tr,O,r,182,1,1749.1000000005588,1010689.8999999994,7029,WL,A,2.0
7,5.3480000495910645,immed,54651.999950408936,Tue Nov 05 2024 17:13:11 GMT-0600 (Central Standard Time),1012555.7000000002,A,tra,O,a,110,1,1865.800000000745,1010689.8999999994,7029,WL,A,2.0
7,5.4649999141693115,immed,54535.00008583069,Tue Nov 05 2024 17:13:11 GMT-0600 (Central Standard Time),1012672.3999999994,A,trai,O,i,106,1,1982.5,1010689.8999999994,7029,WL,A,2.0
7,5.5980000495910645,immed,54401.999950408936,Tue Nov 05 2024 17:13:11 GMT-0600 (Central Standard Time),1012805.5999999996,A,train,O,n,125,1,2115.7000000001863,1010689.8999999994,7029,WL,A,2.0
7,5.898000001907349,immed,54101.99999809265,Tue Nov 05 2024 17:13:11 GMT-0600 (Central Standard Time),1013105.5,A,trainenter,O,enter,289,1,2415.600000000559,1010689.8999999994,7029,WL,A,2.0
7,6.746999979019165,immed,53253.000020980835,Tue Nov 05 2024 17:13:11 GMT-0600 (Central Standard Time),1013954.8999999994,A,m,O,m,844,1,849.0,1013105.8999999994,7029,WL,A,3.0
7,6.79800009727478,immed,53201.99990272522,Tue Nov 05 2024 17:13:11 GMT-0600 (Central Standard Time),1014005.2999999998,A,me,O,e,43,1,899.4000000003725,1013105.8999999994,7029,WL,A,3.0
7,6.980999946594238,immed,53019.00005340576,Tue Nov 05 2024 17:13:11 GMT-0600 (Central Standard Time),1014188.3999999994,A,mea,O,a,169,1,1082.5,1013105.8999999994,7029,WL,A,3.0
7,7.148000001907349,immed,52851.99999809265,Tue Nov 05 2024 17:13:11 GMT-0600 (Central Standard Time),1014355.2999999998,A,mead,O,d,153,1,1249.4000000003725,1013105.8999999994,7029,WL,A,3.0
7,7.296999931335449,immed,52703.00006866455,Tue Nov 05 2024 17:13:11 GMT-0600 (Central Standard Time),1014505.0999999996,A,meado,O,o,140,1,1399.2000000001863,1013105.8999999994,7029,WL,A,3.0
7,7.46399998664856,immed,52536.00001335144,Tue Nov 05 2024 17:13:11 GMT-0600 (Central Standard Time),1014671.5999999996,A,meadow,O,w,157,1,1565.7000000001863,1013105.8999999994,7029,WL,A,3.0
7,7.546999931335449,immed,52453.00006866455,Tue Nov 05 2024 17:13:11 GMT-0600 (Central Standard Time),1014755.0,A,meadowenter,O,enter,70,1,1649.1000000005588,1013105.8999999994,7029,WL,A,3.0
7,9.347000122070312,immed,50652.99987792969,Tue Nov 05 2024 17:13:11 GMT-0600 (Central Standard Time),1016554.3999999994,A,l,O,l,1778,1,1799.199999999255,1014755.2000000002,7029,WL,A,4.0
7,9.513000011444092,immed,50486.99998855591,Tue Nov 05 2024 17:13:11 GMT-0600 (Central Standard Time),1016721.0999999996,A,lo,O,o,147,1,1965.8999999994412,1014755.2000000002,7029,WL,A,4.0
7,9.713000059127808,immed,50286.99994087219,Tue Nov 05 2024 17:13:11 GMT-0600 (Central Standard Time),1016921.0999999996,A,log,O,g,188,1,2165.899999999441,1014755.2000000002,7029,WL,A,4.0
7,9.913000106811523,immed,50086.99989318848,Tue Nov 05 2024 17:13:11 GMT-0600 (Central Standard Time),1017120.8999999994,A,logenter,O,enter,181,1,2365.699999999255,1014755.2000000002,7029,WL,A,4.0
7,10.180000066757202,immed,49819.9999332428,Tue Nov 05 2024 17:13:11 GMT-0600 (Central Standard Time),1017387.7000000002,A,r,O,r,254,1,266.40000000037253,1017121.2999999998,7029,WL,A,5.0
7,10.397000074386597,immed,49602.9999256134,Tue Nov 05 2024 17:13:11 GMT-0600 (Central Standard Time),1017604.2999999998,A,ru,O,u,210,1,483.0,1017121.2999999998,7029,WL,A,5.0
7,10.845999956130981,immed,49154.00004386902,Tue Nov 05 2024 17:13:11 GMT-0600 (Central Standard Time),1018054.0,A,rug,O,g,433,1,932.7000000001863,1017121.2999999998,7029,WL,A,5.0
7,11.079999923706055,immed,48920.000076293945,Tue Nov 05 2024 17:13:11 GMT-0600 (Central Standard Time),1018287.3999999994,A,rugenter,O,enter,224,1,1166.0999999996275,1017121.2999999998,7029,WL,A,5.0
7,11.345999956130981,immed,48654.00004386902,Tue Nov 05 2024 17:13:11 GMT-0600 (Central Standard Time),1018553.8999999994,A,k,O,k,256,1,266.19999999925494,1018287.7000000002,7029,WL,A,6.0
7,11.430000066757202,immed,48569.9999332428,Tue Nov 05 2024 17:13:11 GMT-0600 (Central Standard Time),1018637.2000000002,A,ke,O,e,76,1,349.5,1018287.7000000002,7029,WL,A,6.0
7,11.664000034332275,immed,48335.999965667725,Tue Nov 05 2024 17:13:11 GMT-0600 (Central Standard Time),1018871.2000000002,A,kep,O,p,216,1,583.5,1018287.7000000002,7029,WL,A,6.0
7,12.013000011444092,immed,47986.99998855591,Tue Nov 05 2024 17:13:11 GMT-0600 (Central Standard Time),1019220.2999999998,A,ke,O,backspace,344,1,932.5999999996275,1018287.7000000002,7029,WL,A,6.0
7,12.246000051498413,immed,47753.99994850159,Tue Nov 05 2024 17:13:11 GMT-0600 (Central Standard Time),1019453.5,A,key,O,y,217,1,1165.7999999998137,1018287.7000000002,7029,WL,A,6.0
7,13.212000131607056,immed,46787.999868392944,Tue Nov 05 2024 17:13:11 GMT-0600 (Central Standard Time),1020419.8999999994,A,keyenter,O,enter,960,1,2132.199999999255,1018287.7000000002,7029,WL,A,6.0
7,15.444999933242798,immed,44555.0000667572,Tue Nov 05 2024 17:13:11 GMT-0600 (Central Standard Time),1022652.5999999996,A,a,O,a,2226,1,2232.5,1020420.0999999996,7029,WL,A,7.0
7,15.611000061035156,immed,44388.999938964844,Tue Nov 05 2024 17:13:11 GMT-0600 (Central Standard Time),1022818.8999999994,A,ap,O,p,153,1,2398.7999999998137,1020420.0999999996,7029,WL,A,7.0
7,15.760999917984009,immed,44239.00008201599,Tue Nov 05 2024 17:13:11 GMT-0600 (Central Standard Time),1022969.2000000002,A,app,O,p,131,1,2549.100000000559,1020420.0999999996,7029,WL,A,7.0
7,15.92799997329712,immed,44072.00002670288,Tue Nov 05 2024 17:13:11 GMT-0600 (Central Standard Time),1023135.7000000002,A,appl,O,l,157,1,2715.600000000559,1020420.0999999996,7029,WL,A,7.0
7,16.09500002861023,immed,43904.99997138977,Tue Nov 05 2024 17:13:11 GMT-0600 (Central Standard Time),1023302.2000000002,A,apple,O,e,150,1,2882.100000000559,1020420.0999999996,7029,WL,A,7.0
7,16.24500012397766,immed,43754.99987602234,Tue Nov 05 2024 17:13:11 GMT-0600 (Central Standard Time),1023452.3999999994,A,appleenter,O,enter,135,1,3032.2999999998137,1020420.0999999996,7029,WL,A,7.0
7,16.960999965667725,immed,43039.000034332275,Tue Nov 05 2024 17:13:11 GMT-0600 (Central Standard Time),1024168.7000000002,A,h,O,h,697,1,716.1000000005588,1023452.5999999996,7029,WL,A,8.0
7,17.07800006866455,immed,42921.99993133545,Tue Nov 05 2024 17:13:11 GMT-0600 (Central Standard Time),1024285.3999999994,A,ha,O,a,109,1,832.7999999998137,1023452.5999999996,7029,WL,A,8.0
7,17.227999925613403,immed,42772.0000743866,Tue Nov 05 2024 17:13:11 GMT-0600 (Central Standard Time),1024435.2999999998,A,har,O,r,136,1,982.7000000001863,1023452.5999999996,7029,WL,A,8.0
7,17.49399995803833,immed,42506.00004196167,Tue Nov 05 2024 17:13:11 GMT-0600 (Central Standard Time),1024702.2000000002,A,harp,O,p,251,1,1249.6000000005588,1023452.5999999996,7029,WL,A,8.0
7,17.776999950408936,immed,42223.000049591064,Tue Nov 05 2024 17:13:11 GMT-0600 (Central Standard Time),1024985.0,A,harpenter,O,enter,264,1,1532.4000000003725,1023452.5999999996,7029,WL,A,8.0
7,18.094000101089478,immed,41905.99989891052,Tue Nov 05 2024 17:13:11 GMT-0600 (Central Standard Time),1025301.5999999996,A,g,O,g,300,1,316.20000000018626,1024985.3999999994,7029,WL,A,9.0
7,18.177000045776367,immed,41822.99995422363,Tue Nov 05 2024 17:13:11 GMT-0600 (Central Standard Time),1025385.0999999996,A,go,O,o,64,1,399.70000000018626,1024985.3999999994,7029,WL,A,9.0
7,18.377000093460083,immed,41622.99990653992,Tue Nov 05 2024 17:13:11 GMT-0600 (Central Standard Time),1025585.0,A,gol,O,l,189,1,599.6000000005588,1024985.3999999994,7029,WL,A,9.0
7,18.49399995803833,immed,41506.00004196167,Tue Nov 05 2024 17:13:11 GMT-0600 (Central Standard Time),1025701.5999999996,A,gold,O,d,101,1,716.2000000001863,1024985.3999999994,7029,WL,A,9.0
7,18.644999980926514,immed,41355.000019073486,Tue Nov 05 2024 17:13:11 GMT-0600 (Central Standard Time),1025852.5999999996,A,goldenter,O,enter,136,1,867.2000000001863,1024985.3999999994,7029,WL,A,9.0
7,24.509000062942505,immed,35490.999937057495,Tue Nov 05 2024 17:13:11 GMT-0600 (Central Standard Time),1031716.5,A,f,O,f,5850,1,5863.5,1025853.0,7029,WL,A,10.0
7,24.608999967575073,immed,35391.00003242493,Tue Nov 05 2024 17:13:11 GMT-0600 (Central Standard Time),1031816.3999999994,A,fi,O,i,90,1,5963.399999999441,1025853.0,7029,WL,A,10.0
7,24.725000143051147,immed,35274.99985694885,Tue Nov 05 2024 17:13:11 GMT-0600 (Central Standard Time),1031933.0,A,fin,O,n,109,1,6080.0,1025853.0,7029,WL,A,10.0
7,24.80900001525879,immed,35190.99998474121,Tue Nov 05 2024 17:13:11 GMT-0600 (Central Standard Time),1032016.2999999998,A,fing,O,g,73,1,6163.299999999814,1025853.0,7029,WL,A,10.0
7,24.975000143051147,immed,35024.99985694885,Tue Nov 05 2024 17:13:11 GMT-0600 (Central Standard Time),1032183.0999999996,A,finge,O,e,157,1,6330.0999999996275,1025853.0,7029,WL,A,10.0
7,25.04200005531311,immed,34957.99994468689,Tue Nov 05 2024 17:13:11 GMT-0600 (Central Standard Time),1032249.5999999996,A,finger,O,r,54,1,6396.5999999996275,1025853.0,7029,WL,A,10.0
7,25.14199995994568,immed,34858.00004005432,Tue Nov 05 2024 17:13:11 GMT-0600 (Central Standard Time),1032349.5,A,fingerenter,O,enter,92,1,6496.5,1025853.0,7029,WL,A,10.0
7,28.490999937057495,immed,31509.000062942505,Tue Nov 05 2024 17:13:11 GMT-0600 (Central Standard Time),1035698.7000000002,A,b,O,b,3328,1,3348.9000000003725,1032349.7999999998,7029,WL,A,11.0
7,28.60700011253357,immed,31392.99988746643,Tue Nov 05 2024 17:13:11 GMT-0600 (Central Standard Time),1035815.0999999996,A,bo,O,o,99,1,3465.2999999998137,1032349.7999999998,7029,WL,A,11.0
7,28.806999921798706,immed,31193.000078201294,Tue Nov 05 2024 17:13:11 GMT-0600 (Central Standard Time),1036015.0999999996,A,bok,O,k,183,1,3665.2999999998137,1032349.7999999998,7029,WL,A,11.0
7,29.506999969482422,immed,30493.000030517578,Tue Nov 05 2024 17:13:11 GMT-0600 (Central Standard Time),1036714.7000000002,A,bo,O,backspace,687,1,4364.9000000003725,1032349.7999999998,7029,WL,A,11.0
7,30.000999927520752,immed,29999.000072479248,Tue Nov 05 2024 17:13:11 GMT-0600 (Central Standard Time),1037208.5,A,boo,O,o,489,1,4858.700000000186,1032349.7999999998,7029,WL,A,11.0
7,30.822999954223633,immed,29177.000045776367,Tue Nov 05 2024 17:13:11 GMT-0600 (Central Standard Time),1038031.0999999996,A,book,O,k,814,1,5681.299999999814,1032349.7999999998,7029,WL,A,11.0
7,31.056999921798706,immed,28943.000078201294,Tue Nov 05 2024 17:13:11 GMT-0600 (Central Standard Time),1038264.2000000002,A,bookenter,O,enter,223,1,5914.4000000003725,1032349.7999999998,7029,WL,A,11.0
7,37.605000019073486,immed,22394.999980926514,Tue Nov 05 2024 17:13:11 GMT-0600 (Central Standard Time),1044812.2999999998,A,c,O,c,6534,1,6547.9000000003725,1038264.3999999994,7029,WL,A,12.0
7,37.72099995613098,immed,22279.00004386902,Tue Nov 05 2024 17:13:11 GMT-0600 (Central Standard Time),1044928.7000000002,A,ch,O,h,97,1,6664.300000000745,1038264.3999999994,7029,WL,A,12.0
7,37.88800001144409,immed,22111.99998855591,Tue Nov 05 2024 17:13:11 GMT-0600 (Central Standard Time),1045095.5,A,chi,O,i,149,1,6831.100000000559,1038264.3999999994,7029,WL,A,12.0
7,38.12100005149841,immed,21878.999948501587,Tue Nov 05 2024 17:13:11 GMT-0600 (Central Standard Time),1045328.7999999998,A,chim,O,m,214,1,7064.4000000003725,1038264.3999999994,7029,WL,A,12.0
7,38.38800001144409,immed,21611.99998855591,Tue Nov 05 2024 17:13:11 GMT-0600 (Central Standard Time),1045595.5,A,chimn,O,n,253,1,7331.100000000559,1038264.3999999994,7029,WL,A,12.0
7,38.521000146865845,immed,21478.999853134155,Tue Nov 05 2024 17:13:11 GMT-0600 (Central Standard Time),1045728.5999999996,A,chimne,O,e,114,1,7464.200000000186,1038264.3999999994,7029,WL,A,12.0
7,38.687999963760376,immed,21312.000036239624,Tue Nov 05 2024 17:13:11 GMT-0600 (Central Standard Time),1045895.3999999994,A,chimney,O,y,157,1,7631.0,1038264.3999999994,7029,WL,A,12.0
7,39.104000091552734,immed,20895.999908447266,Tue Nov 05 2024 17:13:11 GMT-0600 (Central Standard Time),1046312.0,A,chimneyenter,O,enter,406,1,8047.600000000559,1038264.3999999994,7029,WL,A,12.0
7,50.8510000705719,immed,9148.9999294281,Tue Nov 05 2024 17:13:11 GMT-0600 (Central Standard Time),1058058.3999999994,A,a,O,a,11726,1,11746.099999999627,1046312.2999999998,7029,WL,A,13.0
7,51.15000009536743,immed,8849.999904632568,Tue Nov 05 2024 17:13:11 GMT-0600 (Central Standard Time),1058357.8999999994,A,ap,O,p,283,1,12045.599999999627,1046312.2999999998,7029,WL,A,13.0
7,51.28399991989136,immed,8716.000080108643,Tue Nov 05 2024 17:13:11 GMT-0600 (Central Standard Time),1058492.2000000002,A,app,O,p,129,1,12179.900000000373,1046312.2999999998,7029,WL,A,13.0
7,51.76699995994568,immed,8233.000040054321,Tue Nov 05 2024 17:13:11 GMT-0600 (Central Standard Time),1058974.5999999996,A,appl,O,l,466,1,12662.299999999814,1046312.2999999998,7029,WL,A,13.0
7,52.13300013542175,immed,7866.999864578247,Tue Nov 05 2024 17:13:11 GMT-0600 (Central Standard Time),1059341.0,A,apple,O,e,360,1,13028.700000000186,1046312.2999999998,7029,WL,A,13.0
7,52.617000102996826,immed,7382.999897003174,Tue Nov 05 2024 17:13:11 GMT-0600 (Central Standard Time),1059824.2999999998,A,appleenter,O,enter,465,1,13512.0,1046312.2999999998,7029,WL,A,13.0
7,60.013999938964844,immed,-13.99993896484375,Tue Nov 05 2024 17:13:11 GMT-0600 (Central Standard Time),1067222.0999999996,A,None,O,None,7394,1,7397.5,1059824.5999999996,7029,WL,A,14.0
