acc_sum,block,block_c,condition,correct,correct_response,datetime,endtime,flanker,jitter,project,response,response_test_buffer_response,response_test_target_response,response_time,response_time_test_buffer_response,response_time_test_target_response,row_sel,session_number,start_end,starttime,subject_id,target,task,task_vers,time_test_buffer,time_test_buffer_response,time_test_constants,time_test_flanker,time_test_jitter,time_test_logger,time_test_target,time_test_target_response,time_test_variables,trial
0,prac,1,con,0,m,Tue Apr 08 2025 09:19:26 GMT-0500 (Central Daylight Time),146272.89999999106,jacket,800,I,None,,,1799,,,5,2,4861.399999991059,141411.5,8020,jacket,AF,A,,,,,,,,,,1
1,prac,1,con,1,m,Tue Apr 08 2025 09:19:26 GMT-0500 (Central Daylight Time),149355.0,bell,1000,I,m,,,779,,,3,2,3076.800000011921,146278.19999998808,8020,bell,AF,A,,,,,,,,,,2
2,prac,1,inc,1,z,Tue Apr 08 2025 09:19:26 GMT-0500 (Central Daylight Time),152420.59999999404,napkin,1100,I,z,,,662,,,12,2,3061.4000000059605,149359.19999998808,8020,friend,AF,A,,,,,,,,,,3
3,prac,1,inc,1,m,Tue Apr 08 2025 09:19:26 GMT-0500 (Central Daylight Time),155203.09999999404,elated,900,I,m,,,571,,,6,2,2778.5999999940395,152424.5,8020,napkin,AF,A,,,,,,,,,,4
4,prac,1,con,1,z,Tue Apr 08 2025 09:19:26 GMT-0500 (Central Daylight Time),158102.29999999702,brutal,800,I,z,,,793,,,13,2,2894.4000000059605,155207.89999999106,8020,brutal,AF,A,,,,,,,,,,5
5,prac,1,inc,1,m,Tue Apr 08 2025 09:19:26 GMT-0500 (Central Daylight Time),161134.69999998808,hate,1100,I,m,,,625,,,4,2,3027.5,158107.19999998808,8020,film,AF,A,,,,,,,,,,6
6,prac,1,con,1,m,Tue Apr 08 2025 09:19:26 GMT-0500 (Central Daylight Time),164100.5,remote,1000,I,m,,,661,,,7,2,2961.800000011921,161138.69999998808,8020,remote,AF,A,,,,,,,,,,7
7,prac,1,inc,1,z,Tue Apr 08 2025 09:19:26 GMT-0500 (Central Daylight Time),166866.19999998808,rock,900,I,z,,,563,,,10,2,2761.5999999940395,164104.59999999404,8020,kind,AF,A,,,,,,,,,,8
8,prac,1,inc,1,m,Tue Apr 08 2025 09:19:26 GMT-0500 (Central Daylight Time),169848.39999999106,brutal,1100,I,m,,,582,,,8,2,2978.0,166870.39999999106,8020,window,AF,A,,,,,,,,,,9
9,prac,1,inc,1,z,Tue Apr 08 2025 09:19:26 GMT-0500 (Central Daylight Time),172648.0,film,900,I,z,,,592,,,14,2,2795.4000000059605,169852.59999999404,8020,hate,AF,A,,,,,,,,,,10
10,prac,1,con,1,z,Tue Apr 08 2025 09:19:26 GMT-0500 (Central Daylight Time),175573.5,love,1000,I,z,,,612,,,11,2,2921.7000000029802,172651.79999999702,8020,love,AF,A,,,,,,,,,,11
11,prac,1,inc,1,z,Tue Apr 08 2025 09:19:26 GMT-0500 (Central Daylight Time),178612.59999999404,window,1100,I,z,,,646,,,16,2,3034.4000000059605,175578.19999998808,8020,temper,AF,A,,,,,,,,,,12
12,prac,1,con,1,z,Tue Apr 08 2025 09:19:26 GMT-0500 (Central Daylight Time),181478.29999999702,elated,800,I,z,,,759,,,9,2,2861.2000000029802,178617.09999999404,8020,elated,AF,A,,,,,,,,,,13
13,prac,1,inc,1,m,Tue Apr 08 2025 09:19:26 GMT-0500 (Central Daylight Time),184344.0,kind,900,I,m,,,658,,,2,2,2861.5,181482.5,8020,rock,AF,A,,,,,,,,,,14
14,prac,1,con,1,z,Tue Apr 08 2025 09:19:26 GMT-0500 (Central Daylight Time),187359.89999999106,rage,1000,I,z,,,701,,,15,2,3011.7000000029802,184348.19999998808,8020,rage,AF,A,,,,,,,,,,15
15,prac,1,con,1,m,Tue Apr 08 2025 09:19:26 GMT-0500 (Central Daylight Time),190225.5,step,800,I,m,,,765,,,1,2,2861.5,187364.0,8020,step,AF,A,,,,,,,,,,16
1,test,1,con,1,m,Tue Apr 08 2025 09:19:26 GMT-0500 (Central Daylight Time),201622.0,jacket,800,I,m,m,None,771,571.0,200.0,97,2,2112.4000000059605,199509.59999999404,8020,jacket,AF,A,198540,198540,197011,197824,197011,199123,198340,198340,199123,1
1,test,1,con,0,z,Tue Apr 08 2025 09:19:26 GMT-0500 (Central Daylight Time),205254.09999999404,friend,1100,I,None,None,None,1799,1799.0,200.0,28,2,3627.7000000029802,201626.39999999106,8020,friend,AF,A,200956,200956,199127,200240,199128,202755,200756,200756,202755,2
2,test,1,inc,1,m,Tue Apr 08 2025 09:19:26 GMT-0500 (Central Daylight Time),207236.59999999404,kind,900,I,m,m,None,546,347.0,199.0,78,2,1978.5999999940395,205258.0,8020,rock,AF,A,204388,204388,202759,203672,202759,204738,204188,204189,204738,3
3,test,1,con,1,z,Tue Apr 08 2025 09:19:26 GMT-0500 (Central Daylight Time),209202.79999999702,elated,800,I,z,z,None,624,424.0,200.0,1,2,1962.2000000029802,207240.59999999404,8020,elated,AF,A,206271,206271,204742,205555,204742,206704,206071,206071,206704,4
4,test,1,con,1,z,Tue Apr 08 2025 09:19:26 GMT-0500 (Central Daylight Time),211552.29999999702,temper,1100,I,z,z,None,710,510.0,200.0,60,2,2345.2000000029802,209207.09999999404,8020,temper,AF,A,208537,208537,206708,207821,206709,209053,208337,208337,209053,5
5,test,1,inc,1,m,Tue Apr 08 2025 09:19:26 GMT-0500 (Central Daylight Time),213901.39999999106,love,1000,I,m,m,None,804,605.0,199.0,79,2,2345.0,211556.39999999106,8020,rock,AF,A,210786,210786,209057,210070,209058,211402,210586,210587,211402,6
6,test,1,inc,1,z,Tue Apr 08 2025 09:19:26 GMT-0500 (Central Daylight Time),216084.0,remote,1000,I,z,z,None,646,447.0,199.0,63,2,2178.5,213905.5,8020,temper,AF,A,213135,213136,211407,212419,211407,213585,212936,212936,213585,7
7,test,1,inc,1,z,Tue Apr 08 2025 09:19:26 GMT-0500 (Central Daylight Time),218166.5,rock,900,I,z,z,None,644,444.0,200.0,14,2,2078.4000000059605,216088.09999999404,8020,kind,AF,A,215219,215219,213589,214502,213590,215668,215019,215019,215668,8
8,test,1,con,1,m,Tue Apr 08 2025 09:19:26 GMT-0500 (Central Daylight Time),220582.79999999702,bell,800,I,m,m,None,1078,878.0,200.0,81,2,2412.4000000059605,218170.39999999106,8020,bell,AF,A,217201,217201,215671,216484,215672,218084,217001,217001,218084,9
9,test,1,inc,1,z,Tue Apr 08 2025 09:19:26 GMT-0500 (Central Daylight Time),222698.39999999106,jacket,800,I,z,z,None,777,577.0,200.0,5,2,2111.8999999910593,220586.5,8020,elated,AF,A,219617,219617,218088,218900,218088,220200,219417,219417,220199,10
10,test,1,con,1,m,Tue Apr 08 2025 09:19:26 GMT-0500 (Central Daylight Time),224932.39999999106,remote,1000,I,m,m,None,697,498.0,199.0,115,2,2227.7999999970198,222704.59999999404,8020,remote,AF,A,221933,221933,220206,221216,220206,222433,221733,221733,222433,11
11,test,1,inc,1,z,Tue Apr 08 2025 09:19:26 GMT-0500 (Central Daylight Time),227080.59999999404,bell,1000,I,z,z,None,609,410.0,199.0,15,2,2143.7999999970198,224936.79999999702,8020,kind,AF,A,224165,224165,222438,223449,222438,224582,223966,223966,224582,12
12,test,1,con,1,z,Tue Apr 08 2025 09:19:26 GMT-0500 (Central Daylight Time),228963.39999999106,friend,800,I,z,z,None,548,348.0,200.0,25,2,1878.7000000029802,227084.69999998808,8020,friend,AF,A,226115,226115,224586,225399,224586,226464,225915,225915,226464,13
13,test,1,inc,1,z,Tue Apr 08 2025 09:19:26 GMT-0500 (Central Daylight Time),231112.79999999702,remote,1000,I,z,z,None,601,401.0,200.0,39,2,2145.5,228967.29999999702,8020,brutal,AF,A,228197,228198,226468,227481,226469,228614,227997,227997,228614,14
14,test,1,inc,1,z,Tue Apr 08 2025 09:19:26 GMT-0500 (Central Daylight Time),233345.19999998808,window,1100,I,z,z,None,584,384.0,200.0,40,2,2228.5999999940395,231116.59999999404,8020,brutal,AF,A,230447,230447,228618,229730,228618,230846,230247,230247,230846,15
15,test,1,inc,1,m,Tue Apr 08 2025 09:19:26 GMT-0500 (Central Daylight Time),235844.59999999404,hate,1100,I,m,m,None,863,664.0,199.0,88,2,2494.2999999970198,233350.29999999702,8020,bell,AF,A,232679,232679,230851,231963,230852,233346,232479,232480,233346,16
16,test,1,con,1,m,Tue Apr 08 2025 09:19:26 GMT-0500 (Central Daylight Time),238160.39999999106,remote,1100,I,m,m,None,667,468.0,199.0,116,2,2310.5,235849.89999999106,8020,remote,AF,A,235179,235179,233351,234462,233351,235662,234979,234979,235661,17
17,test,1,con,1,m,Tue Apr 08 2025 09:19:26 GMT-0500 (Central Daylight Time),240309.59999999404,film,900,I,m,m,None,703,504.0,199.0,90,2,2145.2000000029802,238164.39999999106,8020,film,AF,A,237295,237295,235665,236578,235666,237811,237095,237095,237811,18
18,test,1,con,1,m,Tue Apr 08 2025 09:19:26 GMT-0500 (Central Daylight Time),242492.39999999106,rock,900,I,m,m,None,739,539.0,200.0,74,2,2178.7999999970198,240313.59999999404,8020,rock,AF,A,239444,239444,237815,238728,237815,239993,239244,239244,239993,19
19,test,1,inc,1,m,Tue Apr 08 2025 09:19:26 GMT-0500 (Central Daylight Time),244708.59999999404,temper,1000,I,m,m,None,679,480.0,199.0,119,2,2212.4000000059605,242496.19999998808,8020,remote,AF,A,241727,241727,239997,241010,239998,242210,241527,241527,242210,20
20,test,1,inc,1,m,Tue Apr 08 2025 09:19:26 GMT-0500 (Central Daylight Time),247207.69999998808,friend,1100,I,m,m,None,851,636.0,215.0,128,2,2495.2999999970198,244712.39999999106,8020,window,AF,A,244059,244059,242213,243326,242214,244709,243844,243844,244709,21
21,test,1,con,1,m,Tue Apr 08 2025 09:19:26 GMT-0500 (Central Daylight Time),249190.29999999702,bell,900,I,m,m,None,544,345.0,199.0,82,2,1978.2000000029802,247212.09999999404,8020,bell,AF,A,246342,246342,244713,245625,244713,246691,246142,246142,246691,22
22,test,1,inc,1,m,Tue Apr 08 2025 09:19:26 GMT-0500 (Central Daylight Time),251073.29999999702,rage,800,I,m,m,None,533,334.0,199.0,85,2,1879.0,249194.29999999702,8020,bell,AF,A,248225,248225,246695,247508,246696,248574,248025,248025,248574,23
23,test,1,inc,1,z,Tue Apr 08 2025 09:19:26 GMT-0500 (Central Daylight Time),253305.69999998808,rock,900,I,z,z,None,792,592.0,200.0,22,2,2228.7999999970198,251076.89999999106,8020,love,AF,A,250207,250207,248578,249491,248578,250807,250007,250007,250807,24
24,test,1,inc,1,m,Tue Apr 08 2025 09:19:26 GMT-0500 (Central Daylight Time),255388.29999999702,brutal,900,I,m,m,None,647,447.0,200.0,102,2,2078.6000000089407,253309.69999998808,8020,jacket,AF,A,252440,252440,250811,251724,250811,252889,252240,252240,252889,25
25,test,1,inc,1,m,Tue Apr 08 2025 09:19:26 GMT-0500 (Central Daylight Time),257287.89999999106,rage,800,I,m,m,None,559,360.0,199.0,77,2,1895.7999999970198,255392.09999999404,8020,rock,AF,A,254423,254423,252893,253706,252893,254789,254223,254223,254789,26
26,test,1,con,1,m,Tue Apr 08 2025 09:19:26 GMT-0500 (Central Daylight Time),259403.79999999702,remote,800,I,m,m,None,772,573.0,199.0,113,2,2112.1000000089407,257291.69999998808,8020,remote,AF,A,256322,256322,254793,255605,254793,256905,256122,256122,256905,27
27,test,1,con,1,z,Tue Apr 08 2025 09:19:26 GMT-0500 (Central Daylight Time),261469.89999999106,love,900,I,z,z,None,629,429.0,200.0,18,2,2062.2999999970198,259407.59999999404,8020,love,AF,A,258538,258538,256909,257821,256909,258971,258338,258338,258971,28
28,test,1,inc,1,m,Tue Apr 08 2025 09:19:26 GMT-0500 (Central Daylight Time),263469.09999999404,kind,900,I,m,m,None,555,355.0,200.0,86,2,1995.4000000059605,261473.69999998808,8020,bell,AF,A,260604,260604,258975,259888,258975,260970,260404,260404,260970,29
29,test,1,con,1,z,Tue Apr 08 2025 09:19:26 GMT-0500 (Central Daylight Time),265701.59999999404,elated,900,I,z,z,None,787,587.0,200.0,2,2,2228.5999999940395,263473.0,8020,elated,AF,A,262603,262604,260974,261887,260974,263203,262403,262403,263203,30
30,test,1,con,1,z,Tue Apr 08 2025 09:19:26 GMT-0500 (Central Daylight Time),267684.6999999881,rage,800,I,z,z,None,639,439.0,200.0,49,2,1979.2999999970198,265705.39999999106,8020,rage,AF,A,264736,264736,263206,264020,263207,265186,264536,264536,265186,31
31,test,1,con,1,m,Tue Apr 08 2025 09:19:26 GMT-0500 (Central Daylight Time),270033.89999999106,rock,1100,I,m,m,None,716,386.0,330.0,76,2,2345.3999999910593,267688.5,8020,rock,AF,A,267149,267149,265190,266302,265190,267535,266819,266819,267535,32
32,test,1,con,1,z,Tue Apr 08 2025 09:19:26 GMT-0500 (Central Daylight Time),272283.09999999404,temper,1000,I,z,z,None,706,507.0,199.0,59,2,2245.5,270037.59999999404,8020,temper,AF,A,269268,269268,267539,268552,267539,269784,269068,269068,269784,33
33,test,1,inc,1,z,Tue Apr 08 2025 09:19:26 GMT-0500 (Central Daylight Time),274399.09999999404,rock,900,I,z,z,None,678,478.0,200.0,54,2,2111.7999999970198,272287.299999997,8020,rage,AF,A,271417,271417,269788,270701,269789,271900,271217,271217,271900,34
34,test,1,inc,1,z,Tue Apr 08 2025 09:19:26 GMT-0500 (Central Daylight Time),276681.59999999404,window,1100,I,z,z,None,634,434.0,200.0,8,2,2278.7999999970198,274402.799999997,8020,elated,AF,A,273733,273733,271904,273017,271904,274183,273533,273533,274183,35
35,test,1,inc,1,z,Tue Apr 08 2025 09:19:26 GMT-0500 (Central Daylight Time),279197.59999999404,film,1100,I,z,z,None,879,679.0,200.0,56,2,2512.0999999940395,276685.5,8020,rage,AF,A,276016,276016,274187,275300,274187,276699,275816,275816,276699,36
36,test,1,con,1,z,Tue Apr 08 2025 09:19:26 GMT-0500 (Central Daylight Time),281348.09999999404,temper,900,I,z,z,None,706,507.0,199.0,58,2,2146.2999999970198,279201.799999997,8020,temper,AF,A,278332,278332,276703,277615,276703,278849,278132,278132,278849,37
37,test,1,con,1,z,Tue Apr 08 2025 09:19:26 GMT-0500 (Central Daylight Time),283563.0,love,1100,I,z,z,None,574,374.0,200.0,20,2,2211.0,281352.0,8020,love,AF,A,280681,280681,278853,279965,278853,281064,280481,280481,281064,38
38,test,1,inc,1,m,Tue Apr 08 2025 09:19:26 GMT-0500 (Central Daylight Time),285545.799999997,elated,800,I,m,m,None,634,434.0,200.0,125,2,1979.1000000089407,283566.6999999881,8020,window,AF,A,282597,282597,281068,281881,281068,283047,282397,282397,283047,39
38,test,1,con,0,m,Tue Apr 08 2025 09:19:26 GMT-0500 (Central Daylight Time),288878.0,rock,800,I,None,None,None,1799,1799.0,199.0,73,2,3328.2000000029802,285549.799999997,8020,rock,AF,A,284580,284580,283051,283863,283051,286379,284380,284380,286379,40
39,test,1,con,1,m,Tue Apr 08 2025 09:19:26 GMT-0500 (Central Daylight Time),291028.39999999106,napkin,1000,I,m,m,None,615,415.0,200.0,107,2,2146.7000000029802,288881.6999999881,8020,napkin,AF,A,288112,288112,286383,287396,286383,288529,287912,287912,288529,41
40,test,1,con,1,m,Tue Apr 08 2025 09:19:26 GMT-0500 (Central Daylight Time),293223.799999997,rock,1000,I,m,m,None,664,464.0,200.0,75,2,2191.9000000059605,291031.89999999106,8020,rock,AF,A,290261,290261,288533,289545,288533,290725,290061,290061,290725,42
41,test,1,con,1,m,Tue Apr 08 2025 09:19:26 GMT-0500 (Central Daylight Time),295325.799999997,window,900,I,m,m,None,661,462.0,199.0,122,2,2097.6000000089407,293228.1999999881,8020,window,AF,A,292361,292361,290729,291644,290730,292827,292161,292161,292827,43
42,test,1,inc,1,z,Tue Apr 08 2025 09:19:26 GMT-0500 (Central Daylight Time),297408.39999999106,napkin,900,I,z,z,None,635,435.0,200.0,30,2,2078.5,295329.89999999106,8020,friend,AF,A,294460,294460,292831,293744,292831,294909,294260,294260,294909,44
43,test,1,inc,1,z,Tue Apr 08 2025 09:19:26 GMT-0500 (Central Daylight Time),299457.799999997,remote,1000,I,z,z,None,507,308.0,199.0,31,2,2045.6000000089407,297412.1999999881,8020,friend,AF,A,296643,296643,294913,295927,294914,296959,296443,296443,296959,45
44,test,1,con,1,m,Tue Apr 08 2025 09:19:26 GMT-0500 (Central Daylight Time),301723.799999997,step,1100,I,m,m,None,622,423.0,199.0,68,2,2262.5,299461.299999997,8020,step,AF,A,298792,298792,296962,298076,296963,299225,298592,298592,299225,46
44,test,1,inc,0,z,Tue Apr 08 2025 09:19:26 GMT-0500 (Central Daylight Time),303623.1999999881,napkin,900,I,m,m,None,461,261.0,200.0,62,2,1895.3999999910593,301727.799999997,8020,temper,AF,A,300858,300858,299229,300142,299229,301124,300658,300658,301124,47
45,test,1,inc,1,m,Tue Apr 08 2025 09:19:26 GMT-0500 (Central Daylight Time),305872.6999999881,hate,1100,I,m,m,None,609,410.0,199.0,96,2,2245.699999988079,303627.0,8020,film,AF,A,302957,302957,301128,302241,301128,303374,302758,302758,303374,48
46,test,1,con,1,z,Tue Apr 08 2025 09:19:26 GMT-0500 (Central Daylight Time),307821.89999999106,kind,800,I,z,z,None,603,404.0,199.0,9,2,1945.5999999940395,305876.299999997,8020,kind,AF,A,304907,304907,303377,304190,303378,305323,304707,304707,305323,49
47,test,1,inc,1,m,Tue Apr 08 2025 09:19:26 GMT-0500 (Central Daylight Time),309971.09999999404,rage,800,I,m,m,None,815,615.0,200.0,69,2,2145.7999999970198,307825.299999997,8020,step,AF,A,306856,306856,305326,306140,305327,307472,306656,306656,307472,50
48,test,1,con,1,z,Tue Apr 08 2025 09:19:26 GMT-0500 (Central Daylight Time),312170.39999999106,hate,1100,I,z,z,None,549,350.0,199.0,44,2,2195.5999999940395,309974.799999997,8020,hate,AF,A,309305,309305,307476,308589,307476,309671,309106,309106,309671,51
49,test,1,inc,1,m,Tue Apr 08 2025 09:19:26 GMT-0500 (Central Daylight Time),314519.59999999404,love,1000,I,m,m,None,802,602.0,200.0,71,2,2344.7000000029802,312174.89999999106,8020,step,AF,A,311405,311405,309676,310688,309676,312021,311205,311205,312021,52
50,test,1,inc,1,z,Tue Apr 08 2025 09:19:26 GMT-0500 (Central Daylight Time),316585.89999999106,napkin,900,I,z,z,None,625,425.0,200.0,6,2,2062.7000000029802,314523.1999999881,8020,elated,AF,A,313654,313654,312024,312938,312025,314087,313454,313454,314087,53
51,test,1,con,1,m,Tue Apr 08 2025 09:19:26 GMT-0500 (Central Daylight Time),318551.89999999106,step,800,I,m,m,None,619,419.0,200.0,65,2,1962.2999999970198,316589.59999999404,8020,step,AF,A,315620,315620,314091,314904,314091,316053,315420,315420,316053,54
52,test,1,con,1,m,Tue Apr 08 2025 09:19:26 GMT-0500 (Central Daylight Time),320634.39999999106,step,900,I,m,m,None,649,449.0,200.0,66,2,2078.5,318555.89999999106,8020,step,AF,A,317686,317686,316057,316970,316057,318136,317486,317486,318135,55
53,test,1,con,1,z,Tue Apr 08 2025 09:19:26 GMT-0500 (Central Daylight Time),323133.89999999106,rage,1000,I,z,z,None,954,754.0,200.0,51,2,2495.7000000029802,320638.1999999881,8020,rage,AF,A,319869,319869,318139,319152,318140,320635,319669,319669,320635,56
54,test,1,inc,1,m,Tue Apr 08 2025 09:19:26 GMT-0500 (Central Daylight Time),325250.09999999404,kind,900,I,m,m,None,683,483.0,200.0,70,2,2112.2000000029802,323137.89999999106,8020,step,AF,A,322268,322268,320639,321552,320639,322751,322068,322068,322751,57
55,test,1,inc,1,m,Tue Apr 08 2025 09:19:26 GMT-0500 (Central Daylight Time),327432.59999999404,temper,1000,I,m,m,None,635,435.0,200.0,103,2,2178.7000000029802,325253.89999999106,8020,jacket,AF,A,324484,324484,322755,323768,322755,324934,324284,324284,324934,58
56,test,1,inc,1,m,Tue Apr 08 2025 09:19:26 GMT-0500 (Central Daylight Time),329348.59999999404,elated,800,I,m,m,None,580,381.0,199.0,109,2,1912.2999999970198,327436.299999997,8020,napkin,AF,A,326466,326466,324937,325750,324938,326850,326267,326267,326850,59
57,test,1,con,1,z,Tue Apr 08 2025 09:19:26 GMT-0500 (Central Daylight Time),331464.6999999881,friend,1000,I,z,z,None,567,368.0,199.0,27,2,2112.3999999910593,329352.299999997,8020,friend,AF,A,328583,328583,326853,327866,326854,328966,328383,328383,328966,60
58,test,1,con,1,m,Tue Apr 08 2025 09:19:26 GMT-0500 (Central Daylight Time),333630.5,jacket,1100,I,m,m,None,527,327.0,200.0,100,2,2162.2000000029802,331468.299999997,8020,jacket,AF,A,330800,330800,328969,330082,328970,331132,330599,330599,331132,61
58,test,1,inc,0,m,Tue Apr 08 2025 09:19:26 GMT-0500 (Central Daylight Time),337262.89999999106,friend,1100,I,None,None,None,1799,1799.0,199.0,104,2,3627.8999999910593,333635.0,8020,jacket,AF,A,332965,332965,331136,332248,331136,334764,332765,332765,334764,62
59,test,1,con,1,m,Tue Apr 08 2025 09:19:26 GMT-0500 (Central Daylight Time),339145.59999999404,napkin,800,I,m,m,None,542,342.0,200.0,105,2,1878.7999999970198,337266.799999997,8020,napkin,AF,A,336297,336297,334768,335581,334768,336647,336097,336097,336647,63
60,test,1,inc,1,z,Tue Apr 08 2025 09:19:26 GMT-0500 (Central Daylight Time),341544.799999997,window,1100,I,z,z,None,700,501.0,199.0,32,2,2395.7999999970198,339149.0,8020,friend,AF,A,338529,338530,336650,337828,336650,339046,338330,338330,339046,64
60,test,1,con,0,z,Tue Apr 08 2025 09:19:26 GMT-0500 (Central Daylight Time),343627.39999999106,brutal,900,I,m,m,None,648,448.0,200.0,34,2,2079.0,341548.39999999106,8020,brutal,AF,A,340679,340679,339049,339962,339050,341128,340479,340479,341128,65
61,test,1,inc,1,z,Tue Apr 08 2025 09:19:26 GMT-0500 (Central Daylight Time),345743.5,jacket,800,I,z,z,None,768,569.0,199.0,37,2,2112.300000011921,343631.1999999881,8020,brutal,AF,A,342662,342662,341132,341945,341132,343245,342462,342462,343245,66
62,test,1,con,1,m,Tue Apr 08 2025 09:19:26 GMT-0500 (Central Daylight Time),347909.5,jacket,1000,I,m,m,None,629,430.0,199.0,99,2,2162.1000000089407,345747.39999999106,8020,jacket,AF,A,344977,344977,343248,344261,343249,345411,344778,344778,345411,67
63,test,1,con,1,z,Tue Apr 08 2025 09:19:26 GMT-0500 (Central Daylight Time),350275.5,elated,1100,I,z,z,None,730,531.0,199.0,4,2,2362.5,347913.0,8020,elated,AF,A,347244,347244,345414,346528,345414,347777,347044,347044,347776,68
64,test,1,con,1,z,Tue Apr 08 2025 09:19:26 GMT-0500 (Central Daylight Time),352408.0,brutal,1000,I,z,z,None,586,386.0,200.0,35,2,2128.9000000059605,350279.09999999404,8020,brutal,AF,A,349509,349509,347780,348793,347780,349909,349309,349309,349909,69
65,test,1,inc,1,m,Tue Apr 08 2025 09:19:26 GMT-0500 (Central Daylight Time),354674.09999999404,love,1000,I,m,m,None,717,517.0,200.0,95,2,2262.5999999940395,352411.5,8020,film,AF,A,351642,351642,349913,350926,349913,352175,351442,351442,352175,70
66,test,1,inc,1,z,Tue Apr 08 2025 09:19:26 GMT-0500 (Central Daylight Time),356806.59999999404,bell,1000,I,z,z,None,595,395.0,200.0,55,2,2128.7999999970198,354677.799999997,8020,rage,AF,A,353908,353908,352179,353192,352179,354308,353708,353708,354308,71
67,test,1,con,1,m,Tue Apr 08 2025 09:19:26 GMT-0500 (Central Daylight Time),358939.1999999881,window,800,I,m,m,None,789,590.0,199.0,121,2,2128.8999999910593,356810.299999997,8020,window,AF,A,355841,355841,354311,355124,354312,356440,355641,355641,356440,72
68,test,1,con,1,z,Tue Apr 08 2025 09:19:26 GMT-0500 (Central Daylight Time),360905.09999999404,rage,900,I,z,z,None,516,317.0,199.0,50,2,1962.2999999970198,358942.799999997,8020,rage,AF,A,358074,358074,356444,357357,356444,358406,357874,357874,358406,73
69,test,1,con,1,z,Tue Apr 08 2025 09:19:26 GMT-0500 (Central Daylight Time),363054.6999999881,kind,1000,I,z,z,None,604,404.0,200.0,11,2,2145.5999999940395,360909.09999999404,8020,kind,AF,A,360139,360139,358410,359423,358411,360556,359939,359939,360556,74
70,test,1,inc,1,m,Tue Apr 08 2025 09:19:26 GMT-0500 (Central Daylight Time),365387.1999999881,temper,1000,I,m,m,None,790,590.0,200.0,127,2,2328.8999999910593,363058.299999997,8020,window,AF,A,362289,362289,360559,361572,360560,362888,362089,362089,362888,75
71,test,1,con,1,z,Tue Apr 08 2025 09:19:26 GMT-0500 (Central Daylight Time),367436.6999999881,love,800,I,z,z,None,704,505.0,199.0,17,2,2045.8999999910593,365390.799999997,8020,love,AF,A,364422,364422,362892,363705,362892,364938,364222,364222,364938,76
72,test,1,con,1,z,Tue Apr 08 2025 09:19:26 GMT-0500 (Central Daylight Time),369635.89999999106,brutal,1100,I,z,z,None,563,364.0,199.0,36,2,2195.2000000029802,367440.6999999881,8020,brutal,AF,A,366771,366771,364942,366055,364942,367137,366571,366571,367137,77
73,test,1,inc,1,m,Tue Apr 08 2025 09:19:26 GMT-0500 (Central Daylight Time),371868.5,friend,1100,I,m,m,None,589,389.0,200.0,112,2,2229.0,369639.5,8020,napkin,AF,A,368970,368970,367141,368254,367141,369370,368770,368770,369370,78
74,test,1,inc,1,m,Tue Apr 08 2025 09:19:26 GMT-0500 (Central Daylight Time),374084.6999999881,hate,1100,I,m,m,None,571,372.0,199.0,72,2,2212.5,371872.1999999881,8020,step,AF,A,371203,371203,369373,370486,369374,371586,371003,371003,371586,79
75,test,1,con,1,z,Tue Apr 08 2025 09:19:26 GMT-0500 (Central Daylight Time),376250.39999999106,love,1000,I,z,z,None,632,433.0,199.0,19,2,2162.0,374088.39999999106,8020,love,AF,A,373318,373318,371589,372602,371590,373751,373119,373119,373751,80
76,test,1,con,1,m,Tue Apr 08 2025 09:19:26 GMT-0500 (Central Daylight Time),378266.39999999106,film,800,I,m,m,None,673,474.0,199.0,89,2,2012.3999999910593,376254.0,8020,film,AF,A,375285,375285,373755,374568,373755,375767,375085,375085,375767,81
77,test,1,inc,1,z,Tue Apr 08 2025 09:19:26 GMT-0500 (Central Daylight Time),380382.59999999404,bell,1000,I,z,z,None,577,378.0,199.0,23,2,2112.2999999970198,378270.299999997,8020,love,AF,A,377501,377501,375771,376784,375772,377884,377301,377301,377884,82
78,test,1,inc,1,m,Tue Apr 08 2025 09:19:26 GMT-0500 (Central Daylight Time),382498.5,kind,900,I,m,m,None,681,482.0,199.0,94,2,2112.1000000089407,380386.39999999106,8020,film,AF,A,379517,379517,377887,378800,377888,380000,379317,379317,380000,83
79,test,1,inc,1,m,Tue Apr 08 2025 09:19:26 GMT-0500 (Central Daylight Time),384481.299999997,elated,800,I,m,m,None,641,442.0,199.0,101,2,1979.0,382502.299999997,8020,jacket,AF,A,381533,381533,380003,380816,380004,381982,381333,381333,381982,84
80,test,1,inc,1,m,Tue Apr 08 2025 09:19:26 GMT-0500 (Central Daylight Time),386647.09999999404,brutal,900,I,m,m,None,719,520.0,199.0,110,2,2162.2000000029802,384484.89999999106,8020,napkin,AF,A,383615,383615,381986,382899,381986,384148,383416,383416,384148,85
81,test,1,con,1,z,Tue Apr 08 2025 09:19:26 GMT-0500 (Central Daylight Time),388930.0,hate,1000,I,z,z,None,733,534.0,199.0,43,2,2278.9000000059605,386651.09999999404,8020,hate,AF,A,385881,385881,384152,385165,384152,386431,385682,385682,386431,86
82,test,1,con,1,z,Tue Apr 08 2025 09:19:26 GMT-0500 (Central Daylight Time),391245.799999997,rage,1100,I,z,z,None,671,471.0,200.0,52,2,2312.0,388933.799999997,8020,rage,AF,A,388264,388264,386435,387548,386435,388747,388064,388064,388747,87
83,test,1,inc,1,m,Tue Apr 08 2025 09:19:26 GMT-0500 (Central Daylight Time),393528.5,hate,1100,I,m,m,None,635,435.0,200.0,80,2,2278.9000000059605,391249.59999999404,8020,rock,AF,A,390580,390580,388751,389864,388751,391030,390380,390380,391030,88
84,test,1,inc,1,z,Tue Apr 08 2025 09:19:26 GMT-0500 (Central Daylight Time),395661.1999999881,window,1100,I,z,z,None,488,289.0,199.0,64,2,2129.0999999940395,393532.09999999404,8020,temper,AF,A,392862,392862,391033,392146,391033,393162,392663,392663,393162,89
85,test,1,inc,1,z,Tue Apr 08 2025 09:19:26 GMT-0500 (Central Daylight Time),397794.0,step,800,I,z,z,None,782,583.0,199.0,13,2,2129.1000000089407,395664.89999999106,8020,kind,AF,A,394696,394696,393166,393979,393166,395295,394496,394496,395295,90
86,test,1,inc,1,z,Tue Apr 08 2025 09:19:26 GMT-0500 (Central Daylight Time),400092.799999997,film,1100,I,z,z,None,655,455.0,200.0,24,2,2295.2000000029802,397797.59999999404,8020,love,AF,A,397128,397128,395299,396411,395299,397594,396928,396928,397594,91
87,test,1,con,1,z,Tue Apr 08 2025 09:19:26 GMT-0500 (Central Daylight Time),402025.89999999106,hate,800,I,z,z,None,600,400.0,200.0,41,2,1929.3999999910593,400096.5,8020,hate,AF,A,399127,399127,397598,398411,397598,399527,398927,398927,399527,92
88,test,1,con,1,m,Tue Apr 08 2025 09:19:26 GMT-0500 (Central Daylight Time),404541.6999999881,napkin,1100,I,m,m,None,879,679.0,200.0,108,2,2512.2999999970198,402029.39999999106,8020,napkin,AF,A,401360,401360,399530,400643,399531,402043,401160,401160,402043,93
89,test,1,inc,1,z,Tue Apr 08 2025 09:19:26 GMT-0500 (Central Daylight Time),406474.6999999881,step,800,I,z,z,None,582,383.0,199.0,45,2,1929.2999999970198,404545.39999999106,8020,hate,AF,A,403576,403576,402046,402859,402047,403976,403376,403376,403976,94
90,test,1,con,1,z,Tue Apr 08 2025 09:19:26 GMT-0500 (Central Daylight Time),408573.799999997,elated,1000,I,z,z,None,562,363.0,199.0,3,2,2095.4000000059605,406478.39999999106,8020,elated,AF,A,405708,405708,403979,404992,403980,406075,405509,405509,406075,95
91,test,1,inc,1,z,Tue Apr 08 2025 09:19:26 GMT-0500 (Central Daylight Time),410773.09999999404,napkin,900,I,z,z,None,763,563.0,200.0,38,2,2195.7000000029802,408577.39999999106,8020,brutal,AF,A,407708,407708,406078,406991,406079,408274,407508,407508,408274,96
92,test,1,inc,1,m,Tue Apr 08 2025 09:19:26 GMT-0500 (Central Daylight Time),413039.0,friend,1100,I,m,m,None,628,428.0,200.0,120,2,2262.1000000089407,410776.89999999106,8020,remote,AF,A,410107,410107,408278,409391,408278,410540,409907,409907,410540,97
93,test,1,inc,1,m,Tue Apr 08 2025 09:19:26 GMT-0500 (Central Daylight Time),415188.39999999106,temper,1000,I,m,m,None,606,406.0,200.0,111,2,2145.5999999940395,413042.799999997,8020,napkin,AF,A,412273,412273,410544,411557,410544,412689,412073,412073,412689,98
94,test,1,inc,1,z,Tue Apr 08 2025 09:19:26 GMT-0500 (Central Daylight Time),417454.5,film,1100,I,z,z,None,627,428.0,199.0,16,2,2262.5,415192.0,8020,kind,AF,A,414523,414523,412693,413806,412693,414956,414323,414323,414955,99
95,test,1,inc,1,m,Tue Apr 08 2025 09:19:26 GMT-0500 (Central Daylight Time),419520.299999997,brutal,900,I,m,m,None,625,426.0,199.0,126,2,2062.2000000029802,417458.09999999404,8020,window,AF,A,416589,416589,414959,415872,414959,417021,416389,416389,417021,100
96,test,1,inc,1,z,Tue Apr 08 2025 09:19:26 GMT-0500 (Central Daylight Time),421436.5,step,800,I,z,z,None,572,373.0,199.0,53,2,1912.5,419524.0,8020,rage,AF,A,418554,418554,417025,417838,417025,418938,418355,418355,418938,101
97,test,1,inc,1,z,Tue Apr 08 2025 09:19:26 GMT-0500 (Central Daylight Time),424102.299999997,bell,1000,I,z,z,None,1119,920.0,199.0,47,2,2661.7999999970198,421440.5,8020,hate,AF,A,420671,420671,418942,419954,418942,421603,420471,420471,421603,102
98,test,1,con,1,m,Tue Apr 08 2025 09:19:26 GMT-0500 (Central Daylight Time),426751.5,window,1000,I,m,m,None,1103,903.0,200.0,123,2,2645.7000000029802,424105.799999997,8020,window,AF,A,423336,423336,421607,422620,421607,424253,423136,423136,424252,103
99,test,1,con,1,z,Tue Apr 08 2025 09:19:26 GMT-0500 (Central Daylight Time),428834.09999999404,kind,900,I,z,z,None,649,450.0,199.0,10,2,2079.0999999940395,426755.0,8020,kind,AF,A,425885,425885,424256,425169,424256,426335,425686,425686,426335,104
100,test,1,con,1,m,Tue Apr 08 2025 09:19:26 GMT-0500 (Central Daylight Time),431066.39999999106,bell,1100,I,m,m,None,599,399.0,200.0,84,2,2228.5,428837.89999999106,8020,bell,AF,A,428168,428168,426339,427452,426339,428567,427968,427968,428567,105
101,test,1,con,1,z,Tue Apr 08 2025 09:19:26 GMT-0500 (Central Daylight Time),433132.89999999106,friend,900,I,z,z,None,629,430.0,199.0,26,2,2063.0,431069.89999999106,8020,friend,AF,A,430201,430201,428571,429485,428571,430634,430001,430001,430634,106
102,test,1,con,1,m,Tue Apr 08 2025 09:19:26 GMT-0500 (Central Daylight Time),435615.1999999881,napkin,900,I,m,m,None,917,711.0,206.0,106,2,2478.5999999940395,433136.59999999404,8020,napkin,AF,A,432400,432400,430638,431551,430638,433116,432194,432194,433116,107
103,test,1,con,1,m,Tue Apr 08 2025 09:19:26 GMT-0500 (Central Daylight Time),437814.39999999106,bell,1000,I,m,m,None,652,453.0,199.0,83,2,2195.0999999940395,435619.299999997,8020,bell,AF,A,434850,434850,433120,434133,433121,435316,434650,434650,435315,108
104,test,1,con,1,z,Tue Apr 08 2025 09:19:26 GMT-0500 (Central Daylight Time),439748.299999997,brutal,800,I,z,z,None,597,398.0,199.0,33,2,1929.7999999970198,437818.5,8020,brutal,AF,A,436849,436849,435320,436133,435320,437249,436649,436649,437249,109
105,test,1,inc,1,z,Tue Apr 08 2025 09:19:26 GMT-0500 (Central Daylight Time),441930.1999999881,jacket,800,I,z,z,None,832,617.0,215.0,29,2,2177.8999999910593,439752.299999997,8020,friend,AF,A,438798,438798,437253,438065,437254,439431,438583,438583,439431,110
106,test,1,inc,1,z,Tue Apr 08 2025 09:19:26 GMT-0500 (Central Daylight Time),443962.799999997,rock,900,I,z,z,None,591,391.0,200.0,46,2,2029.0,441933.799999997,8020,hate,AF,A,441064,441064,439435,440348,439435,441464,440864,440864,441464,111
107,test,1,inc,1,m,Tue Apr 08 2025 09:19:26 GMT-0500 (Central Daylight Time),446095.299999997,brutal,900,I,m,m,None,694,494.0,200.0,118,2,2128.6000000089407,443966.6999999881,8020,remote,AF,A,443097,443097,441468,442380,441468,443596,442897,442897,443596,112
108,test,1,inc,1,m,Tue Apr 08 2025 09:19:26 GMT-0500 (Central Daylight Time),448260.89999999106,love,1000,I,m,m,None,621,421.0,200.0,87,2,2161.7999999970198,446099.09999999404,8020,bell,AF,A,445329,445329,443600,444613,443600,445762,445129,445129,445762,113
109,test,1,con,1,m,Tue Apr 08 2025 09:19:26 GMT-0500 (Central Daylight Time),450343.89999999106,remote,900,I,m,m,None,636,436.0,200.0,114,2,2079.2999999970198,448264.59999999404,8020,remote,AF,A,447395,447395,445766,446679,445766,447845,447195,447195,447845,114
110,test,1,con,1,m,Tue Apr 08 2025 09:19:26 GMT-0500 (Central Daylight Time),452476.299999997,step,1000,I,m,m,None,588,389.0,199.0,67,2,2128.7000000029802,450347.59999999404,8020,step,AF,A,449578,449578,447849,448861,447849,449977,449378,449378,449977,115
111,test,1,con,1,m,Tue Apr 08 2025 09:19:26 GMT-0500 (Central Daylight Time),454459.299999997,jacket,900,I,m,m,None,548,348.0,200.0,98,2,1979.0,452480.299999997,8020,jacket,AF,A,451611,451611,449981,450894,449982,451960,451411,451411,451960,116
112,test,1,con,1,m,Tue Apr 08 2025 09:19:26 GMT-0500 (Central Daylight Time),456525.5,film,1000,I,m,m,None,529,330.0,199.0,91,2,2062.4000000059605,454463.09999999404,8020,film,AF,A,453693,453693,451964,452977,451964,454027,453494,453494,454026,117
112,test,1,con,0,z,Tue Apr 08 2025 09:19:26 GMT-0500 (Central Daylight Time),458658.09999999404,hate,900,I,m,m,None,684,390.0,294.0,42,2,2128.9000000059605,456529.1999999881,8020,hate,AF,A,455753,455753,454030,454943,454030,456159,455459,455459,456159,118
113,test,1,inc,1,z,Tue Apr 08 2025 09:19:26 GMT-0500 (Central Daylight Time),460624.09999999404,step,800,I,z,z,None,619,419.0,200.0,21,2,1962.2999999970198,458661.799999997,8020,love,AF,A,457692,457692,456163,456976,456163,458125,457492,457492,458125,119
114,test,1,con,1,z,Tue Apr 08 2025 09:19:26 GMT-0500 (Central Daylight Time),462556.89999999106,temper,800,I,z,z,None,597,397.0,200.0,57,2,1929.0999999940395,460627.799999997,8020,temper,AF,A,459658,459658,458129,458943,458129,460058,459458,459458,460058,120
115,test,1,inc,1,m,Tue Apr 08 2025 09:19:26 GMT-0500 (Central Daylight Time),464506.39999999106,elated,800,I,m,m,None,608,408.0,200.0,117,2,1945.8999999910593,462560.5,8020,remote,AF,A,461591,461591,460062,460875,460062,462007,461391,461391,462007,121
116,test,1,con,1,z,Tue Apr 08 2025 09:19:26 GMT-0500 (Central Daylight Time),466822.1999999881,kind,1100,I,z,z,None,678,479.0,199.0,12,2,2312.199999988079,464510.0,8020,kind,AF,A,463840,463840,462011,463124,462011,464323,463640,463641,464323,122
117,test,1,inc,1,m,Tue Apr 08 2025 09:19:26 GMT-0500 (Central Daylight Time),468888.1999999881,rage,800,I,m,m,None,726,527.0,199.0,93,2,2062.3999999910593,466825.799999997,8020,film,AF,A,465856,465856,464327,465140,464327,466389,465657,465657,466389,123
118,test,1,con,1,m,Tue Apr 08 2025 09:19:26 GMT-0500 (Central Daylight Time),471237.59999999404,window,1100,I,m,m,None,713,513.0,200.0,124,2,2345.7999999970198,468891.799999997,8020,window,AF,A,468222,468222,466393,467506,466393,468739,468022,468022,468739,124
119,test,1,inc,1,z,Tue Apr 08 2025 09:19:26 GMT-0500 (Central Daylight Time),473153.6999999881,jacket,800,I,z,z,None,574,375.0,199.0,61,2,1912.5999999940395,471241.09999999404,8020,temper,AF,A,470272,470272,468742,469555,468743,470655,470072,470072,470655,125
120,test,1,inc,1,z,Tue Apr 08 2025 09:19:26 GMT-0500 (Central Daylight Time),475219.6999999881,remote,1000,I,z,z,None,522,323.0,199.0,7,2,2062.5,473157.1999999881,8020,elated,AF,A,472387,472388,470658,471671,470658,472721,472188,472188,472721,126
121,test,1,inc,1,z,Tue Apr 08 2025 09:19:26 GMT-0500 (Central Daylight Time),477385.59999999404,film,1100,I,z,z,None,525,325.0,200.0,48,2,2161.9000000059605,475223.6999999881,8020,hate,AF,A,474554,474554,472725,473837,472725,474887,474354,474354,474887,127
122,test,1,con,1,m,Tue Apr 08 2025 09:19:26 GMT-0500 (Central Daylight Time),479618.299999997,film,1100,I,m,m,None,590,390.0,200.0,92,2,2228.7000000029802,477389.59999999404,8020,film,AF,A,476721,476721,474891,476003,474891,477119,476520,476520,477119,128
