Number,acc_sum,block,block_c,block_cond,con_img,correct,correct_response,datetime,endtime,jitter,project,response,response_time,row_sel,session_number,start_end,starttime,subject_id,task,task_vers,trial
1,0,prac,1,A,circle.png,0,z,Wed Mar 12 2025 17:16:14 GMT-0500 (Central Daylight Time),149562.40000000037,1000,O,None,1512,1,1,3290.600000000093,146271.80000000028,7082,NTS,A,1
2,0,prac,1,A,circle.png,0,z,Wed Mar 12 2025 17:16:14 GMT-0500 (Central Daylight Time),153862.7000000002,2000,O,None,1513,2,1,4290.799999999814,149571.90000000037,7082,NTS,A,2
3,1,prac,1,A,circle.png,1,z,Wed Mar 12 2025 17:16:14 GMT-0500 (Central Daylight Time),157143.0,1200,O,z,1280,3,1,3266.6999999997206,153876.30000000028,7082,NTS,A,3
8,2,prac,1,A,circle.png,1,m,Wed Mar 12 2025 17:16:14 GMT-0500 (Central Daylight Time),160576.0,1600,O,m,1038,7,1,3424.399999999907,157151.6000000001,7082,NTS,A,4
6,3,prac,1,A,circle.png,1,m,Wed Mar 12 2025 17:16:14 GMT-0500 (Central Daylight Time),163995.30000000028,1900,O,m,732,5,1,3412.100000000093,160583.2000000002,7082,NTS,A,5
1,4,prac,1,A,circle.png,1,z,Wed Mar 12 2025 17:16:14 GMT-0500 (Central Daylight Time),166425.1000000001,1000,O,z,640,1,1,2425.2999999998137,163999.80000000028,7082,NTS,A,6
9,5,prac,1,A,circle.png,1,m,Wed Mar 12 2025 17:16:14 GMT-0500 (Central Daylight Time),169307.0,1500,O,m,588,8,1,2876.0999999996275,166430.90000000037,7082,NTS,A,7
7,6,prac,1,A,circle.png,1,m,Wed Mar 12 2025 17:16:14 GMT-0500 (Central Daylight Time),172372.1000000001,1700,O,m,571,6,1,3057.2999999998137,169314.80000000028,7082,NTS,A,8
4,7,prac,1,A,circle.png,1,z,Wed Mar 12 2025 17:16:14 GMT-0500 (Central Daylight Time),175305.90000000037,1400,O,z,757,4,1,2927.5,172378.40000000037,7082,NTS,A,9
8,8,prac,1,A,circle.png,1,m,Wed Mar 12 2025 17:16:14 GMT-0500 (Central Daylight Time),178321.5,1600,O,m,641,7,1,3009.399999999907,175312.1000000001,7082,NTS,A,10
7,9,prac,1,A,circle.png,1,m,Wed Mar 12 2025 17:16:14 GMT-0500 (Central Daylight Time),181467.6000000001,1700,O,m,660,6,1,3140.7999999998137,178326.80000000028,7082,NTS,A,11
6,10,prac,1,A,circle.png,1,m,Wed Mar 12 2025 17:16:14 GMT-0500 (Central Daylight Time),184685.2000000002,1900,O,m,545,5,1,3210.0,181475.2000000002,7082,NTS,A,12
6,0,prac,1,B,triangle.png,0,m,Wed Mar 12 2025 17:16:14 GMT-0500 (Central Daylight Time),248799.1000000001,1000,O,None,1514,5,1,3287.6999999997206,245511.40000000037,7082,NTS,A,1
9,1,prac,1,B,triangle.png,1,z,Wed Mar 12 2025 17:16:14 GMT-0500 (Central Daylight Time),252164.2000000002,1400,O,z,1164,8,1,3359.100000000093,248805.1000000001,7082,NTS,A,2
1,1,prac,1,B,triangle.png,0,z,Wed Mar 12 2025 17:16:14 GMT-0500 (Central Daylight Time),256029.0,1900,O,m,1178,1,1,3857.5,252171.5,7082,NTS,A,3
8,1,prac,1,B,triangle.png,0,m,Wed Mar 12 2025 17:16:14 GMT-0500 (Central Daylight Time),259061.6000000001,1200,O,z,1037,7,1,3025.399999999907,256036.2000000002,7082,NTS,A,4
7,1,prac,1,B,triangle.png,0,z,Wed Mar 12 2025 17:16:14 GMT-0500 (Central Daylight Time),263360.4000000004,2000,O,None,1516,6,1,4290.800000000279,259069.6000000001,7082,NTS,A,5
6,2,prac,1,B,triangle.png,1,m,Wed Mar 12 2025 17:16:14 GMT-0500 (Central Daylight Time),266524.4000000004,1000,O,m,1367,5,1,3157.7000000001863,263366.7000000002,7082,NTS,A,6
2,3,prac,1,B,triangle.png,1,m,Wed Mar 12 2025 17:16:14 GMT-0500 (Central Daylight Time),269741.6000000001,1700,O,m,735,2,1,3209.1999999997206,266532.4000000004,7082,NTS,A,7
8,4,prac,1,B,triangle.png,1,m,Wed Mar 12 2025 17:16:14 GMT-0500 (Central Daylight Time),272507.4000000004,1200,O,m,769,7,1,2759.4000000003725,269748.0,7082,NTS,A,8
3,5,prac,1,B,triangle.png,1,z,Wed Mar 12 2025 17:16:14 GMT-0500 (Central Daylight Time),275589.0,1600,O,z,694,3,1,3075.0,272514.0,7082,NTS,A,9
4,6,prac,1,B,triangle.png,1,m,Wed Mar 12 2025 17:16:14 GMT-0500 (Central Daylight Time),278522.4000000004,1500,O,m,639,4,1,2928.0,275594.4000000004,7082,NTS,A,10
9,7,prac,1,B,triangle.png,1,z,Wed Mar 12 2025 17:16:14 GMT-0500 (Central Daylight Time),281537.1000000001,1400,O,z,833,8,1,3008.399999999907,278528.7000000002,7082,NTS,A,11
4,8,prac,1,B,triangle.png,1,m,Wed Mar 12 2025 17:16:14 GMT-0500 (Central Daylight Time),284486.3000000003,1500,O,m,658,4,1,2941.7000000001863,281544.6000000001,7082,NTS,A,12
2,1,prac,2,B,triangle.png,1,m,Wed Mar 12 2025 17:16:14 GMT-0500 (Central Daylight Time),315027.2000000002,1700,O,m,1362,2,1,3826.5,311200.7000000002,7082,NTS,A,1
7,2,prac,2,B,triangle.png,1,z,Wed Mar 12 2025 17:16:14 GMT-0500 (Central Daylight Time),318857.7000000002,2000,O,z,1046,6,1,3825.7999999998137,315031.9000000004,7082,NTS,A,2
4,3,prac,2,B,triangle.png,1,m,Wed Mar 12 2025 17:16:14 GMT-0500 (Central Daylight Time),321841.0,1500,O,m,689,4,1,2977.1999999997206,318863.8000000003,7082,NTS,A,3
8,4,prac,2,B,triangle.png,1,m,Wed Mar 12 2025 17:16:14 GMT-0500 (Central Daylight Time),324374.3000000003,1200,O,m,537,7,1,2525.5,321848.8000000003,7082,NTS,A,4
3,5,prac,2,B,triangle.png,1,z,Wed Mar 12 2025 17:16:14 GMT-0500 (Central Daylight Time),327406.1000000001,1600,O,z,643,3,1,3025.0,324381.1000000001,7082,NTS,A,5
6,6,prac,2,B,triangle.png,1,m,Wed Mar 12 2025 17:16:14 GMT-0500 (Central Daylight Time),329789.4000000004,1000,O,m,586,5,1,2377.0,327412.4000000004,7082,NTS,A,6
8,7,prac,2,B,triangle.png,1,m,Wed Mar 12 2025 17:16:14 GMT-0500 (Central Daylight Time),332423.4000000004,1200,O,m,644,7,1,2627.600000000093,329795.8000000003,7082,NTS,A,7
9,8,prac,2,B,triangle.png,1,z,Wed Mar 12 2025 17:16:14 GMT-0500 (Central Daylight Time),335254.5,1400,O,z,643,8,1,2824.7999999998137,332429.7000000002,7082,NTS,A,8
4,9,prac,2,B,triangle.png,1,m,Wed Mar 12 2025 17:16:14 GMT-0500 (Central Daylight Time),338203.0,1500,O,m,670,4,1,2943.0999999996275,335259.9000000004,7082,NTS,A,9
1,10,prac,2,B,triangle.png,1,z,Wed Mar 12 2025 17:16:14 GMT-0500 (Central Daylight Time),341551.5,1900,O,z,657,1,1,3342.0999999996275,338209.4000000004,7082,NTS,A,10
2,11,prac,2,B,triangle.png,1,m,Wed Mar 12 2025 17:16:14 GMT-0500 (Central Daylight Time),344901.5,1700,O,m,878,2,1,3342.7999999998137,341558.7000000002,7082,NTS,A,11
1,12,prac,2,B,triangle.png,1,z,Wed Mar 12 2025 17:16:14 GMT-0500 (Central Daylight Time),348249.8000000003,1900,O,z,681,1,1,3340.8000000002794,344909.0,7082,NTS,A,12
6,1,test,1,A,circle.png,1,m,Wed Mar 12 2025 17:16:14 GMT-0500 (Central Daylight Time),378189.2000000002,1900,O,m,1477,5,1,3392.899999999907,374796.3000000003,7082,NTS,A,1
3,2,test,1,A,circle.png,1,z,Wed Mar 12 2025 17:16:14 GMT-0500 (Central Daylight Time),380755.8000000003,1200,O,z,1347,3,1,2559.899999999907,378195.9000000004,7082,NTS,A,2
8,3,test,1,A,circle.png,1,m,Wed Mar 12 2025 17:16:14 GMT-0500 (Central Daylight Time),382922.1000000001,1600,O,m,533,7,1,2159.600000000093,380762.5,7082,NTS,A,3
1,4,test,1,A,circle.png,1,z,Wed Mar 12 2025 17:16:14 GMT-0500 (Central Daylight Time),384487.2000000002,1000,O,z,541,1,1,1560.6000000000931,382926.6000000001,7082,NTS,A,4
9,5,test,1,A,circle.png,1,m,Wed Mar 12 2025 17:16:14 GMT-0500 (Central Daylight Time),386603.0,1500,O,m,588,8,1,2111.2999999998137,384491.7000000002,7082,NTS,A,5
6,6,test,1,A,circle.png,1,m,Wed Mar 12 2025 17:16:14 GMT-0500 (Central Daylight Time),389086.5,1900,O,m,561,5,1,2478.6999999997206,386607.8000000003,7082,NTS,A,6
1,7,test,1,A,circle.png,1,z,Wed Mar 12 2025 17:16:14 GMT-0500 (Central Daylight Time),390717.9000000004,1000,O,z,601,1,1,1626.6000000000931,389091.3000000003,7082,NTS,A,7
8,8,test,1,A,circle.png,1,m,Wed Mar 12 2025 17:16:14 GMT-0500 (Central Daylight Time),392836.5,1600,O,m,499,7,1,2111.5999999996275,390724.9000000004,7082,NTS,A,8
6,9,test,1,A,circle.png,1,m,Wed Mar 12 2025 17:16:14 GMT-0500 (Central Daylight Time),395317.6000000001,1900,O,m,553,5,1,2476.399999999907,392841.2000000002,7082,NTS,A,9
4,10,test,1,A,circle.png,1,z,Wed Mar 12 2025 17:16:14 GMT-0500 (Central Daylight Time),397366.8000000003,1400,O,z,626,4,1,2044.0,395322.8000000003,7082,NTS,A,10
2,11,test,1,A,circle.png,1,z,Wed Mar 12 2025 17:16:14 GMT-0500 (Central Daylight Time),400050.0,2000,O,z,656,2,1,2679.0,397371.0,7082,NTS,A,11
7,12,test,1,A,circle.png,1,m,Wed Mar 12 2025 17:16:14 GMT-0500 (Central Daylight Time),402398.2000000002,1700,O,m,616,6,1,2343.600000000093,400054.6000000001,7082,NTS,A,12
2,13,test,1,A,circle.png,1,z,Wed Mar 12 2025 17:16:14 GMT-0500 (Central Daylight Time),404947.5,2000,O,z,519,2,1,2544.1999999997206,402403.3000000003,7082,NTS,A,13
7,14,test,1,A,circle.png,1,m,Wed Mar 12 2025 17:16:14 GMT-0500 (Central Daylight Time),407180.5,1700,O,m,503,6,1,2228.2999999998137,404952.2000000002,7082,NTS,A,14
9,15,test,1,A,circle.png,1,m,Wed Mar 12 2025 17:16:14 GMT-0500 (Central Daylight Time),409279.3000000003,1500,O,m,575,8,1,2094.899999999907,407184.4000000004,7082,NTS,A,15
3,16,test,1,A,circle.png,1,z,Wed Mar 12 2025 17:16:14 GMT-0500 (Central Daylight Time),411080.0,1200,O,z,569,3,1,1795.3999999999069,409284.6000000001,7082,NTS,A,16
4,17,test,1,A,circle.png,1,z,Wed Mar 12 2025 17:16:14 GMT-0500 (Central Daylight Time),413095.9000000004,1400,O,z,584,4,1,2011.2000000001863,411084.7000000002,7082,NTS,A,17
6,18,test,1,A,circle.png,1,m,Wed Mar 12 2025 17:16:14 GMT-0500 (Central Daylight Time),415562.4000000004,1900,O,m,549,5,1,2462.2000000001863,413100.2000000002,7082,NTS,A,18
1,19,test,1,A,circle.png,1,z,Wed Mar 12 2025 17:16:14 GMT-0500 (Central Daylight Time),417111.9000000004,1000,O,z,526,1,1,1545.0,415566.9000000004,7082,NTS,A,19
7,20,test,1,A,circle.png,1,m,Wed Mar 12 2025 17:16:14 GMT-0500 (Central Daylight Time),419410.3000000003,1700,O,m,573,6,1,2293.7000000001863,417116.6000000001,7082,NTS,A,20
3,21,test,1,A,circle.png,1,z,Wed Mar 12 2025 17:16:14 GMT-0500 (Central Daylight Time),421159.6000000001,1200,O,z,517,3,1,1744.6999999997206,419414.9000000004,7082,NTS,A,21
1,22,test,1,A,circle.png,1,z,Wed Mar 12 2025 17:16:14 GMT-0500 (Central Daylight Time),422709.0,1000,O,z,519,1,1,1545.0999999996275,421163.9000000004,7082,NTS,A,22
4,23,test,1,A,circle.png,1,z,Wed Mar 12 2025 17:16:14 GMT-0500 (Central Daylight Time),424624.4000000004,1400,O,z,491,4,1,1910.6000000000931,422713.8000000003,7082,NTS,A,23
4,24,test,1,A,circle.png,1,z,Wed Mar 12 2025 17:16:14 GMT-0500 (Central Daylight Time),426540.7000000002,1400,O,z,498,4,1,1913.0,424627.7000000002,7082,NTS,A,24
6,1,test,1,B,triangle.png,1,m,Wed Mar 12 2025 17:16:14 GMT-0500 (Central Daylight Time),451715.4000000004,1000,O,m,1197,5,1,2207.5,449507.9000000004,7082,NTS,A,1
1,2,test,1,B,triangle.png,1,z,Wed Mar 12 2025 17:16:14 GMT-0500 (Central Daylight Time),454198.5,1900,O,z,559,1,1,2476.1999999997206,451722.3000000003,7082,NTS,A,2
7,3,test,1,B,triangle.png,1,z,Wed Mar 12 2025 17:16:14 GMT-0500 (Central Daylight Time),456847.3000000003,2000,O,z,616,6,1,2643.899999999907,454203.4000000004,7082,NTS,A,3
3,4,test,1,B,triangle.png,1,z,Wed Mar 12 2025 17:16:14 GMT-0500 (Central Daylight Time),459015.1000000001,1600,O,z,545,3,1,2162.1999999997206,456852.9000000004,7082,NTS,A,4
1,5,test,1,B,triangle.png,1,z,Wed Mar 12 2025 17:16:14 GMT-0500 (Central Daylight Time),461046.5,1400,O,z,601,9,1,2026.0999999996275,459020.4000000004,7082,NTS,A,5
6,6,test,1,B,triangle.png,1,m,Wed Mar 12 2025 17:16:14 GMT-0500 (Central Daylight Time),463096.6000000001,1500,O,m,518,13,1,2046.1999999997206,461050.4000000004,7082,NTS,A,6
9,7,test,1,B,triangle.png,1,z,Wed Mar 12 2025 17:16:14 GMT-0500 (Central Daylight Time),465262.6000000001,1400,O,z,736,8,1,2161.899999999907,463100.7000000002,7082,NTS,A,7
9,7,test,1,B,triangle.png,0,z,Wed Mar 12 2025 17:16:14 GMT-0500 (Central Daylight Time),467795.1000000001,1900,O,m,615,16,1,2527.399999999907,465267.7000000002,7082,NTS,A,8
4,8,test,1,B,triangle.png,1,m,Wed Mar 12 2025 17:16:14 GMT-0500 (Central Daylight Time),469543.6000000001,1000,O,m,719,12,1,1743.6000000000931,467800.0,7082,NTS,A,9
1,9,test,1,B,triangle.png,1,z,Wed Mar 12 2025 17:16:14 GMT-0500 (Central Daylight Time),471526.3000000003,1400,O,z,550,9,1,1979.7000000001863,469546.6000000001,7082,NTS,A,10
8,10,test,1,B,triangle.png,1,m,Wed Mar 12 2025 17:16:14 GMT-0500 (Central Daylight Time),473309.0,1200,O,m,560,7,1,1777.3999999999069,471531.6000000001,7082,NTS,A,11
9,11,test,1,B,triangle.png,1,z,Wed Mar 12 2025 17:16:14 GMT-0500 (Central Daylight Time),475458.4000000004,1400,O,z,731,8,1,2144.5,473313.9000000004,7082,NTS,A,12
4,12,test,1,B,triangle.png,1,m,Wed Mar 12 2025 17:16:14 GMT-0500 (Central Daylight Time),477809.6000000001,1500,O,m,817,4,1,2343.5,475466.1000000001,7082,NTS,A,13
3,13,test,1,B,triangle.png,1,z,Wed Mar 12 2025 17:16:14 GMT-0500 (Central Daylight Time),480373.2000000002,2000,O,z,545,11,1,2557.2000000001863,477816.0,7082,NTS,A,14
2,14,test,1,B,triangle.png,1,m,Wed Mar 12 2025 17:16:14 GMT-0500 (Central Daylight Time),482791.5,1700,O,m,686,2,1,2414.7999999998137,480376.7000000002,7082,NTS,A,15
8,15,test,1,B,triangle.png,1,m,Wed Mar 12 2025 17:16:14 GMT-0500 (Central Daylight Time),485540.4000000004,1700,O,m,1016,15,1,2743.3000000002794,482797.1000000001,7082,NTS,A,16
7,16,test,1,B,triangle.png,1,z,Wed Mar 12 2025 17:16:14 GMT-0500 (Central Daylight Time),487772.2000000002,1600,O,z,604,14,1,2227.100000000093,485545.1000000001,7082,NTS,A,17
6,17,test,1,B,triangle.png,1,m,Wed Mar 12 2025 17:16:14 GMT-0500 (Central Daylight Time),489972.7000000002,1500,O,m,684,13,1,2193.100000000093,487779.6000000001,7082,NTS,A,18
7,18,test,1,B,triangle.png,1,z,Wed Mar 12 2025 17:16:14 GMT-0500 (Central Daylight Time),492720.5,2000,O,z,717,6,1,2742.1999999997206,489978.3000000003,7082,NTS,A,19
4,19,test,1,B,triangle.png,1,m,Wed Mar 12 2025 17:16:14 GMT-0500 (Central Daylight Time),494286.2000000002,1000,O,m,536,12,1,1560.3999999999069,492725.8000000003,7082,NTS,A,20
9,20,test,1,B,triangle.png,1,z,Wed Mar 12 2025 17:16:14 GMT-0500 (Central Daylight Time),496785.9000000004,1900,O,z,574,16,1,2495.5,494290.4000000004,7082,NTS,A,21
8,21,test,1,B,triangle.png,1,m,Wed Mar 12 2025 17:16:14 GMT-0500 (Central Daylight Time),498568.4000000004,1200,O,m,549,7,1,1777.3000000002794,496791.1000000001,7082,NTS,A,22
6,22,test,1,B,triangle.png,1,m,Wed Mar 12 2025 17:16:14 GMT-0500 (Central Daylight Time),500150.0,1000,O,m,552,5,1,1576.6999999997206,498573.3000000003,7082,NTS,A,23
2,23,test,1,B,triangle.png,1,m,Wed Mar 12 2025 17:16:14 GMT-0500 (Central Daylight Time),501866.8000000003,1200,O,m,490,10,1,1711.6000000000931,500155.2000000002,7082,NTS,A,24
7,0,prac,1,C,triangle.png,0,z,Wed Mar 12 2025 17:16:14 GMT-0500 (Central Daylight Time),554217.4000000004,1200,O,None,1518,6,1,3492.600000000093,550724.8000000003,7082,NTS,A,1
1,1,prac,1,C,circle.png,1,z,Wed Mar 12 2025 17:16:14 GMT-0500 (Central Daylight Time),557565.3000000003,1700,O,z,860,1,1,3340.0,554225.3000000003,7082,NTS,A,2
8,1,prac,1,C,triangle.png,0,m,Wed Mar 12 2025 17:16:14 GMT-0500 (Central Daylight Time),561249.2000000002,1400,O,None,1501,7,1,3675.2000000001863,557574.0,7082,NTS,A,3
3,1,prac,1,C,triangle.png,0,z,Wed Mar 12 2025 17:16:14 GMT-0500 (Central Daylight Time),565048.1000000001,1500,O,None,1512,3,1,3793.600000000093,561254.5,7082,NTS,A,4
4,1,prac,1,C,circle.png,0,z,Wed Mar 12 2025 17:16:14 GMT-0500 (Central Daylight Time),568346.0,1000,O,None,1515,4,1,3291.899999999907,565054.1000000001,7082,NTS,A,5
3,2,prac,1,C,triangle.png,1,z,Wed Mar 12 2025 17:16:14 GMT-0500 (Central Daylight Time),571495.1000000001,1500,O,z,849,3,1,3143.100000000093,568352.0,7082,NTS,A,6
1,3,prac,1,C,circle.png,1,z,Wed Mar 12 2025 17:16:14 GMT-0500 (Central Daylight Time),574711.1000000001,1700,O,z,726,1,1,3210.600000000093,571500.5,7082,NTS,A,7
9,3,prac,1,C,circle.png,0,m,Wed Mar 12 2025 17:16:14 GMT-0500 (Central Daylight Time),578910.1000000001,1900,O,None,1517,8,1,4191.5,574718.6000000001,7082,NTS,A,8
6,4,prac,1,C,circle.png,1,m,Wed Mar 12 2025 17:16:14 GMT-0500 (Central Daylight Time),583010.3000000003,2000,O,m,1324,5,1,4094.0,578916.3000000003,7082,NTS,A,9
9,5,prac,1,C,circle.png,1,m,Wed Mar 12 2025 17:16:14 GMT-0500 (Central Daylight Time),587174.8000000003,1900,O,m,1483,8,1,4155.0,583019.8000000003,7082,NTS,A,10
2,6,prac,1,C,triangle.png,1,m,Wed Mar 12 2025 17:16:14 GMT-0500 (Central Daylight Time),590788.6000000001,1600,O,m,1219,2,1,3602.600000000093,587186.0,7082,NTS,A,11
8,6,prac,1,C,triangle.png,0,m,Wed Mar 12 2025 17:16:14 GMT-0500 (Central Daylight Time),594473.1000000001,1400,O,None,1515,7,1,3675.2999999998137,590797.8000000003,7082,NTS,A,12
3,0,prac,2,C,triangle.png,0,z,Wed Mar 12 2025 17:16:14 GMT-0500 (Central Daylight Time),633223.5,1500,O,None,1513,3,1,3789.0,629434.5,7082,NTS,A,1
1,1,prac,2,C,circle.png,1,z,Wed Mar 12 2025 17:16:14 GMT-0500 (Central Daylight Time),636391.8000000003,1700,O,z,675,1,1,3161.600000000093,633230.2000000002,7082,NTS,A,2
7,2,prac,2,C,triangle.png,1,z,Wed Mar 12 2025 17:16:14 GMT-0500 (Central Daylight Time),639658.1000000001,1200,O,z,1282,6,1,3259.399999999907,636398.7000000002,7082,NTS,A,3
2,3,prac,2,C,triangle.png,1,m,Wed Mar 12 2025 17:16:14 GMT-0500 (Central Daylight Time),643370.7000000002,1600,O,m,1328,2,1,3706.7000000001863,639664.0,7082,NTS,A,4
9,4,prac,2,C,circle.png,1,m,Wed Mar 12 2025 17:16:14 GMT-0500 (Central Daylight Time),647322.3000000003,1900,O,m,1271,8,1,3946.2000000001863,643376.1000000001,7082,NTS,A,5
8,5,prac,2,C,triangle.png,1,m,Wed Mar 12 2025 17:16:14 GMT-0500 (Central Daylight Time),650903.1000000001,1400,O,m,1398,7,1,3574.0,647329.1000000001,7082,NTS,A,6
8,6,prac,2,C,triangle.png,1,m,Wed Mar 12 2025 17:16:14 GMT-0500 (Central Daylight Time),653752.3000000003,1400,O,m,665,7,1,2842.600000000093,650909.7000000002,7082,NTS,A,7
2,7,prac,2,C,triangle.png,1,m,Wed Mar 12 2025 17:16:14 GMT-0500 (Central Daylight Time),656856.1000000001,1600,O,m,704,2,1,3097.899999999907,653758.2000000002,7082,NTS,A,8
7,8,prac,2,C,triangle.png,1,z,Wed Mar 12 2025 17:16:14 GMT-0500 (Central Daylight Time),659899.3000000003,1200,O,z,1052,6,1,3038.899999999907,656860.4000000004,7082,NTS,A,9
6,9,prac,2,C,circle.png,1,m,Wed Mar 12 2025 17:16:14 GMT-0500 (Central Daylight Time),663683.8000000003,2000,O,m,1015,5,1,3778.899999999907,659904.9000000004,7082,NTS,A,10
4,10,prac,2,C,circle.png,1,z,Wed Mar 12 2025 17:16:14 GMT-0500 (Central Daylight Time),666414.8000000003,1000,O,z,942,4,1,2725.5,663689.3000000003,7082,NTS,A,11
4,11,prac,2,C,circle.png,1,z,Wed Mar 12 2025 17:16:14 GMT-0500 (Central Daylight Time),669029.9000000004,1000,O,z,833,4,1,2606.5,666423.4000000004,7082,NTS,A,12
1,0,test,1,C,triangle.png,0,z,Wed Mar 12 2025 17:16:14 GMT-0500 (Central Daylight Time),705870.1000000001,1900,O,None,1514,17,1,3425.399999999907,702444.7000000002,7082,NTS,A,1
7,1,test,1,C,triangle.png,1,z,Wed Mar 12 2025 17:16:14 GMT-0500 (Central Daylight Time),708501.5,1700,O,z,910,6,1,2626.1999999997206,705875.3000000003,7082,NTS,A,2
8,2,test,1,C,triangle.png,1,m,Wed Mar 12 2025 17:16:14 GMT-0500 (Central Daylight Time),710950.4000000004,1600,O,m,827,23,1,2445.2000000001863,708505.2000000002,7082,NTS,A,3
6,3,test,1,C,triangle.png,1,m,Wed Mar 12 2025 17:16:14 GMT-0500 (Central Daylight Time),712700.8000000003,1000,O,m,715,13,1,1746.7000000001863,710954.1000000001,7082,NTS,A,4
2,4,test,1,C,triangle.png,1,m,Wed Mar 12 2025 17:16:14 GMT-0500 (Central Daylight Time),715566.3000000003,2000,O,m,837,2,1,2860.7000000001863,712705.6000000001,7082,NTS,A,5
4,5,test,1,C,triangle.png,1,m,Wed Mar 12 2025 17:16:14 GMT-0500 (Central Daylight Time),718032.2000000002,1500,O,m,942,20,1,2459.0,715573.2000000002,7082,NTS,A,6
3,6,test,1,C,circle.png,1,z,Wed Mar 12 2025 17:16:14 GMT-0500 (Central Daylight Time),720680.4000000004,1600,O,z,1025,19,1,2640.2000000001863,718040.2000000002,7082,NTS,A,7
4,6,test,1,C,triangle.png,0,m,Wed Mar 12 2025 17:16:14 GMT-0500 (Central Daylight Time),723412.9000000004,1500,O,z,1213,12,1,2728.7000000001863,720684.2000000002,7082,NTS,A,8
8,7,test,1,C,circle.png,1,m,Wed Mar 12 2025 17:16:14 GMT-0500 (Central Daylight Time),725495.9000000004,1200,O,m,857,15,1,2078.2000000001863,723417.7000000002,7082,NTS,A,9
9,8,test,1,C,circle.png,1,m,Wed Mar 12 2025 17:16:14 GMT-0500 (Central Daylight Time),727794.9000000004,1500,O,m,770,24,1,2293.0,725501.9000000004,7082,NTS,A,10
3,9,test,1,C,circle.png,1,z,Wed Mar 12 2025 17:16:14 GMT-0500 (Central Daylight Time),730194.8000000003,1600,O,z,771,11,1,2394.2000000001863,727800.6000000001,7082,NTS,A,11
6,10,test,1,C,circle.png,1,m,Wed Mar 12 2025 17:16:14 GMT-0500 (Central Daylight Time),732962.0,1900,O,m,850,21,1,2762.899999999907,730199.1000000001,7082,NTS,A,12
3,11,test,1,C,triangle.png,1,z,Wed Mar 12 2025 17:16:14 GMT-0500 (Central Daylight Time),735043.6000000001,1200,O,z,866,3,1,2077.0,732966.6000000001,7082,NTS,A,13
7,12,test,1,C,circle.png,1,m,Wed Mar 12 2025 17:16:14 GMT-0500 (Central Daylight Time),737775.5,2000,O,m,709,14,1,2727.899999999907,735047.6000000001,7082,NTS,A,14
4,13,test,1,C,circle.png,1,z,Wed Mar 12 2025 17:16:14 GMT-0500 (Central Daylight Time),740092.4000000004,1400,O,z,900,4,1,2312.5,737779.9000000004,7082,NTS,A,15
2,14,test,1,C,circle.png,1,z,Wed Mar 12 2025 17:16:14 GMT-0500 (Central Daylight Time),742838.9000000004,1700,O,z,1016,10,1,2741.7000000001863,740097.2000000002,7082,NTS,A,16
1,15,test,1,C,triangle.png,1,z,Wed Mar 12 2025 17:16:14 GMT-0500 (Central Daylight Time),745622.8000000003,1900,O,z,852,9,1,2777.899999999907,742844.9000000004,7082,NTS,A,17
1,16,test,1,C,circle.png,1,z,Wed Mar 12 2025 17:16:14 GMT-0500 (Central Daylight Time),747588.7000000002,1000,O,z,937,1,1,1962.0,745626.7000000002,7082,NTS,A,18
9,17,test,1,C,circle.png,1,m,Wed Mar 12 2025 17:16:14 GMT-0500 (Central Daylight Time),750371.4000000004,1500,O,m,1255,8,1,2777.4000000003725,747594.0,7082,NTS,A,19
2,18,test,1,C,circle.png,1,z,Wed Mar 12 2025 17:16:14 GMT-0500 (Central Daylight Time),753538.3000000003,1700,O,z,1448,18,1,3162.2000000001863,750376.1000000001,7082,NTS,A,20
7,18,test,1,C,triangle.png,0,z,Wed Mar 12 2025 17:16:14 GMT-0500 (Central Daylight Time),756769.3000000003,1700,O,None,1514,22,1,3226.2000000001863,753543.1000000001,7082,NTS,A,21
9,19,test,1,C,triangle.png,1,z,Wed Mar 12 2025 17:16:14 GMT-0500 (Central Daylight Time),759036.4000000004,1400,O,z,849,16,1,2261.3000000002794,756775.1000000001,7082,NTS,A,22
8,20,test,1,C,triangle.png,1,m,Wed Mar 12 2025 17:16:14 GMT-0500 (Central Daylight Time),761701.7000000002,1600,O,m,1038,7,1,2661.7999999998137,759039.9000000004,7082,NTS,A,23
6,21,test,1,C,circle.png,1,m,Wed Mar 12 2025 17:16:14 GMT-0500 (Central Daylight Time),764366.9000000004,1900,O,m,735,5,1,2657.5,761709.4000000004,7082,NTS,A,24
8,1,test,2,C,circle.png,1,m,Wed Mar 12 2025 17:16:14 GMT-0500 (Central Daylight Time),800371.8000000003,1200,O,m,1121,23,1,2345.8000000002794,798026.0,7082,NTS,A,1
3,2,test,2,C,circle.png,1,z,Wed Mar 12 2025 17:16:14 GMT-0500 (Central Daylight Time),803156.2000000002,1600,O,z,1167,11,1,2780.0,800376.2000000002,7082,NTS,A,2
9,3,test,2,C,triangle.png,1,z,Wed Mar 12 2025 17:16:14 GMT-0500 (Central Daylight Time),805754.6000000001,1400,O,z,1165,24,1,2594.2999999998137,803160.3000000003,7082,NTS,A,3
2,4,test,2,C,triangle.png,1,m,Wed Mar 12 2025 17:16:14 GMT-0500 (Central Daylight Time),808885.8000000003,2000,O,m,1114,2,1,3126.600000000093,805759.2000000002,7082,NTS,A,4
1,5,test,2,C,triangle.png,1,z,Wed Mar 12 2025 17:16:14 GMT-0500 (Central Daylight Time),811786.1000000001,1900,O,z,983,9,1,2896.100000000093,808890.0,7082,NTS,A,5
3,6,test,2,C,triangle.png,1,z,Wed Mar 12 2025 17:16:14 GMT-0500 (Central Daylight Time),813717.5,1200,O,z,711,3,1,1925.7999999998137,811791.7000000002,7082,NTS,A,6
1,7,test,2,C,circle.png,1,z,Wed Mar 12 2025 17:16:14 GMT-0500 (Central Daylight Time),815516.4000000004,1000,O,z,769,1,1,1794.6000000000931,813721.8000000003,7082,NTS,A,7
7,8,test,2,C,circle.png,1,m,Wed Mar 12 2025 17:16:14 GMT-0500 (Central Daylight Time),818784.7000000002,2000,O,m,1234,22,1,3262.2999999998137,815522.4000000004,7082,NTS,A,8
9,9,test,2,C,circle.png,1,m,Wed Mar 12 2025 17:16:14 GMT-0500 (Central Daylight Time),820899.0,1500,O,m,588,8,1,2110.399999999907,818788.6000000001,7082,NTS,A,9
4,10,test,2,C,circle.png,1,z,Wed Mar 12 2025 17:16:14 GMT-0500 (Central Daylight Time),823046.6000000001,1400,O,z,724,4,1,2140.1999999997206,820906.4000000004,7082,NTS,A,10
7,11,test,2,C,circle.png,1,m,Wed Mar 12 2025 17:16:14 GMT-0500 (Central Daylight Time),825697.7000000002,2000,O,m,624,14,1,2646.7000000001863,823051.0,7082,NTS,A,11
6,12,test,2,C,triangle.png,1,m,Wed Mar 12 2025 17:16:14 GMT-0500 (Central Daylight Time),828196.6000000001,1000,O,m,1481,13,1,2495.399999999907,825701.2000000002,7082,NTS,A,12
8,13,test,2,C,triangle.png,1,m,Wed Mar 12 2025 17:16:14 GMT-0500 (Central Daylight Time),830645.2000000002,1600,O,m,828,7,1,2442.399999999907,828202.8000000003,7082,NTS,A,13
3,14,test,2,C,circle.png,1,z,Wed Mar 12 2025 17:16:14 GMT-0500 (Central Daylight Time),833110.8000000003,1600,O,z,833,19,1,2460.2000000001863,830650.6000000001,7082,NTS,A,14
2,15,test,2,C,circle.png,1,z,Wed Mar 12 2025 17:16:14 GMT-0500 (Central Daylight Time),836012.2000000002,1700,O,z,1166,18,1,2896.2000000001863,833116.0,7082,NTS,A,15
4,16,test,2,C,triangle.png,1,m,Wed Mar 12 2025 17:16:14 GMT-0500 (Central Daylight Time),838576.9000000004,1500,O,m,1033,20,1,2558.2000000001863,836018.7000000002,7082,NTS,A,16
9,17,test,2,C,triangle.png,1,z,Wed Mar 12 2025 17:16:14 GMT-0500 (Central Daylight Time),841075.7000000002,1400,O,z,1071,16,1,2492.2999999998137,838583.4000000004,7082,NTS,A,17
4,18,test,2,C,triangle.png,1,m,Wed Mar 12 2025 17:16:14 GMT-0500 (Central Daylight Time),843424.8000000003,1500,O,m,827,12,1,2345.5,841079.3000000003,7082,NTS,A,18
6,19,test,2,C,circle.png,1,m,Wed Mar 12 2025 17:16:14 GMT-0500 (Central Daylight Time),846493.1000000001,1900,O,m,1149,5,1,3063.600000000093,843429.5,7082,NTS,A,19
6,20,test,2,C,triangle.png,1,m,Wed Mar 12 2025 17:16:14 GMT-0500 (Central Daylight Time),848640.2000000002,1000,O,m,1116,21,1,2134.2000000001863,846506.0,7082,NTS,A,20
7,21,test,2,C,triangle.png,1,z,Wed Mar 12 2025 17:16:14 GMT-0500 (Central Daylight Time),851321.7000000002,1700,O,z,956,6,1,2676.2000000001863,848645.5,7082,NTS,A,21
1,22,test,2,C,triangle.png,1,z,Wed Mar 12 2025 17:16:14 GMT-0500 (Central Daylight Time),854122.1000000001,1900,O,z,867,17,1,2794.100000000093,851328.0,7082,NTS,A,22
2,23,test,2,C,circle.png,1,z,Wed Mar 12 2025 17:16:14 GMT-0500 (Central Daylight Time),856919.9000000004,1700,O,z,1074,10,1,2792.5,854127.4000000004,7082,NTS,A,23
8,24,test,2,C,circle.png,1,m,Wed Mar 12 2025 17:16:14 GMT-0500 (Central Daylight Time),859069.9000000004,1200,O,m,919,15,1,2145.4000000003725,856924.5,7082,NTS,A,24
8,1,test,3,C,triangle.png,1,m,Wed Mar 12 2025 17:16:14 GMT-0500 (Central Daylight Time),896540.0,1600,O,m,1161,7,1,2775.6999999997206,893764.3000000003,7082,NTS,A,1
7,2,test,3,C,triangle.png,1,z,Wed Mar 12 2025 17:16:14 GMT-0500 (Central Daylight Time),899140.2000000002,1700,O,z,869,22,1,2595.600000000093,896544.6000000001,7082,NTS,A,2
1,3,test,3,C,triangle.png,1,z,Wed Mar 12 2025 17:16:14 GMT-0500 (Central Daylight Time),901872.3000000003,1900,O,z,808,9,1,2729.0,899143.3000000003,7082,NTS,A,3
6,4,test,3,C,circle.png,1,m,Wed Mar 12 2025 17:16:14 GMT-0500 (Central Daylight Time),904637.4000000004,1900,O,m,835,5,1,2761.3000000002794,901876.1000000001,7082,NTS,A,4
3,5,test,3,C,triangle.png,1,z,Wed Mar 12 2025 17:16:14 GMT-0500 (Central Daylight Time),906672.1000000001,1200,O,z,800,3,1,2028.1000000000931,904644.0,7082,NTS,A,5
9,6,test,3,C,circle.png,1,m,Wed Mar 12 2025 17:16:14 GMT-0500 (Central Daylight Time),908821.3000000003,1500,O,m,622,8,1,2145.0,906676.3000000003,7082,NTS,A,6
3,7,test,3,C,circle.png,1,z,Wed Mar 12 2025 17:16:14 GMT-0500 (Central Daylight Time),911252.3000000003,1600,O,z,812,11,1,2426.0,908826.3000000003,7082,NTS,A,7
4,8,test,3,C,circle.png,1,z,Wed Mar 12 2025 17:16:14 GMT-0500 (Central Daylight Time),913703.1000000001,1400,O,z,1019,20,1,2446.100000000093,911257.0,7082,NTS,A,8
8,9,test,3,C,triangle.png,1,m,Wed Mar 12 2025 17:16:14 GMT-0500 (Central Daylight Time),916035.9000000004,1600,O,m,713,23,1,2327.4000000003725,913708.5,7082,NTS,A,9
1,10,test,3,C,circle.png,1,z,Wed Mar 12 2025 17:16:14 GMT-0500 (Central Daylight Time),918334.4000000004,1000,O,z,1268,1,1,2293.7000000001863,916040.7000000002,7082,NTS,A,10
8,11,test,3,C,circle.png,1,m,Wed Mar 12 2025 17:16:14 GMT-0500 (Central Daylight Time),920317.1000000001,1200,O,m,765,15,1,1977.6999999997206,918339.4000000004,7082,NTS,A,11
9,12,test,3,C,triangle.png,1,z,Wed Mar 12 2025 17:16:14 GMT-0500 (Central Daylight Time),923200.2000000002,1400,O,z,1452,16,1,2878.7000000001863,920321.5,7082,NTS,A,12
6,13,test,3,C,triangle.png,1,m,Wed Mar 12 2025 17:16:14 GMT-0500 (Central Daylight Time),925349.2000000002,1000,O,m,1121,13,1,2144.5,923204.7000000002,7082,NTS,A,13
2,14,test,3,C,triangle.png,1,m,Wed Mar 12 2025 17:16:14 GMT-0500 (Central Daylight Time),928732.4000000004,2000,O,m,1366,18,1,3377.600000000093,925354.8000000003,7082,NTS,A,14
2,15,test,3,C,circle.png,1,z,Wed Mar 12 2025 17:16:14 GMT-0500 (Central Daylight Time),931730.5,1700,O,z,1272,10,1,2992.5999999996275,928737.9000000004,7082,NTS,A,15
3,15,test,3,C,triangle.png,0,z,Wed Mar 12 2025 17:16:14 GMT-0500 (Central Daylight Time),934262.1000000001,1200,O,m,1302,19,1,2525.5,931736.6000000001,7082,NTS,A,16
6,16,test,3,C,circle.png,1,m,Wed Mar 12 2025 17:16:14 GMT-0500 (Central Daylight Time),937262.4000000004,1900,O,m,1078,21,1,2995.0,934267.4000000004,7082,NTS,A,17
7,17,test,3,C,triangle.png,1,z,Wed Mar 12 2025 17:16:14 GMT-0500 (Central Daylight Time),940425.6000000001,1700,O,z,1448,6,1,3158.600000000093,937267.0,7082,NTS,A,18
2,18,test,3,C,triangle.png,1,m,Wed Mar 12 2025 17:16:14 GMT-0500 (Central Daylight Time),943458.3000000003,2000,O,m,1015,2,1,3029.5,940428.8000000003,7082,NTS,A,19
1,19,test,3,C,circle.png,1,z,Wed Mar 12 2025 17:16:14 GMT-0500 (Central Daylight Time),945641.8000000003,1000,O,z,1164,17,1,2179.7000000001863,943462.1000000001,7082,NTS,A,20
7,20,test,3,C,circle.png,1,m,Wed Mar 12 2025 17:16:14 GMT-0500 (Central Daylight Time),948777.3000000003,2000,O,m,1102,14,1,3132.8000000002794,945644.5,7082,NTS,A,21
4,21,test,3,C,triangle.png,1,m,Wed Mar 12 2025 17:16:14 GMT-0500 (Central Daylight Time),951457.0,1500,O,m,1156,12,1,2673.0999999996275,948783.9000000004,7082,NTS,A,22
4,22,test,3,C,circle.png,1,z,Wed Mar 12 2025 17:16:14 GMT-0500 (Central Daylight Time),953824.1000000001,1400,O,z,936,4,1,2359.899999999907,951464.2000000002,7082,NTS,A,23
9,22,test,3,C,circle.png,0,m,Wed Mar 12 2025 17:16:14 GMT-0500 (Central Daylight Time),956856.3000000003,1500,O,None,1514,24,1,3022.899999999907,953833.4000000004,7082,NTS,A,24
3,0,test,4,C,triangle.png,0,z,Wed Mar 12 2025 17:16:14 GMT-0500 (Central Daylight Time),972018.5,1200,O,None,1515,3,1,2727.0999999996275,969291.4000000004,7082,NTS,A,1
7,1,test,4,C,circle.png,1,m,Wed Mar 12 2025 17:16:14 GMT-0500 (Central Daylight Time),974750.2000000002,2000,O,m,712,14,1,2726.5,972023.7000000002,7082,NTS,A,2
7,1,test,4,C,triangle.png,0,z,Wed Mar 12 2025 17:16:14 GMT-0500 (Central Daylight Time),977968.7000000002,1700,O,None,1501,22,1,3214.0,974754.7000000002,7082,NTS,A,3
8,2,test,4,C,triangle.png,1,m,Wed Mar 12 2025 17:16:14 GMT-0500 (Central Daylight Time),980431.5,1600,O,m,844,23,1,2459.0999999996275,977972.4000000004,7082,NTS,A,4
6,3,test,4,C,circle.png,1,m,Wed Mar 12 2025 17:16:14 GMT-0500 (Central Daylight Time),983348.2000000002,1900,O,m,1000,5,1,2912.2999999998137,980435.9000000004,7082,NTS,A,5
8,4,test,4,C,triangle.png,1,m,Wed Mar 12 2025 17:16:14 GMT-0500 (Central Daylight Time),985913.7000000002,1600,O,m,941,7,1,2561.0,983352.7000000002,7082,NTS,A,6
6,5,test,4,C,circle.png,1,m,Wed Mar 12 2025 17:16:14 GMT-0500 (Central Daylight Time),988796.2000000002,1900,O,m,967,21,1,2878.7000000001863,985917.5,7082,NTS,A,7
2,6,test,4,C,triangle.png,1,m,Wed Mar 12 2025 17:16:14 GMT-0500 (Central Daylight Time),991876.3000000003,2000,O,m,1061,2,1,3074.7000000001863,988801.6000000001,7082,NTS,A,8
3,7,test,4,C,circle.png,1,z,Wed Mar 12 2025 17:16:14 GMT-0500 (Central Daylight Time),994360.7000000002,1600,O,z,850,11,1,2478.0,991882.7000000002,7082,NTS,A,9
2,8,test,4,C,triangle.png,1,m,Wed Mar 12 2025 17:16:14 GMT-0500 (Central Daylight Time),997442.6000000001,2000,O,m,1056,18,1,3076.600000000093,994366.0,7082,NTS,A,10
9,9,test,4,C,circle.png,1,m,Wed Mar 12 2025 17:16:14 GMT-0500 (Central Daylight Time),999692.3000000003,1500,O,m,722,8,1,2245.3000000002794,997447.0,7082,NTS,A,11
4,9,test,4,C,circle.png,0,z,Wed Mar 12 2025 17:16:14 GMT-0500 (Central Daylight Time),1002191.7000000002,1400,O,m,1076,20,1,2494.7999999998137,999696.9000000004,7082,NTS,A,12
3,10,test,4,C,triangle.png,1,z,Wed Mar 12 2025 17:16:14 GMT-0500 (Central Daylight Time),1004625.2000000002,1200,O,z,1216,19,1,2429.0,1002196.2000000002,7082,NTS,A,13
9,11,test,4,C,circle.png,1,m,Wed Mar 12 2025 17:16:14 GMT-0500 (Central Daylight Time),1006972.8000000003,1500,O,m,829,24,1,2343.899999999907,1004628.9000000004,7082,NTS,A,14
2,12,test,4,C,circle.png,1,z,Wed Mar 12 2025 17:16:14 GMT-0500 (Central Daylight Time),1009408.3000000003,1700,O,z,711,10,1,2430.899999999907,1006977.4000000004,7082,NTS,A,15
6,13,test,4,C,triangle.png,1,m,Wed Mar 12 2025 17:16:14 GMT-0500 (Central Daylight Time),1011505.8000000003,1000,O,m,1074,13,1,2093.8000000002794,1009412.0,7082,NTS,A,16
8,14,test,4,C,circle.png,1,m,Wed Mar 12 2025 17:16:14 GMT-0500 (Central Daylight Time),1013503.9000000004,1200,O,m,776,15,1,1991.9000000003725,1011512.0,7082,NTS,A,17
1,15,test,4,C,triangle.png,1,z,Wed Mar 12 2025 17:16:14 GMT-0500 (Central Daylight Time),1016435.8000000003,1900,O,z,1013,9,1,2927.899999999907,1013507.9000000004,7082,NTS,A,18
4,16,test,4,C,triangle.png,1,m,Wed Mar 12 2025 17:16:14 GMT-0500 (Central Daylight Time),1018802.2000000002,1500,O,m,840,12,1,2361.100000000093,1016441.1000000001,7082,NTS,A,19
9,17,test,4,C,triangle.png,1,z,Wed Mar 12 2025 17:16:14 GMT-0500 (Central Daylight Time),1021586.8000000003,1400,O,z,1366,16,1,2780.3000000002794,1018806.5,7082,NTS,A,20
7,18,test,4,C,triangle.png,1,z,Wed Mar 12 2025 17:16:14 GMT-0500 (Central Daylight Time),1024169.3000000003,1700,O,z,851,6,1,2577.2000000001863,1021592.1000000001,7082,NTS,A,21
1,19,test,4,C,circle.png,1,z,Wed Mar 12 2025 17:16:14 GMT-0500 (Central Daylight Time),1026467.5,1000,O,z,1272,17,1,2292.6999999997206,1024174.8000000003,7082,NTS,A,22
4,20,test,4,C,circle.png,1,z,Wed Mar 12 2025 17:16:14 GMT-0500 (Central Daylight Time),1029198.5,1400,O,z,1300,4,1,2725.899999999907,1026472.6000000001,7082,NTS,A,23
1,21,test,4,C,circle.png,1,z,Wed Mar 12 2025 17:16:14 GMT-0500 (Central Daylight Time),1030998.2000000002,1000,O,z,778,1,1,1795.1000000000931,1029203.1000000001,7082,NTS,A,24
