acc_sum,block,block_c,condition,correct,correct_response,datetime,endtime,flanker,jitter,project,response,response_test_buffer_response,response_test_target_response,response_time,response_time_test_buffer_response,response_time_test_target_response,row_sel,session_number,start_end,starttime,subject_id,target,task,task_vers,time_test_buffer,time_test_buffer_response,time_test_constants,time_test_flanker,time_test_jitter,time_test_logger,time_test_target,time_test_target_response,time_test_variables,trial
1,prac,1,con,1,z,Wed Apr 30 2025 12:29:15 GMT-0500 (Central Daylight Time),129626.79999995232,kiwi,1000,I,z,,,1314,,,7,1,3613.7999999523163,126013.0,7134,kiwi,NF,C,,,,,,,,,,1
2,prac,1,con,1,m,Wed Apr 30 2025 12:29:15 GMT-0500 (Central Daylight Time),132659.5,gold,800,I,m,,,921,,,13,1,3026.399999976158,129633.10000002384,7134,gold,NF,C,,,,,,,,,,2
3,prac,1,inc,1,m,Wed Apr 30 2025 12:29:15 GMT-0500 (Central Daylight Time),135924.0,pear,900,I,m,,,1052,,,14,1,3260.7000000476837,132663.29999995232,7134,iron,NF,C,,,,,,,,,,3
4,prac,1,inc,1,z,Wed Apr 30 2025 12:29:15 GMT-0500 (Central Daylight Time),139174.39999997616,iron,900,I,z,,,1034,,,6,1,3244.399999976158,135930.0,7134,pear,NF,C,,,,,,,,,,4
5,prac,1,inc,1,m,Wed Apr 30 2025 12:29:15 GMT-0500 (Central Daylight Time),142623.10000002384,raisin,1100,I,m,,,1033,,,12,1,3444.5,139178.60000002384,7134,cobalt,NF,C,,,,,,,,,,5
6,prac,1,inc,1,z,Wed Apr 30 2025 12:29:15 GMT-0500 (Central Daylight Time),146072.29999995232,lead,1100,I,z,,,1033,,,8,1,3443.399999976158,142628.89999997616,7134,plum,NF,C,,,,,,,,,,6
7,prac,1,con,1,m,Wed Apr 30 2025 12:29:15 GMT-0500 (Central Daylight Time),149186.79999995232,bronze,800,I,m,,,1004,,,9,1,3108.899999976158,146077.89999997616,7134,bronze,NF,C,,,,,,,,,,7
8,prac,1,con,1,z,Wed Apr 30 2025 12:29:15 GMT-0500 (Central Daylight Time),152252.89999997616,lime,800,I,z,,,960,,,5,1,3061.1999999284744,149191.70000004768,7134,lime,NF,C,,,,,,,,,,8
9,prac,1,con,1,m,Wed Apr 30 2025 12:29:15 GMT-0500 (Central Daylight Time),155502.89999997616,zinc,1000,I,m,,,937,,,15,1,3244.399999976158,152258.5,7134,zinc,NF,C,,,,,,,,,,9
10,prac,1,inc,1,z,Wed Apr 30 2025 12:29:15 GMT-0500 (Central Daylight Time),158751.10000002384,copper,900,I,z,,,1038,,,2,1,3243.0,155508.10000002384,7134,cherry,NF,C,,,,,,,,,,10
11,prac,1,con,1,z,Wed Apr 30 2025 12:29:15 GMT-0500 (Central Daylight Time),162050.10000002384,banana,800,I,z,,,1189,,,1,1,3292.899999976158,158757.20000004768,7134,banana,NF,C,,,,,,,,,,11
12,prac,1,inc,1,z,Wed Apr 30 2025 12:29:15 GMT-0500 (Central Daylight Time),165782.10000002384,cobalt,1100,I,z,,,1326,,,4,1,3726.8000000715256,162055.29999995232,7134,raisin,NF,C,,,,,,,,,,12
13,prac,1,inc,1,m,Wed Apr 30 2025 12:29:15 GMT-0500 (Central Daylight Time),169231.5,plum,1100,I,m,,,1033,,,16,1,3445.100000023842,165786.39999997616,7134,lead,NF,C,,,,,,,,,,13
14,prac,1,inc,1,m,Wed Apr 30 2025 12:29:15 GMT-0500 (Central Daylight Time),172430.10000002384,cherry,900,I,m,,,984,,,10,1,3193.399999976158,169236.70000004768,7134,copper,NF,C,,,,,,,,,,14
15,prac,1,con,1,z,Wed Apr 30 2025 12:29:15 GMT-0500 (Central Daylight Time),175895.79999995232,orange,1000,I,z,,,1149,,,3,1,3460.1999999284744,172435.60000002384,7134,orange,NF,C,,,,,,,,,,15
16,prac,1,con,1,m,Wed Apr 30 2025 12:29:15 GMT-0500 (Central Daylight Time),179128.29999995232,silver,1000,I,m,,,925,,,11,1,3225.399999976158,175902.89999997616,7134,silver,NF,C,,,,,,,,,,16
1,test,1,con,1,m,Wed Apr 30 2025 12:29:15 GMT-0500 (Central Daylight Time),192840.60000002384,iron,800,I,m,m,None,833,617.0,216.0,105,1,2176.8000000715256,190663.79999995232,7134,iron,NF,C,183741,183741,182197,183009,182197,184374,183525,183525,184374,1
2,test,1,con,1,m,Wed Apr 30 2025 12:29:15 GMT-0500 (Central Daylight Time),195289.70000004768,copper,1000,I,m,m,None,901,701.0,200.0,75,1,2440.3000000715256,192849.39999997616,7134,copper,NF,C,186106,186106,184382,185390,184383,186823,185906,185906,186823,2
3,test,1,inc,1,z,Wed Apr 30 2025 12:29:15 GMT-0500 (Central Daylight Time),197806.10000002384,bronze,800,I,z,z,None,1184,984.0,200.0,21,1,2508.100000023842,195298.0,7134,orange,NF,C,188355,188355,186831,187640,186831,189339,188155,188155,189339,3
4,test,1,con,1,z,Wed Apr 30 2025 12:29:15 GMT-0500 (Central Daylight Time),200269.89999997616,orange,1000,I,z,z,None,928,728.0,200.0,19,1,2456.399999976158,197813.5,7134,orange,NF,C,191071,191071,189347,190355,189347,191803,190871,190871,191803,4
5,test,1,inc,1,m,Wed Apr 30 2025 12:29:15 GMT-0500 (Central Daylight Time),202302.39999997616,lime,800,I,m,m,None,693,493.0,200.0,109,1,2024.7999999523163,200277.60000002384,7134,iron,NF,C,193338,193338,191811,192622,191811,193836,193138,193138,193835,5
5,test,1,inc,0,z,Wed Apr 30 2025 12:29:15 GMT-0500 (Central Daylight Time),204437.0,zinc,1000,I,m,m,None,581,380.0,201.0,47,1,2131.0,202306.0,7134,pear,NF,C,195572,195572,193839,194854,193839,195970,195371,195371,195970,6
6,test,1,con,1,z,Wed Apr 30 2025 12:29:15 GMT-0500 (Central Daylight Time),206369.60000002384,kiwi,900,I,z,z,None,491,275.0,216.0,50,1,1928.3000000715256,204441.29999995232,7134,kiwi,NF,C,197620,197620,195974,196886,195975,197903,197403,197403,197903,7
7,test,1,inc,1,m,Wed Apr 30 2025 12:29:15 GMT-0500 (Central Daylight Time),208436.39999997616,kiwi,1000,I,m,m,None,517,316.0,201.0,127,1,2062.5,206373.89999997616,7134,lead,NF,C,199637,199637,197907,198919,197907,199969,199435,199435,199969,8
8,test,1,inc,1,z,Wed Apr 30 2025 12:29:15 GMT-0500 (Central Daylight Time),210700.20000004768,zinc,1000,I,z,z,None,721,520.0,201.0,63,1,2256.600000023842,208443.60000002384,7134,plum,NF,C,201703,201703,199977,200986,199977,202233,201501,201501,202233,9
9,test,1,con,1,z,Wed Apr 30 2025 12:29:15 GMT-0500 (Central Daylight Time),212632.29999995232,lime,800,I,z,z,None,599,400.0,199.0,33,1,1928.2999999523163,210704.0,7134,lime,NF,C,203751,203751,202237,203050,202237,204165,203552,203552,204165,10
10,test,1,con,1,m,Wed Apr 30 2025 12:29:15 GMT-0500 (Central Daylight Time),214565.70000004768,iron,900,I,m,m,None,502,302.0,200.0,106,1,1928.6000000238419,212637.10000002384,7134,iron,NF,C,205785,205785,204170,205083,204170,206099,205584,205584,206099,11
11,test,1,con,1,m,Wed Apr 30 2025 12:29:15 GMT-0500 (Central Daylight Time),216614.5,cobalt,900,I,m,m,None,603,403.0,200.0,90,1,2043.8999999761581,214570.60000002384,7134,cobalt,NF,C,207732,207732,206104,207017,206104,208148,207532,207532,208148,12
12,test,1,con,1,m,Wed Apr 30 2025 12:29:15 GMT-0500 (Central Daylight Time),218864.20000004768,iron,1000,I,m,m,None,698,499.0,199.0,107,1,2246.0,216618.20000004768,7134,iron,NF,C,209883,209883,208151,209165,208152,210397,209683,209683,210397,13
13,test,1,con,1,m,Wed Apr 30 2025 12:29:15 GMT-0500 (Central Daylight Time),220813.70000004768,gold,800,I,m,m,None,601,386.0,215.0,97,1,1945.0,218868.70000004768,7134,gold,NF,C,211948,211948,210402,211215,210402,212347,211732,211732,212347,14
14,test,1,inc,1,m,Wed Apr 30 2025 12:29:15 GMT-0500 (Central Daylight Time),223265.60000002384,plum,1100,I,m,m,None,799,584.0,215.0,120,1,2446.600000023842,220819.0,7134,zinc,NF,C,214198,214198,212352,213465,212352,214799,213982,213982,214799,15
15,test,1,inc,1,m,Wed Apr 30 2025 12:29:15 GMT-0500 (Central Daylight Time),225862.70000004768,plum,1100,I,m,m,None,951,750.0,201.0,128,1,2589.0,223273.70000004768,7134,lead,NF,C,216632,216632,214807,215914,214807,217396,216430,216430,217396,16
16,test,1,con,1,m,Wed Apr 30 2025 12:29:15 GMT-0500 (Central Daylight Time),228311.20000004768,iron,1100,I,m,m,None,817,615.0,202.0,108,1,2442.3000000715256,225868.89999997616,7134,iron,NF,C,219216,219216,217402,218513,217402,219844,219014,219014,219844,17
17,test,1,con,1,z,Wed Apr 30 2025 12:29:15 GMT-0500 (Central Daylight Time),230310.0,cherry,800,I,z,z,None,651,435.0,216.0,9,1,1994.6000000238419,228315.39999997616,7134,cherry,NF,C,221395,221395,219848,220663,219849,221843,221179,221179,221843,18
18,test,1,inc,1,m,Wed Apr 30 2025 12:29:15 GMT-0500 (Central Daylight Time),232527.60000002384,orange,1000,I,m,m,None,693,493.0,200.0,71,1,2212.899999976158,230314.70000004768,7134,bronze,NF,C,223562,223562,221848,222860,221848,224061,223361,223361,224060,19
19,test,1,inc,1,m,Wed Apr 30 2025 12:29:15 GMT-0500 (Central Daylight Time),234476.0,lime,800,I,m,m,None,605,405.0,200.0,117,1,1942.5,232533.5,7134,zinc,NF,C,225594,225594,224067,224880,224067,226009,225393,225393,226009,20
20,test,1,con,1,m,Wed Apr 30 2025 12:29:15 GMT-0500 (Central Daylight Time),236541.29999995232,gold,1000,I,m,m,None,542,327.0,215.0,99,1,2060.5999999046326,234480.70000004768,7134,gold,NF,C,227744,227744,226014,227026,226014,228074,227528,227528,228074,21
21,test,1,con,1,z,Wed Apr 30 2025 12:29:15 GMT-0500 (Central Daylight Time),238341.10000002384,orange,800,I,z,z,None,465,265.0,200.0,17,1,1794.7000000476837,236546.39999997616,7134,orange,NF,C,229609,229609,228079,228893,228080,229874,229409,229409,229874,22
22,test,1,inc,1,z,Wed Apr 30 2025 12:29:15 GMT-0500 (Central Daylight Time),240607.70000004768,lead,1100,I,z,z,None,616,417.0,199.0,48,1,2262.8000000715256,238344.89999997616,7134,pear,NF,C,231710,231710,229878,230992,229878,232141,231510,231510,232141,23
23,test,1,con,1,m,Wed Apr 30 2025 12:29:15 GMT-0500 (Central Daylight Time),242623.39999997616,silver,1000,I,m,m,None,475,260.0,215.0,83,1,2010.2999999523163,240613.10000002384,7134,silver,NF,C,233891,233891,232146,233159,232146,234156,233675,233675,234156,24
24,test,1,con,1,z,Wed Apr 30 2025 12:29:15 GMT-0500 (Central Daylight Time),244639.79999995232,orange,900,I,z,z,None,582,383.0,199.0,18,1,2012.5,242627.29999995232,7134,orange,NF,C,235774,235775,234160,235073,234161,236173,235575,235575,236173,25
25,test,1,inc,1,z,Wed Apr 30 2025 12:29:15 GMT-0500 (Central Daylight Time),246971.10000002384,lead,1100,I,z,z,None,687,471.0,216.0,64,1,2326.8000000715256,244644.29999995232,7134,plum,NF,C,238023,238023,236177,237290,236178,238504,237807,237807,238504,26
26,test,1,inc,1,z,Wed Apr 30 2025 12:29:15 GMT-0500 (Central Daylight Time),249004.29999995232,bronze,800,I,z,z,None,701,486.0,215.0,29,1,2028.3999999761581,246975.89999997616,7134,raisin,NF,C,240041,240041,238509,239321,238509,240537,239825,239826,240537,27
27,test,1,inc,1,m,Wed Apr 30 2025 12:29:15 GMT-0500 (Central Daylight Time),251370.60000002384,raisin,1100,I,m,m,None,722,523.0,199.0,80,1,2361.7000000476837,249008.89999997616,7134,copper,NF,C,242371,242371,240542,241657,240542,242904,242172,242172,242904,28
28,test,1,con,1,m,Wed Apr 30 2025 12:29:15 GMT-0500 (Central Daylight Time),253336.20000004768,cobalt,1000,I,m,m,None,416,216.0,200.0,91,1,1960.6000000238419,251375.60000002384,7134,cobalt,NF,C,244639,244639,242909,243921,242909,244869,244438,244438,244869,29
29,test,1,inc,1,m,Wed Apr 30 2025 12:29:15 GMT-0500 (Central Daylight Time),255269.60000002384,lime,800,I,m,m,None,585,370.0,215.0,101,1,1928.6000000238419,253341.0,7134,gold,NF,C,246420,246420,244874,245689,244874,246803,246204,246204,246803,30
30,test,1,inc,1,m,Wed Apr 30 2025 12:29:15 GMT-0500 (Central Daylight Time),257402.20000004768,pear,900,I,m,m,None,689,490.0,199.0,118,1,2128.4000000953674,255273.79999995232,7134,zinc,NF,C,248436,248437,246807,247720,246807,248935,248237,248237,248935,31
31,test,1,con,1,m,Wed Apr 30 2025 12:29:15 GMT-0500 (Central Daylight Time),259485.70000004768,lead,900,I,m,m,None,637,437.0,200.0,122,1,2079.3000000715256,257406.39999997616,7134,lead,NF,C,250570,250570,248939,249853,248940,251019,250369,250369,251019,32
32,test,1,inc,1,z,Wed Apr 30 2025 12:29:15 GMT-0500 (Central Daylight Time),261550.5,iron,900,I,z,z,None,643,444.0,199.0,38,1,2061.600000023842,259488.89999997616,7134,lime,NF,C,252635,252635,251022,251934,251022,253084,252436,252436,253084,33
33,test,1,con,1,z,Wed Apr 30 2025 12:29:15 GMT-0500 (Central Daylight Time),263901.60000002384,plum,1100,I,z,z,None,715,515.0,200.0,60,1,2346.899999976158,261554.70000004768,7134,plum,NF,C,254918,254918,253088,254202,253088,255435,254718,254718,255435,34
34,test,1,con,1,z,Wed Apr 30 2025 12:29:15 GMT-0500 (Central Daylight Time),265999.39999997616,cherry,1000,I,z,z,None,560,360.0,200.0,11,1,2093.100000023842,263906.2999999523,7134,cherry,NF,C,257167,257167,255439,256451,255440,257533,256967,256967,257532,35
35,test,1,inc,1,m,Wed Apr 30 2025 12:29:15 GMT-0500 (Central Daylight Time),268265.2999999523,raisin,1100,I,m,m,None,615,400.0,215.0,96,1,2260.899999976158,266004.39999997616,7134,cobalt,NF,C,259384,259384,257537,258650,257538,259798,259168,259168,259798,36
36,test,1,con,1,z,Wed Apr 30 2025 12:29:15 GMT-0500 (Central Daylight Time),270497.7000000477,lime,1100,I,z,z,None,584,384.0,200.0,36,1,2226.100000023842,268271.60000002384,7134,lime,NF,C,261633,261633,259805,260916,259805,262031,261433,261433,262031,37
37,test,1,inc,1,z,Wed Apr 30 2025 12:29:15 GMT-0500 (Central Daylight Time),272530.5,gold,800,I,z,z,None,683,483.0,200.0,53,1,2027.7000000476837,270502.7999999523,7134,kiwi,NF,C,263566,263566,262036,262849,262036,264064,263365,263365,264064,38
38,test,1,inc,1,m,Wed Apr 30 2025 12:29:15 GMT-0500 (Central Daylight Time),274800.7999999523,kiwi,1000,I,m,m,None,722,523.0,199.0,119,1,2265.5,272535.2999999523,7134,zinc,NF,C,265795,265795,264068,265078,264069,266334,265595,265595,266334,39
39,test,1,con,1,z,Wed Apr 30 2025 12:29:15 GMT-0500 (Central Daylight Time),276896.5,raisin,900,I,z,z,None,676,463.0,213.0,26,1,2091.7999999523163,274804.7000000477,7134,raisin,NF,C,267960,267960,266338,267244,266338,268430,267747,267747,268429,40
40,test,1,con,1,z,Wed Apr 30 2025 12:29:15 GMT-0500 (Central Daylight Time),279094.60000002384,banana,1100,I,z,z,None,560,361.0,199.0,4,1,2194.0,276900.60000002384,7134,banana,NF,C,270262,270262,268434,269546,268434,270628,270063,270063,270628,41
41,test,1,con,1,z,Wed Apr 30 2025 12:29:15 GMT-0500 (Central Daylight Time),281013.7999999523,kiwi,800,I,z,z,None,573,374.0,199.0,49,1,1914.8999999761581,279098.89999997616,7134,kiwi,NF,C,272161,272161,270632,271445,270632,272547,271962,271962,272547,42
42,test,1,inc,1,z,Wed Apr 30 2025 12:29:15 GMT-0500 (Central Daylight Time),283109.10000002384,iron,900,I,z,z,None,655,452.0,203.0,46,1,2090.8000000715256,281018.2999999523,7134,pear,NF,C,274178,274178,272551,273461,272552,274642,273975,273975,274642,43
43,test,1,con,1,z,Wed Apr 30 2025 12:29:15 GMT-0500 (Central Daylight Time),285226.2999999523,kiwi,1000,I,z,z,None,566,366.0,200.0,51,1,2113.5,283112.7999999523,7134,kiwi,NF,C,276378,276378,274646,275660,274646,276759,276178,276178,276759,44
44,test,1,con,1,m,Wed Apr 30 2025 12:29:15 GMT-0500 (Central Daylight Time),287358.39999997616,lead,1100,I,m,m,None,502,302.0,200.0,124,1,2126.6999999284744,285231.7000000477,7134,lead,NF,C,278576,278576,276765,277874,276765,278891,278376,278376,278891,45
45,test,1,inc,1,m,Wed Apr 30 2025 12:29:15 GMT-0500 (Central Daylight Time),289476.2000000477,cherry,900,I,m,m,None,684,484.0,200.0,70,1,2114.8000000715256,287361.39999997616,7134,bronze,NF,C,280510,280510,278894,279809,278895,281009,280310,280310,281009,46
46,test,1,inc,1,m,Wed Apr 30 2025 12:29:15 GMT-0500 (Central Daylight Time),291755.7999999523,raisin,1100,I,m,m,None,645,445.0,200.0,88,1,2274.0999999046326,289481.7000000477,7134,silver,NF,C,282841,282841,281015,282126,281015,283289,282640,282640,283289,47
47,test,1,inc,1,z,Wed Apr 30 2025 12:29:15 GMT-0500 (Central Daylight Time),293805.10000002384,silver,1000,I,z,z,None,509,293.0,216.0,15,1,2046.7000000476837,291758.39999997616,7134,cherry,NF,C,285041,285041,283291,284307,283292,285338,284825,284825,285338,48
48,test,1,inc,1,z,Wed Apr 30 2025 12:29:15 GMT-0500 (Central Daylight Time),295922.2000000477,iron,900,I,z,z,None,668,468.0,200.0,54,1,2113.600000023842,293808.60000002384,7134,kiwi,NF,C,286971,286971,285342,286256,285342,287455,286771,286771,287455,49
49,test,1,con,1,z,Wed Apr 30 2025 12:29:15 GMT-0500 (Central Daylight Time),298125.2000000477,kiwi,1100,I,z,z,None,555,354.0,201.0,52,1,2198.8000000715256,295926.39999997616,7134,kiwi,NF,C,289289,289289,287459,288572,287460,289658,289087,289087,289658,50
50,test,1,inc,1,m,Wed Apr 30 2025 12:29:15 GMT-0500 (Central Daylight Time),300138.7000000477,pear,900,I,m,m,None,589,374.0,215.0,126,1,2010.7000000476837,298128.0,7134,lead,NF,C,291289,291289,289661,290572,289661,291672,291074,291074,291672,51
51,test,1,inc,1,m,Wed Apr 30 2025 12:29:15 GMT-0500 (Central Daylight Time),302471.2999999523,plum,1100,I,m,m,None,685,485.0,200.0,112,1,2328.0999999046326,300143.2000000477,7134,iron,NF,C,293505,293505,291676,292790,291677,294004,293305,293305,294004,52
52,test,1,inc,1,m,Wed Apr 30 2025 12:29:15 GMT-0500 (Central Daylight Time),304620.7000000477,orange,1000,I,m,m,None,605,404.0,201.0,87,1,2144.3000000715256,302476.39999997616,7134,silver,NF,C,295738,295738,294009,295022,294010,296154,295537,295537,296154,53
53,test,1,con,1,z,Wed Apr 30 2025 12:29:15 GMT-0500 (Central Daylight Time),307134.89999997616,pear,1000,I,z,z,None,973,774.0,199.0,43,1,2511.600000023842,304623.2999999523,7134,pear,NF,C,297888,297888,296156,297172,296157,298668,297688,297688,298668,54
54,test,1,inc,1,z,Wed Apr 30 2025 12:29:15 GMT-0500 (Central Daylight Time),309419.7000000477,zinc,1000,I,z,z,None,739,540.0,199.0,39,1,2282.100000023842,307137.60000002384,7134,lime,NF,C,300403,300403,298671,299687,298671,300953,300203,300203,300953,55
55,test,1,con,1,z,Wed Apr 30 2025 12:29:15 GMT-0500 (Central Daylight Time),311419.7000000477,pear,900,I,z,z,None,557,358.0,199.0,42,1,1995.8000000715256,309423.89999997616,7134,pear,NF,C,302585,302585,300957,301869,300957,302953,302386,302386,302953,56
56,test,1,con,1,z,Wed Apr 30 2025 12:29:15 GMT-0500 (Central Daylight Time),313835.10000002384,banana,1000,I,z,z,None,866,667.0,199.0,3,1,2411.100000023842,311424.0,7134,banana,NF,C,304686,304686,302957,303968,302957,305368,304486,304486,305368,57
57,test,1,inc,1,m,Wed Apr 30 2025 12:29:15 GMT-0500 (Central Daylight Time),315950.7000000477,pear,900,I,m,m,None,669,454.0,215.0,102,1,2108.600000023842,313842.10000002384,7134,gold,NF,C,307016,307016,305375,306285,305376,307484,306801,306801,307484,58
58,test,1,con,1,z,Wed Apr 30 2025 12:29:15 GMT-0500 (Central Daylight Time),318066.2000000477,raisin,800,I,z,z,None,773,574.0,199.0,25,1,2109.9000000953674,315956.2999999523,7134,raisin,NF,C,309017,309017,307489,308302,307490,309599,308818,308818,309599,59
59,test,1,inc,1,m,Wed Apr 30 2025 12:29:15 GMT-0500 (Central Daylight Time),319981.2000000477,banana,800,I,m,m,None,570,368.0,202.0,85,1,1910.1000000238419,318071.10000002384,7134,silver,NF,C,311134,311134,309604,310417,309604,311514,310932,310932,311514,60
60,test,1,con,1,m,Wed Apr 30 2025 12:29:15 GMT-0500 (Central Daylight Time),322481.2000000477,copper,800,I,m,m,None,1167,968.0,199.0,73,1,2494.5,319986.7000000477,7134,copper,NF,C,313032,313032,311520,312332,311520,314014,312833,312833,314014,61
61,test,1,con,1,z,Wed Apr 30 2025 12:29:15 GMT-0500 (Central Daylight Time),324482.60000002384,cherry,900,I,z,z,None,549,333.0,216.0,10,1,1996.0,322486.60000002384,7134,cherry,NF,C,315665,315665,314020,314934,314020,316016,315449,315449,316016,62
62,test,1,con,1,m,Wed Apr 30 2025 12:29:15 GMT-0500 (Central Daylight Time),326747.0,bronze,1000,I,m,m,None,724,523.0,201.0,67,1,2259.0,324488.0,7134,bronze,NF,C,317748,317748,316021,317032,316021,318280,317546,317546,318280,63
63,test,1,con,1,m,Wed Apr 30 2025 12:29:15 GMT-0500 (Central Daylight Time),328996.5,zinc,900,I,m,m,None,815,616.0,199.0,114,1,2245.0,326751.5,7134,zinc,NF,C,319913,319913,318285,319197,318285,320530,319713,319713,320530,64
64,test,1,con,1,m,Wed Apr 30 2025 12:29:15 GMT-0500 (Central Daylight Time),331045.89999997616,bronze,900,I,m,m,None,612,413.0,199.0,66,1,2044.6000000238419,329001.2999999523,7134,bronze,NF,C,322162,322162,320534,321447,320535,322579,321963,321963,322579,65
65,test,1,inc,1,z,Wed Apr 30 2025 12:29:15 GMT-0500 (Central Daylight Time),332961.60000002384,gold,800,I,z,z,None,590,390.0,200.0,37,1,1909.8999999761581,331051.7000000477,7134,lime,NF,C,324097,324097,322585,323395,322585,324495,323896,323896,324495,66
66,test,1,con,1,m,Wed Apr 30 2025 12:29:15 GMT-0500 (Central Daylight Time),335193.7000000477,silver,1100,I,m,m,None,590,390.0,200.0,84,1,2227.2000000476837,332966.5,7134,silver,NF,C,326329,326329,324500,325612,324500,326727,326129,326129,326727,67
66,test,1,inc,0,m,Wed Apr 30 2025 12:29:15 GMT-0500 (Central Daylight Time),337061.2000000477,lime,800,I,z,z,None,533,334.0,199.0,125,1,1862.5,335198.7000000477,7134,lead,NF,C,328260,328260,326732,327545,326732,328594,328061,328061,328594,68
67,test,1,inc,1,z,Wed Apr 30 2025 12:29:15 GMT-0500 (Central Daylight Time),339176.2000000477,zinc,1000,I,z,z,None,575,376.0,199.0,55,1,2109.600000023842,337066.60000002384,7134,kiwi,NF,C,330327,330327,328600,329609,328600,330709,330127,330127,330709,69
68,test,1,con,1,z,Wed Apr 30 2025 12:29:15 GMT-0500 (Central Daylight Time),341408.5,lime,1000,I,z,z,None,692,492.0,200.0,35,1,2228.7000000476837,339179.7999999523,7134,lime,NF,C,332443,332443,330713,331727,330713,332942,332243,332243,332942,70
69,test,1,con,1,m,Wed Apr 30 2025 12:29:15 GMT-0500 (Central Daylight Time),343741.7999999523,bronze,1100,I,m,m,None,686,471.0,215.0,68,1,2329.0999999046326,341412.7000000477,7134,bronze,NF,C,334791,334791,332946,334060,332946,335275,334576,334576,335275,71
70,test,1,con,1,m,Wed Apr 30 2025 12:29:15 GMT-0500 (Central Daylight Time),345941.10000002384,zinc,800,I,m,m,None,876,668.0,208.0,113,1,2193.899999976158,343747.2000000477,7134,zinc,NF,C,336805,336806,335280,336092,335281,337474,336597,336597,337474,72
71,test,1,inc,1,z,Wed Apr 30 2025 12:29:15 GMT-0500 (Central Daylight Time),348107.10000002384,silver,1000,I,z,z,None,617,418.0,199.0,23,1,2160.8000000715256,345946.2999999523,7134,orange,NF,C,339207,339207,337479,338490,337480,339640,339008,339008,339640,73
72,test,1,inc,1,z,Wed Apr 30 2025 12:29:15 GMT-0500 (Central Daylight Time),350389.60000002384,lead,1100,I,z,z,None,648,449.0,199.0,40,1,2277.399999976158,348112.2000000477,7134,lime,NF,C,341473,341473,339645,340757,339646,341923,341274,341274,341923,74
73,test,1,inc,1,z,Wed Apr 30 2025 12:29:15 GMT-0500 (Central Daylight Time),352338.7999999523,bronze,800,I,z,z,None,600,400.0,200.0,13,1,1943.2999999523163,350395.5,7134,cherry,NF,C,343456,343456,341929,342739,341929,343872,343256,343256,343872,75
74,test,1,inc,1,z,Wed Apr 30 2025 12:29:15 GMT-0500 (Central Daylight Time),355055.39999997616,cobalt,1100,I,z,z,None,1066,867.0,199.0,32,1,2711.6999999284744,352343.7000000477,7134,raisin,NF,C,345707,345707,343877,344989,343877,346588,345507,345507,346588,76
75,test,1,con,1,m,Wed Apr 30 2025 12:29:15 GMT-0500 (Central Daylight Time),356973.2999999523,gold,900,I,m,m,None,485,285.0,200.0,98,1,1911.5,355061.7999999523,7134,gold,NF,C,348221,348221,346595,347506,346595,348506,348020,348020,348506,77
76,test,1,inc,1,z,Wed Apr 30 2025 12:29:15 GMT-0500 (Central Daylight Time),359438.2999999523,cobalt,1100,I,z,z,None,823,620.0,203.0,24,1,2460.899999976158,356977.39999997616,7134,orange,NF,C,350339,350339,348510,349622,348511,350971,350136,350136,350971,78
77,test,1,con,1,m,Wed Apr 30 2025 12:29:15 GMT-0500 (Central Daylight Time),361252.7999999523,bronze,800,I,m,m,None,481,265.0,216.0,65,1,1809.5,359443.2999999523,7134,bronze,NF,C,352520,352520,350976,351787,350977,352786,352304,352304,352786,79
78,test,1,con,1,m,Wed Apr 30 2025 12:29:15 GMT-0500 (Central Daylight Time),363201.0,lead,800,I,m,m,None,599,400.0,199.0,121,1,1944.0,361257.0,7134,lead,NF,C,354320,354320,352790,353602,352790,354734,354120,354120,354734,80
79,test,1,inc,1,z,Wed Apr 30 2025 12:29:15 GMT-0500 (Central Daylight Time),365185.0,copper,900,I,z,z,None,534,334.0,200.0,30,1,1978.7999999523163,363206.2000000477,7134,raisin,NF,C,356369,356369,354739,355652,354740,356718,356169,356169,356718,81
80,test,1,con,1,m,Wed Apr 30 2025 12:29:15 GMT-0500 (Central Daylight Time),367199.7000000477,silver,900,I,m,m,None,576,375.0,201.0,82,1,2009.1000000238419,365190.60000002384,7134,silver,NF,C,358352,358352,356724,357635,356724,358733,358151,358151,358733,82
81,test,1,inc,1,m,Wed Apr 30 2025 12:29:15 GMT-0500 (Central Daylight Time),369249.39999997616,banana,800,I,m,m,None,709,505.0,204.0,93,1,2045.6000000238419,367203.7999999523,7134,cobalt,NF,C,360270,360270,358737,359552,358737,360782,360066,360066,360782,83
82,test,1,inc,1,z,Wed Apr 30 2025 12:29:15 GMT-0500 (Central Daylight Time),371415.5,silver,1000,I,z,z,None,623,408.0,215.0,7,1,2161.7000000476837,369253.7999999523,7134,banana,NF,C,362534,362534,360787,361801,360787,362949,362318,362318,362949,84
83,test,1,con,1,z,Wed Apr 30 2025 12:29:15 GMT-0500 (Central Daylight Time),373764.0,cherry,1100,I,z,z,None,720,520.0,200.0,12,1,2344.399999976158,371419.60000002384,7134,cherry,NF,C,364766,364766,362953,364065,362953,365297,364566,364566,365297,85
84,test,1,inc,1,z,Wed Apr 30 2025 12:29:15 GMT-0500 (Central Daylight Time),375998.60000002384,lead,1100,I,z,z,None,594,378.0,216.0,56,1,2228.0,373770.60000002384,7134,kiwi,NF,C,367149,367149,365304,366416,365304,367532,366932,366932,367532,86
85,test,1,con,1,z,Wed Apr 30 2025 12:29:15 GMT-0500 (Central Daylight Time),377980.60000002384,pear,800,I,z,z,None,648,432.0,216.0,41,1,1977.8999999761581,376002.7000000477,7134,pear,NF,C,369081,369081,367536,368350,367536,369514,368865,368865,369514,87
86,test,1,con,1,m,Wed Apr 30 2025 12:29:15 GMT-0500 (Central Daylight Time),380296.2999999523,zinc,1100,I,m,m,None,667,468.0,199.0,116,1,2310.6999999284744,377985.60000002384,7134,zinc,NF,C,371346,371346,369519,370631,369519,371829,371147,371147,371829,88
87,test,1,inc,1,z,Wed Apr 30 2025 12:29:15 GMT-0500 (Central Daylight Time),382296.5,copper,900,I,z,z,None,551,352.0,199.0,22,1,1994.5,380302.0,7134,orange,NF,C,373463,373463,371835,372746,371836,373830,373263,373263,373830,89
88,test,1,inc,1,z,Wed Apr 30 2025 12:29:15 GMT-0500 (Central Daylight Time),384131.10000002384,gold,800,I,z,z,None,491,290.0,201.0,45,1,1829.5,382301.60000002384,7134,pear,NF,C,375364,375364,373835,374646,373835,375664,375161,375162,375664,90
89,test,1,inc,1,m,Wed Apr 30 2025 12:29:15 GMT-0500 (Central Daylight Time),386194.7999999523,cherry,900,I,m,m,None,616,416.0,200.0,86,1,2057.6999999284744,384137.10000002384,7134,silver,NF,C,377296,377296,375670,376578,375671,377728,377095,377095,377728,91
90,test,1,con,1,m,Wed Apr 30 2025 12:29:15 GMT-0500 (Central Daylight Time),388076.89999997616,cobalt,800,I,m,m,None,535,336.0,199.0,89,1,1876.2999999523163,386200.60000002384,7134,cobalt,NF,C,379262,379262,377734,378546,377734,379610,379062,379062,379610,92
91,test,1,inc,1,m,Wed Apr 30 2025 12:29:15 GMT-0500 (Central Daylight Time),390342.60000002384,plum,1100,I,m,m,None,618,418.0,200.0,104,1,2262.3000000715256,388080.2999999523,7134,gold,NF,C,381444,381444,379613,380728,379614,381876,381244,381244,381876,93
92,test,1,con,1,z,Wed Apr 30 2025 12:29:15 GMT-0500 (Central Daylight Time),392575.5,lime,900,I,z,z,None,799,584.0,215.0,34,1,2227.5,390348.0,7134,lime,NF,C,383510,383510,381881,382794,381881,384109,383295,383295,384109,94
93,test,1,inc,1,m,Wed Apr 30 2025 12:29:15 GMT-0500 (Central Daylight Time),394608.7000000477,kiwi,1000,I,m,m,None,507,292.0,215.0,103,1,2027.8000000715256,392580.89999997616,7134,gold,NF,C,385843,385843,384114,385124,384114,386142,385627,385627,386142,95
94,test,1,inc,1,z,Wed Apr 30 2025 12:29:15 GMT-0500 (Central Daylight Time),396708.7000000477,silver,1000,I,z,z,None,567,367.0,200.0,31,1,2095.3000000715256,394613.39999997616,7134,raisin,NF,C,387875,387875,386146,387160,386147,388242,387675,387675,388242,96
95,test,1,inc,1,z,Wed Apr 30 2025 12:29:15 GMT-0500 (Central Daylight Time),398706.2999999523,bronze,800,I,z,z,None,656,456.0,200.0,5,1,1992.6999999284744,396713.60000002384,7134,banana,NF,C,389774,389774,388247,389058,388247,390239,389574,389574,390239,97
96,test,1,con,1,z,Wed Apr 30 2025 12:29:15 GMT-0500 (Central Daylight Time),400525.0,banana,800,I,z,z,None,484,284.0,200.0,1,1,1814.2000000476837,398710.7999999523,7134,banana,NF,C,391774,391774,390244,391058,390244,392058,391574,391574,392058,98
97,test,1,inc,1,m,Wed Apr 30 2025 12:29:15 GMT-0500 (Central Daylight Time),402472.89999997616,cherry,900,I,m,m,None,509,310.0,199.0,78,1,1943.3999999761581,400529.5,7134,copper,NF,C,393689,393689,392063,392974,392063,394006,393490,393490,394006,99
98,test,1,inc,1,m,Wed Apr 30 2025 12:29:15 GMT-0500 (Central Daylight Time),404739.5,raisin,1100,I,m,m,None,623,422.0,201.0,72,1,2261.5,402478.0,7134,bronze,NF,C,395840,395840,394011,395122,394012,396273,395638,395638,396273,100
99,test,1,inc,1,z,Wed Apr 30 2025 12:29:15 GMT-0500 (Central Daylight Time),406704.7999999523,copper,900,I,z,z,None,517,317.0,200.0,14,1,1960.3999999761581,404744.39999997616,7134,cherry,NF,C,397906,397906,396277,397189,396278,398238,397705,397705,398238,101
100,test,1,inc,1,m,Wed Apr 30 2025 12:29:15 GMT-0500 (Central Daylight Time),408737.7999999523,kiwi,1000,I,m,m,None,486,285.0,201.0,111,1,2028.6999999284744,406709.10000002384,7134,iron,NF,C,399971,399971,398242,399255,398243,400271,399770,399770,400271,102
101,test,1,inc,1,m,Wed Apr 30 2025 12:29:15 GMT-0500 (Central Daylight Time),410919.39999997616,orange,1000,I,m,m,None,643,427.0,216.0,95,1,2176.5,408742.89999997616,7134,cobalt,NF,C,402020,402020,400276,401289,400276,402452,401804,401804,402452,103
102,test,1,con,1,m,Wed Apr 30 2025 12:29:15 GMT-0500 (Central Daylight Time),413203.60000002384,gold,1100,I,m,m,None,653,441.0,212.0,100,1,2278.7000000476837,410924.89999997616,7134,gold,NF,C,404286,404286,402458,403569,402458,404737,404073,404073,404737,104
103,test,1,con,1,z,Wed Apr 30 2025 12:29:15 GMT-0500 (Central Daylight Time),415136.10000002384,plum,800,I,z,z,None,594,394.0,200.0,57,1,1927.3999999761581,413208.7000000477,7134,plum,NF,C,406269,406269,404742,405554,404742,406669,406069,406069,406669,105
104,test,1,inc,1,z,Wed Apr 30 2025 12:29:15 GMT-0500 (Central Daylight Time),417350.7999999523,cobalt,1100,I,z,z,None,590,376.0,214.0,8,1,2208.6999999284744,415142.10000002384,7134,banana,NF,C,408502,408502,406675,407786,406676,408884,408288,408288,408884,106
105,test,1,con,1,z,Wed Apr 30 2025 12:29:15 GMT-0500 (Central Daylight Time),419852.2999999523,pear,1100,I,z,z,None,850,651.0,199.0,44,1,2497.5999999046326,417354.7000000477,7134,pear,NF,C,410718,410718,408888,410001,408888,411385,410519,410519,411385,107
106,test,1,inc,1,m,Wed Apr 30 2025 12:29:15 GMT-0500 (Central Daylight Time),421900.5,pear,900,I,m,m,None,615,416.0,199.0,110,1,2042.6000000238419,419857.89999997616,7134,iron,NF,C,413017,413017,411391,412302,411391,413434,412817,412817,413434,108
107,test,1,con,1,m,Wed Apr 30 2025 12:29:15 GMT-0500 (Central Daylight Time),424015.7000000477,silver,800,I,m,m,None,766,567.0,199.0,81,1,2110.3000000715256,421905.39999997616,7134,silver,NF,C,414967,414967,413438,414250,413439,415549,414767,414767,415549,109
108,test,1,inc,1,z,Wed Apr 30 2025 12:29:15 GMT-0500 (Central Daylight Time),426131.5,gold,800,I,z,z,None,767,567.0,200.0,61,1,2111.7000000476837,424019.7999999523,7134,plum,NF,C,417083,417083,415553,416366,415553,417665,416882,416882,417665,110
109,test,1,con,1,z,Wed Apr 30 2025 12:29:15 GMT-0500 (Central Daylight Time),428364.2999999523,orange,1100,I,z,z,None,596,397.0,199.0,20,1,2229.0,426135.2999999523,7134,orange,NF,C,419497,419497,417668,418782,417669,419897,419297,419297,419897,111
110,test,1,inc,1,m,Wed Apr 30 2025 12:29:15 GMT-0500 (Central Daylight Time),430397.2000000477,orange,1000,I,m,m,None,494,295.0,199.0,79,1,2029.4000000953674,428367.7999999523,7134,copper,NF,C,421632,421632,419901,420914,419901,421930,421432,421432,421930,112
111,test,1,inc,1,m,Wed Apr 30 2025 12:29:15 GMT-0500 (Central Daylight Time),432413.0,banana,800,I,m,m,None,670,471.0,199.0,69,1,2008.7000000476837,430404.2999999523,7134,bronze,NF,C,423463,423463,421937,422748,421938,423946,423264,423264,423946,113
112,test,1,inc,1,z,Wed Apr 30 2025 12:29:15 GMT-0500 (Central Daylight Time),434397.39999997616,copper,900,I,z,z,None,550,350.0,200.0,6,1,1979.5,432417.89999997616,7134,banana,NF,C,425580,425580,423951,424863,423951,425930,425380,425380,425930,114
113,test,1,inc,1,z,Wed Apr 30 2025 12:29:15 GMT-0500 (Central Daylight Time),436711.7000000477,cobalt,1100,I,z,z,None,691,492.0,199.0,16,1,2310.8000000715256,434400.89999997616,7134,cherry,NF,C,427745,427746,425934,427045,425934,428245,427546,427546,428245,115
114,test,1,con,1,m,Wed Apr 30 2025 12:29:15 GMT-0500 (Central Daylight Time),438893.7999999523,copper,1100,I,m,m,None,551,351.0,200.0,76,1,2177.6999999284744,436716.10000002384,7134,copper,NF,C,430063,430063,428249,429361,428249,430427,429863,429863,430427,116
115,test,1,con,1,z,Wed Apr 30 2025 12:29:15 GMT-0500 (Central Daylight Time),440843.10000002384,banana,900,I,z,z,None,503,288.0,215.0,2,1,1945.6000000238419,438897.5,7134,banana,NF,C,432078,432078,430431,431346,430431,432376,431863,431863,432376,117
116,test,1,inc,1,z,Wed Apr 30 2025 12:29:15 GMT-0500 (Central Daylight Time),442909.2999999523,iron,900,I,z,z,None,630,429.0,201.0,62,1,2062.5,440846.7999999523,7134,plum,NF,C,434010,434010,432380,433294,432380,434442,433809,433809,434442,118
117,test,1,inc,1,m,Wed Apr 30 2025 12:29:15 GMT-0500 (Central Daylight Time),444876.7999999523,banana,800,I,m,m,None,632,433.0,199.0,77,1,1962.6999999284744,442914.10000002384,7134,copper,NF,C,435976,435976,434447,435260,434447,436410,435777,435777,436410,119
118,test,1,inc,1,m,Wed Apr 30 2025 12:29:15 GMT-0500 (Central Daylight Time),447059.0,cherry,900,I,m,m,None,739,540.0,199.0,94,1,2177.399999976158,444881.60000002384,7134,cobalt,NF,C,438042,438043,436415,437327,436415,438592,437843,437843,438592,120
119,test,1,con,1,z,Wed Apr 30 2025 12:29:15 GMT-0500 (Central Daylight Time),449257.7000000477,plum,1000,I,z,z,None,658,459.0,199.0,59,1,2194.0,447063.7000000477,7134,plum,NF,C,440324,440324,438597,439609,438597,440791,440125,440125,440791,121
120,test,1,con,1,m,Wed Apr 30 2025 12:29:15 GMT-0500 (Central Daylight Time),451340.2999999523,copper,900,I,m,m,None,632,433.0,199.0,74,1,2078.0999999046326,449262.2000000477,7134,copper,NF,C,442425,442425,440795,441709,440795,442873,442225,442225,442873,122
121,test,1,con,1,m,Wed Apr 30 2025 12:29:15 GMT-0500 (Central Daylight Time),453737.7000000477,zinc,1000,I,m,m,None,862,662.0,200.0,115,1,2392.600000023842,451345.10000002384,7134,zinc,NF,C,444608,444608,442878,443890,442878,445271,444408,444408,445271,123
122,test,1,con,1,z,Wed Apr 30 2025 12:29:15 GMT-0500 (Central Daylight Time),455771.7000000477,raisin,1100,I,z,z,None,390,190.0,200.0,28,1,2030.7000000476837,453741.0,7134,raisin,NF,C,447105,447105,445274,446390,445274,447305,446905,446905,447305,124
123,test,1,con,1,z,Wed Apr 30 2025 12:29:15 GMT-0500 (Central Daylight Time),457921.7999999523,plum,900,I,z,z,None,708,491.0,217.0,58,1,2145.6999999284744,455776.10000002384,7134,plum,NF,C,448956,448956,447309,448222,447309,449455,448739,448739,449455,125
124,test,1,con,1,z,Wed Apr 30 2025 12:29:15 GMT-0500 (Central Daylight Time),460037.5,raisin,1000,I,z,z,None,569,352.0,217.0,27,1,2111.7999999523163,457925.7000000477,7134,raisin,NF,C,451206,451206,449459,450472,449459,451571,450989,450989,451571,126
125,test,1,con,1,m,Wed Apr 30 2025 12:29:15 GMT-0500 (Central Daylight Time),462105.39999997616,lead,1000,I,m,m,None,517,317.0,200.0,123,1,2062.7999999523163,460042.60000002384,7134,lead,NF,C,453305,453305,451576,452588,451576,453638,453104,453105,453638,127
126,test,1,con,1,m,Wed Apr 30 2025 12:29:15 GMT-0500 (Central Daylight Time),464336.7000000477,cobalt,1100,I,m,m,None,609,409.0,200.0,92,1,2225.8000000715256,462110.89999997616,7134,cobalt,NF,C,455454,455454,453644,454753,453644,455870,455254,455254,455870,128
