acc_sum,block,block_c,condition,correct,correct_response,datetime,endtime,flanker,jitter,project,response,response_test_buffer_response,response_test_target_response,response_time,response_time_test_buffer_response,response_time_test_target_response,row_sel,session_number,start_end,starttime,subject_id,target,task,task_vers,time_test_buffer,time_test_buffer_response,time_test_constants,time_test_flanker,time_test_jitter,time_test_logger,time_test_target,time_test_target_response,time_test_variables,trial
0,prac,1,inc,0,m,Mon Mar 03 2025 14:38:45 GMT-0600 (Central Standard Time),133129.09999999998,raisin,1100,I,None,,,1815,,,12,1,5177.20000000007,127951.8999999999,7053,cobalt,NF,C,,,,,,,,,,1
1,prac,1,con,1,z,Mon Mar 03 2025 14:38:45 GMT-0600 (Central Standard Time),136229.3999999999,lime,800,I,z,,,994,,,5,1,3095.0999999999767,133134.29999999993,7053,lime,NF,C,,,,,,,,,,2
1,prac,1,inc,0,z,Mon Mar 03 2025 14:38:45 GMT-0600 (Central Standard Time),138743.79999999993,cobalt,1100,I,m,,,115,,,4,1,2509.5,136234.29999999993,7053,raisin,NF,C,,,,,,,,,,3
2,prac,1,con,1,z,Mon Mar 03 2025 14:38:45 GMT-0600 (Central Standard Time),141803.0,kiwi,1000,I,z,,,763,,,7,1,3054.5,138748.5,7053,kiwi,NF,C,,,,,,,,,,4
3,prac,1,inc,1,z,Mon Mar 03 2025 14:38:45 GMT-0600 (Central Standard Time),144775.3999999999,lead,1100,I,z,,,564,,,8,1,2966.5999999999767,141808.79999999993,7053,plum,NF,C,,,,,,,,,,5
4,prac,1,con,1,z,Mon Mar 03 2025 14:38:45 GMT-0600 (Central Standard Time),147741.09999999998,banana,800,I,z,,,785,,,1,1,2961.4000000000233,144779.69999999995,7053,banana,NF,C,,,,,,,,,,6
5,prac,1,inc,1,m,Mon Mar 03 2025 14:38:45 GMT-0600 (Central Standard Time),150556.79999999993,plum,1100,I,m,,,402,,,16,1,2809.6999999999534,147747.09999999998,7053,lead,NF,C,,,,,,,,,,7
6,prac,1,con,1,m,Mon Mar 03 2025 14:38:45 GMT-0600 (Central Standard Time),153405.8999999999,silver,1000,I,m,,,542,,,11,1,2844.79999999993,150561.09999999998,7053,silver,NF,C,,,,,,,,,,8
7,prac,1,con,1,z,Mon Mar 03 2025 14:38:45 GMT-0600 (Central Standard Time),156305.09999999998,orange,1000,I,z,,,597,,,3,1,2895.0,153410.09999999998,7053,orange,NF,C,,,,,,,,,,9
8,prac,1,con,1,m,Mon Mar 03 2025 14:38:45 GMT-0600 (Central Standard Time),159320.8999999999,zinc,1000,I,m,,,706,,,15,1,3011.0,156309.8999999999,7053,zinc,NF,C,,,,,,,,,,10
9,prac,1,con,1,m,Mon Mar 03 2025 14:38:45 GMT-0600 (Central Standard Time),161836.59999999986,bronze,800,I,m,,,410,,,9,1,2511.0,159325.59999999986,7053,bronze,NF,C,,,,,,,,,,11
10,prac,1,inc,1,m,Mon Mar 03 2025 14:38:45 GMT-0600 (Central Standard Time),164652.59999999986,pear,900,I,m,,,602,,,14,1,2811.899999999907,161840.69999999995,7053,iron,NF,C,,,,,,,,,,12
11,prac,1,inc,1,z,Mon Mar 03 2025 14:38:45 GMT-0600 (Central Standard Time),167368.0,copper,900,I,z,,,513,,,2,1,2711.3000000000466,164656.69999999995,7053,cherry,NF,C,,,,,,,,,,13
12,prac,1,inc,1,m,Mon Mar 03 2025 14:38:45 GMT-0600 (Central Standard Time),170134.30000000005,cherry,900,I,m,,,557,,,10,1,2761.2000000001863,167373.09999999986,7053,copper,NF,C,,,,,,,,,,14
13,prac,1,inc,1,z,Mon Mar 03 2025 14:38:45 GMT-0600 (Central Standard Time),172916.30000000005,iron,900,I,z,,,568,,,6,1,2777.600000000093,170138.69999999995,7053,pear,NF,C,,,,,,,,,,15
14,prac,1,con,1,m,Mon Mar 03 2025 14:38:45 GMT-0600 (Central Standard Time),175582.09999999986,gold,800,I,m,,,549,,,13,1,2661.5,172920.59999999986,7053,gold,NF,C,,,,,,,,,,16
1,test,1,inc,1,m,Mon Mar 03 2025 14:38:45 GMT-0600 (Central Standard Time),191210.8999999999,lime,800,I,m,m,None,497,297.0,200.0,117,1,1829.3999999999069,189381.5,7053,zinc,NF,C,187230,187230,185700,186514,185701,187530,187030,187030,187530,1
2,test,1,con,1,z,Mon Mar 03 2025 14:38:45 GMT-0600 (Central Standard Time),193576.80000000005,kiwi,1000,I,z,z,None,838,624.0,214.0,51,1,2361.3000000000466,191215.5,7053,kiwi,NF,C,189263,189263,187534,188547,187535,189896,189049,189049,189896,2
3,test,1,con,1,z,Mon Mar 03 2025 14:38:45 GMT-0600 (Central Standard Time),195759.3999999999,lime,1000,I,z,z,None,641,442.0,199.0,35,1,2178.3000000000466,193581.09999999986,7053,lime,NF,C,191629,191629,189900,190912,189901,192078,191429,191429,192078,3
4,test,1,con,1,m,Mon Mar 03 2025 14:38:45 GMT-0600 (Central Standard Time),197941.8999999999,silver,1100,I,m,m,None,534,335.0,199.0,84,1,2178.3000000000466,195763.59999999986,7053,silver,NF,C,193911,193912,192083,193195,192083,194261,193712,193712,194261,4
5,test,1,inc,1,m,Mon Mar 03 2025 14:38:45 GMT-0600 (Central Standard Time),199991.5,cherry,900,I,m,m,None,601,401.0,200.0,70,1,2045.3000000000466,197946.19999999995,7053,bronze,NF,C,195894,195894,194265,195178,194266,196311,195694,195694,196311,5
6,test,1,con,1,m,Mon Mar 03 2025 14:38:45 GMT-0600 (Central Standard Time),202140.80000000005,cobalt,1100,I,m,m,None,510,311.0,199.0,92,1,2145.4000000001397,199995.3999999999,7053,cobalt,NF,C,198144,198144,196314,197427,196315,198460,197944,197944,198460,6
7,test,1,inc,1,z,Mon Mar 03 2025 14:38:45 GMT-0600 (Central Standard Time),204140.19999999995,copper,900,I,z,z,None,562,362.0,200.0,30,1,1995.1000000000931,202145.09999999986,7053,raisin,NF,C,200093,200093,198464,199376,198464,200459,199893,199893,200459,7
8,test,1,inc,1,z,Mon Mar 03 2025 14:38:45 GMT-0600 (Central Standard Time),206422.69999999995,lead,1100,I,z,z,None,643,443.0,200.0,40,1,2278.5,204144.19999999995,7053,lime,NF,C,202292,202292,200463,201576,200464,202742,202092,202092,202742,8
9,test,1,inc,1,m,Mon Mar 03 2025 14:38:45 GMT-0600 (Central Standard Time),208771.8999999999,raisin,1100,I,m,m,None,703,504.0,199.0,80,1,2345.0,206426.8999999999,7053,copper,NF,C,204575,204575,202746,203859,202746,205091,204375,204375,205091,9
10,test,1,con,1,m,Mon Mar 03 2025 14:38:45 GMT-0600 (Central Standard Time),210704.69999999995,bronze,900,I,m,m,None,499,299.0,200.0,66,1,1928.6999999999534,208776.0,7053,bronze,NF,C,206724,206724,205095,206008,205095,207024,206524,206524,207024,10
11,test,1,con,1,m,Mon Mar 03 2025 14:38:45 GMT-0600 (Central Standard Time),212504.09999999986,copper,800,I,m,m,None,458,258.0,200.0,73,1,1794.7999999998137,210709.30000000005,7053,copper,NF,C,208557,208557,207028,207840,207029,208823,208357,208357,208823,11
12,test,1,con,1,m,Mon Mar 03 2025 14:38:45 GMT-0600 (Central Standard Time),214286.8999999999,cobalt,800,I,m,m,None,435,235.0,200.0,89,1,1778.3000000000466,212508.59999999986,7053,cobalt,NF,C,210356,210356,208828,209640,208828,210606,210156,210156,210606,12
13,test,1,con,1,z,Mon Mar 03 2025 14:38:45 GMT-0600 (Central Standard Time),216117.30000000005,pear,900,I,z,z,None,397,197.0,200.0,42,1,1826.4000000001397,214290.8999999999,7053,pear,NF,C,212239,212239,210610,211523,210610,212436,212039,212039,212436,13
14,test,1,inc,1,m,Mon Mar 03 2025 14:38:45 GMT-0600 (Central Standard Time),218002.30000000005,banana,800,I,m,m,None,547,347.0,200.0,77,1,1880.8000000000466,216121.5,7053,copper,NF,C,213972,213972,212441,213255,212441,214321,213772,213772,214321,14
15,test,1,con,1,m,Mon Mar 03 2025 14:38:45 GMT-0600 (Central Standard Time),220035.09999999986,copper,1000,I,m,m,None,495,280.0,215.0,75,1,2028.7999999998137,218006.30000000005,7053,copper,NF,C,216071,216071,214325,215338,214326,216354,215856,215856,216354,15
16,test,1,con,1,z,Mon Mar 03 2025 14:38:45 GMT-0600 (Central Standard Time),221934.5,lime,900,I,z,z,None,460,260.0,200.0,34,1,1895.6000000000931,220038.8999999999,7053,lime,NF,C,217987,217987,216358,217271,216358,218254,217787,217787,218254,16
17,test,1,inc,1,z,Mon Mar 03 2025 14:38:45 GMT-0600 (Central Standard Time),224033.80000000005,zinc,1000,I,z,z,None,555,356.0,199.0,63,1,2095.3000000000466,221938.5,7053,plum,NF,C,219987,219987,218258,219270,218258,220353,219787,219787,220353,17
18,test,1,con,1,z,Mon Mar 03 2025 14:38:45 GMT-0600 (Central Standard Time),225916.5,banana,800,I,z,z,None,545,345.0,200.0,1,1,1878.4000000001397,224038.09999999986,7053,banana,NF,C,221886,221886,220357,221170,220357,222236,221686,221686,222236,18
19,test,1,con,1,z,Mon Mar 03 2025 14:38:45 GMT-0600 (Central Standard Time),228132.5,cherry,1100,I,z,z,None,594,395.0,199.0,12,1,2212.3000000000466,225920.19999999995,7053,cherry,NF,C,224052,224052,222239,223352,222240,224452,223853,223853,224452,19
20,test,1,inc,1,z,Mon Mar 03 2025 14:38:45 GMT-0600 (Central Standard Time),230048.5,gold,800,I,z,z,None,581,382.0,199.0,53,1,1911.8000000000466,228136.69999999995,7053,kiwi,NF,C,225985,225985,224456,225268,224456,226368,225785,225785,226367,20
21,test,1,inc,1,z,Mon Mar 03 2025 14:38:45 GMT-0600 (Central Standard Time),232164.69999999995,zinc,1000,I,z,z,None,577,378.0,199.0,47,1,2112.100000000093,230052.59999999986,7053,pear,NF,C,228101,228101,226372,227384,226372,228484,227901,227901,228484,21
22,test,1,con,1,z,Mon Mar 03 2025 14:38:45 GMT-0600 (Central Standard Time),234247.19999999995,orange,900,I,z,z,None,642,442.0,200.0,18,1,2077.600000000093,232169.59999999986,7053,orange,NF,C,230117,230117,228489,229401,228489,230566,229917,229917,230566,22
23,test,1,con,1,z,Mon Mar 03 2025 14:38:45 GMT-0600 (Central Standard Time),236313.3999999999,pear,1000,I,z,z,None,523,324.0,199.0,43,1,2061.5,234251.8999999999,7053,pear,NF,C,232299,232299,230571,231583,230571,232632,232100,232100,232632,23
24,test,1,con,1,z,Mon Mar 03 2025 14:38:45 GMT-0600 (Central Standard Time),238129.5,orange,800,I,z,z,None,472,273.0,199.0,17,1,1812.0,236317.5,7053,orange,NF,C,234166,234166,232637,233449,232637,234449,233966,233966,234449,24
25,test,1,con,1,m,Mon Mar 03 2025 14:38:45 GMT-0600 (Central Standard Time),240262.30000000005,silver,1000,I,m,m,None,483,277.0,206.0,83,1,2128.8000000000466,238133.5,7053,silver,NF,C,236298,236298,234453,235465,234453,236581,236092,236092,236581,25
26,test,1,con,1,z,Mon Mar 03 2025 14:38:45 GMT-0600 (Central Standard Time),242394.80000000005,pear,1100,I,z,z,None,489,289.0,200.0,44,1,2128.600000000093,240266.19999999995,7053,pear,NF,C,238414,238414,236585,237698,236586,238714,238214,238214,238714,26
27,test,1,con,1,z,Mon Mar 03 2025 14:38:45 GMT-0600 (Central Standard Time),244744.19999999995,banana,1000,I,z,z,None,808,608.0,200.0,3,1,2345.399999999907,242398.80000000005,7053,banana,NF,C,240447,240447,238718,239730,238718,241063,240247,240247,241063,27
28,test,1,inc,1,z,Mon Mar 03 2025 14:38:45 GMT-0600 (Central Standard Time),246660.0,gold,800,I,z,z,None,579,379.0,200.0,45,1,1911.3000000000466,244748.69999999995,7053,pear,NF,C,242596,242596,241068,241880,241068,242979,242396,242396,242979,28
29,test,1,con,1,m,Mon Mar 03 2025 14:38:45 GMT-0600 (Central Standard Time),248692.69999999995,copper,1100,I,m,m,None,395,195.0,200.0,76,1,2029.1999999999534,246663.5,7053,copper,NF,C,244812,244812,242983,244096,242983,245012,244612,244612,245012,29
30,test,1,con,1,z,Mon Mar 03 2025 14:38:45 GMT-0600 (Central Standard Time),250858.80000000005,lime,1100,I,z,z,None,522,322.0,200.0,36,1,2162.3000000000466,248696.5,7053,lime,NF,C,246845,246845,245016,246129,245016,247178,246645,246645,247178,30
31,test,1,inc,1,z,Mon Mar 03 2025 14:38:45 GMT-0600 (Central Standard Time),253224.69999999995,lead,1100,I,z,z,None,715,516.0,199.0,64,1,2362.100000000093,250862.59999999986,7053,plum,NF,C,249011,249011,247182,248294,247182,249544,248811,248811,249544,31
32,test,1,con,1,m,Mon Mar 03 2025 14:38:45 GMT-0600 (Central Standard Time),255224.19999999995,iron,1000,I,m,m,None,464,249.0,215.0,107,1,1995.6000000000931,253228.59999999986,7053,iron,NF,C,251293,251294,249548,250561,249548,251543,251078,251078,251543,32
33,test,1,con,1,z,Mon Mar 03 2025 14:38:45 GMT-0600 (Central Standard Time),257074.30000000005,plum,800,I,z,z,None,515,315.0,200.0,57,1,1846.0,255228.30000000005,7053,plum,NF,C,253076,253076,251547,252360,251548,253393,252876,252876,253393,33
34,test,1,con,1,z,Mon Mar 03 2025 14:38:45 GMT-0600 (Central Standard Time),258906.30000000005,kiwi,900,I,z,z,None,396,197.0,199.0,50,1,1828.4000000001397,257077.8999999999,7053,kiwi,NF,C,255026,255026,253397,254309,253397,255225,254826,254826,255225,34
35,test,1,inc,1,z,Mon Mar 03 2025 14:38:45 GMT-0600 (Central Standard Time),260773.19999999995,gold,800,I,z,z,None,519,320.0,199.0,37,1,1863.1000000000931,258910.09999999986,7053,lime,NF,C,256758,256759,255229,256042,255230,257092,256559,256559,257092,35
36,test,1,con,1,z,Mon Mar 03 2025 14:38:45 GMT-0600 (Central Standard Time),262721.69999999995,plum,1000,I,z,z,None,414,215.0,199.0,59,1,1944.6000000000931,260777.09999999986,7053,plum,NF,C,258824,258824,257096,258108,257097,259041,258625,258625,259041,36
37,test,1,inc,1,m,Mon Mar 03 2025 14:38:45 GMT-0600 (Central Standard Time),264687.80000000005,pear,900,I,m,m,None,525,325.0,200.0,110,1,1962.3000000000466,262725.5,7053,iron,NF,C,260674,260674,259045,259957,259045,261007,260474,260474,261007,37
38,test,1,inc,1,z,Mon Mar 03 2025 14:38:45 GMT-0600 (Central Standard Time),266603.69999999995,copper,900,I,z,z,None,479,279.0,200.0,6,1,1912.1000000000931,264691.59999999986,7053,banana,NF,C,262640,262640,261011,261923,261011,262923,262440,262440,262923,38
39,test,1,inc,1,z,Mon Mar 03 2025 14:38:45 GMT-0600 (Central Standard Time),268603.19999999995,iron,900,I,z,z,None,554,355.0,199.0,62,1,1995.3000000000466,266607.8999999999,7053,plum,NF,C,264556,264556,262927,263840,262927,264922,264356,264356,264922,39
40,test,1,inc,1,z,Mon Mar 03 2025 14:38:45 GMT-0600 (Central Standard Time),270752.5,cobalt,1100,I,z,z,None,516,316.0,200.0,8,1,2145.4000000001397,268607.09999999986,7053,banana,NF,C,266755,266755,264926,266039,264926,267072,266555,266555,267072,40
41,test,1,inc,1,m,Mon Mar 03 2025 14:38:45 GMT-0600 (Central Standard Time),272801.8999999999,cherry,900,I,m,m,None,605,390.0,215.0,94,1,2045.8000000000466,270756.09999999986,7053,cobalt,NF,C,268721,268721,267075,267988,267075,269121,268506,268506,269121,41
42,test,1,inc,1,m,Mon Mar 03 2025 14:38:45 GMT-0600 (Central Standard Time),274784.3999999999,pear,900,I,m,m,None,549,349.0,200.0,118,1,1977.3999999999069,272807.0,7053,zinc,NF,C,270754,270754,269126,270038,269126,271103,270554,270554,271103,42
43,test,1,inc,1,z,Mon Mar 03 2025 14:38:45 GMT-0600 (Central Standard Time),276884.0,silver,1000,I,z,z,None,553,354.0,199.0,31,1,2095.9000000001397,274788.09999999986,7053,raisin,NF,C,272837,272837,271107,272120,271107,273203,272637,272637,273203,43
44,test,1,con,1,z,Mon Mar 03 2025 14:38:45 GMT-0600 (Central Standard Time),278983.30000000005,cherry,1000,I,z,z,None,559,359.0,200.0,11,1,2095.100000000093,276888.19999999995,7053,cherry,NF,C,274936,274936,273207,274220,273208,275302,274736,274736,275302,44
44,test,1,inc,0,z,Mon Mar 03 2025 14:38:45 GMT-0600 (Central Standard Time),281015.80000000005,iron,900,I,m,m,None,582,383.0,199.0,46,1,2028.6000000000931,278987.19999999995,7053,pear,NF,C,276936,276936,275306,276219,275307,277335,276736,276736,277335,45
45,test,1,con,1,m,Mon Mar 03 2025 14:38:45 GMT-0600 (Central Standard Time),283181.8999999999,zinc,800,I,m,m,None,827,627.0,200.0,113,1,2162.1999999999534,281019.69999999995,7053,zinc,NF,C,278868,278868,277339,278152,277339,279501,278668,278668,279501,46
46,test,1,con,1,z,Mon Mar 03 2025 14:38:45 GMT-0600 (Central Standard Time),285097.8999999999,cherry,800,I,z,z,None,580,381.0,199.0,9,1,1911.8000000000466,283186.09999999986,7053,cherry,NF,C,281034,281034,279505,280318,279505,281417,280835,280835,281417,47
47,test,1,con,1,z,Mon Mar 03 2025 14:38:45 GMT-0600 (Central Standard Time),287314.0,banana,1100,I,z,z,None,525,321.0,204.0,4,1,2212.5,285101.5,7053,banana,NF,C,283302,283302,281421,282534,281421,283633,283098,283098,283633,48
48,test,1,inc,1,z,Mon Mar 03 2025 14:38:45 GMT-0600 (Central Standard Time),289513.30000000005,cobalt,1100,I,z,z,None,565,365.0,200.0,16,1,2195.2000000001863,287318.09999999986,7053,cherry,NF,C,285466,285466,283637,284751,283637,285832,285266,285266,285832,49
49,test,1,inc,1,m,Mon Mar 03 2025 14:38:45 GMT-0600 (Central Standard Time),291612.59999999986,pear,900,I,m,m,None,653,454.0,199.0,126,1,2095.399999999907,289517.19999999995,7053,lead,NF,C,287465,287465,285836,286749,285837,287932,287266,287266,287932,50
50,test,1,con,1,z,Mon Mar 03 2025 14:38:45 GMT-0600 (Central Standard Time),293445.3999999999,lime,800,I,z,z,None,485,286.0,199.0,33,1,1829.0,291616.3999999999,7053,lime,NF,C,289465,289465,287935,288748,287936,289765,289265,289265,289764,51
51,test,1,con,1,z,Mon Mar 03 2025 14:38:45 GMT-0600 (Central Standard Time),295411.3999999999,banana,900,I,z,z,None,528,328.0,200.0,2,1,1962.0999999998603,293449.30000000005,7053,banana,NF,C,291399,291399,289768,290681,289769,291731,291198,291198,291730,52
52,test,1,con,1,z,Mon Mar 03 2025 14:38:45 GMT-0600 (Central Standard Time),297727.3999999999,raisin,1100,I,z,z,None,675,476.0,199.0,28,1,2312.0,295415.3999999999,7053,raisin,NF,C,293563,293563,291734,292847,291735,294046,293364,293364,294046,53
53,test,1,con,1,m,Mon Mar 03 2025 14:38:45 GMT-0600 (Central Standard Time),299760.30000000005,gold,900,I,m,m,None,583,383.0,200.0,98,1,2028.4000000001397,297731.8999999999,7053,gold,NF,C,295680,295680,294051,294963,294051,296079,295480,295480,296079,54
54,test,1,con,1,z,Mon Mar 03 2025 14:38:45 GMT-0600 (Central Standard Time),301842.80000000005,raisin,1000,I,z,z,None,547,347.0,200.0,27,1,2078.5,299764.30000000005,7053,raisin,NF,C,297812,297812,296083,297096,296084,298162,297612,297612,298162,55
55,test,1,con,1,m,Mon Mar 03 2025 14:38:45 GMT-0600 (Central Standard Time),304008.59999999986,lead,1100,I,m,m,None,523,324.0,199.0,124,1,2162.0,301846.59999999986,7053,lead,NF,C,299995,299995,298166,299278,298166,300328,299795,299795,300328,56
56,test,1,inc,1,m,Mon Mar 03 2025 14:38:45 GMT-0600 (Central Standard Time),306124.69999999995,kiwi,1000,I,m,m,None,577,378.0,199.0,127,1,2112.100000000093,304012.59999999986,7053,lead,NF,C,302061,302061,300332,301344,300332,302444,301861,301861,302444,57
57,test,1,inc,1,z,Mon Mar 03 2025 14:38:45 GMT-0600 (Central Standard Time),308024.0,bronze,800,I,z,z,None,558,358.0,200.0,5,1,1895.5,306128.5,7053,banana,NF,C,303977,303977,302448,303262,302448,304343,303777,303777,304343,58
58,test,1,inc,1,m,Mon Mar 03 2025 14:38:45 GMT-0600 (Central Standard Time),310140.19999999995,orange,1000,I,m,m,None,570,371.0,199.0,71,1,2112.0,308028.19999999995,7053,bronze,NF,C,306076,306076,304347,305360,304348,306459,305877,305877,306459,59
59,test,1,inc,1,m,Mon Mar 03 2025 14:38:45 GMT-0600 (Central Standard Time),312322.8999999999,raisin,1100,I,m,m,None,547,347.0,200.0,88,1,2178.899999999907,310144.0,7053,silver,NF,C,308292,308292,306463,307576,306463,308642,308092,308092,308642,60
60,test,1,inc,1,z,Mon Mar 03 2025 14:38:45 GMT-0600 (Central Standard Time),314539.8999999999,lead,1100,I,z,z,None,580,380.0,200.0,56,1,2213.1999999999534,312326.69999999995,7053,kiwi,NF,C,310475,310475,308646,309759,308646,310859,310275,310275,310859,61
61,test,1,inc,1,m,Mon Mar 03 2025 14:38:45 GMT-0600 (Central Standard Time),316638.30000000005,kiwi,1000,I,m,m,None,552,352.0,200.0,119,1,2094.600000000093,314543.69999999995,7053,zinc,NF,C,312591,312591,310863,311874,310863,312957,312391,312391,312957,62
62,test,1,inc,1,m,Mon Mar 03 2025 14:38:45 GMT-0600 (Central Standard Time),318738.5,orange,1000,I,m,m,None,564,365.0,199.0,95,1,2096.1999999999534,316642.30000000005,7053,cobalt,NF,C,314690,314690,312961,313974,312962,315058,314490,314491,315058,63
63,test,1,inc,1,m,Mon Mar 03 2025 14:38:45 GMT-0600 (Central Standard Time),320920.30000000005,plum,1100,I,m,m,None,533,333.0,200.0,104,1,2177.3000000000466,318743.0,7053,gold,NF,C,316890,316890,315062,316173,315062,317239,316690,316690,317239,64
64,test,1,con,1,z,Mon Mar 03 2025 14:38:45 GMT-0600 (Central Standard Time),322736.30000000005,pear,800,I,z,z,None,465,266.0,199.0,41,1,1812.4000000001397,320923.8999999999,7053,pear,NF,C,318773,318773,317243,318056,317243,319055,318572,318573,319055,65
65,test,1,inc,1,m,Mon Mar 03 2025 14:38:45 GMT-0600 (Central Standard Time),324885.5,raisin,1100,I,m,m,None,510,310.0,200.0,96,1,2145.5,322740.0,7053,cobalt,NF,C,320889,320889,319059,320172,319059,321205,320689,320689,321205,66
66,test,1,con,1,m,Mon Mar 03 2025 14:38:45 GMT-0600 (Central Standard Time),327068.0,bronze,1100,I,m,m,None,544,345.0,199.0,68,1,2178.5,324889.5,7053,bronze,NF,C,323038,323038,321209,322321,321209,323387,322838,322838,323387,67
67,test,1,con,1,m,Mon Mar 03 2025 14:38:45 GMT-0600 (Central Standard Time),329067.59999999986,bronze,1000,I,m,m,None,455,255.0,200.0,67,1,1996.0,327071.59999999986,7053,bronze,NF,C,325120,325120,323391,324405,323391,325387,324920,324920,325387,68
68,test,1,con,1,m,Mon Mar 03 2025 14:38:45 GMT-0600 (Central Standard Time),331166.59999999986,zinc,1100,I,m,m,None,460,260.0,200.0,116,1,2095.0,329071.59999999986,7053,zinc,NF,C,327219,327219,325391,326503,325391,327486,327019,327019,327486,69
69,test,1,inc,1,m,Mon Mar 03 2025 14:38:45 GMT-0600 (Central Standard Time),333382.69999999995,plum,1100,I,m,m,None,568,368.0,200.0,128,1,2212.3000000000466,331170.3999999999,7053,lead,NF,C,329319,329319,327489,328602,327490,329702,329119,329119,329702,70
70,test,1,inc,1,m,Mon Mar 03 2025 14:38:45 GMT-0600 (Central Standard Time),335299.0,cherry,900,I,m,m,None,480,280.0,200.0,78,1,1912.3000000000466,333386.69999999995,7053,copper,NF,C,331335,331335,329706,330618,329706,331618,331135,331135,331618,71
71,test,1,inc,1,m,Mon Mar 03 2025 14:38:45 GMT-0600 (Central Standard Time),337131.5,banana,800,I,m,m,None,488,288.0,200.0,69,1,1828.8000000000466,335302.69999999995,7053,bronze,NF,C,333151,333151,331622,332435,331622,333451,332951,332951,333450,72
72,test,1,inc,1,z,Mon Mar 03 2025 14:38:45 GMT-0600 (Central Standard Time),339049.09999999986,copper,900,I,z,z,None,475,275.0,200.0,22,1,1914.0,337135.09999999986,7053,orange,NF,C,335084,335084,333454,334368,333454,335368,334884,334884,335368,73
73,test,1,inc,1,z,Mon Mar 03 2025 14:38:45 GMT-0600 (Central Standard Time),341148.19999999995,gold,800,I,z,z,None,755,555.0,200.0,61,1,2095.0,339053.19999999995,7053,plum,NF,C,336900,336900,335372,336184,335373,337467,336700,336700,337467,74
74,test,1,con,1,z,Mon Mar 03 2025 14:38:45 GMT-0600 (Central Standard Time),343496.30000000005,kiwi,1100,I,z,z,None,699,500.0,199.0,52,1,2343.9000000001397,341152.3999999999,7053,kiwi,NF,C,339299,339300,337471,338583,337472,339815,339099,339100,339815,75
75,test,1,con,1,m,Mon Mar 03 2025 14:38:45 GMT-0600 (Central Standard Time),345395.8999999999,zinc,900,I,m,m,None,453,254.0,199.0,114,1,1895.5999999998603,343500.30000000005,7053,zinc,NF,C,341449,341449,339819,340732,339820,341715,341249,341249,341715,76
76,test,1,inc,1,m,Mon Mar 03 2025 14:38:45 GMT-0600 (Central Standard Time),347178.30000000005,banana,800,I,m,m,None,447,247.0,200.0,85,1,1778.6000000000931,345399.69999999995,7053,silver,NF,C,343248,343248,341719,342531,341719,343497,343048,343048,343497,77
77,test,1,inc,1,m,Mon Mar 03 2025 14:38:45 GMT-0600 (Central Standard Time),349161.0,orange,1000,I,m,m,None,440,241.0,199.0,87,1,1978.9000000001397,347182.09999999986,7053,silver,NF,C,345230,345230,343501,344514,343501,345480,345031,345031,345480,78
78,test,1,inc,1,z,Mon Mar 03 2025 14:38:45 GMT-0600 (Central Standard Time),351060.5,iron,900,I,z,z,None,461,262.0,199.0,38,1,1895.6000000000931,349164.8999999999,7053,lime,NF,C,347113,347113,345484,346397,345484,347380,346914,346914,347380,79
79,test,1,inc,1,m,Mon Mar 03 2025 14:38:45 GMT-0600 (Central Standard Time),352926.8999999999,banana,800,I,m,m,None,526,326.0,200.0,93,1,1862.8000000000466,351064.09999999986,7053,cobalt,NF,C,348913,348913,347383,348196,347383,349246,348713,348713,349246,80
80,test,1,inc,1,m,Mon Mar 03 2025 14:38:45 GMT-0600 (Central Standard Time),355009.5,plum,1100,I,m,m,None,448,248.0,200.0,120,1,2078.6999999999534,352930.80000000005,7053,zinc,NF,C,351079,351079,349250,350363,349250,351329,350879,350879,351328,81
81,test,1,inc,1,z,Mon Mar 03 2025 14:38:45 GMT-0600 (Central Standard Time),357008.5,bronze,800,I,z,z,None,664,465.0,199.0,13,1,1995.0,355013.5,7053,cherry,NF,C,352861,352862,351333,352145,351333,353328,352662,352662,353328,82
82,test,1,con,1,z,Mon Mar 03 2025 14:38:45 GMT-0600 (Central Standard Time),359258.19999999995,orange,1100,I,z,z,None,614,414.0,200.0,20,1,2246.3000000000466,357011.8999999999,7053,orange,NF,C,355161,355161,353331,354446,353331,355577,354961,354961,355577,83
83,test,1,inc,1,m,Mon Mar 03 2025 14:38:45 GMT-0600 (Central Standard Time),361074.30000000005,lime,800,I,m,m,None,481,281.0,200.0,109,1,1811.9000000001397,359262.3999999999,7053,iron,NF,C,357110,357110,355581,356394,355582,357393,356910,356910,357393,84
83,test,1,con,0,m,Mon Mar 03 2025 14:38:45 GMT-0600 (Central Standard Time),363173.59999999986,iron,900,I,z,z,None,652,453.0,199.0,106,1,2095.399999999907,361078.19999999995,7053,iron,NF,C,359026,359026,357397,358310,357398,359493,358827,358827,359493,85
84,test,1,inc,1,m,Mon Mar 03 2025 14:38:45 GMT-0600 (Central Standard Time),365256.3999999999,pear,900,I,m,m,None,648,449.0,199.0,102,1,2079.0,363177.3999999999,7053,gold,NF,C,361126,361126,359496,360410,359497,361575,360926,360926,361575,86
85,test,1,inc,1,z,Mon Mar 03 2025 14:38:45 GMT-0600 (Central Standard Time),367423.3999999999,cobalt,1100,I,z,z,None,518,319.0,199.0,32,1,2163.3000000000466,365260.09999999986,7053,raisin,NF,C,363408,363408,361579,362692,361580,363742,363209,363209,363742,87
86,test,1,inc,1,m,Mon Mar 03 2025 14:38:45 GMT-0600 (Central Standard Time),369306.09999999986,cherry,900,I,m,m,None,464,249.0,215.0,86,1,1878.7999999998137,367427.30000000005,7053,silver,NF,C,365374,365374,363746,364658,363747,365625,365159,365159,365625,88
87,test,1,inc,1,m,Mon Mar 03 2025 14:38:45 GMT-0600 (Central Standard Time),371204.3999999999,lime,800,I,m,m,None,562,362.0,200.0,125,1,1894.1999999999534,369310.19999999995,7053,lead,NF,C,367157,367157,365629,366441,365630,367523,366957,366957,367523,89
88,test,1,inc,1,m,Mon Mar 03 2025 14:38:45 GMT-0600 (Central Standard Time),373287.0,orange,1000,I,m,m,None,541,342.0,199.0,79,1,2078.1999999999534,371208.80000000005,7053,copper,NF,C,369257,369257,367528,368540,367528,369606,369057,369057,369606,90
89,test,1,con,1,z,Mon Mar 03 2025 14:38:45 GMT-0600 (Central Standard Time),375352.8999999999,cherry,900,I,z,z,None,632,432.0,200.0,10,1,2062.0,373290.8999999999,7053,cherry,NF,C,371239,371239,369610,370523,369610,371672,371039,371039,371672,91
90,test,1,con,1,m,Mon Mar 03 2025 14:38:45 GMT-0600 (Central Standard Time),377569.0,zinc,1000,I,m,m,None,674,474.0,200.0,115,1,2212.4000000001397,375356.59999999986,7053,zinc,NF,C,373405,373405,371676,372689,371676,373888,373205,373205,373888,92
91,test,1,con,1,m,Mon Mar 03 2025 14:38:45 GMT-0600 (Central Standard Time),379352.30000000005,lead,800,I,m,m,None,449,250.0,199.0,121,1,1779.6000000000931,377572.69999999995,7053,lead,NF,C,375421,375421,373892,374705,373892,375672,375222,375222,375671,93
92,test,1,con,1,m,Mon Mar 03 2025 14:38:45 GMT-0600 (Central Standard Time),381117.69999999995,bronze,800,I,m,m,None,429,165.0,264.0,65,1,1761.3999999999069,379356.30000000005,7053,bronze,NF,C,377268,377268,375675,376488,375676,377437,377004,377004,377437,94
93,test,1,inc,1,z,Mon Mar 03 2025 14:38:45 GMT-0600 (Central Standard Time),383200.5,silver,1000,I,z,z,None,549,349.0,200.0,15,1,2078.9000000001397,381121.59999999986,7053,cherry,NF,C,379170,379170,377441,378454,377441,379520,378970,378970,379519,95
93,test,1,con,0,m,Mon Mar 03 2025 14:38:45 GMT-0600 (Central Standard Time),385583.09999999986,gold,1100,I,z,z,None,733,534.0,199.0,100,1,2378.899999999907,383204.19999999995,7053,gold,NF,C,381353,381353,379523,380636,379524,381902,381153,381153,381902,96
94,test,1,con,1,m,Mon Mar 03 2025 14:38:45 GMT-0600 (Central Standard Time),387865.80000000005,lead,900,I,m,m,None,839,640.0,199.0,122,1,2278.8000000000466,385587.0,7053,lead,NF,C,383535,383535,381906,382819,381906,384185,383336,383336,384185,97
95,test,1,con,1,m,Mon Mar 03 2025 14:38:45 GMT-0600 (Central Standard Time),389615.3999999999,iron,800,I,m,m,None,409,209.0,200.0,105,1,1745.8000000000466,387869.59999999986,7053,iron,NF,C,385718,385718,384189,385001,384189,385934,385518,385518,385934,98
96,test,1,con,1,m,Mon Mar 03 2025 14:38:45 GMT-0600 (Central Standard Time),391448.09999999986,silver,900,I,m,m,None,382,183.0,199.0,82,1,1828.7999999998137,389619.30000000005,7053,silver,NF,C,387568,387568,385938,386851,385939,387767,387368,387368,387767,99
97,test,1,inc,1,m,Mon Mar 03 2025 14:38:45 GMT-0600 (Central Standard Time),393580.8999999999,plum,1100,I,m,m,None,494,295.0,199.0,112,1,2129.0,391451.8999999999,7053,iron,NF,C,389600,389600,387771,388884,387771,389900,389401,389401,389900,100
98,test,1,inc,1,z,Mon Mar 03 2025 14:38:45 GMT-0600 (Central Standard Time),395663.8999999999,zinc,1000,I,z,z,None,533,334.0,199.0,55,1,2079.5,393584.3999999999,7053,kiwi,NF,C,391633,391633,389903,390916,389904,391983,391433,391433,391983,101
99,test,1,con,1,z,Mon Mar 03 2025 14:38:45 GMT-0600 (Central Standard Time),397896.0,plum,1100,I,z,z,None,591,391.0,200.0,60,1,2228.3000000000466,395667.69999999995,7053,plum,NF,C,393816,393816,391987,393099,391987,394215,393615,393615,394215,102
100,test,1,inc,1,m,Mon Mar 03 2025 14:38:45 GMT-0600 (Central Standard Time),399978.80000000005,kiwi,1000,I,m,m,None,547,347.0,200.0,111,1,2079.0,397899.80000000005,7053,iron,NF,C,395948,395948,394219,395232,394219,396298,395748,395748,396298,103
100,test,1,con,0,m,Mon Mar 03 2025 14:38:45 GMT-0600 (Central Standard Time),401944.8999999999,gold,800,I,z,z,None,624,423.0,201.0,97,1,1962.0,399982.8999999999,7053,gold,NF,C,397832,397832,396302,397114,396302,398264,397631,397631,398264,104
101,test,1,inc,1,z,Mon Mar 03 2025 14:38:45 GMT-0600 (Central Standard Time),403911.09999999986,bronze,800,I,z,z,None,626,426.0,200.0,21,1,1962.3999999999069,401948.69999999995,7053,orange,NF,C,399797,399797,398268,399081,398268,400230,399597,399597,400230,105
102,test,1,inc,1,z,Mon Mar 03 2025 14:38:45 GMT-0600 (Central Standard Time),406126.80000000005,cobalt,1100,I,z,z,None,576,376.0,200.0,24,1,2212.0,403914.80000000005,7053,orange,NF,C,402063,402063,400234,401347,400234,402446,401863,401863,402446,106
103,test,1,con,1,z,Mon Mar 03 2025 14:38:45 GMT-0600 (Central Standard Time),408109.3999999999,kiwi,800,I,z,z,None,636,436.0,200.0,49,1,1978.5,406130.8999999999,7053,kiwi,NF,C,403979,403979,402450,403262,402450,404429,403779,403779,404428,107
104,test,1,inc,1,m,Mon Mar 03 2025 14:38:45 GMT-0600 (Central Standard Time),410225.5,raisin,1100,I,m,m,None,480,281.0,199.0,72,1,2112.1999999999534,408113.30000000005,7053,bronze,NF,C,406261,406262,404432,405545,404433,406545,406062,406062,406545,108
105,test,1,inc,1,z,Mon Mar 03 2025 14:38:45 GMT-0600 (Central Standard Time),412241.5,iron,900,I,z,z,None,573,373.0,200.0,54,1,2012.1000000000931,410229.3999999999,7053,kiwi,NF,C,408178,408178,406548,407461,406549,408561,407978,407978,408561,109
106,test,1,inc,1,z,Mon Mar 03 2025 14:38:45 GMT-0600 (Central Standard Time),414424.30000000005,lead,1100,I,z,z,None,533,334.0,199.0,48,1,2178.8000000000466,412245.5,7053,pear,NF,C,410394,410394,408565,409677,408565,410743,410194,410194,410743,110
107,test,1,con,1,m,Mon Mar 03 2025 14:38:45 GMT-0600 (Central Standard Time),416606.8999999999,cobalt,1000,I,m,m,None,634,435.0,199.0,91,1,2178.6999999999534,414428.19999999995,7053,cobalt,NF,C,412476,412476,410747,411760,410748,412926,412277,412277,412926,111
108,test,1,con,1,z,Mon Mar 03 2025 14:38:45 GMT-0600 (Central Standard Time),418656.5,plum,900,I,z,z,None,600,400.0,200.0,58,1,2045.8000000000466,416610.69999999995,7053,plum,NF,C,414559,414559,412930,413843,412930,414976,414359,414359,414976,112
109,test,1,inc,1,m,Mon Mar 03 2025 14:38:45 GMT-0600 (Central Standard Time),420522.30000000005,lime,800,I,m,m,None,522,323.0,199.0,101,1,1862.2000000001863,418660.09999999986,7053,gold,NF,C,416508,416508,414979,415792,414980,416841,416308,416309,416841,113
110,test,1,inc,1,z,Mon Mar 03 2025 14:38:45 GMT-0600 (Central Standard Time),422438.3999999999,bronze,800,I,z,z,None,576,376.0,200.0,29,1,1912.3000000000466,420526.09999999986,7053,raisin,NF,C,418375,418375,416845,417658,416846,418758,418174,418174,418757,114
111,test,1,con,1,m,Mon Mar 03 2025 14:38:45 GMT-0600 (Central Standard Time),424737.59999999986,silver,800,I,m,m,None,964,765.0,199.0,81,1,2295.5999999998603,422442.0,7053,silver,NF,C,420290,420290,418761,419574,418761,421057,420091,420091,421057,115
112,test,1,con,1,z,Mon Mar 03 2025 14:38:45 GMT-0600 (Central Standard Time),426771.3999999999,raisin,800,I,z,z,None,696,497.0,199.0,25,1,2030.3000000000466,424741.09999999986,7053,raisin,NF,C,422590,422590,421060,421873,421060,423090,422390,422390,423090,116
113,test,1,inc,1,z,Mon Mar 03 2025 14:38:45 GMT-0600 (Central Standard Time),428969.69999999995,silver,1000,I,z,z,None,664,464.0,200.0,23,1,2194.1999999999534,426775.5,7053,orange,NF,C,424823,424823,423095,424106,423095,425289,424622,424622,425289,117
114,test,1,inc,1,z,Mon Mar 03 2025 14:38:45 GMT-0600 (Central Standard Time),431168.80000000005,copper,900,I,z,z,None,765,564.0,201.0,14,1,2195.4000000001397,428973.3999999999,7053,cherry,NF,C,426923,426923,425292,426205,425293,427488,426722,426722,427488,118
115,test,1,con,1,m,Mon Mar 03 2025 14:38:45 GMT-0600 (Central Standard Time),433068.30000000005,cobalt,900,I,m,m,None,462,262.0,200.0,90,1,1895.8000000000466,431172.5,7053,cobalt,NF,C,429121,429121,427492,428405,427492,429387,428921,428921,429387,119
116,test,1,con,1,m,Mon Mar 03 2025 14:38:45 GMT-0600 (Central Standard Time),434917.80000000005,copper,900,I,m,m,None,410,211.0,199.0,74,1,1845.8000000000466,433072.0,7053,copper,NF,C,431020,431020,429391,430304,429391,431237,430821,430821,431237,120
117,test,1,inc,1,z,Mon Mar 03 2025 14:38:45 GMT-0600 (Central Standard Time),437017.0,zinc,1000,I,z,z,None,556,357.0,199.0,39,1,2095.3000000000466,434921.69999999995,7053,lime,NF,C,432970,432970,431241,432254,431241,433336,432770,432770,433336,121
118,test,1,inc,1,z,Mon Mar 03 2025 14:38:45 GMT-0600 (Central Standard Time),439116.5,silver,1000,I,z,z,None,562,362.0,200.0,7,1,2095.5,437021.0,7053,banana,NF,C,435069,435069,433340,434353,433340,435436,434869,434869,435435,122
119,test,1,con,1,z,Mon Mar 03 2025 14:38:45 GMT-0600 (Central Standard Time),441282.30000000005,orange,1000,I,z,z,None,623,423.0,200.0,19,1,2162.100000000093,439120.19999999995,7053,orange,NF,C,437168,437168,435439,436452,435439,437601,436968,436968,437601,123
120,test,1,con,1,m,Mon Mar 03 2025 14:38:45 GMT-0600 (Central Standard Time),443515.19999999995,iron,1100,I,m,m,None,595,380.0,215.0,108,1,2229.0,441286.19999999995,7053,iron,NF,C,439451,439451,437605,438718,437606,439834,439236,439236,439834,124
121,test,1,con,1,m,Mon Mar 03 2025 14:38:45 GMT-0600 (Central Standard Time),445614.5,lead,1000,I,m,m,None,552,352.0,200.0,123,1,2095.1999999999534,443519.30000000005,7053,lead,NF,C,441567,441567,439838,440852,439839,441934,441367,441367,441934,125
122,test,1,con,1,z,Mon Mar 03 2025 14:38:45 GMT-0600 (Central Standard Time),447630.3999999999,raisin,900,I,z,z,None,567,368.0,199.0,26,1,2012.1999999999534,445618.19999999995,7053,raisin,NF,C,443567,443567,441937,442850,441938,443949,443367,443367,443949,126
123,test,1,con,1,m,Mon Mar 03 2025 14:38:45 GMT-0600 (Central Standard Time),449863.09999999986,gold,1000,I,m,m,None,684,484.0,200.0,99,1,2228.899999999907,447634.19999999995,7053,gold,NF,C,445683,445683,443953,444966,443954,446182,445482,445482,446182,127
124,test,1,inc,1,m,Mon Mar 03 2025 14:38:45 GMT-0600 (Central Standard Time),451979.19999999995,kiwi,1000,I,m,m,None,572,246.0,326.0,103,1,2112.3000000000466,449866.8999999999,7053,gold,NF,C,448041,448041,446186,447199,446186,448298,447715,447715,448298,128
