Number,acc_sum,block,block_c,block_cond,con_img,correct,correct_response,datetime,endtime,jitter,project,response,response_time,row_sel,session_number,start_end,starttime,subject_id,task,task_vers,trial
9,0,prac,1,A,circle.png,0,m,Mon Mar 03 2025 14:46:29 GMT-0600 (Central Standard Time),70589.19999999995,1500,O,None,1515,8,1,3794.0,66795.19999999995,7053,NTS,A,1
6,1,prac,1,A,circle.png,1,m,Mon Mar 03 2025 14:46:29 GMT-0600 (Central Standard Time),74704.19999999995,1900,O,m,1417,5,1,4109.09999999986,70595.1000000001,7053,NTS,A,2
7,2,prac,1,A,circle.png,1,m,Mon Mar 03 2025 14:46:29 GMT-0600 (Central Standard Time),77936.80000000005,1700,O,m,743,6,1,3227.100000000093,74709.69999999995,7053,NTS,A,3
1,3,prac,1,A,circle.png,1,z,Mon Mar 03 2025 14:46:29 GMT-0600 (Central Standard Time),80402.6000000001,1000,O,z,682,1,1,2460.100000000093,77942.5,7053,NTS,A,4
2,4,prac,1,A,circle.png,1,z,Mon Mar 03 2025 14:46:29 GMT-0600 (Central Standard Time),84101.5,2000,O,z,912,2,1,3692.6999999999534,80408.80000000005,7053,NTS,A,5
1,5,prac,1,A,circle.png,1,z,Mon Mar 03 2025 14:46:29 GMT-0600 (Central Standard Time),86483.80000000005,1000,O,z,589,1,1,2377.0,84106.80000000005,7053,NTS,A,6
2,6,prac,1,A,circle.png,1,z,Mon Mar 03 2025 14:46:29 GMT-0600 (Central Standard Time),89849.6000000001,2000,O,z,568,2,1,3360.0,86489.6000000001,7053,NTS,A,7
4,6,prac,1,A,circle.png,0,z,Mon Mar 03 2025 14:46:29 GMT-0600 (Central Standard Time),93548.30000000005,1400,O,None,1516,4,1,3693.600000000093,89854.69999999995,7053,NTS,A,8
3,7,prac,1,A,circle.png,1,z,Mon Mar 03 2025 14:46:29 GMT-0600 (Central Standard Time),96430.80000000005,1200,O,z,887,3,1,2876.8000000000466,93554.0,7053,NTS,A,9
6,8,prac,1,A,circle.png,1,m,Mon Mar 03 2025 14:46:29 GMT-0600 (Central Standard Time),99946.5,1900,O,m,816,5,1,3510.399999999907,96436.1000000001,7053,NTS,A,10
8,9,prac,1,A,circle.png,1,m,Mon Mar 03 2025 14:46:29 GMT-0600 (Central Standard Time),103112.19999999995,1600,O,m,777,7,1,3160.0,99952.19999999995,7053,NTS,A,11
7,10,prac,1,A,circle.png,1,m,Mon Mar 03 2025 14:46:29 GMT-0600 (Central Standard Time),106344.5,1700,O,m,735,6,1,3226.5999999998603,103117.90000000014,7053,NTS,A,12
4,1,prac,1,B,triangle.png,1,m,Mon Mar 03 2025 14:46:29 GMT-0600 (Central Standard Time),128886.90000000014,1500,O,m,1061,4,1,3344.100000000093,125542.80000000005,7053,NTS,A,1
7,2,prac,1,B,triangle.png,1,z,Mon Mar 03 2025 14:46:29 GMT-0600 (Central Standard Time),132369.6000000001,2000,O,z,684,6,1,3474.9000000001397,128894.69999999995,7053,NTS,A,2
6,3,prac,1,B,triangle.png,1,m,Mon Mar 03 2025 14:46:29 GMT-0600 (Central Standard Time),134685.6000000001,1000,O,m,529,5,1,2310.4000000001397,132375.19999999995,7053,NTS,A,3
2,3,prac,1,B,triangle.png,0,m,Mon Mar 03 2025 14:46:29 GMT-0600 (Central Standard Time),137719.0,1700,O,z,546,2,1,3028.6999999999534,134690.30000000005,7053,NTS,A,4
9,4,prac,1,B,triangle.png,1,z,Mon Mar 03 2025 14:46:29 GMT-0600 (Central Standard Time),140816.80000000005,1400,O,z,901,8,1,3092.399999999907,137724.40000000014,7053,NTS,A,5
8,5,prac,1,B,triangle.png,1,m,Mon Mar 03 2025 14:46:29 GMT-0600 (Central Standard Time),143382.69999999995,1200,O,m,570,7,1,2560.6999999999534,140822.0,7053,NTS,A,6
9,6,prac,1,B,triangle.png,1,z,Mon Mar 03 2025 14:46:29 GMT-0600 (Central Standard Time),146748.30000000005,1400,O,z,1181,8,1,3360.1999999999534,143388.1000000001,7053,NTS,A,7
7,7,prac,1,B,triangle.png,1,z,Mon Mar 03 2025 14:46:29 GMT-0600 (Central Standard Time),150064.1000000001,2000,O,z,527,6,1,3310.600000000093,146753.5,7053,NTS,A,8
1,8,prac,1,B,triangle.png,1,z,Mon Mar 03 2025 14:46:29 GMT-0600 (Central Standard Time),153346.40000000014,1900,O,z,584,1,1,3277.2000000001863,150069.19999999995,7053,NTS,A,9
6,9,prac,1,B,triangle.png,1,m,Mon Mar 03 2025 14:46:29 GMT-0600 (Central Standard Time),155695.69999999995,1000,O,m,561,5,1,2344.399999999907,153351.30000000005,7053,NTS,A,10
3,10,prac,1,B,triangle.png,1,z,Mon Mar 03 2025 14:46:29 GMT-0600 (Central Standard Time),159028.0,1600,O,z,940,3,1,3326.899999999907,155701.1000000001,7053,NTS,A,11
3,11,prac,1,B,triangle.png,1,z,Mon Mar 03 2025 14:46:29 GMT-0600 (Central Standard Time),161993.69999999995,1600,O,z,567,3,1,2961.0,159032.69999999995,7053,NTS,A,12
4,1,test,1,A,circle.png,1,z,Mon Mar 03 2025 14:46:29 GMT-0600 (Central Standard Time),183486.90000000014,1400,O,z,729,4,1,2145.0,181341.90000000014,7053,NTS,A,1
8,2,test,1,A,circle.png,1,m,Mon Mar 03 2025 14:46:29 GMT-0600 (Central Standard Time),185719.69999999995,1600,O,m,604,7,1,2228.7999999998137,183490.90000000014,7053,NTS,A,2
7,3,test,1,A,circle.png,1,m,Mon Mar 03 2025 14:46:29 GMT-0600 (Central Standard Time),188485.1000000001,1700,O,m,1039,6,1,2760.9000000001397,185724.19999999995,7053,NTS,A,3
8,4,test,1,A,circle.png,1,m,Mon Mar 03 2025 14:46:29 GMT-0600 (Central Standard Time),190602.40000000014,1600,O,m,486,7,1,2113.7000000001863,188488.69999999995,7053,NTS,A,4
9,5,test,1,A,circle.png,1,m,Mon Mar 03 2025 14:46:29 GMT-0600 (Central Standard Time),192550.69999999995,1500,O,m,430,8,1,1944.5999999998603,190606.1000000001,7053,NTS,A,5
4,6,test,1,A,circle.png,1,z,Mon Mar 03 2025 14:46:29 GMT-0600 (Central Standard Time),194450.1000000001,1400,O,z,476,4,1,1895.6000000000931,192554.5,7053,NTS,A,6
6,7,test,1,A,circle.png,1,m,Mon Mar 03 2025 14:46:29 GMT-0600 (Central Standard Time),196849.19999999995,1900,O,m,477,5,1,2395.5999999998603,194453.6000000001,7053,NTS,A,7
4,8,test,1,A,circle.png,1,z,Mon Mar 03 2025 14:46:29 GMT-0600 (Central Standard Time),198783.19999999995,1400,O,z,514,4,1,1930.0,196853.19999999995,7053,NTS,A,8
6,9,test,1,A,circle.png,1,m,Mon Mar 03 2025 14:46:29 GMT-0600 (Central Standard Time),201181.5,1900,O,m,473,5,1,2394.5,198787.0,7053,NTS,A,9
7,10,test,1,A,circle.png,1,m,Mon Mar 03 2025 14:46:29 GMT-0600 (Central Standard Time),203364.0,1700,O,m,450,6,1,2178.5999999998603,201185.40000000014,7053,NTS,A,10
1,11,test,1,A,circle.png,1,z,Mon Mar 03 2025 14:46:29 GMT-0600 (Central Standard Time),204896.80000000005,1000,O,z,503,1,1,1529.1000000000931,203367.69999999995,7053,NTS,A,11
3,12,test,1,A,circle.png,1,z,Mon Mar 03 2025 14:46:29 GMT-0600 (Central Standard Time),206596.19999999995,1200,O,z,482,3,1,1695.5,204900.69999999995,7053,NTS,A,12
9,13,test,1,A,circle.png,1,m,Mon Mar 03 2025 14:46:29 GMT-0600 (Central Standard Time),208578.80000000005,1500,O,m,459,8,1,1978.8999999999069,206599.90000000014,7053,NTS,A,13
1,14,test,1,A,circle.png,1,z,Mon Mar 03 2025 14:46:29 GMT-0600 (Central Standard Time),209995.1000000001,1000,O,z,391,1,1,1412.0,208583.1000000001,7053,NTS,A,14
8,15,test,1,A,circle.png,1,m,Mon Mar 03 2025 14:46:29 GMT-0600 (Central Standard Time),212061.19999999995,1600,O,m,447,7,1,2062.5,209998.69999999995,7053,NTS,A,15
6,16,test,1,A,circle.png,1,m,Mon Mar 03 2025 14:46:29 GMT-0600 (Central Standard Time),214460.40000000014,1900,O,m,473,5,1,2395.8000000000466,212064.6000000001,7053,NTS,A,16
4,17,test,1,A,circle.png,1,z,Mon Mar 03 2025 14:46:29 GMT-0600 (Central Standard Time),216376.6000000001,1400,O,z,487,4,1,1912.6000000000931,214464.0,7053,NTS,A,17
2,18,test,1,A,circle.png,1,z,Mon Mar 03 2025 14:46:29 GMT-0600 (Central Standard Time),218942.6000000001,2000,O,z,547,2,1,2562.0,216380.6000000001,7053,NTS,A,18
1,19,test,1,A,circle.png,1,z,Mon Mar 03 2025 14:46:29 GMT-0600 (Central Standard Time),220391.90000000014,1000,O,z,428,1,1,1445.3000000000466,218946.6000000001,7053,NTS,A,19
2,20,test,1,A,circle.png,1,z,Mon Mar 03 2025 14:46:29 GMT-0600 (Central Standard Time),222918.0,2000,O,z,509,2,1,2522.5,220395.5,7053,NTS,A,20
9,21,test,1,A,circle.png,1,m,Mon Mar 03 2025 14:46:29 GMT-0600 (Central Standard Time),224973.80000000005,1500,O,m,547,8,1,2052.0,222921.80000000005,7053,NTS,A,21
6,22,test,1,A,circle.png,1,m,Mon Mar 03 2025 14:46:29 GMT-0600 (Central Standard Time),227440.0,1900,O,m,545,5,1,2462.3000000000466,224977.69999999995,7053,NTS,A,22
7,23,test,1,A,circle.png,1,m,Mon Mar 03 2025 14:46:29 GMT-0600 (Central Standard Time),229588.90000000014,1700,O,m,423,6,1,2145.2000000001863,227443.69999999995,7053,NTS,A,23
3,24,test,1,A,circle.png,1,z,Mon Mar 03 2025 14:46:29 GMT-0600 (Central Standard Time),231221.90000000014,1200,O,z,413,3,1,1628.5,229593.40000000014,7053,NTS,A,24
6,1,test,1,B,triangle.png,1,m,Mon Mar 03 2025 14:46:29 GMT-0600 (Central Standard Time),237303.19999999995,1500,O,m,829,13,1,2344.6999999999534,234958.5,7053,NTS,A,1
1,2,test,1,B,triangle.png,1,z,Mon Mar 03 2025 14:46:29 GMT-0600 (Central Standard Time),239252.80000000005,1400,O,z,524,9,1,1945.5,237307.30000000005,7053,NTS,A,2
8,3,test,1,B,triangle.png,1,m,Mon Mar 03 2025 14:46:29 GMT-0600 (Central Standard Time),241468.6000000001,1700,O,m,498,15,1,2212.1999999999534,239256.40000000014,7053,NTS,A,3
2,4,test,1,B,triangle.png,1,m,Mon Mar 03 2025 14:46:29 GMT-0600 (Central Standard Time),243384.80000000005,1200,O,m,694,10,1,1912.3000000000466,241472.5,7053,NTS,A,4
1,5,test,1,B,triangle.png,1,z,Mon Mar 03 2025 14:46:29 GMT-0600 (Central Standard Time),246017.19999999995,1900,O,z,703,1,1,2628.6999999999534,243388.5,7053,NTS,A,5
2,6,test,1,B,triangle.png,1,m,Mon Mar 03 2025 14:46:29 GMT-0600 (Central Standard Time),247900.19999999995,1200,O,m,666,10,1,1879.6999999999534,246020.5,7053,NTS,A,6
6,7,test,1,B,triangle.png,1,m,Mon Mar 03 2025 14:46:29 GMT-0600 (Central Standard Time),249499.69999999995,1000,O,m,567,5,1,1596.2999999998137,247903.40000000014,7053,NTS,A,7
8,8,test,1,B,triangle.png,1,m,Mon Mar 03 2025 14:46:29 GMT-0600 (Central Standard Time),251115.80000000005,1200,O,m,392,7,1,1612.3999999999069,249503.40000000014,7053,NTS,A,8
3,9,test,1,B,triangle.png,1,z,Mon Mar 03 2025 14:46:29 GMT-0600 (Central Standard Time),253281.80000000005,1600,O,z,544,3,1,2162.100000000093,251119.69999999995,7053,NTS,A,9
7,10,test,1,B,triangle.png,1,z,Mon Mar 03 2025 14:46:29 GMT-0600 (Central Standard Time),256147.69999999995,2000,O,z,834,6,1,2862.0,253285.69999999995,7053,NTS,A,10
2,11,test,1,B,triangle.png,1,m,Mon Mar 03 2025 14:46:29 GMT-0600 (Central Standard Time),258564.5,1700,O,m,692,2,1,2413.5,256151.0,7053,NTS,A,11
9,12,test,1,B,triangle.png,1,z,Mon Mar 03 2025 14:46:29 GMT-0600 (Central Standard Time),260880.5,1400,O,z,896,8,1,2312.0,258568.5,7053,NTS,A,12
8,13,test,1,B,triangle.png,1,m,Mon Mar 03 2025 14:46:29 GMT-0600 (Central Standard Time),262662.19999999995,1200,O,m,564,7,1,1777.6999999999534,260884.5,7053,NTS,A,13
7,14,test,1,B,triangle.png,1,z,Mon Mar 03 2025 14:46:29 GMT-0600 (Central Standard Time),264894.80000000005,1600,O,z,613,14,1,2228.399999999907,262666.40000000014,7053,NTS,A,14
3,15,test,1,B,triangle.png,1,z,Mon Mar 03 2025 14:46:29 GMT-0600 (Central Standard Time),267460.30000000005,2000,O,z,549,11,1,2561.899999999907,264898.40000000014,7053,NTS,A,15
2,16,test,1,B,triangle.png,1,m,Mon Mar 03 2025 14:46:29 GMT-0600 (Central Standard Time),269843.1000000001,1700,O,m,658,2,1,2378.9000000001397,267464.19999999995,7053,NTS,A,16
4,17,test,1,B,triangle.png,1,m,Mon Mar 03 2025 14:46:29 GMT-0600 (Central Standard Time),271909.1000000001,1500,O,m,540,4,1,2062.4000000001397,269846.69999999995,7053,NTS,A,17
9,18,test,1,B,triangle.png,1,z,Mon Mar 03 2025 14:46:29 GMT-0600 (Central Standard Time),274458.40000000014,1900,O,z,626,16,1,2545.600000000093,271912.80000000005,7053,NTS,A,18
9,18,test,1,B,triangle.png,0,z,Mon Mar 03 2025 14:46:29 GMT-0600 (Central Standard Time),277040.90000000014,1900,O,m,660,16,1,2578.9000000001397,274462.0,7053,NTS,A,19
1,19,test,1,B,triangle.png,1,z,Mon Mar 03 2025 14:46:29 GMT-0600 (Central Standard Time),279257.1000000001,1400,O,z,794,9,1,2212.5,277044.6000000001,7053,NTS,A,20
3,20,test,1,B,triangle.png,1,z,Mon Mar 03 2025 14:46:29 GMT-0600 (Central Standard Time),282022.69999999995,2000,O,z,746,11,1,2761.5999999998603,279261.1000000001,7053,NTS,A,21
1,21,test,1,B,triangle.png,1,z,Mon Mar 03 2025 14:46:29 GMT-0600 (Central Standard Time),284505.1000000001,1900,O,z,553,1,1,2478.600000000093,282026.5,7053,NTS,A,22
4,22,test,1,B,triangle.png,1,m,Mon Mar 03 2025 14:46:29 GMT-0600 (Central Standard Time),286021.1000000001,1000,O,m,490,12,1,1512.1000000000931,284509.0,7053,NTS,A,23
3,23,test,1,B,triangle.png,1,z,Mon Mar 03 2025 14:46:29 GMT-0600 (Central Standard Time),288237.19999999995,1600,O,z,598,3,1,2212.1999999999534,286025.0,7053,NTS,A,24
7,0,prac,1,C,triangle.png,0,z,Mon Mar 03 2025 14:46:29 GMT-0600 (Central Standard Time),312196.6000000001,1200,O,None,1515,6,1,3494.4000000001397,308702.19999999995,7053,NTS,A,1
9,0,prac,1,C,circle.png,0,m,Mon Mar 03 2025 14:46:29 GMT-0600 (Central Standard Time),316395.19999999995,1900,O,None,1517,8,1,4193.5,312201.69999999995,7053,NTS,A,2
4,0,prac,1,C,circle.png,0,z,Mon Mar 03 2025 14:46:29 GMT-0600 (Central Standard Time),319694.30000000005,1000,O,None,1516,4,1,3294.1999999999534,316400.1000000001,7053,NTS,A,3
1,0,prac,1,C,circle.png,0,z,Mon Mar 03 2025 14:46:29 GMT-0600 (Central Standard Time),323692.90000000014,1700,O,None,1515,1,1,3993.7000000001863,319699.19999999995,7053,NTS,A,4
4,0,prac,1,C,circle.png,0,z,Mon Mar 03 2025 14:46:29 GMT-0600 (Central Standard Time),326992.0,1000,O,None,1515,4,1,3293.8000000000466,323698.19999999995,7053,NTS,A,5
8,1,prac,1,C,triangle.png,1,m,Mon Mar 03 2025 14:46:29 GMT-0600 (Central Standard Time),330274.30000000005,1400,O,m,1091,7,1,3275.0,326999.30000000005,7053,NTS,A,6
2,2,prac,1,C,triangle.png,1,m,Mon Mar 03 2025 14:46:29 GMT-0600 (Central Standard Time),333506.5,1600,O,m,841,2,1,3226.899999999907,330279.6000000001,7053,NTS,A,7
2,3,prac,1,C,triangle.png,1,m,Mon Mar 03 2025 14:46:29 GMT-0600 (Central Standard Time),336789.30000000005,1600,O,m,897,2,1,3278.3000000000466,333511.0,7053,NTS,A,8
6,3,prac,1,C,circle.png,0,m,Mon Mar 03 2025 14:46:29 GMT-0600 (Central Standard Time),341087.6000000001,2000,O,None,1515,5,1,4293.199999999953,336794.40000000014,7053,NTS,A,9
7,3,prac,1,C,triangle.png,0,z,Mon Mar 03 2025 14:46:29 GMT-0600 (Central Standard Time),344586.40000000014,1200,O,None,1516,6,1,3493.5,341092.90000000014,7053,NTS,A,10
9,3,prac,1,C,circle.png,0,m,Mon Mar 03 2025 14:46:29 GMT-0600 (Central Standard Time),348618.40000000014,1900,O,z,1341,8,1,4026.9000000001397,344591.5,7053,NTS,A,11
3,4,prac,1,C,triangle.png,1,z,Mon Mar 03 2025 14:46:29 GMT-0600 (Central Standard Time),352267.69999999995,1500,O,z,1365,3,1,3644.399999999907,348623.30000000005,7053,NTS,A,12
9,0,test,1,C,triangle.png,0,z,Mon Mar 03 2025 14:46:29 GMT-0600 (Central Standard Time),359465.40000000014,1400,O,None,1516,16,1,2929.4000000001397,356536.0,7053,NTS,A,1
9,1,test,1,C,circle.png,1,m,Mon Mar 03 2025 14:46:29 GMT-0600 (Central Standard Time),362447.5,1500,O,m,1454,8,1,2978.0,359469.5,7053,NTS,A,2
4,2,test,1,C,circle.png,1,z,Mon Mar 03 2025 14:46:29 GMT-0600 (Central Standard Time),364846.80000000005,1400,O,z,979,4,1,2395.100000000093,362451.69999999995,7053,NTS,A,3
3,3,test,1,C,circle.png,1,z,Mon Mar 03 2025 14:46:29 GMT-0600 (Central Standard Time),367779.1000000001,1600,O,z,1300,11,1,2928.3000000000466,364850.80000000005,7053,NTS,A,4
1,4,test,1,C,triangle.png,1,z,Mon Mar 03 2025 14:46:29 GMT-0600 (Central Standard Time),370695.0,1900,O,z,988,9,1,2912.0999999998603,367782.90000000014,7053,NTS,A,5
8,5,test,1,C,triangle.png,1,m,Mon Mar 03 2025 14:46:29 GMT-0600 (Central Standard Time),373227.40000000014,1600,O,m,900,23,1,2527.9000000001397,370699.5,7053,NTS,A,6
1,6,test,1,C,circle.png,1,z,Mon Mar 03 2025 14:46:29 GMT-0600 (Central Standard Time),375093.5,1000,O,z,847,1,1,1861.8999999999069,373231.6000000001,7053,NTS,A,7
9,7,test,1,C,circle.png,1,m,Mon Mar 03 2025 14:46:29 GMT-0600 (Central Standard Time),377992.80000000005,1500,O,m,1378,24,1,2893.600000000093,375099.19999999995,7053,NTS,A,8
1,8,test,1,C,triangle.png,1,z,Mon Mar 03 2025 14:46:29 GMT-0600 (Central Standard Time),381191.69999999995,1900,O,z,1271,17,1,3194.899999999907,377996.80000000005,7053,NTS,A,9
3,9,test,1,C,triangle.png,1,z,Mon Mar 03 2025 14:46:29 GMT-0600 (Central Standard Time),383357.6000000001,1200,O,z,948,3,1,2162.0,381195.6000000001,7053,NTS,A,10
6,10,test,1,C,circle.png,1,m,Mon Mar 03 2025 14:46:29 GMT-0600 (Central Standard Time),386206.69999999995,1900,O,m,922,21,1,2845.1999999999534,383361.5,7053,NTS,A,11
6,11,test,1,C,circle.png,1,m,Mon Mar 03 2025 14:46:29 GMT-0600 (Central Standard Time),388772.6000000001,1900,O,m,633,5,1,2562.1999999999534,386210.40000000014,7053,NTS,A,12
3,12,test,1,C,circle.png,1,z,Mon Mar 03 2025 14:46:29 GMT-0600 (Central Standard Time),391188.40000000014,1600,O,z,799,19,1,2411.9000000001397,388776.5,7053,NTS,A,13
4,13,test,1,C,triangle.png,1,m,Mon Mar 03 2025 14:46:29 GMT-0600 (Central Standard Time),393737.80000000005,1500,O,m,1027,12,1,2545.6999999999534,391192.1000000001,7053,NTS,A,14
7,14,test,1,C,triangle.png,1,z,Mon Mar 03 2025 14:46:29 GMT-0600 (Central Standard Time),396770.1000000001,1700,O,z,1309,22,1,3028.4000000001397,393741.69999999995,7053,NTS,A,15
2,15,test,1,C,circle.png,1,z,Mon Mar 03 2025 14:46:29 GMT-0600 (Central Standard Time),399469.19999999995,1700,O,z,973,10,1,2695.5999999998603,396773.6000000001,7053,NTS,A,16
2,16,test,1,C,triangle.png,1,m,Mon Mar 03 2025 14:46:29 GMT-0600 (Central Standard Time),402901.5,2000,O,m,1414,2,1,3428.6999999999534,399472.80000000005,7053,NTS,A,17
2,17,test,1,C,circle.png,1,z,Mon Mar 03 2025 14:46:29 GMT-0600 (Central Standard Time),405583.80000000005,1700,O,z,962,18,1,2678.8000000000466,402905.0,7053,NTS,A,18
8,18,test,1,C,triangle.png,1,m,Mon Mar 03 2025 14:46:29 GMT-0600 (Central Standard Time),408133.1000000001,1600,O,m,923,7,1,2545.0,405588.1000000001,7053,NTS,A,19
8,19,test,1,C,circle.png,1,m,Mon Mar 03 2025 14:46:29 GMT-0600 (Central Standard Time),410482.40000000014,1200,O,m,1126,15,1,2345.600000000093,408136.80000000005,7053,NTS,A,20
7,19,test,1,C,circle.png,0,m,Mon Mar 03 2025 14:46:29 GMT-0600 (Central Standard Time),413581.30000000005,2000,O,z,1081,14,1,3095.0,410486.30000000005,7053,NTS,A,21
7,20,test,1,C,triangle.png,1,z,Mon Mar 03 2025 14:46:29 GMT-0600 (Central Standard Time),416763.90000000014,1700,O,z,1458,6,1,3178.8000000000466,413585.1000000001,7053,NTS,A,22
4,21,test,1,C,triangle.png,1,m,Mon Mar 03 2025 14:46:29 GMT-0600 (Central Standard Time),419363.1000000001,1500,O,m,1068,20,1,2595.0,416768.1000000001,7053,NTS,A,23
6,22,test,1,C,triangle.png,1,m,Mon Mar 03 2025 14:46:29 GMT-0600 (Central Standard Time),421079.19999999995,1000,O,m,696,13,1,1712.3999999999069,419366.80000000005,7053,NTS,A,24
7,1,test,2,C,triangle.png,1,z,Mon Mar 03 2025 14:46:29 GMT-0600 (Central Standard Time),426777.40000000014,1700,O,z,1269,6,1,2994.600000000093,423782.80000000005,7053,NTS,A,1
2,2,test,2,C,circle.png,1,z,Mon Mar 03 2025 14:46:29 GMT-0600 (Central Standard Time),429526.5,1700,O,z,1030,18,1,2744.8000000000466,426781.69999999995,7053,NTS,A,2
9,3,test,2,C,circle.png,1,m,Mon Mar 03 2025 14:46:29 GMT-0600 (Central Standard Time),431975.80000000005,1500,O,m,929,8,1,2445.600000000093,429530.19999999995,7053,NTS,A,3
1,4,test,2,C,triangle.png,1,z,Mon Mar 03 2025 14:46:29 GMT-0600 (Central Standard Time),434525.0,1900,O,z,623,17,1,2545.399999999907,431979.6000000001,7053,NTS,A,4
4,5,test,2,C,triangle.png,1,m,Mon Mar 03 2025 14:46:29 GMT-0600 (Central Standard Time),436941.1000000001,1500,O,m,890,20,1,2412.3000000000466,434528.80000000005,7053,NTS,A,5
2,6,test,2,C,circle.png,1,z,Mon Mar 03 2025 14:46:29 GMT-0600 (Central Standard Time),439606.69999999995,1700,O,z,938,10,1,2661.1999999999534,436945.5,7053,NTS,A,6
7,7,test,2,C,circle.png,1,m,Mon Mar 03 2025 14:46:29 GMT-0600 (Central Standard Time),442555.90000000014,2000,O,m,925,14,1,2945.4000000001397,439610.5,7053,NTS,A,7
6,8,test,2,C,circle.png,1,m,Mon Mar 03 2025 14:46:29 GMT-0600 (Central Standard Time),445671.6000000001,1900,O,m,1188,5,1,3112.100000000093,442559.5,7053,NTS,A,8
4,9,test,2,C,triangle.png,1,m,Mon Mar 03 2025 14:46:29 GMT-0600 (Central Standard Time),448488.30000000005,1500,O,m,1296,12,1,2813.3000000000466,445675.0,7053,NTS,A,9
1,10,test,2,C,circle.png,1,z,Mon Mar 03 2025 14:46:29 GMT-0600 (Central Standard Time),450286.80000000005,1000,O,z,772,1,1,1794.1999999999534,448492.6000000001,7053,NTS,A,10
9,11,test,2,C,triangle.png,1,z,Mon Mar 03 2025 14:46:29 GMT-0600 (Central Standard Time),452869.5,1400,O,z,1157,24,1,2579.0999999998603,450290.40000000014,7053,NTS,A,11
3,12,test,2,C,circle.png,1,z,Mon Mar 03 2025 14:46:29 GMT-0600 (Central Standard Time),455368.30000000005,1600,O,z,878,19,1,2495.1999999999534,452873.1000000001,7053,NTS,A,12
6,13,test,2,C,triangle.png,1,m,Mon Mar 03 2025 14:46:29 GMT-0600 (Central Standard Time),457334.40000000014,1000,O,m,939,13,1,1962.1000000000931,455372.30000000005,7053,NTS,A,13
3,14,test,2,C,circle.png,1,z,Mon Mar 03 2025 14:46:29 GMT-0600 (Central Standard Time),459916.6000000001,1600,O,z,966,11,1,2578.4000000001397,457338.19999999995,7053,NTS,A,14
3,15,test,2,C,triangle.png,1,z,Mon Mar 03 2025 14:46:29 GMT-0600 (Central Standard Time),462066.30000000005,1200,O,z,926,3,1,2145.899999999907,459920.40000000014,7053,NTS,A,15
7,16,test,2,C,circle.png,1,m,Mon Mar 03 2025 14:46:29 GMT-0600 (Central Standard Time),465031.90000000014,2000,O,m,945,22,1,2961.7000000001863,462070.19999999995,7053,NTS,A,16
8,17,test,2,C,triangle.png,1,m,Mon Mar 03 2025 14:46:29 GMT-0600 (Central Standard Time),467664.5,1600,O,m,1004,7,1,2628.8000000000466,465035.69999999995,7053,NTS,A,17
1,18,test,2,C,triangle.png,1,z,Mon Mar 03 2025 14:46:29 GMT-0600 (Central Standard Time),470547.1000000001,1900,O,z,951,9,1,2878.3000000000466,467668.80000000005,7053,NTS,A,18
6,18,test,2,C,triangle.png,0,m,Mon Mar 03 2025 14:46:29 GMT-0600 (Central Standard Time),472729.80000000005,1000,O,z,1160,21,1,2178.8000000000466,470551.0,7053,NTS,A,19
4,19,test,2,C,circle.png,1,z,Mon Mar 03 2025 14:46:29 GMT-0600 (Central Standard Time),475262.1000000001,1400,O,z,1105,4,1,2528.6999999999534,472733.40000000014,7053,NTS,A,20
8,20,test,2,C,circle.png,1,m,Mon Mar 03 2025 14:46:29 GMT-0600 (Central Standard Time),477728.19999999995,1200,O,m,1237,15,1,2462.399999999907,475265.80000000005,7053,NTS,A,21
8,21,test,2,C,circle.png,1,m,Mon Mar 03 2025 14:46:29 GMT-0600 (Central Standard Time),479527.40000000014,1200,O,m,571,23,1,1795.5,477731.90000000014,7053,NTS,A,22
9,22,test,2,C,triangle.png,1,z,Mon Mar 03 2025 14:46:29 GMT-0600 (Central Standard Time),482002.69999999995,1400,O,z,1059,16,1,2471.399999999907,479531.30000000005,7053,NTS,A,23
2,23,test,2,C,triangle.png,1,m,Mon Mar 03 2025 14:46:29 GMT-0600 (Central Standard Time),485075.80000000005,2000,O,m,1049,2,1,3069.1999999999534,482006.6000000001,7053,NTS,A,24
2,0,test,3,C,triangle.png,0,m,Mon Mar 03 2025 14:46:29 GMT-0600 (Central Standard Time),490007.6000000001,2000,O,None,1516,2,1,3528.5,486479.1000000001,7053,NTS,A,1
4,1,test,3,C,triangle.png,1,m,Mon Mar 03 2025 14:46:29 GMT-0600 (Central Standard Time),492158.0,1500,O,m,631,12,1,2146.5999999998603,490011.40000000014,7053,NTS,A,2
8,2,test,3,C,circle.png,1,m,Mon Mar 03 2025 14:46:29 GMT-0600 (Central Standard Time),494073.1000000001,1200,O,m,694,15,1,1911.0,492162.1000000001,7053,NTS,A,3
4,3,test,3,C,circle.png,1,z,Mon Mar 03 2025 14:46:29 GMT-0600 (Central Standard Time),496172.5,1400,O,z,666,20,1,2095.5999999998603,494076.90000000014,7053,NTS,A,4
9,4,test,3,C,circle.png,1,m,Mon Mar 03 2025 14:46:29 GMT-0600 (Central Standard Time),498556.1000000001,1500,O,m,851,24,1,2379.8000000000466,496176.30000000005,7053,NTS,A,5
1,5,test,3,C,circle.png,1,z,Mon Mar 03 2025 14:46:29 GMT-0600 (Central Standard Time),500621.0,1000,O,z,1040,1,1,2060.3000000000466,498560.69999999995,7053,NTS,A,6
1,6,test,3,C,circle.png,1,z,Mon Mar 03 2025 14:46:29 GMT-0600 (Central Standard Time),502253.69999999995,1000,O,z,606,17,1,1627.3999999999069,500626.30000000005,7053,NTS,A,7
6,7,test,3,C,circle.png,1,m,Mon Mar 03 2025 14:46:29 GMT-0600 (Central Standard Time),505119.40000000014,1900,O,m,938,5,1,2861.5,502257.90000000014,7053,NTS,A,8
3,8,test,3,C,circle.png,1,z,Mon Mar 03 2025 14:46:29 GMT-0600 (Central Standard Time),507502.1000000001,1600,O,z,764,11,1,2378.6999999999534,505123.40000000014,7053,NTS,A,9
6,9,test,3,C,circle.png,1,m,Mon Mar 03 2025 14:46:29 GMT-0600 (Central Standard Time),510218.1000000001,1900,O,m,785,21,1,2712.1999999999534,507505.90000000014,7053,NTS,A,10
3,10,test,3,C,triangle.png,1,z,Mon Mar 03 2025 14:46:29 GMT-0600 (Central Standard Time),512384.0,1200,O,z,937,19,1,2162.3000000000466,510221.69999999995,7053,NTS,A,11
6,11,test,3,C,triangle.png,1,m,Mon Mar 03 2025 14:46:29 GMT-0600 (Central Standard Time),514133.30000000005,1000,O,m,731,13,1,1745.3999999999069,512387.90000000014,7053,NTS,A,12
7,12,test,3,C,circle.png,1,m,Mon Mar 03 2025 14:46:29 GMT-0600 (Central Standard Time),517115.6000000001,2000,O,m,950,14,1,2978.8000000000466,514136.80000000005,7053,NTS,A,13
3,13,test,3,C,triangle.png,1,z,Mon Mar 03 2025 14:46:29 GMT-0600 (Central Standard Time),519231.90000000014,1200,O,z,895,3,1,2112.4000000001397,517119.5,7053,NTS,A,14
4,14,test,3,C,circle.png,1,z,Mon Mar 03 2025 14:46:29 GMT-0600 (Central Standard Time),521814.19999999995,1400,O,z,1164,4,1,2578.5999999998603,519235.6000000001,7053,NTS,A,15
9,15,test,3,C,triangle.png,1,z,Mon Mar 03 2025 14:46:29 GMT-0600 (Central Standard Time),524196.69999999995,1400,O,z,965,16,1,2378.7999999998137,521817.90000000014,7053,NTS,A,16
7,16,test,3,C,triangle.png,1,z,Mon Mar 03 2025 14:46:29 GMT-0600 (Central Standard Time),526846.1000000001,1700,O,z,923,6,1,2645.6999999999534,524200.40000000014,7053,NTS,A,17
2,17,test,3,C,triangle.png,1,m,Mon Mar 03 2025 14:46:29 GMT-0600 (Central Standard Time),529945.2,2000,O,m,997,18,1,3095.2999999998137,526849.9000000001,7053,NTS,A,18
8,18,test,3,C,triangle.png,1,m,Mon Mar 03 2025 14:46:29 GMT-0600 (Central Standard Time),532344.3,1600,O,m,778,23,1,2394.8000000000466,529949.5,7053,NTS,A,19
2,19,test,3,C,circle.png,1,z,Mon Mar 03 2025 14:46:29 GMT-0600 (Central Standard Time),534943.6000000001,1700,O,z,879,10,1,2595.600000000093,532348.0,7053,NTS,A,20
1,20,test,3,C,triangle.png,1,z,Mon Mar 03 2025 14:46:29 GMT-0600 (Central Standard Time),537776.0,1900,O,z,912,9,1,2828.5,534947.5,7053,NTS,A,21
8,21,test,3,C,triangle.png,1,m,Mon Mar 03 2025 14:46:29 GMT-0600 (Central Standard Time),540143.0,1600,O,m,747,7,1,2363.0999999998603,537779.9000000001,7053,NTS,A,22
9,21,test,3,C,circle.png,0,m,Mon Mar 03 2025 14:46:29 GMT-0600 (Central Standard Time),543174.4000000001,1500,O,None,1515,8,1,3027.8000000000466,540146.6000000001,7053,NTS,A,23
7,22,test,3,C,triangle.png,1,z,Mon Mar 03 2025 14:46:29 GMT-0600 (Central Standard Time),545706.8,1700,O,z,809,22,1,2528.600000000093,543178.2,7053,NTS,A,24
7,1,test,4,C,triangle.png,1,z,Mon Mar 03 2025 14:46:29 GMT-0600 (Central Standard Time),557054.5,1700,O,z,1181,6,1,2896.899999999907,554157.6000000001,7053,NTS,A,1
2,2,test,4,C,circle.png,1,z,Mon Mar 03 2025 14:46:29 GMT-0600 (Central Standard Time),559735.9000000001,1700,O,z,962,10,1,2676.8000000000466,557059.1000000001,7053,NTS,A,2
2,3,test,4,C,triangle.png,1,m,Mon Mar 03 2025 14:46:29 GMT-0600 (Central Standard Time),562952.6000000001,2000,O,m,1188,18,1,3212.5,559740.1000000001,7053,NTS,A,3
4,4,test,4,C,triangle.png,1,m,Mon Mar 03 2025 14:46:29 GMT-0600 (Central Standard Time),565117.2,1500,O,m,648,12,1,2160.6999999999534,562956.5,7053,NTS,A,4
3,5,test,4,C,triangle.png,1,z,Mon Mar 03 2025 14:46:29 GMT-0600 (Central Standard Time),567166.8,1200,O,z,821,3,1,2045.8999999999069,565120.9000000001,7053,NTS,A,5
4,6,test,4,C,circle.png,1,z,Mon Mar 03 2025 14:46:29 GMT-0600 (Central Standard Time),569699.3,1400,O,z,1109,20,1,2528.3000000000466,567171.0,7053,NTS,A,6
8,7,test,4,C,triangle.png,1,m,Mon Mar 03 2025 14:46:29 GMT-0600 (Central Standard Time),572081.9000000001,1600,O,m,752,23,1,2378.8000000000466,569703.1000000001,7053,NTS,A,7
9,8,test,4,C,circle.png,1,m,Mon Mar 03 2025 14:46:29 GMT-0600 (Central Standard Time),574631.0,1500,O,m,1022,8,1,2545.1999999999534,572085.8,7053,NTS,A,8
6,9,test,4,C,circle.png,1,m,Mon Mar 03 2025 14:46:29 GMT-0600 (Central Standard Time),577180.3,1900,O,m,624,21,1,2545.399999999907,574634.9000000001,7053,NTS,A,9
3,10,test,4,C,triangle.png,1,z,Mon Mar 03 2025 14:46:29 GMT-0600 (Central Standard Time),579329.6000000001,1200,O,z,927,19,1,2145.5,577184.1000000001,7053,NTS,A,10
7,11,test,4,C,circle.png,1,m,Mon Mar 03 2025 14:46:29 GMT-0600 (Central Standard Time),582045.4000000001,2000,O,m,698,14,1,2711.8000000000466,579333.6000000001,7053,NTS,A,11
3,12,test,4,C,circle.png,1,z,Mon Mar 03 2025 14:46:29 GMT-0600 (Central Standard Time),584411.4000000001,1600,O,z,734,11,1,2362.600000000093,582048.8,7053,NTS,A,12
8,13,test,4,C,circle.png,1,m,Mon Mar 03 2025 14:46:29 GMT-0600 (Central Standard Time),586294.0,1200,O,m,664,15,1,1878.5999999998603,584415.4000000001,7053,NTS,A,13
8,14,test,4,C,triangle.png,1,m,Mon Mar 03 2025 14:46:29 GMT-0600 (Central Standard Time),588694.4000000001,1600,O,m,781,7,1,2394.5,586299.9000000001,7053,NTS,A,14
9,15,test,4,C,circle.png,1,m,Mon Mar 03 2025 14:46:29 GMT-0600 (Central Standard Time),590909.3,1500,O,m,690,24,1,2210.3000000000466,588699.0,7053,NTS,A,15
6,16,test,4,C,circle.png,1,m,Mon Mar 03 2025 14:46:29 GMT-0600 (Central Standard Time),593508.3,1900,O,m,674,5,1,2594.6999999999534,590913.6000000001,7053,NTS,A,16
9,17,test,4,C,triangle.png,1,z,Mon Mar 03 2025 14:46:29 GMT-0600 (Central Standard Time),595758.8,1400,O,z,831,16,1,2246.8000000000466,593512.0,7053,NTS,A,17
1,18,test,4,C,circle.png,1,z,Mon Mar 03 2025 14:46:29 GMT-0600 (Central Standard Time),597874.0,1000,O,z,1085,17,1,2111.3000000000466,595762.7,7053,NTS,A,18
1,19,test,4,C,triangle.png,1,z,Mon Mar 03 2025 14:46:29 GMT-0600 (Central Standard Time),600773.0,1900,O,z,969,9,1,2895.399999999907,597877.6000000001,7053,NTS,A,19
7,20,test,4,C,triangle.png,1,z,Mon Mar 03 2025 14:46:29 GMT-0600 (Central Standard Time),603272.2,1700,O,z,778,22,1,2495.5,600776.7,7053,NTS,A,20
4,21,test,4,C,circle.png,1,z,Mon Mar 03 2025 14:46:29 GMT-0600 (Central Standard Time),605605.7,1400,O,z,907,4,1,2328.899999999907,603276.8,7053,NTS,A,21
6,22,test,4,C,triangle.png,1,m,Mon Mar 03 2025 14:46:29 GMT-0600 (Central Standard Time),607404.5,1000,O,m,774,13,1,1794.8999999999069,605609.6000000001,7053,NTS,A,22
1,23,test,4,C,circle.png,1,z,Mon Mar 03 2025 14:46:29 GMT-0600 (Central Standard Time),609220.4000000001,1000,O,z,783,1,1,1811.0,607409.4000000001,7053,NTS,A,23
2,24,test,4,C,triangle.png,1,m,Mon Mar 03 2025 14:46:29 GMT-0600 (Central Standard Time),612219.4000000001,2000,O,m,967,2,1,2995.2000000001863,609224.2,7053,NTS,A,24
