acc_sum,block,block_c,change,condition,correct,correct_response,datetime,endtime,face,project,response,response_time,row_sel,session_number,start_end,starttime,subject_id,task,task_vers,trial
0,prac,1,,1-Back,,,Fri Apr 11 2025 09:28:58 GMT-0500 (Central Daylight Time),,097_m_f_n_a.png,O,space,9880,1,1,,,7123,NNB,B,0
1,prac,1,0.0,1-Back,1,m,Fri Apr 11 2025 09:28:58 GMT-0500 (Central Daylight Time),237441.19999999553,152_y_f_n_a.png,O,m,729,2,1,1568.3999999985099,235872.79999999702,7123,NNB,B,1
2,prac,1,1.0,1-Back,1,z,Fri Apr 11 2025 09:28:58 GMT-0500 (Central Daylight Time),238856.5,152_y_f_n_a.png,O,z,641,3,1,1406.8000000044703,237449.69999999553,7123,NNB,B,2
3,prac,1,0.0,1-Back,1,m,Fri Apr 11 2025 09:28:58 GMT-0500 (Central Daylight Time),240408.09999999404,176_o_m_n_a.png,O,m,666,4,1,1544.0,238864.09999999404,7123,NNB,B,3
4,prac,1,0.0,1-Back,1,m,Fri Apr 11 2025 09:28:58 GMT-0500 (Central Daylight Time),241922.8999999985,126_m_m_n_a.png,O,m,744,5,1,1505.8999999985099,240417.0,7123,NNB,B,4
5,prac,1,1.0,1-Back,1,z,Fri Apr 11 2025 09:28:58 GMT-0500 (Central Daylight Time),243454.69999999553,126_m_m_n_a.png,O,z,738,6,1,1520.2999999970198,241934.3999999985,7123,NNB,B,5
6,prac,1,0.0,1-Back,1,m,Fri Apr 11 2025 09:28:58 GMT-0500 (Central Daylight Time),245155.19999999553,086_o_f_n_a.png,O,m,911,7,1,1692.6999999955297,243462.5,7123,NNB,B,6
7,prac,1,0.0,1-Back,1,m,Fri Apr 11 2025 09:28:58 GMT-0500 (Central Daylight Time),246904.0,178_m_m_n_a.png,O,m,877,8,1,1740.1000000014901,245163.8999999985,7123,NNB,B,7
8,prac,1,0.0,1-Back,1,m,Fri Apr 11 2025 09:28:58 GMT-0500 (Central Daylight Time),248602.19999999553,097_m_f_n_a.png,O,m,912,9,1,1689.7999999970198,246912.3999999985,7123,NNB,B,8
9,prac,1,1.0,1-Back,1,z,Fri Apr 11 2025 09:28:58 GMT-0500 (Central Daylight Time),250070.0,097_m_f_n_a.png,O,z,677,10,1,1459.5,248610.5,7123,NNB,B,9
10,prac,1,0.0,1-Back,1,m,Fri Apr 11 2025 09:28:58 GMT-0500 (Central Daylight Time),251469.29999999702,176_o_m_n_a.png,O,m,609,11,1,1391.1000000014901,250078.19999999553,7123,NNB,B,10
11,prac,1,0.0,1-Back,1,m,Fri Apr 11 2025 09:28:58 GMT-0500 (Central Daylight Time),253037.0,173_y_f_n_a.png,O,m,714,12,1,1559.4000000059605,251477.59999999404,7123,NNB,B,11
0,test,1,0.0,1-Back,,,Fri Apr 11 2025 09:28:58 GMT-0500 (Central Daylight Time),253037.0,152_y_f_n_a.png,O,space,15777,1,1,1559.4000000059605,251477.59999999404,7123,NNB,B,0
1,test,1,0.0,1-Back,1,m,Fri Apr 11 2025 09:28:58 GMT-0500 (Central Daylight Time),285507.09999999404,029_m_f_n_a.png,O,m,1121,2,1,2141.2999999970198,283365.799999997,7123,NNB,B,1
2,test,1,0.0,1-Back,1,m,Fri Apr 11 2025 09:28:58 GMT-0500 (Central Daylight Time),287072.3999999985,173_y_f_n_a.png,O,m,540,3,1,1557.6000000014901,285514.799999997,7123,NNB,B,2
3,test,1,1.0,1-Back,1,z,Fri Apr 11 2025 09:28:58 GMT-0500 (Central Daylight Time),288740.5,173_y_f_n_a.png,O,z,637,4,1,1665.0,287075.5,7123,NNB,B,3
4,test,1,0.0,1-Back,1,m,Fri Apr 11 2025 09:28:58 GMT-0500 (Central Daylight Time),290457.0,029_m_f_n_a.png,O,m,700,5,1,1709.1000000014901,288747.8999999985,7123,NNB,B,4
5,test,1,0.0,1-Back,1,m,Fri Apr 11 2025 09:28:58 GMT-0500 (Central Daylight Time),292006.09999999404,176_o_m_n_a.png,O,m,519,6,1,1542.5,290463.59999999404,7123,NNB,B,5
6,test,1,1.0,1-Back,1,z,Fri Apr 11 2025 09:28:58 GMT-0500 (Central Daylight Time),293488.09999999404,176_o_m_n_a.png,O,z,448,7,1,1475.5,292012.59999999404,7123,NNB,B,6
7,test,1,0.0,1-Back,1,m,Fri Apr 11 2025 09:28:58 GMT-0500 (Central Daylight Time),295139.799999997,126_m_m_n_a.png,O,m,632,8,1,1643.6000000014901,293496.19999999553,7123,NNB,B,7
8,test,1,0.0,1-Back,1,m,Fri Apr 11 2025 09:28:58 GMT-0500 (Central Daylight Time),297036.8999999985,086_o_f_n_a.png,O,m,868,9,1,1890.1000000014901,295146.799999997,7123,NNB,B,8
9,test,1,0.0,1-Back,1,m,Fri Apr 11 2025 09:28:58 GMT-0500 (Central Daylight Time),298770.8999999985,126_m_m_n_a.png,O,m,706,10,1,1726.1000000014901,297044.799999997,7123,NNB,B,9
10,test,1,0.0,1-Back,1,m,Fri Apr 11 2025 09:28:58 GMT-0500 (Central Daylight Time),300403.299999997,153_y_m_n_a.png,O,m,615,11,1,1624.3999999985099,298778.8999999985,7123,NNB,B,10
11,test,1,1.0,1-Back,1,z,Fri Apr 11 2025 09:28:58 GMT-0500 (Central Daylight Time),302101.09999999404,153_y_m_n_a.png,O,z,677,12,1,1690.0,300411.09999999404,7123,NNB,B,11
12,test,1,0.0,1-Back,1,m,Fri Apr 11 2025 09:28:58 GMT-0500 (Central Daylight Time),303951.299999997,110_o_f_n_a.png,O,m,824,13,1,1842.3999999985099,302108.8999999985,7123,NNB,B,12
13,test,1,1.0,1-Back,1,z,Fri Apr 11 2025 09:28:58 GMT-0500 (Central Daylight Time),305617.3999999985,110_o_f_n_a.png,O,z,641,14,1,1660.1000000014901,303957.299999997,7123,NNB,B,13
14,test,1,0.0,1-Back,1,m,Fri Apr 11 2025 09:28:58 GMT-0500 (Central Daylight Time),307167.5,013_y_m_n_a.png,O,m,524,15,1,1542.8000000044703,305624.69999999553,7123,NNB,B,14
15,test,1,0.0,1-Back,1,m,Fri Apr 11 2025 09:28:58 GMT-0500 (Central Daylight Time),309000.799999997,097_m_f_n_a.png,O,m,800,16,1,1827.0,307173.799999997,7123,NNB,B,15
16,test,1,0.0,1-Back,1,m,Fri Apr 11 2025 09:28:58 GMT-0500 (Central Daylight Time),310548.8999999985,065_o_m_n_a.png,O,m,528,17,1,1542.3999999985099,309006.5,7123,NNB,B,16
17,test,1,0.0,1-Back,1,m,Fri Apr 11 2025 09:28:58 GMT-0500 (Central Daylight Time),312182.69999999553,097_m_f_n_a.png,O,m,610,18,1,1626.1999999955297,310556.5,7123,NNB,B,17
0,test,2,0.0,1-Back,,,Fri Apr 11 2025 09:28:58 GMT-0500 (Central Daylight Time),312182.69999999553,126_m_m_n_a.png,O,space,1833,1,1,1626.1999999955297,310556.5,7123,NNB,B,0
1,test,2,0.0,1-Back,1,m,Fri Apr 11 2025 09:28:58 GMT-0500 (Central Daylight Time),317714.0,029_m_f_n_a.png,O,m,656,2,1,1675.6000000014901,316038.3999999985,7123,NNB,B,1
2,test,2,1.0,1-Back,1,z,Fri Apr 11 2025 09:28:58 GMT-0500 (Central Daylight Time),319346.3999999985,029_m_f_n_a.png,O,z,605,3,1,1625.8999999985099,317720.5,7123,NNB,B,2
3,test,2,0.0,1-Back,1,m,Fri Apr 11 2025 09:28:58 GMT-0500 (Central Daylight Time),321046.299999997,126_m_m_n_a.png,O,m,667,4,1,1693.5,319352.799999997,7123,NNB,B,3
4,test,2,0.0,1-Back,1,m,Fri Apr 11 2025 09:28:58 GMT-0500 (Central Daylight Time),322894.69999999553,153_y_m_n_a.png,O,m,825,5,1,1841.8999999985099,321052.799999997,7123,NNB,B,4
5,test,2,0.0,1-Back,1,m,Fri Apr 11 2025 09:28:58 GMT-0500 (Central Daylight Time),324479.69999999553,152_y_f_n_a.png,O,m,560,6,1,1577.1000000014901,322902.59999999404,7123,NNB,B,5
6,test,2,1.0,1-Back,1,z,Fri Apr 11 2025 09:28:58 GMT-0500 (Central Daylight Time),326110.69999999553,152_y_f_n_a.png,O,z,598,7,1,1623.7999999970198,324486.8999999985,7123,NNB,B,6
7,test,2,0.0,1-Back,1,m,Fri Apr 11 2025 09:28:58 GMT-0500 (Central Daylight Time),327627.8999999985,153_y_m_n_a.png,O,m,488,8,1,1510.3000000044703,326117.59999999404,7123,NNB,B,7
8,test,2,0.0,1-Back,1,m,Fri Apr 11 2025 09:28:58 GMT-0500 (Central Daylight Time),329210.69999999553,110_o_f_n_a.png,O,m,564,9,1,1577.0,327633.69999999553,7123,NNB,B,8
9,test,2,0.0,1-Back,1,m,Fri Apr 11 2025 09:28:58 GMT-0500 (Central Daylight Time),330842.69999999553,178_m_m_n_a.png,O,m,600,10,1,1623.2999999970198,329219.3999999985,7123,NNB,B,9
10,test,2,1.0,1-Back,1,z,Fri Apr 11 2025 09:28:58 GMT-0500 (Central Daylight Time),332476.19999999553,178_m_m_n_a.png,O,z,612,11,1,1626.6000000014901,330849.59999999404,7123,NNB,B,10
11,test,2,0.0,1-Back,1,m,Fri Apr 11 2025 09:28:58 GMT-0500 (Central Daylight Time),334058.69999999553,110_o_f_n_a.png,O,m,554,12,1,1574.5,332484.19999999553,7123,NNB,B,11
12,test,2,0.0,1-Back,1,m,Fri Apr 11 2025 09:28:58 GMT-0500 (Central Daylight Time),335674.299999997,086_o_f_n_a.png,O,m,596,13,1,1609.8999999985099,334064.3999999985,7123,NNB,B,12
13,test,2,0.0,1-Back,1,m,Fri Apr 11 2025 09:28:58 GMT-0500 (Central Daylight Time),337308.0,176_o_m_n_a.png,O,m,599,14,1,1625.6000000014901,335682.3999999985,7123,NNB,B,13
14,test,2,0.0,1-Back,1,m,Fri Apr 11 2025 09:28:58 GMT-0500 (Central Daylight Time),338841.3999999985,065_o_m_n_a.png,O,m,500,15,1,1525.5,337315.8999999985,7123,NNB,B,14
15,test,2,1.0,1-Back,1,z,Fri Apr 11 2025 09:28:58 GMT-0500 (Central Daylight Time),340539.69999999553,065_o_m_n_a.png,O,z,671,16,1,1691.1000000014901,338848.59999999404,7123,NNB,B,15
16,test,2,0.0,1-Back,1,m,Fri Apr 11 2025 09:28:58 GMT-0500 (Central Daylight Time),342073.3999999985,013_y_m_n_a.png,O,m,507,17,1,1525.7000000029802,340547.69999999553,7123,NNB,B,16
17,test,2,1.0,1-Back,1,z,Fri Apr 11 2025 09:28:58 GMT-0500 (Central Daylight Time),343639.0,013_y_m_n_a.png,O,z,543,18,1,1557.7000000029802,342081.299999997,7123,NNB,B,17
0,test,3,1.0,1-Back,,,Fri Apr 11 2025 09:28:58 GMT-0500 (Central Daylight Time),343639.0,173_y_f_n_a.png,O,space,1964,1,1,1557.7000000029802,342081.299999997,7123,NNB,B,0
1,test,3,0.0,1-Back,1,m,Fri Apr 11 2025 09:28:58 GMT-0500 (Central Daylight Time),349270.8999999985,065_o_m_n_a.png,O,m,534,1,1,1556.1000000014901,347714.799999997,7123,NNB,B,1
2,test,3,1.0,1-Back,1,z,Fri Apr 11 2025 09:28:58 GMT-0500 (Central Daylight Time),350870.59999999404,065_o_m_n_a.png,O,z,569,1,1,1591.5999999940395,349279.0,7123,NNB,B,2
3,test,3,0.0,1-Back,1,m,Fri Apr 11 2025 09:28:58 GMT-0500 (Central Daylight Time),352485.3999999985,097_m_f_n_a.png,O,m,584,1,1,1608.3000000044703,350877.09999999404,7123,NNB,B,3
4,test,3,1.0,1-Back,1,z,Fri Apr 11 2025 09:28:58 GMT-0500 (Central Daylight Time),354370.299999997,097_m_f_n_a.png,O,z,844,1,1,1877.6000000014901,352492.69999999553,7123,NNB,B,4
5,test,3,0.0,1-Back,1,m,Fri Apr 11 2025 09:28:58 GMT-0500 (Central Daylight Time),356067.799999997,110_o_f_n_a.png,O,m,669,1,1,1690.7000000029802,354377.09999999404,7123,NNB,B,5
6,test,3,0.0,1-Back,1,m,Fri Apr 11 2025 09:28:58 GMT-0500 (Central Daylight Time),357752.5,153_y_m_n_a.png,O,m,666,1,1,1678.3000000044703,356074.19999999553,7123,NNB,B,6
7,test,3,0.0,1-Back,1,m,Fri Apr 11 2025 09:28:58 GMT-0500 (Central Daylight Time),359516.69999999553,110_o_f_n_a.png,O,m,742,1,1,1757.0,357759.69999999553,7123,NNB,B,7
8,test,3,0.0,1-Back,1,m,Fri Apr 11 2025 09:28:58 GMT-0500 (Central Daylight Time),361165.69999999553,013_y_m_n_a.png,O,m,618,1,1,1642.5,359523.19999999553,7123,NNB,B,8
9,test,3,1.0,1-Back,1,z,Fri Apr 11 2025 09:28:58 GMT-0500 (Central Daylight Time),362784.799999997,013_y_m_n_a.png,O,z,599,1,1,1610.7999999970198,361174.0,7123,NNB,B,9
10,test,3,0.0,1-Back,1,m,Fri Apr 11 2025 09:28:58 GMT-0500 (Central Daylight Time),364383.59999999404,029_m_f_n_a.png,O,m,576,1,1,1592.0999999940395,362791.5,7123,NNB,B,10
11,test,3,0.0,1-Back,1,m,Fri Apr 11 2025 09:28:58 GMT-0500 (Central Daylight Time),366315.19999999553,152_y_f_n_a.png,O,m,900,1,1,1925.0,364390.19999999553,7123,NNB,B,11
12,test,3,1.0,1-Back,1,z,Fri Apr 11 2025 09:28:58 GMT-0500 (Central Daylight Time),367896.8999999985,152_y_f_n_a.png,O,z,555,1,1,1573.7000000029802,366323.19999999553,7123,NNB,B,12
13,test,3,0.0,1-Back,1,m,Fri Apr 11 2025 09:28:58 GMT-0500 (Central Daylight Time),369481.69999999553,029_m_f_n_a.png,O,m,550,1,1,1579.0,367902.69999999553,7123,NNB,B,13
14,test,3,0.0,1-Back,1,m,Fri Apr 11 2025 09:28:58 GMT-0500 (Central Daylight Time),371495.5,126_m_m_n_a.png,O,m,991,1,1,2006.9000000059605,369488.59999999404,7123,NNB,B,14
15,test,3,1.0,1-Back,1,z,Fri Apr 11 2025 09:28:58 GMT-0500 (Central Daylight Time),373447.09999999404,126_m_m_n_a.png,O,z,919,1,1,1944.3999999985099,371502.69999999553,7123,NNB,B,15
16,test,3,0.0,1-Back,1,m,Fri Apr 11 2025 09:28:58 GMT-0500 (Central Daylight Time),375061.8999999985,086_o_f_n_a.png,O,m,585,1,1,1608.3000000044703,373453.59999999404,7123,NNB,B,16
17,test,3,1.0,1-Back,1,z,Fri Apr 11 2025 09:28:58 GMT-0500 (Central Daylight Time),376712.8999999985,086_o_f_n_a.png,O,z,617,1,1,1644.6000000014901,375068.299999997,7123,NNB,B,17
0,test,4,1.0,1-Back,,,Fri Apr 11 2025 09:28:58 GMT-0500 (Central Daylight Time),376712.8999999985,097_m_f_n_a.png,O,space,1726,1,1,1644.6000000014901,375068.299999997,7123,NNB,B,0
1,test,4,0.0,1-Back,1,m,Fri Apr 11 2025 09:28:58 GMT-0500 (Central Daylight Time),382212.19999999553,065_o_m_n_a.png,O,m,649,2,1,1658.0,380554.19999999553,7123,NNB,B,1
1,test,4,0.0,1-Back,0,m,Fri Apr 11 2025 09:28:58 GMT-0500 (Central Daylight Time),383994.09999999404,097_m_f_n_a.png,O,z,766,3,1,1776.0,382218.09999999404,7123,NNB,B,2
2,test,4,0.0,1-Back,1,m,Fri Apr 11 2025 09:28:58 GMT-0500 (Central Daylight Time),385975.0,110_o_f_n_a.png,O,m,950,4,1,1975.7000000029802,383999.299999997,7123,NNB,B,3
3,test,4,1.0,1-Back,1,z,Fri Apr 11 2025 09:28:58 GMT-0500 (Central Daylight Time),387757.59999999404,110_o_f_n_a.png,O,z,760,5,1,1776.0,385981.59999999404,7123,NNB,B,4
4,test,4,0.0,1-Back,1,m,Fri Apr 11 2025 09:28:58 GMT-0500 (Central Daylight Time),389392.19999999553,152_y_f_n_a.png,O,m,608,6,1,1628.0,387764.19999999553,7123,NNB,B,5
5,test,4,0.0,1-Back,1,m,Fri Apr 11 2025 09:28:58 GMT-0500 (Central Daylight Time),390990.0,153_y_m_n_a.png,O,m,575,7,1,1590.4000000059605,389399.59999999404,7123,NNB,B,6
6,test,4,1.0,1-Back,1,z,Fri Apr 11 2025 09:28:58 GMT-0500 (Central Daylight Time),392823.0,153_y_m_n_a.png,O,z,807,8,1,1826.7000000029802,390996.299999997,7123,NNB,B,7
7,test,4,0.0,1-Back,1,m,Fri Apr 11 2025 09:28:58 GMT-0500 (Central Daylight Time),394690.59999999404,152_y_f_n_a.png,O,m,830,9,1,1861.0999999940395,392829.5,7123,NNB,B,8
8,test,4,0.0,1-Back,1,m,Fri Apr 11 2025 09:28:58 GMT-0500 (Central Daylight Time),396404.3999999985,178_m_m_n_a.png,O,m,696,10,1,1706.6000000014901,394697.799999997,7123,NNB,B,9
9,test,4,1.0,1-Back,1,z,Fri Apr 11 2025 09:28:58 GMT-0500 (Central Daylight Time),398021.3999999985,178_m_m_n_a.png,O,z,585,11,1,1610.6000000014901,396410.799999997,7123,NNB,B,10
10,test,4,0.0,1-Back,1,m,Fri Apr 11 2025 09:28:58 GMT-0500 (Central Daylight Time),399671.8999999985,086_o_f_n_a.png,O,m,617,12,1,1642.5,398029.3999999985,7123,NNB,B,11
11,test,4,0.0,1-Back,1,m,Fri Apr 11 2025 09:28:58 GMT-0500 (Central Daylight Time),401287.799999997,176_o_m_n_a.png,O,m,593,13,1,1607.7999999970198,399680.0,7123,NNB,B,12
12,test,4,0.0,1-Back,1,m,Fri Apr 11 2025 09:28:58 GMT-0500 (Central Daylight Time),402886.5,086_o_f_n_a.png,O,m,575,14,1,1591.2000000029802,401295.299999997,7123,NNB,B,13
13,test,4,0.0,1-Back,1,m,Fri Apr 11 2025 09:28:58 GMT-0500 (Central Daylight Time),404470.09999999404,173_y_f_n_a.png,O,m,562,15,1,1577.0,402893.09999999404,7123,NNB,B,14
14,test,4,1.0,1-Back,1,z,Fri Apr 11 2025 09:28:58 GMT-0500 (Central Daylight Time),406069.09999999404,173_y_f_n_a.png,O,z,577,16,1,1593.1999999955297,404475.8999999985,7123,NNB,B,15
15,test,4,0.0,1-Back,1,m,Fri Apr 11 2025 09:28:58 GMT-0500 (Central Daylight Time),407634.299999997,029_m_f_n_a.png,O,m,531,17,1,1561.5,406072.799999997,7123,NNB,B,16
16,test,4,1.0,1-Back,1,z,Fri Apr 11 2025 09:28:58 GMT-0500 (Central Daylight Time),409568.5,029_m_f_n_a.png,O,z,908,18,1,1931.3000000044703,407637.19999999553,7123,NNB,B,17
0,test,5,1.0,1-Back,,,Fri Apr 11 2025 09:28:58 GMT-0500 (Central Daylight Time),409568.5,176_o_m_n_a.png,O,space,1761,1,1,1931.3000000044703,407637.19999999553,7123,NNB,B,0
1,test,5,1.0,1-Back,1,z,Fri Apr 11 2025 09:28:58 GMT-0500 (Central Daylight Time),415480.799999997,176_o_m_n_a.png,O,z,1104,2,1,2123.7000000029802,413357.09999999404,7123,NNB,B,1
2,test,5,0.0,1-Back,1,m,Fri Apr 11 2025 09:28:58 GMT-0500 (Central Daylight Time),417080.799999997,152_y_f_n_a.png,O,m,574,3,1,1595.7999999970198,415485.0,7123,NNB,B,2
3,test,5,0.0,1-Back,1,m,Fri Apr 11 2025 09:28:58 GMT-0500 (Central Daylight Time),418762.8999999985,153_y_m_n_a.png,O,m,662,4,1,1675.8000000044703,417087.09999999404,7123,NNB,B,3
4,test,5,0.0,1-Back,1,m,Fri Apr 11 2025 09:28:58 GMT-0500 (Central Daylight Time),420881.59999999404,152_y_f_n_a.png,O,m,1091,5,1,2113.7999999970198,418767.799999997,7123,NNB,B,4
5,test,5,0.0,1-Back,1,m,Fri Apr 11 2025 09:28:58 GMT-0500 (Central Daylight Time),422865.799999997,126_m_m_n_a.png,O,m,967,6,1,1977.2000000029802,420888.59999999404,7123,NNB,B,5
6,test,5,1.0,1-Back,1,z,Fri Apr 11 2025 09:28:58 GMT-0500 (Central Daylight Time),424496.3999999985,126_m_m_n_a.png,O,z,600,7,1,1623.1000000014901,422873.299999997,7123,NNB,B,6
7,test,5,0.0,1-Back,1,m,Fri Apr 11 2025 09:28:58 GMT-0500 (Central Daylight Time),426195.799999997,173_y_f_n_a.png,O,m,669,8,1,1693.2999999970198,424502.5,7123,NNB,B,7
8,test,5,0.0,1-Back,1,m,Fri Apr 11 2025 09:28:58 GMT-0500 (Central Daylight Time),428096.299999997,013_y_m_n_a.png,O,m,877,9,1,1894.2999999970198,426202.0,7123,NNB,B,8
9,test,5,0.0,1-Back,1,m,Fri Apr 11 2025 09:28:58 GMT-0500 (Central Daylight Time),429795.09999999404,173_y_f_n_a.png,O,m,672,10,1,1692.0999999940395,428103.0,7123,NNB,B,9
10,test,5,0.0,1-Back,1,m,Fri Apr 11 2025 09:28:58 GMT-0500 (Central Daylight Time),431411.69999999553,086_o_f_n_a.png,O,m,597,11,1,1609.8999999985099,429801.799999997,7123,NNB,B,10
11,test,5,1.0,1-Back,1,z,Fri Apr 11 2025 09:28:58 GMT-0500 (Central Daylight Time),433060.5,086_o_f_n_a.png,O,z,632,12,1,1643.0,431417.5,7123,NNB,B,11
12,test,5,0.0,1-Back,1,m,Fri Apr 11 2025 09:28:58 GMT-0500 (Central Daylight Time),434794.69999999553,065_o_m_n_a.png,O,m,717,13,1,1729.0,433065.69999999553,7123,NNB,B,12
13,test,5,0.0,1-Back,1,m,Fri Apr 11 2025 09:28:58 GMT-0500 (Central Daylight Time),436559.59999999404,097_m_f_n_a.png,O,m,742,14,1,1757.7999999970198,434801.799999997,7123,NNB,B,13
14,test,5,1.0,1-Back,1,z,Fri Apr 11 2025 09:28:58 GMT-0500 (Central Daylight Time),438275.69999999553,097_m_f_n_a.png,O,z,686,15,1,1712.1000000014901,436563.59999999404,7123,NNB,B,14
15,test,5,0.0,1-Back,1,m,Fri Apr 11 2025 09:28:58 GMT-0500 (Central Daylight Time),439924.69999999553,065_o_m_n_a.png,O,m,628,16,1,1644.1999999955297,438280.5,7123,NNB,B,15
16,test,5,0.0,1-Back,1,m,Fri Apr 11 2025 09:28:58 GMT-0500 (Central Daylight Time),441658.5,029_m_f_n_a.png,O,m,699,17,1,1726.6000000014901,439931.8999999985,7123,NNB,B,16
17,test,5,0.0,1-Back,1,m,Fri Apr 11 2025 09:28:58 GMT-0500 (Central Daylight Time),443291.299999997,178_m_m_n_a.png,O,m,616,18,1,1628.2999999970198,441663.0,7123,NNB,B,17
0,prac,1,0.0,2-Back,,,Fri Apr 11 2025 09:28:58 GMT-0500 (Central Daylight Time),443291.299999997,013_y_m_n_a.png,O,space,15698,1,1,1628.2999999970198,441663.0,7123,NNB,B,0
0,prac,1,0.0,2-Back,,,Fri Apr 11 2025 09:28:58 GMT-0500 (Central Daylight Time),443291.299999997,029_m_f_n_a.png,O,space,15698,2,1,1628.2999999970198,441663.0,7123,NNB,B,0
1,prac,1,1.0,2-Back,1,m,Fri Apr 11 2025 09:28:58 GMT-0500 (Central Daylight Time),570800.5,065_o_m_n_a.png,O,m,1763,3,1,2624.5,568176.0,7123,NNB,B,1
2,prac,1,0.0,2-Back,1,m,Fri Apr 11 2025 09:28:58 GMT-0500 (Central Daylight Time),572834.8999999985,086_o_f_n_a.png,O,m,1155,4,1,2027.3999999985099,570807.5,7123,NNB,B,2
3,prac,1,0.0,2-Back,1,z,Fri Apr 11 2025 09:28:58 GMT-0500 (Central Daylight Time),574766.299999997,065_o_m_n_a.png,O,z,1139,5,1,1922.2000000029802,572844.099999994,7123,NNB,B,3
4,prac,1,1.0,2-Back,1,z,Fri Apr 11 2025 09:28:58 GMT-0500 (Central Daylight Time),576682.099999994,086_o_f_n_a.png,O,z,1130,6,1,1907.8999999985099,574774.1999999955,7123,NNB,B,4
5,prac,1,0.0,2-Back,1,m,Fri Apr 11 2025 09:28:58 GMT-0500 (Central Daylight Time),579531.0,178_m_m_n_a.png,O,m,1974,7,1,2841.60000000149,576689.3999999985,7123,NNB,B,5
6,prac,1,0.0,2-Back,1,m,Fri Apr 11 2025 09:28:58 GMT-0500 (Central Daylight Time),581714.1999999955,176_o_m_n_a.png,O,m,1316,8,1,2174.39999999851,579539.799999997,7123,NNB,B,6
7,prac,1,0.0,2-Back,1,m,Fri Apr 11 2025 09:28:58 GMT-0500 (Central Daylight Time),583847.6999999955,173_y_f_n_a.png,O,m,1286,9,1,2126.0,581721.6999999955,7123,NNB,B,7
8,prac,1,1.0,2-Back,1,z,Fri Apr 11 2025 09:28:58 GMT-0500 (Central Daylight Time),585545.8999999985,176_o_m_n_a.png,O,z,914,10,1,1691.0,583854.8999999985,7123,NNB,B,8
9,prac,1,0.0,2-Back,1,m,Fri Apr 11 2025 09:28:58 GMT-0500 (Central Daylight Time),587278.599999994,152_y_f_n_a.png,O,m,862,11,1,1725.3999999985099,585553.1999999955,7123,NNB,B,9
9,prac,1,0.0,2-Back,0,m,Fri Apr 11 2025 09:28:58 GMT-0500 (Central Daylight Time),589343.799999997,178_m_m_n_a.png,O,z,1273,12,1,2056.39999999851,587287.3999999985,7123,NNB,B,10
0,test,1,0.0,2-Back,,,Fri Apr 11 2025 09:28:58 GMT-0500 (Central Daylight Time),589343.799999997,153_y_m_n_a.png,O,space,16878,1,1,2056.39999999851,587287.3999999985,7123,NNB,B,0
0,test,1,0.0,2-Back,,,Fri Apr 11 2025 09:28:58 GMT-0500 (Central Daylight Time),589343.799999997,153_y_m_n_a.png,O,space,16878,2,1,2056.39999999851,587287.3999999985,7123,NNB,B,0
1,test,1,0.0,2-Back,1,m,Fri Apr 11 2025 09:28:58 GMT-0500 (Central Daylight Time),620368.799999997,086_o_f_n_a.png,O,m,1050,3,1,2077.10000000149,618291.6999999955,7123,NNB,B,1
2,test,1,0.0,2-Back,1,m,Fri Apr 11 2025 09:28:58 GMT-0500 (Central Daylight Time),622335.0,126_m_m_n_a.png,O,m,934,4,1,1959.6000000014901,620375.3999999985,7123,NNB,B,2
3,test,1,1.0,2-Back,1,z,Fri Apr 11 2025 09:28:58 GMT-0500 (Central Daylight Time),624100.299999997,086_o_f_n_a.png,O,z,731,5,1,1758.1000000014901,622342.1999999955,7123,NNB,B,3
4,test,1,0.0,2-Back,1,m,Fri Apr 11 2025 09:28:58 GMT-0500 (Central Daylight Time),626167.099999994,152_y_f_n_a.png,O,m,1044,6,1,2059.2999999970198,624107.799999997,7123,NNB,B,4
5,test,1,0.0,2-Back,1,m,Fri Apr 11 2025 09:28:58 GMT-0500 (Central Daylight Time),628365.8999999985,126_m_m_n_a.png,O,m,1171,7,1,2190.0,626175.8999999985,7123,NNB,B,5
6,test,1,1.0,2-Back,1,z,Fri Apr 11 2025 09:28:58 GMT-0500 (Central Daylight Time),630231.8999999985,152_y_f_n_a.png,O,z,833,8,1,1859.8000000044703,628372.099999994,7123,NNB,B,6
7,test,1,0.0,2-Back,1,m,Fri Apr 11 2025 09:28:58 GMT-0500 (Central Daylight Time),633097.6999999955,013_y_m_n_a.png,O,m,1842,9,1,2859.1999999955297,630238.5,7123,NNB,B,7
8,test,1,0.0,2-Back,1,m,Fri Apr 11 2025 09:28:58 GMT-0500 (Central Daylight Time),635098.1999999955,110_o_f_n_a.png,O,m,966,10,1,1993.1000000014901,633105.099999994,7123,NNB,B,8
9,test,1,1.0,2-Back,1,z,Fri Apr 11 2025 09:28:58 GMT-0500 (Central Daylight Time),636795.1999999955,013_y_m_n_a.png,O,z,679,11,1,1693.1999999955297,635102.0,7123,NNB,B,9
10,test,1,0.0,2-Back,1,m,Fri Apr 11 2025 09:28:58 GMT-0500 (Central Daylight Time),638546.6999999955,029_m_f_n_a.png,O,m,733,12,1,1743.5,636803.1999999955,7123,NNB,B,10
11,test,1,0.0,2-Back,1,m,Fri Apr 11 2025 09:28:58 GMT-0500 (Central Daylight Time),640978.3999999985,029_m_f_n_a.png,O,m,1405,13,1,2426.0,638552.3999999985,7123,NNB,B,11
12,test,1,0.0,2-Back,1,m,Fri Apr 11 2025 09:28:58 GMT-0500 (Central Daylight Time),642860.0,065_o_m_n_a.png,O,m,866,14,1,1877.3000000044703,640982.6999999955,7123,NNB,B,12
13,test,1,0.0,2-Back,1,m,Fri Apr 11 2025 09:28:58 GMT-0500 (Central Daylight Time),644561.299999997,110_o_f_n_a.png,O,m,683,15,1,1694.6000000014901,642866.6999999955,7123,NNB,B,13
14,test,1,1.0,2-Back,1,z,Fri Apr 11 2025 09:28:58 GMT-0500 (Central Daylight Time),646460.0,065_o_m_n_a.png,O,z,865,16,1,1894.1000000014901,644565.8999999985,7123,NNB,B,14
15,test,1,0.0,2-Back,1,m,Fri Apr 11 2025 09:28:58 GMT-0500 (Central Daylight Time),648709.099999994,097_m_f_n_a.png,O,m,1221,17,1,2241.7999999970198,646467.299999997,7123,NNB,B,15
16,test,1,0.0,2-Back,1,m,Fri Apr 11 2025 09:28:58 GMT-0500 (Central Daylight Time),650609.8999999985,178_m_m_n_a.png,O,m,884,18,1,1893.3000000044703,648716.599999994,7123,NNB,B,16
0,test,2,0.0,2-Back,,,Fri Apr 11 2025 09:28:58 GMT-0500 (Central Daylight Time),650609.8999999985,178_m_m_n_a.png,O,space,4230,1,1,1893.3000000044703,648716.599999994,7123,NNB,B,0
0,test,2,0.0,2-Back,,,Fri Apr 11 2025 09:28:58 GMT-0500 (Central Daylight Time),650609.8999999985,173_y_f_n_a.png,O,space,4230,2,1,1893.3000000044703,648716.599999994,7123,NNB,B,0
0,test,2,1.0,2-Back,0,z,Fri Apr 11 2025 09:28:58 GMT-0500 (Central Daylight Time),661788.1999999955,178_m_m_n_a.png,O,m,799,3,1,1808.6999999955297,659979.5,7123,NNB,B,1
0,test,2,0.0,2-Back,0,m,Fri Apr 11 2025 09:28:58 GMT-0500 (Central Daylight Time),663521.0,097_m_f_n_a.png,O,z,707,4,1,1725.1000000014901,661795.8999999985,7123,NNB,B,2
0,test,2,0.0,2-Back,0,m,Fri Apr 11 2025 09:28:58 GMT-0500 (Central Daylight Time),666554.3999999985,173_y_f_n_a.png,O,None,2015,5,1,3027.89999999851,663526.5,7123,NNB,B,3
1,test,2,0.0,2-Back,1,m,Fri Apr 11 2025 09:28:58 GMT-0500 (Central Daylight Time),668652.1999999955,065_o_m_n_a.png,O,m,1070,6,1,2091.39999999851,666560.799999997,7123,NNB,B,4
2,test,2,0.0,2-Back,1,m,Fri Apr 11 2025 09:28:58 GMT-0500 (Central Daylight Time),670853.0,152_y_f_n_a.png,O,m,1184,7,1,2194.2000000029802,668658.799999997,7123,NNB,B,5
3,test,2,1.0,2-Back,1,z,Fri Apr 11 2025 09:28:58 GMT-0500 (Central Daylight Time),673300.8999999985,065_o_m_n_a.png,O,z,1428,8,1,2442.5,670858.3999999985,7123,NNB,B,6
4,test,2,0.0,2-Back,1,m,Fri Apr 11 2025 09:28:58 GMT-0500 (Central Daylight Time),675333.599999994,013_y_m_n_a.png,O,m,1002,9,1,2027.3999999985099,673306.1999999955,7123,NNB,B,7
5,test,2,0.0,2-Back,1,m,Fri Apr 11 2025 09:28:58 GMT-0500 (Central Daylight Time),677483.8999999985,013_y_m_n_a.png,O,m,1134,10,1,2144.7000000029802,675339.1999999955,7123,NNB,B,8
6,test,2,0.0,2-Back,1,m,Fri Apr 11 2025 09:28:58 GMT-0500 (Central Daylight Time),679448.8999999985,029_m_f_n_a.png,O,m,941,11,1,1958.0,677490.8999999985,7123,NNB,B,9
6,test,2,0.0,2-Back,0,m,Fri Apr 11 2025 09:28:58 GMT-0500 (Central Daylight Time),681083.0,173_y_f_n_a.png,O,z,616,12,1,1628.9000000059605,679454.099999994,7123,NNB,B,10
7,test,2,1.0,2-Back,1,z,Fri Apr 11 2025 09:28:58 GMT-0500 (Central Daylight Time),683180.3999999985,029_m_f_n_a.png,O,z,1069,13,1,2094.10000000149,681086.299999997,7123,NNB,B,11
8,test,2,0.0,2-Back,1,m,Fri Apr 11 2025 09:28:58 GMT-0500 (Central Daylight Time),685180.299999997,176_o_m_n_a.png,O,m,967,14,1,1993.7000000029802,683186.599999994,7123,NNB,B,12
9,test,2,0.0,2-Back,1,m,Fri Apr 11 2025 09:28:58 GMT-0500 (Central Daylight Time),687229.5,176_o_m_n_a.png,O,m,1027,15,1,2042.2000000029802,685187.299999997,7123,NNB,B,13
10,test,2,0.0,2-Back,1,m,Fri Apr 11 2025 09:28:58 GMT-0500 (Central Daylight Time),689147.799999997,110_o_f_n_a.png,O,m,890,16,1,1912.2000000029802,687235.599999994,7123,NNB,B,14
11,test,2,0.0,2-Back,1,m,Fri Apr 11 2025 09:28:58 GMT-0500 (Central Daylight Time),690995.5,126_m_m_n_a.png,O,m,823,17,1,1841.4000000059605,689154.099999994,7123,NNB,B,15
12,test,2,1.0,2-Back,1,z,Fri Apr 11 2025 09:28:58 GMT-0500 (Central Daylight Time),692845.5,110_o_f_n_a.png,O,z,821,18,1,1844.0,691001.5,7123,NNB,B,16
0,test,3,1.0,2-Back,,,Fri Apr 11 2025 09:28:58 GMT-0500 (Central Daylight Time),692845.5,153_y_m_n_a.png,O,space,1354,1,1,1844.0,691001.5,7123,NNB,B,0
0,test,3,1.0,2-Back,,,Fri Apr 11 2025 09:28:58 GMT-0500 (Central Daylight Time),692845.5,153_y_m_n_a.png,O,space,1354,2,1,1844.0,691001.5,7123,NNB,B,0
1,test,3,0.0,2-Back,1,m,Fri Apr 11 2025 09:28:58 GMT-0500 (Central Daylight Time),701458.8999999985,110_o_f_n_a.png,O,m,1097,3,1,2107.5,699351.3999999985,7123,NNB,B,1
2,test,3,0.0,2-Back,1,m,Fri Apr 11 2025 09:28:58 GMT-0500 (Central Daylight Time),703224.8999999985,178_m_m_n_a.png,O,m,732,4,1,1759.3000000044703,701465.599999994,7123,NNB,B,2
3,test,3,1.0,2-Back,1,z,Fri Apr 11 2025 09:28:58 GMT-0500 (Central Daylight Time),704957.5,110_o_f_n_a.png,O,z,710,5,1,1725.3000000044703,703232.1999999955,7123,NNB,B,3
4,test,3,0.0,2-Back,1,m,Fri Apr 11 2025 09:28:58 GMT-0500 (Central Daylight Time),706906.0,013_y_m_n_a.png,O,m,930,6,1,1942.0,704964.0,7123,NNB,B,4
4,test,3,0.0,2-Back,0,m,Fri Apr 11 2025 09:28:58 GMT-0500 (Central Daylight Time),709072.8999999985,178_m_m_n_a.png,O,z,1140,7,1,2160.39999999851,706912.5,7123,NNB,B,5
5,test,3,1.0,2-Back,1,z,Fri Apr 11 2025 09:28:58 GMT-0500 (Central Daylight Time),711239.0,013_y_m_n_a.png,O,z,1133,8,1,2158.8000000044703,709080.1999999955,7123,NNB,B,6
6,test,3,0.0,2-Back,1,m,Fri Apr 11 2025 09:28:58 GMT-0500 (Central Daylight Time),713872.299999997,173_y_f_n_a.png,O,m,1601,9,1,2626.2999999970198,711246.0,7123,NNB,B,7
6,test,3,0.0,2-Back,0,m,Fri Apr 11 2025 09:28:58 GMT-0500 (Central Daylight Time),716903.1999999955,126_m_m_n_a.png,O,None,2014,10,1,3024.2999999970198,713878.8999999985,7123,NNB,B,8
6,test,3,1.0,2-Back,0,z,Fri Apr 11 2025 09:28:58 GMT-0500 (Central Daylight Time),718819.6999999955,173_y_f_n_a.png,O,m,887,11,1,1909.8999999985099,716909.799999997,7123,NNB,B,9
7,test,3,1.0,2-Back,1,z,Fri Apr 11 2025 09:28:58 GMT-0500 (Central Daylight Time),720619.1999999955,126_m_m_n_a.png,O,z,772,12,1,1792.5,718826.6999999955,7123,NNB,B,10
8,test,3,0.0,2-Back,1,m,Fri Apr 11 2025 09:28:58 GMT-0500 (Central Daylight Time),722732.799999997,110_o_f_n_a.png,O,m,1084,13,1,2106.2999999970198,720626.5,7123,NNB,B,11
9,test,3,0.0,2-Back,1,m,Fri Apr 11 2025 09:28:58 GMT-0500 (Central Daylight Time),724500.299999997,097_m_f_n_a.png,O,m,734,14,1,1765.1000000014901,722735.1999999955,7123,NNB,B,12
10,test,3,0.0,2-Back,1,m,Fri Apr 11 2025 09:28:58 GMT-0500 (Central Daylight Time),726350.3999999985,065_o_m_n_a.png,O,m,825,15,1,1845.8999999985099,724504.5,7123,NNB,B,13
11,test,3,1.0,2-Back,1,z,Fri Apr 11 2025 09:28:58 GMT-0500 (Central Daylight Time),728200.599999994,097_m_f_n_a.png,O,z,826,16,1,1844.2999999970198,726356.299999997,7123,NNB,B,14
12,test,3,0.0,2-Back,1,m,Fri Apr 11 2025 09:28:58 GMT-0500 (Central Daylight Time),730165.8999999985,086_o_f_n_a.png,O,m,942,17,1,1958.3999999985099,728207.5,7123,NNB,B,15
12,test,3,0.0,2-Back,0,m,Fri Apr 11 2025 09:28:58 GMT-0500 (Central Daylight Time),732331.5,086_o_f_n_a.png,O,z,1147,18,1,2160.8000000044703,730170.6999999955,7123,NNB,B,16
0,test,4,0.0,2-Back,,,Fri Apr 11 2025 09:28:58 GMT-0500 (Central Daylight Time),732331.5,176_o_m_n_a.png,O,space,15662,1,1,2160.8000000044703,730170.6999999955,7123,NNB,B,0
0,test,4,0.0,2-Back,,,Fri Apr 11 2025 09:28:58 GMT-0500 (Central Daylight Time),732331.5,152_y_f_n_a.png,O,space,15662,2,1,2160.8000000044703,730170.6999999955,7123,NNB,B,0
1,test,4,1.0,2-Back,1,z,Fri Apr 11 2025 09:28:58 GMT-0500 (Central Daylight Time),755291.299999997,176_o_m_n_a.png,O,z,1055,3,1,2074.7000000029802,753216.599999994,7123,NNB,B,1
2,test,4,1.0,2-Back,1,z,Fri Apr 11 2025 09:28:58 GMT-0500 (Central Daylight Time),757324.599999994,152_y_f_n_a.png,O,z,1012,4,1,2026.5,755298.099999994,7123,NNB,B,2
3,test,4,0.0,2-Back,1,m,Fri Apr 11 2025 09:28:58 GMT-0500 (Central Daylight Time),759640.3999999985,110_o_f_n_a.png,O,m,1291,5,1,2309.7000000029802,757330.6999999955,7123,NNB,B,3
4,test,4,0.0,2-Back,1,m,Fri Apr 11 2025 09:28:58 GMT-0500 (Central Daylight Time),761821.799999997,110_o_f_n_a.png,O,m,1160,6,1,2175.5,759646.299999997,7123,NNB,B,4
5,test,4,0.0,2-Back,1,m,Fri Apr 11 2025 09:28:58 GMT-0500 (Central Daylight Time),764288.8999999985,029_m_f_n_a.png,O,m,1433,7,1,2460.39999999851,761828.5,7123,NNB,B,5
6,test,4,0.0,2-Back,1,m,Fri Apr 11 2025 09:28:58 GMT-0500 (Central Daylight Time),766203.6999999955,013_y_m_n_a.png,O,m,885,8,1,1908.1999999955297,764295.5,7123,NNB,B,6
7,test,4,1.0,2-Back,1,z,Fri Apr 11 2025 09:28:58 GMT-0500 (Central Daylight Time),768203.799999997,029_m_f_n_a.png,O,z,980,9,1,1993.5,766210.299999997,7123,NNB,B,7
8,test,4,0.0,2-Back,1,m,Fri Apr 11 2025 09:28:58 GMT-0500 (Central Daylight Time),770452.5,126_m_m_n_a.png,O,m,1225,10,1,2242.2000000029802,768210.299999997,7123,NNB,B,8
9,test,4,0.0,2-Back,1,m,Fri Apr 11 2025 09:28:58 GMT-0500 (Central Daylight Time),772952.3999999985,013_y_m_n_a.png,O,m,1466,11,1,2493.89999999851,770458.5,7123,NNB,B,9
10,test,4,0.0,2-Back,1,m,Fri Apr 11 2025 09:28:58 GMT-0500 (Central Daylight Time),775185.1999999955,086_o_f_n_a.png,O,m,1207,12,1,2225.89999999851,772959.299999997,7123,NNB,B,10
11,test,4,0.0,2-Back,1,m,Fri Apr 11 2025 09:28:58 GMT-0500 (Central Daylight Time),777083.8999999985,153_y_m_n_a.png,O,m,881,13,1,1892.8000000044703,775191.099999994,7123,NNB,B,11
12,test,4,1.0,2-Back,1,z,Fri Apr 11 2025 09:28:58 GMT-0500 (Central Daylight Time),778786.1999999955,086_o_f_n_a.png,O,z,676,14,1,1696.0,777090.1999999955,7123,NNB,B,12
12,test,4,1.0,2-Back,0,z,Fri Apr 11 2025 09:28:58 GMT-0500 (Central Daylight Time),781366.5,153_y_m_n_a.png,O,m,1558,15,1,2574.2000000029802,778792.299999997,7123,NNB,B,13
13,test,4,0.0,2-Back,1,m,Fri Apr 11 2025 09:28:58 GMT-0500 (Central Daylight Time),783548.099999994,178_m_m_n_a.png,O,m,1160,16,1,2174.39999999851,781373.6999999955,7123,NNB,B,14
14,test,4,0.0,2-Back,1,m,Fri Apr 11 2025 09:28:58 GMT-0500 (Central Daylight Time),785531.0,097_m_f_n_a.png,O,m,954,17,1,1976.3000000044703,783554.6999999955,7123,NNB,B,15
15,test,4,1.0,2-Back,1,z,Fri Apr 11 2025 09:28:58 GMT-0500 (Central Daylight Time),787631.299999997,178_m_m_n_a.png,O,z,1075,18,1,2094.60000000149,785536.6999999955,7123,NNB,B,16
0,test,5,1.0,2-Back,,,Fri Apr 11 2025 09:28:58 GMT-0500 (Central Daylight Time),787631.299999997,153_y_m_n_a.png,O,space,2905,1,1,2094.60000000149,785536.6999999955,7123,NNB,B,0
0,test,5,1.0,2-Back,,,Fri Apr 11 2025 09:28:58 GMT-0500 (Central Daylight Time),787631.299999997,097_m_f_n_a.png,O,space,2905,2,1,2094.60000000149,785536.6999999955,7123,NNB,B,0
1,test,5,1.0,2-Back,1,z,Fri Apr 11 2025 09:28:58 GMT-0500 (Central Daylight Time),797528.299999997,153_y_m_n_a.png,O,z,899,3,1,1926.0,795602.299999997,7123,NNB,B,1
2,test,5,1.0,2-Back,1,z,Fri Apr 11 2025 09:28:58 GMT-0500 (Central Daylight Time),799127.3999999985,097_m_f_n_a.png,O,z,576,4,1,1593.3000000044703,797534.099999994,7123,NNB,B,2
3,test,5,0.0,2-Back,1,m,Fri Apr 11 2025 09:28:58 GMT-0500 (Central Daylight Time),801060.299999997,086_o_f_n_a.png,O,m,901,5,1,1926.5,799133.799999997,7123,NNB,B,3
3,test,5,0.0,2-Back,0,m,Fri Apr 11 2025 09:28:58 GMT-0500 (Central Daylight Time),804093.1999999955,153_y_m_n_a.png,O,None,2016,6,1,3026.89999999851,801066.299999997,7123,NNB,B,4
4,test,5,0.0,2-Back,1,m,Fri Apr 11 2025 09:28:58 GMT-0500 (Central Daylight Time),806509.299999997,173_y_f_n_a.png,O,m,1397,7,1,2409.2999999970198,804100.0,7123,NNB,B,5
5,test,5,0.0,2-Back,1,m,Fri Apr 11 2025 09:28:58 GMT-0500 (Central Daylight Time),808774.3999999985,086_o_f_n_a.png,O,m,1245,8,1,2258.60000000149,806515.799999997,7123,NNB,B,6
6,test,5,1.0,2-Back,1,z,Fri Apr 11 2025 09:28:58 GMT-0500 (Central Daylight Time),810707.3999999985,173_y_f_n_a.png,O,z,902,9,1,1927.3000000044703,808780.099999994,7123,NNB,B,7
7,test,5,0.0,2-Back,1,m,Fri Apr 11 2025 09:28:58 GMT-0500 (Central Daylight Time),812423.0,065_o_m_n_a.png,O,m,693,10,1,1709.6000000014901,810713.3999999985,7123,NNB,B,8
8,test,5,0.0,2-Back,1,m,Fri Apr 11 2025 09:28:58 GMT-0500 (Central Daylight Time),814221.1999999955,029_m_f_n_a.png,O,m,775,11,1,1792.1999999955297,812429.0,7123,NNB,B,9
9,test,5,0.0,2-Back,1,m,Fri Apr 11 2025 09:28:58 GMT-0500 (Central Daylight Time),816071.299999997,126_m_m_n_a.png,O,m,825,12,1,1846.0,814225.299999997,7123,NNB,B,10
10,test,5,0.0,2-Back,1,m,Fri Apr 11 2025 09:28:58 GMT-0500 (Central Daylight Time),818105.299999997,065_o_m_n_a.png,O,m,1015,13,1,2029.0,816076.299999997,7123,NNB,B,11
10,test,5,1.0,2-Back,0,z,Fri Apr 11 2025 09:28:58 GMT-0500 (Central Daylight Time),819955.799999997,126_m_m_n_a.png,O,m,832,14,1,1845.7000000029802,818110.099999994,7123,NNB,B,12
11,test,5,0.0,2-Back,1,m,Fri Apr 11 2025 09:28:58 GMT-0500 (Central Daylight Time),821868.599999994,152_y_f_n_a.png,O,m,893,15,1,1906.0999999940395,819962.5,7123,NNB,B,13
12,test,5,0.0,2-Back,1,m,Fri Apr 11 2025 09:28:58 GMT-0500 (Central Daylight Time),823853.099999994,176_o_m_n_a.png,O,m,962,16,1,1977.2999999970198,821875.799999997,7123,NNB,B,14
13,test,5,0.0,2-Back,1,m,Fri Apr 11 2025 09:28:58 GMT-0500 (Central Daylight Time),825636.6999999955,029_m_f_n_a.png,O,m,766,17,1,1777.3999999985099,823859.299999997,7123,NNB,B,15
14,test,5,1.0,2-Back,1,z,Fri Apr 11 2025 09:28:58 GMT-0500 (Central Daylight Time),827518.1999999955,176_o_m_n_a.png,O,z,851,18,1,1875.1000000014901,825643.099999994,7123,NNB,B,16
