acc_sum,block_c,block_dur,condition,correct,correct_response,countdown,datetime,endtime,project,response,response_time,response_time_test1_response,response_time_test2_response,row_sel,same,session_number,start_end,starttime,stim1,stim2,subject_id,task,task_vers,time_test1,time_test2,trial
1,1,0.0,prac,1,z,30000.0,Tue Apr 22 2025 19:02:24 GMT-0500 (Central Daylight Time),30270.899999976158,I,z,1528,,,4,yes,2,3062.0,27208.899999976158,RSM,RSM,8019,LC,C,,,1
2,1,0.0,prac,1,m,30000.0,Tue Apr 22 2025 19:02:24 GMT-0500 (Central Daylight Time),34336.19999998808,I,m,2541,,,5,no,2,4060.4000000059605,30275.79999998212,LNDPRSKQB,LNDPRSJQB,8019,LC,C,,,2
3,1,0.0,prac,1,m,30000.0,Tue Apr 22 2025 19:02:24 GMT-0500 (Central Daylight Time),37252.09999999404,I,m,1381,,,1,no,2,2911.7000000178814,34340.39999997616,RNV,FNV,8019,LC,C,,,3
4,1,0.0,prac,1,m,30000.0,Tue Apr 22 2025 19:02:24 GMT-0500 (Central Daylight Time),41484.0,I,m,2697,,,3,no,2,4227.600000023842,37256.39999997616,QHZXPC,QHZWPC,8019,LC,C,,,4
5,1,0.0,prac,1,z,30000.0,Tue Apr 22 2025 19:02:24 GMT-0500 (Central Daylight Time),44916.19999998808,I,z,1895,,,2,yes,2,3426.9000000059605,41489.29999998212,NBGFSM,NBGFSM,8019,LC,C,,,5
6,1,0.0,prac,1,z,30000.0,Tue Apr 22 2025 19:02:24 GMT-0500 (Central Daylight Time),50231.29999998212,I,z,3793,,,6,yes,2,5311.0999999940395,44920.19999998808,CSDBFPHXZ,CSDBFPHXZ,8019,LC,C,,,6
1,1,1.4830000400543213,test,1,m,28516.99995994568,Tue Apr 22 2025 19:02:24 GMT-0500 (Central Daylight Time),57762.29999998212,I,m,1472,1472,,1,no,2,1480.2999999821186,56282.0,HCF,RCF,8019,LC,C,52622,,1
2,1,3.498000144958496,test,1,m,26501.999855041504,Tue Apr 22 2025 19:02:24 GMT-0500 (Central Daylight Time),59778.5,I,m,2003,2003,,2,no,2,2012.4000000059605,57766.09999999404,QTPRJX,QTPNJX,8019,LC,C,54107,,2
3,1,6.013999938964844,test,1,m,23986.000061035156,Tue Apr 22 2025 19:02:24 GMT-0500 (Central Daylight Time),62294.09999999404,I,m,2499,2499,,3,no,2,2512.2000000178814,59781.89999997616,MZDYGVGKQ,MZDYGLBKQ,8019,LC,C,56123,,3
4,1,7.3470001220703125,test,1,m,22652.999877929688,Tue Apr 22 2025 19:02:24 GMT-0500 (Central Daylight Time),63627.19999998808,I,m,1319,1319,,4,no,2,1329.199999988079,62298.0,FQTNMK,JQTNMK,8019,LC,C,58639,,4
5,1,8.296000003814697,test,1,z,21703.999996185303,Tue Apr 22 2025 19:02:24 GMT-0500 (Central Daylight Time),64576.59999999404,I,z,939,939,,5,yes,2,946.0,63630.59999999404,CLJ,CLJ,8019,LC,C,59971,,5
5,1,10.796000003814697,test,0,m,19203.999996185303,Tue Apr 22 2025 19:02:24 GMT-0500 (Central Daylight Time),67076.0,I,z,2494,2494,,6,no,2,2496.7000000178814,64579.29999998212,JGDMNSVPW,JGZMNSVPW,8019,LC,C,60920,,6
6,1,13.945000171661377,test,1,z,16054.999828338623,Tue Apr 22 2025 19:02:24 GMT-0500 (Central Daylight Time),70225.0,I,z,3130,3130,,7,yes,2,3145.800000011921,67079.19999998808,FPTVHKCBJ,FPTVHKCBJ,8019,LC,C,63420,,7
7,1,15.011000156402588,test,1,m,14988.999843597412,Tue Apr 22 2025 19:02:24 GMT-0500 (Central Daylight Time),71291.29999998212,I,m,1053,1053,,8,no,2,1062.9000000059605,70228.39999997616,XRPZBS,ZRPBDH,8019,LC,C,66569,,8
8,1,16.361000061035156,test,1,m,13638.999938964844,Tue Apr 22 2025 19:02:24 GMT-0500 (Central Daylight Time),72640.89999997616,I,m,1339,1339,,9,no,2,1346.5,71294.39999997616,ZSQ,ZSP,8019,LC,C,67635,,9
9,1,17.877000093460083,test,1,z,12122.999906539917,Tue Apr 22 2025 19:02:24 GMT-0500 (Central Daylight Time),74157.19999998808,I,z,1509,1509,,10,yes,2,1512.699999988079,72644.5,MPZRXL,MPZRXL,8019,LC,C,68985,,10
10,1,19.110000133514404,test,1,m,10889.999866485596,Tue Apr 22 2025 19:02:24 GMT-0500 (Central Daylight Time),75390.09999999404,I,m,1225,1225,,11,no,2,1229.5,74160.59999999404,KJH,KRH,8019,LC,C,70501,,11
11,1,22.108999967575073,test,1,z,7891.000032424927,Tue Apr 22 2025 19:02:24 GMT-0500 (Central Daylight Time),78389.09999999404,I,z,2984,2984,,12,yes,2,2995.7000000178814,75393.39999997616,SMNHVTFCB,SMNHVTFCB,8019,LC,C,71734,,12
12,1,23.508000135421753,test,1,z,6491.999864578247,Tue Apr 22 2025 19:02:24 GMT-0500 (Central Daylight Time),79788.5,I,z,1385,1385,,13,yes,2,1396.4000000059605,78392.09999999404,KJWTQF,KJWTQF,8019,LC,C,74733,,13
13,1,26.740999937057495,test,1,z,3259.000062942505,Tue Apr 22 2025 19:02:24 GMT-0500 (Central Daylight Time),83021.09999999404,I,z,3226,3226,,14,yes,2,3229.5999999940395,79791.5,CHDKQGLMB,CHDKQGLMB,8019,LC,C,76132,,14
14,1,27.77400016784668,test,1,z,2225.9998321533203,Tue Apr 22 2025 19:02:24 GMT-0500 (Central Daylight Time),84053.89999997616,I,z,1017,1017,,15,yes,2,1029.2999999821186,83024.59999999404,GHQ,GHQ,8019,LC,C,79365,,15
15,1,29.072999954223633,test,1,z,927.0000457763672,Tue Apr 22 2025 19:02:24 GMT-0500 (Central Daylight Time),85353.69999998808,I,z,1280,1280,,16,yes,2,1296.5999999940395,84057.09999999404,GFVMRH,GFVMRH,8019,LC,C,80398,,16
15,1,30.00600004196167,test,0,z,-6.000041961669922,Tue Apr 22 2025 19:02:24 GMT-0500 (Central Daylight Time),86286.69999998808,I,None,929,929,,17,yes,2,929.8000000119209,85356.89999997616,RSM,RSM,8019,LC,C,81697,,17
1,2,2.0490000247955322,test,1,z,27950.999975204468,Tue Apr 22 2025 19:02:24 GMT-0500 (Central Daylight Time),91401.69999998808,I,z,2030,,2030.0,1,yes,2,6044.800000011921,85356.89999997616,PRDBZTYFN,PRDBZTYFN,8019,LC,C,,85696.0,1
2,2,3.499000072479248,test,1,m,26500.999927520752,Tue Apr 22 2025 19:02:24 GMT-0500 (Central Daylight Time),92851.0,I,m,1444,,1444.0,2,no,2,7494.100000023842,85356.89999997616,NCWJDZ,NCMJDZ,8019,LC,C,,87746.0,2
3,2,4.664999961853027,test,1,m,25335.000038146973,Tue Apr 22 2025 19:02:24 GMT-0500 (Central Daylight Time),94017.39999997616,I,m,1148,,1148.0,3,no,2,8660.5,85356.89999997616,KHW,KBW,8019,LC,C,,89194.0,3
4,2,6.914000034332275,test,1,m,23085.999965667725,Tue Apr 22 2025 19:02:24 GMT-0500 (Central Daylight Time),96266.69999998808,I,m,2229,,2229.0,4,no,2,10909.800000011921,85356.89999997616,ZRBGMF,ZRBCMF,8019,LC,C,,90361.0,4
5,2,8.130000114440918,test,1,m,21869.999885559082,Tue Apr 22 2025 19:02:24 GMT-0500 (Central Daylight Time),97482.69999998808,I,m,1212,,1212.0,5,no,2,12125.800000011921,85356.89999997616,BTH,BYH,8019,LC,C,,92610.0,5
6,2,10.263000011444092,test,1,z,19736.99998855591,Tue Apr 22 2025 19:02:24 GMT-0500 (Central Daylight Time),99615.69999998808,I,z,2124,,2124.0,6,yes,2,14258.800000011921,85356.89999997616,XWKQRYCNZ,XWKQRYCNZ,8019,LC,C,,93826.0,6
7,2,11.963000059127808,test,1,z,18036.999940872192,Tue Apr 22 2025 19:02:24 GMT-0500 (Central Daylight Time),101315.29999998212,I,z,1686,,1686.0,7,yes,2,15958.40000000596,85356.89999997616,HNPDLK,HNPDLK,8019,LC,C,,95960.0,7
7,2,15.57800006866455,test,0,m,14421.99993133545,Tue Apr 22 2025 19:02:24 GMT-0500 (Central Daylight Time),104930.5,I,z,3611,,3611.0,8,no,2,19573.600000023842,85356.89999997616,WMQTRSGLZ,WMQTRZGLZ,8019,LC,C,,97659.0,8
8,2,16.76200008392334,test,1,z,13237.99991607666,Tue Apr 22 2025 19:02:24 GMT-0500 (Central Daylight Time),106113.89999997616,I,z,1172,,1172.0,9,yes,2,20757.0,85356.89999997616,JPN,JPN,8019,LC,C,,101274.0,9
9,2,18.444000005722046,test,1,m,11555.999994277954,Tue Apr 22 2025 19:02:24 GMT-0500 (Central Daylight Time),107796.5,I,m,1669,,1669.0,10,no,2,22439.600000023842,85356.89999997616,QLXSVT,QLNSVT,8019,LC,C,,102457.0,10
9,2,21.3270001411438,test,0,z,8672.999858856201,Tue Apr 22 2025 19:02:24 GMT-0500 (Central Daylight Time),110679.09999999404,I,m,2874,,2874.0,11,yes,2,25322.20000001788,85356.89999997616,YXHKZVFPB,YXHKZVFPD,8019,LC,C,,104140.0,11
10,2,22.360000133514404,test,1,z,7639.999866485596,Tue Apr 22 2025 19:02:24 GMT-0500 (Central Daylight Time),111712.0,I,z,1023,,1023.0,12,yes,2,26355.100000023842,85356.89999997616,RJZ,RJZ,8019,LC,C,,107023.0,12
11,2,24.108999967575073,test,1,z,5891.000032424927,Tue Apr 22 2025 19:02:24 GMT-0500 (Central Daylight Time),113461.29999998212,I,z,1743,,1743.0,13,yes,2,28104.40000000596,85356.89999997616,CLNPZD,CLNPZD,8019,LC,C,,108055.0,13
12,2,25.941999912261963,test,1,m,4058.000087738037,Tue Apr 22 2025 19:02:24 GMT-0500 (Central Daylight Time),115294.09999999404,I,m,1825,,1825.0,14,no,2,29937.20000001788,85356.89999997616,DCBPFHXYJ,DCBPFHLYJ,8019,LC,C,,109805.0,14
13,2,27.141000032424927,test,1,m,2858.9999675750732,Tue Apr 22 2025 19:02:24 GMT-0500 (Central Daylight Time),116493.79999998212,I,m,1184,,1184.0,15,no,2,31136.90000000596,85356.89999997616,MWR,ZWR,8019,LC,C,,111638.0,15
14,2,29.69000005722046,test,1,z,309.999942779541,Tue Apr 22 2025 19:02:24 GMT-0500 (Central Daylight Time),119043.0,I,z,2537,,2537.0,16,yes,2,33686.10000002384,85356.89999997616,LPKXZW,LPKXZW,8019,LC,C,,112837.0,16
14,2,30.006999969482422,test,0,m,-6.999969482421875,Tue Apr 22 2025 19:02:24 GMT-0500 (Central Daylight Time),119359.59999999404,I,None,313,,313.0,17,no,2,34002.70000001788,85356.89999997616,TZL,TZQ,8019,LC,C,,115386.0,17
