Q,Q1,Q2,Q3,Q4,acc_sum,block,block_c,correct,correct_response,datetime,endtime,project,response,response_time,row_sel,session_number,squiggle1,squiggle1x,squiggle1y,squiggle2,squiggle2x,squiggle2y,squiggle3,squiggle3x,squiggle3y,squiggle4,squiggle4x,squiggle4y,start_end,starttime,subject_id,target_congruent,task,task_vers,testsquiggle,testsquigglex,testsquiggley,time_practice_delay,time_practice_fixation,time_practice_stimuli,time_practice_study,time_test_delay,time_test_fixation,time_test_stimuli,time_test_study,trial
1,1,0,0,0,1,prac,1,1,z,Fri Mar 28 2025 11:34:15 GMT-0500 (Central Daylight Time),170143.79999999702,O,z,1515,1,1,116.bmp,-120,-120,117.bmp,120,-120,118.bmp,-120,120,119.bmp,120,120,10324.5,159819.29999999702,7096,yes,SM,A,116.bmp,-120,-120,163665,157640,165683,159651,,,,,1
3,0,0,1,0,1,prac,1,0,m,Fri Mar 28 2025 11:34:15 GMT-0500 (Central Daylight Time),180974.79999999702,O,None,2015,2,1,120.bmp,-120,-120,121.bmp,120,-120,122.bmp,-120,120,123.bmp,120,120,10825.699999988079,170149.10000000894,7096,no,SM,A,123.bmp,-120,120,173996,167969,176013,169981,,,,,2
4,0,0,0,1,1,prac,1,0,m,Fri Mar 28 2025 11:34:15 GMT-0500 (Central Daylight Time),191534.20000000298,O,z,1741,3,1,124.bmp,-120,-120,125.bmp,120,-120,126.bmp,-120,120,127.bmp,120,120,10554.20000000298,180980.0,7096,no,SM,A,124.bmp,120,120,184826,178800,186842,180811,,,,,3
2,0,1,0,0,1,prac,1,0,z,Fri Mar 28 2025 11:34:15 GMT-0500 (Central Daylight Time),202349.5,O,None,2014,4,1,128.bmp,-120,-120,129.bmp,120,-120,130.bmp,-120,120,131.bmp,120,120,10811.09999999404,191538.40000000596,7096,yes,SM,A,129.bmp,120,-120,195388,189359,197389,191375,,,,,4
3,0,0,1,0,2,prac,1,1,z,Fri Mar 28 2025 11:34:15 GMT-0500 (Central Daylight Time),212345.90000000596,O,z,1181,5,1,132.bmp,-120,-120,133.bmp,120,-120,134.bmp,-120,120,135.bmp,120,120,9992.29999999702,202353.60000000894,7096,yes,SM,A,134.bmp,-120,120,206202,200174,208218,202187,,,,,5
1,1,0,0,0,3,prac,1,1,m,Fri Mar 28 2025 11:34:15 GMT-0500 (Central Daylight Time),222712.20000000298,O,m,1558,6,1,136.bmp,-120,-120,137.bmp,120,-120,138.bmp,-120,120,139.bmp,120,120,10363.40000000596,212348.79999999702,7096,no,SM,A,139.bmp,-120,-120,216200,210169,218216,212183,,,,,6
2,0,1,0,0,4,prac,1,1,m,Fri Mar 28 2025 11:34:15 GMT-0500 (Central Daylight Time),233374.79999999702,O,m,1833,7,1,140.bmp,-120,-120,141.bmp,120,-120,142.bmp,-120,120,143.bmp,120,120,10659.39999999106,222715.40000000596,7096,no,SM,A,140.bmp,120,-120,226562,220536,228581,222549,,,,,7
4,0,0,0,1,4,prac,1,0,z,Fri Mar 28 2025 11:34:15 GMT-0500 (Central Daylight Time),243653.79999999702,O,m,1452,8,1,144.bmp,-120,-120,145.bmp,120,-120,146.bmp,-120,120,147.bmp,120,120,10274.39999999106,233379.40000000596,7096,yes,SM,A,147.bmp,120,120,237224,231200,239242,233210,,,,,8
1,1,0,0,0,1,prac,2,1,z,Fri Mar 28 2025 11:34:15 GMT-0500 (Central Daylight Time),257131.79999999702,O,z,1410,1,1,116.bmp,-120,-120,117.bmp,120,-120,118.bmp,-120,120,119.bmp,120,120,10221.29999999702,246910.5,7096,yes,SM,A,116.bmp,-120,-120,250754,244731,252772,246741,,,,,1
3,0,0,1,0,1,prac,2,0,m,Fri Mar 28 2025 11:34:15 GMT-0500 (Central Daylight Time),267263.299999997,O,z,1300,2,1,120.bmp,-120,-120,121.bmp,120,-120,122.bmp,-120,120,123.bmp,120,120,10125.29999999702,257138.0,7096,no,SM,A,123.bmp,-120,120,260983,254958,263001,256970,,,,,2
4,0,0,0,1,2,prac,2,1,m,Fri Mar 28 2025 11:34:15 GMT-0500 (Central Daylight Time),277660.700000003,O,m,1571,3,1,124.bmp,-120,-120,125.bmp,120,-120,126.bmp,-120,120,127.bmp,120,120,10391.59999999404,267269.10000000894,7096,no,SM,A,124.bmp,120,120,271115,265089,273131,267099,,,,,3
2,0,1,0,0,2,prac,2,0,z,Fri Mar 28 2025 11:34:15 GMT-0500 (Central Daylight Time),288490.10000000894,O,None,2014,4,1,128.bmp,-120,-120,129.bmp,120,-120,130.bmp,-120,120,131.bmp,120,120,10823.0,277667.10000000894,7096,yes,SM,A,129.bmp,120,-120,281511,275487,283529,277497,,,,,4
3,0,0,1,0,3,prac,2,1,z,Fri Mar 28 2025 11:34:15 GMT-0500 (Central Daylight Time),298402.200000003,O,z,1105,5,1,132.bmp,-120,-120,133.bmp,120,-120,134.bmp,-120,120,135.bmp,120,120,9906.5,288495.700000003,7096,yes,SM,A,134.bmp,-120,120,292325,286316,294341,288324,,,,,5
1,1,0,0,0,4,prac,2,1,m,Fri Mar 28 2025 11:34:15 GMT-0500 (Central Daylight Time),308849.700000003,O,m,1632,6,1,136.bmp,-120,-120,137.bmp,120,-120,138.bmp,-120,120,139.bmp,120,120,10442.20000000298,298407.5,7096,no,SM,A,139.bmp,-120,-120,302254,296228,304272,298240,,,,,6
2,0,1,0,0,5,prac,2,1,m,Fri Mar 28 2025 11:34:15 GMT-0500 (Central Daylight Time),319011.799999997,O,m,1343,7,1,140.bmp,-120,-120,141.bmp,120,-120,142.bmp,-120,120,143.bmp,120,120,10156.89999999106,308854.90000000596,7096,no,SM,A,140.bmp,120,-120,312702,306675,314719,308688,,,,,7
4,0,0,0,1,6,prac,2,1,z,Fri Mar 28 2025 11:34:15 GMT-0500 (Central Daylight Time),329659.700000003,O,z,1832,8,1,144.bmp,-120,-120,145.bmp,120,-120,146.bmp,-120,120,147.bmp,120,120,10643.40000000596,319016.299999997,7096,yes,SM,A,147.bmp,120,120,322865,316837,324881,318849,,,,,8
4,0,0,0,1,1,test,1,1,m,Fri Mar 28 2025 11:34:15 GMT-0500 (Central Daylight Time),350219.40000000596,O,m,1756,1,1,148.bmp,-120,-120,149.bmp,120,-120,150.bmp,-120,120,143.bmp,120,120,9806.29999999702,340413.10000000894,7096,no,SM,A,150.bmp,120,120,322865,316837,324881,318849,344258.0,338233.0,346274.0,340246.0,1
2,0,1,0,0,1,test,1,0,m,Fri Mar 28 2025 11:34:15 GMT-0500 (Central Daylight Time),359849.5,O,z,1573,2,1,101.bmp,-120,-120,102.bmp,120,-120,103.bmp,-120,120,104.bmp,120,120,9627.39999999106,350222.10000000894,7096,no,SM,A,103.bmp,120,-120,322865,316837,324881,318849,354071.0,348042.0,356088.0,350056.0,2
1,1,0,0,0,1,test,1,0,z,Fri Mar 28 2025 11:34:15 GMT-0500 (Central Daylight Time),369897.0,O,None,2015,3,1,105.bmp,-120,-120,106.bmp,120,-120,107.bmp,-120,120,108.bmp,120,120,10044.29999999702,359852.700000003,7096,yes,SM,A,105.bmp,-120,-120,322865,316837,324881,318849,363688.0,357673.0,365702.0,359686.0,3
3,0,0,1,0,1,test,1,0,m,Fri Mar 28 2025 11:34:15 GMT-0500 (Central Daylight Time),378710.299999997,O,z,760,4,1,109.bmp,-120,-120,110.bmp,120,-120,111.bmp,-120,120,112.bmp,120,120,8810.0,369900.299999997,7096,no,SM,A,109.bmp,-120,120,322865,316837,324881,318849,373750.0,367721.0,375766.0,369734.0,4
2,0,1,0,0,2,test,1,1,z,Fri Mar 28 2025 11:34:15 GMT-0500 (Central Daylight Time),388590.799999997,O,z,1819,5,1,113.bmp,-120,-120,114.bmp,120,-120,115.bmp,-120,120,116.bmp,120,120,9876.699999988079,378714.10000000894,7096,yes,SM,A,114.bmp,120,-120,322865,316837,324881,318849,382563.0,376534.0,384578.0,378548.0,5
3,0,0,1,0,3,test,1,1,z,Fri Mar 28 2025 11:34:15 GMT-0500 (Central Daylight Time),397654.90000000596,O,z,1012,6,1,117.bmp,-120,-120,118.bmp,120,-120,119.bmp,-120,120,120.bmp,120,120,9060.10000000894,388594.799999997,7096,yes,SM,A,119.bmp,-120,120,322865,316837,324881,318849,392443.0,386415.0,394458.0,388429.0,6
4,0,0,0,1,4,test,1,1,z,Fri Mar 28 2025 11:34:15 GMT-0500 (Central Daylight Time),406801.799999997,O,z,1107,7,1,121.bmp,-120,-120,122.bmp,120,-120,123.bmp,-120,120,124.bmp,120,120,9143.39999999106,397658.40000000596,7096,yes,SM,A,124.bmp,120,120,322865,316837,324881,318849,401505.0,395479.0,403507.0,397491.0,7
2,0,1,0,0,5,test,1,1,m,Fri Mar 28 2025 11:34:15 GMT-0500 (Central Daylight Time),416717.299999997,O,m,1883,8,1,125.bmp,-120,-120,126.bmp,120,-120,127.bmp,-120,120,128.bmp,120,120,9911.59999999404,406805.700000003,7096,no,SM,A,125.bmp,120,-120,322865,316837,324881,318849,410641.0,404626.0,412654.0,406639.0,8
3,0,0,1,0,5,test,1,0,m,Fri Mar 28 2025 11:34:15 GMT-0500 (Central Daylight Time),426778.40000000596,O,None,2013,9,1,129.bmp,-120,-120,130.bmp,120,-120,131.bmp,-120,120,132.bmp,120,120,10057.20000000298,416721.200000003,7096,no,SM,A,130.bmp,-120,120,322865,316837,324881,318849,420567.0,414541.0,422584.0,416551.0,9
4,0,0,0,1,6,test,1,1,z,Fri Mar 28 2025 11:34:15 GMT-0500 (Central Daylight Time),436291.90000000596,O,z,1453,10,1,137.bmp,-120,-120,138.bmp,120,-120,139.bmp,-120,120,140.bmp,120,120,9503.20000000298,426788.700000003,7096,yes,SM,A,140.bmp,120,120,322865,316837,324881,318849,430631.0,424609.0,432648.0,426615.0,10
3,0,0,1,0,7,test,1,1,z,Fri Mar 28 2025 11:34:15 GMT-0500 (Central Daylight Time),445372.0,O,z,1031,11,1,133.bmp,-120,-120,134.bmp,120,-120,135.bmp,-120,120,136.bmp,120,120,9073.09999999404,436298.90000000596,7096,yes,SM,A,135.bmp,-120,120,322865,316837,324881,318849,440143.0,434119.0,442159.0,436128.0,11
2,0,1,0,0,8,test,1,1,m,Fri Mar 28 2025 11:34:15 GMT-0500 (Central Daylight Time),455285.5,O,m,1853,12,1,141.bmp,-120,-120,142.bmp,120,-120,143.bmp,-120,120,144.bmp,120,120,9909.89999999106,445375.60000000894,7096,no,SM,A,141.bmp,120,-120,322865,316837,324881,318849,449225.0,443196.0,451240.0,445209.0,12
3,0,0,1,0,9,test,1,1,m,Fri Mar 28 2025 11:34:15 GMT-0500 (Central Daylight Time),464865.799999997,O,m,1524,13,1,145.bmp,-120,-120,146.bmp,120,-120,147.bmp,-120,120,148.bmp,120,120,9577.0,455288.799999997,7096,no,SM,A,146.bmp,-120,120,322865,316837,324881,318849,459138.0,453109.0,461154.0,455123.0,13
1,1,0,0,0,9,test,1,0,z,Fri Mar 28 2025 11:34:15 GMT-0500 (Central Daylight Time),474932.10000000894,O,None,2016,14,1,149.bmp,-120,-120,150.bmp,120,-120,104.bmp,-120,120,101.bmp,120,120,10062.70000000298,464869.40000000596,7096,yes,SM,A,149.bmp,-120,-120,322865,316837,324881,318849,468719.0,462690.0,470736.0,464704.0,14
4,0,0,0,1,10,test,1,1,m,Fri Mar 28 2025 11:34:15 GMT-0500 (Central Daylight Time),484694.10000000894,O,m,1703,15,1,110.bmp,-120,-120,111.bmp,120,-120,112.bmp,-120,120,113.bmp,120,120,9757.60000000894,474936.5,7096,no,SM,A,111.bmp,120,120,322865,316837,324881,318849,478783.0,472757.0,480798.0,474767.0,15
1,1,0,0,0,11,test,1,1,m,Fri Mar 28 2025 11:34:15 GMT-0500 (Central Daylight Time),494406.200000003,O,m,1651,16,1,102.bmp,-120,-120,103.bmp,120,-120,104.bmp,-120,120,105.bmp,120,120,9708.59999999404,484697.60000000894,7096,no,SM,A,105.bmp,-120,-120,322865,316837,324881,318849,488546.0,482518.0,490562.0,484531.0,16
3,0,0,1,0,11,test,1,0,m,Fri Mar 28 2025 11:34:15 GMT-0500 (Central Daylight Time),503722.299999997,O,z,1264,17,1,122.bmp,-120,-120,123.bmp,120,-120,124.bmp,-120,120,125.bmp,120,120,9312.0,494410.299999997,7096,no,SM,A,122.bmp,-120,120,322865,316837,324881,318849,498258.0,492231.0,500278.0,494244.0,17
1,1,0,0,0,12,test,1,1,z,Fri Mar 28 2025 11:34:15 GMT-0500 (Central Daylight Time),513420.60000000894,O,z,1651,18,1,106.bmp,-120,-120,107.bmp,120,-120,108.bmp,-120,120,109.bmp,120,120,9695.40000000596,503725.200000003,7096,yes,SM,A,106.bmp,-120,-120,322865,316837,324881,318849,507574.0,501546.0,509589.0,503560.0,18
2,0,1,0,0,12,test,1,0,z,Fri Mar 28 2025 11:34:15 GMT-0500 (Central Daylight Time),523482.10000000894,O,None,2015,19,1,126.bmp,-120,-120,127.bmp,120,-120,128.bmp,-120,120,129.bmp,120,120,10057.40000000596,513424.700000003,7096,yes,SM,A,127.bmp,120,-120,322865,316837,324881,318849,517271.0,511245.0,519287.0,513256.0,19
3,0,0,1,0,13,test,1,1,z,Fri Mar 28 2025 11:34:15 GMT-0500 (Central Daylight Time),532894.400000006,O,z,1359,20,1,130.bmp,-120,-120,131.bmp,120,-120,132.bmp,-120,120,133.bmp,120,120,9407.79999999702,523486.60000000894,7096,yes,SM,A,132.bmp,-120,120,322865,316837,324881,318849,527333.0,521307.0,529350.0,523318.0,20
1,1,0,0,0,13,test,1,0,m,Fri Mar 28 2025 11:34:15 GMT-0500 (Central Daylight Time),542408.799999997,O,z,1464,21,1,114.bmp,-120,-120,115.bmp,120,-120,116.bmp,-120,120,117.bmp,120,120,9510.39999999106,532898.400000006,7096,no,SM,A,116.bmp,-120,-120,322865,316837,324881,318849,536746.0,530719.0,538748.0,532733.0,21
4,0,0,0,1,14,test,1,1,z,Fri Mar 28 2025 11:34:15 GMT-0500 (Central Daylight Time),551872.200000003,O,z,1400,22,1,118.bmp,-120,-120,119.bmp,120,-120,120.bmp,-120,120,121.bmp,120,120,9458.0,542414.200000003,7096,yes,SM,A,121.bmp,120,120,322865,316837,324881,318849,546260.0,540235.0,548277.0,542245.0,22
1,1,0,0,0,14,test,1,0,m,Fri Mar 28 2025 11:34:15 GMT-0500 (Central Daylight Time),561319.5,O,z,1391,23,1,134.bmp,-120,-120,135.bmp,120,-120,136.bmp,-120,120,137.bmp,120,120,9442.29999999702,551877.200000003,7096,no,SM,A,137.bmp,-120,-120,322865,316837,324881,318849,555724.0,549698.0,557742.0,551710.0,23
2,0,1,0,0,15,test,1,1,z,Fri Mar 28 2025 11:34:15 GMT-0500 (Central Daylight Time),571082.0,O,z,1706,24,1,142.bmp,-120,-120,143.bmp,120,-120,144.bmp,-120,120,145.bmp,120,120,9759.0,561323.0,7096,yes,SM,A,143.bmp,120,-120,322865,316837,324881,318849,565170.0,559143.0,567187.0,561156.0,24
4,0,0,0,1,16,test,1,1,m,Fri Mar 28 2025 11:34:15 GMT-0500 (Central Daylight Time),580731.400000006,O,m,1615,25,1,146.bmp,-120,-120,147.bmp,120,-120,148.bmp,-120,120,149.bmp,120,120,9646.70000000298,571084.700000003,7096,no,SM,A,148.bmp,120,120,322865,316837,324881,318849,574934.0,568905.0,576936.0,570919.0,25
1,1,0,0,0,16,test,1,0,z,Fri Mar 28 2025 11:34:15 GMT-0500 (Central Daylight Time),590779.0,O,None,2002,26,1,138.bmp,-120,-120,139.bmp,120,-120,140.bmp,-120,120,141.bmp,120,120,10044.70000000298,580734.299999997,7096,yes,SM,A,138.bmp,-120,-120,322865,316837,324881,318849,584581.0,578554.0,586597.0,580567.0,26
4,0,0,0,1,17,test,1,1,z,Fri Mar 28 2025 11:34:15 GMT-0500 (Central Daylight Time),600556.299999997,O,z,1718,27,1,150.bmp,-120,-120,111.bmp,120,-120,101.bmp,-120,120,102.bmp,120,120,9774.09999999404,590782.200000003,7096,yes,SM,A,102.bmp,120,120,322865,316837,324881,318849,594628.0,588602.0,596646.0,590614.0,27
3,0,0,1,0,18,test,1,1,m,Fri Mar 28 2025 11:34:15 GMT-0500 (Central Daylight Time),609955.6000000089,O,m,1350,28,1,103.bmp,-120,-120,104.bmp,120,-120,105.bmp,-120,120,106.bmp,120,120,9396.40000000596,600559.200000003,7096,no,SM,A,103.bmp,-120,120,322865,316837,324881,318849,604408.0,598379.0,606425.0,600394.0,28
2,0,1,0,0,18,test,1,0,z,Fri Mar 28 2025 11:34:15 GMT-0500 (Central Daylight Time),620017.299999997,O,None,2014,29,1,107.bmp,-120,-120,108.bmp,120,-120,109.bmp,-120,120,110.bmp,120,120,10058.29999999702,609959.0,7096,yes,SM,A,108.bmp,120,-120,322865,316837,324881,318849,613806.0,607779.0,615823.0,609792.0,29
3,0,0,1,0,19,test,1,1,z,Fri Mar 28 2025 11:34:15 GMT-0500 (Central Daylight Time),629532.0,O,z,1466,30,1,111.bmp,-120,-120,112.bmp,120,-120,113.bmp,-120,120,114.bmp,120,120,9509.89999999106,620022.1000000089,7096,yes,SM,A,113.bmp,-120,120,322865,316837,324881,318849,623870.0,617842.0,625886.0,619856.0,30
1,1,0,0,0,20,test,1,1,z,Fri Mar 28 2025 11:34:15 GMT-0500 (Central Daylight Time),639276.799999997,O,z,1695,31,1,115.bmp,-120,-120,116.bmp,120,-120,117.bmp,-120,120,118.bmp,120,120,9739.09999999404,629537.700000003,7096,yes,SM,A,115.bmp,-120,-120,322865,316837,324881,318849,633382.0,627358.0,635399.0,629368.0,31
2,0,1,0,0,21,test,1,1,m,Fri Mar 28 2025 11:34:15 GMT-0500 (Central Daylight Time),648941.0,O,m,1626,32,1,119.bmp,-120,-120,120.bmp,120,-120,121.bmp,-120,120,122.bmp,120,120,9658.5,639282.5,7096,no,SM,A,119.bmp,120,-120,322865,316837,324881,318849,643129.0,637103.0,645131.0,639114.0,32
4,0,0,0,1,21,test,1,0,z,Fri Mar 28 2025 11:34:15 GMT-0500 (Central Daylight Time),658720.700000003,O,m,1724,33,1,131.bmp,-120,-120,132.bmp,120,-120,133.bmp,-120,120,134.bmp,120,120,9776.29999999702,648944.400000006,7096,yes,SM,A,134.bmp,120,120,322865,316837,324881,318849,652794.0,646765.0,654809.0,648778.0,33
2,0,1,0,0,22,test,1,1,z,Fri Mar 28 2025 11:34:15 GMT-0500 (Central Daylight Time),668734.400000006,O,z,1960,34,1,123.bmp,-120,-120,124.bmp,120,-120,125.bmp,-120,120,126.bmp,120,120,10010.20000000298,658724.200000003,7096,yes,SM,A,124.bmp,120,-120,322865,316837,324881,318849,662574.0,656545.0,664590.0,658558.0,34
4,0,0,0,1,23,test,1,1,m,Fri Mar 28 2025 11:34:15 GMT-0500 (Central Daylight Time),678248.799999997,O,m,1448,35,1,127.bmp,-120,-120,128.bmp,120,-120,129.bmp,-120,120,130.bmp,120,120,9509.39999999106,668739.400000006,7096,no,SM,A,129.bmp,120,120,322865,316837,324881,318849,672587.0,666560.0,674605.0,668572.0,35
3,0,0,1,0,23,test,1,0,m,Fri Mar 28 2025 11:34:15 GMT-0500 (Central Daylight Time),688313.5,O,None,2016,36,1,135.bmp,-120,-120,136.bmp,120,-120,137.bmp,-120,120,138.bmp,120,120,10060.79999999702,678252.700000003,7096,no,SM,A,135.bmp,-120,120,322865,316837,324881,318849,682100.0,676073.0,684117.0,678086.0,36
1,1,0,0,0,23,test,1,0,m,Fri Mar 28 2025 11:34:15 GMT-0500 (Central Daylight Time),697658.5,O,z,1297,37,1,139.bmp,-120,-120,140.bmp,120,-120,141.bmp,-120,120,142.bmp,120,120,9341.79999999702,688316.700000003,7096,no,SM,A,140.bmp,-120,-120,322865,316837,324881,318849,692164.0,686137.0,694180.0,688149.0,37
2,0,1,0,0,24,test,1,1,m,Fri Mar 28 2025 11:34:15 GMT-0500 (Central Daylight Time),707123.0,O,m,1415,38,1,143.bmp,-120,-120,144.bmp,120,-120,145.bmp,-120,120,146.bmp,120,120,9460.79999999702,697662.200000003,7096,no,SM,A,145.bmp,120,-120,322865,316837,324881,318849,701511.0,695482.0,703528.0,697495.0,38
4,0,0,0,1,24,test,1,0,z,Fri Mar 28 2025 11:34:15 GMT-0500 (Central Daylight Time),716619.700000003,O,m,1448,39,1,147.bmp,-120,-120,148.bmp,120,-120,149.bmp,-120,120,150.bmp,120,120,9493.70000000298,707126.0,7096,yes,SM,A,150.bmp,120,120,322865,316837,324881,318849,710974.0,704946.0,712991.0,706958.0,39
3,0,0,1,0,24,test,1,0,m,Fri Mar 28 2025 11:34:15 GMT-0500 (Central Daylight Time),726682.799999997,O,None,2016,40,1,104.bmp,-120,-120,105.bmp,120,-120,106.bmp,-120,120,107.bmp,120,120,10059.199999988079,716623.6000000089,7096,no,SM,A,105.bmp,-120,120,322865,316837,324881,318849,720472.0,714444.0,722487.0,716455.0,40
1,1,0,0,0,25,test,1,1,z,Fri Mar 28 2025 11:34:15 GMT-0500 (Central Daylight Time),736598.200000003,O,z,1854,41,1,108.bmp,-120,-120,109.bmp,120,-120,110.bmp,-120,120,111.bmp,120,120,9911.0,726687.200000003,7096,yes,SM,A,108.bmp,-120,-120,322865,316837,324881,318849,730535.0,724507.0,732552.0,726521.0,41
4,0,0,0,1,26,test,1,1,z,Fri Mar 28 2025 11:34:15 GMT-0500 (Central Daylight Time),746343.0,O,z,1694,42,1,112.bmp,-120,-120,113.bmp,120,-120,114.bmp,-120,120,115.bmp,120,120,9741.20000000298,736601.799999997,7096,yes,SM,A,115.bmp,120,120,322865,316837,324881,318849,740449.0,734422.0,742464.0,736435.0,42
1,1,0,0,0,27,test,1,1,z,Fri Mar 28 2025 11:34:15 GMT-0500 (Central Daylight Time),756123.900000006,O,z,1720,43,1,116.bmp,-120,-120,117.bmp,120,-120,118.bmp,-120,120,119.bmp,120,120,9777.5,746346.400000006,7096,yes,SM,A,116.bmp,-120,-120,322865,316837,324881,318849,750195.0,744167.0,752213.0,746180.0,43
4,0,0,0,1,28,test,1,1,m,Fri Mar 28 2025 11:34:15 GMT-0500 (Central Daylight Time),765687.700000003,O,m,1503,44,1,104.bmp,-120,-120,101.bmp,120,-120,102.bmp,-120,120,103.bmp,120,120,9560.5,756127.200000003,7096,no,SM,A,104.bmp,120,120,322865,316837,324881,318849,759976.0,753947.0,761991.0,755960.0,44
1,1,0,0,0,29,test,1,1,m,Fri Mar 28 2025 11:34:15 GMT-0500 (Central Daylight Time),775234.700000003,O,m,1490,45,1,128.bmp,-120,-120,129.bmp,120,-120,130.bmp,-120,120,131.bmp,120,120,9543.59999999404,765691.1000000089,7096,no,SM,A,131.bmp,-120,-120,322865,316837,324881,318849,769539.0,763511.0,771555.0,765524.0,45
1,1,0,0,0,30,test,1,1,m,Fri Mar 28 2025 11:34:15 GMT-0500 (Central Daylight Time),784547.799999997,O,m,1255,46,1,120.bmp,-120,-120,121.bmp,120,-120,122.bmp,-120,120,123.bmp,120,120,9310.09999999404,775237.700000003,7096,no,SM,A,121.bmp,-120,-120,322865,316837,324881,318849,779085.0,773058.0,781102.0,775071.0,46
3,0,0,1,0,31,test,1,1,z,Fri Mar 28 2025 11:34:15 GMT-0500 (Central Daylight Time),794078.400000006,O,z,1480,47,1,124.bmp,-120,-120,125.bmp,120,-120,126.bmp,-120,120,127.bmp,120,120,9527.60000000894,784550.799999997,7096,yes,SM,A,126.bmp,-120,120,322865,316837,324881,318849,788400.0,782371.0,790413.0,784385.0,47
3,0,0,1,0,31,test,1,0,z,Fri Mar 28 2025 11:34:15 GMT-0500 (Central Daylight Time),803442.6000000089,O,m,1316,48,1,140.bmp,-120,-120,141.bmp,120,-120,142.bmp,-120,120,143.bmp,120,120,9361.20000000298,794081.400000006,7096,yes,SM,A,142.bmp,-120,120,322865,316837,324881,318849,797930.0,791902.0,799946.0,793915.0,48
2,0,1,0,0,32,test,1,1,z,Fri Mar 28 2025 11:34:15 GMT-0500 (Central Daylight Time),813422.200000003,O,z,1918,49,1,136.bmp,-120,-120,137.bmp,120,-120,138.bmp,-120,120,139.bmp,120,120,9975.09999999404,803447.1000000089,7096,yes,SM,A,137.bmp,120,-120,322865,316837,324881,318849,807294.0,801267.0,809311.0,803280.0,49
3,0,0,1,0,32,test,1,0,m,Fri Mar 28 2025 11:34:15 GMT-0500 (Central Daylight Time),823000.6000000089,O,z,1514,50,1,132.bmp,-120,-120,133.bmp,120,-120,134.bmp,-120,120,135.bmp,120,120,9575.20000000298,813425.400000006,7096,no,SM,A,132.bmp,-120,120,322865,316837,324881,318849,817275.0,811246.0,819290.0,813259.0,50
2,0,1,0,0,33,test,1,1,z,Fri Mar 28 2025 11:34:15 GMT-0500 (Central Daylight Time),832515.900000006,O,z,1470,51,1,144.bmp,-120,-120,145.bmp,120,-120,146.bmp,-120,120,147.bmp,120,120,9513.29999999702,823002.6000000089,7096,yes,SM,A,145.bmp,120,-120,322865,316837,324881,318849,826853.0,820823.0,828855.0,822839.0,51
4,0,0,0,1,34,test,1,1,m,Fri Mar 28 2025 11:34:15 GMT-0500 (Central Daylight Time),842028.799999997,O,m,1464,52,1,148.bmp,-120,-120,149.bmp,120,-120,150.bmp,-120,120,131.bmp,120,120,9508.699999988079,832520.1000000089,7096,no,SM,A,148.bmp,120,120,322865,316837,324881,318849,836367.0,830340.0,838382.0,832353.0,52
3,0,0,1,0,35,test,1,1,z,Fri Mar 28 2025 11:34:15 GMT-0500 (Central Daylight Time),851925.200000003,O,z,1836,53,1,101.bmp,-120,-120,102.bmp,120,-120,103.bmp,-120,120,104.bmp,120,120,9893.59999999404,842031.6000000089,7096,yes,SM,A,103.bmp,-120,120,322865,316837,324881,318849,845882.0,839852.0,847897.0,841866.0,53
1,1,0,0,0,35,test,1,0,m,Fri Mar 28 2025 11:34:15 GMT-0500 (Central Daylight Time),861989.6000000089,O,None,2016,54,1,105.bmp,-120,-120,106.bmp,120,-120,107.bmp,-120,120,108.bmp,120,120,10062.10000000894,851927.5,7096,no,SM,A,107.bmp,-120,-120,322865,316837,324881,318849,855779.0,849748.0,857794.0,851764.0,54
4,0,0,0,1,36,test,1,1,z,Fri Mar 28 2025 11:34:15 GMT-0500 (Central Daylight Time),871905.700000003,O,z,1851,55,1,109.bmp,-120,-120,110.bmp,120,-120,111.bmp,-120,120,112.bmp,120,120,9912.29999999702,861993.400000006,7096,yes,SM,A,112.bmp,120,120,322865,316837,324881,318849,865842.0,859814.0,867858.0,861827.0,55
2,0,1,0,0,37,test,1,1,m,Fri Mar 28 2025 11:34:15 GMT-0500 (Central Daylight Time),881799.799999997,O,m,1850,56,1,113.bmp,-120,-120,114.bmp,120,-120,115.bmp,-120,120,116.bmp,120,120,9890.5,871909.299999997,7096,no,SM,A,113.bmp,120,-120,322865,316837,324881,318849,875754.0,869729.0,877755.0,871740.0,56
4,0,0,0,1,37,test,1,0,m,Fri Mar 28 2025 11:34:15 GMT-0500 (Central Daylight Time),891297.1000000089,O,z,1441,57,1,117.bmp,-120,-120,118.bmp,120,-120,119.bmp,-120,120,120.bmp,120,120,9493.800000011921,881803.299999997,7096,no,SM,A,118.bmp,120,120,322865,316837,324881,318849,885652.0,879624.0,887668.0,881637.0,57
3,0,0,1,0,38,test,1,1,z,Fri Mar 28 2025 11:34:15 GMT-0500 (Central Daylight Time),900943.799999997,O,z,1582,58,1,121.bmp,-120,-120,122.bmp,120,-120,123.bmp,-120,120,124.bmp,120,120,9643.5,891300.299999997,7096,yes,SM,A,123.bmp,-120,120,322865,316837,324881,318849,895150.0,889121.0,897166.0,891135.0,58
2,0,1,0,0,38,test,1,0,m,Fri Mar 28 2025 11:34:15 GMT-0500 (Central Daylight Time),911006.6000000089,O,None,2014,59,1,125.bmp,-120,-120,126.bmp,120,-120,127.bmp,-120,120,128.bmp,120,120,10058.70000000298,900947.900000006,7096,no,SM,A,128.bmp,120,-120,322865,316837,324881,318849,904796.0,898768.0,906813.0,900782.0,59
1,1,0,0,0,38,test,1,0,z,Fri Mar 28 2025 11:34:15 GMT-0500 (Central Daylight Time),921071.6000000089,O,None,2016,60,1,129.bmp,-120,-120,130.bmp,120,-120,131.bmp,-120,120,132.bmp,120,120,10061.10000000894,911010.5,7096,yes,SM,A,129.bmp,-120,-120,322865,316837,324881,318849,914860.0,908831.0,916876.0,910844.0,60
2,0,1,0,0,39,test,1,1,z,Fri Mar 28 2025 11:34:15 GMT-0500 (Central Daylight Time),930451.200000003,O,z,1348,61,1,133.bmp,-120,-120,134.bmp,120,-120,135.bmp,-120,120,136.bmp,120,120,9375.79999999702,921075.400000006,7096,yes,SM,A,134.bmp,120,-120,322865,316837,324881,318849,924922.0,918896.0,926923.0,920908.0,61
4,0,0,0,1,40,test,1,1,z,Fri Mar 28 2025 11:34:15 GMT-0500 (Central Daylight Time),939699.6000000089,O,z,1216,62,1,141.bmp,-120,-120,142.bmp,120,-120,143.bmp,-120,120,144.bmp,120,120,9245.5,930454.1000000089,7096,yes,SM,A,144.bmp,120,120,322865,316837,324881,318849,934288.0,928274.0,936303.0,930287.0,62
1,1,0,0,0,41,test,1,1,m,Fri Mar 28 2025 11:34:15 GMT-0500 (Central Daylight Time),949645.400000006,O,m,1887,63,1,145.bmp,-120,-120,146.bmp,120,-120,147.bmp,-120,120,148.bmp,120,120,9940.70000000298,939704.700000003,7096,no,SM,A,145.bmp,-120,120,322865,316837,324881,318849,943550.0,937525.0,945566.0,939537.0,63
2,0,1,0,0,41,test,1,0,z,Fri Mar 28 2025 11:34:15 GMT-0500 (Central Daylight Time),959708.5,O,None,2015,64,1,149.bmp,-120,-120,150.bmp,120,-120,112.bmp,-120,120,101.bmp,120,120,10059.79999999702,949648.700000003,7096,yes,SM,A,150.bmp,120,-120,322865,316837,324881,318849,953497.0,947469.0,955513.0,949483.0,64
4,0,0,0,1,41,test,1,0,m,Fri Mar 28 2025 11:34:15 GMT-0500 (Central Daylight Time),968855.400000006,O,z,1092,65,1,102.bmp,-120,-120,103.bmp,120,-120,104.bmp,-120,120,105.bmp,120,120,9143.20000000298,959712.200000003,7096,no,SM,A,104.bmp,120,120,322865,316837,324881,318849,963559.0,957532.0,965577.0,959544.0,65
3,0,0,1,0,42,test,1,1,m,Fri Mar 28 2025 11:34:15 GMT-0500 (Central Daylight Time),978269.200000003,O,m,1376,66,1,106.bmp,-120,-120,107.bmp,120,-120,108.bmp,-120,120,109.bmp,120,120,9410.70000000298,968858.5,7096,no,SM,A,109.bmp,-120,120,322865,316837,324881,318849,972708.0,966679.0,974710.0,968692.0,66
2,0,1,0,0,43,test,1,1,m,Fri Mar 28 2025 11:34:15 GMT-0500 (Central Daylight Time),987933.1000000089,O,m,1602,67,1,137.bmp,-120,-120,138.bmp,120,-120,139.bmp,-120,120,140.bmp,120,120,9652.800000011921,978280.299999997,7096,no,SM,A,139.bmp,120,-120,322865,316837,324881,318849,982122.0,976101.0,984138.0,978105.0,67
3,0,0,1,0,44,test,1,1,z,Fri Mar 28 2025 11:34:15 GMT-0500 (Central Daylight Time),997413.900000006,O,z,1421,68,1,110.bmp,-120,-120,111.bmp,120,-120,112.bmp,-120,120,113.bmp,120,120,9477.20000000298,987936.700000003,7096,yes,SM,A,112.bmp,-120,120,322865,316837,324881,318849,991785.0,985757.0,993801.0,987771.0,68
1,1,0,0,0,45,test,1,1,m,Fri Mar 28 2025 11:34:15 GMT-0500 (Central Daylight Time),1007109.200000003,O,m,1644,69,1,114.bmp,-120,-120,115.bmp,120,-120,116.bmp,-120,120,117.bmp,120,120,9691.29999999702,997417.900000006,7096,no,SM,A,115.bmp,-120,-120,322865,316837,324881,318849,1001266.0,995238.0,1003281.0,997252.0,69
2,0,1,0,0,46,test,1,1,m,Fri Mar 28 2025 11:34:15 GMT-0500 (Central Daylight Time),1016756.799999997,O,m,1593,70,1,118.bmp,-120,-120,119.bmp,120,-120,120.bmp,-120,120,121.bmp,120,120,9645.29999999702,1007111.5,7096,no,SM,A,120.bmp,120,-120,322865,316837,324881,318849,1010962.0,1004932.0,1012980.0,1006947.0,70
4,0,0,0,1,47,test,1,1,z,Fri Mar 28 2025 11:34:15 GMT-0500 (Central Daylight Time),1026619.900000006,O,z,1813,71,1,122.bmp,-120,-120,123.bmp,120,-120,124.bmp,-120,120,125.bmp,120,120,9859.20000000298,1016760.700000003,7096,yes,SM,A,125.bmp,120,120,322865,316837,324881,318849,1020609.0,1014581.0,1022625.0,1016594.0,71
1,1,0,0,0,48,test,1,1,z,Fri Mar 28 2025 11:34:15 GMT-0500 (Central Daylight Time),1036101.400000006,O,z,1419,72,1,126.bmp,-120,-120,127.bmp,120,-120,128.bmp,-120,120,129.bmp,120,120,9477.40000000596,1026624.0,7096,yes,SM,A,126.bmp,-120,-120,322865,316837,324881,318849,1030472.0,1024444.0,1032490.0,1026458.0,72
2,0,1,0,0,49,test,1,1,z,Fri Mar 28 2025 11:34:15 GMT-0500 (Central Daylight Time),1045266.400000006,O,z,1133,73,1,130.bmp,-120,-120,131.bmp,120,-120,132.bmp,-120,120,133.bmp,120,120,9161.40000000596,1036105.0,7096,yes,SM,A,131.bmp,120,-120,322865,316837,324881,318849,1039952.0,1033925.0,1041953.0,1035937.0,73
4,0,0,0,1,50,test,1,1,m,Fri Mar 28 2025 11:34:15 GMT-0500 (Central Daylight Time),1055045.200000003,O,m,1716,74,1,134.bmp,-120,-120,135.bmp,120,-120,136.bmp,-120,120,137.bmp,120,120,9775.0,1045270.200000003,7096,no,SM,A,136.bmp,120,120,322865,316837,324881,318849,1049116.0,1043090.0,1051133.0,1045101.0,74
2,0,1,0,0,50,test,1,0,m,Fri Mar 28 2025 11:34:15 GMT-0500 (Central Daylight Time),1064758.5,O,z,1668,75,1,138.bmp,-120,-120,139.bmp,120,-120,140.bmp,-120,120,141.bmp,120,120,9710.09999999404,1055048.400000006,7096,no,SM,A,141.bmp,120,-120,322865,316837,324881,318849,1058895.0,1052869.0,1060897.0,1054882.0,75
1,1,0,0,0,51,test,1,1,z,Fri Mar 28 2025 11:34:15 GMT-0500 (Central Daylight Time),1073855.299999997,O,z,1041,76,1,142.bmp,-120,-120,143.bmp,120,-120,144.bmp,-120,120,145.bmp,120,120,9094.09999999404,1064761.200000003,7096,yes,SM,A,142.bmp,-120,-120,322865,316837,324881,318849,1068611.0,1062581.0,1070628.0,1064596.0,76
3,0,0,1,0,52,test,1,1,z,Fri Mar 28 2025 11:34:15 GMT-0500 (Central Daylight Time),1082800.100000009,O,z,887,77,1,150.bmp,-120,-120,111.bmp,120,-120,101.bmp,-120,120,102.bmp,120,120,8941.70000000298,1073858.400000006,7096,yes,SM,A,101.bmp,-120,120,322865,316837,324881,318849,1077707.0,1071679.0,1079724.0,1073692.0,77
1,1,0,0,0,52,test,1,0,m,Fri Mar 28 2025 11:34:15 GMT-0500 (Central Daylight Time),1092230.400000006,O,z,1392,78,1,146.bmp,-120,-120,147.bmp,120,-120,148.bmp,-120,120,149.bmp,120,120,9428.10000000894,1082802.299999997,7096,no,SM,A,147.bmp,-120,-120,322865,316837,324881,318849,1086651.0,1080622.0,1088652.0,1082637.0,78
4,0,0,0,1,53,test,1,1,m,Fri Mar 28 2025 11:34:15 GMT-0500 (Central Daylight Time),1101462.100000009,O,m,1177,79,1,107.bmp,-120,-120,108.bmp,120,-120,109.bmp,-120,120,110.bmp,120,120,9229.800000011921,1092232.299999997,7096,no,SM,A,107.bmp,120,120,322865,316837,324881,318849,1096082.0,1090053.0,1098099.0,1092067.0,79
3,0,0,1,0,54,test,1,1,m,Fri Mar 28 2025 11:34:15 GMT-0500 (Central Daylight Time),1111208.799999997,O,m,1715,80,1,103.bmp,-120,-120,104.bmp,120,-120,105.bmp,-120,120,106.bmp,120,120,9744.29999999702,1101464.5,7096,no,SM,A,106.bmp,-120,120,322865,316837,324881,318849,1105313.0,1099285.0,1107314.0,1101299.0,80
