acc_sum,block,block_c,condition,correct,correct_response,datetime,endtime,flanker,jitter,project,response,response_test_buffer_response,response_test_target_response,response_time,response_time_test_buffer_response,response_time_test_target_response,row_sel,session_number,start_end,starttime,subject_id,target,task,task_vers,time_test_buffer,time_test_buffer_response,time_test_constants,time_test_flanker,time_test_jitter,time_test_logger,time_test_target,time_test_target_response,time_test_variables,trial
1,prac,1,inc,1,m,Wed Mar 12 2025 15:09:16 GMT-0500 (Central Daylight Time),115617.20000000007,cherry,900,I,m,,,1347,,,10,3,3544.5999999999767,112072.6000000001,8000,copper,NF,C,,,,,,,,,,1
2,prac,1,con,1,z,Wed Mar 12 2025 15:09:16 GMT-0500 (Central Daylight Time),118616.70000000007,orange,1000,I,z,,,699,,,3,3,2994.20000000007,115622.5,8000,orange,NF,C,,,,,,,,,,2
3,prac,1,inc,1,z,Wed Mar 12 2025 15:09:16 GMT-0500 (Central Daylight Time),121749.1000000001,cobalt,1100,I,z,,,718,,,4,3,3127.70000000007,118621.40000000002,8000,raisin,NF,C,,,,,,,,,,3
4,prac,1,inc,1,m,Wed Mar 12 2025 15:09:16 GMT-0500 (Central Daylight Time),124814.40000000002,raisin,1100,I,m,,,659,,,12,3,3060.79999999993,121753.6000000001,8000,cobalt,NF,C,,,,,,,,,,4
5,prac,1,con,1,m,Wed Mar 12 2025 15:09:16 GMT-0500 (Central Daylight Time),127548.1000000001,gold,800,I,m,,,578,,,13,3,2728.8000000000466,124819.30000000005,8000,gold,NF,C,,,,,,,,,,5
6,prac,1,inc,1,z,Wed Mar 12 2025 15:09:16 GMT-0500 (Central Daylight Time),130396.0,iron,900,I,z,,,637,,,6,3,2843.29999999993,127552.70000000007,8000,pear,NF,C,,,,,,,,,,6
7,prac,1,con,1,m,Wed Mar 12 2025 15:09:16 GMT-0500 (Central Daylight Time),133361.80000000005,silver,1000,I,m,,,657,,,11,3,2961.0,130400.80000000005,8000,silver,NF,C,,,,,,,,,,7
8,prac,1,con,1,m,Wed Mar 12 2025 15:09:16 GMT-0500 (Central Daylight Time),136244.30000000005,bronze,800,I,m,,,771,,,9,3,2878.0999999999767,133366.20000000007,8000,bronze,NF,C,,,,,,,,,,8
9,prac,1,con,1,z,Wed Mar 12 2025 15:09:16 GMT-0500 (Central Daylight Time),139077.0,kiwi,1000,I,z,,,528,,,7,3,2828.399999999907,136248.6000000001,8000,kiwi,NF,C,,,,,,,,,,9
10,prac,1,con,1,m,Wed Mar 12 2025 15:09:16 GMT-0500 (Central Daylight Time),142025.80000000005,zinc,1000,I,m,,,646,,,15,3,2944.5,139081.30000000005,8000,zinc,NF,C,,,,,,,,,,10
11,prac,1,inc,1,m,Wed Mar 12 2025 15:09:16 GMT-0500 (Central Daylight Time),144974.80000000005,pear,900,I,m,,,733,,,14,3,2943.8000000000466,142031.0,8000,iron,NF,C,,,,,,,,,,11
12,prac,1,con,1,z,Wed Mar 12 2025 15:09:16 GMT-0500 (Central Daylight Time),147740.80000000005,lime,800,I,z,,,654,,,5,3,2761.0,144979.80000000005,8000,lime,NF,C,,,,,,,,,,12
13,prac,1,con,1,z,Wed Mar 12 2025 15:09:16 GMT-0500 (Central Daylight Time),150689.6000000001,banana,800,I,z,,,719,,,1,3,2944.600000000093,147745.0,8000,banana,NF,C,,,,,,,,,,13
14,prac,1,inc,1,z,Wed Mar 12 2025 15:09:16 GMT-0500 (Central Daylight Time),153572.1000000001,copper,900,I,z,,,671,,,2,3,2878.20000000007,150693.90000000002,8000,cherry,NF,C,,,,,,,,,,14
15,prac,1,inc,1,z,Wed Mar 12 2025 15:09:16 GMT-0500 (Central Daylight Time),156637.80000000005,lead,1100,I,z,,,650,,,8,3,3061.0999999999767,153576.70000000007,8000,plum,NF,C,,,,,,,,,,15
16,prac,1,inc,1,m,Wed Mar 12 2025 15:09:16 GMT-0500 (Central Daylight Time),159953.6000000001,plum,1100,I,m,,,907,,,16,3,3311.3000000000466,156642.30000000005,8000,lead,NF,C,,,,,,,,,,16
1,test,1,con,1,m,Wed Mar 12 2025 15:09:16 GMT-0500 (Central Daylight Time),174132.6000000001,silver,900,I,m,m,None,705,505.0,200.0,82,3,2146.0,171986.6000000001,8000,silver,NF,C,169557,169557,167928,168841,167928,170074,169357,169357,170074,1
2,test,1,con,1,z,Wed Mar 12 2025 15:09:16 GMT-0500 (Central Daylight Time),176131.80000000005,lime,1000,I,z,z,None,463,264.0,199.0,35,3,1993.1999999999534,174138.6000000001,8000,lime,NF,C,171806,171806,170080,171090,170080,172073,171607,171607,172073,2
3,test,1,con,1,m,Wed Mar 12 2025 15:09:16 GMT-0500 (Central Daylight Time),177931.20000000007,silver,800,I,m,m,None,464,264.0,200.0,81,3,1795.0,176136.20000000007,8000,silver,NF,C,173606,173606,172077,172890,172078,173872,173406,173406,173872,3
4,test,1,con,1,m,Wed Mar 12 2025 15:09:16 GMT-0500 (Central Daylight Time),179930.30000000005,iron,800,I,m,m,None,666,466.0,200.0,105,3,1995.0,177935.30000000005,8000,iron,NF,C,175405,175405,173876,174689,173877,175871,175205,175205,175871,4
5,test,1,con,1,z,Wed Mar 12 2025 15:09:16 GMT-0500 (Central Daylight Time),182063.1000000001,raisin,1100,I,z,z,None,485,286.0,199.0,28,3,2128.8000000000466,179934.30000000005,8000,raisin,NF,C,177705,177705,175875,176988,175876,178004,177505,177505,178004,5
6,test,1,inc,1,z,Wed Mar 12 2025 15:09:16 GMT-0500 (Central Daylight Time),184295.80000000005,zinc,1000,I,z,z,None,693,494.0,199.0,63,3,2228.3000000000466,182067.5,8000,plum,NF,C,179737,179737,178009,179021,178009,180237,179538,179538,180237,6
7,test,1,inc,1,z,Wed Mar 12 2025 15:09:16 GMT-0500 (Central Daylight Time),186595.20000000007,cobalt,1100,I,z,z,None,664,464.0,200.0,8,3,2295.20000000007,184300.0,8000,banana,NF,C,182070,182070,180241,181354,180241,182536,181870,181870,182536,7
8,test,1,inc,1,m,Wed Mar 12 2025 15:09:16 GMT-0500 (Central Daylight Time),188494.6000000001,banana,800,I,m,m,None,562,362.0,200.0,69,3,1894.7000000000698,186599.90000000002,8000,bronze,NF,C,184069,184069,182541,183353,182541,184436,183869,183869,184436,8
9,test,1,inc,1,m,Wed Mar 12 2025 15:09:16 GMT-0500 (Central Daylight Time),190777.30000000005,raisin,1100,I,m,m,None,640,441.0,199.0,88,3,2278.5,188498.80000000005,8000,silver,NF,C,186269,186269,184440,185552,184440,186718,186069,186069,186718,9
10,test,1,con,1,z,Wed Mar 12 2025 15:09:16 GMT-0500 (Central Daylight Time),192693.30000000005,orange,800,I,z,z,None,571,372.0,199.0,17,3,1912.0,190781.30000000005,8000,orange,NF,C,188251,188251,186722,187535,186723,188634,188052,188052,188634,10
11,test,1,inc,1,m,Wed Mar 12 2025 15:09:16 GMT-0500 (Central Daylight Time),194675.90000000002,pear,900,I,m,m,None,563,348.0,215.0,102,3,1978.0,192697.90000000002,8000,gold,NF,C,190267,190267,188639,189551,188639,190617,190052,190052,190617,11
12,test,1,inc,1,z,Wed Mar 12 2025 15:09:16 GMT-0500 (Central Daylight Time),196608.40000000002,bronze,800,I,z,z,None,503,301.0,202.0,5,3,1928.0,194680.40000000002,8000,banana,NF,C,192233,192233,190621,191434,190622,192549,192031,192031,192549,12
13,test,1,con,1,z,Wed Mar 12 2025 15:09:16 GMT-0500 (Central Daylight Time),198524.70000000007,kiwi,900,I,z,z,None,471,272.0,199.0,50,3,1912.0,196612.70000000007,8000,kiwi,NF,C,194182,194183,192554,193466,192554,194466,193983,193983,194466,13
14,test,1,con,1,z,Wed Mar 12 2025 15:09:16 GMT-0500 (Central Daylight Time),200624.0,plum,1100,I,z,z,None,452,252.0,200.0,60,3,2095.1999999999534,198528.80000000005,8000,plum,NF,C,196299,196299,194470,195582,194470,196565,196099,196099,196565,14
15,test,1,inc,1,z,Wed Mar 12 2025 15:09:16 GMT-0500 (Central Daylight Time),202506.80000000005,bronze,800,I,z,z,None,541,341.0,200.0,13,3,1878.8000000000466,200628.0,8000,cherry,NF,C,198098,198098,196569,197382,196570,198448,197898,197898,198448,15
16,test,1,con,1,z,Wed Mar 12 2025 15:09:16 GMT-0500 (Central Daylight Time),204339.6000000001,raisin,800,I,z,z,None,490,290.0,200.0,25,3,1828.9000000000233,202510.70000000007,8000,raisin,NF,C,199981,199981,198452,199265,198452,200281,199781,199781,200281,16
17,test,1,inc,1,m,Wed Mar 12 2025 15:09:16 GMT-0500 (Central Daylight Time),206738.80000000005,plum,1100,I,m,m,None,764,565.0,199.0,112,3,2395.0999999999767,204343.70000000007,8000,iron,NF,C,202114,202114,200285,201397,200285,202680,201914,201914,202680,17
18,test,1,inc,1,z,Wed Mar 12 2025 15:09:16 GMT-0500 (Central Daylight Time),208804.80000000005,zinc,1000,I,z,z,None,522,322.0,200.0,47,3,2061.5999999999767,206743.20000000007,8000,pear,NF,C,204413,204413,202684,203696,202685,204746,204213,204213,204746,18
19,test,1,con,1,z,Wed Mar 12 2025 15:09:16 GMT-0500 (Central Daylight Time),210687.6000000001,cherry,800,I,z,z,None,535,335.0,200.0,9,3,1879.1000000000931,208808.5,8000,cherry,NF,C,206279,206279,204750,205562,204750,206629,206079,206079,206629,19
20,test,1,inc,1,m,Wed Mar 12 2025 15:09:16 GMT-0500 (Central Daylight Time),212587.70000000007,lime,800,I,m,m,None,563,364.0,199.0,101,3,1896.0999999999767,210691.6000000001,8000,gold,NF,C,208162,208162,206633,207445,206633,208529,207962,207962,208529,20
21,test,1,con,1,m,Wed Mar 12 2025 15:09:16 GMT-0500 (Central Daylight Time),214719.80000000005,iron,1100,I,m,m,None,486,286.0,200.0,108,3,2128.1999999999534,212591.6000000001,8000,iron,NF,C,210361,210361,208533,209645,208533,210661,210161,210161,210661,21
22,test,1,inc,1,z,Wed Mar 12 2025 15:09:16 GMT-0500 (Central Daylight Time),216719.0,silver,1000,I,z,z,None,460,261.0,199.0,23,3,1993.8999999999069,214725.1000000001,8000,orange,NF,C,212394,212394,210666,211677,210667,212660,212194,212194,212660,22
23,test,1,inc,1,z,Wed Mar 12 2025 15:09:16 GMT-0500 (Central Daylight Time),218751.6000000001,silver,1000,I,z,z,None,486,286.0,200.0,31,3,2028.4000000000233,216723.20000000007,8000,raisin,NF,C,214393,214393,212664,213678,212665,214693,214193,214193,214693,23
24,test,1,inc,1,z,Wed Mar 12 2025 15:09:16 GMT-0500 (Central Daylight Time),220784.5,iron,900,I,z,z,None,502,302.0,200.0,62,3,2028.3999999999069,218756.1000000001,8000,plum,NF,C,216409,216409,214697,215705,214697,216726,216209,216209,216725,24
24,test,1,con,0,m,Wed Mar 12 2025 15:09:16 GMT-0500 (Central Daylight Time),222850.40000000002,zinc,1000,I,z,z,None,522,323.0,199.0,115,3,2062.0,220788.40000000002,8000,zinc,NF,C,218459,218459,216729,217742,216730,218791,218259,218259,218791,25
25,test,1,con,1,z,Wed Mar 12 2025 15:09:16 GMT-0500 (Central Daylight Time),224683.20000000007,banana,800,I,z,z,None,498,299.0,199.0,1,3,1828.5999999999767,222854.6000000001,8000,banana,NF,C,220324,220324,218796,219608,218796,220624,220125,220125,220624,26
26,test,1,inc,1,m,Wed Mar 12 2025 15:09:16 GMT-0500 (Central Daylight Time),226732.5,cherry,900,I,m,m,None,605,406.0,199.0,78,3,2045.3999999999069,224687.1000000001,8000,copper,NF,C,222257,222257,220628,221541,220628,222674,222058,222058,222674,27
27,test,1,inc,1,z,Wed Mar 12 2025 15:09:16 GMT-0500 (Central Daylight Time),228781.80000000005,silver,1000,I,z,z,None,510,311.0,199.0,7,3,2044.4000000000233,226737.40000000002,8000,banana,NF,C,224407,224407,222678,223690,222679,224723,224207,224207,224723,28
28,test,1,con,1,z,Wed Mar 12 2025 15:09:16 GMT-0500 (Central Daylight Time),230848.0,orange,1000,I,z,z,None,525,326.0,199.0,19,3,2062.1999999999534,228785.80000000005,8000,orange,NF,C,226456,226456,224727,225740,224727,226789,226256,226256,226789,29
29,test,1,con,1,z,Wed Mar 12 2025 15:09:16 GMT-0500 (Central Daylight Time),232747.30000000005,lime,900,I,z,z,None,456,256.0,200.0,34,3,1894.9000000000233,230852.40000000002,8000,lime,NF,C,228422,228422,226793,227706,226794,228688,228222,228222,228688,30
30,test,1,con,1,z,Wed Mar 12 2025 15:09:16 GMT-0500 (Central Daylight Time),234780.1000000001,plum,1000,I,z,z,None,497,298.0,199.0,59,3,2028.8000000000466,232751.30000000005,8000,plum,NF,C,230421,230421,228692,229705,228692,230721,230222,230222,230721,31
31,test,1,inc,1,m,Wed Mar 12 2025 15:09:16 GMT-0500 (Central Daylight Time),236879.40000000002,orange,1000,I,m,m,None,553,353.0,200.0,71,3,2095.4000000000233,234784.0,8000,bronze,NF,C,232454,232454,230725,231738,230725,232821,232254,232254,232820,32
32,test,1,inc,1,z,Wed Mar 12 2025 15:09:16 GMT-0500 (Central Daylight Time),239062.0,cobalt,1100,I,z,z,None,543,344.0,199.0,32,3,2178.5,236883.5,8000,raisin,NF,C,234654,234654,232825,233937,232825,235003,234454,234454,235003,33
33,test,1,con,1,z,Wed Mar 12 2025 15:09:16 GMT-0500 (Central Daylight Time),241278.0,pear,1100,I,z,z,None,571,371.0,200.0,44,3,2212.0999999999767,239065.90000000002,8000,pear,NF,C,236836,236836,235007,236120,235007,237219,236636,236636,237219,34
34,test,1,inc,1,m,Wed Mar 12 2025 15:09:16 GMT-0500 (Central Daylight Time),243336.80000000005,cherry,900,I,m,m,None,624,425.0,199.0,70,3,2055.0999999999767,241281.70000000007,8000,bronze,NF,C,238852,238853,237223,238136,237223,239278,238653,238653,239278,35
35,test,1,inc,1,z,Wed Mar 12 2025 15:09:16 GMT-0500 (Central Daylight Time),245310.1000000001,copper,900,I,z,z,None,545,346.0,199.0,30,3,1969.3000000000466,243340.80000000005,8000,raisin,NF,C,240901,240901,239282,240185,239282,241251,240702,240702,241251,36
36,test,1,con,1,m,Wed Mar 12 2025 15:09:16 GMT-0500 (Central Daylight Time),247476.1000000001,zinc,900,I,m,m,None,723,523.0,200.0,114,3,2162.3000000000466,245313.80000000005,8000,zinc,NF,C,242884,242884,241255,242168,241255,243417,242684,242684,243417,37
37,test,1,inc,1,z,Wed Mar 12 2025 15:09:16 GMT-0500 (Central Daylight Time),249642.0,lead,1100,I,z,z,None,516,317.0,199.0,64,3,2162.0,247480.0,8000,plum,NF,C,245250,245250,243421,244534,243421,245583,245051,245051,245583,38
38,test,1,inc,1,z,Wed Mar 12 2025 15:09:16 GMT-0500 (Central Daylight Time),251558.1000000001,copper,900,I,z,z,None,470,270.0,200.0,6,3,1912.1000000000931,249646.0,8000,banana,NF,C,247216,247216,245587,246500,245587,247499,247016,247016,247499,39
39,test,1,con,1,m,Wed Mar 12 2025 15:09:16 GMT-0500 (Central Daylight Time),253390.90000000002,gold,800,I,m,m,None,495,294.0,201.0,97,3,1828.5999999999767,251562.30000000005,8000,gold,NF,C,249033,249033,247503,248316,247504,249332,248832,248832,249332,40
40,test,1,con,1,m,Wed Mar 12 2025 15:09:16 GMT-0500 (Central Daylight Time),255623.80000000005,iron,1000,I,m,m,None,693,494.0,199.0,107,3,2229.1999999999534,253394.6000000001,8000,iron,NF,C,251065,251065,249336,250349,249336,251565,250866,250866,251565,41
41,test,1,con,1,z,Wed Mar 12 2025 15:09:16 GMT-0500 (Central Daylight Time),257506.20000000007,banana,900,I,z,z,None,449,249.0,200.0,2,3,1878.4000000000233,255627.80000000005,8000,banana,NF,C,253198,253198,251569,252481,251569,253447,252998,252998,253447,42
42,test,1,inc,1,m,Wed Mar 12 2025 15:09:16 GMT-0500 (Central Daylight Time),259522.40000000002,pear,900,I,m,m,None,573,374.0,199.0,110,3,2012.2999999999302,257510.1000000001,8000,iron,NF,C,255081,255081,253451,254364,253452,255463,254882,254882,255463,43
43,test,1,con,1,m,Wed Mar 12 2025 15:09:16 GMT-0500 (Central Daylight Time),261588.30000000005,copper,800,I,m,m,None,730,531.0,199.0,73,3,2061.9000000000233,259526.40000000002,8000,copper,NF,C,256996,256996,255467,256280,255468,257529,256796,256797,257529,44
44,test,1,inc,1,m,Wed Mar 12 2025 15:09:16 GMT-0500 (Central Daylight Time),263872.1000000001,raisin,1100,I,m,m,None,635,436.0,199.0,80,3,2279.600000000093,261592.5,8000,copper,NF,C,259362,259362,257534,258646,257534,259813,259163,259163,259813,45
45,test,1,inc,1,z,Wed Mar 12 2025 15:09:16 GMT-0500 (Central Daylight Time),266086.9,cobalt,1100,I,z,z,None,569,369.0,200.0,24,3,2210.6999999999534,263876.20000000007,8000,orange,NF,C,261645,261645,259817,260929,259818,262028,261445,261445,262028,46
46,test,1,inc,1,m,Wed Mar 12 2025 15:09:16 GMT-0500 (Central Daylight Time),268252.70000000007,cherry,900,I,m,m,None,722,522.0,200.0,94,3,2161.9000000000233,266090.80000000005,8000,cobalt,NF,C,263661,263661,262032,262944,262032,264194,263461,263461,264194,47
47,test,1,con,1,m,Wed Mar 12 2025 15:09:16 GMT-0500 (Central Daylight Time),270302.4,lead,900,I,m,m,None,604,404.0,200.0,122,3,2045.5999999999767,268256.80000000005,8000,lead,NF,C,265827,265827,264198,265111,264198,266243,265627,265627,266243,48
48,test,1,inc,1,m,Wed Mar 12 2025 15:09:16 GMT-0500 (Central Daylight Time),272234.9,banana,800,I,m,m,None,598,399.0,199.0,93,3,1928.6999999999534,270306.20000000007,8000,cobalt,NF,C,267776,267776,266247,267060,266248,268176,267577,267577,268176,49
49,test,1,inc,1,z,Wed Mar 12 2025 15:09:16 GMT-0500 (Central Daylight Time),274550.80000000005,lead,1100,I,z,z,None,677,477.0,200.0,48,3,2312.0,272238.80000000005,8000,pear,NF,C,270009,270009,268180,269293,268180,270492,269809,269809,270492,50
50,test,1,inc,1,m,Wed Mar 12 2025 15:09:16 GMT-0500 (Central Daylight Time),276633.6000000001,kiwi,1000,I,m,m,None,550,350.0,200.0,111,3,2079.100000000093,274554.5,8000,iron,NF,C,272225,272225,270496,271509,270496,272575,272025,272025,272575,51
51,test,1,con,1,m,Wed Mar 12 2025 15:09:16 GMT-0500 (Central Daylight Time),278616.4,copper,900,I,m,m,None,542,342.0,200.0,74,3,1979.0,276637.4,8000,copper,NF,C,274208,274208,272578,273491,272579,274557,274008,274008,274557,52
52,test,1,inc,1,z,Wed Mar 12 2025 15:09:16 GMT-0500 (Central Daylight Time),280865.70000000007,lead,1100,I,z,z,None,600,401.0,199.0,56,3,2245.3000000000466,278620.4,8000,kiwi,NF,C,276390,276390,274561,275674,274562,276807,276191,276191,276807,53
53,test,1,con,1,m,Wed Mar 12 2025 15:09:16 GMT-0500 (Central Daylight Time),282815.0,cobalt,800,I,m,m,None,611,412.0,199.0,89,3,1945.5999999999767,280869.4,8000,cobalt,NF,C,278339,278339,276810,277623,276811,278756,278140,278140,278756,54
54,test,1,inc,1,m,Wed Mar 12 2025 15:09:16 GMT-0500 (Central Daylight Time),285031.20000000007,raisin,1100,I,m,m,None,578,378.0,200.0,96,3,2212.3000000000466,282818.9,8000,cobalt,NF,C,280589,280589,278760,279874,278760,280972,280389,280389,280972,55
55,test,1,con,1,z,Wed Mar 12 2025 15:09:16 GMT-0500 (Central Daylight Time),287046.80000000005,pear,900,I,z,z,None,578,377.0,201.0,42,3,2011.6999999999534,285035.1000000001,8000,pear,NF,C,282606,282606,280976,281889,280976,282988,282405,282405,282988,56
56,test,1,inc,1,m,Wed Mar 12 2025 15:09:16 GMT-0500 (Central Daylight Time),288929.70000000007,banana,800,I,m,m,None,542,342.0,200.0,77,3,1879.0999999999767,287050.6000000001,8000,copper,NF,C,284521,284521,282992,283805,282992,284871,284321,284321,284871,57
57,test,1,inc,1,z,Wed Mar 12 2025 15:09:16 GMT-0500 (Central Daylight Time),290945.9,iron,900,I,z,z,None,496,292.0,204.0,54,3,2012.2999999999302,288933.6000000001,8000,kiwi,NF,C,286587,286587,284875,285787,284875,286887,286383,286383,286887,58
58,test,1,inc,1,m,Wed Mar 12 2025 15:09:16 GMT-0500 (Central Daylight Time),292862.0,lime,800,I,m,m,None,571,371.0,200.0,117,3,1912.2999999999302,290949.70000000007,8000,zinc,NF,C,288420,288420,286891,287704,286891,288803,288220,288220,288803,59
59,test,1,inc,1,m,Wed Mar 12 2025 15:09:16 GMT-0500 (Central Daylight Time),294994.70000000007,pear,900,I,m,m,None,691,491.0,200.0,126,3,2128.5999999999767,292866.1000000001,8000,lead,NF,C,290436,290436,288807,289719,288807,290936,290236,290236,290936,60
60,test,1,con,1,m,Wed Mar 12 2025 15:09:16 GMT-0500 (Central Daylight Time),297060.6000000001,lead,1100,I,m,m,None,422,222.0,200.0,124,3,2062.20000000007,294998.4,8000,lead,NF,C,292769,292769,290939,292052,290940,293002,292569,292569,293002,61
61,test,1,con,1,m,Wed Mar 12 2025 15:09:16 GMT-0500 (Central Daylight Time),299027.70000000007,gold,1000,I,m,m,None,448,249.0,199.0,99,3,1963.2000000000698,297064.5,8000,gold,NF,C,294718,294718,293006,294018,293006,294969,294519,294519,294969,62
62,test,1,inc,1,m,Wed Mar 12 2025 15:09:16 GMT-0500 (Central Daylight Time),301009.6000000001,banana,800,I,m,m,None,649,449.0,200.0,85,3,1977.6000000000931,299032.0,8000,silver,NF,C,296501,296501,294973,295784,294973,296951,296301,296301,296951,63
63,test,1,inc,1,z,Wed Mar 12 2025 15:09:16 GMT-0500 (Central Daylight Time),303142.0,zinc,1000,I,z,z,None,585,386.0,199.0,39,3,2128.79999999993,301013.20000000007,8000,lime,NF,C,298684,298684,296954,297967,296954,299083,298484,298484,299083,64
64,test,1,inc,1,m,Wed Mar 12 2025 15:09:16 GMT-0500 (Central Daylight Time),305025.70000000007,lime,800,I,m,m,None,542,342.0,200.0,125,3,1879.8000000000466,303145.9,8000,lead,NF,C,300616,300617,299087,299900,299087,300967,300416,300416,300967,65
65,test,1,con,1,m,Wed Mar 12 2025 15:09:16 GMT-0500 (Central Daylight Time),307057.4,iron,900,I,m,m,None,583,383.0,200.0,106,3,2027.6999999999534,305029.70000000007,8000,iron,NF,C,302599,302599,300971,301883,300971,302998,302399,302399,302998,66
66,test,1,con,1,m,Wed Mar 12 2025 15:09:16 GMT-0500 (Central Daylight Time),308923.70000000007,zinc,800,I,m,m,None,522,322.0,200.0,113,3,1862.5,307061.20000000007,8000,zinc,NF,C,304533,304533,303002,303815,303003,304865,304332,304332,304865,67
67,test,1,con,1,z,Wed Mar 12 2025 15:09:16 GMT-0500 (Central Daylight Time),310789.6000000001,pear,800,I,z,z,None,528,329.0,199.0,41,3,1862.3000000000466,308927.30000000005,8000,pear,NF,C,306398,306398,304868,305681,304869,306731,306198,306198,306731,68
68,test,1,con,1,m,Wed Mar 12 2025 15:09:16 GMT-0500 (Central Daylight Time),313038.6000000001,bronze,1100,I,m,m,None,601,402.0,199.0,68,3,2244.9000000000233,310793.70000000007,8000,bronze,NF,C,308564,308564,306735,307847,306735,308980,308364,308364,308980,69
69,test,1,inc,1,m,Wed Mar 12 2025 15:09:16 GMT-0500 (Central Daylight Time),315071.80000000005,orange,1000,I,m,m,None,493,293.0,200.0,87,3,2029.1999999999534,313042.6000000001,8000,silver,NF,C,310713,310713,308984,309997,308984,311013,310513,310513,311013,70
70,test,1,inc,1,m,Wed Mar 12 2025 15:09:16 GMT-0500 (Central Daylight Time),317137.6000000001,kiwi,1000,I,m,m,None,523,324.0,199.0,103,3,2061.70000000007,315075.9,8000,gold,NF,C,312746,312746,311017,312029,311017,313079,312546,312546,313079,71
71,test,1,inc,1,m,Wed Mar 12 2025 15:09:16 GMT-0500 (Central Daylight Time),319270.30000000005,plum,1100,I,m,m,None,486,286.0,200.0,120,3,2129.0999999999767,317141.20000000007,8000,zinc,NF,C,314912,314912,313082,314195,313083,315211,314712,314712,315211,72
72,test,1,con,1,z,Wed Mar 12 2025 15:09:16 GMT-0500 (Central Daylight Time),321436.20000000007,plum,900,I,z,z,None,729,514.0,215.0,58,3,2161.9000000000233,319274.30000000005,8000,plum,NF,C,316861,316861,315215,316128,315216,317377,316646,316646,317377,73
73,test,1,con,1,m,Wed Mar 12 2025 15:09:16 GMT-0500 (Central Daylight Time),323336.70000000007,lead,800,I,m,m,None,551,352.0,199.0,121,3,1896.5,321440.20000000007,8000,lead,NF,C,318910,318910,317381,318194,317382,319278,318711,318711,319278,74
74,test,1,con,1,z,Wed Mar 12 2025 15:09:16 GMT-0500 (Central Daylight Time),325285.0,raisin,900,I,z,z,None,504,305.0,199.0,26,3,1944.3999999999069,323340.6000000001,8000,raisin,NF,C,320910,320910,319282,320193,319282,321226,320710,320710,321226,75
75,test,1,inc,1,m,Wed Mar 12 2025 15:09:16 GMT-0500 (Central Daylight Time),327467.4,plum,1100,I,m,m,None,546,347.0,199.0,104,3,2178.4000000000233,325289.0,8000,gold,NF,C,323059,323059,321230,322343,321230,323408,322860,322860,323408,76
76,test,1,inc,1,z,Wed Mar 12 2025 15:09:16 GMT-0500 (Central Daylight Time),329466.80000000005,iron,900,I,z,z,None,555,356.0,199.0,46,3,1994.6999999999534,327472.1000000001,8000,pear,NF,C,325042,325042,323413,324325,323414,325408,324842,324842,325408,77
77,test,1,con,1,m,Wed Mar 12 2025 15:09:16 GMT-0500 (Central Daylight Time),331449.5,cobalt,1000,I,m,m,None,433,233.0,200.0,91,3,1978.7999999999302,329470.70000000007,8000,cobalt,NF,C,327141,327141,325412,326425,325412,327391,326941,326941,327391,78
78,test,1,con,1,z,Wed Mar 12 2025 15:09:16 GMT-0500 (Central Daylight Time),333665.70000000007,lime,1100,I,z,z,None,575,375.0,200.0,36,3,2212.3000000000466,331453.4,8000,lime,NF,C,329224,329224,327394,328507,327395,329607,329024,329024,329607,79
79,test,1,inc,1,z,Wed Mar 12 2025 15:09:16 GMT-0500 (Central Daylight Time),335698.1000000001,copper,900,I,z,z,None,597,398.0,199.0,22,3,2028.5,333669.6000000001,8000,orange,NF,C,331240,331240,329611,330523,329611,331639,331040,331040,331639,80
80,test,1,con,1,m,Wed Mar 12 2025 15:09:16 GMT-0500 (Central Daylight Time),337964.0,silver,1100,I,m,m,None,543,335.0,208.0,84,3,2261.29999999993,335702.70000000007,8000,silver,NF,C,333559,333559,331644,332756,331644,333905,333351,333351,333905,81
81,test,1,con,1,z,Wed Mar 12 2025 15:09:16 GMT-0500 (Central Daylight Time),340047.0,raisin,1000,I,z,z,None,544,344.0,200.0,27,3,2078.79999999993,337968.20000000007,8000,raisin,NF,C,335638,335638,333909,334922,333909,335988,335438,335438,335988,82
82,test,1,inc,1,m,Wed Mar 12 2025 15:09:16 GMT-0500 (Central Daylight Time),342029.5,pear,900,I,m,m,None,545,345.0,200.0,118,3,1978.5999999999767,340050.9,8000,zinc,NF,C,337621,337621,335992,336904,335992,337971,337421,337421,337971,83
83,test,1,con,1,z,Wed Mar 12 2025 15:09:16 GMT-0500 (Central Daylight Time),344095.6000000001,pear,1000,I,z,z,None,517,318.0,199.0,43,3,2061.70000000007,342033.9,8000,pear,NF,C,339704,339704,337975,338987,337975,340037,339504,339504,340037,84
84,test,1,inc,1,z,Wed Mar 12 2025 15:09:16 GMT-0500 (Central Daylight Time),346044.9,gold,800,I,z,z,None,603,404.0,199.0,37,3,1944.9000000000233,344100.0,8000,lime,NF,C,341570,341570,340041,340853,340041,341986,341370,341370,341986,85
84,test,1,con,0,m,Wed Mar 12 2025 15:09:16 GMT-0500 (Central Daylight Time),349377.70000000007,bronze,800,I,None,None,None,1800,1800.0,199.0,65,3,3328.9000000000233,346048.80000000005,8000,bronze,NF,C,343519,343519,341990,342803,341990,345319,343320,343320,345319,86
85,test,1,con,1,m,Wed Mar 12 2025 15:09:16 GMT-0500 (Central Daylight Time),351643.5,silver,1000,I,m,m,None,731,531.0,200.0,83,3,2261.6999999999534,349381.80000000005,8000,silver,NF,C,347052,347052,345323,346335,345323,347585,346851,346851,347585,87
86,test,1,con,1,z,Wed Mar 12 2025 15:09:16 GMT-0500 (Central Daylight Time),353476.30000000005,plum,800,I,z,z,None,496,297.0,199.0,57,3,1828.8000000000466,351647.5,8000,plum,NF,C,349118,349118,347589,348401,347589,349417,348918,348918,349417,88
87,test,1,inc,1,z,Wed Mar 12 2025 15:09:16 GMT-0500 (Central Daylight Time),355375.6000000001,bronze,800,I,z,z,None,558,359.0,199.0,29,3,1895.6000000000931,353480.0,8000,raisin,NF,C,350951,350951,349421,350234,349421,351317,350751,350751,351317,89
88,test,1,con,1,m,Wed Mar 12 2025 15:09:16 GMT-0500 (Central Daylight Time),357524.9,copper,1000,I,m,m,None,604,404.0,200.0,75,3,2145.5999999999767,355379.30000000005,8000,copper,NF,C,353050,353050,351320,352333,351321,353466,352850,352850,353466,90
88,test,1,con,0,m,Wed Mar 12 2025 15:09:16 GMT-0500 (Central Daylight Time),359624.30000000005,lead,1000,I,z,z,None,552,351.0,201.0,123,3,2095.0,357529.30000000005,8000,lead,NF,C,355200,355200,353470,354483,353471,355565,354999,354999,355565,91
89,test,1,con,1,m,Wed Mar 12 2025 15:09:16 GMT-0500 (Central Daylight Time),361690.4,gold,1100,I,m,m,None,416,217.0,199.0,100,3,2062.0999999999767,359628.30000000005,8000,gold,NF,C,357398,357398,355569,356682,355570,357632,357199,357199,357631,92
90,test,1,inc,1,m,Wed Mar 12 2025 15:09:16 GMT-0500 (Central Daylight Time),363873.0,kiwi,1000,I,m,m,None,641,442.0,199.0,127,3,2178.6999999999534,361694.30000000005,8000,lead,NF,C,359365,359365,357635,358648,357636,359814,359165,359165,359814,93
91,test,1,con,1,z,Wed Mar 12 2025 15:09:16 GMT-0500 (Central Daylight Time),365989.0,banana,1100,I,z,z,None,472,272.0,200.0,4,3,2112.1999999999534,363876.80000000005,8000,banana,NF,C,361647,361647,359818,360931,359818,361930,361447,361447,361930,94
92,test,1,con,1,z,Wed Mar 12 2025 15:09:16 GMT-0500 (Central Daylight Time),367938.5,cherry,1000,I,z,z,None,408,208.0,200.0,11,3,1945.7999999999302,365992.70000000007,8000,cherry,NF,C,363663,363663,361934,362947,361934,363880,363463,363463,363880,95
93,test,1,con,1,m,Wed Mar 12 2025 15:09:16 GMT-0500 (Central Daylight Time),370070.9,gold,900,I,m,m,None,692,493.0,199.0,98,3,2128.4000000000233,367942.5,8000,gold,NF,C,365513,365513,363884,364796,363884,366012,365313,365313,366012,96
94,test,1,inc,1,z,Wed Mar 12 2025 15:09:16 GMT-0500 (Central Daylight Time),371953.70000000007,bronze,800,I,z,z,None,534,334.0,200.0,21,3,1879.0999999999767,370074.6000000001,8000,orange,NF,C,367545,367545,366016,366829,366016,367895,367345,367345,367895,97
95,test,1,con,1,z,Wed Mar 12 2025 15:09:16 GMT-0500 (Central Daylight Time),374036.6000000001,banana,1000,I,z,z,None,539,339.0,200.0,3,3,2079.0,371957.6000000001,8000,banana,NF,C,369628,369628,367899,368912,367899,369978,369428,369428,369978,98
96,test,1,inc,1,m,Wed Mar 12 2025 15:09:16 GMT-0500 (Central Daylight Time),376302.5,plum,1100,I,m,m,None,619,420.0,199.0,128,3,2262.0,374040.5,8000,lead,NF,C,371811,371811,369982,371094,369982,372244,371611,371611,372244,99
97,test,1,inc,1,z,Wed Mar 12 2025 15:09:16 GMT-0500 (Central Daylight Time),378318.80000000005,copper,900,I,z,z,None,569,370.0,199.0,14,3,2012.5,376306.30000000005,8000,cherry,NF,C,373877,373877,372247,373160,372248,374260,373677,373677,374260,100
98,test,1,con,1,m,Wed Mar 12 2025 15:09:16 GMT-0500 (Central Daylight Time),380434.6000000001,cobalt,1100,I,m,m,None,473,274.0,199.0,92,3,2112.100000000093,378322.5,8000,cobalt,NF,C,376093,376093,374264,375376,374264,376376,375893,375893,376376,101
99,test,1,inc,1,z,Wed Mar 12 2025 15:09:16 GMT-0500 (Central Daylight Time),382550.5,zinc,1000,I,z,z,None,576,377.0,199.0,55,3,2111.79999999993,380438.70000000007,8000,kiwi,NF,C,378109,378109,376380,377392,376380,378492,377909,377909,378491,102
100,test,1,inc,1,m,Wed Mar 12 2025 15:09:16 GMT-0500 (Central Daylight Time),384677.80000000005,kiwi,1000,I,m,m,None,592,393.0,199.0,119,3,2123.3000000000466,382554.5,8000,zinc,NF,C,380225,380225,378496,379508,378496,380619,380025,380025,380619,103
101,test,1,con,1,z,Wed Mar 12 2025 15:09:16 GMT-0500 (Central Daylight Time),386699.1000000001,cherry,900,I,z,z,None,589,390.0,199.0,10,3,2017.2000000000698,384681.9,8000,cherry,NF,C,382241,382241,380623,381524,380623,382640,382041,382041,382640,104
102,test,1,inc,1,m,Wed Mar 12 2025 15:09:16 GMT-0500 (Central Daylight Time),388783.0,orange,1000,I,m,m,None,545,345.0,200.0,79,3,2079.79999999993,386703.20000000007,8000,copper,NF,C,384373,384373,382644,383657,382645,384724,384173,384173,384724,105
103,test,1,inc,1,z,Wed Mar 12 2025 15:09:16 GMT-0500 (Central Daylight Time),390814.80000000005,iron,900,I,z,z,None,595,395.0,200.0,38,3,2027.5,388787.30000000005,8000,lime,NF,C,386356,386356,384728,385639,384729,386756,386156,386156,386756,106
104,test,1,con,1,m,Wed Mar 12 2025 15:09:16 GMT-0500 (Central Daylight Time),393080.5,copper,1100,I,m,m,None,625,425.0,200.0,76,3,2261.899999999907,390818.6000000001,8000,copper,NF,C,388589,388589,386760,387872,386760,389022,388389,388389,389022,107
105,test,1,con,1,m,Wed Mar 12 2025 15:09:16 GMT-0500 (Central Daylight Time),395263.4,zinc,1100,I,m,m,None,543,344.0,199.0,116,3,2179.0999999999767,393084.30000000005,8000,zinc,NF,C,390855,390855,389025,390138,389026,391204,390655,390655,391204,108
106,test,1,con,1,m,Wed Mar 12 2025 15:09:16 GMT-0500 (Central Daylight Time),397262.70000000007,bronze,1000,I,m,m,None,461,261.0,200.0,67,3,1994.9000000000233,395267.80000000005,8000,bronze,NF,C,392937,392938,391209,392221,391209,393204,392737,392737,393204,109
107,test,1,inc,1,z,Wed Mar 12 2025 15:09:16 GMT-0500 (Central Daylight Time),399145.30000000005,gold,800,I,z,z,None,541,342.0,199.0,45,3,1878.5999999999767,397266.70000000007,8000,pear,NF,C,394737,394737,393208,394020,393208,395086,394537,394537,395086,110
108,test,1,inc,1,z,Wed Mar 12 2025 15:09:16 GMT-0500 (Central Daylight Time),401194.5,silver,1000,I,z,z,None,505,290.0,215.0,15,3,2045.0,399149.5,8000,cherry,NF,C,396836,396836,395091,396103,395091,397136,396621,396621,397136,111
109,test,1,con,1,z,Wed Mar 12 2025 15:09:16 GMT-0500 (Central Daylight Time),403110.6000000001,lime,800,I,z,z,None,568,369.0,199.0,33,3,1912.5,401198.1000000001,8000,lime,NF,C,398669,398669,397139,397953,397139,399052,398469,398469,399052,112
110,test,1,inc,1,z,Wed Mar 12 2025 15:09:16 GMT-0500 (Central Daylight Time),405076.9,gold,800,I,z,z,None,630,430.0,200.0,53,3,1962.2999999999302,403114.6000000001,8000,kiwi,NF,C,400585,400585,399056,399868,399056,401018,400385,400385,401018,113
111,test,1,con,1,z,Wed Mar 12 2025 15:09:16 GMT-0500 (Central Daylight Time),407342.70000000007,kiwi,1100,I,z,z,None,628,428.0,200.0,52,3,2262.0999999999767,405080.6000000001,8000,kiwi,NF,C,402851,402851,401022,402134,401022,403284,402651,402651,403284,114
112,test,1,con,1,m,Wed Mar 12 2025 15:09:16 GMT-0500 (Central Daylight Time),409425.5,cobalt,900,I,m,m,None,639,425.0,214.0,90,3,2079.1999999999534,407346.30000000005,8000,cobalt,NF,C,404934,404934,403287,404200,403288,405367,404719,404719,405367,115
113,test,1,inc,1,z,Wed Mar 12 2025 15:09:16 GMT-0500 (Central Daylight Time),411558.1000000001,cobalt,1100,I,z,z,None,487,287.0,200.0,16,3,2128.600000000093,409429.5,8000,cherry,NF,C,407199,407199,405371,406483,405371,407499,406999,406999,407499,116
114,test,1,inc,1,m,Wed Mar 12 2025 15:09:16 GMT-0500 (Central Daylight Time),413624.1000000001,orange,1000,I,m,m,None,527,327.0,200.0,95,3,2062.100000000093,411562.0,8000,cobalt,NF,C,409232,409232,407503,408517,407503,409565,409032,409032,409565,117
115,test,1,inc,1,m,Wed Mar 12 2025 15:09:16 GMT-0500 (Central Daylight Time),415656.80000000005,cherry,900,I,m,m,None,593,393.0,200.0,86,3,2029.0,413627.80000000005,8000,silver,NF,C,411198,411198,409569,410482,409569,411598,410998,410998,411598,118
116,test,1,inc,1,z,Wed Mar 12 2025 15:09:16 GMT-0500 (Central Daylight Time),417539.70000000007,gold,800,I,z,z,None,539,339.0,200.0,61,3,1879.2000000000698,415660.5,8000,plum,NF,C,413132,413132,411602,412415,411602,413481,412931,412931,413481,119
117,test,1,con,1,z,Wed Mar 12 2025 15:09:16 GMT-0500 (Central Daylight Time),419655.5,orange,1100,I,z,z,None,468,269.0,199.0,20,3,2111.5999999999767,417543.9,8000,orange,NF,C,415313,415314,413485,414597,413485,415597,415114,415114,415596,120
118,test,1,con,1,z,Wed Mar 12 2025 15:09:16 GMT-0500 (Central Daylight Time),421454.90000000014,kiwi,800,I,z,z,None,461,261.0,200.0,49,3,1795.4000000001397,419659.5,8000,kiwi,NF,C,417130,417130,415601,416413,415601,417396,416930,416930,417396,121
119,test,1,con,1,m,Wed Mar 12 2025 15:09:16 GMT-0500 (Central Daylight Time),423454.5,bronze,900,I,m,m,None,554,354.0,200.0,66,3,1996.0999999998603,421458.40000000014,8000,bronze,NF,C,419029,419029,417399,418313,417400,419396,418829,418829,419396,122
120,test,1,inc,1,z,Wed Mar 12 2025 15:09:16 GMT-0500 (Central Daylight Time),425670.40000000014,lead,1100,I,z,z,None,577,378.0,199.0,40,3,2212.2000000001863,423458.19999999995,8000,lime,NF,C,421228,421228,419399,420512,419400,421612,421029,421029,421611,123
121,test,1,con,1,z,Wed Mar 12 2025 15:09:16 GMT-0500 (Central Daylight Time),427770.0,cherry,1100,I,z,z,None,449,250.0,199.0,12,3,2095.8000000000466,425674.19999999995,8000,cherry,NF,C,423444,423445,421615,422728,421615,423711,423245,423245,423711,124
122,test,1,con,1,z,Wed Mar 12 2025 15:09:16 GMT-0500 (Central Daylight Time),429652.30000000005,orange,900,I,z,z,None,447,247.0,200.0,18,3,1878.0,427774.30000000005,8000,orange,NF,C,425344,425344,423715,424627,423716,425593,425144,425144,425593,125
123,test,1,inc,1,m,Wed Mar 12 2025 15:09:16 GMT-0500 (Central Daylight Time),431818.40000000014,raisin,1100,I,m,m,None,529,234.0,295.0,72,3,2162.3000000000466,429656.1000000001,8000,bronze,NF,C,427525,427525,425597,426710,425597,427760,427229,427229,427759,126
124,test,1,con,1,z,Wed Mar 12 2025 15:09:16 GMT-0500 (Central Daylight Time),433901.19999999995,kiwi,1000,I,z,z,None,547,347.0,200.0,51,3,2078.5999999998603,431822.6000000001,8000,kiwi,NF,C,429492,429492,427764,428776,427764,429842,429292,429292,429842,127
125,test,1,inc,1,m,Wed Mar 12 2025 15:09:16 GMT-0500 (Central Daylight Time),435800.5,lime,800,I,m,m,None,560,360.0,200.0,109,3,1895.5,433905.0,8000,iron,NF,C,431375,431375,429846,430659,429846,431742,431175,431175,431742,128
