acc_sum,block,block_c,condition,correct,correct_response,datetime,endtime,flanker,jitter,project,response,response_test_buffer_response,response_test_target_response,response_time,response_time_test_buffer_response,response_time_test_target_response,row_sel,session_number,start_end,starttime,subject_id,target,task,task_vers,time_test_buffer,time_test_buffer_response,time_test_constants,time_test_flanker,time_test_jitter,time_test_logger,time_test_target,time_test_target_response,time_test_variables,trial
1,prac,1,con,1,z,Wed Nov 20 2024 13:10:52 GMT-0600 (Central Standard Time),136327.1000000015,orange,1000,I,z,,,1034,,,3,2,3344.10000000149,132983.0,8000,orange,NF,C,,,,,,,,,,1
2,prac,1,con,1,m,Wed Nov 20 2024 13:10:52 GMT-0600 (Central Standard Time),139009.6000000015,gold,800,I,m,,,574,,,13,2,2677.1999999955297,136332.40000000596,8000,gold,NF,C,,,,,,,,,,2
3,prac,1,con,1,z,Wed Nov 20 2024 13:10:52 GMT-0600 (Central Standard Time),142008.5,kiwi,1000,I,z,,,691,,,7,2,2994.2999999970198,139014.20000000298,8000,kiwi,NF,C,,,,,,,,,,3
4,prac,1,inc,1,m,Wed Nov 20 2024 13:10:52 GMT-0600 (Central Standard Time),144774.5,cherry,900,I,m,,,559,,,10,2,2761.5999999940395,142012.90000000596,8000,copper,NF,C,,,,,,,,,,4
5,prac,1,con,1,m,Wed Nov 20 2024 13:10:52 GMT-0600 (Central Standard Time),147707.0,silver,1000,I,m,,,572,,,11,2,2927.7999999970198,144779.20000000298,8000,silver,NF,C,,,,,,,,,,5
6,prac,1,inc,1,m,Wed Nov 20 2024 13:10:52 GMT-0600 (Central Standard Time),150822.5,plum,1100,I,m,,,701,,,16,2,3111.0,147711.5,8000,lead,NF,C,,,,,,,,,,6
7,prac,1,inc,1,z,Wed Nov 20 2024 13:10:52 GMT-0600 (Central Standard Time),153904.70000000298,cobalt,1100,I,z,,,690,,,4,2,3078.0,150826.70000000298,8000,raisin,NF,C,,,,,,,,,,7
8,prac,1,inc,1,z,Wed Nov 20 2024 13:10:52 GMT-0600 (Central Standard Time),156903.80000000447,copper,900,I,z,,,784,,,2,2,2995.10000000149,153908.70000000298,8000,cherry,NF,C,,,,,,,,,,8
9,prac,1,inc,1,z,Wed Nov 20 2024 13:10:52 GMT-0600 (Central Standard Time),159719.80000000447,iron,900,I,z,,,608,,,6,2,2811.8000000044703,156908.0,8000,pear,NF,C,,,,,,,,,,9
10,prac,1,con,1,z,Wed Nov 20 2024 13:10:52 GMT-0600 (Central Standard Time),162402.1000000015,banana,800,I,z,,,573,,,1,2,2678.0,159724.1000000015,8000,banana,NF,C,,,,,,,,,,10
11,prac,1,con,1,m,Wed Nov 20 2024 13:10:52 GMT-0600 (Central Standard Time),165468.20000000298,zinc,1000,I,m,,,755,,,15,2,3060.2999999970198,162407.90000000596,8000,zinc,NF,C,,,,,,,,,,11
12,prac,1,con,1,z,Wed Nov 20 2024 13:10:52 GMT-0600 (Central Standard Time),168350.40000000596,lime,800,I,z,,,767,,,5,2,2878.10000000149,165472.30000000447,8000,lime,NF,C,,,,,,,,,,12
13,prac,1,inc,1,z,Wed Nov 20 2024 13:10:52 GMT-0600 (Central Standard Time),171465.90000000596,lead,1100,I,z,,,648,,,8,2,3111.5,168354.40000000596,8000,plum,NF,C,,,,,,,,,,13
14,prac,1,con,1,m,Wed Nov 20 2024 13:10:52 GMT-0600 (Central Standard Time),174248.5,bronze,800,I,m,,,675,,,9,2,2778.6999999955297,171469.80000000447,8000,bronze,NF,C,,,,,,,,,,14
15,prac,1,inc,1,m,Wed Nov 20 2024 13:10:52 GMT-0600 (Central Standard Time),177364.20000000298,raisin,1100,I,m,,,712,,,12,2,3111.39999999851,174252.80000000447,8000,cobalt,NF,C,,,,,,,,,,15
15,prac,1,inc,0,m,Wed Nov 20 2024 13:10:52 GMT-0600 (Central Standard Time),180513.20000000298,pear,900,I,z,,,941,,,14,2,3144.7000000029802,177368.5,8000,iron,NF,C,,,,,,,,,,16
1,test,1,inc,1,z,Wed Nov 20 2024 13:10:52 GMT-0600 (Central Standard Time),199007.30000000447,gold,800,I,z,z,None,811,611.0,200.0,37,2,2145.39999999851,196861.90000000596,8000,lime,NF,C,193116,193116,191587,192400,191587,193732,192916,192916,193732,1
2,test,1,inc,1,z,Wed Nov 20 2024 13:10:52 GMT-0600 (Central Standard Time),201323.1000000015,cobalt,1100,I,z,z,None,674,474.0,200.0,32,2,2311.2999999970198,199011.80000000447,8000,raisin,NF,C,195565,195565,193737,194850,193737,196048,195365,195365,196048,2
3,test,1,inc,1,m,Wed Nov 20 2024 13:10:52 GMT-0600 (Central Standard Time),203555.80000000447,plum,1100,I,m,m,None,597,398.0,199.0,112,2,2228.39999999851,201327.40000000596,8000,iron,NF,C,197881,197881,196052,197165,196053,198281,197682,197682,198281,3
4,test,1,inc,1,m,Wed Nov 20 2024 13:10:52 GMT-0600 (Central Standard Time),205755.0,kiwi,1000,I,m,m,None,657,457.0,200.0,127,2,2195.1999999955297,203559.80000000447,8000,lead,NF,C,200014,200014,198285,199297,198285,200480,199814,199814,200480,4
5,test,1,con,1,m,Wed Nov 20 2024 13:10:52 GMT-0600 (Central Standard Time),207955.40000000596,cobalt,1100,I,m,m,None,566,366.0,200.0,92,2,2196.10000000149,205759.30000000447,8000,cobalt,NF,C,202313,202313,200484,201597,200485,202681,202113,202113,202680,5
6,test,1,con,1,m,Wed Nov 20 2024 13:10:52 GMT-0600 (Central Standard Time),210103.70000000298,zinc,1100,I,m,m,None,509,309.0,200.0,116,2,2144.2999999970198,207959.40000000596,8000,zinc,NF,C,204513,204513,202684,203796,202685,204829,204312,204312,204829,6
7,test,1,inc,1,z,Wed Nov 20 2024 13:10:52 GMT-0600 (Central Standard Time),212119.90000000596,bronze,800,I,z,z,None,669,469.0,200.0,13,2,2012.5,210107.40000000596,8000,cherry,NF,C,206362,206362,204832,205647,204833,206845,206162,206162,206845,7
8,test,1,inc,1,z,Wed Nov 20 2024 13:10:52 GMT-0600 (Central Standard Time),214185.70000000298,iron,900,I,z,z,None,632,432.0,200.0,38,2,2061.89999999851,212123.80000000447,8000,lime,NF,C,208478,208478,206849,207761,206849,208911,208278,208278,208911,8
9,test,1,inc,1,m,Wed Nov 20 2024 13:10:52 GMT-0600 (Central Standard Time),216432.6000000015,plum,1100,I,m,m,None,613,413.0,200.0,120,2,2243.0,214189.6000000015,8000,zinc,NF,C,210744,210744,208915,210027,208915,211158,210544,210544,211158,9
10,test,1,con,1,m,Wed Nov 20 2024 13:10:52 GMT-0600 (Central Standard Time),218650.80000000447,gold,1100,I,m,m,None,574,374.0,200.0,100,2,2214.0,216436.80000000447,8000,gold,NF,C,212993,212993,211162,212277,211162,213376,212793,212793,213376,10
11,test,1,con,1,m,Wed Nov 20 2024 13:10:52 GMT-0600 (Central Standard Time),220533.70000000298,lead,800,I,m,m,None,538,338.0,200.0,121,2,1878.6000000014901,218655.1000000015,8000,lead,NF,C,214909,214909,213380,214193,213381,215259,214709,214709,215259,11
12,test,1,con,1,m,Wed Nov 20 2024 13:10:52 GMT-0600 (Central Standard Time),222566.5,zinc,1000,I,m,m,None,495,295.0,200.0,115,2,2028.2999999970198,220538.20000000298,8000,zinc,NF,C,216992,216992,215263,216275,215263,217292,216792,216792,217292,12
13,test,1,con,1,z,Wed Nov 20 2024 13:10:52 GMT-0600 (Central Standard Time),224532.5,raisin,800,I,z,z,None,645,446.0,199.0,25,2,1962.0999999940395,222570.40000000596,8000,raisin,NF,C,218808,218808,217295,218108,217296,219258,218609,218609,219258,13
14,test,1,con,1,z,Wed Nov 20 2024 13:10:52 GMT-0600 (Central Standard Time),226381.90000000596,lime,800,I,z,z,None,503,304.0,199.0,33,2,1845.5,224536.40000000596,8000,lime,NF,C,220791,220791,219261,220074,219262,221107,220591,220591,221107,14
15,test,1,inc,1,m,Wed Nov 20 2024 13:10:52 GMT-0600 (Central Standard Time),228297.90000000596,banana,800,I,m,m,None,575,375.0,200.0,69,2,1912.0,226385.90000000596,8000,bronze,NF,C,222640,222640,221111,221924,221111,223023,222440,222440,223023,15
16,test,1,con,1,m,Wed Nov 20 2024 13:10:52 GMT-0600 (Central Standard Time),230480.70000000298,silver,900,I,m,m,None,742,542.0,200.0,82,2,2178.7999999970198,228301.90000000596,8000,silver,NF,C,224656,224656,223027,223940,223027,225206,224456,224456,225206,16
17,test,1,inc,1,m,Wed Nov 20 2024 13:10:52 GMT-0600 (Central Standard Time),232679.90000000596,orange,1000,I,m,m,None,658,459.0,199.0,79,2,2195.4000000059605,230484.5,8000,copper,NF,C,226939,226939,225210,226222,225210,227405,226739,226739,227405,17
18,test,1,con,1,m,Wed Nov 20 2024 13:10:52 GMT-0600 (Central Standard Time),234645.90000000596,cobalt,1000,I,m,m,None,429,229.0,200.0,91,2,1961.8000000044703,232684.1000000015,8000,cobalt,NF,C,229138,229138,227409,228421,227409,229371,228938,228938,229371,18
19,test,1,inc,1,m,Wed Nov 20 2024 13:10:52 GMT-0600 (Central Standard Time),236678.70000000298,pear,900,I,m,m,None,595,395.0,200.0,118,2,2028.8999999985099,234649.80000000447,8000,zinc,NF,C,231004,231004,229375,230288,229375,231404,230804,230804,231404,19
20,test,1,con,1,m,Wed Nov 20 2024 13:10:52 GMT-0600 (Central Standard Time),238528.1000000015,copper,800,I,m,m,None,510,310.0,200.0,73,2,1845.3999999985099,236682.70000000298,8000,copper,NF,C,232937,232937,231408,232220,231408,233253,232737,232737,233253,20
21,test,1,con,1,m,Wed Nov 20 2024 13:10:52 GMT-0600 (Central Standard Time),240694.0,iron,1100,I,m,m,None,521,321.0,200.0,108,2,2161.7999999970198,238532.20000000298,8000,iron,NF,C,235086,235086,233257,234370,233258,235419,234886,234886,235419,21
22,test,1,con,1,z,Wed Nov 20 2024 13:10:52 GMT-0600 (Central Standard Time),242560.20000000298,kiwi,800,I,z,z,None,519,319.0,200.0,49,2,1860.7000000029802,240699.5,8000,kiwi,NF,C,236952,236952,235425,236236,235425,237285,236752,236752,237285,22
23,test,1,inc,1,m,Wed Nov 20 2024 13:10:52 GMT-0600 (Central Standard Time),244559.6000000015,cherry,900,I,m,m,None,561,361.0,200.0,94,2,1995.0,242564.6000000015,8000,cobalt,NF,C,238918,238918,237290,238202,237290,239285,238718,238718,239285,23
24,test,1,inc,1,z,Wed Nov 20 2024 13:10:52 GMT-0600 (Central Standard Time),246625.6000000015,gold,800,I,z,z,None,724,525.0,199.0,45,2,2061.89999999851,244563.70000000298,8000,pear,NF,C,240818,240818,239289,240101,239289,241351,240618,240618,241351,24
25,test,1,inc,1,m,Wed Nov 20 2024 13:10:52 GMT-0600 (Central Standard Time),248575.0,lime,800,I,m,m,None,602,403.0,199.0,101,2,1945.5,246629.5,8000,gold,NF,C,242884,242884,241355,242167,241355,243300,242684,242684,243300,25
26,test,1,inc,1,z,Wed Nov 20 2024 13:10:52 GMT-0600 (Central Standard Time),250707.70000000298,zinc,1000,I,z,z,None,590,390.0,200.0,39,2,2128.7000000029802,248579.0,8000,lime,NF,C,245033,245033,243304,244316,243304,245433,244833,244833,245433,26
27,test,1,con,1,z,Wed Nov 20 2024 13:10:52 GMT-0600 (Central Standard Time),252790.30000000447,cherry,900,I,z,z,None,644,445.0,199.0,10,2,2078.7000000029802,250711.6000000015,8000,cherry,NF,C,247066,247066,245437,246349,245437,247515,246866,246866,247515,27
28,test,1,inc,1,z,Wed Nov 20 2024 13:10:52 GMT-0600 (Central Standard Time),254639.6000000015,bronze,800,I,z,z,None,509,294.0,215.0,21,2,1845.3999999985099,252794.20000000298,8000,orange,NF,C,249065,249065,247519,248332,247519,249365,248850,248850,249365,28
29,test,1,con,1,m,Wed Nov 20 2024 13:10:52 GMT-0600 (Central Standard Time),256755.70000000298,iron,1000,I,m,m,None,580,381.0,199.0,107,2,2112.2999999970198,254643.40000000596,8000,iron,NF,C,251098,251098,249368,250381,249369,251481,250898,250898,251481,29
30,test,1,inc,1,z,Wed Nov 20 2024 13:10:52 GMT-0600 (Central Standard Time),258655.1000000015,bronze,800,I,z,z,None,553,353.0,200.0,5,2,1895.2999999970198,256759.80000000447,8000,banana,NF,C,253014,253014,251485,252297,251485,253380,252814,252814,253380,30
31,test,1,inc,1,m,Wed Nov 20 2024 13:10:52 GMT-0600 (Central Standard Time),260638.0,banana,800,I,m,m,None,638,438.0,200.0,93,2,1979.1999999955297,258658.80000000447,8000,cobalt,NF,C,254913,254913,253384,254197,253384,255363,254713,254713,255363,31
32,test,1,inc,1,z,Wed Nov 20 2024 13:10:52 GMT-0600 (Central Standard Time),262771.6000000015,zinc,1000,I,z,z,None,615,416.0,199.0,55,2,2129.89999999851,260641.70000000298,8000,kiwi,NF,C,257079,257079,255367,256379,255367,257497,256880,256880,257497,32
33,test,1,inc,1,z,Wed Nov 20 2024 13:10:52 GMT-0600 (Central Standard Time),264903.1000000015,silver,1000,I,z,z,None,594,394.0,200.0,31,2,2127.60000000149,262775.5,8000,raisin,NF,C,259229,259229,257501,258512,257501,259628,259028,259028,259628,33
34,test,1,con,1,z,Wed Nov 20 2024 13:10:52 GMT-0600 (Central Standard Time),266985.90000000596,plum,900,I,z,z,None,634,434.0,200.0,58,2,2079.0,264906.90000000596,8000,plum,NF,C,261261,261261,259632,260545,259632,261711,261061,261061,261711,34
35,test,1,con,1,z,Wed Nov 20 2024 13:10:52 GMT-0600 (Central Standard Time),268968.700000003,cherry,1000,I,z,z,None,435,235.0,200.0,11,2,1978.8999999985099,266989.80000000447,8000,cherry,NF,C,263444,263444,261715,262727,261715,263694,263244,263244,263694,35
36,test,1,inc,1,m,Wed Nov 20 2024 13:10:52 GMT-0600 (Central Standard Time),271134.80000000447,raisin,1100,I,m,m,None,518,319.0,199.0,72,2,2162.3000000044703,268972.5,8000,bronze,NF,C,265527,265527,263698,264810,263698,265860,265327,265327,265860,36
37,test,1,inc,1,m,Wed Nov 20 2024 13:10:52 GMT-0600 (Central Standard Time),273383.6000000015,plum,1100,I,m,m,None,601,402.0,199.0,104,2,2245.10000000149,271138.5,8000,gold,NF,C,267693,267693,265864,266976,265864,268109,267493,267493,268109,37
38,test,1,inc,1,m,Wed Nov 20 2024 13:10:52 GMT-0600 (Central Standard Time),275366.6000000015,lime,800,I,m,m,None,645,445.0,200.0,109,2,1979.1999999955297,273387.40000000596,8000,iron,NF,C,269642,269642,268112,268925,268113,270092,269442,269442,270092,38
39,test,1,con,1,z,Wed Nov 20 2024 13:10:52 GMT-0600 (Central Standard Time),277532.5,plum,1000,I,z,z,None,621,422.0,199.0,59,2,2161.89999999851,275370.6000000015,8000,plum,NF,C,271825,271825,270096,271108,270096,272258,271625,271625,272258,39
40,test,1,inc,1,z,Wed Nov 20 2024 13:10:52 GMT-0600 (Central Standard Time),279481.90000000596,iron,900,I,z,z,None,499,300.0,199.0,46,2,1945.2000000029802,277536.700000003,8000,pear,NF,C,273891,273891,272262,273174,272262,274207,273691,273691,274207,40
41,test,1,con,1,z,Wed Nov 20 2024 13:10:52 GMT-0600 (Central Standard Time),281564.5,orange,1100,I,z,z,None,439,239.0,200.0,20,2,2078.89999999851,279485.6000000015,8000,orange,NF,C,276040,276040,274211,275323,274211,276290,275840,275840,276290,41
42,test,1,con,1,m,Wed Nov 20 2024 13:10:52 GMT-0600 (Central Standard Time),283580.5,gold,900,I,m,m,None,579,380.0,199.0,98,2,2012.3999999985099,281568.1000000015,8000,gold,NF,C,277923,277923,276293,277206,276293,278306,277723,277723,278305,42
43,test,1,con,1,z,Wed Nov 20 2024 13:10:52 GMT-0600 (Central Standard Time),285763.30000000447,pear,1000,I,z,z,None,647,448.0,199.0,43,2,2179.10000000149,283584.200000003,8000,pear,NF,C,280039,280039,278309,279322,278310,280488,279839,279839,280488,43
44,test,1,con,1,m,Wed Nov 20 2024 13:10:52 GMT-0600 (Central Standard Time),287829.40000000596,bronze,1000,I,m,m,None,530,330.0,200.0,67,2,2062.4000000059605,285767.0,8000,bronze,NF,C,282221,282221,280492,281505,280492,282554,282021,282021,282554,44
45,test,1,con,1,z,Wed Nov 20 2024 13:10:52 GMT-0600 (Central Standard Time),289995.1000000015,lime,1100,I,z,z,None,524,324.0,200.0,36,2,2161.89999999851,287833.200000003,8000,lime,NF,C,284387,284387,282558,283671,282559,284720,284187,284187,284720,45
46,test,1,inc,1,m,Wed Nov 20 2024 13:10:52 GMT-0600 (Central Standard Time),291928.1000000015,lime,800,I,m,m,None,593,393.0,200.0,117,2,1929.1000000014901,289999.0,8000,zinc,NF,C,286253,286253,284724,285537,284724,286653,286053,286053,286653,46
47,test,1,con,1,m,Wed Nov 20 2024 13:10:52 GMT-0600 (Central Standard Time),293810.40000000596,iron,800,I,m,m,None,549,349.0,200.0,105,2,1878.4000000059605,291932.0,8000,iron,NF,C,288186,288186,286657,287470,286657,288535,287986,287986,288535,47
48,test,1,inc,1,m,Wed Nov 20 2024 13:10:52 GMT-0600 (Central Standard Time),295793.40000000596,lime,800,I,m,m,None,642,442.0,200.0,125,2,1979.3000000044703,293814.1000000015,8000,lead,NF,C,290069,290069,288539,289353,288539,290518,289869,289869,290518,48
49,test,1,inc,1,m,Wed Nov 20 2024 13:10:52 GMT-0600 (Central Standard Time),297942.6000000015,raisin,1100,I,m,m,None,504,304.0,200.0,80,2,2145.39999999851,295797.200000003,8000,copper,NF,C,292351,292351,290522,291635,290522,292668,292151,292151,292668,49
50,test,1,con,1,m,Wed Nov 20 2024 13:10:52 GMT-0600 (Central Standard Time),300075.5,bronze,1100,I,m,m,None,497,297.0,200.0,68,2,2129.1999999955297,297946.30000000447,8000,bronze,NF,C,294501,294501,292671,293784,292672,294801,294301,294301,294801,50
51,test,1,inc,1,m,Wed Nov 20 2024 13:10:52 GMT-0600 (Central Standard Time),302058.0,pear,900,I,m,m,None,549,350.0,199.0,110,2,1978.7999999970198,300079.200000003,8000,iron,NF,C,296433,296433,294804,295717,294805,296783,296234,296234,296783,51
52,test,1,inc,1,z,Wed Nov 20 2024 13:10:52 GMT-0600 (Central Standard Time),304075.1000000015,silver,1000,I,z,z,None,482,282.0,200.0,15,2,2013.6000000014901,302061.5,8000,cherry,NF,C,298516,298516,296787,297800,296787,298800,298316,298316,298800,52
53,test,1,inc,1,z,Wed Nov 20 2024 13:10:52 GMT-0600 (Central Standard Time),305923.6000000015,gold,800,I,z,z,None,507,307.0,200.0,61,2,1844.5,304079.1000000015,8000,plum,NF,C,300332,300332,298804,299616,298804,300649,300132,300132,300649,53
54,test,1,con,1,z,Wed Nov 20 2024 13:10:52 GMT-0600 (Central Standard Time),307906.1000000015,banana,1000,I,z,z,None,448,249.0,199.0,3,2,1978.6000000014901,305927.5,8000,banana,NF,C,302382,302382,300653,301665,300653,302631,302182,302182,302631,54
55,test,1,inc,1,m,Wed Nov 20 2024 13:10:52 GMT-0600 (Central Standard Time),310005.5,orange,1000,I,m,m,None,562,362.0,200.0,87,2,2095.5999999940395,307909.90000000596,8000,silver,NF,C,304364,304364,302635,303648,302635,304731,304164,304164,304730,55
56,test,1,con,1,m,Wed Nov 20 2024 13:10:52 GMT-0600 (Central Standard Time),312021.6000000015,bronze,800,I,m,m,None,678,479.0,199.0,65,2,2012.3999999985099,310009.200000003,8000,bronze,NF,C,306264,306264,304734,305550,304734,306747,306064,306064,306747,56
57,test,1,con,1,z,Wed Nov 20 2024 13:10:52 GMT-0600 (Central Standard Time),313887.5,plum,800,I,z,z,None,525,326.0,199.0,57,2,1862.1999999955297,312025.30000000447,8000,plum,NF,C,308280,308280,306750,307563,306751,308613,308080,308080,308613,57
58,test,1,inc,1,m,Wed Nov 20 2024 13:10:52 GMT-0600 (Central Standard Time),315887.1000000015,cherry,900,I,m,m,None,553,353.0,200.0,86,2,1995.6999999955297,313891.40000000596,8000,silver,NF,C,310246,310246,308616,309529,308617,310612,310046,310046,310612,58
59,test,1,con,1,m,Wed Nov 20 2024 13:10:52 GMT-0600 (Central Standard Time),317953.0,copper,900,I,m,m,None,626,426.0,200.0,74,2,2062.0999999940395,315890.90000000596,8000,copper,NF,C,312245,312245,310616,311529,310616,312678,312045,312045,312678,59
60,test,1,con,1,m,Wed Nov 20 2024 13:10:52 GMT-0600 (Central Standard Time),319935.90000000596,copper,1000,I,m,m,None,443,243.0,200.0,75,2,1979.0,317956.90000000596,8000,copper,NF,C,314411,314411,312682,313695,312682,314661,314211,314211,314661,60
61,test,1,inc,1,m,Wed Nov 20 2024 13:10:52 GMT-0600 (Central Standard Time),322135.1000000015,kiwi,1000,I,m,m,None,661,461.0,200.0,111,2,2195.1999999955297,319939.90000000596,8000,iron,NF,C,316394,316394,314665,315677,314665,316860,316194,316194,316860,61
62,test,1,con,1,z,Wed Nov 20 2024 13:10:52 GMT-0600 (Central Standard Time),324367.80000000447,cherry,1100,I,z,z,None,593,393.0,200.0,12,2,2228.7000000029802,322139.1000000015,8000,cherry,NF,C,318693,318693,316864,317977,316864,319093,318493,318493,319093,62
63,test,1,inc,1,m,Wed Nov 20 2024 13:10:52 GMT-0600 (Central Standard Time),326516.90000000596,kiwi,1000,I,m,m,None,604,405.0,199.0,103,2,2145.5,324371.40000000596,8000,gold,NF,C,320826,320826,319096,320109,319097,321242,320626,320626,321242,63
64,test,1,con,1,m,Wed Nov 20 2024 13:10:52 GMT-0600 (Central Standard Time),328566.5,gold,1000,I,m,m,None,511,311.0,200.0,99,2,2045.6999999955297,326520.80000000447,8000,gold,NF,C,322975,322975,321246,322259,321246,323292,322775,322775,323291,64
65,test,1,con,1,m,Wed Nov 20 2024 13:10:52 GMT-0600 (Central Standard Time),330415.6000000015,zinc,800,I,m,m,None,502,302.0,200.0,113,2,1845.2999999970198,328570.30000000447,8000,zinc,NF,C,324824,324824,323295,324108,323296,325141,324624,324624,325141,65
66,test,1,inc,1,z,Wed Nov 20 2024 13:10:52 GMT-0600 (Central Standard Time),332482.0,zinc,1000,I,z,z,None,533,333.0,200.0,63,2,2062.1999999955297,330419.80000000447,8000,plum,NF,C,326858,326858,325145,326157,325145,327207,326658,326658,327207,66
67,test,1,con,1,z,Wed Nov 20 2024 13:10:52 GMT-0600 (Central Standard Time),334447.80000000447,raisin,900,I,z,z,None,526,327.0,199.0,26,2,1962.0,332485.80000000447,8000,raisin,NF,C,328840,328840,327211,328124,327211,329173,328640,328640,329173,67
68,test,1,con,1,z,Wed Nov 20 2024 13:10:52 GMT-0600 (Central Standard Time),336314.1000000015,pear,800,I,z,z,None,533,333.0,200.0,41,2,1862.5,334451.6000000015,8000,pear,NF,C,330706,330706,329177,329990,329177,331039,330506,330506,331039,68
69,test,1,con,1,m,Wed Nov 20 2024 13:10:52 GMT-0600 (Central Standard Time),338313.30000000447,cobalt,900,I,m,m,None,559,359.0,200.0,90,2,1995.3000000044703,336318.0,8000,cobalt,NF,C,332672,332672,331043,331956,331043,333038,332472,332472,333038,69
70,test,1,inc,1,z,Wed Nov 20 2024 13:10:52 GMT-0600 (Central Standard Time),340512.700000003,cobalt,1100,I,z,z,None,550,335.0,215.0,24,2,2195.10000000149,338317.6000000015,8000,orange,NF,C,334888,334888,333043,334155,333043,335238,334673,334673,335238,70
71,test,1,inc,1,m,Wed Nov 20 2024 13:10:52 GMT-0600 (Central Standard Time),342761.90000000596,raisin,1100,I,m,m,None,607,407.0,200.0,96,2,2245.4000000059605,340516.5,8000,cobalt,NF,C,337071,337071,335242,336354,335242,337487,336871,336871,337487,71
72,test,1,inc,1,z,Wed Nov 20 2024 13:10:52 GMT-0600 (Central Standard Time),344794.5,copper,900,I,z,z,None,590,390.0,200.0,22,2,2028.8999999985099,342765.6000000015,8000,orange,NF,C,339120,339120,337491,338404,337491,339520,338920,338920,339520,72
73,test,1,inc,1,z,Wed Nov 20 2024 13:10:52 GMT-0600 (Central Standard Time),347310.5,zinc,1000,I,z,z,None,969,770.0,199.0,47,2,2512.1999999955297,344798.30000000447,8000,pear,NF,C,341253,341253,339523,340536,339524,342036,341053,341053,342036,73
74,test,1,inc,1,m,Wed Nov 20 2024 13:10:52 GMT-0600 (Central Standard Time),349509.80000000447,raisin,1100,I,m,m,None,555,355.0,200.0,88,2,2195.60000000149,347314.200000003,8000,silver,NF,C,343868,343868,342039,343152,342040,344235,343668,343668,344235,74
75,test,1,inc,1,z,Wed Nov 20 2024 13:10:52 GMT-0600 (Central Standard Time),351475.80000000447,iron,900,I,z,z,None,522,322.0,200.0,54,2,1962.5,349513.30000000447,8000,kiwi,NF,C,345868,345868,344238,345151,344239,346201,345668,345668,346201,75
76,test,1,inc,1,z,Wed Nov 20 2024 13:10:52 GMT-0600 (Central Standard Time),353425.1000000015,iron,900,I,z,z,None,508,308.0,200.0,62,2,1945.6000000014901,351479.5,8000,plum,NF,C,347834,347834,346205,347117,346205,348150,347634,347634,348150,76
77,test,1,con,1,z,Wed Nov 20 2024 13:10:52 GMT-0600 (Central Standard Time),355507.80000000447,raisin,1100,I,z,z,None,448,248.0,200.0,28,2,2078.8000000044703,353429.0,8000,raisin,NF,C,349983,349983,348154,349267,348154,350233,349783,349783,350233,77
78,test,1,con,1,m,Wed Nov 20 2024 13:10:52 GMT-0600 (Central Standard Time),357456.90000000596,cobalt,800,I,m,m,None,600,400.0,200.0,89,2,1945.4000000059605,355511.5,8000,cobalt,NF,C,351766,351766,350237,351050,350237,352182,351566,351566,352182,78
79,test,1,inc,1,z,Wed Nov 20 2024 13:10:52 GMT-0600 (Central Standard Time),359306.700000003,gold,800,I,z,z,None,507,308.0,199.0,53,2,1846.0,357460.700000003,8000,kiwi,NF,C,353715,353715,352186,352999,352186,354032,353516,353516,354032,79
80,test,1,con,1,z,Wed Nov 20 2024 13:10:52 GMT-0600 (Central Standard Time),361106.1000000015,cherry,800,I,z,z,None,457,258.0,199.0,9,2,1795.5,359310.6000000015,8000,cherry,NF,C,355564,355565,354036,354848,354036,355831,355365,355365,355831,80
81,test,1,inc,1,m,Wed Nov 20 2024 13:10:52 GMT-0600 (Central Standard Time),363205.6000000015,kiwi,1000,I,m,m,None,562,362.0,200.0,119,2,2095.60000000149,361110.0,8000,zinc,NF,C,357564,357564,355835,356848,355835,357931,357364,357364,357931,81
82,test,1,con,1,m,Wed Nov 20 2024 13:10:52 GMT-0600 (Central Standard Time),365138.0,zinc,900,I,m,m,None,498,299.0,199.0,114,2,1928.5999999940395,363209.40000000596,8000,zinc,NF,C,359564,359564,357934,358847,357935,359863,359364,359364,359863,82
83,test,1,con,1,z,Wed Nov 20 2024 13:10:52 GMT-0600 (Central Standard Time),367171.1000000015,kiwi,1000,I,z,z,None,497,297.0,200.0,51,2,2029.3999999985099,365141.700000003,8000,kiwi,NF,C,361597,361597,359867,360880,359867,361896,361396,361396,361896,83
84,test,1,con,1,z,Wed Nov 20 2024 13:10:52 GMT-0600 (Central Standard Time),369286.80000000447,plum,1100,I,z,z,None,477,277.0,200.0,60,2,2112.0,367174.80000000447,8000,plum,NF,C,363729,363729,361900,363012,361900,364012,363529,363529,364012,84
85,test,1,inc,1,m,Wed Nov 20 2024 13:10:52 GMT-0600 (Central Standard Time),371419.30000000447,orange,1000,I,m,m,None,590,390.0,200.0,95,2,2128.60000000149,369290.700000003,8000,cobalt,NF,C,365745,365745,364016,365028,364016,366144,365545,365545,366144,85
86,test,1,inc,1,z,Wed Nov 20 2024 13:10:52 GMT-0600 (Central Standard Time),373585.5,cobalt,1100,I,z,z,None,532,332.0,200.0,8,2,2162.5999999940395,371422.90000000596,8000,banana,NF,C,367978,367978,366148,367261,366148,368311,367777,367777,368311,86
86,test,1,con,0,m,Wed Nov 20 2024 13:10:52 GMT-0600 (Central Standard Time),375701.30000000447,lead,1000,I,z,z,None,579,379.0,200.0,123,2,2112.10000000149,373589.200000003,8000,lead,NF,C,370043,370043,368314,369327,368314,370426,369843,369843,370426,87
87,test,1,con,1,m,Wed Nov 20 2024 13:10:52 GMT-0600 (Central Standard Time),378033.80000000447,copper,1100,I,m,m,None,691,491.0,200.0,76,2,2329.0,375704.80000000447,8000,copper,NF,C,372259,372259,370430,371543,370430,372759,372059,372059,372759,88
88,test,1,con,1,m,Wed Nov 20 2024 13:10:52 GMT-0600 (Central Standard Time),379916.700000003,silver,800,I,m,m,None,546,346.0,200.0,81,2,1879.2999999970198,378037.40000000596,8000,silver,NF,C,374292,374292,372762,373576,372763,374642,374092,374092,374642,89
89,test,1,inc,1,m,Wed Nov 20 2024 13:10:52 GMT-0600 (Central Standard Time),381982.6000000015,pear,900,I,m,m,None,601,395.0,206.0,126,2,2062.0,379920.6000000015,8000,lead,NF,C,376308,376308,374646,375558,374646,376708,376102,376102,376708,90
90,test,1,con,1,m,Wed Nov 20 2024 13:10:52 GMT-0600 (Central Standard Time),383982.0,bronze,900,I,m,m,None,578,379.0,199.0,66,2,1995.0,381987.0,8000,bronze,NF,C,378324,378324,376712,377624,376712,378707,378125,378125,378707,91
91,test,1,con,1,z,Wed Nov 20 2024 13:10:52 GMT-0600 (Central Standard Time),385848.40000000596,orange,800,I,z,z,None,526,327.0,199.0,17,2,1862.3000000044703,383986.1000000015,8000,orange,NF,C,380240,380240,378711,379524,378711,380573,380040,380041,380573,92
92,test,1,con,1,z,Wed Nov 20 2024 13:10:52 GMT-0600 (Central Standard Time),387747.6000000015,orange,900,I,z,z,None,465,265.0,200.0,18,2,1895.3999999985099,385852.200000003,8000,orange,NF,C,382206,382206,380577,381490,380577,382473,382006,382006,382473,93
93,test,1,con,1,z,Wed Nov 20 2024 13:10:52 GMT-0600 (Central Standard Time),389547.0,banana,800,I,z,z,None,456,256.0,200.0,1,2,1795.5999999940395,387751.40000000596,8000,banana,NF,C,384006,384006,382476,383289,382477,384272,383806,383806,384272,94
94,test,1,inc,1,z,Wed Nov 20 2024 13:10:52 GMT-0600 (Central Standard Time),391763.200000003,lead,1100,I,z,z,None,582,382.0,200.0,48,2,2212.5,389550.700000003,8000,pear,NF,C,386105,386105,384276,385389,384276,386488,385905,385905,386488,95
95,test,1,inc,1,z,Wed Nov 20 2024 13:10:52 GMT-0600 (Central Standard Time),393846.0,silver,1000,I,z,z,None,546,346.0,200.0,7,2,2079.0999999940395,391766.90000000596,8000,banana,NF,C,388221,388221,386492,387505,386492,388571,388021,388021,388571,96
96,test,1,con,1,m,Wed Nov 20 2024 13:10:52 GMT-0600 (Central Standard Time),396111.80000000447,silver,1100,I,m,m,None,627,426.0,201.0,84,2,2262.2000000029802,393849.6000000015,8000,silver,NF,C,390405,390405,388575,389688,388575,390837,390204,390204,390837,97
97,test,1,inc,1,m,Wed Nov 20 2024 13:10:52 GMT-0600 (Central Standard Time),398477.40000000596,plum,1100,I,m,m,None,720,520.0,200.0,128,2,2362.10000000149,396115.30000000447,8000,lead,NF,C,392670,392670,390840,391953,390841,393202,392470,392470,393202,98
98,test,1,inc,1,z,Wed Nov 20 2024 13:10:52 GMT-0600 (Central Standard Time),400627.0,lead,1100,I,z,z,None,505,306.0,199.0,64,2,2146.0,398481.0,8000,plum,NF,C,395036,395036,393206,394319,393206,395352,394836,394836,395352,99
99,test,1,inc,1,z,Wed Nov 20 2024 13:10:52 GMT-0600 (Central Standard Time),402576.6000000015,bronze,800,I,z,z,None,610,410.0,200.0,29,2,1945.8999999985099,400630.700000003,8000,raisin,NF,C,396885,396885,395356,396169,395356,397302,396685,396685,397302,100
100,test,1,con,1,z,Wed Nov 20 2024 13:10:52 GMT-0600 (Central Standard Time),404542.6000000015,banana,900,I,z,z,None,519,320.0,199.0,2,2,1962.5,402580.1000000015,8000,banana,NF,C,398935,398935,397305,398218,397305,399268,398735,398735,399268,101
101,test,1,inc,1,m,Wed Nov 20 2024 13:10:52 GMT-0600 (Central Standard Time),406675.200000003,orange,1000,I,m,m,None,598,398.0,200.0,71,2,2129.0,404546.200000003,8000,bronze,NF,C,401001,401001,399271,400284,399271,401400,400800,400800,401400,102
102,test,1,inc,1,z,Wed Nov 20 2024 13:10:52 GMT-0600 (Central Standard Time),408924.5,lead,1100,I,z,z,None,614,414.0,200.0,40,2,2245.5999999940395,406678.90000000596,8000,lime,NF,C,403233,403233,401404,402517,401404,403650,403033,403033,403650,103
103,test,1,inc,1,z,Wed Nov 20 2024 13:10:52 GMT-0600 (Central Standard Time),411157.200000003,silver,1000,I,z,z,None,688,489.0,199.0,23,2,2229.10000000149,408928.1000000015,8000,orange,NF,C,405382,405382,403653,404666,403653,405882,405183,405183,405882,104
104,test,1,con,1,z,Wed Nov 20 2024 13:10:52 GMT-0600 (Central Standard Time),413306.6000000015,banana,1100,I,z,z,None,508,308.0,200.0,4,2,2145.60000000149,411161.0,8000,banana,NF,C,407715,407715,405886,406999,405886,408032,407515,407515,408032,105
105,test,1,con,1,m,Wed Nov 20 2024 13:10:52 GMT-0600 (Central Standard Time),415439.1000000015,silver,1000,I,m,m,None,586,386.0,200.0,83,2,2128.6999999955297,413310.40000000596,8000,silver,NF,C,409764,409764,408035,409048,408036,410164,409564,409564,410164,106
106,test,1,inc,1,m,Wed Nov 20 2024 13:10:52 GMT-0600 (Central Standard Time),417538.30000000447,pear,900,I,m,m,None,666,466.0,200.0,102,2,2095.2000000029802,415443.1000000015,8000,gold,NF,C,411797,411797,410168,411081,410168,412263,411597,411597,412263,107
107,test,1,con,1,z,Wed Nov 20 2024 13:10:52 GMT-0600 (Central Standard Time),419754.40000000596,orange,1000,I,z,z,None,674,475.0,199.0,19,2,2212.4000000059605,417542.0,8000,orange,NF,C,413996,413996,412267,413280,412267,414480,413797,413797,414479,108
108,test,1,con,1,z,Wed Nov 20 2024 13:10:52 GMT-0600 (Central Standard Time),421820.40000000596,lime,1000,I,z,z,None,531,331.0,200.0,35,2,2062.0,419758.40000000596,8000,lime,NF,C,416212,416212,414483,415496,414484,416545,416012,416012,416545,109
109,test,1,con,1,z,Wed Nov 20 2024 13:10:52 GMT-0600 (Central Standard Time),424069.6000000015,kiwi,1100,I,z,z,None,602,403.0,199.0,52,2,2245.10000000149,421824.5,8000,kiwi,NF,C,418379,418379,416550,417662,416550,418795,418180,418180,418795,110
110,test,1,con,1,m,Wed Nov 20 2024 13:10:52 GMT-0600 (Central Standard Time),426035.700000003,iron,900,I,m,m,None,531,331.0,200.0,106,2,1962.2000000029802,424073.5,8000,iron,NF,C,420428,420428,418799,419711,418799,420761,420228,420228,420761,111
111,test,1,inc,1,m,Wed Nov 20 2024 13:10:52 GMT-0600 (Central Standard Time),428118.40000000596,banana,800,I,m,m,None,737,537.0,200.0,85,2,2079.10000000149,426039.30000000447,8000,silver,NF,C,422294,422294,420764,421577,420765,422844,422094,422094,422843,112
112,test,1,con,1,z,Wed Nov 20 2024 13:10:52 GMT-0600 (Central Standard Time),430450.90000000596,pear,1100,I,z,z,None,690,491.0,199.0,44,2,2328.8000000044703,428122.1000000015,8000,pear,NF,C,424676,424676,422847,423960,422847,425176,424477,424477,425176,113
113,test,1,con,1,m,Wed Nov 20 2024 13:10:52 GMT-0600 (Central Standard Time),432733.80000000447,lead,1100,I,m,m,None,638,438.0,200.0,124,2,2279.2000000029802,430454.6000000015,8000,lead,NF,C,427009,427009,425180,426293,425180,427459,426809,426809,427459,114
114,test,1,inc,1,z,Wed Nov 20 2024 13:10:52 GMT-0600 (Central Standard Time),434716.5,copper,900,I,z,z,None,546,347.0,199.0,14,2,1979.1999999955297,432737.30000000447,8000,cherry,NF,C,429092,429092,427462,428375,427463,429442,428892,428892,429442,115
115,test,1,con,1,m,Wed Nov 20 2024 13:10:52 GMT-0600 (Central Standard Time),436915.5,lead,900,I,m,m,None,755,540.0,215.0,122,2,2195.2999999970198,434720.200000003,8000,lead,NF,C,431091,431091,429445,430358,429445,431641,430876,430876,431641,116
116,test,1,con,1,m,Wed Nov 20 2024 13:10:52 GMT-0600 (Central Standard Time),438681.700000003,gold,800,I,m,m,None,433,233.0,200.0,97,2,1762.5,436919.200000003,8000,gold,NF,C,433174,433174,431644,432457,431644,433407,432974,432974,433407,117
117,test,1,inc,1,m,Wed Nov 20 2024 13:10:52 GMT-0600 (Central Standard Time),440765.6000000015,cherry,900,I,m,m,None,638,438.0,200.0,70,2,2080.2999999970198,438685.30000000447,8000,bronze,NF,C,435040,435040,433410,434324,433411,435491,434840,434840,435491,118
118,test,1,con,1,z,Wed Nov 20 2024 13:10:52 GMT-0600 (Central Standard Time),442780.30000000447,kiwi,900,I,z,z,None,579,380.0,199.0,50,2,2010.8999999985099,440769.40000000596,8000,kiwi,NF,C,437123,437123,435494,436406,435495,437505,436923,436923,437505,119
119,test,1,con,1,z,Wed Nov 20 2024 13:10:52 GMT-0600 (Central Standard Time),444746.200000003,raisin,1000,I,z,z,None,432,233.0,199.0,27,2,1962.0,442784.200000003,8000,raisin,NF,C,439238,439238,437509,438522,437509,439471,439039,439039,439471,120
120,test,1,con,1,z,Wed Nov 20 2024 13:10:52 GMT-0600 (Central Standard Time),446629.30000000447,pear,900,I,z,z,None,437,238.0,199.0,42,2,1879.3999999985099,444749.90000000596,8000,pear,NF,C,441105,441105,439475,440388,439475,441354,440905,440905,441354,121
121,test,1,inc,1,z,Wed Nov 20 2024 13:10:52 GMT-0600 (Central Standard Time),448928.6000000015,lead,1100,I,z,z,None,660,460.0,200.0,56,2,2295.7999999970198,446632.80000000447,8000,kiwi,NF,C,443187,443187,441358,442471,441358,443654,442987,442987,443654,122
122,test,1,inc,1,m,Wed Nov 20 2024 13:10:52 GMT-0600 (Central Standard Time),450962.40000000596,cherry,900,I,m,m,None,583,384.0,199.0,78,2,2030.3000000044703,448932.1000000015,8000,copper,NF,C,445287,445287,443657,444570,443657,445687,445087,445087,445687,123
123,test,1,inc,1,z,Wed Nov 20 2024 13:10:52 GMT-0600 (Central Standard Time),453110.6000000015,cobalt,1100,I,z,z,None,511,312.0,199.0,16,2,2144.39999999851,450966.200000003,8000,cherry,NF,C,447519,447519,445691,446802,445691,447836,447320,447320,447835,124
124,test,1,inc,1,m,Wed Nov 20 2024 13:10:52 GMT-0600 (Central Standard Time),455293.200000003,banana,800,I,m,m,None,846,646.0,200.0,77,2,2179.0,453114.200000003,8000,copper,NF,C,449369,449369,447839,448652,447839,450018,449168,449168,450018,125
125,test,1,con,1,z,Wed Nov 20 2024 13:10:52 GMT-0600 (Central Standard Time),457342.5,lime,900,I,z,z,None,604,404.0,200.0,34,2,2045.6999999955297,455296.80000000447,8000,lime,NF,C,451651,451651,450022,450935,450022,452068,451451,451451,452068,126
126,test,1,inc,1,z,Wed Nov 20 2024 13:10:52 GMT-0600 (Central Standard Time),459308.6000000015,copper,900,I,z,z,None,529,330.0,199.0,6,2,1962.3999999985099,457346.200000003,8000,banana,NF,C,453701,453701,452071,452984,452071,454034,453501,453501,454034,127
127,test,1,inc,1,z,Wed Nov 20 2024 13:10:52 GMT-0600 (Central Standard Time),461341.200000003,copper,900,I,z,z,None,596,396.0,200.0,30,2,2029.1000000014901,459312.1000000015,8000,raisin,NF,C,455667,455667,454037,454950,454037,456066,455467,455467,456066,128
