Q,Q1,Q2,Q3,Q4,acc_sum,block,block_c,correct,correct_response,datetime,endtime,project,response,response_time,row_sel,session_number,squiggle1,squiggle1x,squiggle1y,squiggle2,squiggle2x,squiggle2y,squiggle3,squiggle3x,squiggle3y,squiggle4,squiggle4x,squiggle4y,start_end,starttime,subject_id,target_congruent,task,task_vers,testsquiggle,testsquigglex,testsquiggley,time_practice_delay,time_practice_fixation,time_practice_stimuli,time_practice_study,time_test_delay,time_test_fixation,time_test_stimuli,time_test_study,trial
1,1,0,0,0,0,prac,1,0,z,Thu Mar 27 2025 15:04:27 GMT-0500 (Central Daylight Time),144138.19999998808,O,None,2013,1,1,116.bmp,-120,-120,117.bmp,120,-120,118.bmp,-120,120,119.bmp,120,120,10830.600000023842,133307.59999996424,7092,yes,SM,A,116.bmp,-120,-120,133096,127065,135114,129082,,,,,1
3,0,0,1,0,0,prac,1,0,m,Thu Mar 27 2025 15:04:27 GMT-0500 (Central Daylight Time),154618.19999998808,O,z,1632,2,1,120.bmp,-120,-120,121.bmp,120,-120,122.bmp,-120,120,123.bmp,120,120,10462.5,144155.69999998808,7092,no,SM,A,123.bmp,-120,120,143942,137912,145960,139928,,,,,2
4,0,0,0,1,0,prac,1,0,m,Thu Mar 27 2025 15:04:27 GMT-0500 (Central Daylight Time),165064.69999998808,O,z,1600,3,1,124.bmp,-120,-120,125.bmp,120,-120,126.bmp,-120,120,127.bmp,120,120,10431.300000011921,154633.39999997616,7092,no,SM,A,124.bmp,120,120,154422,148390,156440,150408,,,,,3
2,0,1,0,0,0,prac,1,0,z,Thu Mar 27 2025 15:04:27 GMT-0500 (Central Daylight Time),175311.19999998808,O,m,1403,4,1,128.bmp,-120,-120,129.bmp,120,-120,130.bmp,-120,120,131.bmp,120,120,10231.600000023842,165079.59999996424,7092,yes,SM,A,129.bmp,120,-120,164869,158837,166885,160853,,,,,4
3,0,0,1,0,0,prac,1,0,z,Thu Mar 27 2025 15:04:27 GMT-0500 (Central Daylight Time),186141.0,O,None,2014,5,1,132.bmp,-120,-120,133.bmp,120,-120,134.bmp,-120,120,135.bmp,120,120,10815.5,175325.5,7092,yes,SM,A,134.bmp,-120,120,175099,169082,177117,171085,,,,,5
1,1,0,0,0,1,prac,1,1,m,Thu Mar 27 2025 15:04:27 GMT-0500 (Central Daylight Time),196371.0,O,m,1397,6,1,136.bmp,-120,-120,137.bmp,120,-120,138.bmp,-120,120,139.bmp,120,120,10213.600000023842,186157.39999997616,7092,no,SM,A,139.bmp,-120,-120,185945,179914,187963,181931,,,,,6
2,0,1,0,0,2,prac,1,1,m,Thu Mar 27 2025 15:04:27 GMT-0500 (Central Daylight Time),206584.19999998808,O,m,1392,7,1,140.bmp,-120,-120,141.bmp,120,-120,142.bmp,-120,120,143.bmp,120,120,10198.699999988079,196385.5,7092,no,SM,A,140.bmp,120,-120,196159,190142,198176,192144,,,,,7
4,0,0,0,1,2,prac,1,0,z,Thu Mar 27 2025 15:04:27 GMT-0500 (Central Daylight Time),217247.39999997616,O,m,1828,8,1,144.bmp,-120,-120,145.bmp,120,-120,146.bmp,-120,120,147.bmp,120,120,10648.5,206598.89999997616,7092,yes,SM,A,147.bmp,120,120,206388,200356,208404,202374,,,,,8
1,1,0,0,0,1,prac,2,1,z,Thu Mar 27 2025 15:04:27 GMT-0500 (Central Daylight Time),249070.29999995232,O,z,1511,1,1,116.bmp,-120,-120,117.bmp,120,-120,118.bmp,-120,120,119.bmp,120,120,10332.399999976158,238737.89999997616,7092,yes,SM,A,116.bmp,-120,-120,238528,232495,240545,234514,,,,,1
3,0,0,1,0,2,prac,2,1,m,Thu Mar 27 2025 15:04:27 GMT-0500 (Central Daylight Time),259467.0,O,m,1556,2,1,120.bmp,-120,-120,121.bmp,120,-120,122.bmp,-120,120,123.bmp,120,120,10382.0,249085.0,7092,no,SM,A,123.bmp,-120,120,248875,242842,250892,244860,,,,,2
4,0,0,0,1,3,prac,2,1,m,Thu Mar 27 2025 15:04:27 GMT-0500 (Central Daylight Time),269863.7999999523,O,m,1560,3,1,124.bmp,-120,-120,125.bmp,120,-120,126.bmp,-120,120,127.bmp,120,120,10381.799999952316,259482.0,7092,no,SM,A,124.bmp,120,120,259271,253239,261288,255257,,,,,3
2,0,1,0,0,4,prac,2,1,z,Thu Mar 27 2025 15:04:27 GMT-0500 (Central Daylight Time),279977.2999999523,O,z,1274,4,1,128.bmp,-120,-120,129.bmp,120,-120,130.bmp,-120,120,131.bmp,120,120,10095.899999976158,269881.39999997616,7092,yes,SM,A,129.bmp,120,-120,269668,263638,271685,265653,,,,,4
3,0,0,1,0,5,prac,2,1,z,Thu Mar 27 2025 15:04:27 GMT-0500 (Central Daylight Time),290223.39999997616,O,z,1408,5,1,132.bmp,-120,-120,133.bmp,120,-120,134.bmp,-120,120,135.bmp,120,120,10232.5,279990.89999997616,7092,yes,SM,A,134.bmp,-120,120,279781,273748,281800,275767,,,,,5
1,1,0,0,0,6,prac,2,1,m,Thu Mar 27 2025 15:04:27 GMT-0500 (Central Daylight Time),300736.59999996424,O,m,1667,6,1,136.bmp,-120,-120,137.bmp,120,-120,138.bmp,-120,120,139.bmp,120,120,10497.800000011921,290238.7999999523,7092,no,SM,A,139.bmp,-120,-120,290027,283996,292045,286013,,,,,6
2,0,1,0,0,7,prac,2,1,m,Thu Mar 27 2025 15:04:27 GMT-0500 (Central Daylight Time),310966.59999996424,O,m,1404,7,1,140.bmp,-120,-120,141.bmp,120,-120,142.bmp,-120,120,143.bmp,120,120,10215.899999976158,300750.6999999881,7092,no,SM,A,140.bmp,120,-120,300524,294508,302540,296510,,,,,7
4,0,0,0,1,8,prac,2,1,z,Thu Mar 27 2025 15:04:27 GMT-0500 (Central Daylight Time),321280.39999997616,O,z,1484,8,1,144.bmp,-120,-120,145.bmp,120,-120,146.bmp,-120,120,147.bmp,120,120,10300.300000011921,310980.09999996424,7092,yes,SM,A,147.bmp,120,120,310754,304737,312772,306740,,,,,8
4,0,0,0,1,0,test,1,0,m,Thu Mar 27 2025 15:04:27 GMT-0500 (Central Daylight Time),380510.2999999523,O,None,2016,1,1,148.bmp,-120,-120,149.bmp,120,-120,150.bmp,-120,120,143.bmp,120,120,10052.299999952316,370458.0,7092,no,SM,A,150.bmp,120,120,310754,304737,312772,306740,370235.0,364214.0,372250.0,366220.0,1
2,0,1,0,0,1,test,1,1,m,Thu Mar 27 2025 15:04:27 GMT-0500 (Central Daylight Time),390040.89999997616,O,m,1477,2,1,101.bmp,-120,-120,102.bmp,120,-120,103.bmp,-120,120,104.bmp,120,120,9517.0,380523.89999997616,7092,no,SM,A,103.bmp,120,-120,310754,304737,312772,306740,380298.0,374281.0,382315.0,376284.0,2
1,1,0,0,0,2,test,1,1,z,Thu Mar 27 2025 15:04:27 GMT-0500 (Central Daylight Time),399837.2999999523,O,z,1738,3,1,105.bmp,-120,-120,106.bmp,120,-120,107.bmp,-120,120,108.bmp,120,120,9782.599999964237,390054.6999999881,7092,yes,SM,A,105.bmp,-120,-120,310754,304737,312772,306740,389828.0,383811.0,391846.0,385814.0,3
3,0,0,1,0,2,test,1,0,m,Thu Mar 27 2025 15:04:27 GMT-0500 (Central Daylight Time),409067.6999999881,O,z,1174,4,1,109.bmp,-120,-120,110.bmp,120,-120,111.bmp,-120,120,112.bmp,120,120,9216.400000035763,399851.2999999523,7092,no,SM,A,109.bmp,-120,120,310754,304737,312772,306740,399625.0,393608.0,401642.0,395611.0,4
2,0,1,0,0,2,test,1,0,z,Thu Mar 27 2025 15:04:27 GMT-0500 (Central Daylight Time),419131.1999999881,O,None,2015,5,1,113.bmp,-120,-120,114.bmp,120,-120,115.bmp,-120,120,116.bmp,120,120,10050.300000011921,409080.89999997616,7092,yes,SM,A,114.bmp,120,-120,310754,304737,312772,306740,408855.0,402838.0,410872.0,404841.0,5
3,0,0,1,0,2,test,1,0,z,Thu Mar 27 2025 15:04:27 GMT-0500 (Central Daylight Time),429194.89999997616,O,None,2014,6,1,117.bmp,-120,-120,118.bmp,120,-120,119.bmp,-120,120,120.bmp,120,120,10051.100000023842,419143.7999999523,7092,yes,SM,A,119.bmp,-120,120,310754,304737,312772,306740,418919.0,412900.0,420936.0,414905.0,6
4,0,0,0,1,3,test,1,1,z,Thu Mar 27 2025 15:04:27 GMT-0500 (Central Daylight Time),438624.5,O,z,1360,7,1,121.bmp,-120,-120,122.bmp,120,-120,123.bmp,-120,120,124.bmp,120,120,9415.600000023842,429208.89999997616,7092,yes,SM,A,124.bmp,120,120,310754,304737,312772,306740,428999.0,422966.0,431016.0,424984.0,7
2,0,1,0,0,4,test,1,1,m,Thu Mar 27 2025 15:04:27 GMT-0500 (Central Daylight Time),448357.2999999523,O,m,1682,8,1,125.bmp,-120,-120,126.bmp,120,-120,127.bmp,-120,120,128.bmp,120,120,9719.899999976158,438637.39999997616,7092,no,SM,A,125.bmp,120,-120,310754,304737,312772,306740,438412.0,432394.0,440430.0,434398.0,8
3,0,0,1,0,5,test,1,1,m,Thu Mar 27 2025 15:04:27 GMT-0500 (Central Daylight Time),457801.6999999881,O,m,1376,9,1,129.bmp,-120,-120,130.bmp,120,-120,131.bmp,-120,120,132.bmp,120,120,9431.199999988079,448370.5,7092,no,SM,A,130.bmp,-120,120,310754,304737,312772,306740,448159.0,442127.0,450176.0,444145.0,9
4,0,0,0,1,5,test,1,0,z,Thu Mar 27 2025 15:04:27 GMT-0500 (Central Daylight Time),467882.0,O,None,2015,10,1,137.bmp,-120,-120,138.bmp,120,-120,139.bmp,-120,120,140.bmp,120,120,10066.0,457816.0,7092,yes,SM,A,140.bmp,120,120,310754,304737,312772,306740,457606.0,451573.0,459623.0,453592.0,10
3,0,0,1,0,5,test,1,0,z,Thu Mar 27 2025 15:04:27 GMT-0500 (Central Daylight Time),477861.5,O,m,1913,11,1,133.bmp,-120,-120,134.bmp,120,-120,135.bmp,-120,120,136.bmp,120,120,9965.100000023842,467896.39999997616,7092,yes,SM,A,135.bmp,-120,120,310754,304737,312772,306740,467686.0,461653.0,469703.0,463672.0,11
2,0,1,0,0,5,test,1,0,m,Thu Mar 27 2025 15:04:27 GMT-0500 (Central Daylight Time),487275.5,O,z,1349,12,1,141.bmp,-120,-120,142.bmp,120,-120,143.bmp,-120,120,144.bmp,120,120,9400.700000047684,477874.7999999523,7092,no,SM,A,141.bmp,120,-120,310754,304737,312772,306740,477649.0,471631.0,479666.0,473635.0,12
3,0,0,1,0,5,test,1,0,m,Thu Mar 27 2025 15:04:27 GMT-0500 (Central Daylight Time),496572.2999999523,O,z,1240,13,1,145.bmp,-120,-120,146.bmp,120,-120,147.bmp,-120,120,148.bmp,120,120,9284.099999964237,487288.1999999881,7092,no,SM,A,146.bmp,-120,120,310754,304737,312772,306740,487063.0,481045.0,489080.0,483049.0,13
1,1,0,0,0,6,test,1,1,z,Thu Mar 27 2025 15:04:27 GMT-0500 (Central Daylight Time),505669.09999996424,O,z,1048,14,1,149.bmp,-120,-120,150.bmp,120,-120,104.bmp,-120,120,101.bmp,120,120,9083.199999988079,496585.89999997616,7092,yes,SM,A,149.bmp,-120,-120,310754,304737,312772,306740,496360.0,490343.0,498377.0,492346.0,14
4,0,0,0,1,6,test,1,0,m,Thu Mar 27 2025 15:04:27 GMT-0500 (Central Daylight Time),515732.7999999523,O,None,2015,15,1,110.bmp,-120,-120,111.bmp,120,-120,112.bmp,-120,120,113.bmp,120,120,10050.699999988079,505682.09999996424,7092,no,SM,A,111.bmp,120,120,310754,304737,312772,306740,505457.0,499439.0,507474.0,501443.0,15
1,1,0,0,0,7,test,1,1,m,Thu Mar 27 2025 15:04:27 GMT-0500 (Central Daylight Time),525146.0,O,m,1355,16,1,102.bmp,-120,-120,103.bmp,120,-120,104.bmp,-120,120,105.bmp,120,120,9400.0,515746.0,7092,no,SM,A,105.bmp,-120,-120,310754,304737,312772,306740,515520.0,509503.0,517541.0,511506.0,16
3,0,0,1,0,8,test,1,1,m,Thu Mar 27 2025 15:04:27 GMT-0500 (Central Daylight Time),534477.1999999881,O,m,1281,17,1,122.bmp,-120,-120,123.bmp,120,-120,124.bmp,-120,120,125.bmp,120,120,9318.699999988079,525158.5,7092,no,SM,A,122.bmp,-120,120,310754,304737,312772,306740,524934.0,518915.0,526951.0,520919.0,17
1,1,0,0,0,9,test,1,1,z,Thu Mar 27 2025 15:04:27 GMT-0500 (Central Daylight Time),543989.8999999762,O,z,1446,18,1,106.bmp,-120,-120,107.bmp,120,-120,108.bmp,-120,120,109.bmp,120,120,9499.0,534490.8999999762,7092,yes,SM,A,106.bmp,-120,-120,310754,304737,312772,306740,534281.0,528248.0,536298.0,530266.0,18
2,0,1,0,0,10,test,1,1,z,Thu Mar 27 2025 15:04:27 GMT-0500 (Central Daylight Time),552920.0999999642,O,z,836,19,1,126.bmp,-120,-120,127.bmp,120,-120,128.bmp,-120,120,129.bmp,120,120,8887.199999988079,544032.8999999762,7092,yes,SM,A,127.bmp,120,-120,310754,304737,312772,306740,543811.0,537790.0,545828.0,539797.0,19
3,0,0,1,0,11,test,1,1,z,Thu Mar 27 2025 15:04:27 GMT-0500 (Central Daylight Time),562534.0,O,z,1555,20,1,130.bmp,-120,-120,131.bmp,120,-120,132.bmp,-120,120,133.bmp,120,120,9605.700000047684,552928.2999999523,7092,yes,SM,A,132.bmp,-120,120,310754,304737,312772,306740,552708.0,546685.0,554725.0,548694.0,20
1,1,0,0,0,12,test,1,1,m,Thu Mar 27 2025 15:04:27 GMT-0500 (Central Daylight Time),571647.5999999642,O,m,1061,21,1,114.bmp,-120,-120,115.bmp,120,-120,116.bmp,-120,120,117.bmp,120,120,9101.099999964237,562546.5,7092,no,SM,A,116.bmp,-120,-120,310754,304737,312772,306740,562321.0,556303.0,564338.0,558307.0,21
4,0,0,0,1,13,test,1,1,z,Thu Mar 27 2025 15:04:27 GMT-0500 (Central Daylight Time),581077.3999999762,O,z,1380,22,1,118.bmp,-120,-120,119.bmp,120,-120,120.bmp,-120,120,121.bmp,120,120,9417.600000023842,571659.7999999523,7092,yes,SM,A,121.bmp,120,120,310754,304737,312772,306740,571435.0,565416.0,573452.0,567421.0,22
1,1,0,0,0,14,test,1,1,m,Thu Mar 27 2025 15:04:27 GMT-0500 (Central Daylight Time),590358.0999999642,O,m,1231,23,1,134.bmp,-120,-120,135.bmp,120,-120,136.bmp,-120,120,137.bmp,120,120,9267.5,581090.5999999642,7092,no,SM,A,137.bmp,-120,-120,310754,304737,312772,306740,580865.0,574847.0,582883.0,576851.0,23
2,0,1,0,0,14,test,1,0,z,Thu Mar 27 2025 15:04:27 GMT-0500 (Central Daylight Time),599871.5999999642,O,m,1453,24,1,142.bmp,-120,-120,143.bmp,120,-120,144.bmp,-120,120,145.bmp,120,120,9499.599999964237,590372.0,7092,yes,SM,A,143.bmp,120,-120,310754,304737,312772,306740,590146.0,584129.0,592163.0,586131.0,24
4,0,0,0,1,15,test,1,1,m,Thu Mar 27 2025 15:04:27 GMT-0500 (Central Daylight Time),609218.5999999642,O,m,1292,25,1,146.bmp,-120,-120,147.bmp,120,-120,148.bmp,-120,120,149.bmp,120,120,9333.599999964237,599885.0,7092,no,SM,A,148.bmp,120,120,310754,304737,312772,306740,599659.0,593642.0,601676.0,595644.0,25
1,1,0,0,0,16,test,1,1,z,Thu Mar 27 2025 15:04:27 GMT-0500 (Central Daylight Time),618382.1999999881,O,z,1080,26,1,138.bmp,-120,-120,139.bmp,120,-120,140.bmp,-120,120,141.bmp,120,120,9127.0,609255.1999999881,7092,yes,SM,A,138.bmp,-120,-120,310754,304737,312772,306740,609040.0,603012.0,611056.0,605025.0,26
4,0,0,0,1,17,test,1,1,z,Thu Mar 27 2025 15:04:27 GMT-0500 (Central Daylight Time),627862.3999999762,O,z,1421,27,1,150.bmp,-120,-120,111.bmp,120,-120,101.bmp,-120,120,102.bmp,120,120,9467.0,618395.3999999762,7092,yes,SM,A,102.bmp,120,120,310754,304737,312772,306740,618170.0,612152.0,620187.0,614155.0,27
3,0,0,1,0,18,test,1,1,m,Thu Mar 27 2025 15:04:27 GMT-0500 (Central Daylight Time),637309.5,O,m,1389,28,1,103.bmp,-120,-120,104.bmp,120,-120,105.bmp,-120,120,106.bmp,120,120,9435.0,627874.5,7092,no,SM,A,103.bmp,-120,120,310754,304737,312772,306740,627650.0,621631.0,629667.0,623636.0,28
2,0,1,0,0,19,test,1,1,z,Thu Mar 27 2025 15:04:27 GMT-0500 (Central Daylight Time),646739.5,O,z,1365,29,1,107.bmp,-120,-120,108.bmp,120,-120,109.bmp,-120,120,110.bmp,120,120,9416.5,637323.0,7092,yes,SM,A,108.bmp,120,-120,310754,304737,312772,306740,637097.0,631080.0,639115.0,633083.0,29
3,0,0,1,0,20,test,1,1,z,Thu Mar 27 2025 15:04:27 GMT-0500 (Central Daylight Time),656052.8999999762,O,z,1264,30,1,111.bmp,-120,-120,112.bmp,120,-120,113.bmp,-120,120,114.bmp,120,120,9299.699999988079,646753.1999999881,7092,yes,SM,A,113.bmp,-120,120,310754,304737,312772,306740,646526.0,640510.0,648544.0,642511.0,30
1,1,0,0,0,21,test,1,1,z,Thu Mar 27 2025 15:04:27 GMT-0500 (Central Daylight Time),665083.5,O,z,966,31,1,115.bmp,-120,-120,116.bmp,120,-120,117.bmp,-120,120,118.bmp,120,120,9017.800000011921,656065.6999999881,7092,yes,SM,A,115.bmp,-120,-120,310754,304737,312772,306740,655841.0,649822.0,657858.0,651826.0,31
2,0,1,0,0,22,test,1,1,m,Thu Mar 27 2025 15:04:27 GMT-0500 (Central Daylight Time),674147.3999999762,O,m,1008,32,1,119.bmp,-120,-120,120.bmp,120,-120,121.bmp,-120,120,122.bmp,120,120,9051.800000011921,665095.5999999642,7092,no,SM,A,119.bmp,120,-120,310754,304737,312772,306740,664871.0,658852.0,666888.0,660857.0,32
4,0,0,0,1,23,test,1,1,z,Thu Mar 27 2025 15:04:27 GMT-0500 (Central Daylight Time),683327.2999999523,O,z,1128,33,1,131.bmp,-120,-120,132.bmp,120,-120,133.bmp,-120,120,134.bmp,120,120,9167.299999952316,674160.0,7092,yes,SM,A,134.bmp,120,120,310754,304737,312772,306740,673935.0,667917.0,675952.0,669920.0,33
2,0,1,0,0,24,test,1,1,z,Thu Mar 27 2025 15:04:27 GMT-0500 (Central Daylight Time),693191.0,O,z,1803,34,1,123.bmp,-120,-120,124.bmp,120,-120,125.bmp,-120,120,126.bmp,120,120,9850.700000047684,683340.2999999523,7092,yes,SM,A,124.bmp,120,-120,310754,304737,312772,306740,683116.0,677097.0,685133.0,679101.0,34
4,0,0,0,1,25,test,1,1,m,Thu Mar 27 2025 15:04:27 GMT-0500 (Central Daylight Time),702421.1999999881,O,m,1172,35,1,127.bmp,-120,-120,128.bmp,120,-120,129.bmp,-120,120,130.bmp,120,120,9217.199999988079,693204.0,7092,no,SM,A,129.bmp,120,120,310754,304737,312772,306740,692979.0,686961.0,694996.0,688964.0,35
3,0,0,1,0,26,test,1,1,m,Thu Mar 27 2025 15:04:27 GMT-0500 (Central Daylight Time),712184.8999999762,O,m,1710,36,1,135.bmp,-120,-120,136.bmp,120,-120,137.bmp,-120,120,138.bmp,120,120,9751.199999988079,702433.6999999881,7092,no,SM,A,135.bmp,-120,120,310754,304737,312772,306740,702209.0,696190.0,704226.0,698194.0,36
1,1,0,0,0,27,test,1,1,m,Thu Mar 27 2025 15:04:27 GMT-0500 (Central Daylight Time),721298.3999999762,O,m,1059,37,1,139.bmp,-120,-120,140.bmp,120,-120,141.bmp,-120,120,142.bmp,120,120,9100.699999988079,712197.6999999881,7092,no,SM,A,140.bmp,-120,-120,310754,304737,312772,306740,711972.0,705954.0,713989.0,707958.0,37
2,0,1,0,0,28,test,1,1,m,Thu Mar 27 2025 15:04:27 GMT-0500 (Central Daylight Time),730478.7999999523,O,m,1119,38,1,143.bmp,-120,-120,144.bmp,120,-120,145.bmp,-120,120,146.bmp,120,120,9168.399999976158,721310.3999999762,7092,no,SM,A,145.bmp,120,-120,310754,304737,312772,306740,721086.0,715067.0,723105.0,717072.0,38
4,0,0,0,1,28,test,1,0,z,Thu Mar 27 2025 15:04:27 GMT-0500 (Central Daylight Time),739675.6999999881,O,m,1141,39,1,147.bmp,-120,-120,148.bmp,120,-120,149.bmp,-120,120,150.bmp,120,120,9186.300000011921,730489.3999999762,7092,yes,SM,A,150.bmp,120,120,310754,304737,312772,306740,730266.0,724246.0,732283.0,726252.0,39
3,0,0,1,0,29,test,1,1,m,Thu Mar 27 2025 15:04:27 GMT-0500 (Central Daylight Time),748855.8999999762,O,m,1128,40,1,104.bmp,-120,-120,105.bmp,120,-120,106.bmp,-120,120,107.bmp,120,120,9167.199999988079,739688.6999999881,7092,no,SM,A,105.bmp,-120,120,310754,304737,312772,306740,739464.0,733446.0,741480.0,735449.0,40
1,1,0,0,0,29,test,1,0,z,Thu Mar 27 2025 15:04:27 GMT-0500 (Central Daylight Time),757935.5999999642,O,m,1027,41,1,108.bmp,-120,-120,109.bmp,120,-120,110.bmp,-120,120,111.bmp,120,120,9067.399999976158,748868.1999999881,7092,yes,SM,A,108.bmp,-120,-120,310754,304737,312772,306740,748644.0,742625.0,750661.0,744629.0,41
4,0,0,0,1,29,test,1,0,z,Thu Mar 27 2025 15:04:27 GMT-0500 (Central Daylight Time),767033.2999999523,O,m,1043,42,1,112.bmp,-120,-120,113.bmp,120,-120,114.bmp,-120,120,115.bmp,120,120,9091.199999988079,757942.0999999642,7092,yes,SM,A,115.bmp,120,120,310754,304737,312772,306740,757724.0,751698.0,759741.0,753709.0,42
1,1,0,0,0,29,test,1,0,z,Thu Mar 27 2025 15:04:27 GMT-0500 (Central Daylight Time),776163.5999999642,O,m,1074,43,1,116.bmp,-120,-120,117.bmp,120,-120,118.bmp,-120,120,119.bmp,120,120,9117.800000011921,767045.7999999523,7092,yes,SM,A,116.bmp,-120,-120,310754,304737,312772,306740,766821.0,760802.0,768838.0,762806.0,43
4,0,0,0,1,30,test,1,1,m,Thu Mar 27 2025 15:04:27 GMT-0500 (Central Daylight Time),785876.8999999762,O,m,1664,44,1,104.bmp,-120,-120,101.bmp,120,-120,102.bmp,-120,120,103.bmp,120,120,9700.399999976158,776176.5,7092,no,SM,A,104.bmp,120,120,310754,304737,312772,306740,775952.0,769933.0,777968.0,771937.0,44
1,1,0,0,0,31,test,1,1,m,Thu Mar 27 2025 15:04:27 GMT-0500 (Central Daylight Time),795524.0999999642,O,m,1590,45,1,128.bmp,-120,-120,129.bmp,120,-120,130.bmp,-120,120,131.bmp,120,120,9635.399999976158,785888.6999999881,7092,no,SM,A,131.bmp,-120,-120,310754,304737,312772,306740,785665.0,779645.0,787682.0,781650.0,45
1,1,0,0,0,32,test,1,1,m,Thu Mar 27 2025 15:04:27 GMT-0500 (Central Daylight Time),805237.0999999642,O,m,1663,46,1,120.bmp,-120,-120,121.bmp,120,-120,122.bmp,-120,120,123.bmp,120,120,9700.099999964237,795537.0,7092,no,SM,A,121.bmp,-120,-120,310754,304737,312772,306740,795311.0,789294.0,797328.0,791297.0,46
3,0,0,1,0,33,test,1,1,z,Thu Mar 27 2025 15:04:27 GMT-0500 (Central Daylight Time),814451.0999999642,O,z,1150,47,1,124.bmp,-120,-120,125.bmp,120,-120,126.bmp,-120,120,127.bmp,120,120,9201.800000011921,805249.2999999523,7092,yes,SM,A,126.bmp,-120,120,310754,304737,312772,306740,805025.0,799006.0,807042.0,801011.0,47
3,0,0,1,0,34,test,1,1,z,Thu Mar 27 2025 15:04:27 GMT-0500 (Central Daylight Time),823948.5999999642,O,z,1448,48,1,140.bmp,-120,-120,141.bmp,120,-120,142.bmp,-120,120,143.bmp,120,120,9485.800000011921,814462.7999999523,7092,yes,SM,A,142.bmp,-120,120,310754,304737,312772,306740,814238.0,808219.0,816256.0,810224.0,48
2,0,1,0,0,35,test,1,1,z,Thu Mar 27 2025 15:04:27 GMT-0500 (Central Daylight Time),833877.6999999881,O,z,1879,49,1,136.bmp,-120,-120,137.bmp,120,-120,138.bmp,-120,120,139.bmp,120,120,9916.900000035763,823960.7999999523,7092,yes,SM,A,137.bmp,120,-120,310754,304737,312772,306740,823736.0,817718.0,825753.0,819721.0,49
3,0,0,1,0,36,test,1,1,m,Thu Mar 27 2025 15:04:27 GMT-0500 (Central Daylight Time),843008.3999999762,O,m,1069,50,1,132.bmp,-120,-120,133.bmp,120,-120,134.bmp,-120,120,135.bmp,120,120,9117.899999976158,833890.5,7092,no,SM,A,132.bmp,-120,120,310754,304737,312772,306740,833666.0,827647.0,835683.0,829651.0,50
2,0,1,0,0,36,test,1,0,z,Thu Mar 27 2025 15:04:27 GMT-0500 (Central Daylight Time),852588.5999999642,O,m,1523,51,1,144.bmp,-120,-120,145.bmp,120,-120,146.bmp,-120,120,147.bmp,120,120,9568.800000011921,843019.7999999523,7092,yes,SM,A,145.bmp,120,-120,310754,304737,312772,306740,842796.0,836777.0,844813.0,838781.0,51
4,0,0,0,1,37,test,1,1,m,Thu Mar 27 2025 15:04:27 GMT-0500 (Central Daylight Time),861635.7999999523,O,m,983,52,1,148.bmp,-120,-120,149.bmp,120,-120,150.bmp,-120,120,131.bmp,120,120,9033.899999976158,852601.8999999762,7092,no,SM,A,148.bmp,120,120,310754,304737,312772,306740,852376.0,846359.0,854393.0,848363.0,52
3,0,0,1,0,38,test,1,1,z,Thu Mar 27 2025 15:04:27 GMT-0500 (Central Daylight Time),870749.1999999881,O,z,1056,53,1,101.bmp,-120,-120,102.bmp,120,-120,103.bmp,-120,120,104.bmp,120,120,9101.0,861648.1999999881,7092,yes,SM,A,103.bmp,-120,120,310754,304737,312772,306740,861423.0,855405.0,863440.0,857409.0,53
1,1,0,0,0,39,test,1,1,m,Thu Mar 27 2025 15:04:27 GMT-0500 (Central Daylight Time),880546.2999999523,O,m,1742,54,1,105.bmp,-120,-120,106.bmp,120,-120,107.bmp,-120,120,108.bmp,120,120,9784.799999952316,870761.5,7092,no,SM,A,107.bmp,-120,-120,310754,304737,312772,306740,870537.0,864518.0,872554.0,866521.0,54
4,0,0,0,1,39,test,1,0,z,Thu Mar 27 2025 15:04:27 GMT-0500 (Central Daylight Time),889925.3999999762,O,m,1320,55,1,109.bmp,-120,-120,110.bmp,120,-120,111.bmp,-120,120,112.bmp,120,120,9366.0,880559.3999999762,7092,yes,SM,A,112.bmp,120,120,310754,304737,312772,306740,880334.0,874316.0,882351.0,876319.0,55
2,0,1,0,0,40,test,1,1,m,Thu Mar 27 2025 15:04:27 GMT-0500 (Central Daylight Time),899106.6999999881,O,m,1125,56,1,113.bmp,-120,-120,114.bmp,120,-120,115.bmp,-120,120,116.bmp,120,120,9177.300000011921,889929.3999999762,7092,no,SM,A,113.bmp,120,-120,310754,304737,312772,306740,889714.0,883686.0,891731.0,885699.0,56
4,0,0,0,1,41,test,1,1,m,Thu Mar 27 2025 15:04:27 GMT-0500 (Central Daylight Time),908037.3999999762,O,m,882,57,1,117.bmp,-120,-120,118.bmp,120,-120,119.bmp,-120,120,120.bmp,120,120,8919.100000023842,899118.2999999523,7092,no,SM,A,118.bmp,120,120,310754,304737,312772,306740,898894.0,892875.0,900911.0,894880.0,57
3,0,0,1,0,41,test,1,0,z,Thu Mar 27 2025 15:04:27 GMT-0500 (Central Daylight Time),917500.5999999642,O,m,1406,58,1,121.bmp,-120,-120,122.bmp,120,-120,123.bmp,-120,120,124.bmp,120,120,9451.199999988079,908049.3999999762,7092,yes,SM,A,123.bmp,-120,120,310754,304737,312772,306740,907825.0,901806.0,909842.0,903810.0,58
2,0,1,0,0,41,test,1,0,m,Thu Mar 27 2025 15:04:27 GMT-0500 (Central Daylight Time),926964.8999999762,O,z,1415,59,1,125.bmp,-120,-120,126.bmp,120,-120,127.bmp,-120,120,128.bmp,120,120,9451.800000011921,917513.0999999642,7092,no,SM,A,128.bmp,120,-120,310754,304737,312772,306740,917288.0,911270.0,919305.0,913274.0,59
1,1,0,0,0,41,test,1,0,z,Thu Mar 27 2025 15:04:27 GMT-0500 (Central Daylight Time),936194.3999999762,O,m,1175,60,1,129.bmp,-120,-120,130.bmp,120,-120,131.bmp,-120,120,132.bmp,120,120,9216.399999976158,926978.0,7092,yes,SM,A,129.bmp,-120,-120,310754,304737,312772,306740,926752.0,920735.0,928769.0,922737.0,60
2,0,1,0,0,42,test,1,1,z,Thu Mar 27 2025 15:04:27 GMT-0500 (Central Daylight Time),945774.6999999881,O,z,1521,61,1,133.bmp,-120,-120,134.bmp,120,-120,135.bmp,-120,120,136.bmp,120,120,9568.5,936206.1999999881,7092,yes,SM,A,134.bmp,120,-120,310754,304737,312772,306740,935982.0,929963.0,937999.0,931968.0,61
4,0,0,0,1,43,test,1,1,z,Thu Mar 27 2025 15:04:27 GMT-0500 (Central Daylight Time),955054.7999999523,O,z,1221,62,1,141.bmp,-120,-120,142.bmp,120,-120,143.bmp,-120,120,144.bmp,120,120,9267.899999976158,945786.8999999762,7092,yes,SM,A,144.bmp,120,120,310754,304737,312772,306740,945562.0,939544.0,947579.0,941548.0,62
1,1,0,0,0,44,test,1,1,m,Thu Mar 27 2025 15:04:27 GMT-0500 (Central Daylight Time),964002.0,O,m,892,63,1,145.bmp,-120,-120,146.bmp,120,-120,147.bmp,-120,120,148.bmp,120,120,8933.200000047684,955068.7999999523,7092,no,SM,A,145.bmp,-120,120,310754,304737,312772,306740,954842.0,948825.0,956860.0,950828.0,63
2,0,1,0,0,44,test,1,0,z,Thu Mar 27 2025 15:04:27 GMT-0500 (Central Daylight Time),973298.6999999881,O,m,1241,64,1,149.bmp,-120,-120,150.bmp,120,-120,112.bmp,-120,120,101.bmp,120,120,9284.800000011921,964013.8999999762,7092,yes,SM,A,150.bmp,120,-120,310754,304737,312772,306740,963790.0,957771.0,965807.0,959775.0,64
4,0,0,0,1,45,test,1,1,m,Thu Mar 27 2025 15:04:27 GMT-0500 (Central Daylight Time),982379.3999999762,O,m,1015,65,1,102.bmp,-120,-120,103.bmp,120,-120,104.bmp,-120,120,105.bmp,120,120,9068.300000011921,973311.0999999642,7092,no,SM,A,104.bmp,120,120,310754,304737,312772,306740,973086.0,967068.0,975105.0,969072.0,65
3,0,0,1,0,46,test,1,1,m,Thu Mar 27 2025 15:04:27 GMT-0500 (Central Daylight Time),991392.8999999762,O,m,935,66,1,106.bmp,-120,-120,107.bmp,120,-120,108.bmp,-120,120,109.bmp,120,120,8998.699999988079,982394.1999999881,7092,no,SM,A,109.bmp,-120,120,310754,304737,312772,306740,982183.0,976151.0,984201.0,978169.0,66
2,0,1,0,0,47,test,1,1,m,Thu Mar 27 2025 15:04:27 GMT-0500 (Central Daylight Time),1000723.1999999881,O,m,1258,67,1,137.bmp,-120,-120,138.bmp,120,-120,139.bmp,-120,120,140.bmp,120,120,9315.100000023842,991408.0999999642,7092,no,SM,A,139.bmp,120,-120,310754,304737,312772,306740,991197.0,985165.0,993214.0,987183.0,67
3,0,0,1,0,48,test,1,1,z,Thu Mar 27 2025 15:04:27 GMT-0500 (Central Daylight Time),1010136.7999999523,O,z,1344,68,1,110.bmp,-120,-120,111.bmp,120,-120,112.bmp,-120,120,113.bmp,120,120,9398.299999952316,1000738.5,7092,yes,SM,A,112.bmp,-120,120,310754,304737,312772,306740,1000527.0,994495.0,1002544.0,996513.0,68
1,1,0,0,0,49,test,1,1,m,Thu Mar 27 2025 15:04:27 GMT-0500 (Central Daylight Time),1019250.3999999762,O,m,1050,69,1,114.bmp,-120,-120,115.bmp,120,-120,116.bmp,-120,120,117.bmp,120,120,9100.899999976158,1010149.5,7092,no,SM,A,115.bmp,-120,-120,310754,304737,312772,306740,1009924.0,1003906.0,1011942.0,1005910.0,69
2,0,1,0,0,50,test,1,1,m,Thu Mar 27 2025 15:04:27 GMT-0500 (Central Daylight Time),1028447.3999999762,O,m,1137,70,1,118.bmp,-120,-120,119.bmp,120,-120,120.bmp,-120,120,121.bmp,120,120,9185.0,1019262.3999999762,7092,no,SM,A,120.bmp,120,-120,310754,304737,312772,306740,1019038.0,1013019.0,1021055.0,1015024.0,70
4,0,0,0,1,50,test,1,0,z,Thu Mar 27 2025 15:04:27 GMT-0500 (Central Daylight Time),1037361.0999999642,O,m,861,71,1,122.bmp,-120,-120,123.bmp,120,-120,124.bmp,-120,120,125.bmp,120,120,8901.399999976158,1028459.6999999881,7092,yes,SM,A,125.bmp,120,120,310754,304737,312772,306740,1028235.0,1022216.0,1030252.0,1024221.0,71
1,1,0,0,0,51,test,1,1,z,Thu Mar 27 2025 15:04:27 GMT-0500 (Central Daylight Time),1046491.5,O,z,1066,72,1,126.bmp,-120,-120,127.bmp,120,-120,128.bmp,-120,120,129.bmp,120,120,9118.100000023842,1037373.3999999762,7092,yes,SM,A,126.bmp,-120,-120,310754,304737,312772,306740,1037148.0,1031130.0,1039166.0,1033134.0,72
2,0,1,0,0,51,test,1,0,z,Thu Mar 27 2025 15:04:27 GMT-0500 (Central Daylight Time),1055771.7999999523,O,m,1217,73,1,130.bmp,-120,-120,131.bmp,120,-120,132.bmp,-120,120,133.bmp,120,120,9267.799999952316,1046504.0,7092,yes,SM,A,131.bmp,120,-120,310754,304737,312772,306740,1046279.0,1040261.0,1048296.0,1042265.0,73
4,0,0,0,1,52,test,1,1,m,Thu Mar 27 2025 15:04:27 GMT-0500 (Central Daylight Time),1064885.3999999762,O,m,1063,74,1,134.bmp,-120,-120,135.bmp,120,-120,136.bmp,-120,120,137.bmp,120,120,9101.0,1055784.3999999762,7092,no,SM,A,136.bmp,120,120,310754,304737,312772,306740,1055559.0,1049541.0,1057577.0,1051545.0,74
2,0,1,0,0,53,test,1,1,m,Thu Mar 27 2025 15:04:27 GMT-0500 (Central Daylight Time),1074099.0,O,m,1158,75,1,138.bmp,-120,-120,139.bmp,120,-120,140.bmp,-120,120,141.bmp,120,120,9201.800000011921,1064897.199999988,7092,no,SM,A,141.bmp,120,-120,310754,304737,312772,306740,1064672.0,1058654.0,1066690.0,1060659.0,75
1,1,0,0,0,53,test,1,0,z,Thu Mar 27 2025 15:04:27 GMT-0500 (Central Daylight Time),1083112.7999999523,O,m,962,76,1,142.bmp,-120,-120,143.bmp,120,-120,144.bmp,-120,120,145.bmp,120,120,9001.299999952316,1074111.5,7092,yes,SM,A,142.bmp,-120,-120,310754,304737,312772,306740,1073886.0,1067868.0,1075902.0,1069872.0,76
3,0,0,1,0,53,test,1,0,z,Thu Mar 27 2025 15:04:27 GMT-0500 (Central Daylight Time),1092143.199999988,O,m,970,77,1,150.bmp,-120,-120,111.bmp,120,-120,101.bmp,-120,120,102.bmp,120,120,9018.699999988079,1083124.5,7092,yes,SM,A,101.bmp,-120,120,310754,304737,312772,306740,1082900.0,1076881.0,1084917.0,1078886.0,77
1,1,0,0,0,54,test,1,1,m,Thu Mar 27 2025 15:04:27 GMT-0500 (Central Daylight Time),1101123.8999999762,O,m,924,78,1,146.bmp,-120,-120,147.bmp,120,-120,148.bmp,-120,120,149.bmp,120,120,8969.100000023842,1092154.7999999523,7092,no,SM,A,147.bmp,-120,-120,310754,304737,312772,306740,1091931.0,1085912.0,1093948.0,1087916.0,78
4,0,0,0,1,55,test,1,1,m,Thu Mar 27 2025 15:04:27 GMT-0500 (Central Daylight Time),1110387.5999999642,O,m,1200,79,1,107.bmp,-120,-120,108.bmp,120,-120,109.bmp,-120,120,110.bmp,120,120,9251.199999988079,1101136.3999999762,7092,no,SM,A,107.bmp,120,120,310754,304737,312772,306740,1100911.0,1094893.0,1102928.0,1096897.0,79
3,0,0,1,0,56,test,1,1,m,Thu Mar 27 2025 15:04:27 GMT-0500 (Central Daylight Time),1119683.8999999762,O,m,1234,80,1,103.bmp,-120,-120,104.bmp,120,-120,105.bmp,-120,120,106.bmp,120,120,9284.899999976158,1110399.0,7092,no,SM,A,106.bmp,-120,120,310754,304737,312772,306740,1110175.0,1104156.0,1112190.0,1106160.0,80
