acc_sum,block,block_c,condition,correct,correct_response,datetime,endtime,flanker,jitter,project,response,response_test_buffer_response,response_test_target_response,response_time,response_time_test_buffer_response,response_time_test_target_response,row_sel,session_number,start_end,starttime,subject_id,target,task,task_vers,time_test_buffer,time_test_buffer_response,time_test_constants,time_test_flanker,time_test_jitter,time_test_logger,time_test_target,time_test_target_response,time_test_variables,trial
0,prac,1,inc,0,z,Mon Mar 17 2025 15:05:38 GMT-0500 (Central Daylight Time),87060.30000001192,film,900,O,m,,,804,,,14,1,3011.5,84048.80000001192,7085,hate,AF,A,,,,,,,,,,1
1,prac,1,inc,1,m,Mon Mar 17 2025 15:05:38 GMT-0500 (Central Daylight Time),90042.5,elated,900,O,m,,,780,,,6,1,2977.300000011921,87065.19999998808,7085,napkin,AF,A,,,,,,,,,,2
2,prac,1,con,1,z,Mon Mar 17 2025 15:05:38 GMT-0500 (Central Daylight Time),92858.59999999404,love,1000,O,z,,,506,,,11,1,2811.199999988079,90047.40000000596,7085,love,AF,A,,,,,,,,,,3
2,prac,1,inc,0,z,Mon Mar 17 2025 15:05:38 GMT-0500 (Central Daylight Time),95841.0,window,1100,O,m,,,567,,,16,1,2977.800000011921,92863.19999998808,7085,temper,AF,A,,,,,,,,,,4
3,prac,1,con,1,z,Mon Mar 17 2025 15:05:38 GMT-0500 (Central Daylight Time),98723.69999998808,rage,1000,O,z,,,572,,,15,1,2877.7999999821186,95845.90000000596,7085,rage,AF,A,,,,,,,,,,5
4,prac,1,inc,1,z,Mon Mar 17 2025 15:05:38 GMT-0500 (Central Daylight Time),101772.19999998808,rock,900,O,z,,,837,,,10,1,3043.899999976158,98728.30000001192,7085,kind,AF,A,,,,,,,,,,6
5,prac,1,inc,1,m,Mon Mar 17 2025 15:05:38 GMT-0500 (Central Daylight Time),104904.90000000596,brutal,1100,O,m,,,716,,,8,1,3128.0999999940395,101776.80000001192,7085,window,AF,A,,,,,,,,,,7
6,prac,1,con,1,z,Mon Mar 17 2025 15:05:38 GMT-0500 (Central Daylight Time),107969.80000001192,brutal,800,O,z,,,963,,,13,1,3060.800000011921,104909.0,7085,brutal,AF,A,,,,,,,,,,8
7,prac,1,con,1,m,Mon Mar 17 2025 15:05:38 GMT-0500 (Central Daylight Time),110769.5,jacket,800,O,m,,,697,,,5,1,2794.9000000059605,107974.59999999404,7085,jacket,AF,A,,,,,,,,,,9
8,prac,1,con,1,m,Mon Mar 17 2025 15:05:38 GMT-0500 (Central Daylight Time),113886.90000000596,bell,1000,O,m,,,810,,,3,1,3112.5,110774.40000000596,7085,bell,AF,A,,,,,,,,,,10
9,prac,1,con,1,m,Mon Mar 17 2025 15:05:38 GMT-0500 (Central Daylight Time),116701.09999999404,step,800,O,m,,,611,,,1,1,2808.9000000059605,113892.19999998808,7085,step,AF,A,,,,,,,,,,11
9,prac,1,inc,0,z,Mon Mar 17 2025 15:05:38 GMT-0500 (Central Daylight Time),120166.40000000596,napkin,1100,O,m,,,1052,,,12,1,3460.5999999940395,116705.80000001192,7085,friend,AF,A,,,,,,,,,,12
10,prac,1,inc,1,m,Mon Mar 17 2025 15:05:38 GMT-0500 (Central Daylight Time),123015.59999999404,kind,900,O,m,,,633,,,2,1,2845.0,120170.59999999404,7085,rock,AF,A,,,,,,,,,,13
11,prac,1,con,1,z,Mon Mar 17 2025 15:05:38 GMT-0500 (Central Daylight Time),125748.30000001192,elated,800,O,z,,,621,,,9,1,2728.300000011921,123020.0,7085,elated,AF,A,,,,,,,,,,14
12,prac,1,con,1,m,Mon Mar 17 2025 15:05:38 GMT-0500 (Central Daylight Time),128748.30000001192,remote,1000,O,m,,,689,,,7,1,2995.7000000178814,125752.59999999404,7085,remote,AF,A,,,,,,,,,,15
13,prac,1,inc,1,m,Mon Mar 17 2025 15:05:38 GMT-0500 (Central Daylight Time),131912.80000001192,hate,1100,O,m,,,766,,,4,1,3160.0,128752.80000001192,7085,film,AF,A,,,,,,,,,,16
1,test,1,inc,1,m,Mon Mar 17 2025 15:05:38 GMT-0500 (Central Daylight Time),144026.0,hate,1100,O,m,m,None,634,434.0,200.0,88,1,2279.5999999940395,141746.40000000596,7085,bell,AF,A,140436,140436,138606,139720,138607,140886,140236,140236,140886,1
2,test,1,con,1,z,Mon Mar 17 2025 15:05:38 GMT-0500 (Central Daylight Time),146308.19999998808,kind,1000,O,z,z,None,746,547.0,199.0,11,1,2277.699999988079,144030.5,7085,kind,AF,A,142619,142619,140891,141903,140891,143168,142419,142419,143168,2
3,test,1,con,1,m,Mon Mar 17 2025 15:05:38 GMT-0500 (Central Daylight Time),148907.40000000596,bell,1100,O,m,m,None,957,756.0,201.0,84,1,2594.5999999940395,146312.80000001192,7085,bell,AF,A,145002,145002,143173,144285,143173,145767,144801,144801,145767,3
4,test,1,con,1,z,Mon Mar 17 2025 15:05:38 GMT-0500 (Central Daylight Time),150823.40000000596,temper,800,O,z,z,None,568,369.0,199.0,57,1,1911.7000000178814,148911.69999998808,7085,temper,AF,A,147301,147301,145772,146584,145772,147684,147101,147101,147683,4
4,test,1,con,0,z,Mon Mar 17 2025 15:05:38 GMT-0500 (Central Daylight Time),153222.59999999404,brutal,1100,O,m,m,None,761,561.0,200.0,36,1,2394.9000000059605,150827.69999998808,7085,brutal,AF,A,149517,149517,147688,148800,147688,150083,149317,149317,150083,5
5,test,1,con,1,m,Mon Mar 17 2025 15:05:38 GMT-0500 (Central Daylight Time),155422.09999999404,rock,1100,O,m,m,None,561,362.0,199.0,76,1,2195.4000000059605,153226.69999998808,7085,rock,AF,A,151916,151916,150087,151199,150087,152282,151716,151716,152282,6
6,test,1,inc,1,z,Mon Mar 17 2025 15:05:38 GMT-0500 (Central Daylight Time),157421.40000000596,step,800,O,z,z,None,652,438.0,214.0,21,1,1994.9000000059605,155426.5,7085,love,AF,A,153832,153832,152287,153099,152287,154281,153617,153617,154281,7
7,test,1,inc,1,m,Mon Mar 17 2025 15:05:38 GMT-0500 (Central Daylight Time),159687.40000000596,friend,1100,O,m,m,None,619,420.0,199.0,104,1,2261.800000011921,157425.59999999404,7085,jacket,AF,A,156114,156114,154286,155399,154286,156547,155915,155915,156547,8
8,test,1,con,1,z,Mon Mar 17 2025 15:05:38 GMT-0500 (Central Daylight Time),162014.5,hate,1100,O,z,z,None,692,477.0,215.0,44,1,2322.800000011921,159691.69999998808,7085,hate,AF,A,158397,158397,156552,157664,156552,158875,158182,158182,158875,9
9,test,1,con,1,m,Mon Mar 17 2025 15:05:38 GMT-0500 (Central Daylight Time),164252.69999998808,rock,900,O,m,m,None,797,597.0,200.0,74,1,2233.7999999821186,162018.90000000596,7085,rock,AF,A,160513,160513,158879,159797,158880,161113,160313,160313,161113,10
9,test,1,con,0,z,Mon Mar 17 2025 15:05:38 GMT-0500 (Central Daylight Time),167001.90000000596,friend,1100,O,m,m,None,1107,908.0,199.0,28,1,2744.5999999940395,164257.30000001192,7085,friend,AF,A,162946,162946,161117,162229,161118,163862,162746,162746,163862,11
10,test,1,con,1,z,Mon Mar 17 2025 15:05:38 GMT-0500 (Central Daylight Time),169784.30000001192,brutal,900,O,z,z,None,1335,1135.0,200.0,34,1,2778.2000000178814,167006.09999999404,7085,brutal,AF,A,165495,165495,163866,164779,163867,166644,165295,165295,166644,12
11,test,1,inc,1,m,Mon Mar 17 2025 15:05:38 GMT-0500 (Central Daylight Time),171983.69999998808,temper,1000,O,m,m,None,653,453.0,200.0,111,1,2195.5999999940395,169788.09999999404,7085,napkin,AF,A,168377,168377,166648,167661,166648,168844,168177,168177,168844,13
12,test,1,con,1,z,Mon Mar 17 2025 15:05:38 GMT-0500 (Central Daylight Time),173933.09999999404,love,1000,O,z,z,None,404,204.0,200.0,19,1,1945.199999988079,171987.90000000596,7085,love,AF,A,170578,170578,168848,169860,168848,170793,170377,170377,170793,14
13,test,1,inc,1,z,Mon Mar 17 2025 15:05:38 GMT-0500 (Central Daylight Time),176098.80000001192,bell,1000,O,z,z,None,632,431.0,201.0,47,1,2161.600000023842,173937.19999998808,7085,hate,AF,A,172527,172527,170797,171810,170798,172959,172326,172326,172959,15
14,test,1,inc,1,m,Mon Mar 17 2025 15:05:38 GMT-0500 (Central Daylight Time),178116.0,rage,800,O,m,m,None,682,482.0,200.0,77,1,2013.0,176103.0,7085,rock,AF,A,174492,174492,172963,173776,172963,174976,174292,174292,174976,16
15,test,1,inc,1,z,Mon Mar 17 2025 15:05:38 GMT-0500 (Central Daylight Time),180280.90000000596,napkin,900,O,z,z,None,726,526.0,200.0,6,1,2160.4000000059605,178120.5,7085,elated,AF,A,176608,176608,174981,175892,174981,177141,176408,176408,177141,17
16,test,1,inc,1,m,Mon Mar 17 2025 15:05:38 GMT-0500 (Central Daylight Time),182814.59999999404,temper,1000,O,m,m,None,995,796.0,199.0,119,1,2529.2999999821186,180285.30000001192,7085,remote,AF,A,178874,178874,177145,178158,177146,179675,178675,178675,179675,18
17,test,1,con,1,m,Mon Mar 17 2025 15:05:38 GMT-0500 (Central Daylight Time),185212.80000001192,jacket,900,O,m,m,None,962,763.0,199.0,98,1,2393.5,182819.30000001192,7085,jacket,AF,A,181307,181307,179679,180590,179680,182073,181107,181107,182073,19
18,test,1,inc,1,z,Mon Mar 17 2025 15:05:38 GMT-0500 (Central Daylight Time),187312.09999999404,jacket,800,O,z,z,None,760,560.0,200.0,61,1,2095.2999999821186,185216.80000001192,7085,temper,AF,A,183606,183606,182077,182890,182077,184172,183406,183406,184172,20
18,test,1,inc,0,z,Mon Mar 17 2025 15:05:38 GMT-0500 (Central Daylight Time),189594.69999998808,jacket,800,O,m,m,None,949,749.0,200.0,29,1,2278.199999988079,187316.5,7085,friend,AF,A,185705,185705,184177,184989,184177,186455,185505,185505,186455,21
19,test,1,con,1,z,Mon Mar 17 2025 15:05:38 GMT-0500 (Central Daylight Time),191993.69999998808,hate,1000,O,z,z,None,857,656.0,201.0,43,1,2393.399999976158,189600.30000001192,7085,hate,AF,A,188190,188190,186460,187471,186461,188854,187988,187988,188854,22
20,test,1,inc,1,m,Mon Mar 17 2025 15:05:38 GMT-0500 (Central Daylight Time),194060.0,rage,800,O,m,m,None,722,523.0,199.0,93,1,2061.800000011921,191998.19999998808,7085,film,AF,A,190387,190387,188858,189671,188859,190920,190188,190188,190920,23
21,test,1,inc,1,z,Mon Mar 17 2025 15:05:38 GMT-0500 (Central Daylight Time),196276.0,napkin,900,O,z,z,None,781,581.0,200.0,38,1,2211.9000000059605,194064.09999999404,7085,brutal,AF,A,192553,192553,190924,191837,190925,193136,192353,192353,193136,24
22,test,1,inc,1,m,Mon Mar 17 2025 15:05:38 GMT-0500 (Central Daylight Time),198741.90000000596,friend,1100,O,m,m,None,821,621.0,200.0,120,1,2462.0999999940395,196279.80000001192,7085,remote,AF,A,194969,194969,193140,194253,193140,195602,194769,194769,195602,25
23,test,1,inc,1,m,Mon Mar 17 2025 15:05:38 GMT-0500 (Central Daylight Time),201108.0,love,1000,O,m,m,None,822,623.0,199.0,87,1,2362.0999999940395,198745.90000000596,7085,bell,AF,A,197335,197335,195606,196618,195606,197968,197135,197135,197968,26
24,test,1,inc,1,z,Mon Mar 17 2025 15:05:38 GMT-0500 (Central Daylight Time),203457.09999999404,window,1100,O,z,z,None,709,509.0,200.0,64,1,2344.9000000059605,201112.19999998808,7085,temper,AF,A,199801,199801,197972,199085,197973,200317,199601,199601,200317,27
25,test,1,inc,1,m,Mon Mar 17 2025 15:05:38 GMT-0500 (Central Daylight Time),205706.59999999404,kind,900,O,m,m,None,800,600.0,200.0,78,1,2245.5,203461.09999999404,7085,rock,AF,A,201950,201950,200321,201234,200321,202567,201750,201750,202567,28
26,test,1,con,1,m,Mon Mar 17 2025 15:05:38 GMT-0500 (Central Daylight Time),207822.30000001192,film,900,O,m,m,None,678,479.0,199.0,90,1,2111.7000000178814,205710.59999999404,7085,film,AF,A,204199,204199,202571,203483,202571,204682,204000,204000,204682,29
27,test,1,inc,1,z,Mon Mar 17 2025 15:05:38 GMT-0500 (Central Daylight Time),209988.19999998808,napkin,900,O,z,z,None,721,522.0,199.0,30,1,2162.0999999940395,207826.09999999404,7085,friend,AF,A,206316,206316,204686,205599,204686,206848,206116,206116,206848,30
28,test,1,con,1,m,Mon Mar 17 2025 15:05:38 GMT-0500 (Central Daylight Time),212071.19999998808,step,900,O,m,m,None,637,437.0,200.0,66,1,2079.0,209992.19999998808,7085,step,AF,A,208481,208481,206852,207765,206853,208931,208281,208281,208931,31
29,test,1,con,1,z,Mon Mar 17 2025 15:05:38 GMT-0500 (Central Daylight Time),214103.69999998808,love,900,O,z,z,None,586,386.0,200.0,18,1,2027.3999999761581,212076.30000001192,7085,love,AF,A,210564,210564,208936,209848,208937,210964,210364,210364,210964,32
30,test,1,con,1,m,Mon Mar 17 2025 15:05:38 GMT-0500 (Central Daylight Time),216069.90000000596,remote,800,O,m,m,None,621,421.0,200.0,113,1,1962.2000000178814,214107.69999998808,7085,remote,AF,A,212497,212497,210968,211780,210968,212930,212297,212297,212930,33
31,test,1,con,1,z,Mon Mar 17 2025 15:05:38 GMT-0500 (Central Daylight Time),218169.0,temper,1000,O,z,z,None,550,351.0,199.0,59,1,2095.5,216073.5,7085,temper,AF,A,214663,214663,212934,213946,212934,215029,214463,214463,215029,34
32,test,1,inc,1,m,Mon Mar 17 2025 15:05:38 GMT-0500 (Central Daylight Time),220602.0,temper,1000,O,m,m,None,883,684.0,199.0,127,1,2428.9000000059605,218173.09999999404,7085,window,AF,A,216762,216762,215033,216046,215033,217462,216563,216563,217462,35
33,test,1,inc,1,z,Mon Mar 17 2025 15:05:38 GMT-0500 (Central Daylight Time),222801.0,bell,1000,O,z,z,None,651,451.0,200.0,15,1,2195.0,220606.0,7085,kind,AF,A,219195,219195,217466,218479,217467,219661,218995,218995,219661,36
34,test,1,con,1,m,Mon Mar 17 2025 15:05:38 GMT-0500 (Central Daylight Time),224966.69999998808,window,1000,O,m,m,None,628,428.0,200.0,123,1,2161.699999988079,222805.0,7085,window,AF,A,221394,221394,219665,220678,219665,221827,221194,221194,221827,37
35,test,1,inc,1,z,Mon Mar 17 2025 15:05:38 GMT-0500 (Central Daylight Time),226966.19999998808,rock,900,O,z,z,None,553,354.0,199.0,46,1,1996.0,224970.19999998808,7085,hate,AF,A,223460,223460,221830,222744,221831,223826,223261,223261,223826,38
36,test,1,con,1,z,Mon Mar 17 2025 15:05:38 GMT-0500 (Central Daylight Time),229232.19999998808,hate,800,O,z,z,None,926,727.0,199.0,41,1,2261.7999999821186,226970.40000000596,7085,hate,AF,A,225359,225359,223830,224643,223831,226092,225160,225160,226092,39
37,test,1,con,1,z,Mon Mar 17 2025 15:05:38 GMT-0500 (Central Daylight Time),231581.69999998808,brutal,1000,O,z,z,None,812,612.0,200.0,35,1,2345.0999999940395,229236.59999999404,7085,brutal,AF,A,227825,227826,226097,227109,226097,228442,227625,227625,228442,40
38,test,1,con,1,z,Mon Mar 17 2025 15:05:38 GMT-0500 (Central Daylight Time),233614.19999998808,rage,800,O,z,z,None,586,386.0,200.0,49,1,2028.5999999940395,231585.59999999404,7085,rage,AF,A,230076,230076,228446,229369,228446,230474,229875,229875,230474,41
39,test,1,inc,1,m,Mon Mar 17 2025 15:05:38 GMT-0500 (Central Daylight Time),236130.0,hate,1100,O,m,m,None,866,667.0,199.0,72,1,2511.5,233618.5,7085,step,AF,A,232307,232307,230479,231591,230479,232990,232108,232108,232990,42
40,test,1,con,1,m,Mon Mar 17 2025 15:05:38 GMT-0500 (Central Daylight Time),238479.59999999404,window,1100,O,m,m,None,703,503.0,200.0,124,1,2345.5999999940395,236134.0,7085,window,AF,A,234823,234823,232994,234107,232994,235340,234623,234623,235340,43
41,test,1,con,1,m,Mon Mar 17 2025 15:05:38 GMT-0500 (Central Daylight Time),240962.09999999404,rock,800,O,m,m,None,1149,950.0,199.0,73,1,2478.5999999940395,238483.5,7085,rock,AF,A,236856,236856,235343,236156,235344,237822,236657,236657,237822,44
42,test,1,con,1,z,Mon Mar 17 2025 15:05:38 GMT-0500 (Central Daylight Time),243178.19999998808,rage,1000,O,z,z,None,683,483.0,200.0,51,1,2212.399999976158,240965.80000001192,7085,rage,AF,A,239555,239555,237826,238839,237826,240038,239355,239355,240038,45
43,test,1,inc,1,z,Mon Mar 17 2025 15:05:38 GMT-0500 (Central Daylight Time),245477.19999998808,window,1100,O,z,z,None,655,455.0,200.0,8,1,2295.399999976158,243181.80000001192,7085,elated,AF,A,241871,241871,240042,241155,240042,242337,241671,241671,242337,46
44,test,1,inc,1,z,Mon Mar 17 2025 15:05:38 GMT-0500 (Central Daylight Time),247809.90000000596,window,1100,O,z,z,None,683,484.0,199.0,32,1,2328.300000011921,245481.59999999404,7085,friend,AF,A,244170,244170,242342,243454,242342,244670,243971,243971,244670,47
45,test,1,inc,1,z,Mon Mar 17 2025 15:05:38 GMT-0500 (Central Daylight Time),250042.19999998808,film,1100,O,z,z,None,582,383.0,199.0,56,1,2228.5999999940395,247813.59999999404,7085,rage,AF,A,246503,246503,244674,245786,244674,246902,246303,246303,246902,48
46,test,1,inc,1,z,Mon Mar 17 2025 15:05:38 GMT-0500 (Central Daylight Time),252025.0,rock,900,O,z,z,None,542,342.0,200.0,22,1,1979.199999988079,250045.80000001192,7085,love,AF,A,248536,248536,246906,247819,246906,248885,248336,248336,248885,49
47,test,1,con,1,z,Mon Mar 17 2025 15:05:38 GMT-0500 (Central Daylight Time),254174.40000000596,love,1100,O,z,z,None,511,312.0,199.0,20,1,2145.5,252028.90000000596,7085,love,AF,A,250718,250718,248889,250002,248889,251034,250519,250519,251034,50
48,test,1,con,1,z,Mon Mar 17 2025 15:05:38 GMT-0500 (Central Daylight Time),256423.69999998808,friend,900,O,z,z,None,809,610.0,199.0,26,1,2245.0999999940395,254178.59999999404,7085,friend,AF,A,252668,252668,251039,251951,251039,253284,252468,252468,253284,51
49,test,1,con,1,m,Mon Mar 17 2025 15:05:38 GMT-0500 (Central Daylight Time),258506.40000000596,window,900,O,m,m,None,641,441.0,200.0,122,1,2078.7000000178814,256427.69999998808,7085,window,AF,A,254917,254917,253288,254201,253288,255366,254717,254717,255366,52
50,test,1,con,1,z,Mon Mar 17 2025 15:05:38 GMT-0500 (Central Daylight Time),260839.0,hate,900,O,z,z,None,893,694.0,199.0,42,1,2328.800000011921,258510.19999998808,7085,hate,AF,A,257000,257000,255370,256283,255371,257699,256800,256800,257699,53
51,test,1,inc,1,m,Mon Mar 17 2025 15:05:38 GMT-0500 (Central Daylight Time),263205.0,brutal,900,O,m,m,None,930,730.0,200.0,102,1,2362.0999999940395,260842.90000000596,7085,jacket,AF,A,259332,259332,257703,258616,257703,260065,259132,259132,260065,54
52,test,1,con,1,z,Mon Mar 17 2025 15:05:38 GMT-0500 (Central Daylight Time),265537.6999999881,rage,900,O,z,z,None,892,692.0,200.0,50,1,2328.7999999821186,263208.90000000596,7085,rage,AF,A,261698,261698,260069,260982,260069,262398,261498,261498,262398,55
53,test,1,inc,1,z,Mon Mar 17 2025 15:05:38 GMT-0500 (Central Daylight Time),267637.1999999881,rock,900,O,z,z,None,655,455.0,200.0,54,1,2095.7999999821186,265541.40000000596,7085,rage,AF,A,264031,264031,262401,263314,262402,264497,263831,263831,264497,56
54,test,1,inc,1,m,Mon Mar 17 2025 15:05:38 GMT-0500 (Central Daylight Time),269602.6999999881,brutal,900,O,m,m,None,532,332.0,200.0,126,1,1961.5,267641.1999999881,7085,window,AF,A,266130,266130,264501,265414,264502,266463,265930,265930,266463,57
55,test,1,con,1,m,Mon Mar 17 2025 15:05:38 GMT-0500 (Central Daylight Time),271769.1999999881,film,800,O,m,m,None,818,618.0,200.0,89,1,2162.699999988079,269606.5,7085,film,AF,A,267996,267996,266467,267280,266467,268629,267796,267796,268629,58
56,test,1,con,1,z,Mon Mar 17 2025 15:05:38 GMT-0500 (Central Daylight Time),273868.3000000119,friend,800,O,z,z,None,764,564.0,200.0,25,1,2095.4000000059605,271772.90000000596,7085,friend,AF,A,270162,270162,268633,269446,268633,270728,269962,269962,270728,59
57,test,1,con,1,z,Mon Mar 17 2025 15:05:38 GMT-0500 (Central Daylight Time),276100.90000000596,temper,1100,O,z,z,None,588,389.0,199.0,60,1,2229.0,273871.90000000596,7085,temper,AF,A,272561,272561,270732,271845,270732,272961,272362,272362,272961,60
58,test,1,con,1,m,Mon Mar 17 2025 15:05:38 GMT-0500 (Central Daylight Time),278683.1999999881,jacket,800,O,m,m,None,1248,1048.0,200.0,97,1,2578.5999999940395,276104.59999999404,7085,jacket,AF,A,274494,274494,272965,273778,272965,275543,274294,274294,275543,61
59,test,1,inc,1,z,Mon Mar 17 2025 15:05:38 GMT-0500 (Central Daylight Time),280982.8000000119,film,1100,O,z,z,None,653,454.0,199.0,48,1,2295.5,278687.3000000119,7085,hate,AF,A,277376,277376,275547,276662,275548,277843,277177,277177,277843,62
60,test,1,inc,1,z,Mon Mar 17 2025 15:05:38 GMT-0500 (Central Daylight Time),283148.8000000119,bell,1000,O,z,z,None,630,430.0,200.0,23,1,2162.2000000178814,280986.59999999404,7085,love,AF,A,279576,279576,277847,278859,277847,280009,279376,279376,280009,63
61,test,1,con,1,m,Mon Mar 17 2025 15:05:38 GMT-0500 (Central Daylight Time),285697.8000000119,bell,1000,O,m,m,None,999,800.0,199.0,83,1,2545.300000011921,283152.5,7085,bell,AF,A,281742,281742,280013,281025,280013,282558,281542,281542,282558,64
62,test,1,con,1,m,Mon Mar 17 2025 15:05:38 GMT-0500 (Central Daylight Time),288563.59999999404,remote,1100,O,m,m,None,1231,1031.0,200.0,116,1,2861.699999988079,285701.90000000596,7085,remote,AF,A,284391,284391,282562,283675,282562,285424,284191,284191,285424,65
63,test,1,con,1,z,Mon Mar 17 2025 15:05:38 GMT-0500 (Central Daylight Time),290479.90000000596,love,800,O,z,z,None,569,369.0,200.0,17,1,1912.5,288567.40000000596,7085,love,AF,A,286957,286957,285427,286240,285428,287340,286757,286757,287340,66
64,test,1,con,1,m,Mon Mar 17 2025 15:05:38 GMT-0500 (Central Daylight Time),292962.40000000596,jacket,1100,O,m,m,None,849,649.0,200.0,100,1,2478.0,290484.40000000596,7085,jacket,AF,A,289173,289173,287344,288456,287345,289822,288973,288973,289822,67
65,test,1,inc,1,z,Mon Mar 17 2025 15:05:38 GMT-0500 (Central Daylight Time),295345.09999999404,rock,900,O,z,z,None,941,742.0,199.0,14,1,2379.0,292966.09999999404,7085,kind,AF,A,291455,291456,289826,290739,289826,292205,291256,291256,292205,68
66,test,1,inc,1,m,Mon Mar 17 2025 15:05:38 GMT-0500 (Central Daylight Time),297344.1999999881,elated,800,O,m,m,None,652,452.0,200.0,101,1,1995.0999999940395,295349.09999999404,7085,jacket,AF,A,293738,293738,292209,293022,292209,294204,293538,293538,294204,69
67,test,1,con,1,m,Mon Mar 17 2025 15:05:38 GMT-0500 (Central Daylight Time),299593.5,step,1000,O,m,m,None,709,509.0,200.0,67,1,2245.199999988079,297348.3000000119,7085,step,AF,A,295937,295937,294208,295221,294209,296454,295737,295737,296454,70
68,test,1,inc,1,z,Mon Mar 17 2025 15:05:38 GMT-0500 (Central Daylight Time),301876.0,window,1100,O,z,z,None,646,447.0,199.0,40,1,2278.5999999940395,299597.40000000596,7085,brutal,AF,A,298287,298287,296457,297570,296458,298736,298087,298087,298736,71
69,test,1,inc,1,m,Mon Mar 17 2025 15:05:38 GMT-0500 (Central Daylight Time),304042.0,love,1000,O,m,m,None,625,425.0,200.0,71,1,2161.800000011921,301880.1999999881,7085,step,AF,A,300469,300469,298740,299753,298740,300902,300269,300269,300902,72
70,test,1,inc,1,m,Mon Mar 17 2025 15:05:38 GMT-0500 (Central Daylight Time),305975.0,rage,800,O,m,m,None,594,395.0,199.0,69,1,1929.0999999940395,304045.90000000596,7085,step,AF,A,302435,302435,300906,301719,300906,302835,302236,302236,302835,73
71,test,1,inc,1,z,Mon Mar 17 2025 15:05:38 GMT-0500 (Central Daylight Time),308040.90000000596,napkin,900,O,z,z,None,618,418.0,200.0,62,1,2062.2000000178814,305978.6999999881,7085,temper,AF,A,304468,304468,302839,303752,302839,304901,304268,304268,304901,74
72,test,1,con,1,m,Mon Mar 17 2025 15:05:38 GMT-0500 (Central Daylight Time),310223.6999999881,napkin,900,O,m,m,None,744,544.0,200.0,106,1,2178.699999988079,308045.0,7085,napkin,AF,A,306534,306534,304905,305818,304905,307084,306334,306334,307084,75
73,test,1,inc,1,z,Mon Mar 17 2025 15:05:38 GMT-0500 (Central Daylight Time),312423.09999999404,remote,1000,O,z,z,None,661,461.0,200.0,63,1,2195.4000000059605,310227.6999999881,7085,temper,AF,A,308817,308817,307088,308100,307088,309283,308617,308617,309283,76
74,test,1,inc,1,z,Mon Mar 17 2025 15:05:38 GMT-0500 (Central Daylight Time),314405.6999999881,step,800,O,z,z,None,646,446.0,200.0,13,1,1978.5999999940395,312427.09999999404,7085,kind,AF,A,310816,310816,309287,310100,309287,311266,310616,310616,311266,77
75,test,1,inc,1,m,Mon Mar 17 2025 15:05:38 GMT-0500 (Central Daylight Time),316355.0,elated,800,O,m,m,None,606,407.0,199.0,125,1,1945.5999999940395,314409.40000000596,7085,window,AF,A,312799,312799,311269,312082,311270,313215,312599,312599,313215,78
76,test,1,con,1,m,Mon Mar 17 2025 15:05:38 GMT-0500 (Central Daylight Time),318587.6999999881,film,1000,O,m,m,None,697,498.0,199.0,91,1,2228.7999999821186,316358.90000000596,7085,film,AF,A,314948,314948,313219,314232,313219,315448,314749,314749,315448,79
77,test,1,con,1,m,Mon Mar 17 2025 15:05:38 GMT-0500 (Central Daylight Time),320703.8000000119,napkin,1000,O,m,m,None,576,377.0,199.0,107,1,2112.300000011921,318591.5,7085,napkin,AF,A,317181,317181,315452,316464,315452,317564,316981,316981,317564,80
78,test,1,inc,1,m,Mon Mar 17 2025 15:05:38 GMT-0500 (Central Daylight Time),322819.8000000119,love,1000,O,m,m,None,580,381.0,199.0,95,1,2112.300000011921,320707.5,7085,film,AF,A,319297,319297,317568,318580,317568,319680,319097,319097,319680,81
79,test,1,inc,1,z,Mon Mar 17 2025 15:05:38 GMT-0500 (Central Daylight Time),324935.59999999404,bell,1000,O,z,z,None,576,377.0,199.0,55,1,2112.0,322823.59999999404,7085,rage,AF,A,321413,321413,319684,320696,319684,321796,321213,321213,321796,82
80,test,1,inc,1,z,Mon Mar 17 2025 15:05:38 GMT-0500 (Central Daylight Time),327069.5,remote,1000,O,z,z,None,589,383.0,206.0,7,1,2130.0999999940395,324939.40000000596,7085,elated,AF,A,323535,323535,321799,322812,321800,323930,323329,323329,323930,83
81,test,1,inc,1,m,Mon Mar 17 2025 15:05:38 GMT-0500 (Central Daylight Time),329367.6999999881,friend,1100,O,m,m,None,651,452.0,199.0,128,1,2294.0,327073.6999999881,7085,window,AF,A,325762,325762,323934,325045,323934,326228,325562,325562,326228,84
82,test,1,con,1,z,Mon Mar 17 2025 15:05:38 GMT-0500 (Central Daylight Time),331233.8000000119,elated,800,O,z,z,None,517,317.0,200.0,1,1,1862.0,329371.8000000119,7085,elated,AF,A,327761,327761,326232,327044,326232,328094,327561,327561,328094,85
83,test,1,inc,1,z,Mon Mar 17 2025 15:05:38 GMT-0500 (Central Daylight Time),333449.8000000119,remote,1000,O,z,z,None,667,467.0,200.0,39,1,2212.5,331237.3000000119,7085,brutal,AF,A,329827,329827,328097,329110,328098,330310,329627,329627,330310,86
84,test,1,con,1,z,Mon Mar 17 2025 15:05:38 GMT-0500 (Central Daylight Time),335599.0,elated,1000,O,z,z,None,602,403.0,199.0,3,1,2144.800000011921,333454.1999999881,7085,elated,AF,A,332043,332043,330314,331326,330315,332459,331844,331844,332459,87
85,test,1,inc,1,z,Mon Mar 17 2025 15:05:38 GMT-0500 (Central Daylight Time),337565.0,jacket,800,O,z,z,None,629,430.0,199.0,37,1,1962.0999999940395,335602.90000000596,7085,brutal,AF,A,333992,333992,332463,333276,332463,334425,333793,333793,334425,88
86,test,1,inc,1,z,Mon Mar 17 2025 15:05:38 GMT-0500 (Central Daylight Time),339497.8000000119,step,800,O,z,z,None,592,392.0,200.0,45,1,1928.9000000059605,337568.90000000596,7085,hate,AF,A,335958,335958,334429,335242,334429,336358,335758,335758,336358,89
87,test,1,inc,1,m,Mon Mar 17 2025 15:05:38 GMT-0500 (Central Daylight Time),341714.59999999404,friend,1100,O,m,m,None,582,383.0,199.0,112,1,2213.0999999940395,339501.5,7085,napkin,AF,A,338191,338191,336362,337474,336362,338575,337991,337991,338575,90
88,test,1,inc,1,m,Mon Mar 17 2025 15:05:38 GMT-0500 (Central Daylight Time),343896.3000000119,love,1000,O,m,m,None,643,442.0,201.0,79,1,2177.800000011921,341718.5,7085,rock,AF,A,340308,340308,338579,339590,338579,340756,340107,340107,340756,91
89,test,1,inc,1,m,Mon Mar 17 2025 15:05:38 GMT-0500 (Central Daylight Time),345962.40000000596,brutal,900,O,m,m,None,631,432.0,199.0,110,1,2062.0999999940395,343900.3000000119,7085,napkin,AF,A,342390,342390,340760,341673,340761,342822,342190,342190,342822,92
90,test,1,con,1,z,Mon Mar 17 2025 15:05:38 GMT-0500 (Central Daylight Time),348511.6999999881,friend,1000,O,z,z,None,1009,810.0,199.0,27,1,2545.5999999940395,345966.09999999404,7085,friend,AF,A,344556,344556,342826,343839,342826,345372,344356,344356,345372,93
91,test,1,con,1,z,Mon Mar 17 2025 15:05:38 GMT-0500 (Central Daylight Time),350960.90000000596,temper,900,O,z,z,None,1009,732.0,277.0,58,1,2444.9000000059605,348516.0,7085,temper,AF,A,347082,347082,345376,346288,345376,347821,346805,346805,347821,94
92,test,1,con,1,m,Mon Mar 17 2025 15:05:38 GMT-0500 (Central Daylight Time),353109.90000000596,window,800,O,m,m,None,812,612.0,200.0,121,1,2145.0,350964.90000000596,7085,window,AF,A,349354,349354,347825,348638,347825,349970,349154,349154,349970,95
93,test,1,inc,1,m,Mon Mar 17 2025 15:05:38 GMT-0500 (Central Daylight Time),355309.5,hate,1100,O,m,m,None,563,363.0,200.0,96,1,2195.9000000059605,353113.59999999404,7085,film,AF,A,351803,351803,349974,351087,349974,352170,351603,351603,352169,96
94,test,1,inc,1,m,Mon Mar 17 2025 15:05:38 GMT-0500 (Central Daylight Time),357642.40000000596,brutal,900,O,m,m,None,883,683.0,200.0,118,1,2328.5,355313.90000000596,7085,remote,AF,A,353803,353803,352174,353087,352174,354503,353602,353602,354502,97
95,test,1,con,1,m,Mon Mar 17 2025 15:05:38 GMT-0500 (Central Daylight Time),359675.0,napkin,800,O,m,m,None,691,491.0,200.0,105,1,2028.800000011921,357646.1999999881,7085,napkin,AF,A,356035,356035,354506,355319,354507,356535,355835,355835,356535,98
96,test,1,con,1,m,Mon Mar 17 2025 15:05:38 GMT-0500 (Central Daylight Time),362024.09999999404,remote,1000,O,m,m,None,802,602.0,200.0,115,1,2345.5,359678.59999999404,7085,remote,AF,A,358268,358268,356539,357552,356539,358884,358068,358068,358884,99
97,test,1,con,1,z,Mon Mar 17 2025 15:05:38 GMT-0500 (Central Daylight Time),363873.59999999404,kind,900,O,z,z,None,408,209.0,199.0,10,1,1846.0,362027.59999999404,7085,kind,AF,A,360517,360517,358888,359801,358888,360734,360318,360318,360734,100
98,test,1,inc,1,m,Mon Mar 17 2025 15:05:38 GMT-0500 (Central Daylight Time),366172.8000000119,hate,1100,O,m,m,None,662,463.0,199.0,80,1,2295.4000000059605,363877.40000000596,7085,rock,AF,A,362567,362567,360737,361850,360738,363033,362367,362367,363033,101
99,test,1,con,1,m,Mon Mar 17 2025 15:05:38 GMT-0500 (Central Daylight Time),368438.8000000119,rock,1000,O,m,m,None,720,520.0,200.0,75,1,2262.0,366176.8000000119,7085,rock,AF,A,364766,364766,363037,364049,363037,365299,364566,364566,365299,102
100,test,1,inc,1,z,Mon Mar 17 2025 15:05:38 GMT-0500 (Central Daylight Time),370371.3000000119,step,800,O,z,z,None,590,390.0,200.0,53,1,1928.7000000178814,368442.59999999404,7085,rage,AF,A,366832,366832,365303,366116,365303,367231,366632,366632,367231,103
101,test,1,inc,1,z,Mon Mar 17 2025 15:05:38 GMT-0500 (Central Daylight Time),372604.0,film,1100,O,z,z,None,596,397.0,199.0,16,1,2228.9000000059605,370375.09999999404,7085,kind,AF,A,369065,369065,367235,368348,367235,369464,368865,368865,369464,104
102,test,1,con,1,m,Mon Mar 17 2025 15:05:38 GMT-0500 (Central Daylight Time),374503.59999999404,step,800,O,m,m,None,566,361.0,205.0,65,1,1895.699999988079,372607.90000000596,7085,step,AF,A,370997,370997,369468,370281,369468,371364,370792,370792,371364,105
103,test,1,con,1,m,Mon Mar 17 2025 15:05:38 GMT-0500 (Central Daylight Time),376436.3000000119,jacket,1000,O,m,m,None,389,190.0,199.0,99,1,1928.4000000059605,374507.90000000596,7085,jacket,AF,A,373096,373096,371368,372380,371368,373296,372897,372897,373296,106
104,test,1,inc,1,m,Mon Mar 17 2025 15:05:38 GMT-0500 (Central Daylight Time),378668.8000000119,elated,800,O,m,m,None,888,689.0,199.0,117,1,2228.4000000059605,376440.40000000596,7085,remote,AF,A,374829,374829,373300,374113,373301,375529,374629,374630,375529,107
105,test,1,con,1,m,Mon Mar 17 2025 15:05:38 GMT-0500 (Central Daylight Time),380868.1999999881,napkin,1100,O,m,m,None,563,364.0,199.0,108,1,2195.5,378672.6999999881,7085,napkin,AF,A,377362,377362,375533,376645,375533,377728,377162,377162,377728,108
105,test,1,inc,0,z,Mon Mar 17 2025 15:05:38 GMT-0500 (Central Daylight Time),383100.90000000596,remote,1000,O,m,m,None,689,489.0,200.0,31,1,2228.5999999940395,380872.3000000119,7085,friend,AF,A,379461,379461,377732,378745,377733,379961,379261,379261,379961,109
106,test,1,con,1,m,Mon Mar 17 2025 15:05:38 GMT-0500 (Central Daylight Time),385133.5,bell,900,O,m,m,None,596,396.0,200.0,82,1,2028.5,383105.0,7085,bell,AF,A,381594,381594,379965,380878,379966,381994,381394,381394,381994,110
107,test,1,con,1,z,Mon Mar 17 2025 15:05:38 GMT-0500 (Central Daylight Time),387416.0,elated,1100,O,z,z,None,634,435.0,199.0,4,1,2278.4000000059605,385137.59999999404,7085,elated,AF,A,383827,383827,381998,383110,381998,384276,383627,383627,384276,111
108,test,1,con,1,z,Mon Mar 17 2025 15:05:38 GMT-0500 (Central Daylight Time),389648.6999999881,kind,1100,O,z,z,None,585,385.0,200.0,12,1,2228.7999999821186,387419.90000000596,7085,kind,AF,A,386109,386109,384280,385393,384280,386509,385909,385909,386509,112
109,test,1,inc,1,m,Mon Mar 17 2025 15:05:38 GMT-0500 (Central Daylight Time),391631.40000000596,kind,900,O,m,m,None,544,344.0,200.0,86,1,1978.800000011921,389652.59999999404,7085,bell,AF,A,388142,388142,386513,387425,386513,388492,387942,387942,388491,113
110,test,1,inc,1,z,Mon Mar 17 2025 15:05:38 GMT-0500 (Central Daylight Time),393913.90000000596,film,1100,O,z,z,None,632,433.0,199.0,24,1,2278.7000000178814,391635.1999999881,7085,love,AF,A,390325,390325,388495,389608,388496,390774,390125,390125,390774,114
111,test,1,inc,1,m,Mon Mar 17 2025 15:05:38 GMT-0500 (Central Daylight Time),395896.90000000596,elated,800,O,m,m,None,634,435.0,199.0,109,1,1979.4000000059605,393917.5,7085,napkin,AF,A,392307,392307,390778,391591,390778,392757,392108,392108,392757,115
112,test,1,inc,1,m,Mon Mar 17 2025 15:05:38 GMT-0500 (Central Daylight Time),398112.8000000119,kind,900,O,m,m,None,648,443.0,205.0,70,1,2212.100000023842,395900.6999999881,7085,step,AF,A,394523,394523,392761,393674,392761,394973,394318,394318,394973,116
113,test,1,inc,1,m,Mon Mar 17 2025 15:05:38 GMT-0500 (Central Daylight Time),400212.09999999404,kind,900,O,m,m,None,656,456.0,200.0,94,1,2095.199999988079,398116.90000000596,7085,film,AF,A,396606,396606,394977,395889,394977,397072,396406,396406,397072,117
114,test,1,con,1,z,Mon Mar 17 2025 15:05:38 GMT-0500 (Central Daylight Time),402261.40000000596,brutal,800,O,z,z,None,713,513.0,200.0,33,1,2045.5999999940395,400215.8000000119,7085,brutal,AF,A,398605,398605,397076,397889,397076,399122,398405,398405,399121,118
115,test,1,con,1,m,Mon Mar 17 2025 15:05:38 GMT-0500 (Central Daylight Time),404360.6999999881,bell,800,O,m,m,None,750,551.0,199.0,81,1,2095.5,402265.1999999881,7085,bell,AF,A,400655,400655,399125,399939,399125,401221,400455,400455,401221,119
116,test,1,inc,1,m,Mon Mar 17 2025 15:05:38 GMT-0500 (Central Daylight Time),406660.09999999404,rage,800,O,m,m,None,956,756.0,200.0,85,1,2295.5,404364.59999999404,7085,bell,AF,A,402754,402754,401225,402038,401225,403520,402554,402554,403520,120
117,test,1,inc,1,m,Mon Mar 17 2025 15:05:38 GMT-0500 (Central Daylight Time),408842.59999999404,temper,1000,O,m,m,None,649,449.0,200.0,103,1,2178.699999988079,406663.90000000596,7085,jacket,AF,A,405253,405253,403524,404537,403524,405703,405053,405053,405703,121
118,test,1,con,1,z,Mon Mar 17 2025 15:05:38 GMT-0500 (Central Daylight Time),410942.0,kind,800,O,z,z,None,761,562.0,199.0,9,1,2095.800000011921,408846.1999999881,7085,kind,AF,A,407236,407236,405706,406520,405706,407802,407036,407036,407802,122
118,test,1,inc,0,z,Mon Mar 17 2025 15:05:38 GMT-0500 (Central Daylight Time),413091.5,jacket,800,O,m,m,None,806,606.0,200.0,5,1,2145.5999999940395,410945.90000000596,7085,elated,AF,A,409336,409336,407806,408619,407806,409952,409136,409136,409951,123
119,test,1,con,1,m,Mon Mar 17 2025 15:05:38 GMT-0500 (Central Daylight Time),415407.5,step,1100,O,m,m,None,676,476.0,200.0,68,1,2312.0999999940395,413095.40000000596,7085,step,AF,A,411786,411786,409955,411068,409956,412268,411585,411585,412267,124
120,test,1,con,1,m,Mon Mar 17 2025 15:05:38 GMT-0500 (Central Daylight Time),417623.09999999404,remote,900,O,m,m,None,768,569.0,199.0,114,1,2212.0,415411.09999999404,7085,remote,AF,A,413901,413901,412271,413184,412271,414483,413701,413701,414483,125
121,test,1,con,1,z,Mon Mar 17 2025 15:05:38 GMT-0500 (Central Daylight Time),420155.6999999881,rage,1100,O,z,z,None,890,690.0,200.0,52,1,2529.199999988079,417626.5,7085,rage,AF,A,416316,416316,414487,415600,414487,417016,416116,416116,417016,126
122,test,1,con,1,m,Mon Mar 17 2025 15:05:38 GMT-0500 (Central Daylight Time),422489.09999999404,film,1100,O,m,m,None,685,485.0,200.0,92,1,2329.199999988079,420159.90000000596,7085,film,AF,A,418849,418849,417020,418132,417020,419349,418649,418649,419349,127
123,test,1,con,1,z,Mon Mar 17 2025 15:05:38 GMT-0500 (Central Daylight Time),424554.1999999881,elated,900,O,z,z,None,617,417.0,200.0,2,1,2061.2999999821186,422492.90000000596,7085,elated,AF,A,420981,420981,419353,420265,419353,421414,420781,420781,421414,128
